Pitch,Roll,Gyro_X,Gyro_Y,Gyro_Z,Accel_X,Accel_Y,Accel_Z
0.4253869,4.758942,0.010954284,0.012317227,0.0012654932,-3.964798,-8.887277,0.37828386
0.42528194,4.758877,0.010954284,0.012317227,0.0012654932,-3.964798,-8.887277,0.37828386
0.42524436,4.7589836,0.013084813,0.020839343,0.0023307577,-4.027047,-8.949526,0.48362875
0.42520654,4.7590904,0.013084813,0.020839343,0.0023307577,-4.027047,-8.949526,0.48362875
0.42530137,4.7590084,0.010954284,0.029361458,0.00020022877,-4.0701427,-8.944737,0.40701428
0.4253965,4.7589264,0.010954284,0.029361458,0.00020022877,-4.0701427,-8.944737,0.40701428
0.4254296,4.7590256,0.008823755,0.033622514,-0.0019303001,-4.0892963,-8.992621,0.44532153
0.42546263,4.7591248,0.008823755,0.033622514,-0.0019303001,-4.0892963,-8.992621,0.44532153
0.42553505,4.7592072,0.0077584907,0.03681831,-0.006191358,-4.156334,-8.99741,0.49320555
0.4256074,4.7592897,0.0077584907,0.03681831,-0.006191358,-4.156334,-8.99741,0.49320555
0.42573705,4.7592926,0.008823755,0.035753045,-0.01151768,-4.1371803,-9.02614,0.4261679
0.4258668,4.759296,0.008823755,0.035753045,-0.01151768,-4.1371803,-9.02614,0.4261679
0.42598933,4.759279,0.00988902,0.031491987,-0.017909266,-4.2185836,-9.045294,0.4165911
0.42611194,4.759262,0.00988902,0.031491987,-0.017909266,-4.2185836,-9.045294,0.4165911
0.42621478,4.759306,0.010954284,0.026165664,-0.026431382,-4.2664676,-8.992621,0.47405192
0.4263174,4.7593493,0.010954284,0.026165664,-0.026431382,-4.2664676,-8.992621,0.47405192
0.42637676,4.759435,0.010954284,0.019774077,-0.03069244,-4.232949,-9.064447,0.51235914
0.42643633,4.7595205,0.010954284,0.019774077,-0.03069244,-4.232949,-9.064447,0.51235914
0.42653328,4.759569,0.010954284,0.013382491,-0.031757705,-4.295198,-9.045294,0.47884035
0.42663035,4.7596188,0.010954284,0.013382491,-0.031757705,-4.295198,-9.045294,0.47884035
0.42672214,4.75968,0.012019549,0.009121433,-0.03069244,-4.3382936,-9.011775,0.51235914
0.42681387,4.759741,0.012019549,0.009121433,-0.03069244,-4.3382936,-9.011775,0.51235914
0.4269096,4.7598076,0.016280606,0.003795111,-0.027496647,-4.3526587,-8.992621,0.51714754
0.4270052,4.759874,0.016280606,0.003795111,-0.027496647,-4.3526587,-8.992621,0.51714754
0.42711163,4.7599373,0.020541664,-0.00046594674,-0.022170324,-4.381389,-8.983045,0.50757074
0.42721805,4.7600007,0.020541664,-0.00046594674,-0.022170324,-4.381389,-8.983045,0.50757074
0.42733487,4.7600636,0.02160693,-0.0047270046,-0.013648209,-4.357447,-8.987833,0.49320555
0.42745197,4.7601266,0.02160693,-0.0047270046,-0.013648209,-4.357447,-8.987833,0.49320555
0.42758504,4.7601757,0.024802722,-0.007922798,-0.004060829,-4.3718123,-8.868123,0.46447513
0.42771807,4.7602243,0.024802722,-0.007922798,-0.004060829,-4.3718123,-8.868123,0.46447513
0.42786184,4.760275,0.025867987,-0.011118591,0.0065918155,-4.3957543,-8.939949,0.46447513
0.4280069,4.7603254,0.025867987,-0.011118591,0.0065918155,-4.3957543,-8.939949,0.46447513
0.42815867,4.7603865,0.026933251,-0.014314385,0.012983402,-4.367024,-8.901642,0.47405192
0.42830804,4.760446,0.026933251,-0.014314385,0.012983402,-4.367024,-8.901642,0.47405192
0.42846167,4.760495,0.027998514,-0.019640706,0.020440254,-4.3382936,-8.916007,0.45010993
0.4286202,4.760546,0.027998514,-0.019640706,0.020440254,-4.3382936,-8.916007,0.45010993
0.4287836,4.7606006,0.02906378,-0.0228365,0.025766576,-4.31914,-8.887277,0.45010993
0.42894712,4.760655,0.02906378,-0.0228365,0.025766576,-4.31914,-8.887277,0.45010993
0.42910844,4.7607355,0.030129045,-0.028162822,0.031092897,-4.309563,-8.911219,0.48362875
0.4292698,4.760816,0.030129045,-0.028162822,0.031092897,-4.309563,-8.911219,0.48362875
0.42944244,4.760875,0.030129045,-0.03455441,0.035353955,-4.256891,-8.949526,0.44532153
0.4296338,4.7609406,0.030129045,-0.03455441,0.035353955,-4.256891,-8.949526,0.44532153
0.42978853,4.7610126,0.032259572,-0.043076526,0.03854975,-4.285621,-8.949526,0.46447513
0.42996046,4.7610917,0.032259572,-0.043076526,0.03854975,-4.285621,-8.949526,0.46447513
0.43014058,4.7611284,0.032259572,-0.051598642,0.042810805,-4.2042184,-8.920795,0.4213795
0.4303194,4.7611647,0.032259572,-0.051598642,0.042810805,-4.2042184,-8.920795,0.4213795
0.4304912,4.761275,0.033324838,-0.06118602,0.04813713,-4.185065,-8.892065,0.46447513
0.43065992,4.761382,0.033324838,-0.06118602,0.04813713,-4.185065,-8.892065,0.46447513
0.43074724,4.7615533,0.033324838,-0.06970814,0.052398186,-4.10845,-8.872911,0.49320555
0.43083456,4.7617254,0.033324838,-0.06970814,0.052398186,-4.10845,-8.872911,0.49320555
0.4307583,4.76184,0.034390103,-0.077164985,0.054528717,-4.0462008,-8.853758,0.44532153
0.4306796,4.7619514,0.034390103,-0.077164985,0.054528717,-4.0462008,-8.853758,0.44532153
0.4306115,4.7619743,0.03545537,-0.08355658,0.059855036,-3.9791632,-8.805874,0.41180268
0.4305441,4.7619963,0.03545537,-0.08355658,0.059855036,-3.9791632,-8.805874,0.41180268
0.43046612,4.762066,0.03652063,-0.08781763,0.06624663,-3.86903,-8.734048,0.4261679
0.4303883,4.7621346,0.03652063,-0.08781763,0.06624663,-3.86903,-8.734048,0.4261679
0.4303366,4.762272,0.037585896,-0.08994816,0.071572945,-3.8307228,-8.714894,0.50278234
0.43028468,4.762407,0.037585896,-0.08994816,0.071572945,-3.8307228,-8.714894,0.50278234
0.43023765,4.762543,0.03652063,-0.09207869,0.07689927,-3.7732618,-8.676587,0.51714754
0.43019053,4.762678,0.03652063,-0.09207869,0.07689927,-3.7732618,-8.676587,0.51714754
0.4301425,4.762801,0.034390103,-0.08994816,0.08222559,-3.7445314,-8.63828,0.50278234
0.43009394,4.762924,0.034390103,-0.08994816,0.08222559,-3.7445314,-8.63828,0.50278234
0.43004104,4.763014,0.033324838,-0.08675237,0.089682445,-3.6870706,-8.614338,0.45968673
0.4299879,4.763104,0.033324838,-0.08675237,0.089682445,-3.6870706,-8.614338,0.45968673
0.42994702,4.7632074,0.032259572,-0.08142605,0.09607403,-3.6870706,-8.561666,0.48362875
0.42990574,4.763311,0.032259572,-0.08142605,0.09607403,-3.6870706,-8.561666,0.48362875
0.42986444,4.763377,0.030129045,-0.07503446,0.102465615,-3.667917,-8.556877,0.4357447
0.42982295,4.763444,0.030129045,-0.07503446,0.102465615,-3.667917,-8.556877,0.4357447
0.42978847,4.763487,0.026933251,-0.06757761,0.10779194,-3.6391866,-8.499416,0.40701428
0.42975414,4.7635293,0.026933251,-0.06757761,0.10779194,-3.6391866,-8.499416,0.40701428
0.429731,4.763546,0.022672193,-0.060120758,0.11311826,-3.643975,-8.480263,0.37828386
0.42970797,4.763562,0.022672193,-0.060120758,0.11311826,-3.643975,-8.480263,0.37828386
0.4296903,4.763572,0.019476399,-0.050533377,0.118444584,-3.6727054,-8.451532,0.3878607
0.42967284,4.7635818,0.019476399,-0.050533377,0.118444584,-3.6727054,-8.451532,0.3878607
0.42966077,4.7635775,0.015215342,-0.04201126,0.120575115,-3.6870706,-8.446744,0.38307226
0.42964855,4.7635727,0.015215342,-0.04201126,0.120575115,-3.6870706,-8.446744,0.38307226
0.42965883,4.76353,0.010954284,-0.03242388,0.119509846,-3.620033,-8.331821,0.31603462
0.429669,4.7634864,0.010954284,-0.03242388,0.119509846,-3.620033,-8.331821,0.31603462
0.42965162,4.7635283,0.005627962,-0.02496703,0.120575115,-3.596091,-8.360553,0.45968673
0.42963442,4.76357,0.005627962,-0.02496703,0.120575115,-3.596091,-8.360553,0.45968673
0.4296164,4.7635894,-0.0028941538,-0.016444914,0.12164038,-3.5625722,-8.389283,0.45010993
0.42959833,4.7636085,-0.0028941538,-0.016444914,0.12164038,-3.5625722,-8.389283,0.45010993
0.42957595,4.763617,-0.0071552116,-0.008988062,0.11737932,-3.6296098,-8.508993,0.45010993
0.4295539,4.763625,-0.0071552116,-0.008988062,0.11737932,-3.6296098,-8.508993,0.45010993
0.42952508,4.7636065,-0.012481534,-0.00046594674,0.11098773,-3.6104562,-8.532935,0.4213795
0.4294954,4.7635875,-0.012481534,-0.00046594674,0.11098773,-3.6104562,-8.532935,0.4213795
0.42947438,4.763521,-0.01674259,0.008056169,0.10566141,-3.667917,-8.5473,0.35913026
0.4294535,4.7634554,-0.01674259,0.008056169,0.10566141,-3.667917,-8.5473,0.35913026
0.42942613,4.7633815,-0.018873122,0.016578285,0.09820456,-3.6248214,-8.614338,0.33518824
0.4293983,4.7633076,-0.018873122,0.016578285,0.09820456,-3.6248214,-8.614338,0.33518824
0.4293545,4.7632384,-0.022068914,0.02723093,0.087551914,-3.7062242,-8.623915,0.38307226
0.4293103,4.7631693,-0.022068914,0.02723093,0.087551914,-3.7062242,-8.623915,0.38307226
0.42925328,4.763089,-0.025264706,0.03681831,0.07263821,-3.7541082,-8.7053175,0.38307226
0.42919636,4.7630086,-0.025264706,0.03681831,0.07263821,-3.7541082,-8.7053175,0.38307226
0.42911798,4.7629313,-0.027395237,0.045340426,0.054528717,-3.7732618,-8.796297,0.39743748
0.42903903,4.7628536,-0.027395237,0.045340426,0.054528717,-3.7732618,-8.796297,0.39743748
0.428956,4.762746,-0.0284605,0.050666746,0.03428869,-3.845088,-8.892065,0.35913026
0.42887232,4.762637,-0.0284605,0.050666746,0.03428869,-3.845088,-8.892065,0.35913026
0.4287799,4.7625117,-0.03059103,0.053862542,0.014048667,-3.8786068,-8.920795,0.33997664
0.4286877,4.7623873,-0.03059103,0.053862542,0.014048667,-3.8786068,-8.920795,0.33997664
0.4285505,4.76229,-0.03059103,0.053862542,-0.009387151,-3.940856,-8.954314,0.40701428
0.4284129,4.7621937,-0.03059103,0.053862542,-0.009387151,-3.940856,-8.954314,0.40701428
0.4282445,4.762124,-0.0284605,0.04853622,-0.03282297,-3.9121256,-9.006987,0.4261679
0.42807543,4.7620544,-0.0284605,0.04853622,-0.03282297,-3.9121256,-9.006987,0.4261679
0.42790878,4.761943,-0.027395237,0.040014103,-0.05519352,-3.9552212,-9.002198,0.37349546
0.42774147,4.7618303,-0.027395237,0.040014103,-0.05519352,-3.9552212,-9.002198,0.37349546
0.42753792,4.761746,-0.02313418,0.030426722,-0.077564076,-3.9983168,-9.011775,0.41180268
0.427334,4.761661,-0.02313418,0.030426722,-0.077564076,-3.9983168,-9.011775,0.41180268
0.42710885,4.761586,-0.019938385,0.018708814,-0.09673884,-3.9839516,-9.040505,0.40701428
0.42688444,4.761512,-0.019938385,0.018708814,-0.09673884,-3.9839516,-9.040505,0.40701428
0.42667535,4.76141,-0.01674259,0.009121433,-0.11058728,-3.9743748,-8.992621,0.36391866
0.42646626,4.7613077,-0.01674259,0.009121433,-0.11058728,-3.9743748,-8.992621,0.36391866
0.4262477,4.7612133,-0.013546798,0.0005993177,-0.120174654,-3.9935284,-8.930372,0.39264908
0.42602953,4.761118,-0.013546798,0.0005993177,-0.120174654,-3.9935284,-8.930372,0.39264908
0.4257666,4.761117,-0.0114162695,-0.0047270046,-0.123370446,-3.9552212,-8.911219,0.4405331
0.42550468,4.7611156,-0.0114162695,-0.0047270046,-0.123370446,-3.9552212,-8.911219,0.4405331
0.4253282,4.7610054,-0.009285741,-0.0068575335,-0.123370446,-3.9600096,-8.829816,0.35913026
0.42515284,4.760894,-0.009285741,-0.0068575335,-0.123370446,-3.9600096,-8.829816,0.35913026
0.42510694,4.7607946,-0.008220476,-0.005792269,-0.120174654,-4.0222588,-8.781932,0.38307226
0.42510694,4.7607946,-0.008220476,-0.005792269,-0.120174654,-4.0222588,-8.781932,0.38307226
0.42510694,4.7607946,-0.008220476,-0.005792269,-0.120174654,-4.0222588,-8.781932,0.38307226
0.42510694,4.7607946,-0.008220476,-0.005792269,-0.120174654,-4.0222588,-8.781932,0.38307226
0.42510694,4.7607946,-0.008220476,-0.005792269,-0.120174654,-4.0222588,-8.781932,0.38307226
0.4250507,4.760351,-0.006089947,0.0048603755,-0.10313042,-4.0701427,-8.714894,0.33039984
0.42505398,4.7602353,-0.0071552116,0.010186698,-0.092477776,-4.1371803,-8.7053175,0.32561144
0.42505398,4.7602353,-0.0071552116,0.010186698,-0.092477776,-4.1371803,-8.7053175,0.32561144
0.42505398,4.7602353,-0.0071552116,0.010186698,-0.092477776,-4.1371803,-8.7053175,0.32561144
0.42512652,4.7600136,-0.008220476,0.013382491,-0.07969461,-4.189853,-8.7292595,0.31124622
0.4251828,4.7599425,-0.010351005,0.01551302,-0.06691143,-4.237737,-8.710106,0.31124622
0.4252392,4.7598715,-0.010351005,0.01551302,-0.06691143,-4.237737,-8.710106,0.31124622
0.42530644,4.759796,-0.0114162695,0.016578285,-0.05412826,-4.247314,-8.719683,0.30166942
0.42537364,4.7597213,-0.0114162695,0.016578285,-0.05412826,-4.247314,-8.719683,0.30166942
0.42545354,4.759637,-0.012481534,0.014447756,-0.041345086,-4.2425256,-8.734048,0.29209262
0.42545354,4.759637,-0.012481534,0.014447756,-0.041345086,-4.2425256,-8.734048,0.29209262
0.4256138,4.759483,-0.01674259,0.010186698,-0.031757705,-4.189853,-8.7771435,0.33518824
0.42570278,4.759406,-0.01674259,0.010186698,-0.031757705,-4.189853,-8.7771435,0.33518824
0.425802,4.7593307,-0.018873122,0.0048603755,-0.02110506,-4.1371803,-8.7292595,0.34476504
0.42590153,4.7592554,-0.018873122,0.0048603755,-0.02110506,-4.1371803,-8.7292595,0.34476504
0.42596215,4.759142,-0.018873122,0.0005993177,-0.009387151,-4.1132383,-8.762778,0.25857377
0.4260231,4.7590284,-0.018873122,0.0005993177,-0.009387151,-4.1132383,-8.762778,0.25857377
0.4260873,4.758914,-0.019938385,-0.0047270046,0.0012654932,-4.0701427,-8.7771435,0.30166942
0.42615142,4.7587996,-0.019938385,-0.0047270046,0.0012654932,-4.0701427,-8.7771435,0.30166942
0.42617768,4.7586737,-0.022068914,-0.008988062,0.011918138,-4.036624,-8.834604,0.25857377
0.4262038,4.7585473,-0.022068914,-0.008988062,0.011918138,-4.036624,-8.834604,0.25857377
0.42620614,4.758422,-0.02313418,-0.012183856,0.023636047,-3.9695864,-8.791509,0.30166942
0.42620814,4.758297,-0.02313418,-0.012183856,0.023636047,-3.9695864,-8.791509,0.30166942
0.42619827,4.758176,-0.02313418,-0.014314385,0.033223428,-3.9456444,-8.829816,0.272939
0.42618805,4.7580557,-0.02313418,-0.014314385,0.033223428,-3.9456444,-8.829816,0.272939
0.42611906,4.757973,-0.02313418,-0.016444914,0.042810805,-3.8786068,-8.781932,0.34476504
0.4260498,4.7578907,-0.02313418,-0.016444914,0.042810805,-3.8786068,-8.781932,0.34476504
0.426015,4.7577887,-0.022068914,-0.016444914,0.05026766,-3.8642416,-8.839393,0.272939
0.4259799,4.757687,-0.022068914,-0.016444914,0.05026766,-3.8642416,-8.839393,0.272939
0.42593879,4.757592,-0.022068914,-0.01324912,0.056659244,-3.845088,-8.834604,0.2873042
0.4258975,4.757498,-0.022068914,-0.01324912,0.056659244,-3.845088,-8.834604,0.2873042
0.42584386,4.7574186,-0.022068914,-0.008988062,0.06305083,-3.8642416,-8.825027,0.33518824
0.42578992,4.75734,-0.022068914,-0.008988062,0.06305083,-3.8642416,-8.825027,0.33518824
0.42576087,4.7572427,-0.021003649,-0.005792269,0.06731189,-3.8738184,-8.858546,0.29688102
0.42573142,4.757145,-0.021003649,-0.005792269,0.06731189,-3.8738184,-8.858546,0.29688102
0.42570677,4.757048,-0.018873122,-0.0015312112,0.07263821,-3.8594532,-8.896853,0.2777274
0.42568192,4.756952,-0.018873122,-0.0015312112,0.07263821,-3.8594532,-8.896853,0.2777274
0.42565978,4.7568564,-0.017807856,-0.00046594674,0.075834006,-3.8786068,-8.892065,0.29209262
0.42563736,4.756761,-0.017807856,-0.00046594674,0.075834006,-3.8786068,-8.892065,0.29209262
0.42560834,4.7566757,-0.014612063,-0.00046594674,0.07689927,-3.8833952,-8.882488,0.31124622
0.42557886,4.7565904,-0.014612063,-0.00046594674,0.07689927,-3.8833952,-8.882488,0.31124622
0.42553005,4.756527,-0.013546798,-0.0015312112,0.075834006,-3.8786068,-8.892065,0.33997664
0.4254813,4.7564645,-0.013546798,-0.0015312112,0.075834006,-3.8786068,-8.892065,0.33997664
0.42542294,4.756426,-0.0114162695,-0.00366174,0.07689927,-3.845088,-8.954314,0.35434186
0.42536426,4.756387,-0.0114162695,-0.00366174,0.07689927,-3.845088,-8.954314,0.35434186
0.42529988,4.756388,-0.008220476,-0.008988062,0.075834006,-3.8498764,-8.930372,0.39743748
0.4252354,4.756389,-0.008220476,-0.008988062,0.075834006,-3.8498764,-8.930372,0.39743748
0.42518508,4.756338,-0.008220476,-0.012183856,0.075834006,-3.8259344,-8.925584,0.320823
0.42513463,4.756287,-0.008220476,-0.012183856,0.075834006,-3.8259344,-8.925584,0.320823
0.42507058,4.75627,-0.006089947,-0.017510178,0.07476874,-3.7780502,-8.90643,0.35913026
0.42500645,4.756253,-0.006089947,-0.017510178,0.07476874,-3.7780502,-8.90643,0.35913026
0.4249402,4.7562447,-0.0039594183,-0.020705972,0.073703475,-3.739743,-8.930372,0.36391866
0.42487407,4.756236,-0.0039594183,-0.020705972,0.073703475,-3.739743,-8.930372,0.36391866
0.4248092,4.756229,-0.0007636249,-0.023901764,0.07476874,-3.7062242,-8.892065,0.35434186
0.42474446,4.756222,-0.0007636249,-0.023901764,0.07476874,-3.7062242,-8.892065,0.35434186
0.4246751,4.7562284,0.001366904,-0.027097559,0.071572945,-3.6631286,-8.939949,0.37349546
0.4246055,4.756235,0.001366904,-0.027097559,0.071572945,-3.6631286,-8.939949,0.37349546
0.42453703,4.756231,0.0024321685,-0.029228088,0.07050768,-3.6727054,-8.887277,0.34476504
0.4244684,4.7562265,0.0024321685,-0.029228088,0.07050768,-3.6727054,-8.887277,0.34476504
0.4244068,4.756201,0.005627962,-0.028162822,0.06837715,-3.6727054,-8.901642,0.2873042
0.42434517,4.756175,0.005627962,-0.028162822,0.06837715,-3.6727054,-8.901642,0.2873042
0.42427233,4.7561855,0.005627962,-0.028162822,0.06837715,-3.6631286,-8.853758,0.36870706
0.4242,4.7561955,0.005627962,-0.028162822,0.06837715,-3.6631286,-8.853758,0.36870706
0.4241479,4.7561545,0.0066932263,-0.026032293,0.06731189,-3.6822822,-8.8777,0.24899697
0.42409578,4.7561135,0.0066932263,-0.026032293,0.06731189,-3.6822822,-8.8777,0.24899697
0.4240191,4.756127,0.0077584907,-0.0228365,0.0641161,-3.6296098,-8.858546,0.37349546
0.42394245,4.7561398,0.0077584907,-0.0228365,0.0641161,-3.6296098,-8.858546,0.37349546
0.4238635,4.756156,0.0077584907,-0.020705972,0.061985567,-3.6391866,-8.853758,0.38307226
0.42378458,4.7561717,0.0077584907,-0.020705972,0.061985567,-3.6391866,-8.853758,0.38307226
0.42370436,4.756175,0.0077584907,-0.017510178,0.059855036,-3.6487634,-8.887277,0.35913026
0.42362425,4.756178,0.0077584907,-0.017510178,0.059855036,-3.6487634,-8.887277,0.35913026
0.42354116,4.756178,0.0077584907,-0.014314385,0.056659244,-3.620033,-8.896853,0.35434186
0.42345792,4.7561784,0.0077584907,-0.014314385,0.056659244,-3.620033,-8.896853,0.35434186
0.42337674,4.7561636,0.005627962,-0.012183856,0.055593982,-3.6248214,-8.882488,0.32561144
0.42329547,4.7561483,0.005627962,-0.012183856,0.055593982,-3.6248214,-8.882488,0.32561144
0.4232092,4.7561445,0.0045626974,-0.010053327,0.05346345,-3.5865142,-8.825027,0.35434186
0.42312297,4.756141,0.0045626974,-0.010053327,0.05346345,-3.5865142,-8.825027,0.35434186
0.42303783,4.7561245,0.003497433,-0.008988062,0.052398186,-3.6248214,-8.901642,0.33039984
0.42295304,4.756108,0.003497433,-0.008988062,0.052398186,-3.6248214,-8.901642,0.33039984
0.42289588,4.756042,-0.0007636249,-0.007922798,0.052398186,-3.8546648,-8.882488,0.31124622
0.42283842,4.7559767,-0.0007636249,-0.007922798,0.052398186,-3.8546648,-8.882488,0.31124622
0.4228134,4.755885,-0.0039594183,-0.00366174,0.056659244,-3.8498764,-8.75799,0.29688102
0.42278796,4.755795,-0.0039594183,-0.00366174,0.056659244,-3.8498764,-8.75799,0.29688102
0.42271665,4.7558217,-0.0050246827,0.0005993177,0.061985567,-3.620033,-8.66701,0.4309563
0.42264524,4.7558484,-0.0050246827,0.0005993177,0.061985567,-3.620033,-8.66701,0.4309563
0.42257,4.7558517,-0.0050246827,0.0016645822,0.0641161,-3.4715924,-8.590396,0.39264908
0.42249465,4.7558556,-0.0050246827,0.0016645822,0.0641161,-3.4715924,-8.590396,0.39264908
0.42242494,4.7558227,-0.0050246827,0.0027298466,0.06624663,-3.3901896,-8.595184,0.29209262
0.42235506,4.7557898,-0.0050246827,0.0027298466,0.06624663,-3.3901896,-8.595184,0.29209262
0.42229784,4.755727,-0.0071552116,0.003795111,0.06518136,-3.4859576,-8.6095495,0.22984336
0.42224056,4.7556643,-0.0071552116,0.003795111,0.06518136,-3.4859576,-8.6095495,0.22984336
0.42217293,4.755608,-0.0114162695,0.00592564,0.061985567,-3.5625722,-8.671799,0.2825158
0.42210555,4.755552,-0.0114162695,0.00592564,0.061985567,-3.5625722,-8.671799,0.2825158
0.42202827,4.7555103,-0.014612063,0.010186698,0.059855036,-3.5338416,-8.78672,0.320823
0.4219512,4.7554693,-0.014612063,0.010186698,0.059855036,-3.5338416,-8.78672,0.320823
0.4218706,4.755442,-0.01674259,0.01551302,0.058789775,-3.5194764,-8.848969,0.36870706
0.42179,4.755415,-0.01674259,0.01551302,0.058789775,-3.5194764,-8.848969,0.36870706
0.42171013,4.755362,-0.019938385,0.021904606,0.056659244,-3.5290532,-8.887277,0.31603462
0.42163047,4.75531,-0.019938385,0.021904606,0.056659244,-3.5290532,-8.887277,0.31603462
0.4215504,4.755249,-0.02313418,0.029361458,0.055593982,-3.5098996,-8.882488,0.30645782
0.4214704,4.755188,-0.02313418,0.029361458,0.055593982,-3.5098996,-8.882488,0.30645782
0.421386,4.7551613,-0.024199443,0.037883572,0.052398186,-3.596091,-8.944737,0.4165911
0.42130136,4.7551346,-0.024199443,0.037883572,0.052398186,-3.596091,-8.944737,0.4165911
0.4212121,4.7551036,-0.025264706,0.045340426,0.047071867,-3.6008794,-8.944737,0.4165911
0.42112276,4.7550726,-0.025264706,0.045340426,0.047071867,-3.6008794,-8.944737,0.4165911
0.42102733,4.7550373,-0.024199443,0.04853622,0.041745543,-3.6104562,-8.896853,0.40222588
0.42093238,4.7550025,-0.024199443,0.04853622,0.041745543,-3.6104562,-8.896853,0.40222588
0.4208322,4.7549763,-0.022068914,0.049601484,0.035353955,-3.6535518,-8.863335,0.41180268
0.42073184,4.7549505,-0.022068914,0.049601484,0.035353955,-3.6535518,-8.863335,0.41180268
0.42061833,4.7549243,-0.021003649,0.050666746,0.02896237,-3.6343982,-8.825027,0.41180268
0.42051724,4.754901,-0.021003649,0.050666746,0.02896237,-3.6343982,-8.825027,0.41180268
0.42042422,4.7549124,-0.019938385,0.04853622,0.023636047,-3.6535518,-8.868123,0.49320555
0.4203295,4.754924,-0.019938385,0.04853622,0.023636047,-3.6535518,-8.868123,0.49320555
0.4202287,4.7549314,-0.021003649,0.047470953,0.020440254,-3.7014358,-8.834604,0.45968673
0.4201276,4.7549386,-0.021003649,0.047470953,0.020440254,-3.7014358,-8.834604,0.45968673
0.4200352,4.7549577,-0.021003649,0.047470953,0.019374989,-3.6774938,-8.829816,0.49799395
0.41994262,4.754977,-0.021003649,0.047470953,0.019374989,-3.6774938,-8.829816,0.49799395
0.41984347,4.754988,-0.021003649,0.047470953,0.019374989,-3.7349546,-8.834604,0.45489833
0.41974384,4.7549996,-0.021003649,0.047470953,0.019374989,-3.7349546,-8.834604,0.45489833
0.41967133,4.7550316,-0.022068914,0.04853622,0.023636047,-3.763685,-8.872911,0.50757074
0.41959864,4.755064,-0.022068914,0.04853622,0.023636047,-3.763685,-8.872911,0.50757074
0.41952354,4.7550898,-0.022068914,0.050666746,0.027897105,-3.8115692,-8.8777,0.46447513
0.41944823,4.755116,-0.022068914,0.050666746,0.027897105,-3.8115692,-8.8777,0.46447513
0.41938913,4.755148,-0.02313418,0.052797277,0.03428869,-3.8786068,-8.887277,0.4405331
0.41933015,4.7551794,-0.02313418,0.052797277,0.03428869,-3.8786068,-8.887277,0.4405331
0.41923666,4.75514,-0.022068914,0.057058334,0.04387607,-3.8833952,-8.872911,0.38307226
0.41914362,4.755101,-0.022068914,0.057058334,0.04387607,-3.8833952,-8.872911,0.38307226
0.41923338,4.7551603,-0.021003649,0.05918886,0.054528717,-4.003105,-8.916007,0.45010993
0.41932204,4.7552195,-0.021003649,0.05918886,0.054528717,-4.003105,-8.916007,0.45010993
0.41944766,4.7552724,-0.019938385,0.061319392,0.06518136,-4.0462008,-8.920795,0.47405192
0.4195728,4.755326,-0.019938385,0.061319392,0.06518136,-4.0462008,-8.920795,0.47405192
0.4197592,4.755352,-0.019938385,0.06344992,0.08009506,-4.146757,-8.872911,0.48841715
0.4199458,4.7553787,-0.019938385,0.06344992,0.08009506,-4.146757,-8.872911,0.48841715
0.4199801,4.7554283,-0.017807856,0.06451519,0.09820456,-3.9073372,-8.820239,0.4213795
0.4200133,4.755478,-0.017807856,0.06451519,0.09820456,-3.9073372,-8.820239,0.4213795
0.420135,4.755326,-0.014612063,0.06877624,0.11631405,-3.940856,-8.815451,0.33039984
0.4202555,4.7551727,-0.014612063,0.06877624,0.11631405,-3.940856,-8.815451,0.33039984
0.42051765,4.7550983,-0.012481534,0.0762331,0.12803197,-4.146757,-8.868123,0.34476504
0.4207825,4.755023,-0.012481534,0.0762331,0.12803197,-4.146757,-8.868123,0.34476504
0.42103207,4.7550473,-0.012481534,0.07942889,0.1386846,-4.1276035,-8.848969,0.46447513
0.42128178,4.755072,-0.012481534,0.07942889,0.1386846,-4.1276035,-8.848969,0.46447513
0.4214973,4.755121,-0.015677327,0.08049415,0.15146779,-4.098873,-8.853758,0.545878
0.4217118,4.7551703,-0.015677327,0.08049415,0.15146779,-4.098873,-8.853758,0.545878
0.42195997,4.75521,-0.01674259,0.07942889,0.16531622,-4.175488,-8.829816,0.56982
0.4222079,4.75525,-0.01674259,0.07942889,0.16531622,-4.175488,-8.829816,0.56982
0.4225067,4.7552576,-0.017807856,0.07729836,0.17596887,-4.1946416,-8.810662,0.46926352
0.42312974,4.7552557,-0.015677327,0.071972035,0.18449098,-4.2425256,-8.815451,0.41180268
0.42312974,4.7552557,-0.015677327,0.071972035,0.18449098,-4.2425256,-8.815451,0.41180268
0.42312974,4.7552557,-0.015677327,0.071972035,0.18449098,-4.2425256,-8.815451,0.41180268
0.42312974,4.7552557,-0.013546798,0.06344992,0.1930131,-4.247314,-8.815451,0.4261679
0.42312974,4.7552557,-0.013546798,0.06344992,0.1930131,-4.247314,-8.815451,0.4261679
0.42417863,4.7552247,-0.012481534,0.054927804,0.20366573,-4.261679,-8.844181,0.39743748
0.42480898,4.7551856,-0.012481534,0.054927804,0.20366573,-4.261679,-8.844181,0.39743748
0.42512593,4.7552195,-0.012481534,0.04427516,0.21112259,-4.19943,-8.810662,0.47405192
0.4254518,4.7552557,-0.012481534,0.04427516,0.21112259,-4.19943,-8.810662,0.47405192
0.4257641,4.7553153,-0.012481534,0.035753045,0.22177523,-4.146757,-8.892065,0.46926352
0.42607462,4.755376,-0.012481534,0.035753045,0.22177523,-4.146757,-8.892065,0.46926352
0.42607462,4.755376,-0.012481534,0.035753045,0.22177523,-4.146757,-8.892065,0.46926352
0.42677242,4.755454,-0.013546798,0.028296193,0.23029736,-4.185065,-8.916007,0.4405331
0.42713386,4.755493,-0.013546798,0.022969872,0.2441458,-4.2425256,-8.8777,0.46447513
0.4274954,4.7555327,-0.013546798,0.022969872,0.2441458,-4.2425256,-8.8777,0.46447513
0.427848,4.755599,-0.0114162695,0.020839343,0.26012474,-4.1706996,-8.839393,0.48362875
0.42819977,4.7556667,-0.0114162695,0.020839343,0.26012474,-4.1706996,-8.839393,0.48362875
0.4285106,4.7557592,-0.009285741,0.020839343,0.277169,-4.0557775,-8.796297,0.47405192
0.42881876,4.755852,-0.009285741,0.020839343,0.277169,-4.0557775,-8.796297,0.47405192
0.4290349,4.7559342,-0.0071552116,0.017643549,0.2888869,-3.9456444,-8.801085,0.46926352
0.42924902,4.756016,-0.0071552116,0.017643549,0.2888869,-3.9456444,-8.801085,0.46926352
0.42942485,4.756061,-0.0050246827,0.016578285,0.297409,-3.9456444,-8.762778,0.40701428
0.4295994,4.7561045,-0.0050246827,0.016578285,0.297409,-3.9456444,-8.762778,0.40701428
0.42976937,4.756126,-0.0028941538,0.017643549,0.30486587,-3.9217024,-8.834604,0.40701428
0.42993918,4.7561464,-0.0028941538,0.017643549,0.30486587,-3.9217024,-8.834604,0.40701428
0.43010905,4.7561536,-0.0028941538,0.018708814,0.30806166,-3.9264908,-8.844181,0.39743748
0.43027893,4.7561607,-0.0028941538,0.018708814,0.30806166,-3.9264908,-8.844181,0.39743748
0.43045396,4.75618,-0.0007636249,0.018708814,0.31125745,-3.9504328,-8.892065,0.40701428
0.43062884,4.7561975,-0.0007636249,0.018708814,0.31125745,-3.9504328,-8.892065,0.40701428
0.43083975,4.756269,0.00030163955,0.017643549,0.3123227,-3.9264908,-8.911219,0.49320555
0.43104976,4.75634,0.00030163955,0.017643549,0.3123227,-3.9264908,-8.911219,0.49320555
0.43122843,4.756362,0.001366904,0.018708814,0.31445324,-3.9839516,-9.030929,0.4213795
0.431407,4.756384,0.001366904,0.018708814,0.31445324,-3.9839516,-9.030929,0.4213795
0.4316041,4.7564316,0.0024321685,0.020839343,0.32084483,-4.098873,-9.050082,0.4213795
0.4317999,4.7564774,0.0024321685,0.020839343,0.32084483,-4.098873,-9.050082,0.4213795
0.43224084,4.7565446,0.003497433,0.024035135,0.3304322,-4.261679,-9.016563,0.45010993
0.4326802,4.7566137,0.003497433,0.024035135,0.3304322,-4.261679,-9.016563,0.45010993
0.4331369,4.756678,0.005627962,0.02723093,0.34215012,-4.3047748,-9.002198,0.46447513
0.43359256,4.756744,0.005627962,0.02723093,0.34215012,-4.3047748,-9.002198,0.46447513
0.43404877,4.756825,0.00988902,0.031491987,0.35706383,-4.295198,-8.930372,0.49799395
0.43450373,4.756907,0.00988902,0.031491987,0.35706383,-4.295198,-8.930372,0.49799395
0.43495956,4.757005,0.015215342,0.033622514,0.37623858,-4.2999864,-8.892065,0.5554548
0.43541303,4.757104,0.015215342,0.033622514,0.37623858,-4.2999864,-8.892065,0.5554548
0.43588763,4.757209,0.019476399,0.032557253,0.39860913,-4.280833,-8.892065,0.5363012
0.4363614,4.7573147,0.019476399,0.032557253,0.39860913,-4.280833,-8.892065,0.5363012
0.43684083,4.757432,0.024802722,0.033622514,0.41991442,-4.285621,-8.872911,0.59376204
0.4373188,4.75755,0.024802722,0.033622514,0.41991442,-4.285621,-8.872911,0.59376204
0.43783486,4.7576666,0.030129045,0.033622514,0.44228497,-4.405331,-8.829816,0.6799533
0.43835,4.757784,0.030129045,0.033622514,0.44228497,-4.405331,-8.829816,0.6799533
0.4389329,4.7578754,0.03652063,0.035753045,0.4657208,-4.453215,-8.848969,0.5315128
0.43951455,4.757967,0.03652063,0.035753045,0.4657208,-4.453215,-8.848969,0.5315128
0.44011918,4.7580647,0.041846953,0.037883572,0.4891566,-4.5441947,-8.844181,0.5746084
0.4407234,4.758163,0.041846953,0.037883572,0.4891566,-4.5441947,-8.844181,0.5746084
0.44133955,4.758278,0.04610801,0.04107937,0.5157882,-4.6160207,-8.968679,0.6512229
0.44195494,4.758394,0.04610801,0.04107937,0.5157882,-4.6160207,-8.968679,0.6512229
0.44259822,4.758515,0.051434334,0.043209895,0.54455036,-4.721366,-8.973468,0.7182605
0.44324097,4.7586365,0.051434334,0.043209895,0.54455036,-4.721366,-8.973468,0.7182605
0.4439324,4.7587485,0.056760654,0.043209895,0.575443,-4.807557,-8.930372,0.6655881
0.44462287,4.7588606,0.056760654,0.043209895,0.575443,-4.807557,-8.930372,0.6655881
0.4453352,4.7589912,0.06421751,0.04427516,0.6095315,-4.9081135,-9.011775,0.7757214
0.4460484,4.7591233,0.06421751,0.04427516,0.6095315,-4.9081135,-9.011775,0.7757214
0.44680148,4.759261,0.073804885,0.043209895,0.64575046,-5.0661306,-9.045294,0.81881696
0.44764417,4.7594166,0.073804885,0.043209895,0.64575046,-5.0661306,-9.045294,0.81881696
0.44842565,4.759552,0.08445753,0.040014103,0.6851653,-5.1379566,-9.002198,0.7469909
0.4491659,4.7596803,0.08445753,0.040014103,0.6851653,-5.1379566,-9.002198,0.7469909
0.4500051,4.7598276,0.09511018,0.03468778,0.72671056,-5.2145715,-9.011775,0.7374141
0.45085263,4.7599764,0.09511018,0.03468778,0.72671056,-5.2145715,-9.011775,0.7374141
0.451747,4.7601347,0.106828086,0.028296193,0.76932114,-5.3199162,-9.011775,0.7182605
0.45264298,4.7602935,0.106828086,0.028296193,0.76932114,-5.3199162,-9.011775,0.7182605
0.45358914,4.7604713,0.119611256,0.021904606,0.81512755,-5.3725886,-9.030929,0.7422025
0.4545229,4.760648,0.119611256,0.021904606,0.81512755,-5.3725886,-9.030929,0.7422025
0.45550498,4.76085,0.1334597,0.012317227,0.8630644,-5.473145,-8.992621,0.82360536
0.45648772,4.7610526,0.1334597,0.012317227,0.8630644,-5.473145,-8.992621,0.82360536
0.45750704,4.761288,0.14730814,0.0016645822,0.9110013,-5.521029,-9.02614,0.9672575
0.45852605,4.7615237,0.14730814,0.0016645822,0.9110013,-5.521029,-9.02614,0.9672575
0.4596055,4.76179,0.16435237,-0.012183856,0.9600035,-5.5401826,-9.035717,0.9911995
0.4606666,4.7620516,0.16435237,-0.012183856,0.9600035,-5.5401826,-9.035717,0.9911995
0.46177727,4.762336,0.1813966,-0.028162822,1.0090057,-5.5976434,-9.035717,0.9672575
0.46288985,4.762621,0.1813966,-0.028162822,1.0090057,-5.5976434,-9.035717,0.9672575
0.4640503,4.7629423,0.19950609,-0.048402846,1.0590731,-5.554548,-9.059659,1.0055647
0.4652092,4.7632637,0.19950609,-0.048402846,1.0590731,-5.554548,-9.059659,1.0055647
0.46641812,4.7636185,0.21868086,-0.06970814,1.1080753,-5.521029,-8.987833,1.0007763
0.4676253,4.763973,0.21868086,-0.06970814,1.1080753,-5.521029,-8.987833,1.0007763
0.4688796,4.764363,0.23785561,-0.09420922,1.1581427,-5.511452,-8.968679,1.0151415
0.4701333,4.7647533,0.23785561,-0.09420922,1.1581427,-5.511452,-8.968679,1.0151415
0.47143131,4.76518,0.25809565,-0.121906094,1.2060796,-5.439626,-8.858546,1.0055647
0.47273147,4.765609,0.25809565,-0.121906094,1.2060796,-5.439626,-8.858546,1.0055647
0.4740809,4.7660723,0.27940091,-0.1517335,1.2540165,-5.377377,-8.7292595,0.94810385
0.4754313,4.7665367,0.27940091,-0.1517335,1.2540165,-5.377377,-8.7292595,0.94810385
0.4768127,4.767051,0.3017715,-0.18262617,1.3008882,-5.257667,-8.566454,1.043872
0.47819355,4.7675667,0.3017715,-0.18262617,1.3008882,-5.257667,-8.566454,1.043872
0.4796106,4.768125,0.3220115,-0.21245357,1.3456292,-5.094861,-8.384495,1.0486604
0.48102674,4.7686844,0.3220115,-0.21245357,1.3456292,-5.094861,-8.384495,1.0486604
0.48247463,4.769285,0.34118626,-0.24228097,1.3871746,-5.00867,-8.236053,1.1109096
0.48392144,4.7698874,0.34118626,-0.24228097,1.3871746,-5.00867,-8.236053,1.1109096
0.4854056,4.770523,0.35609996,-0.27104312,1.4287199,-4.9176903,-8.049306,1.1252748
0.48688853,4.7711606,0.35609996,-0.27104312,1.4287199,-4.9176903,-8.049306,1.1252748
0.48840207,4.771832,0.36994842,-0.29980525,1.4670694,-4.8362875,-7.929596,1.1587936
0.4899144,4.7725058,0.36994842,-0.29980525,1.4670694,-4.8362875,-7.929596,1.1587936
0.49146533,4.7732096,0.38379684,-0.32643688,1.5075494,-4.7788267,-7.7572136,1.1731589
0.49301496,4.7739153,0.38379684,-0.32643688,1.5075494,-4.7788267,-7.7572136,1.1731589
0.4946057,4.7746468,0.3944495,-0.34987268,1.5490948,-4.7165775,-7.589619,1.163582
0.49619824,4.775382,0.3944495,-0.34987268,1.5490948,-4.7165775,-7.589619,1.163582
0.49782753,4.7761374,0.40510213,-0.36904746,1.5927706,-4.7261543,-7.5225816,1.1827357
0.49946046,4.7768974,0.40510213,-0.36904746,1.5927706,-4.7261543,-7.5225816,1.1827357
0.50114036,4.777677,0.4146895,-0.38715693,1.6375117,-4.7788267,-7.441179,1.1923125
0.5028174,4.778458,0.4146895,-0.38715693,1.6375117,-4.7788267,-7.441179,1.1923125
0.504545,4.779258,0.42214635,-0.40313593,1.683318,-4.7979803,-7.3310456,1.1923125
0.50627124,4.7800593,0.42214635,-0.40313593,1.683318,-4.7979803,-7.3310456,1.1923125
0.50804085,4.780881,0.42853796,-0.41698435,1.7323202,-4.8267107,-7.350199,1.2545617
0.509811,4.781706,0.42853796,-0.41698435,1.7323202,-4.8267107,-7.350199,1.2545617
0.51163197,4.78254,0.43173376,-0.42657173,1.7845182,-4.927267,-7.28795,1.3215994
0.5134533,4.7833776,0.43173376,-0.42657173,1.7845182,-4.927267,-7.28795,1.3215994
0.5153448,4.784221,0.43492955,-0.43402857,1.8409772,-4.951209,-7.1347213,1.2210429
0.5172314,4.785066,0.43492955,-0.43402857,1.8409772,-4.951209,-7.1347213,1.2210429
0.5191823,4.785923,0.43812534,-0.4425507,1.8995668,-5.0182467,-7.0341644,1.2545617
0.52112824,4.786782,0.43812534,-0.4425507,1.8995668,-5.0182467,-7.0341644,1.2545617
0.52314276,4.7876434,0.4391906,-0.44787702,1.9581563,-5.0517654,-6.8330517,1.2114661
0.5251563,4.7885084,0.4391906,-0.44787702,1.9581563,-5.0517654,-6.8330517,1.2114661
0.52724516,4.789367,0.4391906,-0.45320335,2.0188763,-5.1571107,-6.6175733,1.0965444
0.52933323,4.79023,0.4391906,-0.45320335,2.0188763,-5.1571107,-6.6175733,1.0965444
0.5314824,4.7910967,0.43706006,-0.45959494,2.0795965,-5.3103395,-6.4739213,1.1540052
0.5336312,4.7919664,0.43706006,-0.45959494,2.0795965,-5.3103395,-6.4739213,1.1540052
0.5358444,4.7928305,0.42853796,-0.46492124,2.1403165,-5.511452,-6.3111157,1.1587936
0.5380571,4.7936974,0.42853796,-0.46492124,2.1403165,-5.511452,-6.3111157,1.1587936
0.54033303,4.7945604,0.4178853,-0.47344336,2.202102,-5.78918,-6.3111157,1.1875241
0.54260826,4.7954264,0.4178853,-0.47344336,2.202102,-5.78918,-6.3111157,1.1875241
0.54494935,4.7962923,0.4061674,-0.48516127,2.2681482,-6.1243677,-6.3829417,1.2449849
0.54728955,4.797162,0.4061674,-0.48516127,2.2681482,-6.1243677,-6.3829417,1.2449849
0.54969996,4.798032,0.39231896,-0.4990097,2.339521,-6.4739213,-6.655881,1.3072342
0.5521096,4.798906,0.39231896,-0.4990097,2.339521,-6.4739213,-6.655881,1.3072342
0.55460095,4.799781,0.3795358,-0.5171192,2.420481,-6.8809357,-6.967127,1.3072342
0.55709165,4.80066,0.3795358,-0.5171192,2.420481,-6.8809357,-6.967127,1.3072342
0.55967724,4.8015475,0.36888313,-0.53735924,2.5163548,-7.2927384,-7.3789296,1.3263878
0.5622624,4.8024387,0.36888313,-0.53735924,2.5163548,-7.2927384,-7.3789296,1.3263878
0.56495774,4.803341,0.3614263,-0.56079507,2.6260772,-7.6710224,-7.728483,1.2641385
0.56765246,4.8042474,0.3614263,-0.56079507,2.6260772,-7.6710224,-7.728483,1.2641385
0.5704719,4.805173,0.3582305,-0.58529615,2.7517784,-7.9008656,-8.082825,1.2066777
0.57329345,4.806104,0.3582305,-0.58529615,2.7517784,-7.9008656,-8.082825,1.2066777
0.5762446,4.8070784,0.36036104,-0.61405826,2.892393,-8.1402855,-8.327033,1.3982137
0.57919484,4.8080583,0.36036104,-0.61405826,2.892393,-8.1402855,-8.327033,1.3982137
0.58229274,4.8090715,0.36675262,-0.6460162,3.0436609,-8.063671,-8.561666,1.2497733
0.5853959,4.810093,0.36675262,-0.6460162,3.0436609,-8.063671,-8.561666,1.2497733
0.5886502,4.811156,0.38060105,-0.67264783,3.2034504,-7.9583263,-8.839393,1.1683705
0.59190696,4.812226,0.38060105,-0.67264783,3.2034504,-7.9583263,-8.839393,1.1683705
0.595325,4.8133345,0.3944495,-0.69608366,3.366436,-7.776367,-9.141062,1.067814
0.598742,4.8144503,0.3944495,-0.69608366,3.366436,-7.776367,-9.141062,1.067814
0.6023158,4.8156104,0.40510213,-0.7152584,3.5272908,-7.771579,-9.351752,1.091756
0.60589206,4.816779,0.40510213,-0.7152584,3.5272908,-7.771579,-9.351752,1.091756
0.6096092,4.8180046,0.41682005,-0.7280416,3.6838846,-7.872135,-9.600749,1.2306197
0.6096092,4.8180046,0.41682005,-0.7280416,3.6838846,-7.872135,-9.600749,1.2306197
0.6096092,4.8180046,0.41682005,-0.7280416,3.6838846,-7.872135,-9.600749,1.2306197
0.6296767,4.8246117,0.44132113,-0.7504121,3.9938767,-8.226477,-10.314221,1.1971009
0.6296767,4.8246117,0.44132113,-0.7504121,3.9938767,-8.226477,-10.314221,1.1971009
0.6296767,4.8246117,0.44132113,-0.7504121,3.9938767,-8.226477,-10.314221,1.1971009
0.63339716,4.8258104,0.4573001,-0.75893426,4.1526012,-8.451532,-10.864887,1.2162545
0.63744164,4.827118,0.4573001,-0.75893426,4.1526012,-8.451532,-10.864887,1.2162545
0.64175177,4.8284717,0.4807359,-0.76745635,4.317717,-8.714894,-11.391612,1.2354081
0.64604425,4.829814,0.4807359,-0.76745635,4.317717,-8.714894,-11.391612,1.2354081
0.6503514,4.831195,0.5105633,-0.7802395,4.488159,-8.901642,-12.042834,1.13964
0.6546431,4.832595,0.5105633,-0.7802395,4.488159,-8.901642,-12.042834,1.13964
0.6590891,4.8341074,0.54571706,-0.798349,4.668189,-9.030929,-12.5504055,1.2018893
0.6635033,4.8356285,0.54571706,-0.798349,4.668189,-9.030929,-12.5504055,1.2018893
0.66812694,4.83728,0.5893929,-0.8228501,4.856741,-9.016563,-13.144167,1.2210429
0.6727983,4.8389664,0.5893929,-0.8228501,4.856741,-9.016563,-13.144167,1.2210429
0.67747724,4.8407083,0.6405256,-0.85161227,5.05488,-8.978256,-13.656527,1.2497733
0.6822248,4.8424954,0.6405256,-0.85161227,5.05488,-8.978256,-13.656527,1.2497733
0.6871877,4.844424,0.6969846,-0.8835702,5.263672,-8.844181,-14.06354,1.3311762
0.69215256,4.846375,0.6969846,-0.8835702,5.263672,-8.844181,-14.06354,1.3311762
0.6973229,4.8484674,0.76090044,-0.9155281,5.4799204,-8.647857,-14.379576,1.3742718
0.7024897,4.850583,0.76090044,-0.9155281,5.4799204,-8.647857,-14.379576,1.3742718
0.70786583,4.852845,0.8301427,-0.94535553,5.699365,-8.992621,-14.733917,1.4700398
0.713238,4.8551335,0.8301427,-0.94535553,5.699365,-8.992621,-14.733917,1.4700398
0.71881545,4.8576035,0.9025806,-0.97944397,5.917744,-7.9152308,-15.08347,1.8531121
0.72438854,4.8601027,0.9025806,-0.97944397,5.917744,-7.9152308,-15.08347,1.8531121
0.73018354,4.862755,0.98034495,-1.0028799,6.1446457,-8.1402855,-14.834474,1.6807296
0.7359619,4.8654346,0.98034495,-1.0028799,6.1446457,-8.1402855,-14.834474,1.6807296
0.7419665,4.86825,1.0581093,-1.0135324,6.3715467,-8.724471,-14.628572,1.3599066
0.74796563,4.8711023,1.0581093,-1.0135324,6.3715467,-8.724471,-14.628572,1.3599066
0.754175,4.874111,1.1305473,-1.0327072,6.5920568,-8.911219,-14.537593,1.2880806
0.76037836,4.877161,1.1305473,-1.0327072,6.5920568,-8.911219,-14.537593,1.2880806
0.76679033,4.8803787,1.2029852,-1.0572083,6.8125663,-8.987833,-14.480132,1.1923125
0.77319545,4.883643,1.2029852,-1.0572083,6.8125663,-8.987833,-14.480132,1.1923125
0.77980924,4.8870845,1.2754232,-1.0817094,7.0341415,-9.160215,-14.408306,1.1204864
0.7864151,4.890578,1.2754232,-1.0817094,7.0341415,-9.160215,-14.408306,1.1204864
0.79324377,4.8942475,1.3478612,-1.0998188,7.267434,-9.504981,-14.4130945,0.9624691
0.80006355,4.897976,1.3478612,-1.0998188,7.267434,-9.504981,-14.4130945,0.9624691
0.8071153,4.9018903,1.4202992,-1.112602,7.5113797,-9.562442,-14.346057,0.78050977
0.8141359,4.905858,1.4202992,-1.112602,7.5113797,-9.562442,-14.346057,0.78050977
0.8214167,4.9100266,1.4938024,-1.1168631,7.7606516,-9.595961,-14.159308,0.5363012
0.82868594,4.9142694,1.4938024,-1.1168631,7.7606516,-9.595961,-14.159308,0.5363012
0.8362003,4.9186945,1.5641098,-1.1051452,8.014185,-9.725247,-13.924677,0.35434186
0.8437019,4.9232016,1.5641098,-1.1051452,8.014185,-9.725247,-13.924677,0.35434186
0.8514408,4.9278803,1.6312215,-1.0795789,8.264522,-9.864111,-13.623008,0.110133275
0.85917366,4.9326544,1.6312215,-1.0795789,8.264522,-9.864111,-13.623008,0.110133275
0.867144,4.937592,1.6919416,-1.0433599,8.501011,-10.031705,-13.086706,-0.21547815
0.8751062,4.9426374,1.6919416,-1.0433599,8.501011,-10.031705,-13.086706,-0.21547815
0.88328123,4.9478383,1.7452048,-0.99968404,8.72152,-10.189722,-12.435484,-0.35434186
0.89143866,4.9531527,1.7452048,-0.99968404,8.72152,-10.189722,-12.435484,-0.35434186
0.89957845,4.958583,1.7452048,-0.99968404,8.72152,-10.189722,-12.435484,-0.35434186
0.9079184,4.9641743,1.7867501,-0.9549429,8.918594,-10.500969,-11.69807,-0.47884035
0.91623867,4.9698935,1.7867501,-0.9549429,8.918594,-10.500969,-11.69807,-0.47884035
0.92474097,4.9757776,1.8155123,-0.91446286,9.095428,-10.97502,-11.003751,-0.58418524
0.9332215,4.981803,1.8155123,-0.91446286,9.095428,-10.97502,-11.003751,-0.58418524
0.9418651,4.9880075,1.830426,-0.8857007,9.253087,-11.597513,-10.342952,-0.7326257
0.9505019,4.994381,1.830426,-0.8857007,9.253087,-11.597513,-10.342952,-0.7326257
0.9592381,5.0009437,1.8357522,-0.87824386,9.392637,-12.172121,-9.749189,-0.7038953
0.967965,5.007693,1.8357522,-0.87824386,9.392637,-12.172121,-9.749189,-0.7038953
0.9768039,5.0147038,1.830426,-0.8974186,9.519403,-12.74673,-9.188946,-0.8283938
0.98561287,5.0219088,1.830426,-0.8974186,9.519403,-12.74673,-9.188946,-0.8283938
0.9945081,5.0294337,1.8197733,-0.94322497,9.639778,-13.148955,-8.772355,-0.90021986
1.0033703,5.037175,1.8197733,-0.94322497,9.639778,-13.148955,-8.772355,-0.90021986
1.0122969,5.045309,1.8027291,-1.019924,9.758022,-13.364434,-8.379706,-0.866701
1.0211947,5.0536957,1.8027291,-1.019924,9.758022,-13.364434,-8.379706,-0.866701
1.0301156,5.062522,1.7771628,-1.1211241,9.873072,-13.321339,-8.082825,-0.8810662
1.0390024,5.0716333,1.7771628,-1.1211241,9.873072,-13.321339,-8.082825,-0.8810662
1.0479133,5.081272,1.7452048,-1.2414991,9.987055,-13.129802,-7.7189064,-0.9528923
1.0567743,5.0912266,1.7452048,-1.2414991,9.987055,-13.129802,-7.7189064,-0.9528923
1.0656414,5.1017723,1.7068553,-1.3746572,10.097842,-12.785037,-7.3166804,-1.0486604
1.0744507,5.112676,1.7068553,-1.3746572,10.097842,-12.785037,-7.3166804,-1.0486604
1.0832413,5.124232,1.6610489,-1.515272,10.201173,-12.282255,-6.895301,-0.94810385
1.0919651,5.136194,1.6610489,-1.515272,10.201173,-12.282255,-6.895301,-0.94810385
1.1006442,5.14886,1.6067204,-1.6580174,10.294916,-11.559206,-6.445191,-0.8810662
1.1092461,5.161985,1.6067204,-1.6580174,10.294916,-11.559206,-6.445191,-0.8810662
1.1177785,5.1758695,1.5470656,-1.7996976,10.379072,-10.7116585,-5.9184666,-0.7517793
1.126221,5.1902704,1.5470656,-1.7996976,10.379072,-10.7116585,-5.9184666,-0.7517793
1.1345708,5.205472,1.479954,-1.933921,10.450444,-9.888053,-5.3486466,-0.6943185
1.1428406,5.2213,1.479954,-1.933921,10.450444,-9.888053,-5.3486466,-0.6943185
1.1513904,5.238829,1.407516,-2.062818,10.509034,-9.11712,-4.8458643,-0.61770403
1.1590133,5.255306,1.407516,-2.062818,10.509034,-9.11712,-4.8458643,-0.61770403
1.1667879,5.2732935,1.3276211,-2.1831927,10.55271,-8.365341,-4.477157,-0.5267244
1.1744872,5.2921267,1.3276211,-2.1831927,10.55271,-8.365341,-4.477157,-0.5267244
1.1820035,5.3118854,1.2434653,-2.2907846,10.588929,-7.627927,-4.295198,-0.21547815
1.189361,5.3324094,1.2434653,-2.2907846,10.588929,-7.627927,-4.295198,-0.21547815
1.1965027,5.353878,1.1614399,-2.3866584,10.618756,-6.7468605,-4.036624,0.0047884034
1.2034705,5.3761916,1.1614399,-2.3866584,10.618756,-6.7468605,-4.036624,0.0047884034
1.2101951,5.399436,1.0815451,-2.465488,10.649649,-5.9424086,-3.8259344,0.11971009
1.2167227,5.4235744,1.0815451,-2.465488,10.649649,-5.9424086,-3.8259344,0.11971009
1.223004,5.448692,1.0037807,-2.521947,10.676281,-5.2959743,-3.572149,0.2681506
1.2290564,5.474718,1.0037807,-2.521947,10.676281,-5.2959743,-3.572149,0.2681506
1.2348495,5.5017233,0.9292123,-2.5581658,10.703978,-4.5633483,-3.371036,0.33039984
1.240387,5.5296583,0.9292123,-2.5581658,10.703978,-4.5633483,-3.371036,0.33039984
1.2456462,5.558525,0.8589048,-2.5720143,10.731674,-3.9264908,-3.1411927,0.45010993
1.2506276,5.5883493,0.8589048,-2.5720143,10.731674,-3.9264908,-3.1411927,0.45010993
1.2553288,5.61912,0.79072785,-2.5602965,10.758306,-3.2321723,-2.777274,0.58897364
1.2597153,5.6507626,0.79072785,-2.5602965,10.758306,-3.2321723,-2.777274,0.58897364
1.2638168,5.683231,0.7236162,-2.5240774,10.783873,-2.552219,-2.3175871,0.5650316
1.267575,5.716479,0.7236162,-2.5240774,10.783873,-2.552219,-2.3175871,0.5650316
1.2710513,5.750584,0.65543926,-2.4601617,10.803047,-1.8435353,-1.7621324,0.59376204
1.2741497,5.785241,0.65543926,-2.4601617,10.803047,-1.8435353,-1.7621324,0.59376204
1.2769601,5.820665,0.58406657,-2.3685489,10.810504,-1.1492168,-1.0486604,0.56982
1.2793955,5.8568006,0.58406657,-2.3685489,10.810504,-1.1492168,-1.0486604,0.56982
1.2815189,5.893457,0.50630224,-2.252435,10.798786,-0.5793968,-0.33039984,0.48841715
1.2832289,5.9302664,0.50630224,-2.252435,10.798786,-0.5793968,-0.33039984,0.48841715
1.2847126,5.967786,0.4210811,-2.1182117,10.762567,-0.16759412,0.33039984,0.47884035
1.2857869,6.0058355,0.4210811,-2.1182117,10.762567,-0.16759412,0.33039984,0.47884035
1.2865877,6.043623,0.32946837,-1.974401,10.697586,0.05746084,0.91937345,0.5650316
1.286973,6.0814576,0.32946837,-1.974401,10.697586,0.05746084,0.91937345,0.5650316
1.2870833,6.118923,0.23679034,-1.8263292,10.609169,0.11492168,1.364695,0.6512229
1.2867879,6.1562905,0.23679034,-1.8263292,10.609169,0.11492168,1.364695,0.6512229
1.2862272,6.193175,0.14411235,-1.6771922,10.498382,0.05267244,1.8243817,0.80924016
1.285274,6.2297897,0.14411235,-1.6771922,10.498382,0.05267244,1.8243817,0.80924016
1.284077,6.265678,0.05356486,-1.5323162,10.371615,-0.110133275,2.2649148,0.866701
1.2824557,0.019020205,0.05356486,-1.5323162,10.371615,-0.110133275,2.2649148,0.866701
1.2806908,0.05311403,-0.034852087,-1.3831792,10.229935,-0.31603462,2.705448,0.9672575
1.2785988,0.08651386,-0.034852087,-1.3831792,10.229935,-0.31603462,2.705448,0.9672575
1.2763116,0.11941375,-0.11900798,-1.2244548,10.076537,-0.41180268,3.145981,1.0534488
1.2736875,0.15192428,-0.11900798,-1.2244548,10.076537,-0.41180268,3.145981,1.0534488
1.2709582,0.18323995,-0.19890282,-1.0465556,9.902899,-0.521936,3.6727054,1.163582
1.2679329,0.2139196,-0.19890282,-1.0465556,9.902899,-0.521936,3.6727054,1.163582
1.2648748,0.24337433,-0.27347133,-0.83989435,9.693042,-0.62728083,4.4244847,1.2401965
1.2615321,0.27232322,-0.27347133,-0.83989435,9.693042,-0.62728083,4.4244847,1.2401965
1.25824,0.29996115,-0.3427135,-0.60234034,9.433117,-1.0390835,5.243302,1.2880806
1.254704,0.32698926,-0.3427135,-0.60234034,9.433117,-1.0390835,5.243302,1.2880806
1.2512993,0.35264552,-0.4151515,-0.3402853,9.110342,-1.7381904,6.0285997,1.3024458
1.2476673,0.37780485,-0.4151515,-0.3402853,9.110342,-1.7381904,6.0285997,1.3024458
1.244224,0.40159127,-0.50037265,-0.0707734,8.723651,-2.4756045,6.7085533,1.3455414
1.2405974,0.4248078,-0.50037265,-0.0707734,8.723651,-2.4756045,6.7085533,1.3455414
1.2372254,0.44649702,-0.598377,0.18595533,8.273044,-3.5051112,6.991069,1.412579
1.2336717,0.46783286,-0.598377,0.18595533,8.273044,-3.5051112,6.991069,1.412579
1.2304099,0.4875752,-0.70703393,0.41072613,7.7638474,-4.663905,6.919243,1.5370775
1.2270007,0.50695807,-0.70703393,0.41072613,7.7638474,-4.663905,6.919243,1.5370775
1.2238934,0.5247036,-0.8146257,0.58436424,7.210975,-5.6886234,6.5361705,1.7621324
1.2206566,0.54218334,-0.8146257,0.58436424,7.210975,-5.6886234,6.5361705,1.7621324
1.2177215,0.5579958,-0.90836895,0.6940865,6.624015,-6.9383965,5.9663506,2.0685902
1.214685,0.5735603,-0.90836895,0.6940865,6.624015,-6.9383965,5.9663506,2.0685902
1.2119374,0.5874803,-0.97974163,0.7345665,6.026401,-8.379706,5.3486466,2.2697031
1.209102,0.60122746,-0.97974163,0.7345665,6.026401,-8.379706,5.3486466,2.2697031
1.2065403,0.6133693,-1.0298091,0.71113074,5.440506,-9.821015,4.55856,2.456451
1.2039087,0.6253753,-1.0298091,0.71113074,5.440506,-9.821015,4.55856,2.456451
1.2015252,0.63583165,-1.0564407,0.62058324,4.8833723,-11.075577,3.715801,2.6767175
1.1990883,0.6461814,-1.0564407,0.62058324,4.8833723,-11.075577,3.715801,2.6767175
1.1969199,0.6548072,-1.0628322,0.46825042,4.3667192,-11.8896055,2.5713725,3.064578
1.1947297,0.6632799,-1.0628322,0.46825042,4.3667192,-11.8896055,2.5713725,3.064578
1.1926265,0.67011595,-1.0489838,0.26052386,3.8980029,-12.243947,1.4269443,3.4955344
1.1904896,0.6769069,-1.0489838,0.26052386,3.8980029,-12.243947,1.4269443,3.4955344
1.1883944,0.68234867,-1.0116996,0.013382491,3.479354,-12.109872,0.2681506,3.9121256
1.1862772,0.68774456,-1.0116996,0.013382491,3.479354,-12.109872,0.2681506,3.9121256
1.1841693,0.69198704,-0.9552406,-0.25293362,3.1118376,-11.832145,-0.7661445,4.309563
1.1820444,0.6961932,-0.9552406,-0.25293362,3.1118376,-11.832145,-0.7661445,4.309563
1.1820444,0.6961932,-0.9552406,-0.25293362,3.1118376,-11.832145,-0.7661445,4.309563
1.177695,0.70269454,-0.88173735,-0.5160539,2.794389,-11.33894,-1.7238252,4.5920787
1.177695,0.70269454,-0.88173735,-0.5160539,2.794389,-11.33894,-1.7238252,4.5920787
1.1732624,0.7074925,-0.79332036,-0.7599995,2.529138,-10.7356,-2.5091233,4.711789
1.171191,0.7090725,-0.6931855,-0.97411764,2.307563,-10.184934,-3.1268275,4.8219223
1.1689373,0.71076506,-0.6931855,-0.97411764,2.307563,-10.184934,-3.1268275,4.8219223
1.1689373,0.71076506,-0.6931855,-0.97411764,2.307563,-10.184934,-3.1268275,4.8219223
1.164621,0.71296513,-0.58133274,-1.1552126,2.125403,-9.514558,-3.5242648,4.9559975
1.1623954,0.7137134,-0.46415368,-1.2968928,1.977331,-8.7292595,-3.6296098,4.855441
1.1601658,0.71445227,-0.46415368,-1.2968928,1.977331,-8.7292595,-3.6296098,4.855441
1.1579322,0.7149361,-0.34484404,-1.3991581,1.8548256,-7.9583263,-3.5051112,4.855441
1.1556969,0.7154129,-0.34484404,-1.3991581,1.8548256,-7.9583263,-3.5051112,4.855441
1.153468,0.7157393,-0.22553442,-1.4620088,1.7546908,-7.240066,-3.0885203,4.7644615
1.1512412,0.7160596,-0.22553442,-1.4620088,1.7546908,-7.240066,-3.0885203,4.7644615
1.149056,0.716316,-0.11155113,-1.483314,1.6705348,-6.71813,-2.5091233,4.630386
1.1468685,0.71656835,-0.11155113,-1.483314,1.6705348,-6.71813,-2.5091233,4.630386
1.14473,0.7168176,-0.0071552116,-1.4684004,1.5938358,-6.3685765,-1.8674773,4.534618
1.142594,0.7170638,-0.0071552116,-1.4684004,1.5938358,-6.3685765,-1.8674773,4.534618
1.1405262,0.7173534,0.08552279,-1.4236592,1.5267242,-6.373365,-1.1444284,4.4101195
1.1384571,0.7176409,0.08552279,-1.4236592,1.5267242,-6.373365,-1.1444284,4.4101195
1.1364784,0.7179924,0.16754816,-1.3586781,1.4628084,-6.727707,-0.39743748,4.1946416
1.134502,0.71834075,0.16754816,-1.3586781,1.4628084,-6.727707,-0.39743748,4.1946416
1.132612,0.71876717,0.23679034,-1.2830443,1.4042188,-7.1969705,0.40222588,4.036624
1.1307266,0.7191894,0.23679034,-1.2830443,1.4042188,-7.1969705,0.40222588,4.036624
1.1289325,0.71968037,0.2921841,-1.2063453,1.348825,-7.771579,1.1109096,3.8498764
1.127162,0.72016084,0.2921841,-1.2063453,1.348825,-7.771579,1.1109096,3.8498764
1.1254566,0.7207037,0.3369252,-1.1360378,1.2987576,-8.422802,1.7669208,3.7062242
1.1237264,0.72125,0.3369252,-1.1360378,1.2987576,-8.422802,1.7669208,3.7062242
1.1221049,0.72183186,0.37101367,-1.0753177,1.2582775,-9.179369,2.456451,3.5913026
1.1204981,0.72240514,0.37101367,-1.0753177,1.2582775,-9.179369,2.456451,3.5913026
1.1190172,0.7230728,0.3944495,-1.0273808,1.2263197,-9.883265,2.9975405,3.5625722
1.1175308,0.72375524,0.3944495,-1.0273808,1.2263197,-9.883265,2.9975405,3.5625722
1.115999,0.72492063,0.40829793,-0.9943577,1.2050143,-10.405201,3.5817258,3.5482068
1.1144743,0.7260728,0.40829793,-0.9943577,1.2050143,-10.405201,3.5817258,3.5482068
1.1129428,0.72725236,0.4146895,-0.97944397,1.1964922,-10.802638,4.074931,3.514688
1.1114143,0.72842366,0.4146895,-0.97944397,1.1964922,-10.802638,4.074931,3.514688
1.1098754,0.72960055,0.4146895,-0.9783787,1.199688,-11.008539,4.582502,3.3518825
1.1083369,0.73077154,0.4146895,-0.9783787,1.199688,-11.008539,4.582502,3.3518825
1.1067713,0.7319415,0.40723267,-0.9879661,1.2146018,-11.085154,5.0757074,3.265691
1.1052059,0.73310643,0.40723267,-0.9879661,1.2146018,-11.085154,5.0757074,3.265691
1.103601,0.734261,0.39231896,-1.0060756,1.235907,-10.931925,5.5162406,3.1507695
1.1019968,0.73540884,0.39231896,-1.0060756,1.235907,-10.931925,5.5162406,3.1507695
1.1003561,0.73654616,0.36888313,-1.0241851,1.2646692,-10.773908,5.861006,2.9831753
1.0987155,0.7376766,0.36888313,-1.0241851,1.2646692,-10.773908,5.861006,2.9831753
1.0970267,0.73879236,0.33799046,-1.0422946,1.296627,-10.299856,6.157887,2.9400797
1.095338,0.7399013,0.33799046,-1.0422946,1.296627,-10.299856,6.157887,2.9400797
1.0936053,0.74099356,0.3017715,-1.056143,1.3296503,-9.821015,6.4068837,2.9017725
1.0918751,0.74207854,0.3017715,-1.056143,1.3296503,-9.821015,6.4068837,2.9017725
1.0901031,0.7431482,0.26022616,-1.0614693,1.3626735,-9.279925,6.555324,2.992752
1.088331,0.7442113,0.26022616,-1.0614693,1.3626735,-9.279925,6.555324,2.992752
1.0865285,0.7452566,0.21335453,-1.0572083,1.3935661,-8.652645,6.670246,3.083732
1.0847262,0.7462957,0.21335453,-1.0572083,1.3935661,-8.652645,6.670246,3.083732
1.0829085,0.7473202,0.1632871,-1.0433599,1.4191325,-8.078036,6.727707,3.098097
1.0810909,0.74833864,0.1632871,-1.0433599,1.4191325,-8.078036,6.727707,3.098097
1.0792662,0.7493345,0.11002388,-1.0188588,1.4361767,-7.513005,6.5984197,3.2513258
1.0774468,0.7503211,0.11002388,-1.0188588,1.4361767,-7.513005,6.5984197,3.2513258
1.0756431,0.7512848,0.055695392,-0.98370504,1.4425683,-7.0581064,6.5026517,3.3423057
1.0738351,0.75224394,0.055695392,-0.98370504,1.4425683,-7.0581064,6.5026517,3.3423057
1.0720568,0.7531799,0.0045626974,-0.93896395,1.437242,-6.6606693,6.3542113,3.4332852
1.0702868,0.7541046,0.0045626974,-0.93896395,1.437242,-6.6606693,6.3542113,3.4332852
1.0685506,0.75501424,-0.045504734,-0.8888965,1.4265894,-6.277597,6.1387334,3.4332852
1.0668159,0.7559166,-0.045504734,-0.8888965,1.4265894,-6.277597,6.1387334,3.4332852
1.0651346,0.7567922,-0.0945069,-0.8324375,1.4042188,-6.0285997,5.9663506,3.490746
1.0633788,0.75769997,-0.0945069,-0.8324375,1.4042188,-6.0285997,5.9663506,3.490746
1.0617788,0.7585243,-0.13711748,-0.7727827,1.3701303,-5.6982,5.7125654,3.5482068
1.0602056,0.75932896,-0.13711748,-0.7727827,1.3701303,-5.6982,5.7125654,3.5482068
1.0586494,0.76012367,-0.17759752,-0.7099321,1.3296503,-5.45878,5.535394,3.6487634
1.0571156,0.76090086,-0.17759752,-0.7099321,1.3296503,-5.45878,5.535394,3.6487634
1.0556467,0.7616439,-0.21381652,-0.6470815,1.2795829,-5.2289367,5.291186,3.6535518
1.0541803,0.7623806,-0.21381652,-0.6470815,1.2795829,-5.2289367,5.291186,3.6535518
1.0527927,0.763062,-0.24683972,-0.5863614,1.219928,-4.999093,5.109226,3.7588966
1.0514165,0.7637325,-0.24683972,-0.5863614,1.219928,-4.999093,5.109226,3.7588966
1.0501187,0.76434994,-0.27560186,-0.5256413,1.1549469,-4.6686935,4.9320555,3.8307228
1.0488138,0.7649666,-0.27560186,-0.5256413,1.1549469,-4.6686935,4.9320555,3.8307228
1.0476191,0.7655035,-0.2979724,-0.4606602,1.0771827,-4.3143516,4.687847,4.0797195
1.0464272,0.76603645,-0.2979724,-0.4606602,1.0771827,-4.3143516,4.687847,4.0797195
1.0453448,0.76649857,-0.31501663,-0.39248326,0.98556983,-3.9360676,4.3622355,4.122815
1.044264,0.7669577,-0.31501663,-0.39248326,0.98556983,-3.9360676,4.3622355,4.122815
1.0433128,0.7673377,-0.32673454,-0.3200453,0.8769129,-3.6152446,4.0940847,4.175488
1.0423635,0.7677149,-0.32673454,-0.3200453,0.8769129,-3.6152446,4.0940847,4.175488
1.0415668,0.76800823,-0.33206087,-0.23801991,0.7437548,-3.347094,3.8355112,4.1276035
1.0407709,0.76829976,-0.33206087,-0.23801991,0.7437548,-3.347094,3.8355112,4.1276035
1.0401487,0.76847756,-0.33525667,-0.15279876,0.58503044,-3.1507695,3.490746,4.10845
1.039528,0.7686537,-0.33525667,-0.15279876,0.58503044,-3.1507695,3.490746,4.10845
1.0390958,0.7686911,-0.3373872,-0.06757761,0.40500072,-2.9496565,3.169923,4.1419687
1.0386648,0.7687284,-0.3373872,-0.06757761,0.40500072,-2.9496565,3.169923,4.1419687
1.0384377,0.7685967,-0.33312613,0.011251962,0.19940469,-2.777274,2.896984,4.223372
1.0382107,0.7684653,-0.33312613,0.011251962,0.19940469,-2.777274,2.896984,4.223372
1.0381956,0.76813257,-0.32460403,0.07836362,-0.03069244,-2.408567,2.6862943,4.2904096
1.0381804,0.76780033,-0.32460403,0.07836362,-0.03069244,-2.408567,2.6862943,4.2904096
1.038378,0.76723063,-0.3075598,0.12843105,-0.28102958,-2.1068976,2.4612393,4.247314
1.0385753,0.766662,-0.3075598,0.12843105,-0.28102958,-2.1068976,2.4612393,4.247314
1.038992,0.7658143,-0.2830587,0.16358478,-0.55480254,-1.7429788,2.1643584,4.3047748
1.0394082,0.76496667,-0.2830587,0.16358478,-0.55480254,-1.7429788,2.1643584,4.3047748
1.040046,0.76380795,-0.25110078,0.18489006,-0.8477503,-1.436521,1.958457,4.309563
1.0406823,0.76264924,-0.25110078,0.18489006,-0.8477503,-1.436521,1.958457,4.309563
1.0415435,0.76115185,-0.21488178,0.19767325,-1.1545465,-1.0965444,1.7142484,4.3478703
1.0424031,0.7596517,-0.21488178,0.19767325,-1.1545465,-1.0965444,1.7142484,4.3478703
1.0434934,0.75778985,-0.17333646,0.20619535,-1.47093,-0.8714894,1.4413095,4.3526587
1.0445707,0.7559392,-0.17333646,0.20619535,-1.47093,-0.8714894,1.4413095,4.3526587
1.0458859,0.75371337,-0.12859535,0.21578273,-1.7926399,-0.5410896,1.2114661,4.3861775
1.0471957,0.75148064,-0.12859535,0.21578273,-1.7926399,-0.5410896,1.2114661,4.3861775
1.0487338,0.7488873,-0.08385425,0.22856592,-2.115415,-0.10534488,1.0486604,4.3382936
1.0502664,0.74628043,-0.08385425,0.22856592,-2.115415,-0.10534488,1.0486604,4.3382936
1.0520332,0.7433148,-0.03804788,0.25093648,-2.4371247,0.2681506,1.0199299,4.2999864
1.0537913,0.74033374,-0.03804788,0.25093648,-2.4371247,0.2681506,1.0199299,4.2999864
1.0557921,0.7369963,0.0066932263,0.2860902,-2.7588346,0.7278373,1.0534488,4.1419687
1.0577762,0.73364806,0.0066932263,0.2860902,-2.7588346,0.7278373,1.0534488,4.1419687
1.0600183,0.729939,0.049303804,0.33722287,-3.0826752,1.2641385,1.1923125,4.084508
1.0622498,0.726199,0.049303804,0.33722287,-3.0826752,1.2641385,1.1923125,4.084508
1.064737,0.722115,0.08871859,0.40433455,-3.408646,1.7381904,1.3024458,4.0174704
1.0671998,0.7180132,0.08871859,0.40433455,-3.408646,1.7381904,1.3024458,4.0174704
1.0699468,0.7135172,0.122807056,0.4831641,-3.7420738,2.2936451,1.3599066,4.0318356
1.0726932,0.7089503,0.122807056,0.4831641,-3.7420738,2.2936451,1.3599066,4.0318356
1.0757159,0.7039971,0.15156919,0.5747769,-4.0850887,2.6192567,1.3742718,3.9025488
1.0787184,0.69898885,0.15156919,0.5747769,-4.0850887,2.6192567,1.3742718,3.9025488
1.0820183,0.6935532,0.17820081,0.67917275,-4.438757,2.7964275,1.3072342,3.7062242
1.0852879,0.6880604,0.17820081,0.67917275,-4.438757,2.7964275,1.3072342,3.7062242
1.0888773,0.6820816,0.19950609,0.79422134,-4.803077,2.7389667,1.3359646,3.5865142
1.0924401,0.6760194,0.19950609,0.79422134,-4.803077,2.7389667,1.3359646,3.5865142
1.0963068,0.66946864,0.21228927,0.91992253,-5.1663322,2.4468741,1.2258313,3.3854012
1.1001501,0.66280377,0.21228927,0.91992253,-5.1663322,2.4468741,1.2258313,3.3854012
1.1042997,0.6556115,0.2229419,1.0541458,-5.5317183,1.9632454,1.0007763,3.2561142
1.108414,0.6482977,0.2229419,1.0541458,-5.5317183,1.9632454,1.0007763,3.2561142
1.1128416,0.64038426,0.22720297,1.1904997,-5.8917775,1.292869,0.7565677,3.083732
1.1172241,0.6323325,0.22720297,1.1904997,-5.8917775,1.292869,0.7565677,3.083732
1.1218972,0.6236646,0.22720297,1.3289841,-6.2379885,0.58897364,0.5410896,2.9879637
1.1265239,0.6148239,0.22720297,1.3289841,-6.2379885,0.58897364,0.5410896,2.9879637
1.131421,0.6053272,0.22400717,1.465338,-6.5682206,-0.33997664,0.37349546,2.8778305
1.1362543,0.5956468,0.22400717,1.465338,-6.5682206,-0.33997664,0.37349546,2.8778305
1.1413558,0.58524644,0.21974611,1.6016918,-6.8782125,-1.3694834,0.22505496,2.5809495
1.1463948,0.5746086,0.21974611,1.6016918,-6.8782125,-1.3694834,0.22505496,2.5809495
1.15166,0.56326556,0.20909347,1.7380457,-7.1605077,-2.4660277,0.1436521,2.2697031
1.156859,0.55163765,0.20909347,1.7380457,-7.1605077,-2.4660277,0.1436521,2.2697031
1.1622952,0.5392221,0.1931145,1.8701384,-7.415106,-3.6631286,0.01436521,2.054225
1.1676493,0.5264892,0.1931145,1.8701384,-7.415106,-3.6631286,0.01436521,2.054225
1.1732438,0.51300555,0.17180921,1.9990355,-7.6398764,-4.8219223,-0.1388637,1.8291701
1.1787518,0.4991389,0.17180921,1.9990355,-7.6398764,-4.8219223,-0.1388637,1.8291701
1.1844103,0.4846125,0.14624287,2.118345,-7.8337545,-6.0142345,-0.33997664,1.7621324
1.1899749,0.46965882,0.14624287,2.118345,-7.8337545,-6.0142345,-0.33997664,1.7621324
1.1956477,0.45402035,0.11748073,2.2291327,-7.997805,-7.1586633,-0.40222588,1.5849615
1.2012048,0.43794292,0.11748073,2.2291327,-7.997805,-7.1586633,-0.40222588,1.5849615
1.206829,0.4210772,0.08658806,2.3282022,-8.133094,-8.231265,-0.545878,1.5753847
1.2123252,0.4037298,0.08658806,2.3282022,-8.133094,-8.231265,-0.545878,1.5753847
1.2178336,0.38561228,0.055695392,2.4112928,-8.23749,-9.193734,-0.6655881,1.541866
1.2232018,0.36697468,0.055695392,2.4112928,-8.23749,-9.193734,-0.6655881,1.541866
1.2285504,0.3475073,0.025867987,2.4773393,-8.315254,-10.079589,-0.842759,1.5131354
1.2335025,0.32843855,0.025867987,2.4773393,-8.315254,-10.079589,-0.842759,1.5131354
1.2386354,0.30762577,-0.0039594183,2.5263414,-8.365321,-10.907983,-1.0295067,1.5562311
1.2438293,0.2852043,-0.0039594183,2.5263414,-8.365321,-10.907983,-1.0295067,1.5562311
1.2438293,0.2852043,-0.0039594183,2.5263414,-8.365321,-10.907983,-1.0295067,1.5562311
1.2510597,0.25148067,-0.03059103,2.5582993,-8.389823,-11.563994,-1.2545617,1.6184803
1.2586136,0.21241003,-0.056157377,2.5753436,-8.393019,-12.014104,-1.4748282,1.6184803
1.262275,0.19173841,-0.056157377,2.5753436,-8.393019,-12.014104,-1.4748282,1.6184803
1.266547,0.16589136,-0.0795932,2.5796046,-8.375975,-12.263102,-1.7525556,1.6519991
1.2708445,0.13768299,-0.0795932,2.5796046,-8.375975,-12.263102,-1.7525556,1.6519991
1.2708445,0.13768299,-0.0795932,2.5796046,-8.375975,-12.263102,-1.7525556,1.6519991
1.2774713,0.08862088,-0.10089848,2.5785394,-8.344016,-12.373235,-2.1308396,1.757344
1.28073,0.061269052,-0.11900798,2.5732129,-8.301406,-12.344504,-2.4708161,1.8435353
1.2837644,0.033285715,-0.11900798,2.5732129,-8.301406,-12.344504,-2.4708161,1.8435353
1.2865565,0.0048204265,-0.13285641,2.5678866,-8.2534685,-12.095507,-2.801216,1.8243817
1.2891073,6.2590265,-0.13285641,2.5678866,-8.2534685,-12.095507,-2.801216,1.8243817
1.2914944,6.2284174,-0.14031327,2.5646908,-8.208728,-11.736377,-3.1316159,1.8387469
1.2936751,6.196284,-0.14031327,2.5646908,-8.208728,-11.736377,-3.1316159,1.8387469
1.2952983,6.1685686,-0.14137854,2.5646908,-8.1693125,-11.233594,-3.466804,1.8387469
1.296776,6.1389484,-0.14137854,2.5646908,-8.1693125,-11.233594,-3.466804,1.8387469
1.298039,6.108219,-0.13711748,2.5710824,-8.149073,-10.764331,-3.9695864,1.8100165
1.2990365,6.0772324,-0.13711748,2.5710824,-8.149073,-10.764331,-3.9695864,1.8100165
1.2997713,6.0459156,-0.12539956,2.584931,-8.148007,-10.16578,-4.5872903,1.8004397
1.3002319,6.0145535,-0.12539956,2.584931,-8.148007,-10.16578,-4.5872903,1.8004397
1.3004279,5.9829473,-0.108355336,2.609432,-8.175704,-9.662998,-5.281609,1.7669208
1.3003488,5.951391,-0.108355336,2.609432,-8.175704,-9.662998,-5.281609,1.7669208
1.2999942,5.9196377,-0.08705004,2.6392593,-8.236424,-9.279925,-5.9519854,1.757344
1.299364,5.888064,-0.08705004,2.6392593,-8.236424,-9.279925,-5.9519854,1.757344
1.2984378,5.856234,-0.05935317,2.670152,-8.3291025,-8.815451,-6.5457473,1.8100165
1.2972345,5.824718,-0.05935317,2.670152,-8.3291025,-8.815451,-6.5457473,1.8100165
1.2957153,5.7931204,-0.025264706,2.6957183,-8.454803,-8.312668,-7.0341644,1.8100165
1.2939181,5.761907,-0.025264706,2.6957183,-8.454803,-8.312668,-7.0341644,1.8100165
1.2917725,5.73064,0.017345872,2.7095668,-8.616724,-7.8146744,-7.431602,1.6950948
1.2893616,5.70001,0.017345872,2.7095668,-8.616724,-7.8146744,-7.431602,1.6950948
1.2865572,5.669284,0.06634804,2.710632,-8.813798,-7.240066,-7.61835,1.5610195
1.2834883,5.6392565,0.06634804,2.710632,-8.813798,-7.240066,-7.61835,1.5610195
1.280006,5.609372,0.118545994,2.6989143,-9.04496,-6.6606693,-7.8050976,1.3551182
1.2762623,5.580234,0.118545994,2.6989143,-9.04496,-6.6606693,-7.8050976,1.3551182
1.2720773,5.551326,0.17287448,2.6744132,-9.307015,-6.1195793,-7.9966335,0.91458505
1.267642,5.5232544,0.17287448,2.6744132,-9.307015,-6.1195793,-7.9966335,0.91458505
1.262735,5.4954686,0.22400717,2.642455,-9.598898,-5.645528,-8.154651,0.5602432
1.2576094,5.4686985,0.22400717,2.642455,-9.598898,-5.645528,-8.154651,0.5602432
1.2519724,5.442175,0.26874828,2.6083667,-9.916347,-5.185841,-8.418014,0.2681506
1.2461224,5.4166617,0.26874828,2.6083667,-9.916347,-5.185841,-8.418014,0.2681506
1.2397844,5.391567,0.30603254,2.5796046,-10.250839,-4.951209,-8.576031,-0.15322891
1.2332368,5.367455,0.30603254,2.5796046,-10.250839,-4.951209,-8.576031,-0.15322891
1.2261963,5.343771,0.33372942,2.5604298,-10.595985,-4.7979803,-8.834604,-0.44532153
1.2189671,5.3210974,0.33372942,2.5604298,-10.595985,-4.7979803,-8.834604,-0.44532153
1.2112566,5.298878,0.34864312,2.5519078,-10.951783,-4.7979803,-9.217676,-0.7134721
1.20339,5.2776947,0.34864312,2.5519078,-10.951783,-4.7979803,-9.217676,-0.7134721
1.1950117,5.25687,0.35396942,2.552973,-11.307582,-4.9703627,-9.648633,-0.8379706
1.1868799,5.2379255,0.35396942,2.552973,-11.307582,-4.9703627,-9.648633,-0.8379706
1.1779008,5.2185054,0.35077363,2.5604298,-11.650598,-5.291186,-10.055647,-0.94810385
1.1683748,5.199218,0.35077363,2.5604298,-11.650598,-5.291186,-10.055647,-0.94810385
1.1587939,5.181197,0.340121,2.570017,-11.975503,-5.6359506,-10.553641,-1.0869676
1.1491826,5.164219,0.340121,2.570017,-11.975503,-5.6359506,-10.553641,-1.0869676
1.1390896,5.147586,0.32627258,2.577474,-12.274842,-5.9663506,-10.970232,-1.2449849
1.1288329,5.1316895,0.32627258,2.577474,-12.274842,-5.9663506,-10.970232,-1.2449849
1.118246,5.116349,0.31029359,2.584931,-12.544354,-6.133945,-11.262324,-1.2737153
1.1075809,5.1017904,0.31029359,2.584931,-12.544354,-6.133945,-11.262324,-1.2737153
1.0965772,5.0876875,0.2921841,2.5945182,-12.780843,-6.325481,-11.382035,-1.4891934
1.0855088,5.074301,0.2921841,2.5945182,-12.780843,-6.325481,-11.382035,-1.4891934
1.074117,5.061324,0.27194408,2.605171,-12.986439,-6.421249,-11.382035,-1.7238252
1.0626721,5.0490017,0.27194408,2.605171,-12.986439,-6.421249,-11.382035,-1.7238252
1.0509682,5.0370955,0.24531247,2.6158235,-13.168599,-6.531382,-11.142614,-1.8818425
1.0391862,5.0257497,0.24531247,2.6158235,-13.168599,-6.531382,-11.142614,-1.8818425
1.0271792,5.0147867,0.21015874,2.6243458,-13.325192,-6.531382,-10.692505,-2.1499932
1.0151514,5.0043726,0.21015874,2.6243458,-13.325192,-6.531382,-10.692505,-2.1499932
1.0028754,4.9942665,0.16541763,2.6328678,-13.458351,-6.670246,-10.673351,-2.2888567
0.99056256,4.98464,0.16541763,2.6328678,-13.458351,-6.670246,-10.673351,-2.2888567
0.9781229,4.975333,0.11321967,2.6349983,-13.568073,-9.572019,-10.261548,-2.5187001
0.9656545,4.9664583,0.11321967,2.6349983,-13.568073,-9.572019,-10.261548,-2.5187001
0.9529448,4.957925,0.05782592,2.593453,-13.665012,-6.5984197,-9.89763,-1.9297266
0.9402251,4.949789,0.05782592,2.593453,-13.665012,-6.5984197,-9.89763,-1.9297266
0.9274398,4.9419303,-0.0071552116,2.5721476,-13.710818,-9.193734,-9.753978,-2.384625
0.91463935,4.9344215,-0.0071552116,2.5721476,-13.710818,-9.193734,-9.753978,-2.384625
0.901804,4.927128,-0.08172372,2.5732129,-13.704427,-11.731588,-9.217676,-2.7629087
0.8889596,4.9201503,-0.08172372,2.5732129,-13.704427,-11.731588,-9.217676,-2.7629087
0.8761461,4.9134665,-0.16374908,2.5156887,-13.65649,-13.623008,-9.006987,-2.6431987
0.86332816,4.907064,-0.16374908,2.5156887,-13.65649,-13.623008,-9.006987,-2.6431987
0.8505177,4.900961,-0.25429657,2.4006402,-13.5606165,-14.580688,-9.040505,-2.1547816
0.83770776,4.8951054,-0.25429657,2.4006402,-13.5606165,-14.580688,-9.040505,-2.1547816
0.8250139,4.889581,-0.34697458,2.2536337,-13.404022,-14.930242,-8.738836,-1.7860745
0.81232435,4.8842726,-0.34697458,2.2536337,-13.404022,-14.930242,-8.738836,-1.7860745
0.7997582,4.8792377,-0.44604418,2.1076925,-13.182447,-15.370775,-8.331821,-1.4077905
0.78722376,4.874401,-0.44604418,2.1076925,-13.182447,-15.370775,-8.331821,-1.4077905
0.7749093,4.869807,-0.5536359,1.9724039,-12.903348,-15.586253,-7.9822683,-1.0055647
0.7626281,4.8653836,-0.5536359,1.9724039,-12.903348,-15.586253,-7.9822683,-1.0055647
0.7505671,4.861138,-0.6644234,1.8509637,-12.576312,-15.83525,-7.690176,-0.8379706
0.7385399,4.857042,-0.6644234,1.8509637,-12.576312,-15.83525,-7.690176,-0.8379706
0.72683537,4.8531036,-0.7784067,1.7401762,-12.209861,-16.026787,-7.441179,-0.7757214
0.71558744,4.849431,-0.7784067,1.7401762,-12.209861,-16.026787,-7.441179,-0.7757214
0.70422167,4.8457327,-0.8913247,1.634715,-11.807191,-15.883134,-7.2113357,-0.6655881
0.69242436,4.8420033,-0.8913247,1.634715,-11.807191,-15.883134,-7.2113357,-0.6655881
0.6814603,4.838524,-1.005308,1.5324496,-11.378955,-15.68681,-7.201759,-0.48841715
0.67059594,4.835165,-1.005308,1.5324496,-11.378955,-15.68681,-7.201759,-0.48841715
0.6600331,4.8318663,-1.113965,1.4323148,-10.933674,-15.485697,-7.311892,-0.19632454
0.64941925,4.82863,-1.113965,1.4323148,-10.933674,-15.485697,-7.311892,-0.19632454
0.6392877,4.825504,-1.2162304,1.324723,-10.480937,-14.992491,-7.52737,0.1436521
0.62917894,4.8224506,-1.2162304,1.324723,-10.480937,-14.992491,-7.52737,0.1436521
0.6194627,4.819478,-1.3078431,1.207544,-10.026069,-14.068329,-7.7811556,0.4309563
0.609769,4.8165693,-1.3078431,1.207544,-10.026069,-14.068329,-7.7811556,0.4309563
0.6004867,4.8137527,-1.3909338,1.082908,-9.573332,-13.402741,-8.384495,0.93852705
0.59122616,4.8109913,-1.3909338,1.082908,-9.573332,-13.402741,-8.384495,0.93852705
0.58236265,4.8083024,-1.4633718,0.9625331,-9.120594,-13.086706,-8.978256,1.1013328
0.57352066,4.8056607,-1.4633718,0.9625331,-9.120594,-13.086706,-8.978256,1.1013328
0.56510276,4.8031087,-1.5198307,0.8378972,-8.668921,-12.741941,-9.667787,1.283292
0.5566975,4.8005943,-1.5198307,0.8378972,-8.668921,-12.741941,-9.667787,1.283292
0.5486951,4.7981796,-1.557115,0.7047391,-8.214054,-12.196063,-10.314221,1.5370775
0.5407051,4.795797,-1.557115,0.7047391,-8.214054,-12.196063,-10.314221,1.5370775
0.533157,4.793531,-1.5762898,0.5747769,-7.7538595,-11.343728,-10.970232,1.7190368
0.52562124,4.791291,-1.5762898,0.5747769,-7.7538595,-11.343728,-10.970232,1.7190368
0.51849705,4.789164,-1.5784203,0.45333672,-7.2947307,-10.673351,-11.554418,1.8674773
0.51139224,4.7870607,-1.5784203,0.45333672,-7.2947307,-10.673351,-11.554418,1.8674773
0.5047094,4.7850795,-1.5656371,0.34148395,-6.8462543,-9.773131,-12.0332575,1.9393034
0.49803832,4.7831163,-1.5656371,0.34148395,-6.8462543,-9.773131,-12.0332575,1.9393034
0.49171922,4.7812533,-1.5432665,0.24241436,-6.4116263,-8.8777,-12.435484,1.8531121
0.48566926,4.77948,-1.5432665,0.24241436,-6.4116263,-8.8777,-12.435484,1.8531121
0.47959316,4.777691,-1.509178,0.16358478,-5.9972386,-8.456321,-12.842498,1.7860745
0.4737466,4.775977,-1.509178,0.16358478,-5.9972386,-8.456321,-12.842498,1.7860745
0.46824983,4.7743745,-1.464437,0.10179944,-5.6052213,-7.9391727,-13.259089,1.8195933
0.46273908,4.772773,-1.464437,0.10179944,-5.6052213,-7.9391727,-13.259089,1.8195933
0.457562,4.7712874,-1.4111738,0.052797277,-5.232379,-7.297527,-13.656527,1.8148049
0.45237488,4.769802,-1.4111738,0.052797277,-5.232379,-7.297527,-13.656527,1.8148049
0.44752783,4.7684107,-1.351519,0.024035135,-4.8787107,-7.1969705,-14.053964,1.8339585
0.44270602,4.767028,-1.351519,0.024035135,-4.8787107,-7.1969705,-14.053964,1.8339585
0.43818578,4.7657275,-1.2844073,0.009121433,-4.543153,-7.1395097,-14.360422,1.8100165
0.43368036,4.7644324,-1.2844073,0.009121433,-4.543153,-7.1395097,-14.360422,1.8100165
0.42948353,4.7632365,-1.2087735,-0.0047270046,-4.2214427,-6.8665705,-14.5567465,1.9057846
0.4252668,4.7620363,-1.2087735,-0.0047270046,-4.2214427,-6.8665705,-14.5567465,1.9057846
0.42137206,4.760942,-1.1246176,-0.020705972,-3.9135814,-6.813898,-14.642938,1.8770541
0.41763413,4.7598925,-1.1246176,-0.020705972,-3.9135814,-6.813898,-14.642938,1.8770541
0.4140495,4.758911,-1.0308744,-0.03988073,-3.618503,-6.8426285,-14.623784,1.8387469
0.41029337,4.757883,-1.0308744,-0.03988073,-3.618503,-6.8426285,-14.623784,1.8387469
0.40699744,4.757025,-0.9318048,-0.0707734,-3.331947,-6.6510925,-14.513651,1.8531121
0.40371194,4.7561693,-0.9318048,-0.0707734,-3.331947,-6.6510925,-14.513651,1.8531121
0.40069738,4.7554345,-0.8284741,-0.109122925,-3.0539129,-6.5936313,-14.331692,1.7238252
0.39765605,4.754693,-0.8284741,-0.109122925,-3.0539129,-6.5936313,-14.331692,1.7238252
0.39491504,4.754086,-0.7230129,-0.15705982,-2.7833357,-6.531382,-14.030022,1.70946
0.39217678,4.753479,-0.7230129,-0.15705982,-2.7833357,-6.531382,-14.030022,1.70946
0.38970748,4.753006,-0.61755174,-0.21351884,-2.518085,-6.3063273,-13.627796,1.6328455
0.3872307,4.75253,-0.61755174,-0.21351884,-2.518085,-6.3063273,-13.627796,1.6328455
0.385015,4.752189,-0.5142211,-0.27636945,-2.2592256,-5.9807158,-13.139379,1.4796166
0.38280174,4.751847,-0.5142211,-0.27636945,-2.2592256,-5.9807158,-13.139379,1.4796166
0.38085046,4.7516327,-0.41302097,-0.33602425,-2.002497,-5.659893,-12.631808,1.2737153
0.37889373,4.751416,-0.41302097,-0.33602425,-2.002497,-5.659893,-12.631808,1.2737153
0.3771803,4.751328,-0.31714717,-0.3946138,-1.748964,-5.2720323,-12.196063,1.2210429
0.3754623,4.7512383,-0.31714717,-0.3946138,-1.748964,-5.2720323,-12.196063,1.2210429
0.3739809,4.751264,-0.22873022,-0.44681177,-1.4986268,-4.912902,-11.81778,1.0965444
0.3725022,4.751289,-0.22873022,-0.44681177,-1.4986268,-4.912902,-11.81778,1.0965444
0.3712419,4.7514153,-0.14990065,-0.48942232,-1.2546813,-4.5633483,-11.477803,1.0486604
0.3699789,4.7515416,-0.14990065,-0.48942232,-1.2546813,-4.5633483,-11.477803,1.0486604
0.36890516,4.751746,-0.08172372,-0.52138025,-1.0181926,-4.1706996,-11.286267,0.94331545
0.3678269,4.751952,-0.08172372,-0.52138025,-1.0181926,-4.1706996,-11.286267,0.94331545
0.3678269,4.751952,-0.08172372,-0.52138025,-1.0181926,-4.1706996,-11.286267,0.94331545
0.36601678,4.752466,-0.022068914,-0.540555,-0.7934218,-3.7445314,-11.142614,0.90979666
0.3652786,4.752758,0.032259572,-0.54588133,-0.5835647,-3.466804,-10.893618,0.7230489
0.3652786,4.752758,0.032259572,-0.54588133,-0.5835647,-3.466804,-10.893618,0.7230489
0.3652786,4.752758,0.032259572,-0.54588133,-0.5835647,-3.466804,-10.893618,0.7230489
0.36324558,4.7536173,0.08126174,-0.540555,-0.3886213,-3.2944214,-10.635044,0.5793968
0.36285713,4.753952,0.12493758,-0.53096765,-0.20965686,-3.1507695,-10.443508,0.4165911
0.36248523,4.7542715,0.12493758,-0.53096765,-0.20965686,-3.1507695,-10.443508,0.4165911
0.36227524,4.7546015,0.16222183,-0.520315,-0.05199773,-3.0262709,-10.295067,0.2681506
0.36206725,4.7549276,0.16222183,-0.520315,-0.05199773,-3.0262709,-10.295067,0.2681506
0.36200216,4.7552686,0.19417977,-0.51285815,0.087551914,-2.9161377,-10.189722,0.20111294
0.36200216,4.7552686,0.19417977,-0.51285815,0.087551914,-2.9161377,-10.189722,0.20111294
0.36196843,4.755991,0.2229419,-0.5139234,0.21005733,-2.8538885,-10.0508585,0.15322891
0.3620266,4.756369,0.2229419,-0.5139234,0.21005733,-2.8538885,-10.0508585,0.15322891
0.3621925,4.756769,0.24850826,-0.52244556,0.31658378,-2.6623523,-9.902418,0.062249243
0.36236003,4.757173,0.24850826,-0.52244556,0.31658378,-2.6623523,-9.902418,0.062249243
0.36261073,4.7576118,0.27300933,-0.53948975,0.40713125,-2.4660277,-9.816227,0.076614454
0.36286178,4.7580514,0.27300933,-0.53948975,0.40713125,-2.4660277,-9.816227,0.076614454
0.3631922,4.758522,0.2953799,-0.56079507,0.48489556,-2.2505496,-9.595961,-0.0047884034
0.36352324,4.758993,0.2953799,-0.56079507,0.48489556,-2.2505496,-9.595961,-0.0047884034
0.36391282,4.759493,0.31455466,-0.5863614,0.5498767,-1.8483237,-9.308656,-0.08140286
0.36430463,4.7599955,0.31455466,-0.5863614,0.5498767,-1.8483237,-9.308656,-0.08140286
0.36474758,4.760522,0.33159888,-0.60979724,0.6020746,-1.5466543,-9.069236,-0.19153613
0.3651895,4.7610474,0.33159888,-0.60979724,0.6020746,-1.5466543,-9.069236,-0.19153613
0.3656675,4.761606,0.34438205,-0.63003725,0.6425547,-1.1492168,-8.872911,-0.1436521
0.36614394,4.762163,0.34438205,-0.63003725,0.6425547,-1.1492168,-8.872911,-0.1436521
0.36664775,4.7627363,0.35290417,-0.6428204,0.6723821,-0.80924016,-8.623915,-0.19153613
0.36715338,4.7633114,0.35290417,-0.6428204,0.6723821,-0.80924016,-8.623915,-0.19153613
0.36767772,4.7638917,0.35609996,-0.6470815,0.6926221,-0.56982,-8.437167,-0.23463176
0.3681997,4.76447,0.35609996,-0.6470815,0.6926221,-0.56982,-8.437167,-0.23463176
0.3687338,4.76505,0.35290417,-0.6396246,0.7032748,-0.2633622,-8.37013,-0.23463176
0.36926633,4.765629,0.35290417,-0.6396246,0.7032748,-0.2633622,-8.37013,-0.23463176
0.36979875,4.7661967,0.3465126,-0.6193846,0.7032748,-0.10055647,-8.298303,-0.19632454
0.37033084,4.7667656,0.3465126,-0.6193846,0.7032748,-0.10055647,-8.298303,-0.19632454
0.3708594,4.767314,0.3369252,-0.5884919,0.69794846,-0.11971009,-8.307879,-0.17717093
0.3713866,4.767862,0.3369252,-0.5884919,0.69794846,-0.11971009,-8.307879,-0.17717093
0.37190536,4.768384,0.3252073,-0.54907715,0.6872958,-0.15322891,-8.298303,-0.16280572
0.37242398,4.7689056,0.3252073,-0.54907715,0.6872958,-0.15322891,-8.298303,-0.16280572
0.3729266,4.769401,0.31242412,-0.50433606,0.67025155,-0.24420857,-8.293514,-0.07182605
0.37343,4.7698975,0.31242412,-0.50433606,0.67025155,-0.24420857,-8.293514,-0.07182605
0.3739214,4.770361,0.2985757,-0.45533386,0.6564031,-0.33518824,-8.360553,-0.033518825
0.37440726,4.7708197,0.2985757,-0.45533386,0.6564031,-0.33518824,-8.360553,-0.033518825
0.37488383,4.7712545,0.2857925,-0.40739697,0.6393589,-0.5650316,-8.403648,0.04309563
0.3753663,4.771694,0.2857925,-0.40739697,0.6393589,-0.5650316,-8.403648,0.04309563
0.37582842,4.772094,0.27300933,-0.36052534,0.6223147,-0.7038953,-8.355764,0.01436521
0.3762881,4.7724915,0.27300933,-0.36052534,0.6223147,-0.7038953,-8.355764,0.01436521
0.37673646,4.7728667,0.2623567,-0.31578422,0.6063357,-0.8379706,-8.394072,0.095768064
0.37718824,4.7732453,0.2623567,-0.31578422,0.6063357,-0.8379706,-8.394072,0.095768064
0.377624,4.773591,0.25170404,-0.27210838,0.591422,-1.0342951,-8.42759,0.11971009
0.37806,4.7739377,0.25170404,-0.27210838,0.591422,-1.0342951,-8.42759,0.11971009
0.37848377,4.774255,0.2410514,-0.22843254,0.57757354,-1.2593501,-8.432379,0.15801731
0.37890935,4.7745743,0.2410514,-0.22843254,0.57757354,-1.2593501,-8.432379,0.15801731
0.3793209,4.7748713,0.23146403,-0.18582197,0.56265986,-1.4700398,-8.456321,0.2681506
0.3797324,4.775169,0.23146403,-0.18582197,0.56265986,-1.4700398,-8.456321,0.2681506
0.38013223,4.7754445,0.2229419,-0.14747244,0.5498767,-1.6328455,-8.504205,0.320823
0.38053378,4.775721,0.2229419,-0.14747244,0.5498767,-1.6328455,-8.504205,0.320823
0.38092616,4.7759743,0.21548507,-0.11231872,0.539224,-1.8387469,-8.504205,0.33518824
0.38131866,4.776227,0.21548507,-0.11231872,0.539224,-1.8387469,-8.504205,0.33518824
0.38169762,4.776467,0.20802821,-0.08036078,0.5253756,-1.982399,-8.51857,0.4261679
0.38207796,4.776708,0.20802821,-0.08036078,0.5253756,-1.982399,-8.51857,0.4261679
0.38244686,4.7769294,0.20270188,-0.05372917,0.51259243,-2.1260512,-8.513782,0.4213795
0.38281566,4.777151,0.20270188,-0.05372917,0.51259243,-2.1260512,-8.513782,0.4213795
0.38281566,4.777151,0.20270188,-0.05372917,0.51259243,-2.1260512,-8.513782,0.4213795
0.38356385,4.777579,0.19844083,-0.03242388,0.5019398,-2.27928,-8.499416,0.4165911
0.38389555,4.7777605,0.19204924,-0.014314385,0.4902219,-2.336741,-8.51857,0.4261679
0.38423702,4.777948,0.19204924,-0.014314385,0.4902219,-2.336741,-8.51857,0.4261679
0.38457325,4.7781286,0.18672292,0.0005993177,0.47850397,-2.4708161,-8.485051,0.45489833
0.38491106,4.7783103,0.18672292,0.0005993177,0.47850397,-2.4708161,-8.485051,0.45489833
0.385239,4.7784805,0.1813966,0.012317227,0.46678606,-2.5330653,-8.432379,0.45489833
0.38556686,4.778651,0.1813966,0.012317227,0.46678606,-2.5330653,-8.432379,0.45489833
0.38588232,4.778807,0.175005,0.021904606,0.45293763,-2.5713725,-8.384495,0.4405331
0.38619772,4.778963,0.175005,0.021904606,0.45293763,-2.5713725,-8.384495,0.4405331
0.3865015,4.779111,0.16754816,0.030426722,0.44121972,-2.6862943,-8.336611,0.46926352
0.38680533,4.7792583,0.16754816,0.030426722,0.44121972,-2.6862943,-8.336611,0.46926352
0.38709566,4.77941,0.16009131,0.040014103,0.42843655,-2.8060043,-8.350976,0.545878
0.3873859,4.7795615,0.16009131,0.040014103,0.42843655,-2.8060043,-8.350976,0.545878
0.38766113,4.779698,0.15369973,0.052797277,0.4124576,-3.0071173,-8.384495,0.545878
0.38793638,4.779834,0.15369973,0.052797277,0.4124576,-3.0071173,-8.384495,0.545878
0.38819763,4.7799644,0.1451776,0.06558045,0.39754388,-3.193865,-8.408437,0.56982
0.38845876,4.780094,0.1451776,0.06558045,0.39754388,-3.193865,-8.408437,0.56982
0.38877177,4.7803,0.1366555,0.07729836,0.38156492,-3.4141316,-8.389283,0.59855044
0.38907638,4.780502,0.1366555,0.07729836,0.38156492,-3.4141316,-8.389283,0.59855044
0.38954577,4.7806797,0.12813337,0.086885735,0.3634554,-3.5625722,-8.456321,0.63206923
0.39001378,4.780859,0.12813337,0.086885735,0.3634554,-3.5625722,-8.456321,0.63206923
0.3904933,4.7809997,0.12174179,0.09221206,0.34747645,-3.7588966,-8.5473,0.6607997
0.39097264,4.7811403,0.12174179,0.09221206,0.34747645,-3.7588966,-8.5473,0.6607997
0.3914432,4.781266,0.11428493,0.09221206,0.33469325,-3.845088,-8.5473,0.6703765
0.39191422,4.781392,0.11428493,0.09221206,0.33469325,-3.845088,-8.5473,0.6703765
0.39237714,4.7815013,0.10789335,0.087951005,0.32297537,-3.98874,-8.532935,0.6703765
0.39284107,4.7816105,0.10789335,0.087951005,0.32297537,-3.98874,-8.532935,0.6703765
0.3932883,4.7817273,0.105762824,0.07942889,0.3101922,-4.036624,-8.499416,0.7038953
0.3937356,4.781844,0.105762824,0.07942889,0.3101922,-4.036624,-8.499416,0.7038953
0.39416745,4.7819757,0.10363229,0.06558045,0.30167007,-4.0940847,-8.528147,0.7613561
0.39459887,4.782107,0.10363229,0.06558045,0.30167007,-4.0940847,-8.528147,0.7613561
0.39502686,4.7822423,0.10363229,0.049601484,0.297409,-4.1180267,-8.5473,0.7565677
0.39545482,4.7823777,0.10363229,0.049601484,0.297409,-4.1180267,-8.5473,0.7565677
0.3958741,4.7825274,0.10363229,0.031491987,0.2942132,-4.084508,-8.51857,0.7757214
0.3962928,4.7826767,0.10363229,0.031491987,0.2942132,-4.084508,-8.51857,0.7757214
0.39670157,4.7828465,0.102567025,0.014447756,0.2952785,-4.0462008,-8.523358,0.8283938
0.3971089,4.7830167,0.102567025,0.014447756,0.2952785,-4.0462008,-8.523358,0.8283938
0.397527,4.7831793,0.10150176,0.0016645822,0.297409,-4.012682,-8.470686,0.7661445
0.397945,4.7833424,0.10150176,0.0016645822,0.297409,-4.012682,-8.470686,0.7661445
0.3983452,4.7835283,0.0972407,-0.011118591,0.30060482,-3.9983168,-8.604761,0.842759
0.3987448,4.7837143,0.0972407,-0.011118591,0.30060482,-3.9983168,-8.604761,0.842759
0.39900613,4.78393,0.09511018,-0.023901764,0.3038006,-3.5434184,-8.78672,1.0151415
0.39926675,4.7841454,0.09511018,-0.023901764,0.3038006,-3.5434184,-8.78672,1.0151415
0.39969403,4.784323,0.09511018,-0.0228365,0.313388,-4.0174704,-8.623915,0.79008657
0.40011606,4.784499,0.09511018,-0.0228365,0.313388,-4.0174704,-8.623915,0.79008657
0.40057352,4.784595,0.09297965,-0.018575443,0.32084483,-4.3861775,-8.480263,0.5410896
0.40103087,4.784691,0.09297965,-0.018575443,0.32084483,-4.3861775,-8.480263,0.5410896
0.4014942,4.7848034,0.087653324,-0.027097559,0.32617116,-4.3478703,-8.494628,0.63206923
0.40195745,4.7849164,0.087653324,-0.027097559,0.32617116,-4.3478703,-8.494628,0.63206923
0.40238455,4.785096,0.07913121,-0.04201126,0.3272364,-4.0797195,-8.652645,0.8571242
0.4028114,4.7852755,0.07913121,-0.04201126,0.3272364,-4.0797195,-8.652645,0.8571242
0.4031942,4.7854786,0.07167436,-0.0558597,0.3272364,-4.012682,-8.762778,0.9911995
0.4035763,4.7856812,0.07167436,-0.0558597,0.3272364,-4.012682,-8.762778,0.9911995
0.40394625,4.785887,0.06847856,-0.06118602,0.32510588,-3.940856,-8.762778,0.9528923
0.4043147,4.7860928,0.06847856,-0.06118602,0.32510588,-3.940856,-8.762778,0.9528923
0.4047223,4.7862787,0.06528277,-0.064381815,0.32297537,-3.8977604,-8.652645,0.78050977
0.40512902,4.7864656,0.06528277,-0.064381815,0.32297537,-3.8977604,-8.652645,0.78050977
0.40548033,4.786668,0.05995645,-0.06331655,0.32297537,-3.7972038,-8.700529,0.78050977
0.4058297,4.7868705,0.05995645,-0.06331655,0.32297537,-3.7972038,-8.700529,0.78050977
0.40620688,4.7870593,0.05356486,-0.060120758,0.32510588,-3.8833952,-8.724471,0.82360536
0.406583,4.787248,0.05356486,-0.060120758,0.32510588,-3.8833952,-8.724471,0.82360536
0.4069827,4.787421,0.047173277,-0.054794434,0.3304322,-3.9504328,-8.743625,0.8331822
0.40738147,4.7875953,0.047173277,-0.054794434,0.3304322,-3.9504328,-8.743625,0.8331822
0.4077628,4.7877693,0.041846953,-0.045207053,0.33788908,-3.8546648,-8.647857,0.842759
0.40814397,4.787944,0.041846953,-0.045207053,0.33788908,-3.8546648,-8.647857,0.842759
0.40814397,4.787944,0.041846953,-0.045207053,0.33788908,-3.8546648,-8.647857,0.842759
0.4087767,4.7882853,0.037585896,-0.036684938,0.34321538,-3.6774938,-8.590396,0.8619126
0.40905267,4.7884355,0.033324838,-0.029228088,0.3453459,-3.596091,-8.6095495,0.842759
0.4093264,4.788585,0.033324838,-0.029228088,0.3453459,-3.596091,-8.6095495,0.842759
0.40957078,4.7887087,0.02906378,-0.0228365,0.34747645,-3.514688,-8.561666,0.78529817
0.4098171,4.7888327,0.02906378,-0.0228365,0.34747645,-3.514688,-8.561666,0.78529817
0.41006675,4.7889557,0.025867987,-0.016444914,0.34428066,-3.514688,-8.523358,0.79966336
0.41031396,4.7890778,0.025867987,-0.016444914,0.34428066,-3.514688,-8.523358,0.79966336
0.41060326,4.7892137,0.019476399,-0.012183856,0.34001958,-3.6152446,-8.537724,0.8571242
0.410893,4.78935,0.019476399,-0.012183856,0.34001958,-3.6152446,-8.537724,0.8571242
0.41117063,4.7894735,0.012019549,-0.007922798,0.33788908,-3.6104562,-8.604761,0.8810662
0.41144714,4.789596,0.012019549,-0.007922798,0.33788908,-3.6104562,-8.604761,0.8810662
0.4117644,4.7897205,0.0045626974,-0.0047270046,0.3368238,-3.7014358,-8.542512,0.8810662
0.41208032,4.789845,0.0045626974,-0.0047270046,0.3368238,-3.7014358,-8.542512,0.8810662
0.41242722,4.7899585,-0.006089947,-0.0015312112,0.33575854,-3.7780502,-8.542512,0.8714894
0.41277155,4.7900724,-0.006089947,-0.0015312112,0.33575854,-3.7780502,-8.542512,0.8714894
0.41310447,4.7901773,-0.014612063,-0.0025964756,0.33575854,-3.7684734,-8.571242,0.8858546
0.413436,4.790283,-0.014612063,-0.0025964756,0.33575854,-3.7684734,-8.571242,0.8858546
0.41378728,4.790382,-0.02313418,-0.005792269,0.34001958,-3.7684734,-8.475474,0.8810662
0.41413704,4.79048,-0.02313418,-0.005792269,0.34001958,-3.7684734,-8.475474,0.8810662
0.4145107,4.7905703,-0.031656295,-0.007922798,0.3485417,-3.7732618,-8.39886,0.866701
0.4148834,4.7906604,-0.031656295,-0.007922798,0.3485417,-3.7732618,-8.39886,0.866701
0.41602767,4.790901,-0.049765788,-0.012183856,0.36452067,-3.6727054,-8.327033,0.8379706
0.41602767,4.790901,-0.049765788,-0.012183856,0.36452067,-3.6727054,-8.327033,0.8379706
0.41602767,4.790901,-0.049765788,-0.012183856,0.36452067,-3.6727054,-8.327033,0.8379706
0.41638982,4.7909794,-0.049765788,-0.012183856,0.36452067,-3.6727054,-8.327033,0.8379706
0.41673392,4.7910423,-0.060418434,-0.01324912,0.37517333,-3.667917,-8.346188,0.89064306
0.41709167,4.791108,-0.060418434,-0.01324912,0.37517333,-3.667917,-8.346188,0.89064306
0.41739032,4.7911468,-0.07107108,-0.014314385,0.38369542,-3.5913026,-8.317456,0.7757214
0.41769883,4.791187,-0.07107108,-0.014314385,0.38369542,-3.5913026,-8.317456,0.7757214
0.41769883,4.791187,-0.07107108,-0.014314385,0.38369542,-3.5913026,-8.317456,0.7757214
0.41830078,4.7912264,-0.08172372,-0.012183856,0.390087,-3.5625722,-8.355764,0.79008657
0.41860384,4.7912335,-0.091311105,-0.007922798,0.3964786,-3.5865142,-8.365341,0.770933
0.41890892,4.7912397,-0.091311105,-0.007922798,0.3964786,-3.5865142,-8.365341,0.770933
0.4191888,4.791208,-0.10089848,-0.00046594674,0.3996744,-3.394978,-8.432379,0.81402856
0.41947064,4.7911763,-0.10089848,-0.00046594674,0.3996744,-3.394978,-8.432379,0.81402856
0.4197495,4.7911224,-0.108355336,0.00592564,0.39860913,-3.4332852,-8.432379,0.7661445
0.42001504,4.7910705,-0.108355336,0.00592564,0.39860913,-3.4332852,-8.432379,0.7661445
0.42028162,4.791012,-0.11474692,0.012317227,0.3932828,-3.4045548,-8.542512,0.80924016
0.42055097,4.7909517,-0.11474692,0.012317227,0.3932828,-3.4045548,-8.542512,0.80924016
0.42080048,4.7908635,-0.120073244,0.018708814,0.38369542,-3.4524388,-8.585608,0.7422025
0.42105016,4.7907753,-0.120073244,0.018708814,0.38369542,-3.4524388,-8.585608,0.7422025
0.42128107,4.7906623,-0.12646483,0.022969872,0.36878175,-3.5003228,-8.686164,0.7086837
0.4215119,4.7905498,-0.12646483,0.022969872,0.36878175,-3.5003228,-8.686164,0.7086837
0.42172426,4.7904186,-0.13179116,0.020839343,0.3517375,-3.5098996,-8.767567,0.6799533
0.4219277,4.7902927,-0.13179116,0.020839343,0.3517375,-3.5098996,-8.767567,0.6799533
0.42212275,4.790159,-0.13498695,0.016578285,0.33469325,-3.5913026,-8.848969,0.6847417
0.4223262,4.790021,-0.13498695,0.016578285,0.33469325,-3.5913026,-8.848969,0.6847417
0.42251477,4.7899265,-0.13498695,0.010186698,0.31977957,-3.620033,-8.916007,0.78050977
0.42270207,4.7898326,-0.13498695,0.010186698,0.31977957,-3.620033,-8.916007,0.78050977
0.42287424,4.789738,-0.13179116,0.003795111,0.30593112,-3.5673606,-8.992621,0.78529817
0.42304772,4.789643,-0.13179116,0.003795111,0.30593112,-3.5673606,-8.992621,0.78529817
0.42320257,4.789543,-0.12859535,-0.00046594674,0.29314795,-3.5098996,-9.069236,0.7661445
0.42335775,4.789443,-0.12859535,-0.00046594674,0.29314795,-3.5098996,-9.069236,0.7661445
0.42350122,4.7893524,-0.12326904,0.0005993177,0.27929953,-3.5290532,-9.155427,0.79487497
0.4236444,4.789262,-0.12326904,0.0005993177,0.27929953,-3.5290532,-9.155427,0.79487497
0.42376786,4.789164,-0.11687745,0.0048603755,0.26225528,-3.5242648,-9.217676,0.7565677
0.42389178,4.7890663,-0.11687745,0.0048603755,0.26225528,-3.5242648,-9.217676,0.7565677
0.42399406,4.7889385,-0.11261639,0.010186698,0.24094999,-3.6104562,-9.294291,0.6464345
0.42409635,4.7888107,-0.11261639,0.010186698,0.24094999,-3.6104562,-9.294291,0.6464345
0.42417622,4.7887044,-0.1094206,0.018708814,0.21857944,-3.6104562,-9.394848,0.7326257
0.42425615,4.7885976,-0.1094206,0.018708814,0.21857944,-3.6104562,-9.394848,0.7326257
0.42431292,4.788485,-0.104094274,0.028296193,0.19514363,-3.7205894,-9.452309,0.7134721
0.42436978,4.788373,-0.104094274,0.028296193,0.19514363,-3.7205894,-9.452309,0.7134721
0.4244029,4.788236,-0.09876795,0.035753045,0.16744675,-3.787627,-9.466674,0.6368576
0.42443588,4.7881,-0.09876795,0.035753045,0.16744675,-3.787627,-9.466674,0.6368576
0.424447,4.787961,-0.092376366,0.038948838,0.14294566,-3.9695864,-9.476251,0.6512229
0.4244579,4.7878227,-0.092376366,0.038948838,0.14294566,-3.9695864,-9.476251,0.6512229
0.42445788,4.787669,-0.08491952,0.037883572,0.119509846,-4.036624,-9.485827,0.61770403
0.4244574,4.787515,-0.08491952,0.037883572,0.119509846,-4.036624,-9.485827,0.61770403
0.42441806,4.787401,-0.076397404,0.028296193,0.09500877,-4.098873,-9.504981,0.6799533
0.4243785,4.7872887,-0.076397404,0.028296193,0.09500877,-4.098873,-9.504981,0.6799533
0.42431715,4.7872415,-0.06574476,0.014447756,0.073703475,-4.10845,-9.476251,0.7374141
0.42425597,4.7871957,-0.06574476,0.014447756,0.073703475,-4.10845,-9.476251,0.7374141
0.42417476,4.787163,-0.056157377,-0.0015312112,0.055593982,-4.0940847,-9.41879,0.7278373
0.42409357,4.7871304,-0.056157377,-0.0015312112,0.055593982,-4.0940847,-9.41879,0.7278373
0.42402035,4.787155,-0.046569996,-0.017510178,0.040680278,-4.122815,-9.299079,0.7374141
0.4239472,4.787181,-0.046569996,-0.017510178,0.040680278,-4.122815,-9.299079,0.7374141
0.423933,4.7872596,-0.039113145,-0.03242388,0.033223428,-4.1180267,-9.184157,0.7661445
0.4239186,4.7873383,-0.039113145,-0.03242388,0.033223428,-4.1180267,-9.184157,0.7661445
0.4238462,4.7874036,-0.032721557,-0.047337584,0.02896237,-4.060566,-9.155427,0.7422025
0.42377383,4.787469,-0.032721557,-0.047337584,0.02896237,-4.060566,-9.155427,0.7422025
0.42373618,4.7875648,-0.0284605,-0.059055492,0.027897105,-4.074931,-9.045294,0.7038953
0.42369777,4.7876606,-0.0284605,-0.059055492,0.027897105,-4.074931,-9.045294,0.7038953
0.42359957,4.787709,-0.025264706,-0.064381815,0.033223428,-3.916914,-9.045294,0.7326257
0.4235057,4.787755,-0.025264706,-0.064381815,0.033223428,-3.916914,-9.045294,0.7326257
0.42344463,4.7878385,-0.024199443,-0.06864287,0.042810805,-3.9456444,-8.992621,0.7565677
0.42338026,4.7879252,-0.024199443,-0.06864287,0.042810805,-3.9456444,-8.992621,0.7565677
0.42333966,4.788015,-0.024199443,-0.06864287,0.055593982,-3.9791632,-8.939949,0.7230489
0.42329854,4.788104,-0.024199443,-0.06864287,0.055593982,-3.9791632,-8.939949,0.7230489
0.4233933,4.788216,-0.026329972,-0.06757761,0.06731189,-4.0318356,-8.911219,0.6895301
0.4234833,4.7883286,-0.026329972,-0.06757761,0.06731189,-4.0318356,-8.911219,0.6895301
0.42351508,4.788435,-0.029525764,-0.066512346,0.08009506,-3.9935284,-8.892065,0.7326257
0.42354614,4.788541,-0.029525764,-0.066512346,0.08009506,-3.9935284,-8.892065,0.7326257
0.4235502,4.7886214,-0.033786822,-0.064381815,0.09820456,-3.940856,-8.916007,0.7517793
0.42355382,4.7887015,-0.033786822,-0.064381815,0.09820456,-3.940856,-8.916007,0.7517793
0.4235441,4.7887497,-0.03698262,-0.06331655,0.11631405,-3.9121256,-8.90643,0.7230489
0.42353407,4.7887974,-0.03698262,-0.06331655,0.11631405,-3.9121256,-8.90643,0.7230489
0.42354837,4.788851,-0.04017841,-0.06118602,0.13229302,-3.9025488,-8.916007,0.7422025
0.42356238,4.788904,-0.04017841,-0.06118602,0.13229302,-3.9025488,-8.916007,0.7422025
0.42356426,4.7889,-0.043374203,-0.060120758,0.14614145,-3.8594532,-8.949526,0.6943185
0.42356595,4.788896,-0.043374203,-0.060120758,0.14614145,-3.8594532,-8.949526,0.6943185
0.42358845,4.7889132,-0.04763526,-0.060120758,0.1599899,-3.8019924,-8.959103,0.7374141
0.423611,4.78893,-0.04763526,-0.060120758,0.1599899,-3.8019924,-8.959103,0.7374141
0.42364112,4.7889323,-0.05189632,-0.060120758,0.17170781,-3.845088,-8.992621,0.7182605
0.4236713,4.788934,-0.05189632,-0.060120758,0.17170781,-3.845088,-8.992621,0.7182605
0.42371082,4.788904,-0.05509211,-0.06118602,0.18449098,-3.8355112,-8.944737,0.6751649
0.42375025,4.7888746,-0.05509211,-0.06118602,0.18449098,-3.8355112,-8.944737,0.6751649
0.42380825,4.7888746,-0.058287904,-0.06331655,0.19940469,-3.8067808,-8.973468,0.7230489
0.42386633,4.788874,-0.058287904,-0.06331655,0.19940469,-3.8067808,-8.973468,0.7230489
0.4239391,4.7888203,-0.0614837,-0.06544708,0.21431838,-3.7493198,-8.935161,0.63206923
0.42401192,4.7887664,-0.0614837,-0.06544708,0.21431838,-3.7493198,-8.935161,0.63206923
0.4240934,4.788736,-0.06574476,-0.066512346,0.22710156,-3.6583402,-8.892065,0.6751649
0.42417493,4.788706,-0.06574476,-0.066512346,0.22710156,-3.6583402,-8.892065,0.6751649
0.42426822,4.788665,-0.06894055,-0.06544708,0.23881947,-3.6343982,-8.868123,0.6560113
0.42436168,4.788624,-0.06894055,-0.06544708,0.23881947,-3.6343982,-8.868123,0.6560113
0.4244683,4.78857,-0.07107108,-0.06331655,0.25053737,-3.6104562,-8.820239,0.62728083
0.42457494,4.788516,-0.07107108,-0.06331655,0.25053737,-3.6104562,-8.820239,0.62728083
0.424692,4.7884603,-0.07426687,-0.060120758,0.26119003,-3.572149,-8.805874,0.62728083
0.42480907,4.7884045,-0.07426687,-0.060120758,0.26119003,-3.572149,-8.805874,0.62728083
0.42493173,4.78836,-0.07852793,-0.0558597,0.2675816,-3.5242648,-8.820239,0.6703765
0.42505455,4.788316,-0.07852793,-0.0558597,0.2675816,-3.5242648,-8.820239,0.6703765
0.4251825,4.7882457,-0.08172372,-0.052663904,0.2707774,-3.5529952,-8.825027,0.61291564
0.42531046,4.7881756,-0.08172372,-0.052663904,0.2707774,-3.5529952,-8.825027,0.61291564
0.42544323,4.788121,-0.08491952,-0.048402846,0.277169,-3.5482068,-8.868123,0.6703765
0.42557612,4.788067,-0.08491952,-0.048402846,0.277169,-3.5482068,-8.868123,0.6703765
0.42571718,4.7879863,-0.089180574,-0.045207053,0.28356057,-3.6104562,-8.829816,0.61770403
0.42585856,4.787906,-0.089180574,-0.045207053,0.28356057,-3.6104562,-8.829816,0.61770403
0.42600775,4.7878146,-0.093441635,-0.04201126,0.28995216,-3.5913026,-8.882488,0.59855044
0.42615697,4.7877235,-0.093441635,-0.04201126,0.28995216,-3.5913026,-8.882488,0.59855044
0.42631102,4.7876334,-0.09876795,-0.040945996,0.29634374,-3.6008794,-8.887277,0.61770403
0.4264651,4.7875433,-0.09876795,-0.040945996,0.29634374,-3.6008794,-8.887277,0.61770403
0.42662528,4.7874346,-0.10302901,-0.040945996,0.29847428,-3.5625722,-8.882488,0.5650316
0.4267855,4.787326,-0.10302901,-0.040945996,0.29847428,-3.5625722,-8.882488,0.5650316
0.42694458,4.7872214,-0.106224805,-0.03988073,0.29953954,-3.5865142,-8.872911,0.59376204
0.4271073,4.787115,-0.106224805,-0.03988073,0.29953954,-3.5865142,-8.872911,0.59376204
0.42726558,4.787009,-0.1094206,-0.03988073,0.30167007,-3.6822822,-8.963891,0.60333884
0.42742628,4.786901,-0.1094206,-0.03988073,0.30167007,-3.6822822,-8.963891,0.60333884
0.4275966,4.78677,-0.11261639,-0.03988073,0.30167007,-3.7110126,-8.896853,0.5602432
0.4277635,4.786641,-0.11261639,-0.03988073,0.30167007,-3.7110126,-8.896853,0.5602432
0.42793456,4.786506,-0.11687745,-0.037750203,0.3038006,-3.7253778,-8.916007,0.5602432
0.4281052,4.786372,-0.11687745,-0.037750203,0.3038006,-3.7253778,-8.916007,0.5602432
0.42828107,4.786233,-0.11900798,-0.03455441,0.30806166,-3.6391866,-8.839393,0.5363012
0.42845622,4.7860947,-0.11900798,-0.03455441,0.30806166,-3.6391866,-8.839393,0.5363012
0.42863137,4.785956,-0.121138506,-0.030293351,0.3091269,-3.6008794,-8.90643,0.5315128
0.4288062,4.785817,-0.121138506,-0.030293351,0.3091269,-3.6008794,-8.90643,0.5315128
0.42898592,4.7856607,-0.12326904,-0.026032293,0.30593112,-3.572149,-8.944737,0.46447513
0.4291654,4.7855053,-0.12326904,-0.026032293,0.30593112,-3.572149,-8.944737,0.46447513
0.42934194,4.785344,-0.124334306,-0.020705972,0.30167007,-3.6152446,-9.050082,0.46447513
0.42951757,4.785185,-0.124334306,-0.020705972,0.30167007,-3.6152446,-9.050082,0.46447513
0.42968193,4.7850294,-0.1275301,-0.014314385,0.29634374,-3.643975,-9.131485,0.51235914
0.42984673,4.784874,-0.1275301,-0.014314385,0.29634374,-3.643975,-9.131485,0.51235914
0.43000314,4.784714,-0.1275301,-0.010053327,0.28675637,-3.7062242,-9.222465,0.51235914
0.4301521,4.784562,-0.1275301,-0.010053327,0.28675637,-3.7062242,-9.222465,0.51235914
0.43029597,4.7843995,-0.12966062,-0.0047270046,0.27503845,-3.7014358,-9.246407,0.51235914
0.4304401,4.7842364,-0.12966062,-0.0047270046,0.27503845,-3.7014358,-9.246407,0.51235914
0.43057236,4.784081,-0.1275301,0.0005993177,0.26651633,-3.6870706,-9.294291,0.5363012
0.4307109,4.7839184,-0.1275301,0.0005993177,0.26651633,-3.6870706,-9.294291,0.5363012
0.43083015,4.7837706,-0.122203775,0.0016645822,0.25479844,-3.6774938,-9.3421755,0.5410896
0.430949,4.7836237,-0.122203775,0.0016645822,0.25479844,-3.6774938,-9.3421755,0.5410896
0.43105018,4.7834926,-0.11687745,-0.00046594674,0.23988473,-3.6104562,-9.399636,0.5746084
0.43115202,4.783361,-0.11687745,-0.00046594674,0.23988473,-3.6104562,-9.399636,0.5746084
0.4312399,4.7832246,-0.11155113,-0.0015312112,0.22390577,-3.53863,-9.44752,0.50757074
0.43132818,4.7830877,-0.11155113,-0.0015312112,0.22390577,-3.53863,-9.44752,0.50757074
0.43139735,4.78296,-0.10515954,-0.00366174,0.20579627,-3.5098996,-9.466674,0.50757074
0.43146664,4.7828317,-0.10515954,-0.00366174,0.20579627,-3.5098996,-9.466674,0.50757074
0.4315163,4.782704,-0.09770269,-0.005792269,0.18342571,-3.53863,-9.428367,0.46926352
0.43156612,4.782576,-0.09770269,-0.005792269,0.18342571,-3.53863,-9.428367,0.46926352
0.43159166,4.78246,-0.09024584,-0.008988062,0.16105516,-3.4763808,-9.437943,0.47405192
0.4316172,4.782344,-0.09024584,-0.008988062,0.16105516,-3.4763808,-9.437943,0.47405192
0.43161812,4.7822394,-0.08278899,-0.012183856,0.13761935,-3.466804,-9.457097,0.48841715
0.431619,4.7821345,-0.08278899,-0.012183856,0.13761935,-3.466804,-9.457097,0.48841715
0.431619,4.7821345,-0.08278899,-0.012183856,0.13761935,-3.466804,-9.457097,0.48841715
0.43156594,4.781952,-0.07426687,-0.016444914,0.112053,-3.466804,-9.414001,0.51235914
0.4315128,4.781876,-0.06681002,-0.019640706,0.08648665,-3.5051112,-9.390059,0.5506664
0.43145737,4.7817974,-0.06681002,-0.019640706,0.08648665,-3.5051112,-9.390059,0.5506664
0.4313098,4.7816477,-0.0614837,-0.020705972,0.06305083,-3.5769374,-9.351752,0.5315128
0.4313098,4.7816477,-0.0614837,-0.020705972,0.06305083,-3.5769374,-9.351752,0.5315128
0.431216,4.78156,-0.056157377,-0.0228365,0.04387607,-3.5625722,-9.299079,0.46447513
0.431216,4.78156,-0.056157377,-0.0228365,0.04387607,-3.5625722,-9.299079,0.46447513
0.43101662,4.781405,-0.049765788,-0.023901764,0.02683184,-3.6152446,-9.241618,0.5267244
0.43101662,4.781405,-0.049765788,-0.023901764,0.02683184,-3.6152446,-9.241618,0.5267244
0.43080235,4.7812767,-0.049765788,-0.023901764,0.02683184,-3.6152446,-9.241618,0.5267244
0.43067965,4.781195,-0.04443947,-0.019640706,0.009787609,-3.6631286,-9.198523,0.46926352
0.4305448,4.7811165,-0.04017841,-0.016444914,-0.0051260935,-3.7253778,-9.141062,0.48841715
0.43040934,4.781038,-0.04017841,-0.016444914,-0.0051260935,-3.7253778,-9.141062,0.48841715
0.43026835,4.780951,-0.03698262,-0.010053327,-0.015778739,-3.845088,-9.169792,0.49799395
0.43011805,4.780859,-0.03698262,-0.010053327,-0.015778739,-3.845088,-9.169792,0.49799395
0.43000275,4.780753,-0.034852087,-0.0025964756,-0.025366118,-3.9456444,-9.227253,0.4405331
0.4298769,4.780639,-0.034852087,-0.0025964756,-0.025366118,-3.9456444,-9.227253,0.4405331
0.42973888,4.7805305,-0.032721557,0.0048603755,-0.031757705,-4.027047,-9.227253,0.51235914
0.429601,4.780422,-0.032721557,0.0048603755,-0.031757705,-4.027047,-9.227253,0.51235914
0.42950287,4.7802863,-0.031656295,0.010186698,-0.034953497,-4.1419687,-9.313444,0.46926352
0.4294047,4.7801504,-0.031656295,0.010186698,-0.034953497,-4.1419687,-9.313444,0.46926352
0.4293054,4.780017,-0.027395237,0.013382491,-0.037084028,-4.19943,-9.346964,0.521936
0.42920628,4.779884,-0.027395237,0.013382491,-0.037084028,-4.19943,-9.346964,0.521936
0.4291373,4.779745,-0.024199443,0.014447756,-0.036018763,-4.237737,-9.356541,0.50278234
0.42906836,4.779607,-0.024199443,0.014447756,-0.036018763,-4.237737,-9.356541,0.50278234
0.42899296,4.779476,-0.019938385,0.012317227,-0.03069244,-4.2185836,-9.361329,0.49799395
0.42891762,4.7793455,-0.019938385,0.012317227,-0.03069244,-4.2185836,-9.361329,0.49799395
0.42881683,4.7792335,-0.015677327,0.00592564,-0.025366118,-4.2042184,-9.390059,0.5315128
0.42871615,4.779121,-0.015677327,0.00592564,-0.025366118,-4.2042184,-9.390059,0.5315128
0.42863005,4.7790136,-0.010351005,-0.0025964756,-0.02110506,-4.1946416,-9.361329,0.51235914
0.42854434,4.7789054,-0.010351005,-0.0025964756,-0.02110506,-4.1946416,-9.361329,0.51235914
0.42842644,4.7788277,-0.006089947,-0.01324912,-0.015778739,-4.0940847,-9.323022,0.51235914
0.42830867,4.7787495,-0.006089947,-0.01324912,-0.015778739,-4.0940847,-9.323022,0.51235914
0.42818537,4.77869,-0.0018288894,-0.021771235,-0.009387151,-4.0174704,-9.294291,0.50278234
0.42806208,4.7786303,-0.0018288894,-0.021771235,-0.009387151,-4.0174704,-9.294291,0.50278234
0.42792815,4.778599,0.00030163955,-0.030293351,-0.0029955646,-3.9025488,-9.346964,0.51235914
0.4277942,4.778568,0.00030163955,-0.030293351,-0.0029955646,-3.9025488,-9.346964,0.51235914
0.42765784,4.778564,0.003497433,-0.03881547,0.0033960221,-3.7780502,-9.3182335,0.545878
0.42752147,4.77856,0.003497433,-0.03881547,0.0033960221,-3.7780502,-9.3182335,0.545878
0.42739436,4.778541,0.0066932263,-0.045207053,0.0044612866,-3.6966474,-9.3182335,0.45010993
0.42726734,4.7785215,0.0066932263,-0.045207053,0.0044612866,-3.6966474,-9.3182335,0.45010993
0.4271353,4.7785144,0.00988902,-0.04946811,0.0033960221,-3.6152446,-9.222465,0.46447513
0.42700326,4.778507,0.00988902,-0.04946811,0.0033960221,-3.6152446,-9.222465,0.46447513
0.4268736,4.7785044,0.012019549,-0.051598642,0.0065918155,-3.6343982,-9.260772,0.47405192
0.4267438,4.778502,0.012019549,-0.051598642,0.0065918155,-3.6343982,-9.260772,0.47405192
0.42661548,4.7785053,0.015215342,-0.052663904,0.008722344,-3.6152446,-9.23683,0.47884035
0.42648724,4.778508,0.015215342,-0.052663904,0.008722344,-3.6152446,-9.23683,0.47884035
0.42636102,4.7785153,0.016280606,-0.05372917,0.011918138,-3.5051112,-9.23683,0.46447513
0.42623487,4.778522,0.016280606,-0.05372917,0.011918138,-3.5051112,-9.23683,0.46447513
0.4261134,4.7785277,0.019476399,-0.052663904,0.015113931,-3.4955344,-9.136273,0.45010993
0.42599195,4.7785335,0.019476399,-0.052663904,0.015113931,-3.4955344,-9.136273,0.45010993
0.42586946,4.7785454,0.020541664,-0.050533377,0.016179197,-3.3901896,-9.11712,0.45489833
0.42574695,4.778557,0.020541664,-0.050533377,0.016179197,-3.3901896,-9.11712,0.45489833
0.42563513,4.77855,0.022672193,-0.048402846,0.01724446,-3.3806129,-9.074024,0.34955344
0.42552322,4.778543,0.022672193,-0.048402846,0.01724446,-3.3806129,-9.074024,0.34955344
0.42540014,4.778562,0.023737457,-0.044141788,0.01724446,-3.3135753,-9.050082,0.47884035
0.4252771,4.778581,0.023737457,-0.044141788,0.01724446,-3.3135753,-9.050082,0.47884035
0.4251553,4.778588,0.020541664,-0.03881547,0.016179197,-3.289633,-9.002198,0.4405331
0.42503354,4.778594,0.020541664,-0.03881547,0.016179197,-3.289633,-9.002198,0.4405331
0.42491052,4.778599,0.019476399,-0.03242388,0.015113931,-3.217807,-8.896853,0.4405331
0.4247873,4.7786036,0.019476399,-0.03242388,0.015113931,-3.217807,-8.896853,0.4405331
0.42466262,4.778602,0.017345872,-0.027097559,0.012983402,-3.2130187,-8.916007,0.4357447
0.4245353,4.778601,0.017345872,-0.027097559,0.012983402,-3.2130187,-8.916007,0.4357447
0.4244074,4.7785926,0.0141500775,-0.019640706,0.008722344,-3.1890767,-8.858546,0.4261679
0.42428198,4.7785835,0.0141500775,-0.019640706,0.008722344,-3.1890767,-8.858546,0.4261679
0.42414844,4.7785773,0.00988902,-0.012183856,0.00765708,-3.122039,-8.829816,0.46926352
0.42401946,4.778571,0.00988902,-0.012183856,0.00765708,-3.122039,-8.829816,0.46926352
0.42388865,4.7785497,0.0066932263,-0.0047270046,0.005526551,-3.1316159,-8.801085,0.4261679
0.42375794,4.778528,0.0066932263,-0.0047270046,0.005526551,-3.1316159,-8.801085,0.4261679
0.4236231,4.7785044,0.003497433,0.003795111,0.0023307577,-3.1411927,-8.762778,0.45489833
0.42348844,4.778481,0.003497433,0.003795111,0.0023307577,-3.1411927,-8.762778,0.45489833
0.4233522,4.7784443,-0.0007636249,0.014447756,-0.0008650357,-3.098097,-8.748413,0.4261679
0.42321548,4.7784076,-0.0007636249,0.014447756,-0.0008650357,-3.098097,-8.748413,0.4261679
0.4230762,4.7783556,-0.0071552116,0.0251004,-0.0051260935,-3.074155,-8.719683,0.40222588
0.42293823,4.7783046,-0.0071552116,0.0251004,-0.0051260935,-3.074155,-8.719683,0.40222588
0.422797,4.7782383,-0.0114162695,0.035753045,-0.010452416,-3.0502129,-8.66701,0.36870706
0.42265525,4.7781725,-0.0114162695,0.035753045,-0.010452416,-3.0502129,-8.66701,0.36870706
0.42250803,4.778102,-0.01674259,0.045340426,-0.015778739,-3.083732,-8.66701,0.40222588
0.42236093,4.778031,-0.01674259,0.045340426,-0.015778739,-3.083732,-8.66701,0.40222588
0.4222065,4.777956,-0.02313418,0.054927804,-0.02110506,-3.1364043,-8.647857,0.44532153
0.42205203,4.7778807,-0.02313418,0.054927804,-0.02110506,-3.1364043,-8.647857,0.44532153
0.42189592,4.7777843,-0.03059103,0.06664571,-0.026431382,-3.1603463,-8.647857,0.40701428
0.4217397,4.7776875,-0.03059103,0.06664571,-0.026431382,-3.1603463,-8.647857,0.40701428
0.42158347,4.777568,-0.03698262,0.0762331,-0.03282297,-3.1603463,-8.700529,0.33997664
0.42142698,4.7774487,-0.03698262,0.0762331,-0.03282297,-3.1603463,-8.700529,0.33997664
0.4212598,4.777324,-0.043374203,0.086885735,-0.041345086,-3.2082303,-8.671799,0.3878607
0.42109236,4.7772,-0.043374203,0.086885735,-0.041345086,-3.2082303,-8.671799,0.3878607
0.4209155,4.777071,-0.049765788,0.09753838,-0.048801936,-3.2704794,-8.7053175,0.4309563
0.4207385,4.7769427,-0.049765788,0.09753838,-0.048801936,-3.2704794,-8.7053175,0.4309563
0.4205583,4.7767954,-0.05509211,0.10819103,-0.056258786,-3.323152,-8.743625,0.40701428
0.42037797,4.776649,-0.05509211,0.10819103,-0.056258786,-3.323152,-8.743625,0.40701428
0.42019302,4.776485,-0.05935317,0.11990894,-0.06584617,-3.4093432,-8.767567,0.39743748
0.4200079,4.7763214,-0.05935317,0.11990894,-0.06584617,-3.4093432,-8.767567,0.39743748
0.41982502,4.7761326,-0.06467949,0.13056158,-0.075433545,-3.5242648,-8.848969,0.36870706
0.41964182,4.7759438,-0.06467949,0.13056158,-0.075433545,-3.5242648,-8.848969,0.36870706
0.41944218,4.775755,-0.06894055,0.1390837,-0.08608619,-3.620033,-8.916007,0.4309563
0.41924226,4.7755666,-0.06894055,0.1390837,-0.08608619,-3.620033,-8.916007,0.4309563
0.4190448,4.7753577,-0.07320161,0.14547528,-0.095673576,-3.7062242,-8.935161,0.4213795
0.41884702,4.775149,-0.07320161,0.14547528,-0.095673576,-3.7062242,-8.935161,0.4213795
0.4186326,4.7749467,-0.076397404,0.14867108,-0.10313042,-3.7924154,-8.954314,0.48362875
0.41841778,4.7747445,-0.076397404,0.14867108,-0.10313042,-3.7924154,-8.954314,0.48362875
0.4182414,4.7745037,-0.07852793,0.1476058,-0.11271781,-3.845088,-8.944737,0.41180268
0.418065,4.7742624,-0.07852793,0.1476058,-0.11271781,-3.845088,-8.944737,0.41180268
0.417865,4.7740293,-0.07852793,0.14654055,-0.121239915,-3.8019924,-8.987833,0.39743748
0.417665,4.773796,-0.07852793,0.14654055,-0.121239915,-3.8019924,-8.987833,0.39743748
0.4174469,4.7735715,-0.077462666,0.14441001,-0.12976204,-3.8642416,-9.045294,0.45010993
0.41722873,4.773347,-0.077462666,0.14441001,-0.12976204,-3.8642416,-9.045294,0.45010993
0.41699955,4.7731247,-0.075332135,0.14121422,-0.14147994,-3.8642416,-9.093178,0.4357447
0.4167704,4.7729034,-0.075332135,0.14121422,-0.14147994,-3.8642416,-9.093178,0.4357447
0.41656664,4.7726636,-0.07426687,0.14121422,-0.15213259,-3.9217024,-9.179369,0.35913026
0.41636384,4.772425,-0.07426687,0.14121422,-0.15213259,-3.9217024,-9.179369,0.35913026
0.41610005,4.7722135,-0.07320161,0.14227949,-0.16491576,-3.9600096,-9.284714,0.47405192
0.41583452,4.7720003,-0.07320161,0.14227949,-0.16491576,-3.9600096,-9.284714,0.47405192
0.41553804,4.7718167,-0.07000581,0.14121422,-0.17769894,-4.012682,-9.390059,0.51714754
0.41524303,4.7716346,-0.07000581,0.14121422,-0.17769894,-4.012682,-9.390059,0.51714754
0.4149706,4.7714157,-0.06681002,0.1390837,-0.1936779,-4.084508,-9.41879,0.49799395
0.41469637,4.7711954,-0.06681002,0.1390837,-0.1936779,-4.084508,-9.41879,0.49799395
0.4145115,4.7709618,-0.0614837,0.13375737,-0.20752634,-4.175488,-9.437943,0.45489833
0.41432878,4.770729,-0.0614837,0.13375737,-0.20752634,-4.175488,-9.437943,0.45489833
0.41424507,4.7705717,-0.05509211,0.12417,-0.21924424,-4.223372,-9.457097,0.5363012
0.4141635,4.7704177,-0.05509211,0.12417,-0.21924424,-4.223372,-9.457097,0.5363012
0.41407704,4.7703023,-0.04763526,0.11138682,-0.23202743,-4.2425256,-9.433155,0.5410896
0.41399094,4.7701893,-0.04763526,0.11138682,-0.23202743,-4.2425256,-9.433155,0.5410896
0.41388926,4.770069,-0.039113145,0.09753838,-0.24054953,-4.19943,-9.370906,0.5267244
0.41378874,4.769951,-0.039113145,0.09753838,-0.24054953,-4.19943,-9.370906,0.5267244
0.4136546,4.769947,-0.03059103,0.08262468,-0.24800639,-4.232949,-9.370906,0.59855044
0.41352096,4.769943,-0.03059103,0.08262468,-0.24800639,-4.232949,-9.370906,0.59855044
0.41340816,4.7699137,-0.02313418,0.06664571,-0.25226745,-4.1946416,-9.299079,0.5554548
0.4132952,4.769885,-0.02313418,0.06664571,-0.25226745,-4.1946416,-9.299079,0.5554548
0.41315508,4.7697716,-0.01674259,0.052797277,-0.25226745,-4.1180267,-9.279925,0.51235914
0.41301855,4.7696624,-0.01674259,0.052797277,-0.25226745,-4.1180267,-9.279925,0.51235914
0.41280484,4.769732,-0.0114162695,0.04107937,-0.2501369,-4.060566,-9.179369,0.60333884
0.4125941,4.7698007,-0.0114162695,0.04107937,-0.2501369,-4.060566,-9.179369,0.60333884
0.412323,4.7698812,-0.0050246827,0.032557253,-0.2501369,-3.9839516,-9.136273,0.61770403
0.41205448,4.7699623,-0.0050246827,0.032557253,-0.2501369,-3.9839516,-9.136273,0.61770403
0.4117005,4.7698774,0.00030163955,0.024035135,-0.24587587,-3.9552212,-9.112331,0.50757074
0.4113497,4.7697897,0.00030163955,0.024035135,-0.24587587,-3.9552212,-9.112331,0.50757074
0.41108128,4.7698836,0.003497433,0.019774077,-0.2416148,-3.9552212,-9.131485,0.641646
0.41081426,4.769978,0.003497433,0.019774077,-0.2416148,-3.9552212,-9.131485,0.641646
0.41050112,4.76988,0.005627962,0.016578285,-0.23628849,-3.9504328,-9.107543,0.50278234
0.4101945,4.7697783,0.005627962,0.016578285,-0.23628849,-3.9504328,-9.107543,0.50278234
0.4098281,4.7697673,0.0077584907,0.013382491,-0.22776636,-3.9456444,-9.097966,0.521936
0.40946165,4.7697554,0.0077584907,0.013382491,-0.22776636,-3.9456444,-9.097966,0.521936
0.40919435,4.769856,0.00988902,0.010186698,-0.22030951,-3.9312792,-9.141062,0.60333884
0.40892923,4.7699575,0.00988902,0.010186698,-0.22030951,-3.9312792,-9.141062,0.60333884
0.40873078,4.770068,0.012019549,0.008056169,-0.21072213,-3.9743748,-9.11712,0.6368576
0.40853426,4.7701783,0.012019549,0.008056169,-0.21072213,-3.9743748,-9.11712,0.6368576
0.4083084,4.770289,0.0141500775,0.008056169,-0.19793896,-3.9264908,-9.136273,0.6464345
0.40808415,4.7704,0.0141500775,0.008056169,-0.19793896,-3.9264908,-9.136273,0.6464345
0.40678573,4.770512,0.018411135,0.003795111,-0.17024209,-3.845088,-9.14585,0.5410896
0.40678573,4.770512,0.018411135,0.003795111,-0.17024209,-3.845088,-9.14585,0.5410896
0.40678573,4.770512,0.018411135,0.003795111,-0.17024209,-3.845088,-9.14585,0.5410896
0.40678573,4.770512,0.018411135,0.003795111,-0.17024209,-3.845088,-9.14585,0.5410896
0.40657508,4.770578,0.019476399,0.0027298466,-0.15532838,-3.8738184,-9.074024,0.5506664
0.40657508,4.770578,0.019476399,0.0027298466,-0.15532838,-3.8738184,-9.074024,0.5506664
0.40657508,4.770578,0.019476399,0.0027298466,-0.15532838,-3.8738184,-9.074024,0.5506664
0.40585512,4.7708564,0.02160693,0.0016645822,-0.13828415,-3.8594532,-9.097966,0.6560113
0.40567586,4.7709904,0.024802722,0.0016645822,-0.120174654,-3.8402996,-8.992621,0.58897364
0.40552983,4.771101,0.024802722,0.0016645822,-0.120174654,-3.8402996,-8.992621,0.58897364
0.40534243,4.7712064,0.025867987,0.0005993177,-0.10206516,-3.8067808,-9.064447,0.60812724
0.4051543,4.7713127,0.025867987,0.0005993177,-0.10206516,-3.8067808,-9.064447,0.60812724
0.40497008,4.7714114,0.026933251,0.0016645822,-0.08608619,-3.7445314,-9.074024,0.6368576
0.40497008,4.7714114,0.026933251,0.0016645822,-0.08608619,-3.7445314,-9.074024,0.6368576
0.4046128,4.771605,0.026933251,0.0016645822,-0.08608619,-3.7445314,-9.074024,0.6368576
0.4044193,4.771697,0.027998514,0.003795111,-0.06904196,-3.7253778,-9.059659,0.61291564
0.4042294,4.7717347,0.02906378,0.00592564,-0.05412826,-3.7445314,-9.02614,0.545878
0.40403745,4.771773,0.02906378,0.00592564,-0.05412826,-3.7445314,-9.02614,0.545878
0.40386608,4.7717648,0.030129045,0.0069909045,-0.03814929,-3.6870706,-9.030929,0.49799395
0.40369472,4.7717566,0.030129045,0.0069909045,-0.03814929,-3.6870706,-9.030929,0.49799395
0.40352923,4.7717776,0.032259572,0.009121433,-0.02323559,-3.6966474,-8.963891,0.5267244
0.40336984,4.7717977,0.032259572,0.009121433,-0.02323559,-3.6966474,-8.963891,0.5267244
0.40324104,4.771768,0.031194309,0.010186698,-0.008321887,-3.6774938,-8.954314,0.47405192
0.40311226,4.7717385,0.031194309,0.010186698,-0.008321887,-3.6774938,-8.954314,0.47405192
0.40300062,4.7717047,0.032259572,0.009121433,0.0033960221,-3.667917,-8.925584,0.46447513
0.40288877,4.77167,0.032259572,0.009121433,0.0033960221,-3.667917,-8.925584,0.46447513
0.40277684,4.771654,0.032259572,0.010186698,0.016179197,-3.6487634,-8.916007,0.48362875
0.40266466,4.771638,0.032259572,0.010186698,0.016179197,-3.6487634,-8.916007,0.48362875
0.40255532,4.771665,0.032259572,0.010186698,0.030027634,-3.6104562,-8.911219,0.5267244
0.40244603,4.771692,0.032259572,0.010186698,0.030027634,-3.6104562,-8.911219,0.5267244
0.4023522,4.771697,0.032259572,0.008056169,0.042810805,-3.5625722,-8.815451,0.49320555
0.40225875,4.771702,0.032259572,0.008056169,0.042810805,-3.5625722,-8.815451,0.49320555
0.40217105,4.771717,0.030129045,0.0048603755,0.05133292,-3.5194764,-8.805874,0.50278234
0.40208355,4.7717323,0.030129045,0.0048603755,0.05133292,-3.5194764,-8.805874,0.50278234
0.40200636,4.771741,0.027998514,0.0027298466,0.0609203,-3.4284968,-8.762778,0.48362875
0.4019292,4.771749,0.027998514,0.0027298466,0.0609203,-3.4284968,-8.762778,0.48362875
0.40186018,4.771782,0.025867987,0.0016645822,0.07050768,-3.3662477,-8.734048,0.5315128
0.40179113,4.7718143,0.025867987,0.0016645822,0.07050768,-3.3662477,-8.734048,0.5315128
0.40173122,4.7718387,0.022672193,0.0005993177,0.08009506,-3.347094,-8.695741,0.51714754
0.40167123,4.771863,0.022672193,0.0005993177,0.08009506,-3.347094,-8.695741,0.51714754
0.40162027,4.771865,0.019476399,0.0005993177,0.087551914,-3.2465374,-8.676587,0.46447513
0.40156928,4.7718673,0.019476399,0.0005993177,0.087551914,-3.2465374,-8.676587,0.46447513
0.40152392,4.771858,0.0141500775,0.0016645822,0.09181297,-3.2225955,-8.671799,0.44532153
0.40147844,4.7718496,0.0141500775,0.0016645822,0.09181297,-3.2225955,-8.671799,0.44532153
0.40143752,4.771847,0.00988902,0.0048603755,0.09820456,-3.2273839,-8.619126,0.47884035
0.40139645,4.7718444,0.00988902,0.0048603755,0.09820456,-3.2273839,-8.619126,0.47884035
0.4013613,4.7718334,0.005627962,0.009121433,0.103530884,-3.2082303,-8.6095495,0.46926352
0.4013262,4.771822,0.005627962,0.009121433,0.103530884,-3.2082303,-8.6095495,0.46926352
0.40129453,4.7718043,0.001366904,0.014447756,0.106726676,-3.1986535,-8.619126,0.46926352
0.40126285,4.7717867,0.001366904,0.014447756,0.106726676,-3.1986535,-8.619126,0.46926352
0.40123075,4.771779,-0.0028941538,0.020839343,0.106726676,-3.2082303,-8.63828,0.51714754
0.40119866,4.7717714,-0.0028941538,0.020839343,0.106726676,-3.2082303,-8.63828,0.51714754
0.40116805,4.7717514,-0.0071552116,0.02723093,0.10779194,-3.2561142,-8.599973,0.50278234
0.4011373,4.7717323,-0.0071552116,0.02723093,0.10779194,-3.2561142,-8.599973,0.50278234
0.40110478,4.771703,-0.0114162695,0.032557253,0.10566141,-3.265691,-8.580819,0.49320555
0.4010724,4.771673,-0.0114162695,0.032557253,0.10566141,-3.265691,-8.580819,0.49320555
0.40104154,4.771613,-0.015677327,0.038948838,0.102465615,-3.2848446,-8.63828,0.4405331
0.40101066,4.7715535,-0.015677327,0.038948838,0.102465615,-3.2848446,-8.63828,0.4405331
0.40097257,4.7715096,-0.018873122,0.04427516,0.09926982,-3.3375173,-8.6334915,0.49320555
0.40093455,4.771466,-0.018873122,0.04427516,0.09926982,-3.3375173,-8.6334915,0.49320555
0.40089563,4.7713966,-0.021003649,0.049601484,0.0939435,-3.3566709,-8.6095495,0.45489833
0.40085655,4.771328,-0.021003649,0.049601484,0.0939435,-3.3566709,-8.6095495,0.45489833
0.4008036,4.7712636,-0.024199443,0.053862542,0.08222559,-3.4093432,-8.623915,0.47884035
0.40075046,4.771199,-0.024199443,0.053862542,0.08222559,-3.4093432,-8.623915,0.47884035
0.4006891,4.7711225,-0.027395237,0.057058334,0.071572945,-3.4093432,-8.647857,0.46447513
0.4006278,4.771045,-0.027395237,0.057058334,0.071572945,-3.4093432,-8.647857,0.46447513
0.40061787,4.770897,-0.03059103,0.05918886,0.058789775,-3.5051112,-8.686164,0.31603462
0.40060756,4.770749,-0.03059103,0.05918886,0.058789775,-3.5051112,-8.686164,0.31603462
0.40057898,4.7705994,-0.033786822,0.060254127,0.044941336,-3.5003228,-8.724471,0.31124622
0.40055022,4.7704496,-0.033786822,0.060254127,0.044941336,-3.5003228,-8.724471,0.31124622
0.40052795,4.7702885,-0.03698262,0.05918886,0.030027634,-3.5673606,-8.724471,0.31124622
0.4005054,4.7701273,-0.03698262,0.05918886,0.030027634,-3.5673606,-8.724471,0.31124622
0.40042192,4.769988,-0.04017841,0.05599307,0.015113931,-3.6248214,-8.714894,0.45968673
0.40033773,4.76985,-0.04017841,0.05599307,0.015113931,-3.6248214,-8.714894,0.45968673
0.40026265,4.7696924,-0.04443947,0.053862542,0.00020022877,-3.6535518,-8.791509,0.4357447
0.400187,4.769535,-0.04443947,0.053862542,0.00020022877,-3.6535518,-8.791509,0.4357447
0.400201,4.76936,-0.04763526,0.049601484,-0.010452416,-3.7205894,-8.738836,0.4165911
0.40021515,4.769185,-0.04763526,0.049601484,-0.010452416,-3.7205894,-8.738836,0.4165911
0.40028733,4.769196,-0.050831053,0.045340426,-0.02323559,-3.7732618,-8.78672,0.5363012
0.40035883,4.7692075,-0.050831053,0.045340426,-0.02323559,-3.7732618,-8.78672,0.5363012
0.40044364,4.7690783,-0.05189632,0.038948838,-0.03282297,-3.763685,-8.791509,0.48362875
