Pitch,Roll,Gyro_X,Gyro_Y,Gyro_Z,Accel_X,Accel_Y,Accel_Z
0.09196589,4.9093723,-0.08491952,-0.045207053,0.104596145,-0.8714894,-9.260772,1.6998832
0.09206169,4.909193,-0.08491952,-0.045207053,0.104596145,-0.8714894,-9.260772,1.6998832
0.092156485,4.909009,-0.093441635,-0.052663904,0.088617176,-0.89543146,-9.232041,1.6903064
0.09225198,4.908823,-0.093441635,-0.052663904,0.088617176,-0.89543146,-9.232041,1.6903064
0.09232323,4.908628,-0.10089848,-0.062251285,0.07476874,-0.89064306,-9.217676,1.5705963
0.09239401,4.908434,-0.10089848,-0.062251285,0.07476874,-0.89064306,-9.217676,1.5705963
0.0924313,4.908232,-0.108355336,-0.07290393,0.058789775,-0.8475474,-9.198523,1.5562311
0.092468075,4.9080324,-0.108355336,-0.07290393,0.058789775,-0.8475474,-9.198523,1.5562311
0.0924832,4.9078245,-0.11581218,-0.08355658,0.0460066,-0.8379706,-9.193734,1.6184803
0.092498414,4.9076138,-0.11581218,-0.08355658,0.0460066,-0.8379706,-9.193734,1.6184803
0.09248159,4.907389,-0.122203775,-0.09633975,0.03641922,-0.79008657,-9.198523,1.5897499
0.092466556,4.9071903,-0.122203775,-0.09633975,0.03641922,-0.79008657,-9.198523,1.5897499
0.09244363,4.9069743,-0.12966062,-0.109122925,0.027897105,-0.79487497,-9.203311,1.5753847
0.09242034,4.9067564,-0.12966062,-0.109122925,0.027897105,-0.79487497,-9.203311,1.5753847
0.09237393,4.906532,-0.13818274,-0.12084083,0.01724446,-0.7469909,-9.203311,1.5227122
0.092327684,4.9063087,-0.13818274,-0.12084083,0.01724446,-0.7469909,-9.203311,1.5227122
0.09225764,4.906081,-0.1456396,-0.13255873,0.009787609,-0.7038953,-9.198523,1.5275006
0.092187606,4.905854,-0.1456396,-0.13255873,0.009787609,-0.7038953,-9.198523,1.5275006
0.092091225,4.9056244,-0.1541617,-0.14214613,0.0012654932,-0.6703765,-9.232041,1.5610195
0.09199491,4.905395,-0.1541617,-0.14214613,0.0012654932,-0.6703765,-9.232041,1.5610195
0.09188255,4.9051595,-0.16374908,-0.15066823,-0.0072566224,-0.6703765,-9.227253,1.5849615
0.0917701,4.9049244,-0.16374908,-0.15066823,-0.0072566224,-0.6703765,-9.227253,1.5849615
0.09162855,4.904692,-0.1722712,-0.15705982,-0.013648209,-0.56982,-9.279925,1.5849615
0.09148684,4.9044604,-0.1722712,-0.15705982,-0.013648209,-0.56982,-9.279925,1.5849615
0.09133393,4.9042244,-0.17972806,-0.16238615,-0.020039797,-0.521936,-9.346964,1.5753847
0.09118052,4.9039884,-0.17972806,-0.16238615,-0.020039797,-0.521936,-9.346964,1.5753847
0.09100603,4.903758,-0.1871849,-0.16451667,-0.026431382,-0.51235914,-9.409213,1.6472107
0.0908317,4.903528,-0.1871849,-0.16451667,-0.026431382,-0.51235914,-9.409213,1.6472107
0.09064447,4.9032927,-0.19677228,-0.1666472,-0.036018763,-0.48362875,-9.476251,1.6567876
0.0904571,4.9030566,-0.19677228,-0.1666472,-0.036018763,-0.48362875,-9.476251,1.6567876
0.090253174,4.9028277,-0.20316388,-0.1666472,-0.043475613,-0.51714754,-9.5385,1.7286136
0.09004907,4.9025993,-0.20316388,-0.1666472,-0.043475613,-0.51714754,-9.5385,1.7286136
0.08984636,4.9023542,-0.20742492,-0.1666472,-0.0498672,-0.49320555,-9.576807,1.6807296
0.08964354,4.90211,-0.20742492,-0.1666472,-0.0498672,-0.49320555,-9.576807,1.6807296
0.089436844,4.901861,-0.21062072,-0.16558194,-0.05519352,-0.4309563,-9.667787,1.661576
0.08922945,4.901612,-0.21062072,-0.16558194,-0.05519352,-0.4309563,-9.667787,1.661576
0.089003585,4.9013853,-0.21275125,-0.16451667,-0.060519844,-0.4309563,-9.677363,1.7621324
0.0887774,4.9011593,-0.21275125,-0.16451667,-0.060519844,-0.4309563,-9.677363,1.7621324
0.08854811,4.9009237,-0.21594705,-0.16238615,-0.06691143,-0.4309563,-9.706094,1.7429788
0.08831843,4.900688,-0.21594705,-0.16238615,-0.06691143,-0.4309563,-9.706094,1.7429788
0.08807726,4.9004707,-0.21807757,-0.15812509,-0.07330302,-0.41180268,-9.758766,1.8195933
0.087836556,4.9002542,-0.21807757,-0.15812509,-0.07330302,-0.41180268,-9.758766,1.8195933
0.08759714,4.9000187,-0.22020811,-0.15386403,-0.076498814,-0.40701428,-9.797073,1.7669208
0.08735756,4.899784,-0.22020811,-0.15386403,-0.076498814,-0.40701428,-9.797073,1.7669208
0.08711441,4.8995485,-0.2234039,-0.14960296,-0.07969461,-0.4357447,-9.821015,1.7860745
0.08687155,4.899314,-0.2234039,-0.14960296,-0.07969461,-0.4357447,-9.821015,1.7860745
0.0866304,4.899069,-0.2234039,-0.14321138,-0.08182514,-0.4357447,-9.849746,1.757344
0.086390056,4.898825,-0.2234039,-0.14321138,-0.08182514,-0.4357447,-9.849746,1.757344
0.086145684,4.8985853,-0.22127336,-0.13575453,-0.08502093,-0.46447513,-9.868899,1.7764976
0.085902095,4.898347,-0.22127336,-0.13575453,-0.08502093,-0.46447513,-9.868899,1.7764976
0.085667364,4.898095,-0.21914284,-0.12936294,-0.08395566,-0.4261679,-9.916783,1.7190368
0.0854324,4.8978443,-0.21914284,-0.12936294,-0.08395566,-0.4261679,-9.916783,1.7190368
0.08520452,4.8975897,-0.21701232,-0.122971356,-0.08075987,-0.4261679,-9.921572,1.6998832
0.08497642,4.897336,-0.21701232,-0.122971356,-0.08075987,-0.4261679,-9.921572,1.6998832
0.084749155,4.897091,-0.21381652,-0.11657977,-0.077564076,-0.45010993,-9.916783,1.7286136
0.084521554,4.8968463,-0.21381652,-0.11657977,-0.077564076,-0.45010993,-9.916783,1.7286136
0.08429334,4.896615,-0.20742492,-0.11125345,-0.075433545,-0.46447513,-9.950302,1.7621324
0.08406494,4.8963842,-0.20742492,-0.11125345,-0.075433545,-0.46447513,-9.950302,1.7621324
0.08406494,4.8963842,-0.20742492,-0.11125345,-0.075433545,-0.46447513,-9.950302,1.7621324
0.08359365,4.89596,-0.20316388,-0.10486186,-0.07117249,-0.45968673,-9.993398,1.8291701
0.08337745,4.895744,-0.19783755,-0.09847028,-0.06691143,-0.45489833,-9.988609,1.7717092
0.083156034,4.895523,-0.19783755,-0.09847028,-0.06691143,-0.45489833,-9.988609,1.7717092
0.083156034,4.895523,-0.19783755,-0.09847028,-0.06691143,-0.45489833,-9.988609,1.7717092
0.083156034,4.895523,-0.19783755,-0.09847028,-0.06691143,-0.45489833,-9.988609,1.7717092
0.083156034,4.895523,-0.18825017,-0.0856871,-0.056258786,-0.45010993,-9.974244,1.7477672
0.0823516,4.8946753,-0.18825017,-0.0856871,-0.056258786,-0.45010993,-9.974244,1.7477672
0.08215632,4.8944583,-0.18185858,-0.078230254,-0.0498672,-0.49320555,-9.993398,1.7381904
0.08196278,4.8942432,-0.18185858,-0.078230254,-0.0498672,-0.49320555,-9.993398,1.7381904
0.08177267,4.8940415,-0.175467,-0.0707734,-0.04454088,-0.4405331,-9.931149,1.733402
0.08158196,4.89384,-0.175467,-0.0707734,-0.04454088,-0.4405331,-9.931149,1.733402
0.08140257,4.8936357,-0.16907541,-0.06331655,-0.039214555,-0.48841715,-9.935937,1.7190368
0.08122297,4.8934326,-0.16907541,-0.06331655,-0.039214555,-0.48841715,-9.935937,1.7190368
0.08106633,4.893209,-0.16481435,-0.05692496,-0.036018763,-0.58418524,-9.945514,1.685518
0.08090893,4.8929853,-0.16481435,-0.05692496,-0.036018763,-0.58418524,-9.945514,1.685518
0.080754444,4.8927717,-0.15948802,-0.04946811,-0.03069244,-0.5650316,-9.964667,1.6903064
0.08059863,4.892557,-0.15948802,-0.04946811,-0.03069244,-0.5650316,-9.964667,1.6903064
0.080479465,4.8923283,-0.1541617,-0.040945996,-0.022170324,-0.61770403,-9.921572,1.6376339
0.08036026,4.8921003,-0.1541617,-0.040945996,-0.022170324,-0.61770403,-9.921572,1.6376339
0.080279216,4.891863,-0.14883539,-0.033489145,-0.014713474,-0.6560113,-9.921572,1.5705963
0.080197714,4.8916254,-0.14883539,-0.033489145,-0.014713474,-0.6560113,-9.921572,1.5705963
0.08008589,4.8914137,-0.14244379,-0.02496703,-0.0072566224,-0.641646,-9.907207,1.6759412
0.079973765,4.8912024,-0.14244379,-0.02496703,-0.0072566224,-0.641646,-9.907207,1.6759412
0.07989556,4.8909817,-0.13711748,-0.017510178,0.00020022877,-0.6799533,-9.89763,1.6472107
0.079816595,4.8907604,-0.13711748,-0.017510178,0.00020022877,-0.6799533,-9.89763,1.6472107
0.07975317,4.890541,-0.13285641,-0.011118591,0.00765708,-0.6799533,-9.907207,1.6280571
0.07968904,4.890321,-0.13285641,-0.011118591,0.00765708,-0.6799533,-9.907207,1.6280571
0.079623945,4.89011,-0.1275301,-0.0068575335,0.012983402,-0.6847417,-9.864111,1.6472107
0.079558164,4.8898983,-0.1275301,-0.0068575335,0.012983402,-0.6847417,-9.864111,1.6472107
0.07951176,4.889685,-0.12326904,-0.0025964756,0.01724446,-0.6895301,-9.859323,1.6136919
0.07946427,4.889469,-0.12326904,-0.0025964756,0.01724446,-0.6895301,-9.859323,1.6136919
0.079393975,4.889274,-0.121138506,0.0016645822,0.021505518,-0.6991069,-9.792285,1.6759412
0.0793223,4.8890786,-0.121138506,0.0016645822,0.021505518,-0.6991069,-9.792285,1.6759412
0.079269834,4.888875,-0.11794271,0.00592564,0.022570781,-0.7182605,-9.77792,1.6663644
0.079216436,4.888673,-0.11794271,0.00592564,0.022570781,-0.7182605,-9.77792,1.6663644
0.079162136,4.888472,-0.11581218,0.009121433,0.020440254,-0.7086837,-9.706094,1.6472107
0.07910672,4.8882713,-0.11581218,0.009121433,0.020440254,-0.7086837,-9.706094,1.6472107
0.079041444,4.888075,-0.11581218,0.011251962,0.019374989,-0.6799533,-9.768343,1.6376339
0.07897568,4.8878794,-0.11581218,0.011251962,0.019374989,-0.6799533,-9.768343,1.6376339
0.0789593,4.8876677,-0.11368166,0.011251962,0.01724446,-0.7326257,-9.68694,1.5945383
0.07894232,4.887454,-0.11368166,0.011251962,0.01724446,-0.7326257,-9.68694,1.5945383
0.07893597,4.887245,-0.11261639,0.011251962,0.016179197,-0.7517793,-9.701305,1.6089035
0.07892902,4.8870325,-0.11261639,0.011251962,0.016179197,-0.7517793,-9.701305,1.6089035
0.0789148,4.8868217,-0.11261639,0.010186698,0.014048667,-0.7422025,-9.639056,1.5993267
0.07890007,4.88661,-0.11261639,0.010186698,0.014048667,-0.7422025,-9.639056,1.5993267
0.07880224,4.886433,-0.11155113,0.008056169,0.00765708,-0.7422025,-9.591172,1.6711528
0.0787006,4.886258,-0.11155113,0.008056169,0.00765708,-0.7422025,-9.591172,1.6711528
0.07871124,4.886045,-0.11261639,0.0069909045,0.0044612866,-0.770933,-9.581595,1.5801731
0.07872191,4.8858314,-0.11261639,0.0069909045,0.0044612866,-0.770933,-9.581595,1.5801731
0.078779116,4.885624,-0.11474692,0.0048603755,0.0033960221,-0.8379706,-9.56723,1.5466543
0.07883722,4.885414,-0.11474692,0.0048603755,0.0033960221,-0.8379706,-9.56723,1.5466543
0.07887992,4.8852015,-0.11581218,0.0005993177,0.0033960221,-0.82360536,-9.56723,1.5275006
0.07892236,4.8849916,-0.11581218,0.0005993177,0.0033960221,-0.82360536,-9.56723,1.5275006
0.07898778,4.8847876,-0.11794271,-0.0047270046,0.00020022877,-0.8619126,-9.5385,1.532289
0.07905432,4.8845816,-0.11794271,-0.0047270046,0.00020022877,-0.8619126,-9.5385,1.532289
0.07914572,4.8843884,-0.121138506,-0.010053327,-0.0019303001,-0.89064306,-9.514558,1.5562311
0.07923792,4.884195,-0.121138506,-0.010053327,-0.0019303001,-0.89064306,-9.514558,1.5562311
0.07932259,4.8839974,-0.12326904,-0.016444914,-0.004060829,-0.92416185,-9.452309,1.5035586
0.0794079,4.8838005,-0.12326904,-0.016444914,-0.004060829,-0.92416185,-9.452309,1.5035586
0.07950435,4.8836055,-0.1275301,-0.021771235,-0.0008650357,-0.9528923,-9.428367,1.4987702
0.07960138,4.8834105,-0.1275301,-0.021771235,-0.0008650357,-0.9528923,-9.428367,1.4987702
0.0797219,4.883236,-0.13072589,-0.028162822,0.0012654932,-1.0630256,-9.442732,1.5179238
0.07984582,4.883057,-0.13072589,-0.028162822,0.0012654932,-1.0630256,-9.442732,1.5179238
0.07995501,4.8828783,-0.13498695,-0.035619672,-0.0019303001,-1.0534488,-9.380483,1.4891934
0.080067396,4.8826942,-0.13498695,-0.035619672,-0.0019303001,-1.0534488,-9.380483,1.4891934
0.08018079,4.882509,-0.13818274,-0.043076526,0.00020022877,-1.0295067,-9.32781,1.4891934
0.080295116,4.8823237,-0.13818274,-0.043076526,0.00020022877,-1.0295067,-9.32781,1.4891934
0.080424346,4.882148,-0.14350906,-0.04946811,0.00765708,-1.091756,-9.3661175,1.5131354
0.08055392,4.8819714,-0.14350906,-0.04946811,0.00765708,-1.091756,-9.3661175,1.5131354
0.08068535,4.8817887,-0.14777012,-0.05692496,0.012983402,-1.0965444,-9.361329,1.4987702
0.080817334,4.881606,-0.14777012,-0.05692496,0.012983402,-1.0965444,-9.361329,1.4987702
0.0809532,4.8814225,-0.15096591,-0.06331655,0.01724446,-1.1683705,-9.255983,1.460463
0.081089616,4.881239,-0.15096591,-0.06331655,0.01724446,-1.1683705,-9.255983,1.460463
0.08122703,4.8810472,-0.15522698,-0.06864287,0.022570781,-1.1492168,-9.32781,1.460463
0.081364766,4.8808556,-0.15522698,-0.06864287,0.022570781,-1.1492168,-9.32781,1.460463
0.08151573,4.8806787,-0.15948802,-0.07290393,0.027897105,-1.1923125,-9.279925,1.5035586
0.08166772,4.8805017,-0.15948802,-0.07290393,0.027897105,-1.1923125,-9.279925,1.5035586
0.08182271,4.8803205,-0.16481435,-0.078230254,0.032158162,-1.2210429,-9.308656,1.5035586
0.08197798,4.8801403,-0.16481435,-0.078230254,0.032158162,-1.2210429,-9.308656,1.5035586
0.0821411,4.879974,-0.17120594,-0.08249131,0.037484486,-1.2114661,-9.3421755,1.5753847
0.08230457,4.879808,-0.17120594,-0.08249131,0.037484486,-1.2114661,-9.3421755,1.5753847
0.08247209,4.879632,-0.17759752,-0.0856871,0.042810805,-1.1971009,-9.375694,1.5658079
0.0826397,4.8794565,-0.17759752,-0.0856871,0.042810805,-1.1971009,-9.375694,1.5658079
0.08280349,4.879308,-0.18398911,-0.08888289,0.044941336,-1.1683705,-9.514558,1.6807296
0.08296774,4.87916,-0.18398911,-0.08888289,0.044941336,-1.1683705,-9.514558,1.6807296
0.08313139,4.878999,-0.18931544,-0.093143955,0.042810805,-1.1683705,-9.548077,1.661576
0.08329495,4.878839,-0.18931544,-0.093143955,0.042810805,-1.1683705,-9.548077,1.661576
0.083456986,4.8786573,-0.19251123,-0.10060081,0.039615013,-1.2114661,-9.634268,1.6232687
0.08361988,4.8784757,-0.19251123,-0.10060081,0.039615013,-1.2114661,-9.634268,1.6232687
0.08377528,4.8783016,-0.19357648,-0.105927125,0.03428869,-1.2401965,-9.763555,1.6663644
0.08393078,4.8781276,-0.19357648,-0.105927125,0.03428869,-1.2401965,-9.763555,1.6663644
0.084068544,4.877981,-0.19357648,-0.11231872,0.02683184,-1.2880806,-9.758766,1.7621324
0.08420627,4.8778343,-0.19357648,-0.11231872,0.02683184,-1.2880806,-9.758766,1.7621324
0.08434359,4.877677,-0.19357648,-0.12084083,0.022570781,-1.2689269,-9.797073,1.7190368
0.08448091,4.8775206,-0.19357648,-0.12084083,0.022570781,-1.2689269,-9.797073,1.7190368
0.08460522,4.8773794,-0.19251123,-0.13042821,0.018309724,-1.3072342,-9.849746,1.7860745
0.08472997,4.8772383,-0.19251123,-0.13042821,0.018309724,-1.3072342,-9.849746,1.7860745
0.08485511,4.8770843,-0.19038069,-0.14108086,0.012983402,-1.3742718,-9.849746,1.733402
0.08498026,4.8769307,-0.19038069,-0.14108086,0.012983402,-1.3742718,-9.849746,1.733402
0.08510137,4.8767824,-0.1871849,-0.14960296,0.010852873,-1.388637,-9.89763,1.7477672
0.085222304,4.8766346,-0.1871849,-0.14960296,0.010852873,-1.388637,-9.89763,1.7477672
0.085340366,4.8764925,-0.18292385,-0.15812509,0.009787609,-1.4748282,-9.945514,1.7717092
0.08545893,4.87635,-0.18292385,-0.15812509,0.009787609,-1.4748282,-9.945514,1.7717092
0.08558049,4.876202,-0.17759752,-0.1666472,0.010852873,-1.5466543,-9.983821,1.7286136
0.08570204,4.876055,-0.17759752,-0.1666472,0.010852873,-1.5466543,-9.983821,1.7286136
0.08582456,4.8759165,-0.17120594,-0.17623459,0.014048667,-1.532289,-9.998186,1.7381904
0.08594716,4.875779,-0.17120594,-0.17623459,0.014048667,-1.532289,-9.998186,1.7381904
0.08606789,4.8756647,-0.16268381,-0.18688722,0.019374989,-1.5227122,-10.036493,1.8100165
0.086189166,4.8755493,-0.16268381,-0.18688722,0.019374989,-1.5227122,-10.036493,1.8100165
0.08632271,4.8754325,-0.15309644,-0.19860514,0.02896237,-1.5514427,-10.065224,1.7477672
0.08645629,4.8753157,-0.15309644,-0.19860514,0.02896237,-1.5514427,-10.065224,1.7477672
0.086595215,4.8752193,-0.14350906,-0.20925778,0.039615013,-1.5275006,-10.04607,1.7908629
0.08673391,4.8751235,-0.14350906,-0.20925778,0.039615013,-1.5275006,-10.04607,1.7908629
0.08687795,4.87505,-0.13072589,-0.21991043,0.05133292,-1.532289,-10.055647,1.8387469
0.08702259,4.8749766,-0.13072589,-0.21991043,0.05133292,-1.532289,-10.055647,1.8387469
0.087173834,4.8749247,-0.11794271,-0.22843254,0.06518136,-1.4891934,-10.070012,1.8722657
0.08732522,4.874873,-0.11794271,-0.22843254,0.06518136,-1.4891934,-10.070012,1.8722657
0.08748884,4.874838,-0.104094274,-0.23695466,0.08009506,-1.4700398,-10.04607,1.8674773
0.08765251,4.8748026,-0.104094274,-0.23695466,0.08009506,-1.4700398,-10.04607,1.8674773
0.08782461,4.8747864,-0.091311105,-0.24654204,0.09500877,-1.4221559,-9.988609,1.8722657
0.0879977,4.87477,-0.091311105,-0.24654204,0.09500877,-1.4221559,-9.988609,1.8722657
0.08819515,4.874758,-0.076397404,-0.25719467,0.112053,-1.3263878,-9.974244,1.7669208
0.088392794,4.8747444,-0.076397404,-0.25719467,0.112053,-1.3263878,-9.974244,1.7669208
0.088594116,4.8747635,-0.05935317,-0.26465154,0.12803197,-1.2018893,-9.935937,1.7669208
0.08879646,4.8747826,-0.05935317,-0.26465154,0.12803197,-1.2018893,-9.935937,1.7669208
0.08897956,4.8748417,-0.045504734,-0.27104312,0.14294566,-1.1444284,-9.878476,1.8483237
0.0891625,4.8749013,-0.045504734,-0.27104312,0.14294566,-1.1444284,-9.878476,1.8483237
0.08935739,4.874975,-0.031656295,-0.27636945,0.1567941,-1.0869676,-9.864111,1.7956513
0.08955286,4.87505,-0.031656295,-0.27636945,0.1567941,-1.0869676,-9.864111,1.7956513
0.08973165,4.8751516,-0.017807856,-0.2774347,0.17277306,-1.0103531,-9.849746,1.8100165
0.089910276,4.8752537,-0.017807856,-0.2774347,0.17277306,-1.0103531,-9.849746,1.8100165
0.09004062,4.875376,-0.0039594183,-0.27849996,0.18555625,-0.8858546,-9.825804,1.8243817
0.09017109,4.8754997,-0.0039594183,-0.27849996,0.18555625,-0.8858546,-9.825804,1.8243817
0.090276614,4.8756304,0.008823755,-0.2774347,0.19727415,-0.80445176,-9.758766,1.8052281
0.09038142,4.875761,0.008823755,-0.2774347,0.19727415,-0.80445176,-9.758766,1.8052281
0.09046674,4.8758903,0.019476399,-0.27317366,0.20899206,-0.7422025,-9.691729,1.7621324
0.090551816,4.8760204,0.019476399,-0.27317366,0.20899206,-0.7422025,-9.691729,1.7621324
0.090633,4.876153,0.031194309,-0.26784733,0.21964471,-0.7230489,-9.667787,1.733402
0.090713516,4.8762856,0.031194309,-0.26784733,0.21964471,-0.7230489,-9.667787,1.733402
0.09078152,4.876408,0.040781688,-0.26145574,0.22923209,-0.6607997,-9.572019,1.6903064
0.09084898,4.87653,0.040781688,-0.26145574,0.22923209,-0.6607997,-9.572019,1.6903064
0.09091741,4.876652,0.049303804,-0.25186837,0.23562367,-0.60333884,-9.533711,1.685518
0.09098581,4.876774,0.049303804,-0.25186837,0.23562367,-0.60333884,-9.533711,1.685518
0.09105755,4.876898,0.05782592,-0.24121572,0.24094999,-0.60333884,-9.500193,1.6663644
0.091129154,4.877022,0.05782592,-0.24121572,0.24094999,-0.60333884,-9.500193,1.6663644
0.091204345,4.877142,0.06528277,-0.22843254,0.24840684,-0.5410896,-9.442732,1.6472107
0.091279335,4.877262,0.06528277,-0.22843254,0.24840684,-0.5410896,-9.442732,1.6472107
0.09135425,4.8773584,0.06954383,-0.21671464,0.25373316,-0.521936,-9.414001,1.5753847
0.091589265,4.8776608,0.073804885,-0.20499672,0.25799423,-0.4309563,-9.346964,1.5849615
0.091589265,4.8776608,0.073804885,-0.20499672,0.25799423,-0.4309563,-9.346964,1.5849615
0.091666915,4.87776,0.073804885,-0.20499672,0.25799423,-0.4309563,-9.346964,1.5849615
0.09168959,4.8777857,0.07700068,-0.19434407,0.26012474,-0.4261679,-9.289502,1.541866
0.09176071,4.8778663,0.07700068,-0.19434407,0.26012474,-0.4261679,-9.289502,1.541866
0.091858186,4.8779726,0.07913121,-0.18262617,0.26119003,-0.35434186,-9.232041,1.5275006
0.091936566,4.8780584,0.07913121,-0.18262617,0.26119003,-0.35434186,-9.232041,1.5275006
0.0920273,4.8781548,0.08019647,-0.17197353,0.26332054,-0.33518824,-9.184157,1.5275006
0.09212655,4.8782606,0.08019647,-0.17197353,0.26332054,-0.33518824,-9.184157,1.5275006
0.09222242,4.878324,0.08126174,-0.16238615,0.26332054,-0.29688102,-9.160215,1.388637
0.092320204,4.8783884,0.08126174,-0.16238615,0.26332054,-0.29688102,-9.160215,1.388637
0.09241888,4.8784666,0.082327,-0.15279876,0.26012474,-0.23942018,-9.045294,1.4030021
0.09250781,4.878537,0.082327,-0.15279876,0.26012474,-0.23942018,-9.045294,1.4030021
0.09260364,4.8785977,0.08339227,-0.14427665,0.2558637,-0.18195933,-8.987833,1.3120226
0.092700996,4.8786597,0.08339227,-0.14427665,0.2558637,-0.18195933,-8.987833,1.3120226
0.09279053,4.8787303,0.08339227,-0.13788506,0.25053737,-0.17717093,-8.916007,1.3503298
0.09288,4.878801,0.08339227,-0.13788506,0.25053737,-0.17717093,-8.916007,1.3503298
0.09296852,4.8788557,0.08019647,-0.13042821,0.2441458,-0.15322891,-8.872911,1.2785037
0.09296852,4.8788557,0.08019647,-0.13042821,0.2441458,-0.15322891,-8.872911,1.2785037
0.093151115,4.87897,0.08019647,-0.13042821,0.2441458,-0.15322891,-8.872911,1.2785037
0.09323208,4.879019,0.07700068,-0.122971356,0.2377542,-0.1340753,-8.882488,1.2689269
0.093309134,4.8790646,0.07273962,-0.11444924,0.22923209,-0.05746084,-8.872911,1.2449849
0.093386315,4.8791103,0.07273962,-0.11444924,0.22923209,-0.05746084,-8.872911,1.2449849
0.09345383,4.879154,0.06634804,-0.108057655,0.22070996,-0.07182605,-8.820239,1.2737153
0.09352139,4.8791976,0.06634804,-0.108057655,0.22070996,-0.07182605,-8.820239,1.2737153
0.09357898,4.879237,0.05995645,-0.10060081,0.21112259,-0.023942016,-8.7771435,1.2785037
0.09363688,4.879277,0.05995645,-0.10060081,0.21112259,-0.023942016,-8.7771435,1.2785037
0.0936835,4.879317,0.054630127,-0.093143955,0.20153521,0.038307227,-8.762778,1.3072342
0.09373053,4.879357,0.054630127,-0.093143955,0.20153521,0.038307227,-8.762778,1.3072342
0.09377696,4.879381,0.049303804,-0.0856871,0.19194783,0.05267244,-8.7771435,1.2258313
0.093817204,4.879402,0.049303804,-0.0856871,0.19194783,0.05267244,-8.7771435,1.2258313
0.093850724,4.8794203,0.043977484,-0.07609972,0.18129519,0.019153614,-8.738836,1.2401965
0.093884446,4.879438,0.043977484,-0.07609972,0.18129519,0.019153614,-8.738836,1.2401965
0.09391139,4.879444,0.03652063,-0.06757761,0.17170781,0.033518825,-8.743625,1.2162545
0.09393847,4.8794513,0.03652063,-0.06757761,0.17170781,0.033518825,-8.743625,1.2162545
0.09395449,4.8794475,0.027998514,-0.059055492,0.15892464,0.038307227,-8.7053175,1.2066777
0.09397053,4.879444,0.027998514,-0.059055492,0.15892464,0.038307227,-8.7053175,1.2066777
0.09397745,4.879431,0.020541664,-0.04946811,0.14720672,0.01436521,-8.7053175,1.2018893
0.093984365,4.8794174,0.020541664,-0.04946811,0.14720672,0.01436521,-8.7053175,1.2018893
0.09398862,4.879387,0.0141500775,-0.03988073,0.13655408,0.01436521,-8.690952,1.1204864
0.09399288,4.8793564,0.0141500775,-0.03988073,0.13655408,0.01436521,-8.690952,1.1204864
0.09398112,4.879331,0.0066932263,-0.029228088,0.1269667,0.0047884034,-8.676587,1.2306197
0.09396926,4.879306,0.0066932263,-0.029228088,0.1269667,0.0047884034,-8.676587,1.2306197
0.09395399,4.8792596,-0.0039594183,-0.018575443,0.11631405,0.019153614,-8.743625,1.163582
0.0939387,4.8792133,-0.0039594183,-0.018575443,0.11631405,0.019153614,-8.743625,1.163582
0.09390899,4.8791637,-0.014612063,-0.005792269,0.104596145,0.047884032,-8.75799,1.2258313
0.09387904,4.879114,-0.014612063,-0.005792269,0.104596145,0.047884032,-8.75799,1.2258313
0.0938374,4.8790493,-0.027395237,0.0069909045,0.089682445,0.0047884034,-8.78672,1.2306197
0.09379584,4.878984,-0.027395237,0.0069909045,0.089682445,0.0047884034,-8.78672,1.2306197
0.093737856,4.878912,-0.04017841,0.021904606,0.073703475,-0.04309563,-8.78672,1.292869
0.09367944,4.8788395,-0.04017841,0.021904606,0.073703475,-0.04309563,-8.78672,1.292869
0.093606345,4.878759,-0.05189632,0.037883572,0.05772451,-0.07182605,-8.863335,1.340753
0.093533166,4.8786783,-0.05189632,0.037883572,0.05772451,-0.07182605,-8.863335,1.340753
0.0934516,4.8785667,-0.06467949,0.05173201,0.03854975,-0.16759412,-8.882488,1.2641385
0.093369395,4.8784547,-0.06467949,0.05173201,0.03854975,-0.16759412,-8.882488,1.2641385
0.093274154,4.878327,-0.076397404,0.06664571,0.020440254,-0.272939,-8.920795,1.2880806
0.09317864,4.878199,-0.076397404,0.06664571,0.020440254,-0.272939,-8.920795,1.2880806
0.09308014,4.878046,-0.08705004,0.08155942,0.0033960221,-0.39264908,-8.930372,1.2641385
0.09298092,4.8778925,-0.08705004,0.08155942,0.0033960221,-0.39264908,-8.930372,1.2641385
0.09287905,4.8777175,-0.09876795,0.09327733,-0.01151768,-0.49799395,-8.992621,1.2785037
0.092777014,4.8775425,-0.09876795,0.09327733,-0.01151768,-0.49799395,-8.992621,1.2785037
0.09269198,4.87734,-0.1094206,0.104995236,-0.02323559,-0.5746084,-9.035717,1.2162545
0.09260625,4.877136,-0.1094206,0.104995236,-0.02323559,-0.5746084,-9.035717,1.2162545
0.09252273,4.8769155,-0.121138506,0.11351735,-0.033888236,-0.6464345,-9.083601,1.2449849
0.09243899,4.876695,-0.121138506,0.11351735,-0.033888236,-0.6464345,-9.083601,1.2449849
0.09237053,4.8764577,-0.13072589,0.12203947,-0.043475613,-0.7422025,-9.112331,1.2785037
0.09230152,4.876219,-0.13072589,0.12203947,-0.043475613,-0.7422025,-9.112331,1.2785037
0.09226876,4.875965,-0.14031327,0.12630053,-0.05199773,-0.8475474,-9.174581,1.1444284
0.092235945,4.875712,-0.14031327,0.12630053,-0.05199773,-0.8475474,-9.174581,1.1444284
0.09221631,4.8754506,-0.14883539,0.13056158,-0.056258786,-0.90979666,-9.184157,1.13964
0.09219677,4.875188,-0.14883539,0.13056158,-0.056258786,-0.90979666,-9.184157,1.13964
0.092176944,4.8749204,-0.15522698,0.13056158,-0.059454583,-0.91458505,-9.208099,1.1923125
0.09215733,4.874653,-0.15522698,0.13056158,-0.059454583,-0.91458505,-9.208099,1.1923125
0.09214164,4.874379,-0.16161856,0.12843105,-0.062650375,-0.9576807,-9.251195,1.1348516
0.0921261,4.8741055,-0.16161856,0.12843105,-0.062650375,-0.9576807,-9.251195,1.1348516
0.09210623,4.8738256,-0.16907541,0.12630053,-0.06691143,-0.9528923,-9.284714,1.1731589
0.09208654,4.873545,-0.16907541,0.12630053,-0.06691143,-0.9528923,-9.284714,1.1731589
0.092052445,4.8732576,-0.17653225,0.12203947,-0.07330302,-0.90979666,-9.217676,1.2210429
0.09201837,4.8729687,-0.17653225,0.12203947,-0.07330302,-0.90979666,-9.217676,1.2210429
0.09195475,4.872671,-0.18505438,0.117778406,-0.0828904,-0.8619126,-9.270349,1.2785037
0.09189133,4.872373,-0.18505438,0.117778406,-0.0828904,-0.8619126,-9.270349,1.2785037
0.09182329,4.8720665,-0.19570702,0.11564788,-0.095673576,-0.8762778,-9.260772,1.3072342
0.09175538,4.8717575,-0.19570702,0.11564788,-0.095673576,-0.8762778,-9.260772,1.3072342
0.09167854,4.8714404,-0.20635967,0.11458261,-0.11058728,-0.8810662,-9.251195,1.3359646
0.09160202,4.8711214,-0.20635967,0.11458261,-0.11058728,-0.8810662,-9.251195,1.3359646
0.09148585,4.8707895,-0.21914284,0.11245208,-0.1276315,-0.8475474,-9.3421755,1.2641385
0.09137005,4.870458,-0.21914284,0.11245208,-0.1276315,-0.8475474,-9.3421755,1.2641385
0.09124108,4.870115,-0.23192601,0.10819103,-0.14680627,-0.8619126,-9.361329,1.2545617
0.09111181,4.8697696,-0.23192601,0.10819103,-0.14680627,-0.8619126,-9.361329,1.2545617
0.09096542,4.8694143,-0.24364392,0.10392997,-0.16811156,-0.8762778,-9.433155,1.2545617
0.09081877,4.8690577,-0.24364392,0.10392997,-0.16811156,-0.8762778,-9.433155,1.2545617
0.090674035,4.8686924,-0.25536183,0.09966891,-0.19154738,-0.94331545,-9.461885,1.2401965
0.09053012,4.868327,-0.25536183,0.09966891,-0.19154738,-0.94331545,-9.461885,1.2401965
0.090437174,4.867983,-0.2660145,0.09647312,-0.21391793,-1.0821792,-9.437943,1.340753
0.09034477,4.8676376,-0.2660145,0.09647312,-0.21391793,-1.0821792,-9.437943,1.340753
0.09020129,4.867264,-0.27773237,0.090081535,-0.23415795,-1.0965444,-9.500193,1.2210429
0.09005851,4.8668895,-0.27773237,0.090081535,-0.23415795,-1.0965444,-9.500193,1.2210429
0.089874856,4.8665,-0.2862545,0.08155942,-0.2512022,-1.0295067,-9.572019,1.2018893
0.08969115,4.866109,-0.2862545,0.08155942,-0.2512022,-1.0295067,-9.572019,1.2018893
0.089467295,4.865709,-0.29264608,0.073037304,-0.26718116,-0.9768343,-9.586384,1.1013328
0.0892428,4.865307,-0.29264608,0.073037304,-0.26718116,-0.9768343,-9.586384,1.1013328
0.08900625,4.8649015,-0.2979724,0.06451519,-0.28316012,-0.9959879,-9.639056,1.1061212
0.08877005,4.864496,-0.2979724,0.06451519,-0.28316012,-0.9959879,-9.639056,1.1061212
0.0885107,4.8640866,-0.30329874,0.054927804,-0.30020434,-0.9528923,-9.586384,1.13964
0.088250175,4.863674,-0.30329874,0.054927804,-0.30020434,-0.9528923,-9.586384,1.13964
0.087980986,4.863254,-0.30649453,0.046405688,-0.31511804,-0.9959879,-9.639056,1.1492168
0.087724224,4.862852,-0.30649453,0.046405688,-0.31511804,-0.9959879,-9.639056,1.1492168
0.08744585,4.862436,-0.31075558,0.040014103,-0.331097,-0.9959879,-9.605537,1.1444284
0.08717231,4.8620253,-0.31075558,0.040014103,-0.331097,-0.9959879,-9.605537,1.1444284
0.086876325,4.8616095,-0.31395137,0.033622514,-0.347076,-0.9768343,-9.610326,1.13964
0.08657916,4.861191,-0.31395137,0.033622514,-0.347076,-0.9768343,-9.610326,1.13964
0.08626643,4.8607707,-0.31714717,0.026165664,-0.36198968,-1.0007763,-9.677363,1.0869676
0.085954785,4.8603506,-0.31714717,0.026165664,-0.36198968,-1.0007763,-9.677363,1.0869676
0.085632406,4.8599305,-0.32034296,0.019774077,-0.37796864,-1.0151415,-9.701305,1.1013328
0.085310355,4.8595095,-0.32034296,0.019774077,-0.37796864,-1.0151415,-9.701305,1.1013328
0.084954545,4.859082,-0.3224735,0.01551302,-0.39288235,-0.9624691,-9.744401,1.0390835
0.08459976,4.858656,-0.3224735,0.01551302,-0.39288235,-0.9624691,-9.744401,1.0390835
0.08423928,4.85823,-0.32353875,0.012317227,-0.40460026,-1.0055647,-9.811439,0.9959879
0.083877616,4.8578024,-0.32353875,0.012317227,-0.40460026,-1.0055647,-9.811439,0.9959879
0.08351738,4.8573766,-0.3256693,0.011251962,-0.41631818,-1.043872,-9.888053,1.0582372
0.08315872,4.8569517,-0.3256693,0.011251962,-0.41631818,-1.043872,-9.888053,1.0582372
0.082774274,4.8565235,-0.32460403,0.009121433,-0.42910135,-1.0007763,-9.883265,1.0151415
0.082774274,4.8565235,-0.32460403,0.009121433,-0.42910135,-1.0007763,-9.883265,1.0151415
0.08200279,4.8556623,-0.3256693,0.009121433,-0.44081926,-1.0199299,-9.902418,1.1109096
0.08163724,4.855252,-0.3256693,0.009121433,-0.44081926,-1.0199299,-9.902418,1.1109096
0.081239656,4.854828,-0.3256693,0.009121433,-0.45573297,-1.0007763,-9.883265,1.0726024
0.08084197,4.8544035,-0.3256693,0.009121433,-0.45573297,-1.0007763,-9.883265,1.0726024
0.080454364,4.8539877,-0.3256693,0.009121433,-0.4695814,-0.9528923,-9.821015,1.2354081
0.08006905,4.8535733,-0.3256693,0.009121433,-0.4695814,-0.9528923,-9.821015,1.2354081
0.07959994,4.853141,-0.32673454,0.010186698,-0.4908867,-0.81402856,-9.77792,1.2449849
0.07913455,4.8527083,-0.32673454,0.010186698,-0.4908867,-0.81402856,-9.77792,1.2449849
0.07848226,4.852355,-0.32993034,0.014447756,-0.52177936,-0.61291564,-9.701305,1.3503298
0.07782887,4.852004,-0.32993034,0.014447756,-0.52177936,-0.61291564,-9.701305,1.3503298
0.07713637,4.851656,-0.33312613,0.021904606,-0.5611941,-0.4165911,-9.552865,1.3263878
0.07644307,4.85131,-0.33312613,0.021904606,-0.5611941,-0.4165911,-9.552865,1.3263878
0.07570458,4.8509884,-0.33525667,0.033622514,-0.6133921,-0.34476504,-9.562442,1.4030021
0.07496656,4.850668,-0.33525667,0.033622514,-0.6133921,-0.34476504,-9.562442,1.4030021
0.074182875,4.850364,-0.33845246,0.049601484,-0.6741122,-0.29688102,-9.514558,1.4796166
0.07339933,4.8500614,-0.33845246,0.049601484,-0.6741122,-0.29688102,-9.514558,1.4796166
0.072544545,4.8497496,-0.34164825,0.06664571,-0.7454849,-0.18674773,-9.490616,1.4891934
0.07169048,4.8494387,-0.34164825,0.06664571,-0.7454849,-0.18674773,-9.490616,1.4891934
0.07076745,4.8491354,-0.3459093,0.08368994,-0.8296408,0.0047884034,-9.524135,1.6663644
0.06984516,4.848833,-0.3459093,0.08368994,-0.8296408,0.0047884034,-9.524135,1.6663644
0.06883073,4.84852,-0.35336617,0.10392997,-0.9244493,0.22026655,-9.528923,1.7669208
0.06781794,4.8482084,-0.35336617,0.10392997,-0.9244493,0.22026655,-9.528923,1.7669208
0.066703156,4.8478894,-0.36295354,0.12630053,-1.0363021,0.35434186,-9.457097,1.8914193
0.06558899,4.847572,-0.36295354,0.12630053,-1.0363021,0.35434186,-9.457097,1.8914193
0.064353354,4.847238,-0.37467146,0.15293214,-1.160938,0.49320555,-9.452309,1.9393034
0.06311825,4.8469057,-0.37467146,0.15293214,-1.160938,0.49320555,-9.452309,1.9393034
0.061745375,4.846553,-0.38958514,0.18275954,-1.3015529,0.6655881,-9.433155,1.982399
0.06037303,4.8462014,-0.38958514,0.18275954,-1.3015529,0.6655881,-9.433155,1.982399
0.058638502,4.8457727,-0.40662938,0.21152169,-1.4538858,0.866701,-9.385271,1.958457
0.058638502,4.8457727,-0.40662938,0.21152169,-1.4538858,0.866701,-9.385271,1.958457
0.055491652,4.8450027,-0.4236736,0.23708802,-1.6179365,1.0342951,-9.323022,1.8818425
0.05214548,4.844213,-0.44391364,0.26265436,-1.7958356,1.2497733,-9.23683,1.733402
0.05214548,4.844213,-0.44391364,0.26265436,-1.7958356,1.2497733,-9.23683,1.733402
0.05023588,4.8437715,-0.44391364,0.26265436,-1.7958356,1.2497733,-9.23683,1.733402
0.05023588,4.8437715,-0.44391364,0.26265436,-1.7958356,1.2497733,-9.23683,1.733402
0.04645909,4.8429303,-0.46415368,0.28502494,-1.9833221,1.3742718,-9.184157,1.6711528
0.04412048,4.8424187,-0.48865473,0.3031344,-2.184657,1.532289,-9.11712,1.541866
0.04195307,4.8419485,-0.48865473,0.3031344,-2.184657,1.532289,-9.11712,1.541866
0.039482903,4.841425,-0.5174169,0.31804812,-2.3966448,1.7621324,-9.083601,1.4939818
0.03701003,4.8409033,-0.5174169,0.31804812,-2.3966448,1.7621324,-9.083601,1.4939818
0.034320194,4.8403416,-0.54830956,0.32657024,-2.6182199,1.8818425,-9.11712,1.3311762
0.031328492,4.8397193,-0.54830956,0.32657024,-2.6182199,1.8818425,-9.11712,1.3311762
0.028752,4.839191,-0.58133274,0.32976604,-2.8472517,1.9967642,-9.083601,1.2162545
0.025833378,4.8385954,-0.58133274,0.32976604,-2.8472517,1.9967642,-9.083601,1.2162545
0.022678917,4.837959,-0.6164865,0.3276355,-3.0805445,2.0350714,-9.155427,1.1252748
0.01950828,4.837322,-0.6164865,0.3276355,-3.0805445,2.0350714,-9.155427,1.1252748
0.016138194,4.8366547,-0.6505749,0.3212439,-3.3095765,2.0398598,-9.313444,1.0582372
0.012754077,4.835987,-0.6505749,0.3212439,-3.3095765,2.0398598,-9.313444,1.0582372
0.0091450475,4.8352776,-0.6846634,0.309526,-3.5386083,2.0015526,-9.375694,0.90500826
0.0055318316,4.834571,-0.6846634,0.309526,-3.5386083,2.0015526,-9.375694,0.90500826
0.0016938617,4.833828,-0.71875185,0.29248178,-3.763379,2.0350714,-9.481039,0.8283938
6.2810407,4.833087,-0.71875185,0.29248178,-3.763379,2.0350714,-9.481039,0.8283938
6.2769833,4.832318,-0.74644876,0.27011123,-3.9817584,2.0159178,-9.662998,0.79008657
6.2729254,4.8315516,-0.74644876,0.27011123,-3.9817584,2.0159178,-9.662998,0.79008657
6.26865,4.83076,-0.7688193,0.2381533,-4.198007,2.1739352,-9.811439,0.6847417
6.2643743,4.8299713,-0.7688193,0.2381533,-4.198007,2.1739352,-9.811439,0.6847417
6.259883,4.8291655,-0.78160244,0.20086904,-4.4131904,2.456451,-9.89763,0.49320555
6.255391,4.828363,-0.78160244,0.20086904,-4.4131904,2.456451,-9.89763,0.49320555
6.2506814,4.8275585,-0.7858635,0.15506266,-4.626243,2.791639,-10.04607,0.4213795
6.245971,4.8267574,-0.7858635,0.15506266,-4.626243,2.791639,-10.04607,0.4213795
6.2410374,4.8259673,-0.783733,0.10925629,-4.842492,3.107674,-10.189722,0.51235914
6.2361083,4.825181,-0.783733,0.10925629,-4.842492,3.107674,-10.189722,0.51235914
6.2309375,4.8244004,-0.7805372,0.05918886,-5.068328,3.4237084,-10.371682,0.51235914
6.2257714,4.823623,-0.7805372,0.05918886,-5.068328,3.4237084,-10.371682,0.51235914
6.2203636,4.822852,-0.7773414,0.0069909045,-5.3048167,3.6391866,-10.386047,0.50278234
6.2149553,4.822084,-0.7773414,0.0069909045,-5.3048167,3.6391866,-10.386047,0.50278234
6.209296,4.8213196,-0.7762762,-0.050533377,-5.5498276,3.7493198,-10.572795,0.5506664
6.203637,4.820558,-0.7762762,-0.050533377,-5.5498276,3.7493198,-10.572795,0.5506664
6.197719,4.8198013,-0.77947193,-0.11338398,-5.80123,3.964798,-10.716447,0.7278373
6.1918,4.819047,-0.77947193,-0.11338398,-5.80123,3.964798,-10.716447,0.7278373
6.1856217,4.8182898,-0.783733,-0.18049563,-6.054763,4.036624,-10.960655,0.79008657
6.1794424,4.8175344,-0.783733,-0.18049563,-6.054763,4.036624,-10.960655,0.79008657
6.173004,4.8167715,-0.7869288,-0.25186837,-6.3082957,4.1611223,-11.046846,0.7422025
6.166565,4.816011,-0.7869288,-0.25186837,-6.3082957,4.1611223,-11.046846,0.7422025
6.1598682,4.8152394,-0.78905934,-0.32963267,-6.5607634,4.2185836,-11.209652,0.6464345
6.1531706,4.814469,-0.78905934,-0.32963267,-6.5607634,4.2185836,-11.209652,0.6464345
6.1462173,4.813686,-0.78905934,-0.41378856,-6.8111005,4.295198,-11.382035,0.521936
6.1392646,4.812904,-0.78905934,-0.41378856,-6.8111005,4.295198,-11.382035,0.521936
6.1320553,4.8121214,-0.78160244,-0.5085971,-7.058242,4.4436383,-11.386824,0.5363012
6.124846,4.8113394,-0.78160244,-0.5085971,-7.058242,4.4436383,-11.386824,0.5363012
6.117388,4.810552,-0.7720151,-0.60979724,-7.2989917,4.7261543,-11.501745,0.4405331
6.1099,4.809761,-0.7720151,-0.60979724,-7.2989917,4.7261543,-11.501745,0.4405331
6.101855,4.808941,-0.7560361,-0.71312785,-7.537611,5.1379566,-11.506534,0.37828386
6.0941954,4.808159,-0.7560361,-0.71312785,-7.537611,5.1379566,-11.506534,0.37828386
6.08651,4.807402,-0.73686135,-0.8207196,-7.7772956,5.755661,-11.501745,0.30645782
6.0785866,4.8066196,-0.73686135,-0.8207196,-7.7772956,5.755661,-11.501745,0.30645782
6.07038,4.8058405,-0.7176866,-0.92724603,-8.025502,6.4068837,-11.540052,0.35434186
6.062166,4.805057,-0.7176866,-0.92724603,-8.025502,6.4068837,-11.540052,0.35434186
6.0536747,4.8042765,-0.7027729,-1.0252503,-8.293949,6.967127,-11.525687,0.48362875
6.0452,4.8034925,-0.7027729,-1.0252503,-8.293949,6.967127,-11.525687,0.48362875
6.0363755,4.8026953,-0.6953161,-1.112602,-8.584766,7.4268136,-11.631032,0.5363012
6.027613,4.801899,-0.6953161,-1.112602,-8.584766,7.4268136,-11.631032,0.5363012
6.0184813,4.8010807,-0.6953161,-1.1903664,-8.894758,7.675811,-11.659762,0.5650316
6.009377,4.800259,-0.6953161,-1.1903664,-8.894758,7.675811,-11.659762,0.5650316
5.999943,4.7994094,-0.7027729,-1.2596085,-9.220729,7.551312,-11.832145,0.51714754
5.9904804,4.7985497,-0.7027729,-1.2596085,-9.220729,7.551312,-11.832145,0.51714754
5.9807286,4.7976565,-0.71662134,-1.3267202,-9.555222,7.3885064,-11.9135475,0.4261679
5.970997,4.7967567,-0.71662134,-1.3267202,-9.555222,7.3885064,-11.9135475,0.4261679
5.960868,4.7957935,-0.7336656,-1.3927666,-9.886519,6.943185,-12.0571995,0.10534488
5.950801,4.7948246,-0.7336656,-1.3927666,-9.886519,6.943185,-12.0571995,0.10534488
5.9403734,4.793788,-0.75284034,-1.4630741,-10.206099,6.3781533,-12.143391,-0.08140286
5.9299703,4.792739,-0.75284034,-1.4630741,-10.206099,6.3781533,-12.143391,-0.08140286
5.9192867,4.791622,-0.7698846,-1.5419036,-10.506503,5.932832,-12.330139,-0.20111294
5.908642,4.790492,-0.7698846,-1.5419036,-10.506503,5.932832,-12.330139,-0.20111294
5.897695,4.7892847,-0.78479826,-1.6292553,-10.779211,5.386954,-12.392388,-0.18674773
5.886826,4.7880664,-0.78479826,-1.6292553,-10.779211,5.386954,-12.392388,-0.18674773
5.87572,4.786785,-0.79332036,-1.7229986,-11.021026,4.7548847,-12.62702,-0.047884032
5.864661,4.7854934,-0.79332036,-1.7229986,-11.021026,4.7548847,-12.62702,-0.047884032
5.853446,4.784178,-0.79332036,-1.8231335,-11.227687,4.189853,-12.761095,0.20111294
5.842271,4.782851,-0.79332036,-1.8231335,-11.227687,4.189853,-12.761095,0.20111294
5.8308654,4.7814903,-0.78479826,-1.9307251,-11.401325,3.6774938,-12.804191,0.47405192
5.8195305,4.780117,-0.78479826,-1.9307251,-11.401325,3.6774938,-12.804191,0.47405192
5.8079867,4.7787013,-0.7688193,-2.0372515,-11.537679,3.3327289,-12.890382,0.81402856
5.796514,4.7772684,-0.7688193,-2.0372515,-11.537679,3.3327289,-12.890382,0.81402856
5.784862,4.7757797,-0.74857926,-2.1427128,-11.639944,3.1316159,-12.957419,1.0869676
5.773247,4.7742653,-0.74857926,-2.1427128,-11.639944,3.1316159,-12.957419,1.0869676
5.761552,4.772691,-0.72514343,-2.2503045,-11.713448,3.323152,-12.885593,1.2114661
5.749894,4.771086,-0.72514343,-2.2503045,-11.713448,3.323152,-12.885593,1.2114661
5.738111,4.76941,-0.6995771,-2.3568308,-11.76032,3.2369606,-12.885593,1.4891934
5.7263894,4.7677026,-0.6995771,-2.3568308,-11.76032,3.2369606,-12.885593,1.4891934
5.714595,4.765911,-0.670815,-2.4644227,-11.78269,2.9496565,-12.919112,1.5945383
5.702826,4.764079,-0.670815,-2.4644227,-11.78269,2.9496565,-12.919112,1.5945383
5.691048,4.762158,-0.63779175,-2.5847976,-11.786951,2.777274,-12.808979,1.757344
5.6793094,4.760194,-0.63779175,-2.5847976,-11.786951,2.777274,-12.808979,1.757344
5.667513,4.758117,-0.59731174,-2.7222166,-11.765646,2.3750482,-12.674904,2.1452048
5.6557918,4.755997,-0.59731174,-2.7222166,-11.765646,2.3750482,-12.674904,2.1452048
5.6440415,4.753742,-0.54617906,-2.8798757,-11.718774,1.685518,-12.23437,2.3942018
5.6323314,4.751431,-0.54617906,-2.8798757,-11.718774,1.685518,-12.23437,2.3942018
5.6207,4.748976,-0.48332843,-3.0599055,-11.637814,1.3503298,-11.903971,2.4516625
5.60911,4.746457,-0.48332843,-3.0599055,-11.637814,1.3503298,-11.903971,2.4516625
5.5975723,4.743764,-0.4119557,-3.2505877,-11.513178,0.93373865,-11.228806,2.5330653
5.5861006,4.7410026,-0.4119557,-3.2505877,-11.513178,0.93373865,-11.228806,2.5330653
5.5747504,4.7380576,-0.33525667,-3.4444659,-11.344866,0.61291564,-10.596737,2.6527755
5.5634327,4.735028,-0.33525667,-3.4444659,-11.344866,0.61291564,-10.596737,2.6527755
5.5523334,4.7318125,-0.2532313,-3.6351483,-11.131813,0.40701428,-9.792285,2.480393
5.541278,4.7285066,-0.2532313,-3.6351483,-11.131813,0.40701428,-9.792285,2.480393
5.530422,4.7249804,-0.17333646,-3.8226347,-10.872954,0.31603462,-8.829816,2.3750482
5.5196447,4.721365,-0.17333646,-3.8226347,-10.872954,0.31603462,-8.829816,2.3750482
5.50912,4.7175093,-0.09983322,-3.9994688,-10.57255,0.5602432,-7.953538,1.8626889
5.498642,4.7135444,-0.09983322,-3.9994688,-10.57255,0.5602432,-7.953538,1.8626889
5.4885135,4.709352,-0.041243672,-4.157128,-10.230599,0.9720459,-7.005434,1.5227122
5.4784527,4.7050514,-0.041243672,-4.157128,-10.230599,0.9720459,-7.005434,1.5227122
5.46872,4.7005005,0.005627962,-4.290286,-9.856691,1.7860745,-6.1243677,1.1252748
5.459065,4.69584,0.005627962,-4.290286,-9.856691,1.7860745,-6.1243677,1.1252748
5.4497604,4.690918,0.03652063,-4.3936167,-9.464674,2.6767175,-5.3342814,0.5315128
5.440571,4.685902,0.03652063,-4.3936167,-9.464674,2.6767175,-5.3342814,0.5315128
5.4317555,4.680647,0.051434334,-4.4500756,-9.053482,3.1986535,-4.841076,0.17238252
5.422964,4.6752434,0.051434334,-4.4500756,-9.053482,3.1986535,-4.841076,0.17238252
5.4146833,4.6696587,0.05036907,-4.456467,-8.628442,4.0078936,-4.4101195,-0.2681506
5.406307,4.6638436,0.05036907,-4.456467,-8.628442,4.0078936,-4.4101195,-0.2681506
5.3985023,4.657961,0.034390103,-4.4138565,-8.200206,4.783615,-4.074931,-0.33518824
5.3904076,4.6516733,0.034390103,-4.4138565,-8.200206,4.783615,-4.074931,-0.33518824
5.3830667,4.645649,0.008823755,-4.3403535,-7.779426,5.0613422,-3.572149,-0.90500826
5.37558,4.6393223,0.008823755,-4.3403535,-7.779426,5.0613422,-3.572149,-0.90500826
5.3684797,4.633004,-0.029525764,-4.2253046,-7.363973,5.755661,-3.3518825,-1.0773908
5.361398,4.626521,-0.029525764,-4.2253046,-7.363973,5.755661,-3.3518825,-1.0773908
5.354742,4.6201243,-0.08172372,-4.078298,-6.958107,6.2584434,-3.1555579,-1.0821792
5.348078,4.613542,-0.08172372,-4.078298,-6.958107,6.2584434,-3.1555579,-1.0821792
5.3418446,4.607095,-0.14244379,-3.9131823,-6.5714164,6.5696893,-2.906561,-1.0773908
5.3355923,4.6004558,-0.14244379,-3.9131823,-6.5714164,6.5696893,-2.906561,-1.0773908
5.329728,4.5939665,-0.2084902,-3.7406094,-6.2113566,7.1251445,-2.6288335,-1.043872
5.323888,4.5873394,-0.2084902,-3.7406094,-6.2113566,7.1251445,-2.6288335,-1.043872
5.318393,4.5808487,-0.28092816,-3.5605798,-5.876864,7.4268136,-2.1452048,-1.0869676
5.3128996,4.5741997,-0.28092816,-3.5605798,-5.876864,7.4268136,-2.1452048,-1.0869676
5.30775,4.5677695,-0.35869247,-3.3667016,-5.563676,7.4363904,-2.0446482,-0.80924016
5.3025913,4.561178,-0.35869247,-3.3667016,-5.563676,7.4363904,-2.0446482,-0.80924016
5.297741,4.5547853,-0.4364568,-3.1685624,-5.2792506,7.302315,-1.7764976,-0.866701
5.292887,4.5482445,-0.4364568,-3.1685624,-5.2792506,7.302315,-1.7764976,-0.866701
5.288298,4.541871,-0.51635164,-2.9704232,-5.0225215,7.699753,-1.2976574,-1.2976574
5.2837334,4.5353947,-0.51635164,-2.9704232,-5.0225215,7.699753,-1.2976574,-1.2976574
5.279401,4.529093,-0.6005075,-2.7733493,-4.794555,7.920019,-1.0199299,-1.7429788
5.2750645,4.5226545,-0.6005075,-2.7733493,-4.794555,7.920019,-1.0199299,-1.7429788
5.270934,4.5164323,-0.691055,-2.5720143,-4.5985465,8.0684595,-1.0007763,-1.9297266
5.266801,4.5100803,-0.691055,-2.5720143,-4.5985465,8.0684595,-1.0007763,-1.9297266
5.2628245,4.5039277,-0.7869288,-2.3706794,-4.432365,8.12592,-1.0007763,-2.0398598
5.2588687,4.4976883,-0.7869288,-2.3706794,-4.432365,8.12592,-1.0007763,-2.0398598
5.255039,4.491647,-0.88173735,-2.1736054,-4.293881,8.082825,-1.0582372,-2.1021092
5.2512064,4.4854856,-0.88173735,-2.1736054,-4.293881,8.082825,-1.0582372,-2.1021092
5.2512064,4.4854856,-0.88173735,-2.1736054,-4.293881,8.082825,-1.0582372,-2.1021092
5.2435365,4.473111,-0.97441536,-1.9861189,-4.1767015,7.9631147,-1.0534488,-2.0159178
5.2399635,4.4673405,-1.0564407,-1.8114156,-4.073371,7.9487495,-1.1348516,-1.9680338
5.2399635,4.4673405,-1.0564407,-1.8114156,-4.073371,7.9487495,-1.1348516,-1.9680338
5.2399635,4.4673405,-1.0564407,-1.8114156,-4.073371,7.9487495,-1.1348516,-1.9680338
5.2399635,4.4673405,-1.0564407,-1.8114156,-4.073371,7.9487495,-1.1348516,-1.9680338
5.2249556,4.4420686,-1.1832072,-1.4939667,-3.9018636,8.1642275,-1.4891934,-1.7286136
5.222149,4.4374223,-1.1832072,-1.4939667,-3.9018636,8.1642275,-1.4891934,-1.7286136
5.218644,4.4317656,-1.2258178,-1.3426992,-3.831556,8.030152,-1.8291701,-1.5179238
5.218644,4.4317656,-1.2258178,-1.3426992,-3.831556,8.030152,-1.8291701,-1.5179238
5.2119703,4.4209037,-1.2577757,-1.1978232,-3.7697706,7.9152308,-2.2218192,-1.3790601
5.208602,4.4154415,-1.2577757,-1.1978232,-3.7697706,7.9152308,-2.2218192,-1.3790601
5.2052336,4.410144,-1.2812115,-1.0657305,-3.7122464,7.651869,-2.585738,-1.1827357
5.201879,4.4047885,-1.2812115,-1.0657305,-3.7122464,7.651869,-2.585738,-1.1827357
5.1985497,4.399646,-1.299321,-0.9517471,-3.657918,7.4363904,-2.9400797,-1.0151415
5.1952252,4.3944364,-1.299321,-0.9517471,-3.657918,7.4363904,-2.9400797,-1.0151415
5.1919985,4.3895435,-1.3121042,-0.8590691,-3.6014588,7.120356,-3.3566709,-0.90021986
5.1887903,4.3846045,-1.3121042,-0.8590691,-3.6014588,7.120356,-3.3566709,-0.90021986
5.1857433,4.37982,-1.3174305,-0.7908922,-3.5386083,6.861782,-3.691859,-0.80445176
5.182706,4.374975,-1.3174305,-0.7908922,-3.5386083,6.861782,-3.691859,-0.80445176
5.1797905,4.3701687,-1.3153,-0.74934685,-3.4704313,6.564901,-3.9983168,-0.8619126
5.1768723,4.3652897,-1.3153,-0.74934685,-3.4704313,6.564901,-3.9983168,-0.8619126
5.1740484,4.3604455,-1.3046473,-0.73123735,-3.3905365,6.4499793,-4.2999864,-0.8714894
5.171235,4.3555527,-1.3046473,-0.73123735,-3.3905365,6.4499793,-4.2999864,-0.8714894
5.1685305,4.350668,-1.2844073,-0.7301721,-3.2925322,6.5457473,-4.5681367,-1.0247183
5.1658344,4.345732,-1.2844073,-0.7301721,-3.2925322,6.5457473,-4.5681367,-1.0247183
5.163254,4.340824,-1.2577757,-0.7397595,-3.1849406,6.6654577,-4.807557,-1.091756
5.1606817,4.335866,-1.2577757,-0.7397595,-3.1849406,6.6654577,-4.807557,-1.091756
5.158225,4.3309574,-1.2258178,-0.7546732,-3.0720224,6.9240313,-5.0661306,-1.067814
5.1557775,4.3259997,-1.2258178,-0.7546732,-3.0720224,6.9240313,-5.0661306,-1.067814
5.153452,4.3211,-1.1864029,-0.76745635,-2.9548433,7.1826053,-5.2624555,-1.1252748
5.1511345,4.316155,-1.1864029,-0.76745635,-2.9548433,7.1826053,-5.2624555,-1.1252748
5.148938,4.311291,-1.1437924,-0.77704376,-2.8355339,7.3071036,-5.439626,-1.091756
5.1467204,4.3063183,-1.1437924,-0.77704376,-2.8355339,7.3071036,-5.439626,-1.091756
5.144672,4.3015833,-1.0969207,-0.7813048,-2.7130284,7.536947,-5.5497594,-0.9720459
5.142608,4.2967525,-1.0969207,-0.7813048,-2.7130284,7.536947,-5.5497594,-0.9720459
5.140659,4.2920446,-1.0468533,-0.7813048,-2.5883925,7.690176,-5.616797,-0.8858546
5.1387157,4.2872934,-1.0468533,-0.7813048,-2.5883925,7.690176,-5.616797,-0.8858546
5.1368847,4.282693,-0.9946554,-0.77704376,-2.4648218,7.881712,-5.592855,-0.78050977
5.135064,4.278061,-0.9946554,-0.77704376,-2.4648218,7.881712,-5.592855,-0.78050977
5.1333456,4.2735834,-0.9413921,-0.76958686,-2.3455122,8.1163435,-5.616797,-0.641646
5.131631,4.269063,-0.9413921,-0.76958686,-2.3455122,8.1163435,-5.616797,-0.641646
5.130018,4.264705,-0.89025944,-0.75893426,-2.2293983,8.307879,-5.497087,-0.60812724
5.128413,4.260316,-0.89025944,-0.75893426,-2.2293983,8.307879,-5.497087,-0.60812724
5.126901,4.256097,-0.8369962,-0.7450858,-2.1164804,8.504205,-5.4444146,-0.50757074
5.125396,4.251848,-0.8369962,-0.7450858,-2.1164804,8.504205,-5.4444146,-0.50757074
5.1239715,4.2477646,-0.7858635,-0.72910684,-2.0142148,8.762778,-5.2959743,-0.47405192
5.122553,4.243655,-0.7858635,-0.72910684,-2.0142148,8.762778,-5.2959743,-0.47405192
5.121211,4.2397056,-0.73686135,-0.7120626,-1.9194063,8.944737,-5.12838,-0.5315128
5.1198764,4.235731,-0.73686135,-0.7120626,-1.9194063,8.944737,-5.12838,-0.5315128
5.1186113,4.2319236,-0.6889245,-0.68862677,-1.8331199,9.016563,-4.960786,-0.6607997
5.1173525,4.2280936,-0.6889245,-0.68862677,-1.8331199,9.016563,-4.960786,-0.6607997
5.1161485,4.2244186,-0.6452486,-0.66625625,-1.7553556,9.021352,-4.7788267,-0.61770403
5.1149487,4.2207217,-0.6452486,-0.66625625,-1.7553556,9.021352,-4.7788267,-0.61770403
5.1138105,4.2171726,-0.6005075,-0.6438857,-1.6829176,9.097966,-5.3342814,-0.25857377
5.112677,4.2136045,-0.6005075,-0.6438857,-1.6829176,9.097966,-5.3342814,-0.25857377
5.111614,4.210187,-0.5504401,-0.62364566,-1.6136755,8.743625,-5.118803,-0.63206923
5.110552,4.206738,-0.5504401,-0.62364566,-1.6136755,8.743625,-5.118803,-0.63206923
5.1095204,4.203485,-0.48758948,-0.6066014,-1.5412375,9.739613,-4.4436383,-0.94331545
5.1084914,4.2002096,-0.48758948,-0.6066014,-1.5412375,9.739613,-4.4436383,-0.94331545
5.107477,4.1970973,-0.4385873,-0.576774,-1.4592121,9.452309,-3.6056678,-1.2114661
5.1064677,4.1939716,-0.4385873,-0.576774,-1.4592121,9.452309,-3.6056678,-1.2114661
5.1055417,4.1910686,-0.40662938,-0.5384245,-1.3654689,9.313444,-3.7445314,-1.0821792
5.1046195,4.1881533,-0.40662938,-0.5384245,-1.3654689,9.313444,-3.7445314,-1.0821792
5.103742,4.1854157,-0.38638934,-0.50114024,-1.2685298,9.370906,-3.5434184,-0.9720459
5.102871,4.1826754,-0.38638934,-0.50114024,-1.2685298,9.370906,-3.5434184,-0.9720459
5.10205,4.180092,-0.36614934,-0.47344336,-1.1747864,9.662998,-3.4141316,-1.0199299
5.101233,4.177501,-0.36614934,-0.47344336,-1.1747864,9.662998,-3.4141316,-1.0199299
5.100449,4.175039,-0.3427135,-0.44468123,-1.0853043,10.04607,-3.1603463,-1.1492168
5.099663,4.1725497,-0.3427135,-0.44468123,-1.0853043,10.04607,-3.1603463,-1.1492168
5.098944,4.170288,-0.3192777,-0.4095275,-0.995822,10.213664,-3.107674,-1.1204864
5.0982246,4.168008,-0.3192777,-0.4095275,-0.995822,10.213664,-3.107674,-1.1204864
5.0975437,4.16591,-0.29477662,-0.3647864,-0.90847033,10.443508,-2.9257145,-1.1252748
5.0968657,4.163808,-0.29477662,-0.3647864,-0.90847033,10.443508,-2.9257145,-1.1252748
5.0962353,4.161948,-0.2660145,-0.3136537,-0.8253797,10.496181,-2.8921957,-1.0055647
5.0956063,4.160084,-0.2660145,-0.3136537,-0.8253797,10.496181,-2.8921957,-1.0055647
5.095011,4.158442,-0.2351218,-0.26039046,-0.7476154,10.31901,-2.7246015,-1.0199299
5.094418,4.1567984,-0.2351218,-0.26039046,-0.7476154,10.31901,-2.7246015,-1.0199299
5.0938406,4.1553025,-0.20422913,-0.20819251,-0.6709164,10.433931,-2.4133554,-1.3311762
5.093266,4.1538057,-0.20422913,-0.20819251,-0.6709164,10.433931,-2.4133554,-1.3311762
5.09272,4.1524696,-0.17866279,-0.16025561,-0.5974131,10.601525,-2.2697031,-1.541866
5.0921745,4.151131,-0.17866279,-0.16025561,-0.5974131,10.601525,-2.2697031,-1.541866
5.0916567,4.1499825,-0.15842277,-0.106992394,-0.53030145,10.769119,-2.2218192,-1.6663644
5.091139,4.148833,-0.15842277,-0.106992394,-0.53030145,10.769119,-2.2218192,-1.6663644
5.090638,4.1478558,-0.14244379,-0.048402846,-0.47064665,10.931925,-2.1404164,-1.8387469
5.090139,4.1468773,-0.14244379,-0.048402846,-0.47064665,10.931925,-2.1404164,-1.8387469
5.089656,4.146042,-0.13285641,0.014447756,-0.41738343,10.936713,-1.8243817,-2.0925324
5.0891714,4.1452026,-0.13285641,0.014447756,-0.41738343,10.936713,-1.8243817,-2.0925324
5.088696,4.144536,-0.13072589,0.08155942,-0.37264234,11.056423,-1.5466543,-2.27928
5.0882196,4.1438665,-0.13072589,0.08155942,-0.37264234,11.056423,-1.5466543,-2.27928
5.0877395,4.1433816,-0.139248,0.14867108,-0.33642334,11.133038,-1.316811,-2.2888567
5.0872583,4.142894,-0.139248,0.14867108,-0.33642334,11.133038,-1.316811,-2.2888567
5.0867634,4.142582,-0.15522698,0.216848,-0.3076612,10.994174,-1.2737153,-2.2122424
5.086269,4.142269,-0.15522698,0.216848,-0.3076612,10.994174,-1.2737153,-2.2122424
5.0857515,4.142123,-0.1722712,0.28182915,-0.2895517,10.879252,-1.2162545,-2.0590134
5.085235,4.141977,-0.1722712,0.28182915,-0.2895517,10.879252,-1.2162545,-2.0590134
5.0846996,4.1419415,-0.18825017,0.33828816,-0.27570325,10.529699,-1.2018893,-2.0733786
5.084166,4.141906,-0.18825017,0.33828816,-0.27570325,10.529699,-1.2018893,-2.0733786
5.0836105,4.141961,-0.19783755,0.38302925,-0.27250746,10.275913,-1.2497733,-2.030283
5.0830545,4.1420174,-0.19783755,0.38302925,-0.27250746,10.275913,-1.2497733,-2.030283
5.082484,4.142131,-0.20103334,0.418183,-0.27250746,9.9550905,-1.2306197,-2.054225
5.081912,4.142244,-0.20103334,0.418183,-0.27250746,9.9550905,-1.2306197,-2.054225
5.0813313,4.1423936,-0.20209861,0.44587985,-0.27250746,9.576807,-1.3072342,-2.111686
5.0807514,4.1425424,-0.20209861,0.44587985,-0.27250746,9.576807,-1.3072342,-2.111686
5.080181,4.1426992,-0.20316388,0.4629241,-0.26718116,9.126697,-1.3503298,-2.2266076
5.07961,4.1428566,-0.20316388,0.4629241,-0.26718116,9.126697,-1.3503298,-2.2266076
5.0790563,4.143011,-0.2052944,0.4661199,-0.25865903,8.820239,-1.4077905,-2.303222
5.078454,4.1431794,-0.2052944,0.4661199,-0.25865903,8.820239,-1.4077905,-2.303222
5.0779696,4.143317,-0.2084902,0.4597283,-0.24268007,8.590396,-1.5849615,-2.3223755
5.0774612,4.1434617,-0.2084902,0.4597283,-0.24268007,8.590396,-1.5849615,-2.3223755
5.076969,4.143605,-0.21275125,0.44587985,-0.22137478,8.552089,-1.6472107,-2.27928
5.076481,4.1437483,-0.21275125,0.44587985,-0.22137478,8.552089,-1.6472107,-2.27928
5.0760183,4.1438847,-0.21594705,0.42883563,-0.19793896,8.590396,-1.7381904,-2.2744915
5.0755568,4.1440215,-0.21594705,0.42883563,-0.19793896,8.590396,-1.7381904,-2.2744915
5.0751114,4.1441708,-0.21807757,0.40966088,-0.17024209,8.714894,-1.8770541,-2.087744
5.074668,4.1443195,-0.21807757,0.40966088,-0.17024209,8.714894,-1.8770541,-2.087744
5.074263,4.1444716,-0.22020811,0.3936819,-0.13934942,8.724471,-2.0111294,-2.0733786
5.07386,4.1446247,-0.22020811,0.3936819,-0.13934942,8.724471,-2.0111294,-2.0733786
5.0735006,4.144781,-0.22127336,0.37983346,-0.108456746,8.7292595,-2.1164744,-2.1021092
5.0731416,4.1449375,-0.22127336,0.37983346,-0.108456746,8.7292595,-2.1164744,-2.1021092
5.072815,4.1451035,-0.2234039,0.36491975,-0.078629345,8.839393,-2.27928,-2.0494366
5.0724897,4.1452694,-0.2234039,0.36491975,-0.078629345,8.839393,-2.27928,-2.0494366
5.072229,4.1454473,-0.2234039,0.35213658,-0.046671405,8.925584,-2.4372973,-2.1452048
5.071969,4.145624,-0.2234039,0.35213658,-0.046671405,8.925584,-2.4372973,-2.1452048
5.0717163,4.1458273,-0.22233863,0.34041867,-0.015778739,9.064447,-2.60968,-1.9776106
5.0714655,4.1460304,-0.22233863,0.34041867,-0.015778739,9.064447,-2.60968,-1.9776106
5.0712023,4.1463003,-0.21914284,0.32976604,0.014048667,9.155427,-2.6862943,-1.8818425
5.070941,4.146569,-0.21914284,0.32976604,0.014048667,9.155427,-2.6862943,-1.8818425
5.070742,4.1468287,-0.21488178,0.3223092,0.04387607,9.050082,-2.566584,-1.9632454
5.070545,4.1470885,-0.21488178,0.3223092,0.04387607,9.050082,-2.566584,-1.9632454
5.070382,4.1473703,-0.20955546,0.31378707,0.07050768,8.805874,-2.633622,-1.8531121
5.0702214,4.147652,-0.20955546,0.31378707,0.07050768,8.805874,-2.633622,-1.8531121
5.070009,4.1481323,-0.2084902,0.29674283,0.09181297,8.90643,-2.6623523,-1.7381904
5.069799,4.148608,-0.2084902,0.29674283,0.09181297,8.90643,-2.6623523,-1.7381904
5.069641,4.1492987,-0.20422913,0.27437228,0.10779194,8.935161,-2.801216,-1.757344
5.069481,4.1499734,-0.20422913,0.27437228,0.10779194,8.935161,-2.801216,-1.757344
5.069579,4.1506653,-0.19570702,0.253067,0.12164038,8.959103,-2.96881,-1.8148049
5.0696774,4.1513495,-0.19570702,0.253067,0.12164038,8.959103,-2.96881,-1.8148049
5.0697613,4.152158,-0.18505438,0.23389223,0.13335828,9.083601,-3.193865,-1.7429788
5.069847,4.152962,-0.18505438,0.23389223,0.13335828,9.083601,-3.193865,-1.7429788
5.069969,4.153726,-0.17120594,0.21897852,0.14614145,9.131485,-3.2752678,-1.8004397
5.070091,4.1544867,-0.17120594,0.21897852,0.14614145,9.131485,-3.2752678,-1.8004397
5.0702333,4.1552463,-0.15309644,0.2051301,0.15892464,9.006987,-3.4620156,-1.7812861
5.070376,4.156003,-0.15309644,0.2051301,0.15892464,9.006987,-3.4620156,-1.7812861
5.070534,4.1567845,-0.13072589,0.19021639,0.17383833,8.911219,-3.5529952,-1.7238252
5.0706925,4.1575623,-0.13072589,0.19021639,0.17383833,8.911219,-3.5529952,-1.7238252
5.0708795,4.158337,-0.107290074,0.16997637,0.18981731,8.825027,-3.5051112,-1.7238252
5.0710664,4.1591096,-0.107290074,0.16997637,0.18981731,8.825027,-3.5051112,-1.7238252
5.0712805,4.1598916,-0.08491952,0.14547528,0.21325313,8.743625,-3.3901896,-1.6807296
5.071775,4.1615124,-0.06467949,0.11564788,0.24201526,8.561666,-3.4380736,-1.6424223
5.071775,4.1615124,-0.06467949,0.11564788,0.24201526,8.561666,-3.4380736,-1.6424223
5.071775,4.1615124,-0.06467949,0.11564788,0.24201526,8.561666,-3.4380736,-1.6424223
5.0722857,4.1630445,-0.06467949,0.11564788,0.24201526,8.561666,-3.4380736,-1.6424223
5.072563,4.163748,-0.04443947,0.08155942,0.27610373,8.614338,-3.4524388,-1.6328455
5.0729413,4.1645584,-0.025264706,0.045340426,0.313388,8.686164,-3.442862,-1.6472107
5.0729413,4.1645584,-0.025264706,0.045340426,0.313388,8.686164,-3.442862,-1.6472107
5.073647,4.1660643,-0.025264706,0.045340426,0.313388,8.686164,-3.442862,-1.6472107
5.074034,4.1666937,-0.0018288894,0.010186698,0.35706383,8.714894,-3.442862,-1.7764976
5.0745153,4.167418,0.02160693,-0.021771235,0.40713125,8.78672,-3.3758245,-1.757344
5.0749965,4.16814,0.02160693,-0.021771235,0.40713125,8.78672,-3.3758245,-1.757344
5.0755486,4.168832,0.04610801,-0.051598642,0.46145973,8.887277,-3.3279405,-1.8435353
5.0761013,4.1695213,0.04610801,-0.051598642,0.46145973,8.887277,-3.3279405,-1.8435353
5.0767207,4.170182,0.07060909,-0.079295516,0.5200493,8.925584,-3.2082303,-1.8770541
5.0773373,4.1708364,0.07060909,-0.079295516,0.5200493,8.925584,-3.2082303,-1.8770541
5.0779977,4.1713777,0.09617544,-0.10486186,0.58289987,9.011775,-3.0885203,-1.934515
5.078659,4.171914,0.09617544,-0.10486186,0.58289987,9.011775,-3.0885203,-1.934515
5.079346,4.1724033,0.12174179,-0.12829769,0.6489463,9.030929,-3.0071173,-1.958457
5.0800314,4.172886,0.12174179,-0.12829769,0.6489463,9.030929,-3.0071173,-1.958457
5.0807257,4.1733613,0.1451776,-0.14747244,0.7171232,8.983045,-2.801216,-2.078167
5.081418,4.173834,0.1451776,-0.14747244,0.7171232,8.983045,-2.801216,-2.078167
5.08219,4.174388,0.1664829,-0.16558194,0.7895612,8.959103,-2.815581,-2.111686
5.0829597,4.174938,0.1664829,-0.16558194,0.7895612,8.959103,-2.815581,-2.111686
5.08379,4.1755586,0.18565765,-0.18262617,0.86626023,9.030929,-2.7485435,-2.1739352
5.0846195,4.176176,0.18565765,-0.18262617,0.86626023,9.030929,-2.7485435,-2.1739352
5.085508,4.176873,0.20589767,-0.19860514,0.9461551,9.174581,-2.7246015,-2.1930888
5.086396,4.177568,0.20589767,-0.19860514,0.9461551,9.174581,-2.7246015,-2.1930888
5.087337,4.1783514,0.2261377,-0.21351884,1.0260499,9.375694,-2.6910827,-2.1883004
5.0882764,4.179132,0.2261377,-0.21351884,1.0260499,9.375694,-2.6910827,-2.1883004
5.089281,4.18,0.24531247,-0.22630201,1.1016836,9.610326,-2.72939,-2.231396
5.090284,4.1808643,0.24531247,-0.22630201,1.1016836,9.610326,-2.72939,-2.231396
5.0913496,4.181831,0.26448724,-0.23375887,1.1783828,9.768343,-2.767697,-2.231396
5.092413,4.1827936,0.26448724,-0.23375887,1.1783828,9.768343,-2.767697,-2.231396
5.0935345,4.18386,0.28153145,-0.23801991,1.251886,9.911995,-2.873042,-2.2026656
5.094655,4.1849213,0.28153145,-0.23801991,1.251886,9.911995,-2.873042,-2.2026656
5.095794,4.1861935,0.30283675,-0.23801991,1.3232586,10.031705,-3.1890767,-2.006341
5.0969334,4.18746,0.30283675,-0.23801991,1.3232586,10.031705,-3.1890767,-2.006341
5.0981436,4.189093,0.3284031,-0.23056307,1.3935661,10.6158905,-3.3518825,-1.8052281
5.099354,4.1907115,0.3284031,-0.23056307,1.3935661,10.6158905,-3.3518825,-1.8052281
5.1006308,4.192531,0.35929576,-0.21032305,1.4660041,10.524911,-3.466804,-1.8052281
5.1019087,4.194336,0.35929576,-0.21032305,1.4660041,10.524911,-3.466804,-1.8052281
5.1032763,4.196411,0.39231896,-0.17729984,1.5405726,10.247183,-3.5290532,-1.6232687
5.10464,4.1984653,0.39231896,-0.17729984,1.5405726,10.247183,-3.5290532,-1.6232687
5.1060224,4.20064,0.42321163,-0.14427665,1.6172717,10.0987425,-3.4620156,-1.6567876
5.1074204,4.2028217,0.42321163,-0.14427665,1.6172717,10.0987425,-3.4620156,-1.6567876
5.1088643,4.2051396,0.4509085,-0.11444924,1.7003623,9.696517,-3.3039982,-1.6663644
5.110306,4.2074327,0.4509085,-0.11444924,1.7003623,9.696517,-3.3039982,-1.6663644
5.1118517,4.209956,0.4722138,-0.09207869,1.787714,9.346964,-3.2561142,-1.1731589
5.1133976,4.2124577,0.4722138,-0.09207869,1.787714,9.346964,-3.2561142,-1.1731589
5.114997,4.2150373,0.48925802,-0.08036078,1.8771962,9.476251,-3.0550013,-1.13964
5.1165953,4.217592,0.48925802,-0.08036078,1.8771962,9.476251,-3.0550013,-1.13964
5.1182365,4.2199926,0.505237,-0.07609972,1.9677436,9.615114,-2.753332,-1.8148049
5.119878,4.2223725,0.505237,-0.07609972,1.9677436,9.615114,-2.753332,-1.8148049
5.12164,4.224731,0.5148244,-0.06757761,2.0582912,9.749189,-2.906561,-2.255338
5.123402,4.2270694,0.5148244,-0.06757761,2.0582912,9.749189,-2.906561,-2.255338
5.125253,4.229503,0.5126938,-0.052663904,2.1477733,9.849746,-2.930503,-2.3894134
5.127102,4.2319136,0.5126938,-0.052663904,2.1477733,9.849746,-2.930503,-2.3894134
5.1290555,4.2344413,0.5009759,-0.030293351,2.2415166,9.758766,-3.0214825,-2.4612393
5.13117,4.237152,0.5009759,-0.030293351,2.2415166,9.758766,-3.0214825,-2.4612393
5.1330585,4.239614,0.4807359,-0.00366174,2.33526,9.773131,-3.0550013,-2.336741
5.1350145,4.2421427,0.4807359,-0.00366174,2.33526,9.773131,-3.0550013,-2.336741
5.137072,4.244833,0.45197377,0.028296193,2.423677,9.739613,-2.9640217,-2.3080103
5.1391344,4.2475038,0.45197377,0.028296193,2.423677,9.739613,-2.9640217,-2.3080103
5.141245,4.25033,0.4178853,0.06451519,2.5120938,9.610326,-2.9735985,-2.0494366
5.143343,4.2531104,0.4178853,0.06451519,2.5120938,9.610326,-2.9735985,-2.0494366
5.1455035,4.25606,0.38060105,0.102864705,2.6005108,9.605537,-3.1651347,-1.8770541
5.147611,4.258905,0.38060105,0.102864705,2.6005108,9.605537,-3.1651347,-1.8770541
5.149832,4.261916,0.34118626,0.1390837,2.6867971,9.423578,-3.1268275,-1.8004397
5.1521235,4.2649856,0.34118626,0.1390837,2.6867971,9.423578,-3.1268275,-1.8004397
5.1544194,4.268111,0.30283675,0.16997637,2.7730837,9.461885,-3.4045548,-1.70946
5.1567082,4.271185,0.30283675,0.16997637,2.7730837,9.461885,-3.4045548,-1.70946
5.159081,4.274287,0.26768303,0.19447745,2.8583047,9.3182335,-3.3758245,-1.7669208
5.161465,4.277363,0.26768303,0.19447745,2.8583047,9.3182335,-3.3758245,-1.7669208
5.163912,4.280507,0.23679034,0.2083259,2.9392648,9.442732,-3.5625722,-1.7286136
5.1663604,4.283608,0.23679034,0.2083259,2.9392648,9.442732,-3.5625722,-1.7286136
5.168893,4.2867994,0.21228927,0.21471748,3.0180945,9.433155,-3.715801,-1.6519991
5.1714277,4.289946,0.21228927,0.21471748,3.0180945,9.433155,-3.715801,-1.6519991
5.1740546,4.293182,0.19098398,0.21791327,3.0958588,9.595961,-3.9600096,-1.5801731
5.176712,4.296406,0.19098398,0.21791327,3.0958588,9.595961,-3.9600096,-1.5801731
5.1794243,4.299624,0.175005,0.21578273,3.169362,9.528923,-4.0940847,-1.6184803
5.1821346,4.3027897,0.175005,0.21578273,3.169362,9.528923,-4.0940847,-1.6184803
5.1849465,4.3060193,0.1632871,0.21365221,3.2407348,9.572019,-4.343082,-1.6328455
5.187769,4.3092127,0.1632871,0.21365221,3.2407348,9.572019,-4.343082,-1.6328455
5.1906934,4.3124514,0.15583025,0.21365221,3.3163686,9.351752,-4.4101195,-1.6663644
5.193611,4.3156395,0.15583025,0.21365221,3.3163686,9.351752,-4.4101195,-1.6663644
5.1966915,4.3188896,0.15156919,0.21578273,3.395198,9.279925,-4.721366,-1.5753847
5.1997685,4.3220973,0.15156919,0.21578273,3.395198,9.279925,-4.721366,-1.5753847
5.2029734,4.3253274,0.15476498,0.2200438,3.4814844,8.983045,-4.7070007,-1.6280571
5.206175,4.3285184,0.15476498,0.2200438,3.4814844,8.983045,-4.7070007,-1.6280571
5.2094865,4.3317375,0.16222183,0.22430485,3.576293,8.801085,-4.654328,-1.6472107
5.2127953,4.334919,0.16222183,0.22430485,3.576293,8.801085,-4.654328,-1.6472107
5.216179,4.3381577,0.17393975,0.23389223,3.6785583,8.858546,-4.7884035,-1.5562311
5.2195663,4.341361,0.17393975,0.23389223,3.6785583,8.858546,-4.7884035,-1.5562311
5.2231245,4.344554,0.19417977,0.2498712,3.7861502,8.781932,-4.721366,-1.757344
5.226686,4.3477077,0.19417977,0.2498712,3.7861502,8.781932,-4.721366,-1.757344
5.2303753,4.3508763,0.22187665,0.27224174,3.8958724,8.825027,-4.817134,-1.8100165
5.2340584,4.3539667,0.22187665,0.27224174,3.8958724,8.825027,-4.817134,-1.8100165
5.2378006,4.3570137,0.25703037,0.2978081,4.0045295,8.820239,-4.8745947,-1.9153614
5.241535,4.359992,0.25703037,0.2978081,4.0045295,8.820239,-4.8745947,-1.9153614
5.245425,4.3632493,0.29751042,0.3308313,4.1142516,8.805874,-4.9943047,-1.8243817
5.2493057,4.366415,0.29751042,0.3308313,4.1142516,8.805874,-4.9943047,-1.8243817
5.253297,4.3697143,0.3433168,0.36598504,4.2218432,8.738836,-5.118803,-1.8531121
5.2572775,4.372928,0.3433168,0.36598504,4.2218432,8.738836,-5.118803,-1.8531121
5.2613297,4.376456,0.39338422,0.40113875,4.3273044,8.686164,-5.233725,-1.6807296
5.2653823,4.379939,0.39338422,0.40113875,4.3273044,8.686164,-5.233725,-1.6807296
5.2695117,4.383542,0.44451693,0.43203142,4.4327655,8.7292595,-5.281609,-1.661576
5.2735868,4.3870635,0.44451693,0.43203142,4.4327655,8.7292595,-5.281609,-1.661576
5.2778597,4.3906612,0.49458435,0.45759776,4.5382266,8.556877,-5.3486466,-1.6807296
5.2821913,4.394257,0.49458435,0.45759776,4.5382266,8.556877,-5.3486466,-1.6807296
5.2864947,4.397936,0.541456,0.47677252,4.6458187,8.78672,-5.5497594,-1.5275006
5.2907696,4.401544,0.541456,0.47677252,4.6458187,8.78672,-5.5497594,-1.5275006
5.29518,4.4052353,0.5861971,0.49062097,4.7587366,8.566454,-5.4444146,-1.5370775
5.2996016,4.408893,0.5861971,0.49062097,4.7587366,8.566454,-5.4444146,-1.5370775
5.304133,4.4125977,0.6298729,0.50553465,4.876981,8.595184,-5.6551046,-1.3790601
5.308641,4.4162326,0.6298729,0.50553465,4.876981,8.595184,-5.6551046,-1.3790601
5.3132353,4.4199347,0.6756793,0.5257747,4.998421,9.078813,-5.7987566,-1.2354081
5.3178177,4.4235697,0.6756793,0.5257747,4.998421,9.078813,-5.7987566,-1.2354081
5.3225093,4.4272842,0.726812,0.5545368,5.123057,9.102755,-5.7125654,-1.3120226
5.327223,4.430953,0.726812,0.5545368,5.123057,9.102755,-5.7125654,-1.3120226
5.331969,4.4346447,0.78646684,0.5950169,5.2455626,9.294291,-5.6407394,-1.3838485
5.336909,4.4384184,0.78646684,0.5950169,5.2455626,9.294291,-5.6407394,-1.3838485
5.341577,4.4420085,0.85464376,0.6493454,5.3595457,9.581595,-5.861006,-1.5562311
5.3464456,4.4456873,0.85464376,0.6493454,5.3595457,9.581595,-5.861006,-1.5562311
5.3514147,4.449549,0.9302775,0.71965283,5.465007,9.797073,-6.1004257,-1.4652514
5.356394,4.45335,0.9302775,0.71965283,5.465007,9.797073,-6.1004257,-1.4652514
5.361429,4.4572687,1.0101724,0.7995477,5.5598154,9.662998,-6.129156,-1.5753847
5.3664713,4.4611225,1.0101724,0.7995477,5.5598154,9.662998,-6.129156,-1.5753847
5.3715897,4.46513,1.0921977,0.88476884,5.6482325,9.533711,-6.339846,-1.6424223
5.376716,4.4690714,1.0921977,0.88476884,5.6482325,9.533711,-6.339846,-1.6424223
5.3819113,4.473174,1.1742231,0.9710552,5.731323,9.44752,-6.6175733,-1.661576
5.38711,4.4772034,1.1742231,0.9710552,5.731323,9.44752,-6.6175733,-1.661576
5.3924007,4.4814453,1.2509221,1.05095,5.8144135,9.428367,-6.8282633,-1.5275006
5.3977,4.4856143,1.2509221,1.05095,5.8144135,9.428367,-6.8282633,-1.5275006
5.4030776,4.4899397,1.3222948,1.1265838,5.895374,9.442732,-7.0820484,-1.4748282
5.4084616,4.4941897,1.3222948,1.1265838,5.895374,9.442732,-7.0820484,-1.4748282
5.413945,4.498591,1.3904717,1.1990218,5.977399,9.720459,-7.297527,-1.3120226
5.4194207,4.5029097,1.3904717,1.1990218,5.977399,9.720459,-7.297527,-1.3120226
5.4250317,4.5074024,1.4575834,1.2735903,6.054098,9.648633,-7.675811,-1.0390835
5.430632,4.511817,1.4575834,1.2735903,6.054098,9.648633,-7.675811,-1.0390835
5.43635,4.516373,1.5278909,1.3524199,6.1254706,9.495404,-7.97748,-0.7374141
5.4420595,4.520854,1.5278909,1.3524199,6.1254706,9.495404,-7.97748,-0.7374141
5.447857,4.5254602,1.6035247,1.4301842,6.198974,9.667787,-8.279149,-0.5410896
5.4536486,4.529991,1.6035247,1.4301842,6.198974,9.667787,-8.279149,-0.5410896
5.459535,4.5346603,1.6908764,1.510079,6.271412,9.672575,-8.604761,-0.39264908
5.4654155,4.539255,1.6908764,1.510079,6.271412,9.672575,-8.604761,-0.39264908
5.471373,4.543993,1.7867501,1.5974307,6.342785,9.682152,-8.772355,-0.33518824
5.477295,4.5486326,1.7867501,1.5974307,6.342785,9.682152,-8.772355,-0.33518824
5.4833436,4.553454,1.8879503,1.6869129,6.413092,9.56723,-8.983045,-0.38307226
5.4894404,4.5582433,1.8879503,1.6869129,6.413092,9.56723,-8.983045,-0.38307226
5.4955664,4.563134,1.9902157,1.77533,6.480204,9.375694,-9.093178,-0.41180268
5.501667,4.567935,1.9902157,1.77533,6.480204,9.375694,-9.093178,-0.41180268
5.501667,4.567935,1.9902157,1.77533,6.480204,9.375694,-9.093178,-0.41180268
5.5143995,4.578039,2.091416,1.8626816,6.549446,9.275137,-9.150639,-0.5267244
5.5143995,4.578039,2.091416,1.8626816,6.549446,9.275137,-9.150639,-0.5267244
5.526984,4.5880055,2.1915507,1.9436417,6.624015,9.3182335,-9.270349,-0.35913026
5.5330925,4.5928626,2.2874243,2.0160797,6.7007136,9.691729,-9.26556,-0.320823
5.539638,4.5979915,2.2874243,2.0160797,6.7007136,9.691729,-9.26556,-0.320823
5.539638,4.5979915,2.2874243,2.0160797,6.7007136,9.691729,-9.26556,-0.320823
5.5525064,4.608071,2.3790371,2.0842566,6.767825,10.060435,-9.14585,-0.32561144
5.5525064,4.608071,2.3790371,2.0842566,6.767825,10.060435,-9.14585,-0.32561144
5.5661488,4.6186543,2.466389,2.1492376,6.8221536,10.376471,-9.064447,-0.33518824
5.5726323,4.623685,2.55161,2.2163494,6.860503,10.55843,-8.916007,-0.32561144
5.5787497,4.6283636,2.55161,2.2163494,6.860503,10.55843,-8.916007,-0.32561144
5.584866,4.6331005,2.6357658,2.2887874,6.882874,10.577583,-8.78672,-0.33997664
5.591151,4.637901,2.6357658,2.2887874,6.882874,10.577583,-8.78672,-0.33997664
5.597718,4.642981,2.7145956,2.3654864,6.890331,10.515334,-8.532935,-0.40222588
5.6042986,4.648,2.7145956,2.3654864,6.890331,10.515334,-8.532935,-0.40222588
5.61087,4.653083,2.7902293,2.444316,6.88607,10.19451,-8.336611,-0.4405331
5.617468,4.658115,2.7902293,2.444316,6.88607,10.19451,-8.336611,-0.4405331
5.624082,4.6632214,2.861602,2.5220802,6.8796782,9.801862,-7.953538,-0.5602432
5.6306973,4.668258,2.861602,2.5220802,6.8796782,9.801862,-7.953538,-0.5602432
5.6376834,4.673631,2.9287136,2.5945182,6.874352,9.299079,-7.565677,-0.63206923
5.644035,4.6784496,2.9287136,2.5945182,6.874352,9.299079,-7.565677,-0.63206923
5.644035,4.6784496,2.9287136,2.5945182,6.874352,9.299079,-7.565677,-0.63206923
5.657339,4.688573,2.990499,2.66163,6.8775477,8.815451,-7.1347213,-0.5554548
5.6639605,4.6936026,3.0480232,2.7212846,6.8935266,8.413225,-6.7803793,-0.50757074
5.670643,4.6986136,3.0480232,2.7212846,6.8935266,8.413225,-6.7803793,-0.50757074
5.6773987,4.703672,3.1002212,2.7777438,6.9244194,8.0684595,-6.4547677,-0.6799533
5.6841755,4.708682,3.1002212,2.7777438,6.9244194,8.0684595,-6.4547677,-0.6799533
5.6909776,4.713699,3.148158,2.831007,6.96916,7.776367,-6.2009826,-0.6607997
5.6978483,4.718703,3.148158,2.831007,6.96916,7.776367,-6.2009826,-0.6607997
5.7047634,4.7236915,3.1907687,2.8864007,7.0266848,7.249643,-6.2105594,-0.89543146
5.7117,4.7286344,3.1907687,2.8864007,7.0266848,7.249643,-6.2105594,-0.89543146
5.7187266,4.73359,3.2269876,2.9428596,7.096992,6.813898,-6.220136,-0.93852705
5.725767,4.738496,3.2269876,2.9428596,7.096992,6.813898,-6.220136,-0.93852705
5.732922,4.743406,3.2610762,3.0025146,7.1822133,6.191406,-6.3350577,-1.0295067
5.740097,4.748272,3.2610762,3.0025146,7.1822133,6.191406,-6.3350577,-1.0295067
5.7474165,4.75314,3.2919688,3.065365,7.289805,5.530606,-6.373365,-1.1109096
5.754755,4.7579646,3.2919688,3.065365,7.289805,5.530606,-6.373365,-1.1109096
5.7622485,4.7627764,3.320731,3.1303463,7.421898,4.7979803,-6.4882865,-1.0630256
5.7697606,4.7675457,3.320731,3.1303463,7.421898,4.7979803,-6.4882865,-1.0630256
5.777494,4.772314,3.3484278,3.1942623,7.5774264,3.9456444,-6.6079965,-1.2162545
5.785236,4.777035,3.3484278,3.1942623,7.5774264,3.9456444,-6.6079965,-1.2162545
5.7931886,4.78175,3.3771899,3.2571127,7.7606516,3.3279405,-6.7229185,-1.1779473
5.8011975,4.7864456,3.3771899,3.2571127,7.7606516,3.3279405,-6.7229185,-1.1779473
5.8094378,4.7911353,3.4048867,3.3167675,7.9630523,2.633622,-6.919243,-1.2258313
5.8176866,4.795777,3.4048867,3.3167675,7.9630523,2.633622,-6.919243,-1.2258313
5.826171,4.8004127,3.4357796,3.374292,8.186758,2.0638018,-7.0485296,-1.3072342
5.8347144,4.805028,3.4357796,3.374292,8.186758,2.0638018,-7.0485296,-1.3072342
5.843507,4.809635,3.4677374,3.4264898,8.428573,1.7046716,-7.431602,-1.2689269
5.8523073,4.8141947,3.4677374,3.4264898,8.428573,1.7046716,-7.431602,-1.2689269
5.861462,4.818795,3.5039563,3.46697,8.678909,1.3694834,-7.7907324,-1.3982137
5.870462,4.823267,3.5039563,3.46697,8.678909,1.3694834,-7.7907324,-1.3982137
5.879804,4.827771,3.5433712,3.5021236,8.936704,1.1827357,-8.101978,-1.283292
5.889154,4.8322296,3.5433712,3.5021236,8.936704,1.1827357,-8.101978,-1.283292
5.8988304,4.836714,3.5881124,3.5244942,9.194498,0.9576807,-8.456321,-1.1252748
5.9084754,4.841134,3.5881124,3.5244942,9.194498,0.9576807,-8.456321,-1.1252748
5.9183717,4.8455496,3.6381798,3.5298204,9.44803,0.9911995,-9.11712,-0.7757214
5.928334,4.849948,3.6381798,3.5298204,9.44803,0.9911995,-9.11712,-0.7757214
5.938511,4.854329,3.695704,3.5181026,9.693042,1.3263878,-9.624691,-0.6895301
5.9486923,4.858669,3.695704,3.5181026,9.693042,1.3263878,-9.624691,-0.6895301
5.959095,4.8630123,3.7617505,3.4946668,9.923139,1.910573,-10.309433,-0.45489833
5.9695215,4.8673244,3.7617505,3.4946668,9.923139,1.910573,-10.309433,-0.45489833
5.9801135,4.871638,3.8352537,3.463774,10.126604,1.910573,-10.888829,-0.30645782
5.990729,4.875923,3.8352537,3.463774,10.126604,1.910573,-10.888829,-0.30645782
6.0015097,4.880237,3.9194095,3.4286203,10.305569,2.3702598,-11.410766,0.0047884034
6.0122795,4.884512,3.9194095,3.4286203,10.305569,2.3702598,-11.410766,0.0047884034
6.0232024,4.8888416,4.016349,3.391336,10.4600315,2.8443117,-12.014104,0.12449849
6.0341134,4.893136,4.016349,3.391336,10.4600315,2.8443117,-12.014104,0.12449849
6.045121,4.8974886,4.12181,3.3529866,10.584668,3.1842883,-12.737153,0.5746084
6.056435,4.9019346,4.12181,3.3529866,10.584668,3.1842883,-12.737153,0.5746084
6.0672126,4.906231,4.2368584,3.3125064,10.668824,3.6774938,-13.163321,0.8762778
6.078265,4.9106145,4.2368584,3.3125064,10.668824,3.6774938,-13.163321,0.8762778
6.0893054,4.915098,4.357233,3.2720265,10.713565,4.453215,-13.230358,1.1013328
6.100336,4.919557,4.357233,3.2720265,10.713565,4.453215,-13.230358,1.1013328
6.1114135,4.9241533,4.4797387,3.2400684,10.715695,4.9895163,-13.22557,1.2785037
6.12245,4.928713,4.4797387,3.2400684,10.715695,4.9895163,-13.22557,1.2785037
6.1334386,4.933385,4.5958524,3.2240896,10.665628,5.209783,-13.029245,1.4939818
6.144431,4.9380407,4.5958524,3.2240896,10.665628,5.209783,-13.029245,1.4939818
6.155301,4.9427953,4.6970525,3.2187634,10.57295,5.377377,-13.062764,2.1404164
6.1662188,4.9475536,4.6970525,3.2187634,10.57295,5.377377,-13.062764,2.1404164
6.176971,4.9523697,4.7769475,3.2272854,10.444053,5.1666875,-12.698846,2.2936451
6.1877694,4.957191,4.7769475,3.2272854,10.444053,5.1666875,-12.698846,2.2936451
6.1984005,4.9620543,4.832341,3.2464602,10.286394,4.8985367,-12.330139,2.3654714
6.2090344,4.9669056,4.832341,3.2464602,10.286394,4.8985367,-12.330139,2.3654714
6.2194986,4.9717865,4.8547115,3.274157,10.1031685,4.9943047,-11.99495,2.6719291
6.229966,4.9766574,4.8547115,3.274157,10.1031685,4.9943047,-11.99495,2.6719291
6.2402472,4.9815273,4.8419285,3.3114412,9.8975725,4.817134,-11.587936,3.1364043
6.250531,4.9863877,4.8419285,3.3114412,9.8975725,4.817134,-11.587936,3.1364043
6.260613,4.9912066,4.7939916,3.366835,9.667475,5.0278234,-11.070788,3.4093432
6.2706976,4.9960175,4.7939916,3.366835,9.667475,5.0278234,-11.070788,3.4093432
6.280562,5.0007563,4.709836,3.4435341,9.406486,4.5058875,-10.232818,3.8259344
0.007243459,5.0054874,4.709836,3.4435341,9.406486,4.5058875,-10.232818,3.8259344
0.016875826,5.010112,4.593722,3.5468647,9.115668,4.453215,-9.730036,4.4819455
0.026529634,5.0147376,4.593722,3.5468647,9.115668,4.453215,-9.730036,4.4819455
0.035881557,5.0191946,4.449911,3.668305,8.792893,4.232949,-8.734048,4.4244847
0.04525494,5.0236526,4.449911,3.668305,8.792893,4.232949,-8.734048,4.4244847
0.0543327,5.0279293,4.282665,3.8121154,8.439225,3.643975,-8.451532,4.8458643
0.0634498,5.032214,4.282665,3.8121154,8.439225,3.643975,-8.451532,4.8458643
0.0722928,5.0363092,4.094113,3.9676442,8.067448,1.5514427,-8.269572,5.592855
0.081146985,5.0403986,4.094113,3.9676442,8.067448,1.5514427,-8.269572,5.592855
0.08972034,5.044254,3.8938432,4.144478,7.7073884,1.1540052,-7.5225816,5.8083334
0.098305434,5.0481024,3.8938432,4.144478,7.7073884,1.1540052,-7.5225816,5.8083334
0.10668798,5.051715,3.6850514,4.3394213,7.3697,-0.641646,-7.5225816,5.353435
0.11507346,5.0553164,3.6850514,4.3394213,7.3697,-0.641646,-7.5225816,5.353435
0.1232766,5.058657,3.469868,4.5301037,7.056512,-1.7860745,-7.2352777,5.1810527
0.13148367,5.061986,3.469868,4.5301037,7.056512,-1.7860745,-7.2352777,5.1810527
0.13945992,5.0650606,3.2408361,4.6451526,6.733737,-1.5227122,-6.6989765,5.3582234
0.14770237,5.068223,3.2408361,4.6451526,6.733737,-1.5227122,-6.6989765,5.3582234
0.15529126,5.070952,3.010739,4.6984158,6.412027,-3.7110126,-7.1730285,6.71813
0.16285406,5.0736566,3.010739,4.6984158,6.412027,-3.7110126,-7.1730285,6.71813
0.17027603,5.0761433,2.7966208,4.7665925,6.1350584,-3.2513258,-6.215348,6.2249246
0.17774731,5.0786314,2.7966208,4.7665925,6.1350584,-3.2513258,-6.215348,6.2249246
0.18503045,5.0808563,2.5931554,4.8358345,5.891113,-4.0174704,-5.4444146,5.0757074
0.19236952,5.083082,2.5931554,4.8358345,5.891113,-4.0174704,-5.4444146,5.0757074
0.1995043,5.0850563,2.3928857,4.8592706,5.6567545,-5.2624555,-5.171476,5.12838
0.20662959,5.0870123,2.3928857,4.8592706,5.6567545,-5.2624555,-5.171476,5.12838
0.21350312,5.088753,2.1979423,4.830508,5.4277225,-4.309563,-4.7548847,5.3103395
0.22042187,5.09049,2.1979423,4.830508,5.4277225,-4.309563,-4.7548847,5.3103395
0.22714604,5.0920067,2.0136514,4.771919,5.2136045,-5.243302,-4.3287168,4.6495395
0.23386034,5.093506,2.0136514,4.771919,5.2136045,-5.243302,-4.3287168,4.6495395
0.24036565,5.0948057,1.8400134,4.6941547,5.0133348,-5.434838,-3.8355112,4.084508
0.24686769,5.0960903,1.8400134,4.6941547,5.0133348,-5.434838,-3.8355112,4.084508
0.25314397,5.097192,1.669571,4.598281,4.813065,-5.5258174,-3.4620156,4.0462008
0.25945434,5.0982847,1.669571,4.598281,4.813065,-5.5258174,-3.4620156,4.0462008
0.26551977,5.0991907,1.5012592,4.501342,4.6223826,-4.8745947,-2.858677,3.3566709
0.27162367,5.1000886,1.5012592,4.501342,4.6223826,-4.8745947,-2.858677,3.3566709
0.2775145,5.100788,1.3265558,4.412925,4.4380918,-5.985504,-2.4899697,3.265691
0.28340706,5.101474,1.3265558,4.412925,4.4380918,-5.985504,-2.4899697,3.265691
0.2890925,5.1019673,1.1475915,4.3362255,4.2623234,-5.171476,-2.3319526,2.8778305
0.2948134,5.10245,1.1475915,4.3362255,4.2623234,-5.171476,-2.3319526,2.8778305
0.3003373,5.1027236,0.9654312,4.269114,4.091881,-5.3103395,-2.255338,2.4372973
0.3058729,5.102984,0.9654312,4.269114,4.091881,-5.3103395,-2.255338,2.4372973
0.31119356,5.1030517,0.7779447,4.1945453,3.9193082,-5.2624555,-2.2505496,2.7629087
0.31655702,5.103106,0.7779447,4.1945453,3.9193082,-5.2624555,-2.2505496,2.7629087
0.3218059,5.102949,0.5893929,4.115716,3.7435396,-4.697424,-2.2936451,2.2361844
0.32684836,5.1027856,0.5893929,4.115716,3.7435396,-4.697424,-2.2936451,2.2361844
0.33175382,5.102421,0.40510213,4.0294294,3.5528572,-4.209007,-2.3415294,1.9249382
0.3369007,5.1020236,0.40510213,4.0294294,3.5528572,-4.209007,-2.3415294,1.9249382
0.34143037,5.1014576,0.22187665,3.9101198,3.3280864,-3.596091,-2.3654714,1.3790601
0.3461183,5.100859,0.22187665,3.9101198,3.3280864,-3.596091,-2.3654714,1.3790601
0.3505161,5.1000843,0.039716423,3.7460692,3.072423,-3.6583402,-2.882619,1.5705963
0.3549076,5.099298,0.039716423,3.7460692,3.072423,-3.6583402,-2.882619,1.5705963
0.35897338,5.0983353,-0.13179116,3.5457995,2.791193,-2.8921957,-3.098097,1.2880806
0.36302882,5.0973625,-0.13179116,3.5457995,2.791193,-2.8921957,-3.098097,1.2880806
0.36671296,5.096254,-0.29158083,3.314637,2.4822664,-2.7581203,-3.3614593,1.3694834
0.37039465,5.0951347,-0.29158083,3.314637,2.4822664,-2.7581203,-3.3614593,1.3694834
0.37365866,5.093891,-0.43539152,3.0451252,2.146708,-2.4037786,-3.53863,1.3072342
0.37691692,5.09264,-0.43539152,3.0451252,2.146708,-2.4037786,-3.53863,1.3072342
0.37973025,5.0913157,-0.56109273,2.734068,1.787714,-2.3175871,-3.5769374,1.3455414
0.38253853,5.089987,-0.56109273,2.734068,1.787714,-2.3175871,-3.5769374,1.3455414
0.38253853,5.089987,-0.6665539,2.3910527,1.4116757,-2.5617957,-3.787627,1.3263878
0.38253853,5.089987,-0.6665539,2.3910527,1.4116757,-2.5617957,-3.787627,1.3263878
0.38923162,5.085993,-0.7571014,2.0427113,1.0313762,-2.992752,-3.8402996,1.2976574
0.39140493,5.0843296,-0.7571014,2.0427113,1.0313762,-2.992752,-3.8402996,1.2976574
0.39271957,5.0829716,-0.83593094,1.7103487,0.6627947,-3.2225955,-3.9504328,1.2976574
0.39271957,5.0829716,-0.83593094,1.7103487,0.6627947,-3.2225955,-3.9504328,1.2976574
0.39514902,5.080091,-0.91263,1.4003568,0.3069964,-3.8977604,-4.2521024,1.436521
0.39611608,5.0786023,-0.91263,1.4003568,0.3069964,-3.8977604,-4.2521024,1.436521
0.39659318,5.077255,-0.98719853,1.1180618,-0.027496647,-4.3526587,-4.644751,1.5179238
0.39710006,5.075819,-0.98719853,1.1180618,-0.027496647,-4.3526587,-4.644751,1.5179238
0.39722958,5.074352,-1.0628322,0.86239827,-0.33535808,-4.663905,-5.133168,1.6472107
0.39735824,5.072882,-1.0628322,0.86239827,-0.33535808,-4.663905,-5.133168,1.6472107
0.39714146,5.07138,-1.1416619,0.6312359,-0.61445737,-4.606444,-5.5497594,1.757344
0.396924,5.069881,-1.1416619,0.6312359,-0.61445737,-4.606444,-5.5497594,1.757344
0.39638278,5.068336,-1.2226219,0.42244405,-0.87757766,-4.3957543,-6.0956373,1.9488802
0.3958465,5.0668077,-1.2226219,0.42244405,-0.87757766,-4.3957543,-6.0956373,1.9488802
0.39499944,5.0652122,-1.299321,0.23282696,-1.1225885,-4.156334,-6.703765,2.1164744
0.39414394,5.0636034,-1.299321,0.23282696,-1.1225885,-4.156334,-6.703765,2.1164744
0.3929989,5.0619464,-1.3685632,0.060254127,-1.3494898,-3.9456444,-7.1347213,2.0973208
0.3918648,5.060308,-1.3685632,0.060254127,-1.3494898,-3.9456444,-7.1347213,2.0973208
0.39043963,5.058606,-1.4271528,-0.09633975,-1.5561512,-3.7924154,-7.5944076,2.1547816
0.38901326,5.0569043,-1.4271528,-0.09633975,-1.5561512,-3.7924154,-7.5944076,2.1547816
0.3872928,5.055156,-1.4740244,-0.24015045,-1.7478987,-3.53863,-7.9631147,2.1212628
0.3855744,5.0534105,-1.4740244,-0.24015045,-1.7478987,-3.53863,-7.9631147,2.1212628
0.38366583,5.0517125,-1.5070475,-0.37437376,-1.9268632,-3.3423057,-8.240842,2.0446482
0.3817354,5.0499954,-1.5070475,-0.37437376,-1.9268632,-3.3423057,-8.240842,2.0446482
0.3795196,5.0482473,-1.5283529,-0.50114024,-2.0919793,-3.1316159,-8.595184,2.1260512
0.37736604,5.046549,-1.5283529,-0.50114024,-2.0919793,-3.1316159,-8.595184,2.1260512
0.3749841,5.044847,-1.5390055,-0.6215151,-2.2432468,-2.9640217,-8.796297,2.0733786
0.37260076,5.0431447,-1.5390055,-0.6215151,-2.2432468,-2.9640217,-8.796297,2.0733786
0.37004313,5.041478,-1.536875,-0.7354984,-2.381731,-2.777274,-8.954314,2.0015526
0.36748385,5.0398116,-1.536875,-0.7354984,-2.381731,-2.777274,-8.954314,2.0015526
0.36475557,5.0381913,-1.5230266,-0.8441554,-2.506367,-2.5139117,-9.054871,1.9919758
0.36202797,5.036573,-1.5230266,-0.8441554,-2.506367,-2.5139117,-9.054871,1.9919758
0.35917413,5.035,-1.5038518,-0.94535553,-2.6096976,-2.27928,-9.035717,1.757344
0.35631555,5.0334244,-1.5038518,-0.94535553,-2.6096976,-2.27928,-9.035717,1.757344
0.35334325,5.0319014,-1.4793507,-1.0401641,-2.6970494,-2.1212628,-9.050082,1.6950948
0.35037184,5.0303793,-1.4793507,-1.0401641,-2.6970494,-2.1212628,-9.050082,1.6950948
0.34730574,5.028916,-1.4495233,-1.1275158,-2.7652264,-1.9249382,-9.030929,1.6519991
0.34423468,5.0274496,-1.4495233,-1.1275158,-2.7652264,-1.9249382,-9.030929,1.6519991
0.34109604,5.0260444,-1.4154348,-1.2052801,-2.8142285,-1.7477672,-8.963891,1.5801731
0.33795533,5.024638,-1.4154348,-1.2052801,-2.8142285,-1.7477672,-8.963891,1.5801731
0.3347616,5.0232863,-1.3824116,-1.2755876,-2.8451211,-1.5849615,-9.011775,1.5131354
0.33156896,5.021935,-1.3824116,-1.2755876,-2.8451211,-1.5849615,-9.011775,1.5131354
0.32833472,5.0206437,-1.3472579,-1.3395034,-2.8557737,-1.3551182,-8.911219,1.5514427
0.32510817,5.019355,-1.3472579,-1.3395034,-2.8557737,-1.3551182,-8.911219,1.5514427
0.32186157,5.018121,-1.3089083,-1.3927666,-2.8504474,-1.0055647,-8.920795,1.3838485
0.3186225,5.0168886,-1.3089083,-1.3927666,-2.8504474,-1.0055647,-8.920795,1.3838485
0.31538245,5.015718,-1.2673631,-1.4332466,-2.8280768,-0.7469909,-8.935161,1.4317327
0.31214324,5.014547,-1.2673631,-1.4332466,-2.8280768,-0.7469909,-8.935161,1.4317327
0.30894262,5.013422,-1.2247524,-1.4545519,-2.7833357,-0.58897364,-8.887277,1.1923125
0.3057493,5.0122986,-1.2247524,-1.4545519,-2.7833357,-0.58897364,-8.887277,1.1923125
0.30260998,5.0112257,-1.1810766,-1.4556172,-2.7204852,-0.38307226,-8.944737,1.1683705
0.29947162,5.010152,-1.1810766,-1.4556172,-2.7204852,-0.38307226,-8.944737,1.1683705
0.2964149,5.009123,-1.1374007,-1.4396383,-2.6405904,-0.33039984,-8.930372,1.1444284
0.29339874,5.0081067,-1.1374007,-1.4396383,-2.6405904,-0.33039984,-8.930372,1.1444284
0.29001042,5.00698,-1.0926597,-1.4044845,-2.5436513,-0.19632454,-8.863335,1.2066777
0.28741238,5.006114,-1.0926597,-1.4044845,-2.5436513,-0.19632454,-8.863335,1.2066777
0.28444797,5.0051203,-1.0468533,-1.3469602,-2.4307332,-0.2681506,-8.781932,1.1923125
0.28169364,5.0041957,-1.0468533,-1.3469602,-2.4307332,-0.2681506,-8.781932,1.1923125
0.2790788,5.003302,-1.0031775,-1.2691959,-2.305032,-0.29209262,-8.6095495,1.1971009
0.27641916,5.002392,-1.0031775,-1.2691959,-2.305032,-0.29209262,-8.6095495,1.1971009
0.27390283,5.0014944,-0.96269745,-1.176518,-2.167613,-0.4165911,-8.437167,1.0965444
0.27137977,5.000594,-0.96269745,-1.176518,-2.167613,-0.4165911,-8.437167,1.0965444
0.26903155,4.9997177,-0.92647845,-1.0699915,-2.0206065,-0.16280572,-8.379706,1.0342951
0.26668155,4.99884,-0.92647845,-1.0699915,-2.0206065,-0.16280572,-8.379706,1.0342951
0.2645223,4.997964,-0.8977163,-0.94535553,-1.8693389,-0.35913026,-8.317456,0.9576807
0.26236162,4.997087,-0.8977163,-0.94535553,-1.8693389,-0.35913026,-8.317456,0.9576807
0.26037776,4.996209,-0.876411,-0.81006694,-1.7202018,-0.40701428,-8.422802,1.0821792
0.25839236,4.99533,-0.876411,-0.81006694,-1.7202018,-0.40701428,-8.422802,1.0821792
0.25658458,4.994453,-0.8583015,-0.6715826,-1.5742606,-0.36870706,-8.389283,1.2401965
0.2547753,4.9935756,-0.8583015,-0.6715826,-1.5742606,-0.36870706,-8.389283,1.2401965
0.25314018,4.9926925,-0.8412573,-0.52883714,-1.4315152,-0.39743748,-8.322245,1.3215994
0.25150523,4.99181,-0.8412573,-0.52883714,-1.4315152,-0.39743748,-8.322245,1.3215994
0.25003046,4.990922,-0.8284741,-0.38183063,-1.2994224,-0.51235914,-8.37013,1.5658079
0.24855568,4.990034,-0.8284741,-0.38183063,-1.2994224,-0.51235914,-8.37013,1.5658079
0.2472243,4.98915,-0.8146257,-0.24015045,-1.1801128,-0.49799395,-8.441956,1.8243817
0.24589284,4.988267,-0.8146257,-0.24015045,-1.1801128,-0.49799395,-8.441956,1.8243817
0.24470074,4.98738,-0.7954509,-0.108057655,-1.0725211,-0.770933,-8.451532,1.9201498
0.24350825,4.986493,-0.7954509,-0.108057655,-1.0725211,-0.770933,-8.451532,1.9201498
0.24244304,4.9856043,-0.77308035,0.010186698,-0.975582,-1.0821792,-8.480263,1.9919758
0.2413774,4.984717,-0.77308035,0.010186698,-0.975582,-1.0821792,-8.480263,1.9919758
0.24041773,4.9838343,-0.7496445,0.10925629,-0.89355665,-1.1683705,-8.384495,1.9919758
0.23945747,4.982953,-0.7496445,0.10925629,-0.89355665,-1.1683705,-8.384495,1.9919758
0.2385837,4.982083,-0.72514343,0.19021639,-0.8253797,-1.2593501,-8.2169,1.9967642
0.23770922,4.9812145,-0.72514343,0.19021639,-0.8253797,-1.2593501,-8.2169,1.9967642
0.23690164,4.9803615,-0.7059687,0.25732806,-0.769986,-1.1061212,-8.049306,1.9680338
0.23609336,4.97951,-0.7059687,0.25732806,-0.769986,-1.1061212,-8.049306,1.9680338
0.23533462,4.9786773,-0.69425076,0.31804812,-0.7295059,-0.8762778,-7.9726915,2.0398598
0.23457536,4.977846,-0.69425076,0.31804812,-0.7295059,-0.8762778,-7.9726915,2.0398598
0.23383927,4.9769845,-0.68998975,0.3755724,-0.7007438,-0.82360536,-8.001422,2.0207062
0.23314077,4.976168,-0.68998975,0.3755724,-0.7007438,-0.82360536,-8.001422,2.0207062
0.23244779,4.9753246,-0.6931855,0.43096617,-0.69009113,-0.7517793,-8.082825,2.0973208
0.23175363,4.9744816,-0.6931855,0.43096617,-0.69009113,-0.7517793,-8.082825,2.0973208
0.23106992,4.9736195,-0.70170766,0.48529464,-0.69328696,-0.8523358,-8.2169,2.1404164
0.23038426,4.972757,-0.70170766,0.48529464,-0.69328696,-0.8523358,-8.2169,2.1404164
0.22969684,4.9718585,-0.7134255,0.5342968,-0.7060701,-0.9864111,-8.374918,2.1068976
0.22901069,4.9709644,-0.7134255,0.5342968,-0.7060701,-0.9864111,-8.374918,2.1068976
0.22832124,4.9700437,-0.72514343,0.57584214,-0.72631013,-1.1923125,-8.403648,2.0638018
0.22762935,4.9691224,-0.72514343,0.57584214,-0.72631013,-1.1923125,-8.403648,2.0638018
0.22692804,4.9681587,-0.7379266,0.6067348,-0.7550723,-1.4173675,-8.552089,2.0111294
0.22622249,4.967192,-0.7379266,0.6067348,-0.7550723,-1.4173675,-8.552089,2.0111294
0.22553161,4.966175,-0.7517751,0.6280401,-0.78276914,-1.6807296,-8.628703,1.9393034
0.22483866,4.9651585,-0.7517751,0.6280401,-0.78276914,-1.6807296,-8.628703,1.9393034
0.22417952,4.9641047,-0.76455826,0.64082325,-0.8072702,-1.9201498,-8.78672,1.910573
0.22352019,4.963052,-0.76455826,0.64082325,-0.8072702,-1.9201498,-8.78672,1.910573
0.22289917,4.9619865,-0.77521086,0.64082325,-0.8296408,-2.1978772,-8.90643,1.6950948
0.22227861,4.960923,-0.77521086,0.64082325,-0.8296408,-2.1978772,-8.90643,1.6950948
0.22165269,4.959855,-0.78479826,0.6301706,-0.85094607,-2.3750482,-9.102755,1.685518
0.22102724,4.958789,-0.78479826,0.6301706,-0.85094607,-2.3750482,-9.102755,1.685518
0.22041059,4.9577265,-0.7943857,0.61206114,-0.86692506,-2.753332,-9.23683,1.5801731
0.21979426,4.956666,-0.7943857,0.61206114,-0.86692506,-2.753332,-9.23683,1.5801731
0.21916762,4.955611,-0.80077726,0.5822337,-0.8807735,-2.9496565,-9.442732,1.6184803
0.2185413,4.9545584,-0.80077726,0.5822337,-0.8807735,-2.9496565,-9.442732,1.6184803
0.21788546,4.953504,-0.8050383,0.5428189,-0.89142615,-2.930503,-9.528923,1.5227122
0.21722999,4.952451,-0.8050383,0.5428189,-0.89142615,-2.930503,-9.528923,1.5227122
0.21655774,4.9514046,-0.8082341,0.5002083,-0.89781773,-3.1411927,-9.629479,1.3263878
0.21588564,4.9503584,-0.8082341,0.5002083,-0.89781773,-3.1411927,-9.629479,1.3263878
0.2152046,4.949321,-0.8135604,0.45227146,-0.898883,-3.2704794,-9.859323,1.364695
0.21450324,4.9482527,-0.8135604,0.45227146,-0.898883,-3.2704794,-9.859323,1.364695
0.21383111,4.9472547,-0.8167562,0.40113875,-0.89781773,-3.2848446,-10.093954,1.4317327
0.2131378,4.946226,-0.8167562,0.40113875,-0.89781773,-3.2848446,-10.093954,1.4317327
0.21243529,4.9452124,-0.8167562,0.34361446,-0.8967524,-3.3423057,-10.204087,1.4796166
0.21175064,4.9442253,-0.8167562,0.34361446,-0.8967524,-3.3423057,-10.204087,1.4796166
0.21103957,4.943235,-0.81142986,0.28076386,-0.89355665,-3.3135753,-10.357317,1.5945383
0.21031123,4.942221,-0.81142986,0.28076386,-0.89355665,-3.3135753,-10.357317,1.5945383
0.20959452,4.9412622,-0.80077726,0.21365221,-0.89036083,-3.2082303,-10.414778,1.7860745
0.20888223,4.94031,-0.80077726,0.21365221,-0.89036083,-3.2082303,-10.414778,1.7860745
0.20814869,4.939381,-0.7858635,0.14227949,-0.8892956,-3.0933087,-10.46745,1.8531121
0.20741391,4.938451,-0.7858635,0.14227949,-0.8892956,-3.0933087,-10.46745,1.8531121
0.20666917,4.937563,-0.767754,0.069841504,-0.89142615,-2.8682537,-10.491392,2.054225
0.2059258,4.936677,-0.767754,0.069841504,-0.89142615,-2.8682537,-10.491392,2.054225
0.2051577,4.9358206,-0.747514,-0.00046594674,-0.89568716,-2.7629087,-10.553641,2.1691468
0.20441252,4.93499,-0.747514,-0.00046594674,-0.89568716,-2.7629087,-10.553641,2.1691468
0.20364733,4.9342046,-0.72514343,-0.06970814,-0.9042093,-2.5713725,-10.572795,2.3080103
0.20288335,4.9334226,-0.72514343,-0.06970814,-0.9042093,-2.5713725,-10.572795,2.3080103
0.20208922,4.9327593,-0.70064235,-0.13468927,-0.90953565,-2.336741,-10.496181,2.408567
0.20129295,4.932099,-0.70064235,-0.13468927,-0.90953565,-2.336741,-10.496181,2.408567
0.20028932,4.931503,-0.6793371,-0.19008303,-0.91166615,-2.1547816,-10.548853,2.4181437
0.1993024,4.9309134,-0.6793371,-0.19008303,-0.91166615,-2.1547816,-10.548853,2.4181437
0.19829261,4.930348,-0.6580318,-0.23375887,-0.9106009,-2.0398598,-10.524911,2.5139117
0.19727571,4.929778,-0.6580318,-0.23375887,-0.9106009,-2.0398598,-10.524911,2.5139117
0.19627011,4.929242,-0.6367265,-0.26784733,-0.9042093,-2.0111294,-10.462662,2.5187001
0.19528686,4.9287176,-0.6367265,-0.26784733,-0.9042093,-2.0111294,-10.462662,2.5187001
0.19426058,4.9281974,-0.6143559,-0.29341367,-0.8924914,-1.9297266,-10.43872,2.5378537
0.19328472,4.927702,-0.6143559,-0.29341367,-0.8924914,-1.9297266,-10.43872,2.5378537
0.19225495,4.9271955,-0.59518117,-0.31152317,-0.87225133,-1.8818425,-10.405201,2.4468741
0.19127113,4.926711,-0.59518117,-0.31152317,-0.87225133,-1.8818425,-10.405201,2.4468741
0.19028533,4.9262385,-0.57494116,-0.3221758,-0.8477503,-1.8579005,-10.34774,2.4181437
0.18930605,4.9257693,-0.57494116,-0.3221758,-0.8477503,-1.8579005,-10.34774,2.4181437
0.18821165,4.9252534,-0.55683166,-0.32430634,-0.82111865,-1.8435353,-10.366894,2.4181437
0.18738906,4.9248657,-0.55683166,-0.32430634,-0.82111865,-1.8435353,-10.366894,2.4181437
0.18631035,4.9243574,-0.5408527,-0.3200453,-0.7891607,-1.8004397,-10.333375,2.4037786
0.18631035,4.9243574,-0.5408527,-0.3200453,-0.7891607,-1.8004397,-10.333375,2.4037786
0.18631035,4.9243574,-0.5408527,-0.3200453,-0.7891607,-1.8004397,-10.333375,2.4037786
0.1835525,4.9230595,-0.52487373,-0.3136537,-0.7529417,-1.7764976,-10.28549,2.480393
0.18308482,4.922838,-0.50889474,-0.3019358,-0.71352696,-1.7381904,-10.28549,2.4995465
0.18181682,4.9222336,-0.50889474,-0.3019358,-0.71352696,-1.7381904,-10.28549,2.4995465
0.1811854,4.9219284,-0.49504632,-0.29021788,-0.6762427,-1.661576,-10.266336,2.5617957
0.18013597,4.92142,-0.49504632,-0.29021788,-0.6762427,-1.661576,-10.266336,2.5617957
0.18013597,4.92142,-0.49504632,-0.29021788,-0.6762427,-1.661576,-10.266336,2.5617957
0.17828682,4.9205112,-0.4811979,-0.2774347,-0.6400237,-1.5514427,-10.271125,2.60968
0.1781528,4.920444,-0.46734947,-0.26358625,-0.60486996,-1.4460979,-10.314221,2.5953147
0.177423,4.920079,-0.46734947,-0.26358625,-0.60486996,-1.4460979,-10.314221,2.5953147
0.17672256,4.9197235,-0.45243576,-0.24654204,-0.57291204,-1.3551182,-10.429143,2.657564
0.17602181,4.919368,-0.45243576,-0.24654204,-0.57291204,-1.3551182,-10.429143,2.657564
0.17534252,4.9190164,-0.4385873,-0.2294978,-0.5430846,-1.2354081,-10.472239,2.6431987
0.17466556,4.918666,-0.4385873,-0.2294978,-0.5430846,-1.2354081,-10.472239,2.6431987
0.174012,4.9183254,-0.4236736,-0.21245357,-0.51858354,-1.1348516,-10.572795,2.7102363
0.17335147,4.917981,-0.4236736,-0.21245357,-0.51858354,-1.1348516,-10.572795,2.7102363
0.1727368,4.917663,-0.40662938,-0.19434407,-0.49514773,-1.115698,-10.611102,2.7868507
0.17211533,4.917341,-0.40662938,-0.19434407,-0.49514773,-1.115698,-10.611102,2.7868507
0.17151332,4.917032,-0.38745463,-0.17623459,-0.4727772,-1.067814,-10.6637745,2.7389667
0.17091382,4.9167233,-0.38745463,-0.17623459,-0.4727772,-1.067814,-10.6637745,2.7389667
0.1703367,4.916431,-0.36827987,-0.15705982,-0.4514719,-1.0151415,-10.673351,2.7820623
0.1697574,4.916137,-0.36827987,-0.15705982,-0.4514719,-1.0151415,-10.673351,2.7820623
0.16921921,4.9158688,-0.3491051,-0.13575453,-0.42910135,-1.0103531,-10.625467,2.8395233
0.16861328,4.915567,-0.3491051,-0.13575453,-0.42910135,-1.0103531,-10.625467,2.8395233
0.16814025,4.915333,-0.32886508,-0.11231872,-0.40779606,-1.0247183,-10.644621,2.705448
0.16762401,4.915077,-0.32886508,-0.11231872,-0.40779606,-1.0247183,-10.644621,2.705448
0.16713369,4.9148393,-0.31075558,-0.08888289,-0.3854255,-1.0821792,-10.486604,2.7150247
0.16664587,4.9146023,-0.31075558,-0.08888289,-0.3854255,-1.0821792,-10.486604,2.7150247
0.16618651,4.9143786,-0.29371136,-0.06331655,-0.35985917,-1.1013328,-10.400413,2.6767175
0.16573048,4.914157,-0.29371136,-0.06331655,-0.35985917,-1.1013328,-10.400413,2.6767175
0.16530733,4.913949,-0.27560186,-0.03455441,-0.331097,-1.091756,-10.31901,2.6671407
0.16488592,4.913742,-0.27560186,-0.03455441,-0.331097,-1.091756,-10.31901,2.6671407
0.16450596,4.9135504,-0.25855762,-0.0025964756,-0.29913908,-1.1013328,-10.156203,2.6384103
0.16412692,4.913359,-0.25855762,-0.0025964756,-0.29913908,-1.1013328,-10.156203,2.6384103
0.16378824,4.9131827,-0.24257866,0.030426722,-0.27037695,-1.1540052,-10.041282,2.60968
0.16345035,4.9130073,-0.24257866,0.030426722,-0.27037695,-1.1540052,-10.041282,2.60968
0.16314955,4.912845,-0.2265997,0.06344992,-0.24268007,-1.2114661,-9.916783,2.528277
0.16284871,4.9126825,-0.2265997,0.06344992,-0.24268007,-1.2114661,-9.916783,2.528277
0.16258009,4.912533,-0.21062072,0.09647312,-0.21817899,-1.2880806,-9.873688,2.432509
0.16231197,4.9123836,-0.21062072,0.09647312,-0.21817899,-1.2880806,-9.873688,2.432509
0.16210891,4.912255,-0.19783755,0.12630053,-0.1936779,-1.4317327,-9.758766,2.5139117
0.16191371,4.912131,-0.19783755,0.12630053,-0.1936779,-1.4317327,-9.758766,2.5139117
0.16174129,4.912013,-0.18505438,0.1508016,-0.17450315,-1.4796166,-9.77792,2.4899697
0.1615623,4.911891,-0.18505438,0.1508016,-0.17450315,-1.4796166,-9.77792,2.4899697
0.16141799,4.9117813,-0.175467,0.17104164,-0.15639365,-1.5035586,-9.787497,2.5378537
0.16127479,4.911672,-0.175467,0.17104164,-0.15639365,-1.5035586,-9.787497,2.5378537
0.16115402,4.9115667,-0.17014067,0.18595533,-0.14361048,-1.5562311,-9.840169,2.552219
0.1610333,4.9114614,-0.17014067,0.18595533,-0.14361048,-1.5562311,-9.840169,2.552219
0.16092263,4.911358,-0.16694488,0.19660798,-0.13615362,-1.5562311,-9.854534,2.5761611
0.16081218,4.911255,-0.16694488,0.19660798,-0.13615362,-1.5562311,-9.854534,2.5761611
0.16070686,4.9111514,-0.16587962,0.20406483,-0.1340231,-1.5945383,-9.974244,2.5091233
0.16060172,4.9110484,-0.16587962,0.20406483,-0.1340231,-1.5945383,-9.974244,2.5091233
0.16050147,4.910947,-0.16481435,0.2051301,-0.1372189,-1.6376339,-9.993398,2.4660277
0.16040145,4.9108458,-0.16481435,0.2051301,-0.1372189,-1.6376339,-9.993398,2.4660277
0.1603091,4.9107428,-0.16587962,0.2051301,-0.14147994,-1.7046716,-10.079589,2.480393
0.16021694,4.9106407,-0.16587962,0.2051301,-0.14147994,-1.7046716,-10.079589,2.480393
0.16012707,4.9105363,-0.16801015,0.20086904,-0.14467573,-1.7381904,-10.103531,2.4947581
0.16003744,4.910432,-0.16801015,0.20086904,-0.14467573,-1.7381904,-10.103531,2.4947581
0.15996149,4.910326,-0.16801015,0.19554271,-0.15213259,-1.7956513,-10.093954,2.3702598
0.15988564,4.91022,-0.16801015,0.19554271,-0.15213259,-1.7956513,-10.093954,2.3702598
0.15981938,4.91011,-0.16907541,0.18808587,-0.15958944,-1.8579005,-10.084377,2.3511062
0.1597532,4.91,-0.16907541,0.18808587,-0.15958944,-1.8579005,-10.084377,2.3511062
0.15969944,4.9098835,-0.16801015,0.17849848,-0.16917682,-1.9632454,-10.0508585,2.3415294
0.15964566,4.9097667,-0.16801015,0.17849848,-0.16917682,-1.9632454,-10.0508585,2.3415294
0.15961994,4.909624,-0.16801015,0.16784583,-0.17769894,-1.9919758,-10.022128,2.1739352
0.15959315,4.909477,-0.16801015,0.16784583,-0.17769894,-1.9919758,-10.022128,2.1739352
0.15956227,4.9093328,-0.17014067,0.15293214,-0.18728632,-2.0733786,-9.940725,2.1643584
0.15953037,4.909184,-0.17014067,0.15293214,-0.18728632,-2.0733786,-9.940725,2.1643584
0.15948156,4.9090357,-0.1722712,0.13482264,-0.20006949,-2.1499932,-9.864111,2.1883004
0.15943256,4.908888,-0.1722712,0.13482264,-0.20006949,-2.1499932,-9.864111,2.1883004
0.15937167,4.9087305,-0.17866279,0.11351735,-0.2117874,-2.1547816,-9.792285,2.1499932
0.15931067,4.908574,-0.17866279,0.11351735,-0.2117874,-2.1547816,-9.792285,2.1499932
0.15922259,4.908422,-0.1871849,0.089016266,-0.2267011,-2.1260512,-9.811439,2.1930888
0.15913433,4.90827,-0.1871849,0.089016266,-0.2267011,-2.1260512,-9.811439,2.1930888
0.1590179,4.9081173,-0.19570702,0.06344992,-0.24587587,-2.0398598,-9.868899,2.183512
0.15890124,4.9079647,-0.19570702,0.06344992,-0.24587587,-2.0398598,-9.868899,2.183512
0.15871932,4.907831,-0.2052944,0.03468778,-0.26931167,-1.958457,-9.945514,2.3319526
0.15853813,4.9076977,-0.2052944,0.03468778,-0.26931167,-1.958457,-9.945514,2.3319526
0.15830609,4.907566,-0.21381652,0.003795111,-0.29487804,-1.8914193,-10.065224,2.3750482
0.15807502,4.9074345,-0.21381652,0.003795111,-0.29487804,-1.8914193,-10.065224,2.3750482
0.157793,4.9073076,-0.21914284,-0.028162822,-0.31937912,-1.8483237,-10.19451,2.480393
0.15751147,4.90718,-0.21914284,-0.028162822,-0.31937912,-1.8483237,-10.19451,2.480393
0.15719347,4.907055,-0.22233863,-0.057990227,-0.34068438,-1.8004397,-10.266336,2.4708161
0.15687606,4.90693,-0.22233863,-0.057990227,-0.34068438,-1.8004397,-10.266336,2.4708161
0.1565219,4.906809,-0.2234039,-0.08994816,-0.36412022,-1.7717092,-10.295067,2.4995465
0.15616876,4.9066877,-0.2234039,-0.08994816,-0.36412022,-1.7717092,-10.295067,2.4995465
0.15578924,4.9065733,-0.22020811,-0.11977556,-0.38222972,-1.7621324,-10.333375,2.4851813
0.15541774,4.9064617,-0.22020811,-0.11977556,-0.38222972,-1.7621324,-10.333375,2.4851813
0.15501231,4.906357,-0.21488178,-0.14534192,-0.39607814,-1.7142484,-10.352529,2.4516625
0.1546022,4.906251,-0.21488178,-0.14534192,-0.39607814,-1.7142484,-10.352529,2.4516625
0.15415339,4.9061565,-0.20742492,-0.16984299,-0.40566552,-1.6041151,-10.419566,2.3798366
0.1537066,4.9060626,-0.20742492,-0.16984299,-0.40566552,-1.6041151,-10.419566,2.3798366
0.15325637,4.905979,-0.19996808,-0.18901776,-0.41099185,-1.6184803,-10.390836,2.327164
0.1528078,4.905896,-0.19996808,-0.18901776,-0.41099185,-1.6184803,-10.390836,2.327164
0.15232594,4.9058185,-0.19251123,-0.20499672,-0.4120571,-1.532289,-10.342952,2.2744915
0.15184614,4.905741,-0.19251123,-0.20499672,-0.4120571,-1.532289,-10.342952,2.2744915
0.15135004,4.905671,-0.18292385,-0.21671464,-0.41099185,-1.3838485,-10.208876,2.3942018
0.15085651,4.9056015,-0.18292385,-0.21671464,-0.41099185,-1.3838485,-10.208876,2.3942018
0.1503433,4.9055357,-0.17440173,-0.22417149,-0.4120571,-1.1923125,-10.141838,2.5187001
0.14983286,4.905471,-0.17440173,-0.22417149,-0.4120571,-1.1923125,-10.141838,2.5187001
0.14930023,4.905405,-0.16801015,-0.2294978,-0.41738343,-0.9864111,-10.041282,2.5474305
0.14876826,4.9053392,-0.16801015,-0.2294978,-0.41738343,-0.9864111,-10.041282,2.5474305
0.14822893,4.905282,-0.16161856,-0.23056307,-0.4269708,-0.8762778,-9.931149,2.6767175
0.14765039,4.90522,-0.16161856,-0.23056307,-0.4269708,-0.8762778,-9.931149,2.6767175
0.14711833,4.9051657,-0.15629223,-0.23056307,-0.44401506,-0.770933,-9.849746,2.6240451
0.1465687,4.9051104,-0.15629223,-0.23056307,-0.44401506,-0.770933,-9.849746,2.6240451
0.14598879,4.905055,-0.15203118,-0.22630201,-0.46425506,-0.6847417,-9.701305,2.6144683
0.14540868,4.9049997,-0.15203118,-0.22630201,-0.46425506,-0.6847417,-9.701305,2.6144683
0.14480285,4.904947,-0.14670485,-0.21991043,-0.48662564,-0.6512229,-9.615114,2.5809495
0.1441974,4.9048944,-0.14670485,-0.21991043,-0.48662564,-0.6512229,-9.615114,2.5809495
0.14356947,4.9048414,-0.14350906,-0.21245357,-0.50793093,-0.6512229,-9.485827,2.4851813
0.1429414,4.904788,-0.14350906,-0.21245357,-0.50793093,-0.6512229,-9.485827,2.4851813
0.14229806,4.90474,-0.139248,-0.2028662,-0.5292362,-0.7326257,-9.404425,2.4372973
0.14165659,4.904692,-0.139248,-0.2028662,-0.5292362,-0.7326257,-9.404425,2.4372973
0.1409989,4.904647,-0.1360522,-0.19008303,-0.5505415,-0.7422025,-9.246407,2.4037786
0.14034183,4.904602,-0.1360522,-0.19008303,-0.5505415,-0.7422025,-9.246407,2.4037786
0.1396601,4.9045515,-0.13392168,-0.17729984,-0.56865096,-0.7278373,-9.150639,2.27928
0.13897829,4.904501,-0.13392168,-0.17729984,-0.56865096,-0.7278373,-9.150639,2.27928
0.1382914,4.9044523,-0.13498695,-0.16132088,-0.5856952,-0.8714894,-9.054871,2.1883004
0.13760526,4.9044046,-0.13498695,-0.16132088,-0.5856952,-0.8714894,-9.054871,2.1883004
0.13692781,4.904358,-0.13818274,-0.14321138,-0.5974131,-1.0342951,-8.829816,2.0159178
0.13625123,4.9043117,-0.13818274,-0.14321138,-0.5974131,-1.0342951,-8.829816,2.0159178
0.13561228,4.9042683,-0.14350906,-0.12723242,-0.6038047,-1.1540052,-8.6095495,1.9201498
0.13497493,4.904225,-0.14350906,-0.12723242,-0.6038047,-1.1540052,-8.6095495,1.9201498
0.13442554,4.9041615,-0.15203118,-0.11338398,-0.60486996,-1.283292,-8.456321,1.7908629
0.13388084,4.904098,-0.15203118,-0.11338398,-0.60486996,-1.283292,-8.456321,1.7908629
0.13340321,4.903961,-0.16587962,-0.09953554,-0.60273945,-1.283292,-8.226477,1.6328455
0.13292366,4.903824,-0.16587962,-0.09953554,-0.60273945,-1.283292,-8.226477,1.6328455
0.1324605,4.9036446,-0.18185858,-0.08888289,-0.5974131,-1.364695,-8.169016,1.5945383
0.13199681,4.903466,-0.18185858,-0.08888289,-0.5974131,-1.364695,-8.169016,1.5945383
0.13152127,4.903207,-0.20209861,-0.079295516,-0.5899563,-1.3934253,-8.135497,1.4413095
0.13104673,4.9029484,-0.20209861,-0.079295516,-0.5899563,-1.3934253,-8.135497,1.4413095
0.13058242,4.902673,-0.22233863,-0.07290393,-0.5835647,-1.3838485,-8.087613,1.4413095
0.13011909,4.902398,-0.22233863,-0.07290393,-0.5835647,-1.3838485,-8.087613,1.4413095
0.12964688,4.902084,-0.24577445,-0.0707734,-0.5771731,-1.3311762,-8.0684595,1.3982137
0.12917607,4.90177,-0.24577445,-0.0707734,-0.5771731,-1.3311762,-8.0684595,1.3982137
0.12868878,4.9014187,-0.27027553,-0.07290393,-0.5739773,-1.2545617,-8.1163435,1.3982137
0.12820359,4.901068,-0.27027553,-0.07290393,-0.5739773,-1.2545617,-8.1163435,1.3982137
0.12767416,4.9006763,-0.29477662,-0.08036078,-0.5750426,-1.115698,-8.221688,1.4987702
0.12715206,4.9002867,-0.29477662,-0.08036078,-0.5750426,-1.115698,-8.221688,1.4987702
0.12651603,4.899869,-0.32034296,-0.08994816,-0.5793036,-1.0151415,-8.293514,1.460463
0.12588331,4.8994513,-0.32034296,-0.08994816,-0.5793036,-1.0151415,-8.293514,1.460463
0.12517802,4.899038,-0.34484404,-0.10166607,-0.588891,-0.92416185,-8.451532,1.4987702
0.12447415,4.898626,-0.34484404,-0.10166607,-0.588891,-0.92416185,-8.451532,1.4987702
0.123758554,4.898188,-0.36827987,-0.11551451,-0.60060894,-0.8331822,-8.580819,1.4460979
0.12304306,4.897751,-0.36827987,-0.11551451,-0.60060894,-0.8331822,-8.580819,1.4460979
0.12209547,4.8971972,-0.39171568,-0.13149348,-0.6165879,-0.7613561,-8.652645,1.4891934
0.121489525,4.8968434,-0.39171568,-0.13149348,-0.6165879,-0.7613561,-8.652645,1.4891934
0.1207346,4.896374,-0.4151515,-0.14960296,-0.63256687,-0.6943185,-8.791509,1.4221559
0.119975075,4.895902,-0.4151515,-0.14960296,-0.63256687,-0.6943185,-8.791509,1.4221559
0.119975075,4.895902,-0.4364568,-0.16771246,-0.6496111,-0.6703765,-8.959103,1.4317327
0.119975075,4.895902,-0.4364568,-0.16771246,-0.6496111,-0.6703765,-8.959103,1.4317327
0.11763872,4.89443,-0.45776206,-0.18369143,-0.6666553,-0.6560113,-9.102755,1.4269443
0.11683161,4.8939114,-0.45776206,-0.18369143,-0.6666553,-0.6560113,-9.102755,1.4269443
0.11605782,4.8933873,-0.4780021,-0.19860514,-0.6805038,-0.6895301,-9.179369,1.3790601
0.11525692,4.892844,-0.4780021,-0.19860514,-0.6805038,-0.6895301,-9.179369,1.3790601
0.11446719,4.892275,-0.4961116,-0.2113883,-0.69009113,-0.7086837,-9.303867,1.2737153
0.11367077,4.8917,-0.4961116,-0.2113883,-0.69009113,-0.7086837,-9.303867,1.2737153
0.1128542,4.89112,-0.51209056,-0.22310622,-0.6964827,-0.6799533,-9.490616,1.364695
0.112039566,4.8905416,-0.51209056,-0.22310622,-0.6964827,-0.6799533,-9.490616,1.364695
0.11122232,4.889944,-0.52700424,-0.2326936,-0.69967854,-0.7278373,-9.605537,1.3838485
0.110405385,4.889346,-0.52700424,-0.2326936,-0.69967854,-0.7278373,-9.605537,1.3838485
0.10960289,4.888734,-0.5376569,-0.24334624,-0.69967854,-0.79966336,-9.715671,1.3838485
0.10880515,4.8881245,-0.5376569,-0.24334624,-0.69967854,-0.79966336,-9.715671,1.3838485
0.10800492,4.8875036,-0.54617906,-0.25293362,-0.69541746,-0.80924016,-9.773131,1.3982137
0.10717655,4.88686,-0.54617906,-0.25293362,-0.69541746,-0.80924016,-9.773131,1.3982137
0.106417425,4.8862553,-0.5504401,-0.262521,-0.6879606,-0.8810662,-9.878476,1.4652514
0.105634816,4.8856316,-0.5504401,-0.262521,-0.6879606,-0.8810662,-9.878476,1.4652514
0.10487621,4.8849993,-0.5515053,-0.27210838,-0.6762427,-0.92895025,-9.983821,1.4460979
0.104116015,4.884364,-0.5515053,-0.27210838,-0.6762427,-0.92895025,-9.983821,1.4460979
0.10336252,4.8837395,-0.54830956,-0.2806305,-0.6602637,-0.91937345,-10.070012,1.5035586
0.10261116,4.8831153,-0.54830956,-0.2806305,-0.6602637,-0.91937345,-10.070012,1.5035586
0.10189091,4.882497,-0.5397874,-0.28702208,-0.6400237,-1.0007763,-10.151415,1.6136919
0.101174,4.881878,-0.5397874,-0.28702208,-0.6400237,-1.0007763,-10.151415,1.6136919
0.100387156,4.881328,-0.5291348,-0.29341367,-0.6165879,-0.93373865,-10.19451,1.70946
0.09959855,4.880782,-0.5291348,-0.29341367,-0.6165879,-0.93373865,-10.19451,1.70946
0.09888774,4.8802013,-0.51635164,-0.29660946,-0.5899563,-0.94331545,-10.232818,1.6424223
0.09817811,4.8796206,-0.51635164,-0.29660946,-0.5899563,-0.94331545,-10.232818,1.6424223
0.097453095,4.8791847,-0.50250316,-0.29980525,-0.56012887,-0.90021986,-10.290278,1.7860745
0.09673346,4.8787546,-0.50250316,-0.29980525,-0.56012887,-0.90021986,-10.290278,1.7860745
0.096026845,4.8783207,-0.48652422,-0.3019358,-0.532432,-0.80924016,-10.328587,1.7860745
0.09532222,4.8778906,-0.48652422,-0.3019358,-0.532432,-0.80924016,-10.328587,1.7860745
0.0946407,4.877466,-0.46947998,-0.3019358,-0.50366986,-0.7134721,-10.424355,1.7956513
0.09396035,4.8770447,-0.46947998,-0.3019358,-0.50366986,-0.7134721,-10.424355,1.7956513
0.093310125,4.8766456,-0.45563155,-0.30087054,-0.47810352,-0.6464345,-10.539276,1.8531121
0.09266102,4.8762484,-0.45563155,-0.30087054,-0.47810352,-0.6464345,-10.539276,1.8531121
0.09202936,4.87585,-0.4417831,-0.29874,-0.45360243,-0.5746084,-10.596737,1.8243817
0.09139841,4.875453,-0.4417831,-0.29874,-0.45360243,-0.5746084,-10.596737,1.8243817
0.09079871,4.875093,-0.42473888,-0.2955442,-0.4333624,-0.50278234,-10.716447,1.9393034
0.09020004,4.874733,-0.42473888,-0.2955442,-0.4333624,-0.50278234,-10.716447,1.9393034
0.08961462,4.87438,-0.40769464,-0.29128313,-0.4131224,-0.47405192,-10.840945,1.9153614
0.08903005,4.8740273,-0.40769464,-0.29128313,-0.4131224,-0.47405192,-10.840945,1.9153614
0.08846888,4.8736963,-0.38851988,-0.28595683,-0.39288235,-0.46447513,-10.898406,1.9297266
0.08790742,4.8733654,-0.38851988,-0.28595683,-0.39288235,-0.46447513,-10.898406,1.9297266
0.087361895,4.8730483,-0.3672146,-0.27956524,-0.3737076,-0.3878607,-10.960655,1.9201498
0.08681697,4.872732,-0.3672146,-0.27956524,-0.3737076,-0.3878607,-10.960655,1.9201498
0.08629727,4.8724456,-0.34697458,-0.27530417,-0.35453284,-0.40222588,-11.022904,1.9728222
0.08577835,4.8721595,-0.34697458,-0.27530417,-0.35453284,-0.40222588,-11.022904,1.9728222
0.08526799,4.871874,-0.3256693,-0.27104312,-0.33535808,-0.34955344,-11.056423,1.8818425
0.08475901,4.8715897,-0.3256693,-0.27104312,-0.33535808,-0.34955344,-11.056423,1.8818425
0.08427599,4.8713374,-0.30329874,-0.26678208,-0.3140528,-0.33518824,-11.089942,1.9393034
0.083793424,4.8710866,-0.30329874,-0.26678208,-0.3140528,-0.33518824,-11.089942,1.9393034
0.08331736,4.870841,-0.27879766,-0.26145574,-0.29381275,-0.25378537,-11.085154,1.8770541
0.082829885,4.8705907,-0.27879766,-0.26145574,-0.29381275,-0.25378537,-11.085154,1.8770541
0.08239732,4.870379,-0.25429657,-0.25506416,-0.27250746,-0.18674773,-11.003751,1.8579005
0.081966825,4.8701687,-0.25429657,-0.25506416,-0.27250746,-0.18674773,-11.003751,1.8579005
0.08154234,4.8699746,-0.22873022,-0.24973783,-0.25226745,-0.14844051,-10.941502,1.8387469
0.08111165,4.869778,-0.22873022,-0.24973783,-0.25226745,-0.14844051,-10.941502,1.8387469
0.080710046,4.869615,-0.20209861,-0.24547677,-0.23096216,-0.090979666,-10.869676,1.8579005
0.08030859,4.8694525,-0.20209861,-0.24547677,-0.23096216,-0.090979666,-10.869676,1.8579005
0.07992395,4.869299,-0.17653225,-0.24441151,-0.20965686,-0.08140286,-10.812215,1.7477672
0.07953934,4.8691454,-0.17653225,-0.24441151,-0.20965686,-0.08140286,-10.812215,1.7477672
0.07917434,4.8690066,-0.15203118,-0.24121572,-0.18941684,-0.01436521,-10.726024,1.6759412
0.0788101,4.868869,-0.15203118,-0.24121572,-0.18941684,-0.01436521,-10.726024,1.6759412
0.07846633,4.86876,-0.12859535,-0.23588939,-0.17024209,0.0047884034,-10.635044,1.6998832
0.07812115,4.8686514,-0.12859535,-0.23588939,-0.17024209,0.0047884034,-10.635044,1.6998832
0.07779473,4.8685536,-0.107290074,-0.23162833,-0.15106732,0.08619126,-10.520123,1.6184803
0.07779473,4.8685536,-0.107290074,-0.23162833,-0.15106732,0.08619126,-10.520123,1.6184803
0.07710514,4.868351,-0.08705004,-0.22736728,-0.12976204,0.11971009,-10.419566,1.532289
0.07710514,4.868351,-0.08705004,-0.22736728,-0.12976204,0.11971009,-10.419566,1.532289
0.07655801,4.868195,-0.07000581,-0.22417149,-0.11058728,0.17717093,-10.275913,1.4413095
0.07655801,4.868195,-0.07000581,-0.22417149,-0.11058728,0.17717093,-10.275913,1.4413095
0.07600816,4.868047,-0.056157377,-0.21884516,-0.092477776,0.20590134,-10.160992,1.412579
0.0757572,4.867984,-0.056157377,-0.21884516,-0.092477776,0.20590134,-10.160992,1.412579
0.075520135,4.867925,-0.043374203,-0.2113883,-0.07223775,0.29209262,-10.022128,1.3263878
0.07528162,4.8678656,-0.043374203,-0.2113883,-0.07223775,0.29209262,-10.022128,1.3263878
0.07506259,4.867817,-0.033786822,-0.2028662,-0.053062994,0.35913026,-9.902418,1.3120226
0.07484284,4.867769,-0.033786822,-0.2028662,-0.053062994,0.35913026,-9.902418,1.3120226
0.074648276,4.8677254,-0.025264706,-0.19008303,-0.031757705,0.39743748,-9.797073,1.2641385
0.074452385,4.867682,-0.025264706,-0.19008303,-0.031757705,0.39743748,-9.797073,1.2641385
0.074279614,4.8676424,-0.019938385,-0.17729984,-0.01151768,0.39264908,-9.730036,1.2497733
0.07410647,4.867603,-0.019938385,-0.17729984,-0.01151768,0.39264908,-9.730036,1.2497733
0.07395105,4.867567,-0.017807856,-0.1634514,0.0044612866,0.4309563,-9.691729,1.2545617
0.07379498,4.867531,-0.017807856,-0.1634514,0.0044612866,0.4309563,-9.691729,1.2545617
0.0736554,4.8675003,-0.01674259,-0.14640717,0.020440254,0.4357447,-9.653421,1.3024458
0.07351597,4.86747,-0.01674259,-0.14640717,0.020440254,0.4357447,-9.653421,1.3024458
0.073397115,4.8674297,-0.017807856,-0.12936294,0.035353955,0.4357447,-9.629479,1.2258313
0.0732788,4.8673897,-0.017807856,-0.12936294,0.035353955,0.4357447,-9.629479,1.2258313
0.073172964,4.8673515,-0.021003649,-0.110188186,0.04813713,0.51714754,-9.648633,1.2737153
0.07306544,4.867313,-0.021003649,-0.110188186,0.04813713,0.51714754,-9.648633,1.2737153
0.07297218,4.86727,-0.024199443,-0.08994816,0.05772451,0.49320555,-9.672575,1.2785037
0.0728791,4.867227,-0.024199443,-0.08994816,0.05772451,0.49320555,-9.672575,1.2785037
0.07279304,4.8671885,-0.026329972,-0.07183866,0.0641161,0.48841715,-9.68694,1.3551182
0.072706245,4.8671503,-0.026329972,-0.07183866,0.0641161,0.48841715,-9.68694,1.3551182
0.072625786,4.8671136,-0.0284605,-0.054794434,0.06837715,0.49320555,-9.667787,1.3982137
0.07254562,4.8670774,-0.0284605,-0.054794434,0.06837715,0.49320555,-9.667787,1.3982137
0.07246888,4.8670406,-0.031656295,-0.03881547,0.06944242,0.46926352,-9.696517,1.436521
0.07239151,4.8670034,-0.031656295,-0.03881547,0.06944242,0.46926352,-9.696517,1.436521
0.07231567,4.8669662,-0.034852087,-0.02496703,0.06944242,0.50757074,-9.706094,1.4748282
0.07224126,4.8669305,-0.034852087,-0.02496703,0.06944242,0.50757074,-9.706094,1.4748282
0.07216756,4.866878,-0.035917353,-0.012183856,0.06731189,0.45489833,-9.739613,1.364695
0.072093606,4.866826,-0.035917353,-0.012183856,0.06731189,0.45489833,-9.739613,1.364695
0.072018325,4.8667927,-0.035917353,-0.00046594674,0.06518136,0.37349546,-9.730036,1.532289
0.07194293,4.8667603,-0.035917353,-0.00046594674,0.06518136,0.37349546,-9.730036,1.532289
0.071863025,4.8667135,-0.03804788,0.011251962,0.058789775,0.34955344,-9.773131,1.4556746
0.071783155,4.866667,-0.03804788,0.011251962,0.058789775,0.34955344,-9.773131,1.4556746
0.0717008,4.866617,-0.039113145,0.020839343,0.054528717,0.2873042,-9.825804,1.4556746
0.07161802,4.8665667,-0.039113145,0.020839343,0.054528717,0.2873042,-9.825804,1.4556746
0.07153372,4.8665137,-0.039113145,0.028296193,0.05133292,0.2681506,-9.782708,1.4317327
0.07144944,4.866461,-0.039113145,0.028296193,0.05133292,0.2681506,-9.782708,1.4317327
0.07136861,4.866393,-0.04017841,0.03681831,0.05026766,0.19632454,-9.835381,1.3551182
0.071287386,4.866325,-0.04017841,0.03681831,0.05026766,0.19632454,-9.835381,1.3551182
0.0712045,4.866262,-0.03804788,0.04427516,0.04813713,0.19632454,-9.878476,1.3838485
0.07112133,4.8661985,-0.03804788,0.04427516,0.04813713,0.19632454,-9.878476,1.3838485
0.071036205,4.8661404,-0.033786822,0.05173201,0.044941336,0.16280572,-9.89763,1.3934253
0.0709503,4.8660808,-0.033786822,0.05173201,0.044941336,0.16280572,-9.89763,1.3934253
0.070865884,4.866028,-0.029525764,0.061319392,0.04387607,0.11492168,-9.859323,1.4077905
0.07078058,4.8659744,-0.029525764,0.061319392,0.04387607,0.11492168,-9.859323,1.4077905
0.07069215,4.8659344,-0.022068914,0.06877624,0.040680278,0.12449849,-9.811439,1.436521
0.07060389,4.8658943,-0.022068914,0.06877624,0.040680278,0.12449849,-9.811439,1.436521
0.07050929,4.8658805,-0.017807856,0.0762331,0.033223428,0.05267244,-9.811439,1.5658079
0.070414945,4.865866,-0.017807856,0.0762331,0.033223428,0.05267244,-9.811439,1.5658079
0.07031188,4.865858,-0.01674259,0.08262468,0.022570781,0.047884032,-9.787497,1.5897499
0.07020931,4.86585,-0.01674259,0.08262468,0.022570781,0.047884032,-9.787497,1.5897499
0.070089914,4.8658414,-0.01674259,0.087951005,0.005526551,-0.0047884034,-9.77792,1.5849615
0.06997101,4.8658333,-0.01674259,0.087951005,0.005526551,-0.0047884034,-9.77792,1.5849615
0.069848,4.865848,-0.017807856,0.09327733,-0.010452416,-0.04309563,-9.825804,1.7238252
0.069726385,4.865863,-0.017807856,0.09327733,-0.010452416,-0.04309563,-9.825804,1.7238252
0.06957924,4.8658733,-0.018873122,0.09540785,-0.03282297,-0.110133275,-9.844957,1.6903064
0.06943103,4.8658843,-0.018873122,0.09540785,-0.03282297,-0.110133275,-9.844957,1.6903064
0.069256105,4.8658876,-0.018873122,0.09753838,-0.05732405,-0.18674773,-9.911995,1.6472107
0.069082975,4.8658905,-0.018873122,0.09753838,-0.05732405,-0.18674773,-9.911995,1.6472107
0.068910755,4.865926,-0.017807856,0.09753838,-0.078629345,-0.2777274,-9.9550905,1.7764976
0.068738244,4.8659616,-0.017807856,0.09753838,-0.078629345,-0.2777274,-9.9550905,1.7764976
0.06854048,4.8659925,-0.015677327,0.09647312,-0.0978041,-0.34955344,-9.931149,1.6998832
0.06834336,4.866024,-0.015677327,0.09647312,-0.0978041,-0.34955344,-9.931149,1.6998832
0.06814371,4.8660717,-0.013546798,0.09327733,-0.11484833,-0.41180268,-9.969456,1.7381904
0.067945525,4.8661194,-0.013546798,0.09327733,-0.11484833,-0.41180268,-9.969456,1.7381904
0.0677312,4.866171,-0.008220476,0.090081535,-0.12656625,-0.50278234,-9.940725,1.661576
0.067518346,4.866223,-0.008220476,0.090081535,-0.12656625,-0.50278234,-9.940725,1.661576
0.067307636,4.866288,-0.0039594183,0.08475521,-0.13615362,-0.6368576,-9.878476,1.5658079
0.06709863,4.8663545,-0.0039594183,0.08475521,-0.13615362,-0.6368576,-9.878476,1.5658079
0.06704342,4.8662596,-0.0028941538,0.07942889,-0.14147994,-0.7374141,-9.864111,1.4508862
0.06698929,4.866165,-0.0028941538,0.07942889,-0.14147994,-0.7374141,-9.864111,1.4508862
0.066998646,4.8661423,0.00030163955,0.074102566,-0.14147994,-0.8331822,-9.835381,1.5035586
0.06700798,4.866119,0.00030163955,0.074102566,-0.14147994,-0.8331822,-9.835381,1.5035586
0.06701634,4.866077,0.0045626974,0.07090677,-0.13615362,-0.866701,-9.835381,1.4700398
0.06702305,4.8660436,0.0045626974,0.07090677,-0.13615362,-0.866701,-9.835381,1.4700398
0.06702305,4.8660436,0.0045626974,0.07090677,-0.13615362,-0.866701,-9.835381,1.4700398
0.06702305,4.8660436,0.008823755,0.06664571,-0.1276315,-0.93373865,-9.80665,1.4508862
0.06707192,4.8659544,0.010954284,0.05918886,-0.11910939,-0.9672575,-9.816227,1.436521
0.06709435,4.865924,0.010954284,0.05918886,-0.11910939,-0.9672575,-9.816227,1.436521
0.06709435,4.865924,0.015215342,0.053862542,-0.107391484,-0.9911995,-9.821015,1.4987702
0.06709435,4.865924,0.015215342,0.053862542,-0.107391484,-0.9911995,-9.821015,1.4987702
