Pitch,Roll,Gyro_X,Gyro_Y,Gyro_Z,Accel_X,Accel_Y,Accel_Z
6.2690234,4.883891,0.02160693,-0.0015312112,0.020440254,0.19153613,-9.466674,1.6280571
6.2689095,4.883885,0.02160693,-0.0015312112,0.020440254,0.19153613,-9.466674,1.6280571
6.26881,4.8839536,0.020541664,0.0005993177,0.022570781,0.24420857,-9.399636,1.6711528
6.2687097,4.8840218,0.020541664,0.0005993177,0.022570781,0.24420857,-9.399636,1.6711528
6.268626,4.8839784,0.019476399,0.0048603755,0.024701312,0.20590134,-9.428367,1.5945383
6.268543,4.883935,0.019476399,0.0048603755,0.024701312,0.20590134,-9.428367,1.5945383
6.2684445,4.883998,0.017345872,0.009121433,0.024701312,0.23463176,-9.442732,1.6711528
6.268346,4.884061,0.017345872,0.009121433,0.024701312,0.23463176,-9.442732,1.6711528
6.2682343,4.8840604,0.0141500775,0.013382491,0.024701312,0.22505496,-9.442732,1.6280571
6.268122,4.8840594,0.0141500775,0.013382491,0.024701312,0.22505496,-9.442732,1.6280571
6.268014,4.8840904,0.010954284,0.018708814,0.025766576,0.24899697,-9.437943,1.6519991
6.267905,4.884122,0.010954284,0.018708814,0.025766576,0.24899697,-9.437943,1.6519991
6.2679234,4.88423,0.008823755,0.022969872,0.02683184,0.15801731,-9.490616,1.733402
6.2679415,4.884338,0.008823755,0.022969872,0.02683184,0.15801731,-9.490616,1.733402
6.2680907,4.8843985,0.0077584907,0.02723093,0.025766576,0.12928689,-9.548077,1.6663644
6.26824,4.884459,0.0077584907,0.02723093,0.025766576,0.12928689,-9.548077,1.6663644
6.268312,4.884369,0.0045626974,0.030426722,0.023636047,0.1340753,-9.562442,1.6376339
6.268383,4.8842793,0.0045626974,0.030426722,0.023636047,0.1340753,-9.562442,1.6376339
6.268552,4.88428,0.003497433,0.033622514,0.023636047,0.10055647,-9.548077,1.6567876
6.2687206,4.8842816,0.003497433,0.033622514,0.023636047,0.10055647,-9.548077,1.6567876
6.2688828,4.884316,0.0024321685,0.035753045,0.023636047,0.08619126,-9.524135,1.6663644
6.2690444,4.8843503,0.0024321685,0.035753045,0.023636047,0.08619126,-9.524135,1.6663644
6.2692075,4.884385,0.001366904,0.037883572,0.024701312,0.033518825,-9.552865,1.685518
6.26937,4.8844204,0.001366904,0.037883572,0.024701312,0.033518825,-9.552865,1.685518
6.269539,4.8844004,0.001366904,0.038948838,0.025766576,0.05267244,-9.528923,1.6424223
6.2697077,4.88438,0.001366904,0.038948838,0.025766576,0.05267244,-9.528923,1.6424223
6.269871,4.884349,0.0024321685,0.03681831,0.025766576,0.05746084,-9.509769,1.6328455
6.2700343,4.8843174,0.0024321685,0.03681831,0.025766576,0.05746084,-9.509769,1.6328455
6.2701836,4.884264,0.001366904,0.03681831,0.025766576,0.02873042,-9.562442,1.6136919
6.2703323,4.884211,0.001366904,0.03681831,0.025766576,0.02873042,-9.562442,1.6136919
6.270501,4.88423,0.0024321685,0.035753045,0.024701312,0.009576807,-9.524135,1.6663644
6.270669,4.884249,0.0024321685,0.035753045,0.024701312,0.009576807,-9.524135,1.6663644
6.270776,4.8841677,0.001366904,0.033622514,0.023636047,0.07182605,-9.552865,1.6041151
6.270882,4.8840857,0.001366904,0.033622514,0.023636047,0.07182605,-9.552865,1.6041151
6.2710357,4.884046,0.00030163955,0.030426722,0.020440254,0.062249243,-9.519346,1.6328455
6.271189,4.8840065,0.00030163955,0.030426722,0.020440254,0.062249243,-9.519346,1.6328455
6.2713513,4.884013,-0.0007636249,0.026165664,0.018309724,0.076614454,-9.519346,1.6519991
6.2715135,4.8840203,-0.0007636249,0.026165664,0.018309724,0.076614454,-9.519346,1.6519991
6.271664,4.884054,-0.0007636249,0.019774077,0.016179197,0.08140286,-9.509769,1.6567876
6.2718143,4.8840885,-0.0007636249,0.019774077,0.016179197,0.08140286,-9.509769,1.6567876
6.271902,4.8840013,-0.0018288894,0.01551302,0.014048667,0.10055647,-9.5385,1.6424223
6.2719893,4.883913,-0.0018288894,0.01551302,0.014048667,0.10055647,-9.5385,1.6424223
6.2720733,4.8839927,-0.0018288894,0.010186698,0.010852873,0.08619126,-9.528923,1.6759412
6.2721634,4.884078,-0.0018288894,0.010186698,0.010852873,0.08619126,-9.528923,1.6759412
6.2721486,4.884176,-0.0018288894,0.0048603755,0.00765708,0.12449849,-9.56723,1.733402
6.2721334,4.8842716,-0.0018288894,0.0048603755,0.00765708,0.12449849,-9.56723,1.733402
6.2721477,4.884369,-0.0018288894,-0.0015312112,0.0044612866,0.10534488,-9.56723,1.6807296
6.272162,4.884467,-0.0018288894,-0.0015312112,0.0044612866,0.10534488,-9.56723,1.6807296
6.2722034,4.88437,-0.0018288894,-0.005792269,0.0033960221,0.08619126,-9.586384,1.6136919
6.2722445,4.884272,-0.0018288894,-0.005792269,0.0033960221,0.08619126,-9.586384,1.6136919
6.2722483,4.884171,-0.0007636249,-0.010053327,0.00020022877,0.10055647,-9.543288,1.5562311
6.272252,4.8840704,-0.0007636249,-0.010053327,0.00020022877,0.10055647,-9.543288,1.5562311
6.272241,4.8839707,0.00030163955,-0.014314385,-0.0008650357,0.110133275,-9.557653,1.6041151
6.2722297,4.883871,0.00030163955,-0.014314385,-0.0008650357,0.110133275,-9.557653,1.6041151
6.272216,4.883772,0.00030163955,-0.016444914,-0.0008650357,0.110133275,-9.56723,1.6184803
6.2722025,4.883672,0.00030163955,-0.016444914,-0.0008650357,0.110133275,-9.56723,1.6184803
6.2722273,4.883576,0.001366904,-0.019640706,0.00020022877,0.08619126,-9.576807,1.5849615
6.2722526,4.883479,0.001366904,-0.019640706,0.00020022877,0.08619126,-9.576807,1.5849615
6.2722526,4.883479,0.003497433,-0.021771235,0.0023307577,0.095768064,-9.562442,1.6376339
6.2723775,4.8833075,0.003497433,-0.021771235,0.0023307577,0.095768064,-9.562442,1.6376339
6.2723775,4.8833075,0.003497433,-0.021771235,0.0023307577,0.095768064,-9.562442,1.6376339
6.27245,4.8831234,0.005627962,-0.0228365,0.008722344,0.08619126,-9.543288,1.5897499
6.27245,4.8831234,0.005627962,-0.0228365,0.008722344,0.08619126,-9.543288,1.5897499
6.2723975,4.882941,0.005627962,-0.02496703,0.012983402,0.12928689,-9.528923,1.5705963
6.2723694,4.8828516,0.0066932263,-0.028162822,0.016179197,0.12928689,-9.509769,1.5753847
6.2723413,4.8827624,0.0066932263,-0.028162822,0.016179197,0.12928689,-9.509769,1.5753847
6.272305,4.882678,0.008823755,-0.029228088,0.021505518,0.1340753,-9.543288,1.5897499
6.2722683,4.882594,0.008823755,-0.029228088,0.021505518,0.1340753,-9.543288,1.5897499
6.272158,4.8825684,0.008823755,-0.031358615,0.02683184,0.16280572,-9.504981,1.6184803
6.2720475,4.8825426,0.008823755,-0.031358615,0.02683184,0.16280572,-9.504981,1.6184803
6.2719884,4.882472,0.00988902,-0.031358615,0.030027634,0.14844051,-9.5385,1.5993267
6.271929,4.882402,0.00988902,-0.031358615,0.030027634,0.14844051,-9.5385,1.5993267
6.271827,4.8824506,0.012019549,-0.031358615,0.03428869,0.14844051,-9.528923,1.6472107
6.271725,4.8824987,0.012019549,-0.031358615,0.03428869,0.14844051,-9.528923,1.6472107
6.271619,4.8825,0.013084813,-0.029228088,0.03854975,0.21547815,-9.500193,1.6232687
6.271619,4.8825,0.013084813,-0.029228088,0.03854975,0.21547815,-9.500193,1.6232687
6.271419,4.8824797,0.0141500775,-0.028162822,0.041745543,0.23942018,-9.500193,1.5849615
6.271419,4.8824797,0.0141500775,-0.028162822,0.041745543,0.23942018,-9.500193,1.5849615
6.271322,4.8824453,0.0141500775,-0.028162822,0.041745543,0.23942018,-9.500193,1.5849615
6.271134,4.882519,0.0141500775,-0.02496703,0.044941336,0.24899697,-9.452309,1.6472107
6.271037,4.882538,0.013084813,-0.020705972,0.0460066,0.2873042,-9.466674,1.6280571
6.271037,4.882538,0.013084813,-0.020705972,0.0460066,0.2873042,-9.466674,1.6280571
6.2709312,4.8825526,0.013084813,-0.014314385,0.047071867,0.31603462,-9.481039,1.5705963
6.2708516,4.8825297,0.013084813,-0.014314385,0.047071867,0.31603462,-9.481039,1.5705963
6.2706823,4.8826094,0.00988902,-0.008988062,0.04813713,0.2873042,-9.466674,1.6663644
6.2705956,4.8826494,0.00988902,-0.008988062,0.04813713,0.2873042,-9.466674,1.6663644
6.270503,4.8826585,0.008823755,-0.0047270046,0.049202394,0.2873042,-9.466674,1.6280571
6.270411,4.8826675,0.008823755,-0.0047270046,0.049202394,0.2873042,-9.466674,1.6280571
6.270325,4.8827,0.005627962,0.0016645822,0.049202394,0.2633622,-9.495404,1.661576
6.2702394,4.882733,0.005627962,0.0016645822,0.049202394,0.2633622,-9.495404,1.661576
6.2701607,4.8827767,0.003497433,0.009121433,0.04813713,0.2873042,-9.495404,1.685518
6.270082,4.8828206,0.003497433,0.009121433,0.04813713,0.2873042,-9.495404,1.685518
6.269992,4.8828344,0.001366904,0.016578285,0.047071867,0.2825158,-9.548077,1.6567876
6.269902,4.882848,0.001366904,0.016578285,0.047071867,0.2825158,-9.548077,1.6567876
6.2698193,4.882883,-0.0018288894,0.024035135,0.04387607,0.22505496,-9.576807,1.6759412
6.269737,4.8829174,-0.0018288894,0.024035135,0.04387607,0.22505496,-9.576807,1.6759412
6.2696433,4.8829184,-0.0039594183,0.030426722,0.041745543,0.23463176,-9.548077,1.6472107
6.2695494,4.8829184,-0.0039594183,0.030426722,0.041745543,0.23463176,-9.548077,1.6472107
6.2694564,4.8829193,-0.0071552116,0.03681831,0.040680278,0.21547815,-9.595961,1.6567876
6.2693634,4.8829193,-0.0071552116,0.03681831,0.040680278,0.21547815,-9.595961,1.6567876
6.269322,4.8829894,-0.009285741,0.04107937,0.03854975,0.18674773,-9.562442,1.6950948
6.26928,4.8830585,-0.009285741,0.04107937,0.03854975,0.18674773,-9.562442,1.6950948
6.2692847,4.8831434,-0.0114162695,0.046405688,0.03641922,0.15801731,-9.562442,1.7046716
6.2692885,4.883228,-0.0114162695,0.046405688,0.03641922,0.15801731,-9.562442,1.7046716
6.269205,4.8832603,-0.012481534,0.05173201,0.03428869,0.17238252,-9.639056,1.6759412
6.2691226,4.883292,-0.012481534,0.05173201,0.03428869,0.17238252,-9.639056,1.6759412
6.269177,4.8831787,-0.014612063,0.054927804,0.033223428,0.12928689,-9.610326,1.5945383
6.2692304,4.8830657,-0.014612063,0.054927804,0.033223428,0.12928689,-9.610326,1.5945383
6.269309,4.882954,-0.015677327,0.057058334,0.031092897,0.11492168,-9.619903,1.6041151
6.2693872,4.8828435,-0.015677327,0.057058334,0.031092897,0.11492168,-9.619903,1.6041151
6.2695565,4.8827906,-0.017807856,0.05918886,0.02896237,0.12928689,-9.662998,1.661576
6.2697263,4.8827395,-0.017807856,0.05918886,0.02896237,0.12928689,-9.662998,1.661576
6.2699046,4.882724,-0.017807856,0.060254127,0.027897105,0.07182605,-9.600749,1.6519991
6.270082,4.882708,-0.017807856,0.060254127,0.027897105,0.07182605,-9.600749,1.6519991
6.270242,4.882643,-0.019938385,0.060254127,0.025766576,0.07182605,-9.615114,1.6328455
6.2704024,4.8825784,-0.019938385,0.060254127,0.025766576,0.07182605,-9.615114,1.6328455
6.2705774,4.882553,-0.021003649,0.060254127,0.024701312,0.06703765,-9.624691,1.6519991
6.270751,4.882529,-0.021003649,0.060254127,0.024701312,0.06703765,-9.624691,1.6519991
6.270921,4.8824835,-0.021003649,0.060254127,0.023636047,0.023942016,-9.581595,1.6280571
6.27109,4.882438,-0.021003649,0.060254127,0.023636047,0.023942016,-9.581595,1.6280571
6.271231,4.8823566,-0.021003649,0.05918886,0.020440254,0.023942016,-9.648633,1.6041151
6.271373,4.8822756,-0.021003649,0.05918886,0.020440254,0.023942016,-9.648633,1.6041151
6.271529,4.8822913,-0.022068914,0.057058334,0.01724446,0.01436521,-9.653421,1.685518
6.2716846,4.882307,-0.022068914,0.057058334,0.01724446,0.01436521,-9.653421,1.685518
6.2718425,4.8822556,-0.02313418,0.05599307,0.014048667,-0.0047884034,-9.639056,1.6280571
6.272,4.882204,-0.02313418,0.05599307,0.014048667,-0.0047884034,-9.639056,1.6280571
6.2721586,4.8821774,-0.02313418,0.052797277,0.009787609,0.02873042,-9.648633,1.6519991
6.2723165,4.882151,-0.02313418,0.052797277,0.009787609,0.02873042,-9.648633,1.6519991
6.272453,4.8821783,-0.02313418,0.049601484,0.0065918155,-0.009576807,-9.662998,1.7046716
6.2725883,4.882205,-0.02313418,0.049601484,0.0065918155,-0.009576807,-9.662998,1.7046716
6.272742,4.8821874,-0.02313418,0.046405688,0.005526551,0.0047884034,-9.643845,1.6567876
6.2728944,4.8821692,-0.02313418,0.046405688,0.005526551,0.0047884034,-9.643845,1.6567876
6.27304,4.8821783,-0.022068914,0.04427516,0.0044612866,-0.047884032,-9.65821,1.6903064
6.2731843,4.882187,-0.022068914,0.04427516,0.0044612866,-0.047884032,-9.65821,1.6903064
6.2733254,4.882202,-0.019938385,0.04214463,0.0023307577,-0.033518825,-9.710882,1.6998832
6.273465,4.882217,-0.019938385,0.04214463,0.0023307577,-0.033518825,-9.710882,1.6998832
6.2736125,4.882181,-0.01674259,0.040014103,0.0023307577,-0.04309563,-9.691729,1.6424223
6.273759,4.882146,-0.01674259,0.040014103,0.0023307577,-0.04309563,-9.691729,1.6424223
6.273898,4.882091,-0.014612063,0.040014103,0.0044612866,-0.06703765,-9.744401,1.6184803
6.2740374,4.882036,-0.014612063,0.040014103,0.0044612866,-0.06703765,-9.744401,1.6184803
6.274172,4.881974,-0.013546798,0.040014103,0.0044612866,-0.10055647,-9.696517,1.5849615
6.274306,4.8819127,-0.013546798,0.040014103,0.0044612866,-0.10055647,-9.696517,1.5849615
6.2744455,4.881852,-0.012481534,0.040014103,0.0033960221,-0.11971009,-9.68694,1.5801731
6.274575,4.881796,-0.012481534,0.040014103,0.0033960221,-0.11971009,-9.68694,1.5801731
6.274716,4.8817415,-0.010351005,0.04107937,0.008722344,-0.1436521,-9.639056,1.5658079
6.274857,4.8816857,-0.010351005,0.04107937,0.008722344,-0.1436521,-9.639056,1.5658079
6.2750063,4.8816414,-0.010351005,0.04107937,0.011918138,-0.11492168,-9.696517,1.6041151
6.275157,4.8815956,-0.010351005,0.04107937,0.011918138,-0.11492168,-9.696517,1.6041151
6.275316,4.8815746,-0.008220476,0.040014103,0.014048667,-0.1436521,-9.65821,1.6280571
6.2754755,4.8815527,-0.008220476,0.040014103,0.014048667,-0.1436521,-9.65821,1.6280571
6.27564,4.8815494,-0.0071552116,0.038948838,0.018309724,-0.17717093,-9.610326,1.6472107
6.2758045,4.881546,-0.0071552116,0.038948838,0.018309724,-0.17717093,-9.610326,1.6472107
6.275969,4.881519,-0.006089947,0.038948838,0.021505518,-0.11971009,-9.595961,1.6089035
6.276134,4.8814917,-0.006089947,0.038948838,0.021505518,-0.11971009,-9.595961,1.6089035
6.2763014,4.881476,-0.006089947,0.035753045,0.022570781,-0.1436521,-9.56723,1.6184803
6.2764697,4.88146,-0.006089947,0.035753045,0.022570781,-0.1436521,-9.56723,1.6184803
6.2766333,4.8814354,-0.0039594183,0.031491987,0.022570781,-0.1388637,-9.586384,1.6041151
6.276801,4.8814096,-0.0039594183,0.031491987,0.022570781,-0.1388637,-9.586384,1.6041151
6.2769685,4.8814116,-0.0018288894,0.029361458,0.025766576,-0.15322891,-9.5385,1.6328455
6.277138,4.881413,-0.0018288894,0.029361458,0.025766576,-0.15322891,-9.5385,1.6328455
6.2773085,4.8813934,-0.0018288894,0.026165664,0.027897105,-0.15322891,-9.591172,1.6089035
6.2774825,4.8813734,-0.0018288894,0.026165664,0.027897105,-0.15322891,-9.591172,1.6089035
6.2774825,4.8813734,-0.0018288894,0.026165664,0.027897105,-0.15322891,-9.591172,1.6089035
6.277813,4.881335,-0.0018288894,0.022969872,0.027897105,-0.1388637,-9.552865,1.6041151
6.277988,4.881355,-0.0007636249,0.020839343,0.027897105,-0.12449849,-9.615114,1.6663644
6.278151,4.881374,-0.0007636249,0.020839343,0.027897105,-0.12449849,-9.615114,1.6663644
6.278324,4.881374,0.00030163955,0.019774077,0.030027634,-0.10055647,-9.572019,1.6328455
6.2784967,4.881374,0.00030163955,0.019774077,0.030027634,-0.10055647,-9.572019,1.6328455
6.2786636,4.8813457,0.001366904,0.018708814,0.030027634,-0.110133275,-9.605537,1.6041151
6.27883,4.881318,0.001366904,0.018708814,0.030027634,-0.110133275,-9.605537,1.6041151
6.278988,4.8812714,0.0024321685,0.017643549,0.033223428,-0.10534488,-9.619903,1.5801731
6.2791457,4.8812246,0.0024321685,0.017643549,0.033223428,-0.10534488,-9.619903,1.5801731
6.279323,4.881206,0.003497433,0.016578285,0.03854975,-0.1388637,-9.610326,1.6089035
6.2795005,4.8811874,0.003497433,0.016578285,0.03854975,-0.1388637,-9.610326,1.6089035
6.2796855,4.881179,0.0045626974,0.01551302,0.04387607,-0.10055647,-9.600749,1.6232687
6.27987,4.8811703,0.0045626974,0.01551302,0.04387607,-0.10055647,-9.600749,1.6232687
6.2800555,4.8811464,0.0066932263,0.014447756,0.05026766,-0.08140286,-9.624691,1.6136919
6.280241,4.8811226,0.0066932263,0.014447756,0.05026766,-0.08140286,-9.624691,1.6136919
6.280427,4.881094,0.00988902,0.013382491,0.055593982,-0.095768064,-9.610326,1.5993267
6.2806134,4.881065,0.00988902,0.013382491,0.055593982,-0.095768064,-9.610326,1.5993267
6.280811,4.8810716,0.010954284,0.011251962,0.056659244,-0.11492168,-9.615114,1.6328455
6.2810087,4.881078,0.010954284,0.011251962,0.056659244,-0.11492168,-9.615114,1.6328455
6.281195,4.881049,0.012019549,0.008056169,0.05772451,-0.095768064,-9.610326,1.5993267
6.281381,4.8810205,0.012019549,0.008056169,0.05772451,-0.095768064,-9.610326,1.5993267
6.281564,4.8810825,0.015215342,0.0027298466,0.059855036,-0.07182605,-9.586384,1.6663644
6.2817473,4.8811445,0.015215342,0.0027298466,0.059855036,-0.07182605,-9.586384,1.6663644
6.281881,4.881078,0.018411135,-0.00046594674,0.061985567,-0.023942016,-9.595961,1.5897499
6.2820134,4.88101,0.018411135,-0.00046594674,0.061985567,-0.023942016,-9.595961,1.5897499
6.282099,4.880932,0.019476399,-0.0047270046,0.061985567,0.0047884034,-9.605537,1.6089035
6.282182,4.8808527,0.019476399,-0.0047270046,0.061985567,0.0047884034,-9.605537,1.6089035
6.282176,4.880786,0.02160693,-0.008988062,0.0609203,0.023942016,-9.548077,1.6041151
6.2821684,4.880719,0.02160693,-0.008988062,0.0609203,0.023942016,-9.548077,1.6041151
6.282183,4.8806486,0.024802722,-0.01324912,0.059855036,0.038307227,-9.543288,1.5562311
6.2821975,4.8805785,0.024802722,-0.01324912,0.059855036,0.038307227,-9.543288,1.5562311
6.282183,4.880517,0.025867987,-0.016444914,0.058789775,0.08619126,-9.56723,1.5275006
6.2821684,4.8804564,0.025867987,-0.016444914,0.058789775,0.08619126,-9.56723,1.5275006
6.2821126,4.8804207,0.025867987,-0.020705972,0.058789775,0.12928689,-9.514558,1.5466543
6.2820563,4.880385,0.025867987,-0.020705972,0.058789775,0.12928689,-9.514558,1.5466543
6.282002,4.8803453,0.024802722,-0.023901764,0.05772451,0.14844051,-9.500193,1.5275006
6.2819476,4.880306,0.024802722,-0.023901764,0.05772451,0.14844051,-9.500193,1.5275006
6.281876,4.8802786,0.024802722,-0.02496703,0.05346345,0.18195933,-9.481039,1.532289
6.281805,4.880251,0.024802722,-0.02496703,0.05346345,0.18195933,-9.481039,1.532289
6.2817097,4.8802605,0.022672193,-0.028162822,0.049202394,0.14844051,-9.428367,1.5849615
6.281615,4.8802705,0.022672193,-0.028162822,0.049202394,0.14844051,-9.428367,1.5849615
6.281533,4.8802414,0.02160693,-0.030293351,0.044941336,0.22026655,-9.442732,1.5131354
6.281451,4.880212,0.02160693,-0.030293351,0.044941336,0.22026655,-9.442732,1.5131354
6.281361,4.880188,0.02160693,-0.029228088,0.040680278,0.19153613,-9.423578,1.532289
6.2812715,4.880164,0.02160693,-0.029228088,0.040680278,0.19153613,-9.423578,1.532289
6.281189,4.880124,0.017345872,-0.029228088,0.037484486,0.19632454,-9.414001,1.5035586
6.281106,4.8800836,0.017345872,-0.029228088,0.037484486,0.19632454,-9.414001,1.5035586
6.2810082,4.8800564,0.015215342,-0.028162822,0.03428869,0.24420857,-9.442732,1.5227122
6.28091,4.880029,0.015215342,-0.028162822,0.03428869,0.24420857,-9.442732,1.5227122
6.280811,4.879994,0.013084813,-0.027097559,0.02896237,0.25857377,-9.380483,1.4939818
6.2807117,4.879959,0.013084813,-0.027097559,0.02896237,0.25857377,-9.380483,1.4939818
6.280592,4.8799615,0.010954284,-0.026032293,0.024701312,0.25378537,-9.394848,1.5753847
6.2804723,4.879964,0.010954284,-0.026032293,0.024701312,0.25378537,-9.394848,1.5753847
6.280361,4.8799343,0.008823755,-0.023901764,0.022570781,0.272939,-9.390059,1.5131354
6.28025,4.879904,0.008823755,-0.023901764,0.022570781,0.272939,-9.390059,1.5131354
6.280164,4.8798413,0.005627962,-0.020705972,0.020440254,0.272939,-9.409213,1.4269443
6.2800775,4.8797784,0.005627962,-0.020705972,0.020440254,0.272939,-9.409213,1.4269443
6.2799726,4.8797297,0.003497433,-0.017510178,0.018309724,0.2681506,-9.409213,1.484405
6.279868,4.879681,0.003497433,-0.017510178,0.018309724,0.2681506,-9.409213,1.484405
6.279754,4.8796363,-0.0007636249,-0.015379649,0.015113931,0.2825158,-9.428367,1.5035586
6.27964,4.879592,-0.0007636249,-0.015379649,0.015113931,0.2825158,-9.428367,1.5035586
6.279538,4.879527,-0.0050246827,-0.014314385,0.012983402,0.29688102,-9.433155,1.4508862
6.279538,4.879527,-0.0050246827,-0.014314385,0.012983402,0.29688102,-9.433155,1.4508862
6.279538,4.879527,-0.0050246827,-0.014314385,0.012983402,0.29688102,-9.433155,1.4508862
6.279538,4.879527,-0.0050246827,-0.014314385,0.012983402,0.29688102,-9.433155,1.4508862
6.279538,4.879527,-0.0050246827,-0.014314385,0.012983402,0.29688102,-9.433155,1.4508862
6.2789392,4.879234,-0.0114162695,-0.007922798,0.0044612866,0.29209262,-9.308656,1.4700398
6.278822,4.8791566,-0.014612063,-0.00366174,-0.0008650357,0.32561144,-9.356541,1.4030021
6.2787094,4.8790755,-0.014612063,-0.00366174,-0.0008650357,0.32561144,-9.356541,1.4030021
6.2787094,4.8790755,-0.014612063,-0.00366174,-0.0008650357,0.32561144,-9.356541,1.4030021
6.278569,4.878994,-0.019938385,0.0005993177,-0.0051260935,0.2681506,-9.3661175,1.4748282
6.278341,4.878846,-0.024199443,0.0048603755,-0.01151768,0.21068975,-9.32781,1.460463
6.278227,4.8787565,-0.024199443,0.0048603755,-0.01151768,0.21068975,-9.32781,1.460463
6.278108,4.878659,-0.0284605,0.008056169,-0.015778739,0.17717093,-9.32781,1.4796166
6.277994,4.878566,-0.0284605,0.008056169,-0.015778739,0.17717093,-9.32781,1.4796166
6.277946,4.878436,-0.032721557,0.012317227,-0.02110506,0.08619126,-9.332599,1.4413095
6.277898,4.8783064,-0.032721557,0.012317227,-0.02110506,0.08619126,-9.332599,1.4413095
6.277821,4.8781767,-0.03804788,0.016578285,-0.024300855,0.110133275,-9.351752,1.4652514
6.2777443,4.8780465,-0.03804788,0.016578285,-0.024300855,0.110133275,-9.351752,1.4652514
6.2777085,4.877901,-0.04443947,0.019774077,-0.02323559,0.07182605,-9.375694,1.436521
6.2776737,4.87776,-0.04443947,0.019774077,-0.02323559,0.07182605,-9.375694,1.436521
6.277666,4.8776107,-0.048700526,0.022969872,-0.020039797,0.04309563,-9.390059,1.4508862
6.277658,4.8774624,-0.048700526,0.022969872,-0.020039797,0.04309563,-9.390059,1.4508862
6.277705,4.8773212,-0.05189632,0.0251004,-0.018974531,-0.009576807,-9.404425,1.4748282
6.2777524,4.87718,-0.05189632,0.0251004,-0.018974531,-0.009576807,-9.404425,1.4748282
6.2778053,4.877036,-0.05509211,0.026165664,-0.016844003,-0.02873042,-9.423578,1.4556746
6.2778583,4.876893,-0.05509211,0.026165664,-0.016844003,-0.02873042,-9.423578,1.4556746
6.277917,4.876745,-0.05935317,0.028296193,-0.012582945,-0.07182605,-9.409213,1.3982137
6.2779765,4.8765984,-0.05935317,0.028296193,-0.012582945,-0.07182605,-9.409213,1.3982137
6.2780514,4.876455,-0.060418434,0.02723093,-0.0072566224,-0.1340753,-9.346964,1.3503298
6.278127,4.876311,-0.060418434,0.02723093,-0.0072566224,-0.1340753,-9.346964,1.3503298
6.278191,4.8761597,-0.0614837,0.021904606,-0.0029955646,-0.095768064,-9.356541,1.340753
6.2782545,4.876009,-0.0614837,0.021904606,-0.0029955646,-0.095768064,-9.356541,1.340753
6.278303,4.8758507,-0.06361423,0.017643549,0.0012654932,-0.033518825,-9.414001,1.3790601
6.278352,4.875691,-0.06361423,0.017643549,0.0012654932,-0.033518825,-9.414001,1.3790601
6.278433,4.875539,-0.06574476,0.012317227,0.00765708,-0.090979666,-9.41879,1.3838485
6.278514,4.875387,-0.06574476,0.012317227,0.00765708,-0.090979666,-9.41879,1.3838485
6.2786183,4.875243,-0.06787529,0.010186698,0.011918138,-0.19632454,-9.385271,1.340753
6.2786183,4.875243,-0.06787529,0.010186698,0.011918138,-0.19632454,-9.385271,1.340753
6.278842,4.8749475,-0.07107108,0.009121433,0.018309724,-0.25857377,-9.32781,1.292869
6.2789555,4.874804,-0.07107108,0.009121433,0.018309724,-0.25857377,-9.32781,1.292869
6.2790766,4.874653,-0.075332135,0.008056169,0.027897105,-0.2873042,-9.313444,1.2545617
6.279194,4.8745074,-0.075332135,0.008056169,0.027897105,-0.2873042,-9.313444,1.2545617
6.27933,4.8743505,-0.0795932,0.0069909045,0.039615013,-0.34476504,-9.323022,1.2162545
6.279462,4.874199,-0.0795932,0.0069909045,0.039615013,-0.34476504,-9.323022,1.2162545
6.2796135,4.8740425,-0.08385425,0.003795111,0.05346345,-0.35913026,-9.289502,1.2210429
6.2797647,4.873886,-0.08385425,0.003795111,0.05346345,-0.35913026,-9.289502,1.2210429
6.279927,4.873724,-0.089180574,-0.0025964756,0.06624663,-0.32561144,-9.289502,1.2401965
6.280088,4.8735623,-0.089180574,-0.0025964756,0.06624663,-0.32561144,-9.289502,1.2401965
6.280272,4.873402,-0.092376366,-0.007922798,0.08222559,-0.30166942,-9.294291,1.292869
6.2804556,4.8732424,-0.092376366,-0.007922798,0.08222559,-0.30166942,-9.294291,1.292869
6.2806396,4.87307,-0.09557216,-0.015379649,0.09713929,-0.20111294,-9.260772,1.3072342
6.280823,4.872897,-0.09557216,-0.015379649,0.09713929,-0.20111294,-9.260772,1.3072342
6.2810163,4.872722,-0.09876795,-0.02496703,0.106726676,-0.18195933,-9.255983,1.3263878
6.281209,4.872547,-0.09876795,-0.02496703,0.106726676,-0.18195933,-9.255983,1.3263878
6.2813807,4.8723574,-0.10089848,-0.03455441,0.11418352,-0.08140286,-9.255983,1.3551182
6.281552,4.8721676,-0.10089848,-0.03455441,0.11418352,-0.08140286,-9.255983,1.3551182
6.2816496,4.8719645,-0.10302901,-0.043076526,0.11737932,0.033518825,-9.313444,1.3359646
6.281747,4.871762,-0.10302901,-0.043076526,0.11737932,0.033518825,-9.313444,1.3359646
6.2817726,4.8715754,-0.10515954,-0.051598642,0.11737932,0.15322891,-9.217676,1.340753
6.281798,4.8713884,-0.10515954,-0.051598642,0.11737932,0.15322891,-9.217676,1.340753
6.281821,4.8711987,-0.108355336,-0.057990227,0.11524879,0.20111294,-9.222465,1.2880806
6.2818437,4.871009,-0.108355336,-0.057990227,0.11524879,0.20111294,-9.222465,1.2880806
6.2818217,4.870844,-0.11155113,-0.06331655,0.1088572,0.2633622,-9.270349,1.3694834
6.2818,4.87068,-0.11155113,-0.06331655,0.1088572,0.2633622,-9.270349,1.3694834
6.2817516,4.870529,-0.11900798,-0.06864287,0.09713929,0.29688102,-9.150639,1.3934253
6.281703,4.8703794,-0.11900798,-0.06864287,0.09713929,0.29688102,-9.150639,1.3934253
6.2816343,4.8702445,-0.12646483,-0.07290393,0.08329086,0.32561144,-9.141062,1.436521
6.2815657,4.8701096,-0.12646483,-0.07290393,0.08329086,0.32561144,-9.141062,1.436521
6.281488,4.8699384,-0.13498695,-0.07609972,0.06624663,0.30645782,-9.150639,1.3742718
6.28141,4.869768,-0.13498695,-0.07609972,0.06624663,0.30645782,-9.150639,1.3742718
6.2813067,4.869616,-0.14457433,-0.079295516,0.049202394,0.37349546,-9.107543,1.4269443
6.2812047,4.869467,-0.14457433,-0.079295516,0.049202394,0.37349546,-9.107543,1.4269443
6.2810836,4.8692875,-0.15629223,-0.08249131,0.02896237,0.31124622,-9.078813,1.388637
6.2809606,4.8691063,-0.15629223,-0.08249131,0.02896237,0.31124622,-9.078813,1.388637
6.280828,4.868897,-0.16907541,-0.08355658,0.009787609,0.37828386,-9.074024,1.3215994
6.2806964,4.8686895,-0.16907541,-0.08355658,0.009787609,0.37828386,-9.074024,1.3215994
6.280533,4.868487,-0.18398911,-0.08355658,-0.012582945,0.33518824,-9.045294,1.3838485
6.280369,4.868284,-0.18398911,-0.08355658,-0.012582945,0.33518824,-9.045294,1.3838485
6.2802024,4.8680296,-0.19890282,-0.08462184,-0.036018763,0.40222588,-9.006987,1.2354081
6.280036,4.8677754,-0.19890282,-0.08462184,-0.036018763,0.40222588,-9.006987,1.2354081
6.2798424,4.8675065,-0.21594705,-0.08462184,-0.06158511,0.3878607,-9.002198,1.2497733
6.279649,4.867238,-0.21594705,-0.08462184,-0.06158511,0.3878607,-9.002198,1.2497733
6.2794337,4.866946,-0.2351218,-0.08355658,-0.08608619,0.40222588,-8.887277,1.2066777
6.279219,4.8666553,-0.2351218,-0.08355658,-0.08608619,0.40222588,-8.887277,1.2066777
6.278978,4.8663454,-0.25536183,-0.08355658,-0.11165254,0.4357447,-8.7771435,1.1779473
6.278736,4.8660355,-0.25536183,-0.08355658,-0.11165254,0.4357447,-8.7771435,1.1779473
6.2784724,4.865695,-0.27773237,-0.08249131,-0.14147994,0.3878607,-8.724471,1.1540052
6.278209,4.8653555,-0.27773237,-0.08249131,-0.14147994,0.3878607,-8.724471,1.1540052
6.2779408,4.8649707,-0.30329874,-0.08355658,-0.17450315,0.33997664,-8.643068,1.0390835
6.2776723,4.8645864,-0.30329874,-0.08355658,-0.17450315,0.33997664,-8.643068,1.0390835
6.277352,4.8641872,-0.32886508,-0.08675237,-0.20859161,0.37828386,-8.595184,1.0869676
6.2770314,4.863788,-0.32886508,-0.08675237,-0.20859161,0.37828386,-8.595184,1.0869676
6.276683,4.8633556,-0.35656196,-0.093143955,-0.24374533,0.40701428,-8.590396,1.0199299
6.276335,4.8629236,-0.35656196,-0.093143955,-0.24374533,0.40701428,-8.590396,1.0199299
6.2759423,4.862465,-0.38638934,-0.10166607,-0.28102958,0.47884035,-8.590396,0.9959879
6.27555,4.862006,-0.38638934,-0.10166607,-0.28102958,0.47884035,-8.590396,0.9959879
6.275114,4.8615236,-0.4151515,-0.110188186,-0.31724858,0.5650316,-8.571242,0.9720459
6.274678,4.8610415,-0.4151515,-0.110188186,-0.31724858,0.5650316,-8.571242,0.9720459
6.2741995,4.86053,-0.4449789,-0.11977556,-0.35772863,0.6512229,-8.561666,0.92416185
6.2737203,4.860019,-0.4449789,-0.11977556,-0.35772863,0.6512229,-8.561666,0.92416185
6.273186,4.8594885,-0.47267577,-0.13042821,-0.40246972,0.7230489,-8.595184,0.9624691
6.2726517,4.8589587,-0.47267577,-0.13042821,-0.40246972,0.7230489,-8.595184,0.9624691
6.272073,4.858399,-0.50037265,-0.14108086,-0.44721085,0.81881696,-8.643068,0.90500826
6.271494,4.8578396,-0.50037265,-0.14108086,-0.44721085,0.81881696,-8.643068,0.90500826
6.2708592,4.857259,-0.53020006,-0.15279876,-0.49408248,1.0486604,-8.66701,0.8858546
6.2702246,4.856678,-0.53020006,-0.15279876,-0.49408248,1.0486604,-8.66701,0.8858546
6.2695355,4.856069,-0.5589622,-0.16558194,-0.54628044,1.2354081,-8.671799,0.81402856
6.268846,4.85546,-0.5589622,-0.16558194,-0.54628044,1.2354081,-8.671799,0.81402856
6.268097,4.854825,-0.5887896,-0.17516932,-0.60273945,1.4317327,-8.566454,0.7661445
6.267348,4.85419,-0.5887896,-0.17516932,-0.60273945,1.4317327,-8.566454,0.7661445
6.26652,4.8535237,-0.6250086,-0.18369143,-0.66772056,1.4556746,-8.595184,0.89064306
6.26652,4.8535237,-0.6250086,-0.18369143,-0.66772056,1.4556746,-8.595184,0.89064306
6.2647877,4.8521595,-0.6612276,-0.19221355,-0.7369628,1.8674773,-8.537724,0.91458505
6.2639303,4.851502,-0.6612276,-0.19221355,-0.7369628,1.8674773,-8.537724,0.91458505
6.262955,4.85079,-0.6995771,-0.19860514,-0.8221839,2.054225,-8.552089,0.9959879
6.2619634,4.8500667,-0.6995771,-0.19860514,-0.8221839,2.054225,-8.552089,0.9959879
6.260893,4.8493123,-0.74325293,-0.20073566,-0.91805774,2.111686,-8.614338,1.0055647
6.2598186,4.8485556,-0.74325293,-0.20073566,-0.91805774,2.111686,-8.614338,1.0055647
6.258637,4.8477545,-0.7922551,-0.20180093,-1.0181926,2.0733786,-8.590396,1.1300632
6.2574635,4.846959,-0.7922551,-0.20180093,-1.0181926,2.0733786,-8.590396,1.1300632
6.256184,4.846116,-0.8433878,-0.20393145,-1.1215233,2.0638018,-8.6574335,1.2018893
6.2548704,4.84525,-0.8433878,-0.20393145,-1.1215233,2.0638018,-8.6574335,1.2018893
6.253506,4.8443727,-0.89345527,-0.20606199,-1.2259191,2.0638018,-8.743625,1.2545617
6.2521334,4.8434906,-0.89345527,-0.20606199,-1.2259191,2.0638018,-8.743625,1.2545617
6.2506495,4.842551,-0.9456532,-0.20712726,-1.3324456,1.9632454,-8.825027,1.2306197
6.249164,4.841612,-0.9456532,-0.20712726,-1.3324456,1.9632454,-8.825027,1.2306197
6.247574,4.8406134,-0.9967859,-0.20712726,-1.4357762,1.8770541,-8.949526,1.1540052
6.2459836,4.839616,-0.9967859,-0.20712726,-1.4357762,1.8770541,-8.949526,1.1540052
6.244295,4.8385696,-1.0447228,-0.20606199,-1.5348458,1.7477672,-9.045294,1.1492168
6.2426085,4.837526,-1.0447228,-0.20606199,-1.5348458,1.7477672,-9.045294,1.1492168
6.2408314,4.8364115,-1.089464,-0.20712726,-1.6275239,1.6519991,-9.184157,0.92416185
6.2390537,4.835298,-1.089464,-0.20712726,-1.6275239,1.6519991,-9.184157,0.92416185
6.2371926,4.8341374,-1.1310092,-0.20606199,-1.7138103,1.7286136,-9.346964,0.8619126
6.2353253,4.832974,-1.1310092,-0.20606199,-1.7138103,1.7286136,-9.346964,0.8619126
6.2333875,4.8317738,-1.1693587,-0.20393145,-1.7969009,1.9057846,-9.409213,0.7661445
6.231447,4.830572,-1.1693587,-0.20393145,-1.7969009,1.9057846,-9.409213,0.7661445
6.2294183,4.8293304,-1.2098387,-0.20180093,-1.8842525,2.135628,-9.390059,0.7038953
6.2273893,4.8280888,-1.2098387,-0.20180093,-1.8842525,2.135628,-9.390059,0.7038953
6.225261,4.826809,-1.2545799,-0.19540934,-1.9748001,2.3463178,-9.232041,0.7661445
6.2230163,4.82546,-1.2545799,-0.19540934,-1.9748001,2.3463178,-9.232041,0.7661445
6.2208695,4.824197,-1.3014516,-0.18901776,-2.079196,2.585738,-9.126697,0.8714894
6.2187004,4.8229218,-1.3014516,-0.18901776,-2.079196,2.585738,-9.126697,0.8714894
6.216361,4.8215694,-1.3536495,-0.1815609,-2.1953099,2.7629087,-8.973468,0.93852705
6.21402,4.820217,-1.3536495,-0.1815609,-2.1953099,2.7629087,-8.973468,0.93852705
6.2115564,4.8188105,-1.4133043,-0.1730388,-2.321011,2.882619,-8.839393,0.9624691
6.209096,4.8174067,-1.4133043,-0.1730388,-2.321011,2.882619,-8.839393,0.9624691
6.2064857,4.815933,-1.4793507,-0.1666472,-2.4594953,3.0071173,-8.695741,0.9672575
6.203886,4.8144655,-1.4793507,-0.1666472,-2.4594953,3.0071173,-8.695741,0.9672575
6.2011437,4.8129296,-1.5517887,-0.16238615,-2.6086323,3.0214825,-8.590396,0.93373865
6.198396,4.811392,-1.5517887,-0.16238615,-2.6086323,3.0214825,-8.590396,0.93373865
6.1954846,4.8097725,-1.6284877,-0.16132088,-2.764161,3.0358477,-8.48984,0.8858546
6.192527,4.8081274,-1.6284877,-0.16132088,-2.764161,3.0358477,-8.48984,0.8858546
6.192527,4.8081274,-1.6284877,-0.16132088,-2.764161,3.0358477,-8.48984,0.8858546
6.1863847,4.8046913,-1.7094479,-0.16558194,-2.9282117,3.2800562,-8.461109,0.48362875
6.1830087,4.802808,-1.7904079,-0.18369143,-3.1061108,3.5817258,-8.523358,0.16280572
6.1798406,4.8010397,-1.7904079,-0.18369143,-3.1061108,3.5817258,-8.523358,0.16280572
6.1798406,4.8010397,-1.7904079,-0.18369143,-3.1061108,3.5817258,-8.523358,0.16280572
6.1709313,4.7961674,-1.9416754,-0.24973783,-3.488541,3.8881836,-8.599973,0.6464345
6.1709313,4.7961674,-1.9416754,-0.24973783,-3.488541,3.8881836,-8.599973,0.6464345
6.165666,4.7933574,-1.9416754,-0.24973783,-3.488541,3.8881836,-8.599973,0.6464345
6.165666,4.7933574,-2.0023956,-0.27317366,-3.6845496,4.146757,-8.590396,0.842759
6.1615386,4.79121,-2.0023956,-0.27317366,-3.6845496,4.146757,-8.590396,0.842759
6.1541557,4.7874174,-2.0599198,-0.2838263,-3.888015,4.271256,-8.355764,0.8475474
6.150133,4.7853737,-2.0599198,-0.2838263,-3.888015,4.271256,-8.355764,0.8475474
6.1458964,4.783266,-2.1185093,-0.28595683,-4.0978723,4.333505,-7.9870567,0.7134721
6.141656,4.781156,-2.1185093,-0.28595683,-4.0978723,4.333505,-7.9870567,0.7134721
6.141656,4.781156,-2.1185093,-0.28595683,-4.0978723,4.333505,-7.9870567,0.7134721
6.141656,4.781156,-2.1185093,-0.28595683,-4.0978723,4.333505,-7.9870567,0.7134721
6.1281905,4.774582,-2.2633853,-0.27849996,-4.5271735,4.4005427,-7.441179,0.58418524
6.123513,4.772321,-2.2633853,-0.27849996,-4.5271735,4.4005427,-7.441179,0.58418524
6.1186166,4.769963,-2.3539329,-0.27104312,-4.745553,4.4675803,-7.264008,0.35913026
6.113715,4.767601,-2.3539329,-0.27104312,-4.745553,4.4675803,-7.264008,0.35913026
6.108615,4.7651443,-2.4561982,-0.26039046,-4.9649973,4.534618,-7.273585,0.23463176
6.1035147,4.7626853,-2.4561982,-0.26039046,-4.9649973,4.534618,-7.273585,0.23463176
6.0981684,4.7601056,-2.564855,-0.24654204,-5.1855073,4.4819455,-7.40766,0.18195933
6.092854,4.7575393,-2.564855,-0.24654204,-5.1855073,4.4819455,-7.40766,0.18195933
6.087296,4.7548428,-2.6788385,-0.2326936,-5.4081473,4.3382936,-7.52737,0.019153614
6.081755,4.7521515,-2.6788385,-0.2326936,-5.4081473,4.3382936,-7.52737,0.019153614
6.075973,4.749335,-2.789626,-0.22417149,-5.627592,4.1802764,-7.651869,-0.05267244
6.070214,4.7465267,-2.789626,-0.22417149,-5.627592,4.1802764,-7.651869,-0.05267244
6.0642295,4.7435927,-2.8961525,-0.22417149,-5.8438406,3.8642416,-7.843405,-0.20111294
6.0582695,4.740667,-2.8961525,-0.22417149,-5.8438406,3.8642416,-7.843405,-0.20111294
6.0520816,4.737612,-2.9973526,-0.2326936,-6.0526323,3.4476504,-7.991845,-0.25378537
6.0458937,4.7345533,-2.9973526,-0.2326936,-6.0526323,3.4476504,-7.991845,-0.25378537
6.0395236,4.7313795,-3.0900304,-0.2561294,-6.2422495,3.371036,-8.106767,-0.38307226
6.033154,4.7282,-3.0900304,-0.2561294,-6.2422495,3.371036,-8.106767,-0.38307226
6.026614,4.7249184,-3.1731212,-0.28595683,-6.416953,3.4237084,-8.073248,-0.49320555
6.020075,4.72163,-3.1731212,-0.28595683,-6.416953,3.4237084,-8.073248,-0.49320555
6.0133815,4.7182393,-3.2476897,-0.3200453,-6.583134,3.2082303,-8.135497,-0.5315128
6.0066767,4.7148333,-3.2476897,-0.3200453,-6.583134,3.2082303,-8.135497,-0.5315128
5.999842,4.7113366,-3.3158667,-0.35946006,-6.7386627,3.1555579,-8.1163435,-0.62728083
5.993045,4.7078466,-3.3158667,-0.35946006,-6.7386627,3.1555579,-8.1163435,-0.62728083
5.986063,4.7042456,-3.3797824,-0.40313593,-6.888865,3.1507695,-8.1402855,-0.6512229
5.979064,4.70062,-3.3797824,-0.40313593,-6.888865,3.1507695,-8.1402855,-0.6512229
5.971953,4.69692,-3.4394374,-0.4542686,-7.0348063,3.1842883,-8.240842,-0.6560113
5.9648542,4.6932087,-3.4394374,-0.4542686,-7.0348063,3.1842883,-8.240842,-0.6560113
5.95765,4.6893916,-3.4969616,-0.5075318,-7.1722255,3.0502129,-8.422802,-0.7086837
5.9504566,4.6855574,-3.4969616,-0.5075318,-7.1722255,3.0502129,-8.422802,-0.7086837
5.9431896,4.681634,-3.5480943,-0.5629256,-7.304318,2.8921957,-8.604761,-0.6943185
5.935942,4.677696,-3.5480943,-0.5629256,-7.304318,2.8921957,-8.604761,-0.6943185
5.9286585,4.673711,-3.5939007,-0.62364566,-7.4257584,2.4372973,-8.944737,-0.7086837
5.921385,4.6697145,-3.5939007,-0.62364566,-7.4257584,2.4372973,-8.944737,-0.7086837
5.9140234,4.665639,-3.63225,-0.69288784,-7.524828,2.7581203,-9.059659,-0.62249243
5.9066725,4.661553,-3.63225,-0.69288784,-7.524828,2.7581203,-9.059659,-0.62249243
5.89925,4.657399,-3.6610124,-0.7642606,-7.6100492,2.657564,-9.390059,-0.6607997
5.8918486,4.6532373,-3.6610124,-0.7642606,-7.6100492,2.657564,-9.390059,-0.6607997
5.884347,4.6489954,-3.6812522,-0.8324375,-7.6920743,2.1260512,-9.730036,-0.6943185
5.8768806,4.6447477,-3.6812522,-0.8324375,-7.6920743,2.1260512,-9.730036,-0.6943185
5.8693395,4.640414,-3.691905,-0.9016797,-7.754925,1.5945383,-10.0269165,-0.866701
5.8618197,4.6360645,-3.691905,-0.9016797,-7.754925,1.5945383,-10.0269165,-0.866701
5.854256,4.6316357,-3.6908398,-0.9805092,-7.79647,1.3790601,-10.25676,-1.0534488
5.846715,4.6271887,-3.6908398,-0.9805092,-7.79647,1.3790601,-10.25676,-1.0534488
5.8391633,4.6226683,-3.6823175,-1.0731872,-7.81458,1.283292,-10.505757,-1.1731589
5.8316197,4.618118,-3.6823175,-1.0731872,-7.81458,1.283292,-10.505757,-1.1731589
5.8240933,4.6135006,-3.6652734,-1.1775832,-7.815645,1.2306197,-10.70687,-1.2306197
5.8165755,4.6088495,-3.6652734,-1.1775832,-7.815645,1.2306197,-10.70687,-1.2306197
5.8090944,4.60413,-3.639707,-1.289436,-7.800731,1.2354081,-10.840945,-1.3503298
5.8016224,4.5993733,-3.639707,-1.289436,-7.800731,1.2354081,-10.840945,-1.3503298
5.7941947,4.5945344,-3.6098795,-1.4119414,-7.766643,1.9009962,-10.989386,-1.4269443
5.786808,4.5896764,-3.6098795,-1.4119414,-7.766643,1.9009962,-10.989386,-1.4269443
5.779471,4.5847263,-3.5757911,-1.5365773,-7.721902,2.8921957,-10.998962,-1.5227122
5.7721825,4.5797606,-3.5757911,-1.5365773,-7.721902,2.8921957,-10.998962,-1.5227122
5.764923,4.5747056,-3.5395722,-1.6505606,-7.6920743,3.4284968,-11.032481,-1.5466543
5.757677,4.569607,-3.5395722,-1.6505606,-7.6920743,3.4284968,-11.032481,-1.5466543
5.7504725,4.564436,-3.5012226,-1.752826,-7.6792912,3.6727054,-11.128249,-1.6807296
5.7432833,4.559219,-3.5012226,-1.752826,-7.6792912,3.6727054,-11.128249,-1.6807296
5.736121,4.5539317,-3.4596772,-1.8518956,-7.682487,3.7062242,-11.195287,-1.7621324
5.729075,4.54867,-3.4596772,-1.8518956,-7.682487,3.7062242,-11.195287,-1.7621324
5.7219496,4.5432625,-3.4160016,-1.9605526,-7.69527,3.916914,-11.310209,-1.7046716
5.7147207,4.537709,-3.4160016,-1.9605526,-7.69527,3.916914,-11.310209,-1.7046716
5.707622,4.5321584,-3.36913,-2.079862,-7.709119,4.3526587,-11.544841,-1.6519991
5.7006125,4.5266066,-3.36913,-2.079862,-7.709119,4.3526587,-11.544841,-1.6519991
5.6935663,4.5209174,-3.3201277,-2.211955,-7.721902,4.8123455,-11.712435,-1.5514427
5.6865187,4.5151496,-3.3201277,-2.211955,-7.721902,4.8123455,-11.712435,-1.5514427
5.6795197,4.509308,-3.2636685,-2.353635,-7.73575,5.281609,-11.918336,-1.4269443
5.6725636,4.503417,-3.2636685,-2.353635,-7.73575,5.281609,-11.918336,-1.4269443
5.665626,4.4974093,-3.196557,-2.4995763,-7.7464027,5.6551046,-12.095507,-1.4508862
5.658726,4.491343,-3.196557,-2.4995763,-7.7464027,5.6551046,-12.095507,-1.4508862
5.658726,4.491343,-3.196557,-2.4995763,-7.7464027,5.6551046,-12.095507,-1.4508862
5.6502037,4.4836774,-3.1166623,-2.6465828,-7.754925,5.8945246,-12.258312,-1.3311762
5.6379867,4.472377,-3.0250494,-2.7957199,-7.7570558,6.081272,-12.425907,-1.3072342
5.6313076,4.4660344,-3.0250494,-2.7957199,-7.7570558,6.081272,-12.425907,-1.3072342
5.6246495,4.459557,-2.9217188,-2.944857,-7.7453375,6.3111157,-12.540829,-1.3072342
5.618081,4.453056,-2.9217188,-2.944857,-7.7453375,6.3111157,-12.540829,-1.3072342
5.6115403,4.446418,-2.805605,-3.0918634,-7.7155104,6.6415157,-12.5504055,-1.3503298
5.605007,4.439665,-2.805605,-3.0918634,-7.7155104,6.6415157,-12.5504055,-1.3503298
5.5985823,4.432846,-2.680969,-3.2324784,-7.666508,7.153875,-12.5982895,-1.4652514
5.5922437,4.4259915,-2.680969,-3.2324784,-7.666508,7.153875,-12.5982895,-1.4652514
5.5859876,4.419048,-2.552072,-3.3581796,-7.6004615,7.771579,-12.53604,-1.5753847
5.5798,4.4120455,-2.552072,-3.3581796,-7.6004615,7.771579,-12.53604,-1.5753847
5.5737286,4.4049964,-2.419979,-3.4668365,-7.524828,8.389283,-12.488156,-1.7525556
5.567697,4.3978524,-2.419979,-3.4668365,-7.524828,8.389283,-12.488156,-1.7525556
5.5617876,4.390689,-2.290017,-3.5477965,-7.441737,8.901642,-12.373235,-1.8579005
5.5559435,4.3834567,-2.290017,-3.5477965,-7.441737,8.901642,-12.373235,-1.8579005
5.550218,4.376223,-2.1621852,-3.6042557,-7.35332,9.481039,-12.842498,-1.6424223
5.544525,4.368877,-2.1621852,-3.6042557,-7.35332,9.481039,-12.842498,-1.6424223
5.5389338,4.3613057,-2.0311577,-3.6362135,-7.2542505,7.2592196,-6.493075,-4.745308
5.5334015,4.353649,-2.0311577,-3.6362135,-7.2542505,7.2592196,-6.493075,-4.745308
5.5279465,4.346202,-1.9544586,-3.6692367,-7.1530504,12.215217,-10.759542,-1.4077905
5.5225663,4.338695,-1.9544586,-3.6692367,-7.1530504,12.215217,-10.759542,-1.4077905
5.5173645,4.331053,-1.927827,-3.7331526,-7.0902,10.175357,-14.504074,0.5363012
5.512235,4.3233504,-1.927827,-3.7331526,-7.0902,10.175357,-14.504074,0.5363012
5.507146,4.3157225,-1.8074522,-3.6873462,-6.994326,13.88637,-12.41633,-1.0773908
5.502106,4.3079967,-1.8074522,-3.6873462,-6.994326,13.88637,-12.41633,-1.0773908
5.497084,4.300445,-1.6348794,-3.549927,-6.8899302,15.916653,-10.548853,-2.3798366
5.492125,4.292822,-1.6348794,-3.549927,-6.8899302,15.916653,-10.548853,-2.3798366
5.4872475,4.2855563,-1.484677,-3.2900026,-6.731206,16.429012,-10.5919485,-2.4708161
5.4824095,4.2781935,-1.484677,-3.2900026,-6.731206,16.429012,-10.5919485,-2.4708161
5.4776516,4.2712884,-1.3621716,-2.933139,-6.5234795,16.189592,-10.563218,-2.2266076
5.4729476,4.2643194,-1.3621716,-2.933139,-6.5234795,16.189592,-10.563218,-2.2266076
5.4683003,4.257836,-1.2567104,-2.5294037,-6.2869906,16.170439,-10.563218,-1.8387469
5.463711,4.2513056,-1.2567104,-2.5294037,-6.2869906,16.170439,-10.563218,-1.8387469
5.459187,4.2452946,-1.166163,-2.115016,-6.034523,15.093047,-10.572795,-1.6950948
5.4547157,4.239242,-1.166163,-2.115016,-6.034523,15.093047,-10.572795,-1.6950948
5.4502873,4.2336807,-1.0766808,-1.7229986,-5.789512,13.852851,-9.959879,-1.7717092
5.4458885,4.2280593,-1.0766808,-1.7229986,-5.789512,13.852851,-9.959879,-1.7717092
5.441584,4.2229505,-0.9946554,-1.3778529,-5.564741,13.335704,-9.662998,-1.6472107
5.4372835,4.217762,-0.9946554,-1.3778529,-5.564741,13.335704,-9.662998,-1.6472107
5.433035,4.2129984,-0.92008686,-1.0710567,-5.35808,13.125013,-9.734824,-1.6184803
5.4288177,4.2081943,-0.92008686,-1.0710567,-5.35808,13.125013,-9.734824,-1.6184803
5.4246426,4.2038083,-0.8465836,-0.77917427,-5.1684628,12.737153,-9.691729,-1.6567876
5.42048,4.1993666,-0.8465836,-0.77917427,-5.1684628,12.737153,-9.691729,-1.6567876
5.4163394,4.1953363,-0.7688193,-0.4958139,-4.9926944,12.243947,-9.619903,-1.8531121
5.4122376,4.1912837,-0.7688193,-0.4958139,-4.9926944,12.243947,-9.619903,-1.8531121
5.4081426,4.1876364,-0.6846634,-0.21991043,-4.827578,11.439496,-9.442732,-2.1787236
5.4040675,4.1839547,-0.6846634,-0.21991043,-4.827578,11.439496,-9.442732,-2.1787236
5.400049,4.1807065,-0.59518117,0.03681831,-4.6677885,10.400413,-9.165004,-2.3942018
5.396032,4.177414,-0.59518117,0.03681831,-4.6677885,10.400413,-9.165004,-2.3942018
5.3920646,4.174507,-0.50676423,0.2647849,-4.51226,9.303867,-8.935161,-2.5330653
5.3880963,4.1715593,-0.50676423,0.2647849,-4.51226,9.303867,-8.935161,-2.5330653
5.384208,4.1689663,-0.42260835,0.45440197,-4.355666,8.355764,-8.51857,-2.7341783
5.380315,4.166334,-0.42260835,0.45440197,-4.355666,8.355764,-8.51857,-2.7341783
5.376509,4.164008,-0.34164825,0.60780007,-4.196942,7.4268136,-8.159439,-2.9017725
5.3727117,4.1616564,-0.34164825,0.60780007,-4.196942,7.4268136,-8.159439,-2.9017725
5.3690095,4.1595755,-0.26707974,0.7303055,-4.032891,6.3925185,-7.752425,-2.9640217
5.3653216,4.1574755,-0.26707974,0.7303055,-4.032891,6.3925185,-7.752425,-2.9640217
5.3617353,4.1556225,-0.19570702,0.825114,-3.8645792,5.363012,-7.359776,-2.9592333
5.3581257,4.153734,-0.19570702,0.825114,-3.8645792,5.363012,-7.359776,-2.9592333
5.3546534,4.152077,-0.12859535,0.89542145,-3.6920063,4.232949,-6.9048777,-3.0310593
5.3511934,4.1504054,-0.12859535,0.89542145,-3.6920063,4.232949,-6.9048777,-3.0310593
5.347852,4.148937,-0.06574476,0.94548887,-3.5109115,3.0933087,-6.421249,-3.074155
5.347852,4.148937,-0.06574476,0.94548887,-3.5109115,3.0933087,-6.421249,-3.074155
5.3411126,4.1460166,-0.0039594183,0.97425103,-3.3170333,2.1739352,-5.8562174,-3.2034419
5.3379297,4.1447134,-0.0039594183,0.97425103,-3.3170333,2.1739352,-5.8562174,-3.2034419
5.3349886,4.1436234,0.05356486,0.9817079,-3.110372,1.4508862,-5.233725,-3.2082303
5.331895,4.1424646,0.05356486,0.9817079,-3.110372,1.4508862,-5.233725,-3.2082303
5.331895,4.1424646,0.05356486,0.9817079,-3.110372,1.4508862,-5.233725,-3.2082303
5.328357,4.1412573,0.106828086,0.9689247,-2.893058,0.92416185,-4.5777135,-3.2848446
5.3253903,4.1402316,0.106828086,0.9689247,-2.893058,0.92416185,-4.5777135,-3.2848446
5.3210993,4.1388865,0.15476498,0.94016254,-2.6682873,0.6847417,-4.074931,-3.3375173
5.3210993,4.1388865,0.15476498,0.94016254,-2.6682873,0.6847417,-4.074931,-3.3375173
5.316302,4.137494,0.19844083,0.89542145,-2.4403207,0.5650316,-3.4524388,-3.466804
5.3141146,4.1369057,0.23785561,0.8378972,-2.2144847,0.6560113,-2.920926,-3.596091
5.311926,4.1363106,0.23785561,0.8378972,-2.2144847,0.6560113,-2.920926,-3.596091
5.3099523,4.1357975,0.26768303,0.76758975,-1.9961053,0.91937345,-2.4277205,-3.7493198
5.3099523,4.1357975,0.26768303,0.76758975,-1.9961053,0.91937345,-2.4277205,-3.7493198
5.306129,4.134794,0.2889883,0.68556434,-1.7883788,1.2497733,-1.9009962,-3.8498764
5.304352,4.1343246,0.2889883,0.68556434,-1.7883788,1.2497733,-1.9009962,-3.8498764
5.3027735,4.1338906,0.303902,0.59395164,-1.5934354,1.685518,-1.508347,-3.7972038
5.301195,4.1334534,0.303902,0.59395164,-1.5934354,1.685518,-1.508347,-3.7972038
5.2997837,4.133014,0.31135887,0.49381676,-1.4176668,2.2744915,-1.1252748,-3.763685
5.298368,4.1325717,0.31135887,0.49381676,-1.4176668,2.2744915,-1.1252748,-3.763685
5.2971478,4.1321235,0.31135887,0.39048612,-1.2568119,3.0023289,-0.81881696,-3.715801
5.295912,4.1316667,0.31135887,0.39048612,-1.2568119,3.0023289,-0.81881696,-3.715801
5.294816,4.1311827,0.30496728,0.29248178,-1.1161969,3.845088,-0.49799395,-3.7110126
5.2937207,4.1306953,0.30496728,0.29248178,-1.1161969,3.845088,-0.49799395,-3.7110126
5.292745,4.1301813,0.2921841,0.2051301,-0.995822,4.735731,-0.29688102,-3.667917
5.291768,4.1296644,0.2921841,0.2051301,-0.995822,4.735731,-0.29688102,-3.667917
5.2909017,4.1291304,0.27513987,0.13375737,-0.8924914,5.4922986,-0.11971009,-3.6966474
5.29003,4.1285915,0.27513987,0.13375737,-0.8924914,5.4922986,-0.11971009,-3.6966474
5.2892556,4.128043,0.25170404,0.08049415,-0.8019439,6.157887,-0.11492168,-3.7684734
5.28848,4.127491,0.25170404,0.08049415,-0.8019439,6.157887,-0.11492168,-3.7684734
5.2877817,4.126935,0.22187665,0.04427516,-0.72631013,6.703765,-0.02873042,-3.8019924
5.287077,4.1263714,0.22187665,0.04427516,-0.72631013,6.703765,-0.02873042,-3.8019924
5.2864366,4.1258087,0.18672292,0.022969872,-0.6645248,7.2687964,-0.02873042,-3.86903
5.2857924,4.1252413,0.18672292,0.022969872,-0.6645248,7.2687964,-0.02873042,-3.86903
5.2851977,4.1246758,0.14730814,0.014447756,-0.6101963,7.704541,-0.1436521,-3.9073372
5.2845993,4.124105,0.14730814,0.014447756,-0.6101963,7.704541,-0.1436521,-3.9073372
5.2840405,4.12354,0.10363229,0.01551302,-0.5622594,8.0445175,-0.20111294,-3.916914
5.2834773,4.122969,0.10363229,0.01551302,-0.5622594,8.0445175,-0.20111294,-3.916914
5.2829432,4.122408,0.055695392,0.028296193,-0.5207141,8.236053,-0.34955344,-3.892972
5.2823763,4.1218104,0.055695392,0.028296193,-0.5207141,8.236053,-0.34955344,-3.892972
5.281885,4.121287,0.0077584907,0.04853622,-0.48662564,8.499416,-0.56982,-3.8881836
5.281376,4.120743,0.0077584907,0.04853622,-0.48662564,8.499416,-0.56982,-3.8881836
5.281376,4.120743,0.0077584907,0.04853622,-0.48662564,8.499416,-0.56982,-3.8881836
5.2803574,4.119651,-0.041243672,0.073037304,-0.45573297,8.604761,-0.7374141,-3.8546648
5.279861,4.1191206,-0.08811531,0.10179944,-0.4280361,8.63828,-0.90979666,-3.8977604
5.2793636,4.118587,-0.08811531,0.10179944,-0.4280361,8.63828,-0.90979666,-3.8977604
5.278873,4.118065,-0.13392168,0.13162684,-0.40246972,8.652645,-1.1252748,-3.9504328
5.278382,4.117541,-0.13392168,0.13162684,-0.40246972,8.652645,-1.1252748,-3.9504328
5.2778964,4.1170297,-0.17653225,0.16038899,-0.38009918,8.604761,-1.283292,-3.9456444
5.2774105,4.1165175,-0.17653225,0.16038899,-0.38009918,8.604761,-1.283292,-3.9456444
5.2769365,4.1160164,-0.21381652,0.18489006,-0.35666338,8.461109,-1.5179238,-3.9504328
5.276463,4.1155148,-0.21381652,0.18489006,-0.35666338,8.461109,-1.5179238,-3.9504328
5.2759967,4.115025,-0.24790499,0.2051301,-0.3342928,8.422802,-1.7046716,-3.8738184
5.27553,4.114534,-0.24790499,0.2051301,-0.3342928,8.422802,-1.7046716,-3.8738184
5.275072,4.114052,-0.2798629,0.2200438,-0.3129875,8.317456,-1.9632454,-3.6966474
5.2746143,4.1135693,-0.2798629,0.2200438,-0.3129875,8.317456,-1.9632454,-3.6966474
5.2741737,4.113099,-0.30542925,0.23282696,-0.28742117,8.154651,-2.1308396,-3.6152446
5.2737327,4.112628,-0.30542925,0.23282696,-0.28742117,8.154651,-2.1308396,-3.6152446
5.2733207,4.112164,-0.32779983,0.23921856,-0.2597243,7.9248075,-2.3750482,-3.5482068
5.2729087,4.111699,-0.32779983,0.23921856,-0.2597243,7.9248075,-2.3750482,-3.5482068
5.272526,4.1112423,-0.34484404,0.23921856,-0.23096216,7.85777,-2.542642,-3.514688
5.2721434,4.110784,-0.34484404,0.23921856,-0.23096216,7.85777,-2.542642,-3.514688
5.271779,4.110342,-0.35656196,0.2349575,-0.20006949,7.872135,-2.7102363,-3.3135753
5.2714157,4.1099005,-0.35656196,0.2349575,-0.20006949,7.872135,-2.7102363,-3.3135753
5.2711134,4.109455,-0.3640188,0.22643538,-0.1670463,7.359776,-1.9201498,-3.964798
5.27081,4.109008,-0.3640188,0.22643538,-0.1670463,7.359776,-1.9201498,-3.964798
5.270483,4.1086054,-0.37786725,0.21471748,-0.13295783,8.408437,-2.6719291,-3.169923
5.270155,4.108202,-0.37786725,0.21471748,-0.13295783,8.408437,-2.6719291,-3.169923
5.26999,4.108177,-0.40449885,0.19980377,-0.10099989,7.599196,-4.381389,-2.336741
5.269825,4.108153,-0.40449885,0.19980377,-0.10099989,7.599196,-4.381389,-2.336741
5.269601,4.1077347,-0.39597675,0.18915112,-0.06691143,8.48984,-3.7924154,-3.2369606
5.2693768,4.107316,-0.39597675,0.18915112,-0.06691143,8.48984,-3.7924154,-3.2369606
5.269166,4.1069646,-0.37360618,0.19341218,-0.029627176,9.174581,-3.572149,-3.5673606
5.268955,4.106613,-0.37360618,0.19341218,-0.029627176,9.174581,-3.572149,-3.5673606
5.2687635,4.1063757,-0.36295354,0.22643538,0.02683184,9.193734,-3.8163576,-3.442862
5.268573,4.1061378,-0.36295354,0.22643538,0.02683184,9.193734,-3.8163576,-3.442862
5.2684994,4.106021,-0.35869247,0.27330703,0.09074771,8.810662,-4.4196963,-3.2609026
5.2684255,4.1059046,-0.35869247,0.27330703,0.09074771,8.810662,-4.4196963,-3.2609026
5.2684774,4.1060123,-0.35123563,0.30846074,0.1567941,8.51857,-4.4675803,-3.2034419
5.2685285,4.106119,-0.35123563,0.30846074,0.1567941,8.51857,-4.4675803,-3.2034419
5.2686453,4.1063833,-0.3373872,0.3244397,0.21857944,8.389283,-4.5202527,-3.1794999
5.2687593,4.1066403,-0.3373872,0.3244397,0.21857944,8.389283,-4.5202527,-3.1794999
5.2688932,4.1071787,-0.3192777,0.32337445,0.27184266,8.772355,-4.735731,-3.0789435
5.269028,4.1077166,-0.3192777,0.32337445,0.27184266,8.772355,-4.735731,-3.0789435
5.2691755,4.1083384,-0.29903767,0.31804812,0.32297537,8.968679,-4.9799395,-3.0214825
5.2693233,4.10896,-0.29903767,0.31804812,0.32297537,8.968679,-4.9799395,-3.0214825
5.269518,4.109662,-0.27240607,0.32337445,0.37730384,9.059659,-5.094861,-3.0454245
5.2697124,4.110362,-0.27240607,0.32337445,0.37730384,9.059659,-5.094861,-3.0454245
5.2699456,4.1111665,-0.24044813,0.34041867,0.4326976,9.064447,-5.363012,-2.96881
5.2701797,4.1119704,-0.24044813,0.34041867,0.4326976,9.064447,-5.363012,-2.96881
5.270454,4.112885,-0.20422913,0.36491975,0.48809135,9.040505,-5.3821654,-3.0023289
5.270729,4.113798,-0.20422913,0.36491975,0.48809135,9.040505,-5.3821654,-3.0023289
5.2710147,4.114851,-0.16587962,0.39474717,0.5456156,9.035717,-5.2624555,-2.9161377
5.2713017,4.115903,-0.16587962,0.39474717,0.5456156,9.035717,-5.2624555,-2.9161377
5.271595,4.1170816,-0.13072589,0.42563984,0.5999441,9.054871,-5.171476,-2.8395233
5.271888,4.1182566,-0.13072589,0.42563984,0.5999441,9.054871,-5.171476,-2.8395233
5.272188,4.119549,-0.10089848,0.45866305,0.64788103,9.02614,-5.209783,-2.6479871
5.2724886,4.1208377,-0.10089848,0.45866305,0.64788103,9.02614,-5.209783,-2.6479871
5.272809,4.12223,-0.07426687,0.49062097,0.6904916,8.839393,-5.2385135,-2.480393
5.27313,4.123621,-0.07426687,0.49062097,0.6904916,8.839393,-5.2385135,-2.480393
5.2734704,4.1251154,-0.04443947,0.5204484,0.7320369,8.571242,-5.1379566,-2.3511062
5.2738123,4.126608,-0.04443947,0.5204484,0.7320369,8.571242,-5.1379566,-2.3511062
5.274183,4.1282024,-0.017807856,0.5502758,0.7735822,8.303091,-5.142745,-2.2505496
5.2745547,4.129796,-0.017807856,0.5502758,0.7735822,8.303091,-5.142745,-2.2505496
5.2749643,4.1314774,0.00988902,0.5769074,0.8183233,8.0924015,-5.1762643,-2.2649148
5.2753773,4.133162,0.00988902,0.5769074,0.8183233,8.0924015,-5.1762643,-2.2649148
5.275825,4.1349473,0.041846953,0.59821266,0.865195,7.8529816,-5.0374002,-2.2457612
5.2762747,4.1367292,0.041846953,0.59821266,0.865195,7.8529816,-5.0374002,-2.2457612
5.2767696,4.138605,0.07167436,0.6184527,0.9152624,7.714118,-5.142745,-2.2266076
5.277265,4.140476,0.07167436,0.6184527,0.9152624,7.714118,-5.142745,-2.2266076
5.2778063,4.142445,0.10363229,0.6376275,0.9695909,7.489063,-5.0278234,-2.2170308
5.278349,4.14441,0.10363229,0.6376275,0.9695909,7.489063,-5.0278234,-2.2170308
5.2789407,4.146463,0.13559023,0.65467167,1.0217888,7.345411,-5.0613422,-2.2409728
5.279535,4.148511,0.13559023,0.65467167,1.0217888,7.345411,-5.0613422,-2.2409728
5.280169,4.150648,0.16754816,0.66745484,1.075052,7.177817,-4.9464207,-2.183512
5.280806,4.1527805,0.16754816,0.66745484,1.075052,7.177817,-4.9464207,-2.183512
5.2814903,4.154993,0.19844083,0.67704225,1.1272501,7.0820484,-4.9416323,-2.1787236
5.2821765,4.157196,0.19844083,0.67704225,1.1272501,7.0820484,-4.9416323,-2.1787236
5.282899,4.159479,0.22720297,0.6844991,1.1773175,7.053318,-5.046977,-2.087744
5.2836246,4.1617584,0.22720297,0.6844991,1.1773175,7.053318,-5.046977,-2.087744
5.2843943,4.1641054,0.25383458,0.68876016,1.2273849,7.029376,-5.046977,-2.0685902
5.285165,4.166441,0.25383458,0.68876016,1.2273849,7.029376,-5.046977,-2.0685902
5.28598,4.16884,0.28153145,0.68876016,1.2753218,7.0245876,-4.9943047,-2.0685902
5.2867994,4.171234,0.28153145,0.68876016,1.2753218,7.0245876,-4.9943047,-2.0685902
5.2876644,4.173679,0.31135887,0.68556434,1.3232586,6.909666,-5.0038815,-2.0254946
5.288534,4.176121,0.31135887,0.68556434,1.3232586,6.909666,-5.0038815,-2.0254946
5.289442,4.1786094,0.340121,0.67917275,1.3669345,6.9288197,-5.032612,-1.9728222
5.290354,4.1810923,0.340121,0.67917275,1.3669345,6.9288197,-5.032612,-1.9728222
5.2913156,4.183619,0.37101367,0.6695854,1.4116757,6.991069,-5.0134583,-2.0350714
5.292281,4.186137,0.37101367,0.6695854,1.4116757,6.991069,-5.0134583,-2.0350714
5.2932854,4.1887083,0.4029716,0.659998,1.4585472,7.029376,-5.0517654,-1.9488802
5.2942934,4.191271,0.4029716,0.659998,1.4585472,7.029376,-5.0517654,-1.9488802
5.295346,4.1938815,0.43706006,0.6482801,1.5043536,7.1155677,-5.056554,-1.9440918
5.2964015,4.196482,0.43706006,0.6482801,1.5043536,7.1155677,-5.056554,-1.9440918
5.2975006,4.1991296,0.47114852,0.63656217,1.55016,7.2544312,-5.0421886,-1.9776106
5.298604,4.201768,0.47114852,0.63656217,1.55016,7.2544312,-5.0421886,-1.9776106
5.2997212,4.2044573,0.5041717,0.6301706,1.5895748,7.599196,-4.9703627,-2.0159178
5.3008423,4.20714,0.5041717,0.6301706,1.5895748,7.599196,-4.9703627,-2.0159178
5.3019476,4.2098675,0.5329339,0.6301706,1.6204674,7.9870567,-4.8219223,-2.0685902
5.303109,4.212717,0.5329339,0.6301706,1.6204674,7.9870567,-4.8219223,-2.0685902
5.3041205,4.21528,0.5553044,0.639758,1.6407075,8.293514,-4.6351743,-2.0925324
5.305172,4.2179284,0.5553044,0.639758,1.6407075,8.293514,-4.6351743,-2.0925324
5.3062124,4.220599,0.56915283,0.655737,1.642838,8.39886,-4.4196963,-1.9871874
5.307254,4.223254,0.56915283,0.655737,1.642838,8.39886,-4.4196963,-1.9871874
5.308274,4.225912,0.5734139,0.675977,1.6321853,8.317456,-4.295198,-1.9488802
5.309294,4.228553,0.5734139,0.675977,1.6321853,8.317456,-4.295198,-1.9488802
5.310295,4.2311964,0.5712834,0.69302124,1.6140759,8.221688,-4.247314,-1.934515
5.311307,4.233849,0.5712834,0.69302124,1.6140759,8.221688,-4.247314,-1.934515
5.312277,4.236442,0.5648918,0.7090002,1.5949011,8.178593,-4.261679,-1.9871874
5.3132763,4.2390957,0.5648918,0.7090002,1.5949011,8.178593,-4.261679,-1.9871874
5.3152,4.244257,0.55636966,0.71965283,1.5746611,8.073248,-4.3143516,-1.9871874
5.3152,4.244257,0.55636966,0.71965283,1.5746611,8.073248,-4.3143516,-1.9871874
5.3161826,4.2469106,0.5499781,0.7281749,1.5565516,8.020576,-4.405331,-1.9632454
5.317135,4.249467,0.5499781,0.7281749,1.5565516,8.020576,-4.405331,-1.9632454
5.317135,4.249467,0.5499781,0.7281749,1.5565516,8.020576,-4.405331,-1.9632454
5.317135,4.249467,0.5499781,0.7281749,1.5565516,8.020576,-4.405331,-1.9632454
5.319983,4.2571573,0.541456,0.7409581,1.525659,7.7811556,-4.663905,-2.1547816
5.319983,4.2571573,0.541456,0.7409581,1.525659,7.7811556,-4.663905,-2.1547816
5.319983,4.2571573,0.541456,0.7409581,1.525659,7.7811556,-4.663905,-2.1547816
5.3229666,4.2649794,0.54252124,0.7441539,1.5128758,7.680599,-4.793192,-2.1691468
5.323996,4.2675276,0.54571706,0.7462844,1.5043536,7.565677,-4.831499,-2.2218192
5.32504,4.270116,0.54571706,0.7462844,1.5043536,7.565677,-4.831499,-2.2218192
5.3261724,4.272682,0.5499781,0.7473497,1.497962,7.4363904,-4.855441,-2.2122424
5.3273134,4.275238,0.5499781,0.7473497,1.497962,7.4363904,-4.855441,-2.2122424
5.328491,4.277667,0.5553044,0.74308866,1.4958315,7.3310456,-4.9655743,-2.2888567
5.329673,4.280078,0.5553044,0.74308866,1.4958315,7.3310456,-4.9655743,-2.2888567
5.3308578,4.2824664,0.55850023,0.73563176,1.4947662,7.2544312,-4.9559975,-2.2744915
5.332043,4.2848315,0.55850023,0.73563176,1.4947662,7.2544312,-4.9559975,-2.2744915
5.3332343,4.2871647,0.56382656,0.72497916,1.4947662,7.192182,-4.975151,-2.2984335
5.3344316,4.289491,0.56382656,0.72497916,1.4947662,7.192182,-4.975151,-2.2984335
5.335633,4.2918024,0.5670223,0.71113074,1.4958315,7.1347213,-5.032612,-2.2649148
5.33684,4.2941065,0.5670223,0.71113074,1.4958315,7.1347213,-5.032612,-2.2649148
5.3380656,4.2963867,0.5680876,0.69089067,1.5011579,7.067683,-5.080496,-2.2697031
5.33929,4.2986465,0.5680876,0.69089067,1.5011579,7.067683,-5.080496,-2.2697031
5.340538,4.300904,0.57021815,0.6695854,1.5054189,6.9767036,-5.1379566,-2.2457612
5.341786,4.303142,0.57021815,0.6695854,1.5054189,6.9767036,-5.1379566,-2.2457612
5.3430514,4.305344,0.57447916,0.6450843,1.5128758,6.799533,-5.1523223,-2.255338
5.344321,4.307535,0.57447916,0.6450843,1.5128758,6.799533,-5.1523223,-2.255338
5.3456726,4.3098,0.57874024,0.6184527,1.5245937,6.588843,-5.1810527,-2.231396
5.3469124,4.311863,0.57874024,0.6184527,1.5245937,6.588843,-5.1810527,-2.231396
5.348223,4.3139563,0.58406657,0.5918211,1.5427032,6.4308257,-5.185841,-2.2984335
5.349543,4.316051,0.58406657,0.5918211,1.5427032,6.4308257,-5.185841,-2.2984335
5.3508964,4.318116,0.58832765,0.5651895,1.5650737,6.2728086,-5.2289367,-2.3558946
5.352251,4.3201704,0.58832765,0.5651895,1.5650737,6.2728086,-5.2289367,-2.3558946
5.353645,4.322193,0.59258866,0.53749263,1.5959663,6.1100025,-5.2002063,-2.4133554
5.35504,4.3242044,0.59258866,0.53749263,1.5959663,6.1100025,-5.2002063,-2.4133554
5.356485,4.3261957,0.59898025,0.5087305,1.6364465,6.0525417,-5.21936,-2.4660277
5.3579273,4.328172,0.59898025,0.5087305,1.6364465,6.0525417,-5.21936,-2.4660277
5.3594193,4.330118,0.60537183,0.47570726,1.6769265,6.1243677,-5.1666875,-2.480393
5.3609104,4.332052,0.60537183,0.47570726,1.6769265,6.1243677,-5.1666875,-2.480393
5.3624597,4.3339634,0.6117634,0.4416188,1.7259287,6.191406,-5.2241483,-2.4995465
5.364009,4.335864,0.6117634,0.4416188,1.7259287,6.191406,-5.2241483,-2.4995465
5.3656073,4.3377314,0.618155,0.40966088,1.7738656,6.325481,-5.195418,-2.5617957
5.3672056,4.3395877,0.618155,0.40966088,1.7738656,6.325481,-5.195418,-2.5617957
5.368843,4.341408,0.6277424,0.37663767,1.8186066,6.5218053,-5.1140146,-2.542642
5.370557,4.3433027,0.6277424,0.37663767,1.8186066,6.5218053,-5.1140146,-2.542642
5.372184,4.345026,0.6383951,0.34041867,1.860152,6.7372837,-5.118803,-2.566584
5.373853,4.3467855,0.6383951,0.34041867,1.860152,6.7372837,-5.118803,-2.566584
5.375545,4.3485026,0.64691716,0.3031344,1.8985015,6.9958572,-5.0757074,-2.6144683
5.3772273,4.3502016,0.64691716,0.3031344,1.8985015,6.9958572,-5.0757074,-2.6144683
5.3789406,4.351878,0.654374,0.26904595,1.9283289,7.2352777,-5.094861,-2.6240451
5.380651,4.353544,0.654374,0.26904595,1.9283289,7.2352777,-5.094861,-2.6240451
5.3823743,4.355181,0.6607656,0.23708802,1.9549605,7.4746976,-5.161899,-2.5570073
5.3841,4.3568144,0.6607656,0.23708802,1.9549605,7.4746976,-5.161899,-2.5570073
5.3858256,4.3584213,0.6660919,0.2083259,1.9752005,7.680599,-5.2241483,-2.4851813
5.3875465,4.3600197,0.6660919,0.2083259,1.9752005,7.680599,-5.2241483,-2.4851813
5.3892837,4.361596,0.670353,0.17956375,1.9879837,7.867347,-5.3582234,-2.4708161
5.3910136,4.3631606,0.670353,0.17956375,1.9879837,7.867347,-5.3582234,-2.4708161
5.3927684,4.3647094,0.674614,0.15186687,1.9997016,7.9822683,-5.544971,-2.4229321
5.394515,4.366246,0.674614,0.15186687,1.9997016,7.9822683,-5.544971,-2.4229321
5.39629,4.36777,0.68313617,0.12843105,2.0146153,7.943961,-5.707777,-2.336741
5.398052,4.36928,0.68313617,0.12843105,2.0146153,7.943961,-5.707777,-2.336741
5.3998427,4.370799,0.69591933,0.10712577,2.03379,7.905654,-5.793968,-2.2601264
5.401627,4.3723087,0.69591933,0.10712577,2.03379,7.905654,-5.793968,-2.2601264
5.403433,4.3738337,0.71189827,0.090081535,2.0593565,7.8865004,-5.889736,-2.207454
5.405233,4.375349,0.71189827,0.090081535,2.0593565,7.8865004,-5.889736,-2.207454
5.4070816,4.3768873,0.7332036,0.07836362,2.0977058,7.762002,-5.8705826,-2.1643584
5.4089246,4.3784156,0.7332036,0.07836362,2.0977058,7.762002,-5.8705826,-2.1643584
5.411033,4.3800106,0.75557417,0.0762331,2.146708,7.5225816,-5.9998693,-2.111686
5.413089,4.381544,0.75557417,0.0762331,2.146708,7.5225816,-5.9998693,-2.111686
5.4152884,4.383261,0.7811405,0.08155942,2.2052977,7.2304893,-6.090849,-2.0973208
5.417488,4.38496,0.7811405,0.08155942,2.2052977,7.2304893,-6.090849,-2.0973208
5.419752,4.3867264,0.8099026,0.09221206,2.2798662,7.0102224,-6.1770406,-2.1021092
5.422019,4.388479,0.8099026,0.09221206,2.2798662,7.0102224,-6.1770406,-2.1021092
5.424367,4.3903136,0.83973,0.11032156,2.368283,6.9527617,-6.2345014,-2.0925324
5.4267154,4.3921328,0.83973,0.11032156,2.368283,6.9527617,-6.2345014,-2.0925324
5.429152,4.3940287,0.8706227,0.13162684,2.4694831,6.9240313,-6.3685765,-2.135628
5.431592,4.3959103,0.8706227,0.13162684,2.4694831,6.9240313,-6.3685765,-2.135628
5.434132,4.397893,0.90151536,0.15825845,2.5792055,6.83784,-6.4882865,-2.1308396
5.4366755,4.3998613,0.90151536,0.15825845,2.5792055,6.83784,-6.4882865,-2.1308396
5.439313,4.4019256,0.9366691,0.18915112,2.6953194,6.775591,-6.6750345,-2.15957
5.441968,4.403986,0.9366691,0.18915112,2.6953194,6.775591,-6.6750345,-2.15957
5.4447265,4.4061666,0.9718228,0.22110906,2.815694,6.5122285,-6.813898,-2.0638018
5.4474816,4.408327,0.9718228,0.22110906,2.815694,6.5122285,-6.813898,-2.0638018
5.450342,4.4105763,1.0112376,0.25413227,2.9392648,6.1866174,-7.0006456,-2.1308396
5.453222,4.4128222,1.0112376,0.25413227,2.9392648,6.1866174,-7.0006456,-2.1308396
5.4562097,4.4151697,1.0538481,0.28395966,3.0734882,5.7748146,-7.129933,-2.0638018
5.4592147,4.417511,1.0538481,0.28395966,3.0734882,5.7748146,-7.129933,-2.0638018
5.4623365,4.419935,1.0996546,0.31165653,3.2226253,5.377377,-7.240066,-2.1164744
5.4654984,4.4223704,1.0996546,0.31165653,3.2226253,5.377377,-7.240066,-2.1164744
5.4689064,4.4249983,1.149722,0.34041867,3.3866758,5.0996494,-7.359776,-2.0398598
5.47208,4.4274244,1.149722,0.34041867,3.3866758,5.0996494,-7.359776,-2.0398598
5.475516,4.4300427,1.2040504,0.37024608,3.5699015,4.817134,-7.445967,-2.0111294
5.4789863,4.4326644,1.2040504,0.37024608,3.5699015,4.817134,-7.445967,-2.0111294
5.4826336,4.435393,1.2605095,0.402204,3.7701712,4.630386,-7.4986396,-2.1308396
5.486295,4.4381075,1.2605095,0.402204,3.7701712,4.630386,-7.4986396,-2.1308396
5.490149,4.440953,1.3190991,0.438423,3.983224,4.4101195,-7.5465236,-2.0590134
5.4940147,4.44378,1.3190991,0.438423,3.983224,4.4101195,-7.5465236,-2.0590134
5.4980817,4.446729,1.3808844,0.47570726,4.2058644,4.285621,-7.5704656,-2.1212628
5.5021615,4.4496584,1.3808844,0.47570726,4.2058644,4.285621,-7.5704656,-2.1212628
5.506452,4.45272,1.4469308,0.5140568,4.4380918,4.261679,-7.5082164,-2.0590134
5.510769,4.4557695,1.4469308,0.5140568,4.4380918,4.261679,-7.5082164,-2.0590134
5.515292,4.458939,1.5172383,0.5524063,4.6788416,4.4101195,-7.551312,-2.078167
5.51982,4.4620776,1.5172383,0.5524063,4.6788416,4.4101195,-7.551312,-2.078167
5.5245943,4.465357,1.5875456,0.5918211,4.922787,4.687847,-7.6135616,-2.111686
5.529364,4.4685965,1.5875456,0.5918211,4.922787,4.687847,-7.6135616,-2.111686
5.5343466,4.471963,1.6578531,0.63230115,5.1603413,4.984728,-7.800309,-2.0446482
5.5393643,4.4753137,1.6578531,0.63230115,5.1603413,4.984728,-7.800309,-2.0446482
5.5445724,4.4787703,1.7281606,0.6781075,5.387243,5.4444146,-8.034941,-2.1021092
5.5498066,4.482202,1.7281606,0.6781075,5.387243,5.4444146,-8.034941,-2.1021092
5.5552297,4.4857526,1.7995332,0.7260444,5.605622,5.947197,-8.303091,-2.0398598
5.5606804,4.489276,1.7995332,0.7260444,5.605622,5.947197,-8.303091,-2.0398598
5.5663023,4.492925,1.870906,0.77824235,5.8058915,6.4787097,-8.748413,-1.9680338
5.5719533,4.496545,1.870906,0.77824235,5.8058915,6.4787097,-8.748413,-1.9680338
5.577759,4.5003014,1.947605,0.8400277,5.9869866,6.871359,-9.102755,-1.8962077
5.583584,4.50402,1.947605,0.8400277,5.9869866,6.871359,-9.102755,-1.8962077
5.5895343,4.5078993,2.0264347,0.9039436,6.145711,7.1251445,-9.552865,-1.70946
5.595506,4.5117435,2.0264347,0.9039436,6.145711,7.1251445,-9.552865,-1.70946
5.601579,4.5157046,2.1105905,0.9710552,6.286326,7.2783732,-9.931149,-1.6567876
5.607698,4.519647,2.1105905,0.9710552,6.286326,7.2783732,-9.931149,-1.6567876
5.6138825,4.523711,2.2022033,1.0371016,6.417353,7.345411,-10.295067,-1.4269443
5.620112,4.527759,2.2022033,1.0371016,6.417353,7.345411,-10.295067,-1.4269443
5.626417,4.531917,2.3012729,1.1052786,6.5387936,7.4124484,-10.644621,-1.3024458
5.632755,4.536051,2.3012729,1.1052786,6.5387936,7.4124484,-10.644621,-1.3024458
5.639167,4.540293,2.4056687,1.1734555,6.654907,7.2831616,-11.013328,-1.0390835
5.645625,4.5445185,2.4056687,1.1734555,6.654907,7.2831616,-11.013328,-1.0390835
5.6521554,4.548855,2.5175216,1.2384366,6.7688904,7.345411,-11.257536,-0.92895025
5.6587186,4.5531654,2.5175216,1.2384366,6.7688904,7.345411,-11.257536,-0.92895025
5.6653543,4.557589,2.6357658,1.3034178,6.8818088,7.345411,-11.511322,-0.7422025
5.672036,4.5619965,2.6357658,1.3034178,6.8818088,7.345411,-11.511322,-0.7422025
5.678789,4.5665126,2.7582712,1.3694642,6.996857,7.422025,-11.769896,-0.6751649
5.685589,4.5710125,2.7582712,1.3694642,6.996857,7.422025,-11.769896,-0.6751649
5.692445,4.5756326,2.8829072,1.4419022,7.10871,7.603985,-11.860875,-0.48362875
5.6993327,4.5802264,2.8829072,1.4419022,7.10871,7.603985,-11.860875,-0.48362875
5.706263,4.5849404,3.0086086,1.5239275,7.214171,7.9487495,-11.956643,-0.38307226
5.713238,4.589636,3.0086086,1.5239275,7.214171,7.9487495,-11.956643,-0.38307226
5.7202353,4.5944414,3.1289833,1.618736,7.3057837,8.303091,-11.860875,-0.2825158
5.7272577,4.5992117,3.1289833,1.618736,7.3057837,8.303091,-11.860875,-0.2825158
5.7343264,4.6041093,3.2408361,1.7295235,7.373961,8.580819,-11.812991,-0.06703765
5.7414074,4.608962,3.2408361,1.7295235,7.373961,8.580819,-11.812991,-0.06703765
5.748509,4.613923,3.33671,1.852029,7.418702,8.561666,-11.851298,0.18195933
5.755667,4.6188693,3.33671,1.852029,7.418702,8.561666,-11.851298,0.18195933
5.7628083,4.623895,3.4155395,1.9809259,7.438942,8.350976,-11.9135475,0.45010993
5.769992,4.6288967,3.4155395,1.9809259,7.438942,8.350976,-11.9135475,0.45010993
5.777233,4.6340237,3.4837165,2.1130188,7.4453335,7.9152308,-11.96622,0.7757214
5.7844033,4.6390467,3.4837165,2.1130188,7.4453335,7.9152308,-11.96622,0.7757214
5.7916117,4.644169,3.5412407,2.2419157,7.444268,7.297527,-12.038046,0.80445176
5.798864,4.649269,3.5412407,2.2419157,7.444268,7.297527,-12.038046,0.80445176
5.806132,4.654429,3.5923734,2.3633559,7.4453335,6.603208,-12.105083,0.9576807
5.806132,4.654429,3.5923734,2.3633559,7.4453335,6.603208,-12.105083,0.9576807
5.816005,4.6613545,3.5923734,2.3633559,7.4453335,6.603208,-12.105083,0.9576807
5.816005,4.6613545,3.5923734,2.3633559,7.4453335,6.603208,-12.105083,0.9576807
5.816005,4.6613545,3.6861167,2.589192,7.4900746,5.2959743,-12.023681,0.90021986
5.816005,4.6613545,3.6861167,2.589192,7.4900746,5.2959743,-12.023681,0.90021986
5.8510885,4.6858673,3.7329884,2.6893268,7.5337505,4.7548847,-11.9614315,0.94331545
5.858439,4.690897,3.7329884,2.6893268,7.5337505,4.7548847,-11.9614315,0.94331545
5.858439,4.690897,3.7329884,2.6893268,7.5337505,4.7548847,-11.9614315,0.94331545
5.8734145,4.70106,3.7809253,2.78307,7.5934052,4.4196963,-11.856087,0.8810662
5.8809676,4.706142,3.8309927,2.8714871,7.6647778,4.237737,-11.745954,0.8475474
5.8886943,4.711291,3.8309927,2.8714871,7.6647778,4.237737,-11.745954,0.8475474
5.8965173,4.716489,3.8831906,2.9524472,7.7393465,4.232949,-11.549629,0.7134721
5.8965173,4.716489,3.8831906,2.9524472,7.7393465,4.232949,-11.549629,0.7134721
5.9123993,4.7269397,3.933258,3.0291462,7.8117843,4.3766007,-11.295844,0.6703765
5.920171,4.7320285,3.933258,3.0291462,7.8117843,4.3766007,-11.295844,0.6703765
5.927852,4.737075,3.9790645,3.100519,7.87357,4.630386,-11.046846,0.5746084
5.9356866,4.7421703,3.9790645,3.100519,7.87357,4.630386,-11.046846,0.5746084
5.943589,4.747279,4.0152836,3.1665652,7.9151154,4.817134,-10.697293,0.59855044
5.951438,4.7522974,4.0152836,3.1665652,7.9151154,4.817134,-10.697293,0.59855044
5.9593654,4.757349,4.0408497,3.229416,7.9364204,4.9799395,-10.338163,0.7326257
5.9673514,4.7623854,4.0408497,3.229416,7.9364204,4.9799395,-10.338163,0.7326257
5.975278,4.76736,4.0525675,3.282679,7.9332247,4.9799395,-9.945514,0.7182605
5.983241,4.7723074,4.0525675,3.282679,7.9332247,4.9799395,-9.945514,0.7182605
5.991201,4.7772255,4.047241,3.326355,7.906593,5.12838,-9.576807,0.6943185
5.9989347,4.7819576,4.047241,3.326355,7.906593,5.12838,-9.576807,0.6943185
6.006877,4.7867994,4.029132,3.363639,7.858656,5.2241483,-9.251195,0.80445176
6.015079,4.791752,4.029132,3.363639,7.858656,5.2241483,-9.251195,0.80445176
6.0229883,4.796502,3.993978,3.3934667,7.7883487,5.2049947,-9.011775,0.8810662
6.0309577,4.801245,3.993978,3.3934667,7.7883487,5.2049947,-9.011775,0.8810662
6.0387197,4.8058357,3.946041,3.4179678,7.6999316,5.12838,-8.724471,0.8810662
6.046604,4.810457,3.946041,3.4179678,7.6999316,5.12838,-8.724471,0.8810662
6.054368,4.8149776,3.8874516,3.4392729,7.596601,4.936844,-8.537724,0.8762778
6.0621357,4.819461,3.8874516,3.4392729,7.596601,4.936844,-8.537724,0.8762778
6.0698113,4.823857,3.8214052,3.4573824,7.482618,4.745308,-8.2169,0.79487497
6.0774984,4.8282223,3.8214052,3.4573824,7.482618,4.745308,-8.2169,0.79487497
6.0850763,4.8324876,3.7457714,3.4722962,7.360112,4.534618,-7.9631147,0.7469909
6.0926576,4.8367205,3.7457714,3.4722962,7.360112,4.534618,-7.9631147,0.7469909
6.1001363,4.8408537,3.6616156,3.4829488,7.229085,4.367024,-7.651869,0.6991069
6.107618,4.8449574,3.6616156,3.4829488,7.229085,4.367024,-7.651869,0.6991069
6.1149726,4.8489456,3.5689375,3.491471,7.089535,4.2664676,-7.2783732,0.641646
6.122374,4.852929,3.5689375,3.491471,7.089535,4.2664676,-7.2783732,0.641646
6.1297884,4.8568716,3.4677374,3.499993,6.9382677,4.19943,-6.9383965,0.5793968
6.1368937,4.8606215,3.4677374,3.499993,6.9382677,4.19943,-6.9383965,0.5793968
6.143879,4.8642645,3.35695,3.5063846,6.7752824,4.0653543,-6.5122285,0.6368576
6.150965,4.8679333,3.35695,3.5063846,6.7752824,4.0653543,-6.5122285,0.6368576
6.157905,4.8714743,3.232314,3.511711,6.596318,3.8833952,-6.0860605,0.6560113
6.164826,4.87498,3.232314,3.511711,6.596318,3.8833952,-6.0860605,0.6560113
6.1715846,4.8783503,3.0959601,3.5149066,6.4024396,3.7588966,-5.765238,0.7469909
6.178345,4.8816967,3.0959601,3.5149066,6.4024396,3.7588966,-5.765238,0.7469909
6.1849074,4.884879,2.9457579,3.5138414,6.193648,3.620033,-5.482722,0.7374141
6.191484,4.8880453,2.9457579,3.5138414,6.193648,3.620033,-5.482722,0.7374141
6.1978354,4.8910303,2.7838376,3.5074499,5.9720726,3.4380736,-5.243302,0.7374141
6.2041945,4.8939977,2.7838376,3.5074499,5.9720726,3.4380736,-5.243302,0.7374141
6.2103343,4.896789,2.6144607,3.4946668,5.737715,3.2273839,-5.109226,0.8283938
6.2164865,4.8995667,2.6144607,3.4946668,5.737715,3.2273839,-5.109226,0.8283938
6.222395,4.9021525,2.4365613,3.475492,5.492704,3.098097,-4.936844,0.8810662
6.22831,4.904723,2.4365613,3.475492,5.492704,3.098097,-4.936844,0.8810662
6.233975,4.9071007,2.2544012,3.4499257,5.2370405,2.9783869,-4.865018,0.93373865
6.239646,4.909464,2.2544012,3.4499257,5.2370405,2.9783869,-4.865018,0.93373865
6.2450576,4.9116316,2.0711758,3.4179678,4.97392,2.743755,-4.9655743,0.9911995
6.2504797,4.913788,2.0711758,3.4179678,4.97392,2.743755,-4.9655743,0.9911995
6.2556295,4.9157352,1.8858197,3.378553,4.7054734,2.5570073,-4.88896,0.8283938
6.2607837,4.91767,1.8858197,3.378553,4.7054734,2.5570073,-4.88896,0.8283938
6.265661,4.9193983,1.701529,3.3359423,4.4317,2.2122424,-4.6495395,0.6799533
6.270547,4.9211164,1.701529,3.3359423,4.4317,2.2122424,-4.6495395,0.6799533
6.2751513,4.9226413,1.5172383,3.282679,4.151536,2.0733786,-4.912902,0.79487497
6.279764,4.924156,1.5172383,3.282679,4.151536,2.0733786,-4.912902,0.79487497
0.00090471096,4.9254704,1.335078,3.2230244,3.8713713,1.8435353,-5.0661306,0.7613561
0.0052294414,4.926772,1.335078,3.2230244,3.8713713,1.8435353,-5.0661306,0.7613561
0.009305387,4.9279013,1.1593094,3.1559126,3.5912068,2.1930888,-5.2720323,0.770933
0.013367779,4.929015,1.1593094,3.1559126,3.5912068,2.1930888,-5.2720323,0.770933
0.017110271,4.92994,0.98673654,3.0813441,3.3014548,1.8626889,-5.3007627,0.80445176
0.02084363,4.9308534,0.98673654,3.0813441,3.3014548,1.8626889,-5.3007627,0.80445176
0.024294572,4.931578,0.8216205,3.0089061,3.0106375,1.3599066,-5.3007627,0.6799533
0.027840566,4.932315,0.8216205,3.0089061,3.0106375,1.3599066,-5.3007627,0.6799533
0.030953823,4.932839,0.6575698,2.9364681,2.730473,1.1109096,-5.45878,0.641646
0.034141123,4.9333687,0.6575698,2.9364681,2.730473,1.1109096,-5.45878,0.641646
0.037044425,4.9337254,0.4988454,2.8565733,2.4545696,0.7278373,-5.717354,0.7757214
0.039945036,4.9340754,0.4988454,2.8565733,2.4545696,0.7278373,-5.717354,0.7757214
0.04258903,4.934255,0.3465126,2.7702868,2.1839924,0.40701428,-5.9280434,0.8331822
0.045232262,4.93443,0.3465126,2.7702868,2.1839924,0.40701428,-5.9280434,0.8331822
0.04761164,4.934444,0.19950609,2.6754785,1.9176762,0.04309563,-6.2009826,1.0486604
0.049988586,4.934453,0.19950609,2.6754785,1.9176762,0.04309563,-6.2009826,1.0486604
0.05214715,4.9343038,0.05995645,2.5678866,1.6588169,-0.23463176,-6.646304,1.0821792
0.054297477,4.93415,0.05995645,2.5678866,1.6588169,-0.23463176,-6.646304,1.0821792
0.056252263,4.933869,-0.07000581,2.4496424,1.4063493,-0.51714754,-7.0485296,1.292869
0.058202367,4.9335823,-0.07000581,2.4496424,1.4063493,-0.51714754,-7.0485296,1.292869
0.059958223,4.9332113,-0.1871849,2.323941,1.1645343,-0.81881696,-7.4986396,1.460463
0.06170697,4.9328375,-0.1871849,2.323941,1.1645343,-0.81881696,-7.4986396,1.460463
0.06321762,4.9323726,-0.28838503,2.1918483,0.93443716,-1.1540052,-8.015787,1.4891934
0.06472712,4.931905,-0.28838503,2.1918483,0.93443716,-1.1540052,-8.015787,1.4891934
0.06600886,4.931373,-0.37467146,2.0544293,0.720319,-1.532289,-8.485051,1.6232687
0.067288384,4.9308395,-0.37467146,2.0544293,0.720319,-1.532289,-8.485051,1.6232687
0.068351716,4.930261,-0.44604418,1.9095532,0.52217984,-1.8962077,-8.892065,1.8483237
0.06941093,4.9296823,-0.44604418,1.9095532,0.52217984,-1.8962077,-8.892065,1.8483237
0.07026515,4.929045,-0.5014379,1.7614814,0.34428066,-2.1068976,-9.284714,1.8387469
0.07111845,4.9284077,-0.5014379,1.7614814,0.34428066,-2.1068976,-9.284714,1.8387469
0.0717835,4.9277353,-0.541918,1.6112791,0.1866215,-2.384625,-9.615114,1.8531121
0.07244755,4.927062,-0.541918,1.6112791,0.1866215,-2.384625,-9.615114,1.8531121
0.07294104,4.92636,-0.5685496,1.4600116,0.049202394,-2.4660277,-9.902418,1.7621324
0.0734322,4.92566,-0.5685496,1.4600116,0.049202394,-2.4660277,-9.902418,1.7621324
0.07377312,4.9249463,-0.5834633,1.3076788,-0.07117249,-2.4660277,-10.19451,1.7717092
0.07411331,4.9242325,-0.5834633,1.3076788,-0.07117249,-2.4660277,-10.19451,1.7717092
0.07431719,4.9235234,-0.5866591,1.1574765,-0.1755684,-2.504335,-10.481815,1.7860745
0.074519604,4.922817,-0.5866591,1.1574765,-0.1755684,-2.504335,-10.481815,1.7860745
0.07460307,4.9221287,-0.582398,1.0126005,-0.26931167,-2.4181437,-10.682928,1.9488802
0.07468603,4.921441,-0.582398,1.0126005,-0.26931167,-2.4181437,-10.682928,1.9488802
0.07466016,4.920774,-0.57281065,0.8741162,-0.35133705,-2.3702598,-10.82658,2.0207062
0.07463398,4.920109,-0.57281065,0.8741162,-0.35133705,-2.3702598,-10.82658,2.0207062
0.0745063,4.9194713,-0.5589622,0.7420234,-0.4280361,-2.3798366,-11.022904,2.1212628
0.07437831,4.918835,-0.5589622,0.7420234,-0.4280361,-2.3798366,-11.022904,2.1212628
0.07415911,4.918238,-0.5408527,0.61419165,-0.49514773,-2.432509,-11.128249,2.2936451
0.0739403,4.9176445,-0.5408527,0.61419165,-0.49514773,-2.432509,-11.128249,2.2936451
0.07363536,4.917076,-0.52061266,0.4927515,-0.5558678,-2.542642,-11.238382,2.3175871
0.073331,4.9165106,-0.52061266,0.4927515,-0.5558678,-2.542642,-11.238382,2.3175871
0.0729507,4.9159813,-0.49717686,0.37344187,-0.6080658,-2.585738,-11.314998,2.3942018
0.07257012,4.9154534,-0.49717686,0.37344187,-0.6080658,-2.585738,-11.314998,2.3942018
0.0721202,4.914947,-0.47054526,0.25945857,-0.6464153,-2.542642,-11.382035,2.3654714
0.07168638,4.914459,-0.47054526,0.25945857,-0.6464153,-2.542642,-11.382035,2.3654714
0.0711957,4.9140015,-0.4417831,0.15293214,-0.67517745,-2.60968,-11.401189,2.3798366
0.07069596,4.913535,-0.4417831,0.15293214,-0.67517745,-2.60968,-11.401189,2.3798366
0.07017034,4.9131184,-0.4119557,0.049601484,-0.6943522,-2.5570073,-11.449073,2.384625
0.06963989,4.912698,-0.4119557,0.049601484,-0.6943522,-2.5570073,-11.449073,2.384625
0.06908251,4.91232,-0.37680197,-0.04627232,-0.7028743,-2.4516625,-11.425131,2.3750482
0.06852448,4.911942,-0.37680197,-0.04627232,-0.7028743,-2.4516625,-11.425131,2.3750482
0.06794598,4.9116077,-0.340583,-0.133624,-0.70393956,-2.3511062,-11.425131,2.3989902
0.06736866,4.911275,-0.340583,-0.133624,-0.70393956,-2.3511062,-11.425131,2.3989902
0.06678514,4.9109793,-0.30542925,-0.20925778,-0.69541746,-2.2984335,-11.439496,2.360683
0.066202804,4.910684,-0.30542925,-0.20925778,-0.69541746,-2.2984335,-11.439496,2.360683
0.06561959,4.9104342,-0.27027553,-0.2774347,-0.6805038,-2.2505496,-11.405977,2.4133554
0.06503578,4.910184,-0.27027553,-0.2774347,-0.6805038,-2.2505496,-11.405977,2.4133554
0.06446274,4.9099703,-0.2351218,-0.3370895,-0.6581332,-2.1883004,-11.319786,2.360683
0.063890845,4.9097576,-0.2351218,-0.3370895,-0.6581332,-2.1883004,-11.319786,2.360683
0.06334156,4.9095764,-0.19890282,-0.38822222,-0.62511003,-2.1021092,-11.219229,2.2601264
0.062792346,4.909396,-0.19890282,-0.38822222,-0.62511003,-2.1021092,-11.219229,2.2601264
0.06226886,4.909259,-0.16694488,-0.43083277,-0.588891,-1.9440918,-11.113884,2.3127987
0.061745945,4.909121,-0.16694488,-0.43083277,-0.588891,-1.9440918,-11.113884,2.3127987
0.061253216,4.909015,-0.1360522,-0.46811703,-0.552672,-1.7764976,-10.998962,2.255338
0.060758002,4.908909,-0.1360522,-0.46811703,-0.552672,-1.7764976,-10.998962,2.255338
0.06029366,4.908841,-0.1094206,-0.49794444,-0.5143225,-1.5705963,-10.941502,2.2984335
0.05982697,4.9087725,-0.1094206,-0.49794444,-0.5143225,-1.5705963,-10.941502,2.2984335
0.059372153,4.908739,-0.08598478,-0.52244556,-0.47916877,-1.3790601,-10.94629,2.3319526
0.058937516,4.9087067,-0.08598478,-0.52244556,-0.47916877,-1.3790601,-10.94629,2.3319526
0.05852047,4.90872,-0.06467949,-0.5416203,-0.4482761,-1.2737153,-10.907983,2.4420857
0.05809646,4.908733,-0.06467949,-0.5416203,-0.4482761,-1.2737153,-10.907983,2.4420857
0.05767964,4.908782,-0.043374203,-0.5544035,-0.4216445,-1.1252748,-10.927136,2.480393
0.057262458,4.9088316,-0.043374203,-0.5544035,-0.4216445,-1.1252748,-10.927136,2.480393
0.056854565,4.9089136,-0.021003649,-0.56399083,-0.3950129,-1.0390835,-10.884041,2.5139117
0.05644332,4.9089966,-0.021003649,-0.56399083,-0.3950129,-1.0390835,-10.884041,2.5139117
0.056032557,4.9091125,-0.0007636249,-0.5703824,-0.36944655,-0.89064306,-10.884041,2.542642
0.056032557,4.9091125,-0.0007636249,-0.5703824,-0.36944655,-0.89064306,-10.884041,2.542642
0.056032557,4.9091125,-0.0007636249,-0.5703824,-0.36944655,-0.89064306,-10.884041,2.542642
0.05479878,4.9094872,0.022672193,-0.572513,-0.34068438,-0.79487497,-10.898406,2.5617957
0.05479878,4.9094872,0.022672193,-0.572513,-0.34068438,-0.79487497,-10.898406,2.5617957
0.05394465,4.909852,0.04823854,-0.5714477,-0.310857,-0.641646,-10.884041,2.5617957
0.05355286,4.9100375,0.073804885,-0.56718665,-0.28209487,-0.50757074,-10.836157,2.633622
0.05355286,4.9100375,0.073804885,-0.56718665,-0.28209487,-0.50757074,-10.836157,2.633622
0.052747887,4.9104557,0.10150176,-0.5586645,-0.25226745,-0.46447513,-10.759542,2.5139117
0.052377623,4.9106684,0.10150176,-0.5586645,-0.25226745,-0.46447513,-10.759542,2.5139117
0.052377623,4.9106684,0.10150176,-0.5586645,-0.25226745,-0.46447513,-10.759542,2.5139117
0.051651284,4.911124,0.12919864,-0.5469466,-0.2235053,-0.39264908,-10.668563,2.408567
0.051511772,4.911212,0.12919864,-0.5469466,-0.2235053,-0.39264908,-10.668563,2.408567
0.051108398,4.911479,0.15369973,-0.5299024,-0.19474317,-0.22505496,-10.582372,2.4229321
0.050436214,4.9119253,0.17820081,-0.5085971,-0.16278523,-0.10534488,-10.462662,2.384625
0.0500932,4.9121737,0.17820081,-0.5085971,-0.16278523,-0.10534488,-10.462662,2.384625
0.0500932,4.9121737,0.17820081,-0.5085971,-0.16278523,-0.10534488,-10.462662,2.384625
0.049414612,4.9127316,0.20057136,-0.47983494,-0.13508835,0.0047884034,-10.338163,2.3702598
0.04910062,4.9130254,0.21974611,-0.44787702,-0.11058728,0.047884032,-10.247183,2.3463178
0.048786346,4.9133186,0.21974611,-0.44787702,-0.11058728,0.047884032,-10.247183,2.3463178
0.04850236,4.913629,0.23572509,-0.41378856,-0.08715145,0.06703765,-10.065224,2.327164
0.048219983,4.9139366,0.23572509,-0.41378856,-0.08715145,0.06703765,-10.065224,2.327164
0.047958583,4.914253,0.24744299,-0.3765043,-0.06904196,0.15322891,-9.983821,2.327164
0.04769713,4.914569,0.24744299,-0.3765043,-0.06904196,0.15322891,-9.983821,2.327164
0.047468938,4.914901,0.25703037,-0.3370895,-0.05199773,0.1388637,-9.916783,2.3798366
0.04724054,4.9152317,0.25703037,-0.3370895,-0.05199773,0.1388637,-9.916783,2.3798366
0.047014397,4.915557,0.26342195,-0.29980525,-0.04027982,0.1340753,-9.825804,2.2457612
0.04679314,4.9158745,0.26342195,-0.29980525,-0.04027982,0.1340753,-9.825804,2.2457612
0.04659349,4.916206,0.26768303,-0.26145574,-0.03069244,0.110133275,-9.696517,2.2649148
0.0463881,4.916546,0.26768303,-0.26145574,-0.03069244,0.110133275,-9.696517,2.2649148
0.046213496,4.9168797,0.27087882,-0.22630201,-0.024300855,0.12449849,-9.634268,2.327164
0.046031684,4.917227,0.27087882,-0.22630201,-0.024300855,0.12449849,-9.634268,2.327164
0.045858867,4.917557,0.27194408,-0.19221355,-0.022170324,0.062249243,-9.528923,2.231396
0.045683146,4.9178915,0.27194408,-0.19221355,-0.022170324,0.062249243,-9.528923,2.231396
0.045521256,4.9182286,0.26981354,-0.16132088,-0.020039797,0.02873042,-9.471462,2.2409728
0.045358773,4.9185658,0.26981354,-0.16132088,-0.020039797,0.02873042,-9.471462,2.2409728
0.045190193,4.9188843,0.2655525,-0.13255873,-0.020039797,0.02873042,-9.394848,2.1499932
0.04502119,4.919203,0.2655525,-0.13255873,-0.020039797,0.02873042,-9.394848,2.1499932
0.044850368,4.919506,0.26022616,-0.1037966,-0.022170324,0.023942016,-9.323022,2.0973208
0.04467914,4.919809,0.26022616,-0.1037966,-0.022170324,0.023942016,-9.323022,2.0973208
0.04450352,4.9200926,0.25170404,-0.07503446,-0.027496647,-0.047884032,-9.251195,2.030283
0.044327624,4.920376,0.25170404,-0.07503446,-0.027496647,-0.047884032,-9.251195,2.030283
0.04414988,4.9206448,0.2410514,-0.048402846,-0.033888236,-0.11971009,-9.11712,1.982399
0.043971755,4.9209127,0.2410514,-0.048402846,-0.033888236,-0.11971009,-9.11712,1.982399
0.04380428,4.921185,0.22720297,-0.0228365,-0.039214555,-0.11971009,-9.030929,2.0159178
0.04363634,4.9214563,0.22720297,-0.0228365,-0.039214555,-0.11971009,-9.030929,2.0159178
0.04349297,4.9217377,0.21335453,0.0027298466,-0.043475613,-0.18195933,-8.935161,2.0446482
0.04334897,4.9220176,0.21335453,0.0027298466,-0.043475613,-0.18195933,-8.935161,2.0446482
0.04323449,4.922298,0.1963103,0.0251004,-0.0498672,-0.2633622,-8.801085,2.030283
0.043117605,4.9225826,0.1963103,0.0251004,-0.0498672,-0.2633622,-8.801085,2.030283
0.042960122,4.9228163,0.17926607,0.043209895,-0.059454583,-0.23463176,-8.719683,1.9440918
0.042799573,4.923053,0.17926607,0.043209895,-0.059454583,-0.23463176,-8.719683,1.9440918
0.04263154,4.9232664,0.16115656,0.05918886,-0.06691143,-0.19153613,-8.7771435,1.9728222
0.042462915,4.92348,0.16115656,0.05918886,-0.06691143,-0.19153613,-8.7771435,1.9728222
0.042293437,4.9236794,0.14304708,0.073037304,-0.075433545,-0.23463176,-8.801085,1.9680338
0.04212316,4.9238787,0.14304708,0.073037304,-0.075433545,-0.23463176,-8.801085,1.9680338
0.041949358,4.924062,0.12387232,0.085820474,-0.08715145,-0.29209262,-8.825027,1.9488802
0.041774582,4.9242444,0.12387232,0.085820474,-0.08715145,-0.29209262,-8.825027,1.9488802
0.041657902,4.924441,0.105762824,0.09647312,-0.0978041,-0.33997664,-8.868123,2.0015526
0.041541528,4.924637,0.105762824,0.09647312,-0.0978041,-0.33997664,-8.868123,2.0015526
0.041458152,4.92482,0.087653324,0.102864705,-0.108456746,-0.37828386,-8.839393,2.0350714
0.041375466,4.925002,0.087653324,0.102864705,-0.108456746,-0.37828386,-8.839393,2.0350714
0.041300956,4.925168,0.07273962,0.1060605,-0.123370446,-0.40701428,-8.901642,2.0446482
0.041227262,4.925334,0.07273962,0.1060605,-0.123370446,-0.40701428,-8.901642,2.0446482
0.0412044,4.9254665,0.05995645,0.10925629,-0.1372189,-0.44532153,-8.901642,1.9871874
0.041182753,4.925598,0.05995645,0.10925629,-0.1372189,-0.44532153,-8.901642,1.9871874
0.041187484,4.92568,0.04823854,0.10819103,-0.15000206,-0.5746084,-8.887277,1.9871874
0.041192517,4.9257627,0.04823854,0.10819103,-0.15000206,-0.5746084,-8.887277,1.9871874
0.041192506,4.9258094,0.03652063,0.10392997,-0.1638505,-0.6895301,-8.911219,1.9680338
0.04119257,4.925856,0.03652063,0.10392997,-0.1638505,-0.6895301,-8.911219,1.9680338
0.041169737,4.925915,0.024802722,0.09540785,-0.1755684,-0.7134721,-8.901642,2.0350714
0.041146956,4.9259734,0.024802722,0.09540785,-0.1755684,-0.7134721,-8.901642,2.0350714
0.04112265,4.9259934,0.0141500775,0.08262468,-0.18515578,-0.80445176,-8.939949,1.9728222
0.04109835,4.9260135,0.0141500775,0.08262468,-0.18515578,-0.80445176,-8.939949,1.9728222
0.041062597,4.926029,0.005627962,0.06664571,-0.19261263,-0.8858546,-8.99741,2.006341
0.0410269,4.926045,0.005627962,0.06664571,-0.19261263,-0.8858546,-8.99741,2.006341
0.040985674,4.926031,-0.0039594183,0.04853622,-0.19580843,-0.91458505,-9.02614,1.934515
0.040944394,4.9260178,-0.0039594183,0.04853622,-0.19580843,-0.91458505,-9.02614,1.934515
0.040897097,4.9259925,-0.012481534,0.031491987,-0.19793896,-0.91937345,-9.093178,1.934515
0.04084981,4.925967,-0.012481534,0.031491987,-0.19793896,-0.91937345,-9.093178,1.934515
0.04079437,4.9259157,-0.017807856,0.012317227,-0.19580843,-0.9576807,-9.165004,1.8483237
0.040738024,4.9258633,-0.017807856,0.012317227,-0.19580843,-0.9576807,-9.165004,1.8483237
0.04068835,4.92582,-0.022068914,-0.007922798,-0.19048211,-1.043872,-9.241618,1.9009962
0.04063794,4.9257755,-0.022068914,-0.007922798,-0.19048211,-1.043872,-9.241618,1.9009962
0.040577214,4.9257054,-0.026329972,-0.031358615,-0.18515578,-0.94810385,-9.303867,1.8195933
0.040516708,4.9256353,-0.026329972,-0.031358615,-0.18515578,-0.94810385,-9.303867,1.8195933
0.040455315,4.925561,-0.03059103,-0.05372917,-0.17982946,-0.8571242,-9.370906,1.8579005
0.040394116,4.9254866,-0.03059103,-0.05372917,-0.17982946,-0.8571242,-9.370906,1.8579005
0.04033051,4.925404,-0.032721557,-0.077164985,-0.17237261,-0.8283938,-9.457097,1.8579005
0.0402662,4.9253216,-0.032721557,-0.077164985,-0.17237261,-0.8283938,-9.457097,1.8579005
0.040187657,4.9252267,-0.031656295,-0.10166607,-0.1670463,-0.6703765,-9.514558,1.8770541
0.04010736,4.92513,-0.031656295,-0.10166607,-0.1670463,-0.6703765,-9.514558,1.8770541
0.040047336,4.9250574,-0.027395237,-0.1251019,-0.15958944,-0.641646,-9.524135,1.958457
0.03998974,4.924988,-0.027395237,-0.1251019,-0.15958944,-0.641646,-9.524135,1.958457
0.03988081,4.9248824,-0.024199443,-0.14960296,-0.15213259,-0.49799395,-9.56723,1.9297266
0.039771713,4.924776,-0.024199443,-0.14960296,-0.15213259,-0.49799395,-9.56723,1.9297266
0.039694667,4.924695,-0.018873122,-0.17197353,-0.14680627,-0.4405331,-9.634268,2.0446482
0.039619382,4.9246154,-0.018873122,-0.17197353,-0.14680627,-0.4405331,-9.634268,2.0446482
0.039298356,4.9246063,-0.0114162695,-0.19327882,-0.14361048,-0.33997664,-9.562442,2.0590134
0.03897769,4.924597,-0.0114162695,-0.19327882,-0.14361048,-0.33997664,-9.562442,2.0590134
0.038659673,4.9245796,-0.0018288894,-0.21245357,-0.13934942,-0.2873042,-9.562442,2.0446482
0.03834146,4.924562,-0.0018288894,-0.21245357,-0.13934942,-0.2873042,-9.562442,2.0446482
0.038027424,4.924569,0.0066932263,-0.22843254,-0.12976204,-0.22984336,-9.504981,2.0398598
0.037713125,4.9245753,0.0066932263,-0.22843254,-0.12976204,-0.22984336,-9.504981,2.0398598
0.037405215,4.924609,0.015215342,-0.23801991,-0.121239915,-0.1436521,-9.519346,2.0685902
0.037098493,4.924643,0.015215342,-0.23801991,-0.121239915,-0.1436521,-9.519346,2.0685902
0.036794547,4.924652,0.02160693,-0.24334624,-0.11697886,-0.06703765,-9.471462,1.9967642
0.036492202,4.9246607,0.02160693,-0.24334624,-0.11697886,-0.06703765,-9.471462,1.9967642
0.036196407,4.9246683,0.026933251,-0.24547677,-0.11058728,-0.047884032,-9.394848,1.9632454
0.03590159,4.924676,0.026933251,-0.24547677,-0.11058728,-0.047884032,-9.394848,1.9632454
0.035623018,4.924668,0.030129045,-0.24441151,-0.104195684,-0.04309563,-9.3421755,1.9009962
0.03534466,4.9246593,0.030129045,-0.24441151,-0.104195684,-0.04309563,-9.3421755,1.9009962
0.035068654,4.9246645,0.032259572,-0.23801991,-0.095673576,-0.05746084,-9.299079,1.9297266
0.03479365,4.9246693,0.032259572,-0.23801991,-0.095673576,-0.05746084,-9.299079,1.9297266
0.03451785,4.924697,0.031194309,-0.23056307,-0.08928198,0,-9.251195,1.9680338
0.034243215,4.9247246,0.031194309,-0.23056307,-0.08928198,0,-9.251195,1.9680338
0.033982784,4.924728,0.027998514,-0.21884516,-0.08182514,-0.023942016,-9.193734,1.910573
0.033724304,4.924731,0.027998514,-0.21884516,-0.08182514,-0.023942016,-9.193734,1.910573
0.033478133,4.9247236,0.024802722,-0.20606199,-0.07330302,0.05746084,-9.179369,1.8674773
0.033233292,4.9247165,0.024802722,-0.20606199,-0.07330302,0.05746084,-9.179369,1.8674773
0.032987844,4.9247217,0.020541664,-0.19540934,-0.0679767,0.110133275,-9.14585,1.9057846
0.032743145,4.924727,0.020541664,-0.19540934,-0.0679767,0.110133275,-9.14585,1.9057846
0.032498315,4.9247417,0.015215342,-0.1815609,-0.0679767,0.17717093,-9.131485,1.9488802
0.03225393,4.9247565,0.015215342,-0.1815609,-0.0679767,0.17717093,-9.131485,1.9488802
0.032010637,4.9247646,0.0066932263,-0.16877773,-0.06904196,0.24899697,-9.054871,1.9393034
0.031768348,4.924773,0.0066932263,-0.16877773,-0.06904196,0.24899697,-9.054871,1.9393034
0.031527955,4.924787,-0.0018288894,-0.15386403,-0.07010722,0.29209262,-9.078813,2.006341
0.0312888,4.9248004,-0.0018288894,-0.15386403,-0.07010722,0.29209262,-9.078813,2.006341
0.03105245,4.9248247,-0.008220476,-0.13788506,-0.075433545,0.31124622,-8.99741,2.0733786
0.030817289,4.924849,-0.008220476,-0.13788506,-0.075433545,0.31124622,-8.99741,2.0733786
0.030574903,4.9248557,-0.017807856,-0.121906094,-0.08182514,0.34955344,-9.069236,2.0590134
0.030333921,4.9248624,-0.017807856,-0.121906094,-0.08182514,0.34955344,-9.069236,2.0590134
0.030091738,4.92487,-0.026329972,-0.105927125,-0.08928198,0.37349546,-9.011775,2.1021092
0.029850496,4.924877,-0.026329972,-0.105927125,-0.08928198,0.37349546,-9.011775,2.1021092
0.029610736,4.9248877,-0.035917353,-0.08888289,-0.09886937,0.40701428,-9.040505,2.1978772
0.029372005,4.924897,-0.035917353,-0.08888289,-0.09886937,0.40701428,-9.040505,2.1978772
0.02912892,4.924902,-0.045504734,-0.0707734,-0.10952201,0.33518824,-9.059659,2.207454
0.028887115,4.9249067,-0.045504734,-0.0707734,-0.10952201,0.33518824,-9.059659,2.207454
0.028625332,4.924877,-0.056157377,-0.054794434,-0.11804412,0.35434186,-9.126697,2.0925324
0.02836443,4.924848,-0.056157377,-0.054794434,-0.11804412,0.35434186,-9.126697,2.0925324
0.028105501,4.9248223,-0.06361423,-0.037750203,-0.124435715,0.23942018,-9.203311,2.135628
0.027848016,4.9247966,-0.06361423,-0.037750203,-0.124435715,0.23942018,-9.203311,2.135628
0.027591495,4.9247704,-0.06894055,-0.019640706,-0.12976204,0.1340753,-9.246407,2.135628
0.02733642,4.9247456,-0.06894055,-0.019640706,-0.12976204,0.1340753,-9.246407,2.135628
0.027087035,4.924722,-0.07213634,-0.00046594674,-0.1308273,0.01436521,-9.323022,2.1260512
0.026839202,4.9246993,-0.07213634,-0.00046594674,-0.1308273,0.01436521,-9.323022,2.1260512
0.026611634,4.9246864,-0.075332135,0.017643549,-0.12656625,-0.10534488,-9.428367,2.1260512
0.026385179,4.924674,-0.075332135,0.017643549,-0.12656625,-0.10534488,-9.428367,2.1260512
0.026191352,4.924677,-0.07426687,0.03681831,-0.11804412,-0.20111294,-9.490616,2.0973208
0.025999961,4.9246807,-0.07426687,0.03681831,-0.11804412,-0.20111294,-9.490616,2.0973208
0.025919903,4.924708,-0.07107108,0.05599307,-0.104195684,-0.25857377,-9.528923,2.1021092
0.025919903,4.924708,-0.07107108,0.05599307,-0.104195684,-0.25857377,-9.528923,2.1021092
0.025839016,4.9247417,-0.06467949,0.07516783,-0.08715145,-0.33518824,-9.591172,2.1164744
0.02587798,4.924738,-0.06467949,0.07516783,-0.08715145,-0.33518824,-9.591172,2.1164744
0.025964722,4.924694,-0.05935317,0.09221206,-0.06904196,-0.39743748,-9.600749,2.087744
0.025964722,4.924694,-0.05935317,0.09221206,-0.06904196,-0.39743748,-9.600749,2.087744
0.026157672,4.9246206,-0.052961584,0.1060605,-0.04773667,-0.4213795,-9.653421,2.1308396
0.026259156,4.9246044,-0.052961584,0.1060605,-0.04773667,-0.4213795,-9.653421,2.1308396
0.026401049,4.924526,-0.045504734,0.11990894,-0.028561912,-0.46447513,-9.68694,2.0494366
0.026401049,4.924526,-0.045504734,0.11990894,-0.028561912,-0.46447513,-9.68694,2.0494366
0.026672756,4.924403,-0.039113145,0.12949632,-0.0072566224,-0.4261679,-9.691729,2.078167
0.026832607,4.924354,-0.039113145,0.12949632,-0.0072566224,-0.4261679,-9.691729,2.078167
0.027009824,4.924305,-0.032721557,0.1358879,0.009787609,-0.4357447,-9.68694,2.0685902
0.027184056,4.9242573,-0.032721557,0.1358879,0.009787609,-0.4357447,-9.68694,2.0685902
0.027371947,4.9242496,-0.026329972,0.14121422,0.022570781,-0.45968673,-9.734824,2.1260512
0.027563274,4.924243,-0.026329972,0.14121422,0.022570781,-0.45968673,-9.734824,2.1260512
0.027731834,4.924295,-0.021003649,0.14334476,0.030027634,-0.3878607,-9.696517,2.1739352
0.027874118,4.9243393,-0.021003649,0.14334476,0.030027634,-0.3878607,-9.696517,2.1739352
0.028037287,4.92439,-0.015677327,0.14227949,0.03428869,-0.4165911,-9.65821,2.1787236
0.028200181,4.9244404,-0.015677327,0.14227949,0.03428869,-0.4165911,-9.65821,2.1787236
0.02837049,4.924495,-0.0114162695,0.14334476,0.040680278,-0.4309563,-9.639056,2.183512
0.02854106,4.92455,-0.0114162695,0.14334476,0.040680278,-0.4309563,-9.639056,2.183512
0.028695388,4.92462,-0.0071552116,0.14227949,0.042810805,-0.41180268,-9.56723,2.1930888
0.028849125,4.9246902,-0.0071552116,0.14227949,0.042810805,-0.41180268,-9.56723,2.1930888
0.028977642,4.9247756,-0.0028941538,0.1390837,0.044941336,-0.39743748,-9.56723,2.255338
0.029105473,4.924861,-0.0028941538,0.1390837,0.044941336,-0.39743748,-9.56723,2.255338
0.029244682,4.924946,0.00030163955,0.13801843,0.044941336,-0.4357447,-9.519346,2.2601264
0.02938325,4.92503,0.00030163955,0.13801843,0.044941336,-0.4357447,-9.519346,2.2601264
0.029507127,4.9251223,0.003497433,0.13695318,0.041745543,-0.40222588,-9.500193,2.2505496
0.029630745,4.925214,0.003497433,0.13695318,0.041745543,-0.40222588,-9.500193,2.2505496
0.029725712,4.925311,0.003497433,0.1358879,0.035353955,-0.37828386,-9.452309,2.327164
0.029820058,4.9254084,0.003497433,0.1358879,0.035353955,-0.37828386,-9.452309,2.327164
0.029915322,4.925502,0.0024321685,0.1358879,0.02683184,-0.40701428,-9.414001,2.3223755
0.030010201,4.925596,0.0024321685,0.1358879,0.02683184,-0.40701428,-9.414001,2.3223755
0.030103266,4.9256883,0.001366904,0.1358879,0.019374989,-0.4213795,-9.414001,2.3175871
0.03019563,4.92578,0.001366904,0.1358879,0.019374989,-0.4213795,-9.414001,2.3175871
0.030295929,4.925864,-0.0018288894,0.1358879,0.010852873,-0.49799395,-9.428367,2.3511062
0.03039539,4.925947,-0.0018288894,0.1358879,0.010852873,-0.49799395,-9.428367,2.3511062
0.030479616,4.92603,-0.0050246827,0.13375737,0.00020022877,-0.45489833,-9.442732,2.3175871
0.030563077,4.926112,-0.0050246827,0.13375737,0.00020022877,-0.45489833,-9.442732,2.3175871
0.030667605,4.9261794,-0.008220476,0.13162684,-0.009387151,-0.50757074,-9.399636,2.2409728
0.030771265,4.926246,-0.008220476,0.13162684,-0.009387151,-0.50757074,-9.399636,2.2409728
0.030878063,4.926303,-0.013546798,0.12949632,-0.020039797,-0.5650316,-9.504981,2.2697031
0.03098089,4.9263577,-0.013546798,0.12949632,-0.020039797,-0.5650316,-9.504981,2.2697031
0.031085957,4.9263964,-0.018873122,0.12736578,-0.028561912,-0.56982,-9.519346,2.2266076
0.031192942,4.9264364,-0.018873122,0.12736578,-0.028561912,-0.56982,-9.519346,2.2266076
0.031304244,4.9264593,-0.024199443,0.12310473,-0.034953497,-0.6464345,-9.437943,2.2026656
0.0314161,4.926483,-0.024199443,0.12310473,-0.034953497,-0.6464345,-9.437943,2.2026656
0.03151796,4.926505,-0.0284605,0.11564788,-0.04027982,-0.7086837,-9.466674,2.2505496
0.03161992,4.926527,-0.0284605,0.11564788,-0.04027982,-0.7086837,-9.466674,2.2505496
0.03172761,4.9265246,-0.034852087,0.10925629,-0.046671405,-0.80924016,-9.452309,2.1978772
0.03183526,4.9265223,-0.034852087,0.10925629,-0.046671405,-0.80924016,-9.452309,2.1978772
0.03193788,4.92651,-0.039113145,0.10179944,-0.053062994,-0.81881696,-9.390059,2.15957
0.032041255,4.926497,-0.039113145,0.10179944,-0.053062994,-0.81881696,-9.390059,2.15957
0.032137558,4.9264812,-0.043374203,0.09327733,-0.05732405,-0.8379706,-9.390059,2.1691468
0.032233853,4.926466,-0.043374203,0.09327733,-0.05732405,-0.8379706,-9.390059,2.1691468
0.03231821,4.9264607,-0.046569996,0.08262468,-0.059454583,-0.8283938,-9.361329,2.2218192
0.03240281,4.926455,-0.046569996,0.08262468,-0.059454583,-0.8283938,-9.361329,2.2218192
0.032485437,4.9264393,-0.050831053,0.07090677,-0.062650375,-0.8379706,-9.409213,2.2026656
0.032568544,4.926424,-0.050831053,0.07090677,-0.062650375,-0.8379706,-9.409213,2.2026656
0.032652274,4.9263945,-0.052961584,0.0581236,-0.064780906,-0.81402856,-9.433155,2.1499932
0.032735974,4.926366,-0.052961584,0.0581236,-0.064780906,-0.81402856,-9.433155,2.1499932
0.032809854,4.926345,-0.05509211,0.043209895,-0.06691143,-0.79966336,-9.466674,2.1930888
0.032883678,4.926324,-0.05509211,0.043209895,-0.06691143,-0.79966336,-9.466674,2.1930888
0.032949284,4.926304,-0.057222642,0.029361458,-0.07117249,-0.78529817,-9.394848,2.183512
0.0330148,4.9262834,-0.057222642,0.029361458,-0.07117249,-0.78529817,-9.394848,2.183512
0.03306079,4.926274,-0.05935317,0.012317227,-0.078629345,-0.6655881,-9.428367,2.1978772
0.03310683,4.9262643,-0.05935317,0.012317227,-0.078629345,-0.6655881,-9.428367,2.1978772
0.03315461,4.926237,-0.0614837,-0.005792269,-0.08395566,-0.6512229,-9.428367,2.135628
0.033202495,4.9262094,-0.0614837,-0.005792269,-0.08395566,-0.6512229,-9.428367,2.135628
0.03323969,4.926185,-0.062548965,-0.0228365,-0.08928198,-0.641646,-9.414001,2.1404164
0.033277098,4.9261603,-0.062548965,-0.0228365,-0.08928198,-0.641646,-9.414001,2.1404164
0.03331306,4.9261045,-0.06467949,-0.037750203,-0.0978041,-0.60333884,-9.495404,2.078167
0.033348724,4.926049,-0.06467949,-0.037750203,-0.0978041,-0.60333884,-9.495404,2.078167
0.03332582,4.9260597,-0.06574476,-0.054794434,-0.106326215,-0.5554548,-9.500193,2.2505496
0.033302937,4.9260693,-0.06574476,-0.054794434,-0.106326215,-0.5554548,-9.500193,2.2505496
0.033296667,4.9260554,-0.06681002,-0.0707734,-0.11378307,-0.5793968,-9.481039,2.1691468
0.03329038,4.9260416,-0.06681002,-0.0707734,-0.11378307,-0.5793968,-9.481039,2.1691468
0.033276252,4.926025,-0.06681002,-0.08462184,-0.121239915,-0.5650316,-9.457097,2.1499932
0.03326212,4.9260087,-0.06681002,-0.08462184,-0.121239915,-0.5650316,-9.457097,2.1499932
0.033228904,4.926005,-0.06681002,-0.09633975,-0.12656625,-0.56982,-9.548077,2.207454
0.033195797,4.9260006,-0.06681002,-0.09633975,-0.12656625,-0.56982,-9.548077,2.207454
0.033163343,4.9259944,-0.06574476,-0.106992394,-0.1276315,-0.5650316,-9.600749,2.2026656
0.03313102,4.925988,-0.06574476,-0.106992394,-0.1276315,-0.5650316,-9.600749,2.2026656
0.03311172,4.925967,-0.06361423,-0.11764504,-0.12550098,-0.5746084,-9.615114,2.1643584
0.033092555,4.9259467,-0.06361423,-0.11764504,-0.12550098,-0.5746084,-9.615114,2.1643584
0.03308449,4.925903,-0.0614837,-0.12723242,-0.122305185,-0.58897364,-9.629479,2.1164744
0.03307643,4.9258595,-0.0614837,-0.12723242,-0.122305185,-0.58897364,-9.629479,2.1164744
0.033072963,4.9258194,-0.05935317,-0.133624,-0.1159136,-0.58418524,-9.576807,2.1068976
0.033069443,4.92578,-0.05935317,-0.133624,-0.1159136,-0.58418524,-9.576807,2.1068976
0.033070933,4.9257526,-0.05509211,-0.13788506,-0.107391484,-0.58897364,-9.562442,2.1212628
0.033072297,4.9257264,-0.05509211,-0.13788506,-0.107391484,-0.58897364,-9.562442,2.1212628
0.03308871,4.925681,-0.050831053,-0.14214613,-0.095673576,-0.63206923,-9.576807,2.078167
0.033105034,4.9256363,-0.050831053,-0.14214613,-0.095673576,-0.63206923,-9.576807,2.078167
0.033134323,4.925598,-0.04763526,-0.14427665,-0.08182514,-0.6847417,-9.528923,2.078167
0.033163477,4.92556,-0.04763526,-0.14427665,-0.08182514,-0.6847417,-9.528923,2.078167
0.033197433,4.925558,-0.04443947,-0.14747244,-0.06584617,-0.60333884,-9.548077,2.1499932
0.03323122,4.9255557,-0.04443947,-0.14747244,-0.06584617,-0.60333884,-9.548077,2.1499932
0.03325123,4.925593,-0.03804788,-0.14960296,-0.048801936,-0.4309563,-9.581595,2.1499932
0.033271253,4.9256296,-0.03804788,-0.14960296,-0.048801936,-0.4309563,-9.581595,2.1499932
0.033260234,4.925694,-0.033786822,-0.14960296,-0.031757705,-0.3878607,-9.562442,2.183512
0.03324958,4.925758,-0.033786822,-0.14960296,-0.031757705,-0.3878607,-9.562442,2.183512
0.033224873,4.9258323,-0.0284605,-0.14747244,-0.020039797,-0.34955344,-9.586384,2.1643584
0.033200625,4.9259067,-0.0284605,-0.14747244,-0.020039797,-0.34955344,-9.586384,2.1643584
0.03322238,4.92598,-0.022068914,-0.14214613,-0.0072566224,-0.38307226,-9.653421,2.1787236
0.03324443,4.926053,-0.022068914,-0.14214613,-0.0072566224,-0.38307226,-9.653421,2.1787236
0.03320378,4.9261394,-0.017807856,-0.13788506,0.005526551,-0.31124622,-9.653421,2.2026656
0.033163223,4.926225,-0.017807856,-0.13788506,0.005526551,-0.31124622,-9.653421,2.2026656
0.033040185,4.9262776,-0.013546798,-0.13468927,0.015113931,-0.17238252,-9.682152,2.1930888
0.03291684,4.9263306,-0.013546798,-0.13468927,0.015113931,-0.17238252,-9.682152,2.1930888
0.032799486,4.926384,-0.008220476,-0.12829769,0.023636047,-0.076614454,-9.653421,2.2266076
0.032681484,4.926438,-0.008220476,-0.12829769,0.023636047,-0.076614454,-9.653421,2.2266076
0.032560423,4.926484,-0.006089947,-0.121906094,0.02683184,-0.033518825,-9.653421,2.2170308
0.03243914,4.926531,-0.006089947,-0.121906094,0.02683184,-0.033518825,-9.653421,2.2170308
0.03231522,4.926571,-0.0050246827,-0.11551451,0.027897105,0,-9.65821,2.207454
0.03219106,4.9266105,-0.0050246827,-0.11551451,0.027897105,0,-9.65821,2.207454
0.03206804,4.926652,-0.0028941538,-0.105927125,0.02683184,-0.0047884034,-9.667787,2.207454
0.031944886,4.926694,-0.0028941538,-0.105927125,0.02683184,-0.0047884034,-9.667787,2.207454
0.031855144,4.9267693,-0.0007636249,-0.09633975,0.025766576,-0.06703765,-9.634268,2.2936451
0.03176527,4.9268446,-0.0007636249,-0.09633975,0.025766576,-0.06703765,-9.634268,2.2936451
0.031670745,4.926919,0.0024321685,-0.08675237,0.024701312,-0.095768064,-9.667787,2.2601264
0.031575605,4.9269934,0.0024321685,-0.08675237,0.024701312,-0.095768064,-9.667787,2.2601264
0.03147023,4.9270573,0.005627962,-0.07609972,0.02683184,-0.08140286,-9.710882,2.231396
0.03136461,4.927121,0.005627962,-0.07609972,0.02683184,-0.08140286,-9.710882,2.231396
0.031285696,4.927208,0.00988902,-0.06544708,0.02683184,-0.090979666,-9.725247,2.3080103
0.031206552,4.9272947,0.00988902,-0.06544708,0.02683184,-0.090979666,-9.725247,2.3080103
0.031127486,4.927382,0.00988902,-0.06544708,0.02683184,-0.090979666,-9.725247,2.3080103
0.031073289,4.9274855,0.015215342,-0.05692496,0.027897105,-0.14844051,-9.691729,2.3223755
0.031019196,4.9275885,0.015215342,-0.05692496,0.027897105,-0.14844051,-9.691729,2.3223755
0.03098593,4.927703,0.020541664,-0.045207053,0.031092897,-0.21547815,-9.701305,2.2840683
0.030952696,4.9278164,0.020541664,-0.045207053,0.031092897,-0.21547815,-9.701305,2.2840683
0.03093854,4.9279404,0.026933251,-0.035619672,0.035353955,-0.25378537,-9.710882,2.255338
0.030924164,4.9280634,0.026933251,-0.035619672,0.035353955,-0.25378537,-9.710882,2.255338
0.03098332,4.928196,0.032259572,-0.027097559,0.040680278,-0.33518824,-9.667787,2.231396
0.031041976,4.928327,0.032259572,-0.027097559,0.040680278,-0.33518824,-9.667787,2.231396
0.031207431,4.9284134,0.037585896,-0.020705972,0.047071867,-0.37349546,-9.591172,2.1308396
0.031372637,4.928499,0.037585896,-0.020705972,0.047071867,-0.37349546,-9.591172,2.1308396
0.031389,4.928641,0.043977484,-0.016444914,0.056659244,-0.2873042,-9.543288,2.1499932
0.03140416,4.928782,0.043977484,-0.016444914,0.056659244,-0.2873042,-9.543288,2.1499932
0.031336468,4.9287915,0.047173277,-0.01324912,0.06624663,-0.20111294,-9.557653,2.0685902
0.03126911,4.9288,0.047173277,-0.01324912,0.06624663,-0.20111294,-9.557653,2.0685902
0.031210069,4.928893,0.051434334,-0.0068575335,0.07263821,-0.22505496,-9.552865,2.1260512
0.03114951,4.9289865,0.051434334,-0.0068575335,0.07263821,-0.22505496,-9.552865,2.1260512
0.031091591,4.9290705,0.0524996,-0.00046594674,0.075834006,-0.22505496,-9.528923,2.1164744
0.031034075,4.929153,0.0524996,-0.00046594674,0.075834006,-0.22505496,-9.528923,2.1164744
0.030979132,4.929177,0.054630127,0.0048603755,0.0790298,-0.23942018,-9.504981,2.078167
0.030924462,4.9291997,0.054630127,0.0048603755,0.0790298,-0.23942018,-9.504981,2.078167
0.03088155,4.9292088,0.056760654,0.010186698,0.08009506,-0.24420857,-9.423578,2.054225
0.030838955,4.9292173,0.056760654,0.010186698,0.08009506,-0.24420857,-9.423578,2.054225
0.030805457,4.92933,0.056760654,0.01551302,0.08116033,-0.21547815,-9.404425,2.111686
0.03077125,4.9294405,0.056760654,0.01551302,0.08116033,-0.21547815,-9.404425,2.111686
0.03077125,4.9294405,0.056760654,0.01551302,0.08116033,-0.21547815,-9.404425,2.111686
0.03073408,4.929703,0.056760654,0.019774077,0.07689927,-0.17238252,-9.351752,2.1547816
0.030673916,4.9297786,0.056760654,0.021904606,0.07263821,-0.19153613,-9.299079,2.0685902
0.03061232,4.929855,0.056760654,0.021904606,0.07263821,-0.19153613,-9.299079,2.0685902
0.03061232,4.929855,0.056760654,0.021904606,0.07263821,-0.19153613,-9.299079,2.0685902
0.030564604,4.9299994,0.054630127,0.0251004,0.06837715,-0.19632454,-9.270349,2.1021092
0.030581145,4.9302583,0.05036907,0.029361458,0.061985567,-0.24420857,-9.169792,2.0973208
0.030588044,4.930399,0.05036907,0.029361458,0.061985567,-0.24420857,-9.169792,2.0973208
0.03059137,4.930523,0.04610801,0.031491987,0.054528717,-0.23942018,-9.11712,2.0973208
0.030594181,4.930656,0.04610801,0.031491987,0.054528717,-0.23942018,-9.11712,2.0973208
0.03068137,4.9307933,0.040781688,0.032557253,0.0460066,-0.31603462,-9.088389,2.1021092
0.030766921,4.9309287,0.040781688,0.032557253,0.0460066,-0.31603462,-9.088389,2.1021092
0.030852761,4.9310575,0.033324838,0.033622514,0.040680278,-0.33997664,-9.045294,2.1452048
0.030852761,4.9310575,0.033324838,0.033622514,0.040680278,-0.33997664,-9.045294,2.1452048
0.030852761,4.9310575,0.033324838,0.033622514,0.040680278,-0.33997664,-9.045294,2.1452048
0.031062787,4.93144,0.024802722,0.033622514,0.033223428,-0.2681506,-8.99741,2.0973208
0.031173449,4.9315376,0.017345872,0.033622514,0.023636047,-0.32561144,-8.978256,2.0398598
0.031285815,4.931638,0.017345872,0.033622514,0.023636047,-0.32561144,-8.978256,2.0398598
0.03143599,4.931618,0.0077584907,0.032557253,0.009787609,-0.34955344,-8.911219,1.9728222
0.03158699,4.9315987,0.0077584907,0.032557253,0.009787609,-0.34955344,-8.911219,1.9728222
0.031705473,4.9316525,-0.0028941538,0.031491987,-0.0019303001,-0.44532153,-8.825027,2.0494366
0.031824104,4.9317064,-0.0028941538,0.031491987,-0.0019303001,-0.44532153,-8.825027,2.0494366
0.031944856,4.9317374,-0.015677327,0.02723093,-0.008321887,-0.5315128,-8.714894,2.0398598
0.03206572,4.9317684,-0.015677327,0.02723093,-0.008321887,-0.5315128,-8.714894,2.0398598
0.032153837,4.9318075,-0.029525764,0.018708814,-0.016844003,-0.44532153,-8.686164,2.0494366
0.03224191,4.931847,-0.029525764,0.018708814,-0.016844003,-0.44532153,-8.686164,2.0494366
0.032355078,4.9318047,-0.04443947,0.009121433,-0.029627176,-0.33039984,-8.7771435,1.958457
0.032468066,4.9317636,-0.04443947,0.009121433,-0.029627176,-0.33039984,-8.7771435,1.958457
0.032502368,4.9316163,-0.062548965,0.0016645822,-0.04241035,-0.33997664,-8.829816,1.9153614
0.03253769,4.9314694,-0.062548965,0.0016645822,-0.04241035,-0.33997664,-8.829816,1.9153614
0.032605257,4.9313498,-0.07852793,-0.0047270046,-0.060519844,-0.39264908,-8.853758,1.9393034
0.032673627,4.931231,-0.07852793,-0.0047270046,-0.060519844,-0.39264908,-8.853758,1.9393034
0.032730944,4.9311185,-0.0945069,-0.012183856,-0.07969461,-0.4213795,-8.920795,1.9680338
0.03278863,4.9310074,-0.0945069,-0.012183856,-0.07969461,-0.4213795,-8.920795,1.9680338
0.03280108,4.9308395,-0.1094206,-0.020705972,-0.09886937,-0.34955344,-8.992621,1.9728222
0.032815892,4.9306746,-0.1094206,-0.020705972,-0.09886937,-0.34955344,-8.992621,1.9728222
0.03276095,4.930464,-0.122203775,-0.031358615,-0.11697886,-0.35913026,-9.006987,1.9201498
0.03270773,4.930254,-0.122203775,-0.031358615,-0.11697886,-0.35913026,-9.006987,1.9201498
0.032693088,4.9300804,-0.13392168,-0.045207053,-0.13615362,-0.36391866,-9.002198,1.9728222
0.032680124,4.9299097,-0.13392168,-0.045207053,-0.13615362,-0.36391866,-9.002198,1.9728222
0.03265256,4.929759,-0.1456396,-0.057990227,-0.15852417,-0.37349546,-9.069236,2.0015526
0.032625154,4.929611,-0.1456396,-0.057990227,-0.15852417,-0.37349546,-9.069236,2.0015526
0.03257574,4.9294486,-0.15629223,-0.07183866,-0.17769894,-0.37349546,-9.064447,1.9967642
0.032526538,4.929289,-0.15629223,-0.07183866,-0.17769894,-0.37349546,-9.064447,1.9967642
0.032453388,4.929112,-0.16907541,-0.08462184,-0.19900422,-0.39264908,-9.088389,1.9967642
0.03238056,4.928938,-0.16907541,-0.08462184,-0.19900422,-0.39264908,-9.088389,1.9967642
0.032283023,4.9287767,-0.17972806,-0.09953554,-0.21924424,-0.4261679,-9.136273,2.0254946
0.032185223,4.9286175,-0.17972806,-0.09953554,-0.21924424,-0.4261679,-9.136273,2.0254946
0.032068398,4.9284344,-0.18825017,-0.11551451,-0.23735374,-0.49320555,-9.174581,2.0207062
0.031951685,4.9282537,-0.18825017,-0.11551451,-0.23735374,-0.49320555,-9.174581,2.0207062
0.031811547,4.9280276,-0.19783755,-0.13149348,-0.2512022,-0.46926352,-9.198523,1.9776106
0.031672142,4.9278035,-0.19783755,-0.13149348,-0.2512022,-0.46926352,-9.198523,1.9776106
0.031516246,4.9275694,-0.20742492,-0.14853771,-0.26398537,-0.44532153,-9.275137,1.9967642
0.031361118,4.9273367,-0.20742492,-0.14853771,-0.26398537,-0.44532153,-9.275137,1.9967642
0.031148264,4.927049,-0.21381652,-0.16451667,-0.27357274,-0.45010993,-9.3421755,1.9057846
0.030936869,4.926762,-0.21381652,-0.16451667,-0.27357274,-0.45010993,-9.3421755,1.9057846
0.030725963,4.9264793,-0.21807757,-0.18049563,-0.28102958,-0.39743748,-9.380483,1.9728222
0.030517824,4.9261985,-0.21807757,-0.18049563,-0.28102958,-0.39743748,-9.380483,1.9728222
0.030317225,4.925929,-0.22233863,-0.19434407,-0.2863559,-0.4309563,-9.361329,1.9728222
0.030118844,4.925662,-0.22233863,-0.19434407,-0.2863559,-0.4309563,-9.361329,1.9728222
0.029839218,4.9253473,-0.22553442,-0.20819251,-0.2927475,-0.32561144,-9.437943,1.9776106
0.029563006,4.9250317,-0.22553442,-0.20819251,-0.2927475,-0.32561144,-9.437943,1.9776106
0.02924845,4.9247036,-0.22766495,-0.22097568,-0.2959433,-0.31124622,-9.457097,1.9488802
0.028944613,4.924383,-0.22766495,-0.22097568,-0.2959433,-0.31124622,-9.457097,1.9488802
0.028657412,4.9240713,-0.22979549,-0.23375887,-0.30020434,-0.31603462,-9.509769,1.9776106
0.028369483,4.923755,-0.22979549,-0.23375887,-0.30020434,-0.31603462,-9.509769,1.9776106
0.02788978,4.923498,-0.22979549,-0.24441151,-0.30233487,-0.25857377,-9.481039,2.030283
0.027390921,4.923249,-0.22979549,-0.24441151,-0.30233487,-0.25857377,-9.481039,2.030283
0.026987417,4.922944,-0.22873022,-0.25399888,-0.30553067,-0.20111294,-9.524135,1.9440918
0.026574159,4.922631,-0.22873022,-0.25399888,-0.30553067,-0.20111294,-9.524135,1.9440918
0.026144486,4.9223213,-0.22979549,-0.26145574,-0.3076612,-0.17238252,-9.610326,1.9488802
0.025715342,4.9220114,-0.22979549,-0.26145574,-0.3076612,-0.17238252,-9.610326,1.9488802
0.025228756,4.9217443,-0.23086074,-0.26678208,-0.3097917,-0.110133275,-9.557653,1.9871874
0.024741642,4.9214783,-0.23086074,-0.26678208,-0.3097917,-0.110133275,-9.557653,1.9871874
0.024246402,4.921234,-0.22873022,-0.26997787,-0.30872646,-0.12928689,-9.581595,2.0159178
0.023750696,4.920992,-0.22873022,-0.26997787,-0.30872646,-0.12928689,-9.581595,2.0159178
0.023268647,4.920812,-0.22766495,-0.27210838,-0.30659592,-0.009576807,-9.605537,2.111686
0.022787727,4.9206333,-0.22766495,-0.27210838,-0.30659592,-0.009576807,-9.605537,2.111686
0.022293663,4.9204235,-0.22766495,-0.27104312,-0.30553067,-0.009576807,-9.667787,2.0638018
0.021800501,4.920215,-0.22766495,-0.27104312,-0.30553067,-0.009576807,-9.667787,2.0638018
0.02131555,4.9200287,-0.22553442,-0.26784733,-0.30553067,0.01436521,-9.715671,2.111686
0.020831995,4.919844,-0.22553442,-0.26784733,-0.30553067,0.01436521,-9.715671,2.111686
0.020360757,4.919679,-0.22233863,-0.26465154,-0.30553067,0.05746084,-9.782708,2.183512
0.019891134,4.9195156,-0.22233863,-0.26465154,-0.30553067,0.05746084,-9.782708,2.183512
0.01941936,4.9193583,-0.21914284,-0.2593252,-0.30553067,0.062249243,-9.859323,2.2218192
0.018968249,4.919208,-0.21914284,-0.2593252,-0.30553067,0.062249243,-9.859323,2.2218192
0.018525066,4.9190693,-0.21488178,-0.25293362,-0.30233487,0.0047884034,-9.916783,2.231396
0.018083036,4.9189305,-0.21488178,-0.25293362,-0.30233487,0.0047884034,-9.916783,2.231396
0.0176557,4.9188066,-0.20635967,-0.24547677,-0.29913908,0,-9.940725,2.2601264
0.017230105,4.9186835,-0.20635967,-0.24547677,-0.29913908,0,-9.940725,2.2601264
0.016812405,4.9185686,-0.19890282,-0.23801991,-0.29381275,0.01436521,-10.031705,2.2936451
0.016393838,4.918453,-0.19890282,-0.23801991,-0.29381275,0.01436521,-10.031705,2.2936451
0.015921924,4.9182944,-0.18931544,-0.2294978,-0.28529066,0.009576807,-10.070012,2.1499932
0.015472472,4.918145,-0.18931544,-0.2294978,-0.28529066,0.009576807,-10.070012,2.1499932
0.015055906,4.918035,-0.17866279,-0.22097568,-0.27570325,0,-10.113108,2.2122424
0.014638653,4.917926,-0.17866279,-0.22097568,-0.27570325,0,-10.113108,2.2122424
0.014199529,4.9177723,-0.17014067,-0.21245357,-0.26292008,-0.062249243,-10.151415,2.1260512
0.013761629,4.9176226,-0.17014067,-0.21245357,-0.26292008,-0.062249243,-10.151415,2.1260512
0.013349616,4.917425,-0.15842277,-0.2028662,-0.24800639,-0.038307227,-10.218452,2.0925324
0.013349616,4.917425,-0.15842277,-0.2028662,-0.24800639,-0.038307227,-10.218452,2.0925324
0.012743632,4.916943,-0.1456396,-0.19221355,-0.23309268,-0.12449849,-10.223241,2.087744
0.012451226,4.9167013,-0.1456396,-0.19221355,-0.23309268,-0.12449849,-10.223241,2.087744
0.012176387,4.916474,-0.13072589,-0.18262617,-0.21285266,-0.10534488,-10.223241,2.0350714
0.011904394,4.916247,-0.13072589,-0.18262617,-0.21285266,-0.10534488,-10.223241,2.0350714
0.011652232,4.916034,-0.11687745,-0.1730388,-0.19048211,-0.10055647,-10.184934,2.030283
0.011402618,4.91582,-0.11687745,-0.1730388,-0.19048211,-0.10055647,-10.184934,2.030283
0.011244069,4.9156218,-0.104094274,-0.16238615,-0.16917682,-0.14844051,-10.13705,2.0159178
0.011088486,4.915424,-0.104094274,-0.16238615,-0.16917682,-0.14844051,-10.13705,2.0159178
0.010937573,4.915236,-0.09024584,-0.1517335,-0.145741,-0.12928689,-10.117896,2.0159178
0.010789953,4.915049,-0.09024584,-0.1517335,-0.145741,-0.12928689,-10.117896,2.0159178
0.010709779,4.9148884,-0.07426687,-0.14214613,-0.121239915,-0.14844051,-10.0987425,2.0254946
0.010632753,4.914728,-0.07426687,-0.14214613,-0.121239915,-0.14844051,-10.0987425,2.0254946
0.010511492,4.914569,-0.060418434,-0.13255873,-0.0978041,-0.110133275,-10.0748005,1.9871874
0.010391941,4.9144096,-0.060418434,-0.13255873,-0.0978041,-0.110133275,-10.0748005,1.9871874
0.010281662,4.914264,-0.046569996,-0.122971356,-0.07330302,-0.090979666,-10.007763,1.9393034
0.010172289,4.914119,-0.046569996,-0.122971356,-0.07330302,-0.090979666,-10.007763,1.9393034
0.010005532,4.914012,-0.033786822,-0.11338398,-0.050932467,-0.04309563,-10.0269165,2.0015526
0.009839236,4.9139047,-0.033786822,-0.11338398,-0.050932467,-0.04309563,-10.0269165,2.0015526
0.009648864,4.9138775,-0.022068914,-0.10486186,-0.029627176,-0.01436521,-10.0269165,2.0446482
0.009459284,4.913851,-0.022068914,-0.10486186,-0.029627176,-0.01436521,-10.0269165,2.0446482
0.0093098655,4.9138937,-0.009285741,-0.09740501,-0.010452416,0,-9.945514,2.0733786
0.009160609,4.913937,-0.009285741,-0.09740501,-0.010452416,0,-9.945514,2.0733786
0.009016717,4.913972,0.00030163955,-0.08888289,0.005526551,0.04309563,-9.92636,2.0638018
0.008873269,4.914007,0.00030163955,-0.08888289,0.005526551,0.04309563,-9.92636,2.0638018
0.008737059,4.9140263,0.010954284,-0.08142605,0.020440254,0.062249243,-9.868899,2.0254946
0.008601214,4.9140453,0.010954284,-0.08142605,0.020440254,0.062249243,-9.868899,2.0254946
0.008480044,4.914055,0.019476399,-0.07183866,0.033223428,0.07182605,-9.849746,2.0015526
0.008358997,4.9140644,0.019476399,-0.07183866,0.033223428,0.07182605,-9.849746,2.0015526
0.008254571,4.914116,0.026933251,-0.06331655,0.044941336,0.12449849,-9.816227,2.0446482
0.008150645,4.9141674,0.026933251,-0.06331655,0.044941336,0.12449849,-9.816227,2.0446482
0.00807566,4.9141483,0.034390103,-0.054794434,0.055593982,0.076614454,-9.768343,1.9249382
0.008000603,4.9141293,0.034390103,-0.054794434,0.055593982,0.076614454,-9.768343,1.9249382
0.007923258,4.9141393,0.039716423,-0.047337584,0.06731189,0.110133275,-9.715671,1.9440918
0.007845864,4.9141498,0.039716423,-0.047337584,0.06731189,0.110133275,-9.715671,1.9440918
0.0077756178,4.914175,0.043977484,-0.03988073,0.07689927,0.090979666,-9.643845,1.9488802
0.0077054235,4.9142,0.043977484,-0.03988073,0.07689927,0.090979666,-9.643845,1.9488802
