Pitch,Roll,Gyro_X,Gyro_Y,Gyro_Z,Accel_X,Accel_Y,Accel_Z
0.0010744192,4.940877,0.07700068,0.37131134,0.18768677,0.0047884034,-9.270349,2.1739352
0.0014473913,4.940998,0.07060909,0.3670503,0.17170781,-0.062249243,-9.294291,2.183512
0.0018169835,4.9411182,0.07060909,0.3670503,0.17170781,-0.062249243,-9.294291,2.183512
0.0020465578,4.9412823,0.06421751,0.36278924,0.15785937,-0.01436521,-9.308656,2.2170308
0.0022717938,4.9414454,0.06421751,0.36278924,0.15785937,-0.01436521,-9.308656,2.2170308
0.0025394738,4.941596,0.056760654,0.35639766,0.14401093,-0.05267244,-9.337387,2.2409728
0.0028051606,4.9417467,0.056760654,0.35639766,0.14401093,-0.05267244,-9.337387,2.2409728
0.0031293393,4.941848,0.049303804,0.35000607,0.12909722,-0.08619126,-9.380483,2.2170308
0.0034529935,4.94195,0.049303804,0.35000607,0.12909722,-0.08619126,-9.380483,2.2170308
0.0037341374,4.941915,0.043977484,0.34467974,0.11631405,-0.12928689,-9.361329,2.1021092
0.0040139565,4.94188,0.043977484,0.34467974,0.11631405,-0.12928689,-9.361329,2.1021092
0.004329615,4.9418983,0.037585896,0.33722287,0.103530884,-0.20111294,-9.399636,2.1739352
0.004644188,4.941916,0.037585896,0.33722287,0.103530884,-0.20111294,-9.399636,2.1739352
0.0049448307,4.941927,0.032259572,0.32870078,0.09074771,-0.24899697,-9.390059,2.1643584
0.0052453694,4.9419384,0.032259572,0.32870078,0.09074771,-0.24899697,-9.390059,2.1643584
0.0055219377,4.941919,0.026933251,0.32017866,0.08009506,-0.30645782,-9.457097,2.1164744
0.005798056,4.9418993,0.026933251,0.32017866,0.08009506,-0.30645782,-9.457097,2.1164744
0.0060734474,4.9418893,0.022672193,0.31165653,0.07263821,-0.320823,-9.452309,2.1452048
0.0063481187,4.941879,0.022672193,0.31165653,0.07263821,-0.320823,-9.452309,2.1452048
0.0066169566,4.941873,0.019476399,0.3031344,0.06518136,-0.4213795,-9.476251,2.1499932
0.0068857213,4.941867,0.019476399,0.3031344,0.06518136,-0.4213795,-9.476251,2.1499932
0.0071426053,4.9418488,0.015215342,0.29354703,0.05772451,-0.4357447,-9.461885,2.1212628
0.007398666,4.9418306,0.015215342,0.29354703,0.05772451,-0.4357447,-9.461885,2.1212628
0.0076495986,4.941814,0.012019549,0.28395966,0.052398186,-0.48841715,-9.423578,2.1164744
0.007900251,4.9417973,0.012019549,0.28395966,0.052398186,-0.48841715,-9.423578,2.1164744
0.008149395,4.9417925,0.00988902,0.27330703,0.049202394,-0.5267244,-9.44752,2.1643584
0.008398775,4.9417877,0.00988902,0.27330703,0.049202394,-0.5267244,-9.44752,2.1643584
0.00864526,4.9417815,0.0066932263,0.2615891,0.049202394,-0.49320555,-9.44752,2.1739352
0.008891999,4.9417753,0.0066932263,0.2615891,0.049202394,-0.49320555,-9.44752,2.1739352
0.0091335,4.941758,0.003497433,0.2498712,0.04813713,-0.49320555,-9.428367,2.1452048
0.009374997,4.941741,0.003497433,0.2498712,0.04813713,-0.49320555,-9.428367,2.1452048
0.009615867,4.9417334,0.00030163955,0.2381533,0.04813713,-0.51235914,-9.428367,2.183512
0.009856725,4.9417257,0.00030163955,0.2381533,0.04813713,-0.51235914,-9.428367,2.183512
0.010094428,4.9417014,-0.0018288894,0.22643538,0.05026766,-0.50278234,-9.41879,2.135628
0.010332094,4.9416766,-0.0018288894,0.22643538,0.05026766,-0.50278234,-9.41879,2.135628
0.010567257,4.9416547,-0.0039594183,0.21471748,0.049202394,-0.47884035,-9.442732,2.15957
0.010802388,4.941633,-0.0039594183,0.21471748,0.049202394,-0.47884035,-9.442732,2.15957
0.011034578,4.9416237,-0.006089947,0.20299956,0.047071867,-0.45489833,-9.471462,2.207454
0.011266297,4.9416146,-0.006089947,0.20299956,0.047071867,-0.45489833,-9.471462,2.207454
0.011486437,4.941636,-0.008220476,0.19128166,0.044941336,-0.37349546,-9.514558,2.2840683
0.011706049,4.941657,-0.008220476,0.19128166,0.044941336,-0.37349546,-9.514558,2.2840683
0.011927209,4.941658,-0.010351005,0.17956375,0.042810805,-0.35434186,-9.562442,2.255338
0.012148354,4.9416595,-0.010351005,0.17956375,0.042810805,-0.35434186,-9.562442,2.255338
0.012321772,4.9417167,-0.012481534,0.1689111,0.03854975,-0.32561144,-9.552865,2.384625
0.0124949245,4.941774,-0.012481534,0.1689111,0.03854975,-0.32561144,-9.552865,2.384625
0.012675036,4.941823,-0.012481534,0.16038899,0.03641922,-0.33997664,-9.552865,2.360683
0.012855171,4.9418716,-0.012481534,0.16038899,0.03641922,-0.33997664,-9.552865,2.360683
0.0130427005,4.941908,-0.012481534,0.15186687,0.033223428,-0.36870706,-9.576807,2.3415294
0.0132288,4.941944,-0.012481534,0.15186687,0.033223428,-0.36870706,-9.576807,2.3415294
0.013397491,4.941995,-0.012481534,0.14334476,0.031092897,-0.41180268,-9.586384,2.4181437
0.013566415,4.942046,-0.012481534,0.14334476,0.031092897,-0.41180268,-9.586384,2.4181437
0.013741624,4.942091,-0.0114162695,0.13801843,0.031092897,-0.4213795,-9.595961,2.3942018
0.013916922,4.942136,-0.0114162695,0.13801843,0.031092897,-0.4213795,-9.595961,2.3942018
0.014094767,4.942178,-0.010351005,0.13269211,0.031092897,-0.49799395,-9.634268,2.4229321
0.014272549,4.94222,-0.010351005,0.13269211,0.031092897,-0.49799395,-9.634268,2.4229321
0.014470025,4.9422245,-0.009285741,0.12736578,0.031092897,-0.48841715,-9.653421,2.2984335
0.014470025,4.9422245,-0.009285741,0.12736578,0.031092897,-0.48841715,-9.653421,2.2984335
0.014884898,4.942234,-0.008220476,0.12203947,0.035353955,-0.5267244,-9.677363,2.2984335
0.015076101,4.942236,-0.008220476,0.12203947,0.035353955,-0.5267244,-9.677363,2.2984335
0.015076101,4.942236,-0.008220476,0.12203947,0.035353955,-0.5267244,-9.677363,2.2984335
0.015076101,4.942236,-0.008220476,0.12203947,0.035353955,-0.5267244,-9.677363,2.2984335
0.015775848,4.9423237,-0.0007636249,0.11032156,0.0460066,-0.49799395,-9.586384,2.3175871
0.01593622,4.9423437,-0.0007636249,0.11032156,0.0460066,-0.49799395,-9.586384,2.3175871
0.016118212,4.942377,0.0024321685,0.1060605,0.05026766,-0.49799395,-9.634268,2.3511062
0.016292823,4.9424086,0.0024321685,0.1060605,0.05026766,-0.49799395,-9.634268,2.3511062
0.016500847,4.942451,0.0066932263,0.102864705,0.05772451,-0.45010993,-9.734824,2.3654714
0.016709877,4.9424944,0.0066932263,0.102864705,0.05772451,-0.45010993,-9.734824,2.3654714
0.01691986,4.942547,0.00988902,0.09860365,0.06305083,-0.39743748,-9.830592,2.384625
0.01713377,4.9426003,0.00988902,0.09860365,0.06305083,-0.39743748,-9.830592,2.384625
0.017355293,4.9426317,0.0141500775,0.09647312,0.06837715,-0.40222588,-9.868899,2.3463178
0.01757997,4.942664,0.0141500775,0.09647312,0.06837715,-0.40222588,-9.868899,2.3463178
0.017790407,4.9427342,0.018411135,0.09221206,0.073703475,-0.39264908,-9.892841,2.4181437
0.018001216,4.942805,0.018411135,0.09221206,0.073703475,-0.39264908,-9.892841,2.4181437
0.018208025,4.9428887,0.024802722,0.089016266,0.07689927,-0.36870706,-9.868899,2.4181437
0.018415755,4.942973,0.024802722,0.089016266,0.07689927,-0.36870706,-9.868899,2.4181437
0.01859485,4.943083,0.030129045,0.085820474,0.08009506,-0.33039984,-9.888053,2.4660277
0.018774072,4.9431925,0.030129045,0.085820474,0.08009506,-0.33039984,-9.888053,2.4660277
0.018977238,4.9432974,0.03545537,0.08155942,0.087551914,-0.34476504,-9.830592,2.4229321
0.01917999,4.9434023,0.03545537,0.08155942,0.087551914,-0.34476504,-9.830592,2.4229321
0.019381227,4.9435177,0.040781688,0.08049415,0.09287824,-0.33039984,-9.816227,2.4229321
0.019582255,4.943632,0.040781688,0.08049415,0.09287824,-0.33039984,-9.816227,2.4229321
0.019815786,4.9437284,0.045042746,0.08049415,0.09820456,-0.33518824,-9.825804,2.3750482
0.020049313,4.943825,0.045042746,0.08049415,0.09820456,-0.33518824,-9.825804,2.3750482
0.02026107,4.9439483,0.05036907,0.08155942,0.102465615,-0.31603462,-9.825804,2.408567
0.020472595,4.9440727,0.05036907,0.08155942,0.102465615,-0.31603462,-9.825804,2.408567
0.020722158,4.9440856,0.05782592,0.08155942,0.10779194,-0.30645782,-9.753978,2.2649148
0.02097101,4.944097,0.05782592,0.08155942,0.10779194,-0.30645782,-9.753978,2.2649148
0.021239365,4.9441814,0.06421751,0.08368994,0.11524879,-0.33997664,-9.715671,2.3127987
0.021507813,4.9442644,0.06421751,0.08368994,0.11524879,-0.33997664,-9.715671,2.3127987
0.021784753,4.9443274,0.06847856,0.085820474,0.120575115,-0.31603462,-9.667787,2.27928
0.02206159,4.944389,0.06847856,0.085820474,0.120575115,-0.31603462,-9.667787,2.27928
0.022343703,4.944451,0.07273962,0.087951005,0.12590143,-0.30645782,-9.653421,2.2744915
0.022625599,4.9445114,0.07273962,0.087951005,0.12590143,-0.30645782,-9.653421,2.2744915
0.022900619,4.944625,0.07700068,0.090081535,0.12803197,-0.2681506,-9.605537,2.2840683
0.02317638,4.944738,0.07700068,0.090081535,0.12803197,-0.2681506,-9.605537,2.2840683
0.023372535,4.9447203,0.07806595,0.09221206,0.13122776,-0.23463176,-9.619903,2.2649148
0.023553502,4.9446993,0.07806595,0.09221206,0.13122776,-0.23463176,-9.619903,2.2649148
0.023693824,4.9446764,0.07913121,0.09540785,0.13122776,-0.22984336,-9.548077,2.2457612
0.023822905,4.944655,0.07913121,0.09540785,0.13122776,-0.22984336,-9.548077,2.2457612
0.024004517,4.9448304,0.07913121,0.09753838,0.13122776,-0.24899697,-9.471462,2.2936451
0.024184255,4.9450064,0.07913121,0.09753838,0.13122776,-0.24899697,-9.471462,2.2936451
0.024225805,4.945145,0.07806595,0.09966891,0.13122776,-0.20590134,-9.504981,2.2697031
0.024263488,4.94528,0.07806595,0.09966891,0.13122776,-0.20590134,-9.504981,2.2697031
0.024329336,4.945435,0.074870154,0.100734174,0.1269667,-0.17717093,-9.471462,2.3080103
0.024393234,4.945589,0.074870154,0.100734174,0.1269667,-0.17717093,-9.471462,2.3080103
0.024396699,4.945672,0.07167436,0.102864705,0.12164038,-0.1340753,-9.433155,2.2505496
0.02439993,4.945754,0.07167436,0.102864705,0.12164038,-0.1340753,-9.433155,2.2505496
0.0244085,4.9458623,0.06954383,0.10392997,0.11524879,-0.15322891,-9.414001,2.2649148
0.024416225,4.945969,0.06954383,0.10392997,0.11524879,-0.15322891,-9.414001,2.2649148
0.024418253,4.946072,0.06528277,0.1060605,0.1088572,-0.11492168,-9.380483,2.2697031
0.02441971,4.9461737,0.06528277,0.1060605,0.1088572,-0.11492168,-9.380483,2.2697031
0.024455626,4.9463096,0.061021715,0.10712577,0.103530884,-0.18195933,-9.428367,2.2936451
0.02448974,4.946444,0.061021715,0.10712577,0.103530884,-0.18195933,-9.428367,2.2936451
0.024524966,4.946418,0.055695392,0.10925629,0.09820456,-0.22505496,-9.361329,2.2218192
0.024557121,4.946394,0.055695392,0.10925629,0.09820456,-0.22505496,-9.361329,2.2218192
0.024604233,4.9465294,0.05036907,0.11138682,0.09181297,-0.22984336,-9.452309,2.2649148
0.024642186,4.946661,0.05036907,0.11138682,0.09181297,-0.22984336,-9.452309,2.2649148
0.024886709,4.946681,0.045042746,0.11351735,0.08435612,-0.29688102,-9.452309,2.2457612
0.025130773,4.946699,0.045042746,0.11351735,0.08435612,-0.29688102,-9.452309,2.2457612
0.02534761,4.9466763,0.040781688,0.11564788,0.08116033,-0.33039984,-9.471462,2.2122424
0.025563598,4.946653,0.040781688,0.11564788,0.08116033,-0.33039984,-9.471462,2.2122424
0.025796564,4.9466476,0.03652063,0.117778406,0.0790298,-0.37828386,-9.557653,2.2409728
0.026029464,4.946642,0.03652063,0.117778406,0.0790298,-0.37828386,-9.557653,2.2409728
0.02625797,4.946625,0.032259572,0.118843675,0.0790298,-0.4405331,-9.548077,2.207454
0.02648646,4.946608,0.032259572,0.118843675,0.0790298,-0.4405331,-9.548077,2.207454
0.026705768,4.9465723,0.027998514,0.11990894,0.08222559,-0.46447513,-9.591172,2.1739352
0.026924768,4.946537,0.027998514,0.11990894,0.08222559,-0.46447513,-9.591172,2.1739352
0.027168285,4.9465265,0.024802722,0.11990894,0.08542138,-0.5410896,-9.586384,2.2170308
0.027411696,4.946516,0.024802722,0.11990894,0.08542138,-0.5410896,-9.586384,2.2170308
0.02764074,4.946476,0.023737457,0.11990894,0.09181297,-0.5315128,-9.605537,2.1452048
0.027869312,4.9464364,0.023737457,0.11990894,0.09181297,-0.5315128,-9.605537,2.1452048
0.028121317,4.9464207,0.024802722,0.116713144,0.09713929,-0.62249243,-9.615114,2.1883004
0.02837246,4.946405,0.024802722,0.116713144,0.09713929,-0.62249243,-9.615114,2.1883004
0.028631981,4.9463916,0.026933251,0.11351735,0.103530884,-0.62249243,-9.662998,2.2026656
0.028890342,4.9463787,0.026933251,0.11351735,0.103530884,-0.62249243,-9.662998,2.2026656
0.029156232,4.946378,0.030129045,0.10819103,0.11311826,-0.641646,-9.643845,2.2218192
0.029425528,4.9463778,0.030129045,0.10819103,0.11311826,-0.641646,-9.643845,2.2218192
0.029704113,4.9463863,0.033324838,0.10179944,0.12164038,-0.6368576,-9.643845,2.2409728
0.029982066,4.946395,0.033324838,0.10179944,0.12164038,-0.6368576,-9.643845,2.2409728
0.030268587,4.9464383,0.037585896,0.09540785,0.12803197,-0.61291564,-9.629479,2.3127987
0.030554848,4.946481,0.037585896,0.09540785,0.12803197,-0.61291564,-9.629479,2.3127987
0.030843284,4.9465013,0.043977484,0.087951005,0.13548881,-0.5650316,-9.643845,2.255338
0.031132748,4.946521,0.043977484,0.087951005,0.13548881,-0.5650316,-9.643845,2.255338
0.0314273,4.9465547,0.049303804,0.08155942,0.14081514,-0.5746084,-9.691729,2.2840683
0.031721544,4.946588,0.049303804,0.08155942,0.14081514,-0.5746084,-9.691729,2.2840683
0.032025296,4.9466434,0.05356486,0.074102566,0.15040252,-0.5315128,-9.696517,2.3175871
0.032328736,4.9466977,0.05356486,0.074102566,0.15040252,-0.5315128,-9.696517,2.3175871
0.032622505,4.9467077,0.05782592,0.06771098,0.15892464,-0.50278234,-9.725247,2.2505496
0.03291578,4.9467163,0.05782592,0.06771098,0.15892464,-0.50278234,-9.725247,2.2505496
0.033222035,4.9467454,0.062086977,0.062384658,0.16425095,-0.545878,-9.753978,2.2744915
0.033529263,4.946774,0.062086977,0.062384658,0.16425095,-0.545878,-9.753978,2.2744915
0.033842918,4.9468184,0.06634804,0.057058334,0.16851202,-0.5410896,-9.782708,2.303222
0.03415672,4.946862,0.06634804,0.057058334,0.16851202,-0.5410896,-9.782708,2.303222
0.034476943,4.9469104,0.07167436,0.053862542,0.17596887,-0.63206923,-9.734824,2.2744915
0.034796726,4.946958,0.07167436,0.053862542,0.17596887,-0.63206923,-9.734824,2.2744915
0.035123367,4.947006,0.07700068,0.05173201,0.18555625,-0.60333884,-9.811439,2.2888567
0.03544981,4.947053,0.07700068,0.05173201,0.18555625,-0.60333884,-9.811439,2.2888567
0.035790756,4.947117,0.08126174,0.04853622,0.19727415,-0.60812724,-9.753978,2.2984335
0.03613161,4.94718,0.08126174,0.04853622,0.19727415,-0.60812724,-9.753978,2.2984335
0.036478713,4.947238,0.087653324,0.046405688,0.20899206,-0.60812724,-9.821015,2.2936451
0.036826886,4.947295,0.087653324,0.046405688,0.20899206,-0.60812724,-9.821015,2.2936451
0.03719495,4.9473915,0.09511018,0.04427516,0.22390577,-0.6895301,-9.753978,2.336741
0.037562277,4.9474874,0.09511018,0.04427516,0.22390577,-0.6895301,-9.753978,2.336741
0.037941005,4.947571,0.09937123,0.04107937,0.23668894,-0.7182605,-9.749189,2.2936451
0.038318828,4.947654,0.09937123,0.04107937,0.23668894,-0.7182605,-9.749189,2.2936451
0.038705416,4.9477835,0.102567025,0.038948838,0.25053737,-0.6751649,-9.744401,2.3942018
0.03909437,4.947913,0.102567025,0.038948838,0.25053737,-0.6751649,-9.744401,2.3942018
0.039489612,4.948067,0.105762824,0.03468778,0.2675816,-0.5746084,-9.643845,2.384625
0.03991084,4.9482307,0.105762824,0.03468778,0.2675816,-0.5746084,-9.643845,2.384625
0.040210336,4.9484234,0.11002388,0.033622514,0.28036478,-0.4213795,-9.639056,2.3750482
0.04052675,4.94863,0.11002388,0.033622514,0.28036478,-0.4213795,-9.639056,2.3750482
0.040756743,4.9488354,0.11321967,0.03468778,0.28782162,-0.33039984,-9.543288,2.408567
0.040984258,4.9490395,0.11321967,0.03468778,0.28782162,-0.33039984,-9.543288,2.408567
0.0412013,4.9492426,0.11748073,0.038948838,0.2910174,-0.29688102,-9.524135,2.4181437
0.041415725,4.9494443,0.11748073,0.038948838,0.2910174,-0.29688102,-9.524135,2.4181437
0.04164641,4.9496574,0.122807056,0.04853622,0.28995216,-0.31124622,-9.461885,2.4229321
0.04187513,4.949869,0.122807056,0.04853622,0.28995216,-0.31124622,-9.461885,2.4229321
0.042097725,4.9500813,0.12387232,0.05599307,0.28462583,-0.320823,-9.433155,2.3989902
0.04231758,4.950292,0.12387232,0.05599307,0.28462583,-0.320823,-9.433155,2.3989902
0.04259861,4.950518,0.12493758,0.062384658,0.27823424,-0.40701428,-9.437943,2.408567
0.042876586,4.950743,0.12493758,0.062384658,0.27823424,-0.40701428,-9.437943,2.408567
0.043149434,4.9509687,0.12600285,0.06771098,0.27290794,-0.40701428,-9.414001,2.4133554
0.043420438,4.9511952,0.12600285,0.06771098,0.27290794,-0.40701428,-9.414001,2.4133554
0.04369867,4.951419,0.12387232,0.069841504,0.2675816,-0.4261679,-9.404425,2.480393
0.04397597,4.951643,0.12387232,0.069841504,0.2675816,-0.4261679,-9.404425,2.480393
0.044273183,4.951863,0.12174179,0.071972035,0.26225528,-0.47884035,-9.380483,2.4947581
0.044569295,4.9520826,0.12174179,0.071972035,0.26225528,-0.47884035,-9.380483,2.4947581
0.044912416,4.952286,0.119611256,0.07516783,0.25692895,-0.59376204,-9.303867,2.4612393
0.045255702,4.9524894,0.119611256,0.07516783,0.25692895,-0.59376204,-9.303867,2.4612393
0.04558437,4.952696,0.11748073,0.0762331,0.25479844,-0.5650316,-9.32781,2.4708161
0.045912307,4.952903,0.11748073,0.0762331,0.25479844,-0.5650316,-9.32781,2.4708161
0.04627166,4.9530926,0.1153502,0.07836362,0.25479844,-0.5602432,-9.346964,2.3894134
0.04662971,4.9532824,0.1153502,0.07836362,0.25479844,-0.5602432,-9.346964,2.3894134
0.04701555,4.953448,0.11215441,0.07836362,0.25479844,-0.59855044,-9.390059,2.3750482
0.047399826,4.9536133,0.11215441,0.07836362,0.25479844,-0.59855044,-9.390059,2.3750482
0.047793154,4.953678,0.11002388,0.07836362,0.2558637,-0.51714754,-9.390059,2.2888567
0.04818356,4.95374,0.11002388,0.07836362,0.2558637,-0.51714754,-9.390059,2.2888567
0.04855567,4.9539123,0.106828086,0.07836362,0.2558637,-0.521936,-9.409213,2.3511062
0.048927348,4.9540854,0.106828086,0.07836362,0.2558637,-0.521936,-9.409213,2.3511062
0.0491645,4.954093,0.106828086,0.07836362,0.2558637,-0.45968673,-9.452309,2.2744915
0.04939797,4.954101,0.106828086,0.07836362,0.2558637,-0.45968673,-9.452309,2.2744915
0.049616713,4.954114,0.10789335,0.07942889,0.25692895,-0.45010993,-9.346964,2.255338
0.049831737,4.9541273,0.10789335,0.07942889,0.25692895,-0.45010993,-9.346964,2.255338
0.050059315,4.954137,0.106828086,0.08368994,0.25692895,-0.45489833,-9.26556,2.2361844
0.050282948,4.9541473,0.106828086,0.08368994,0.25692895,-0.45489833,-9.26556,2.2361844
0.05060787,4.9541616,0.105762824,0.086885735,0.25160265,-0.521936,-9.246407,2.2122424
0.051028427,4.954178,0.105762824,0.086885735,0.25160265,-0.521936,-9.246407,2.2122424
0.05135044,4.9542227,0.104697555,0.086885735,0.24734159,-0.5746084,-9.222465,2.2361844
0.051695943,4.9542694,0.104697555,0.086885735,0.24734159,-0.5746084,-9.222465,2.2361844
0.051695943,4.9542694,0.104697555,0.086885735,0.24734159,-0.5746084,-9.222465,2.2361844
0.051695943,4.9542694,0.104697555,0.086885735,0.24734159,-0.5746084,-9.222465,2.2361844
0.052975792,4.954722,0.10150176,0.086885735,0.24201526,-0.58418524,-9.14585,2.2840683
0.053283114,4.954794,0.09830597,0.085820474,0.23562367,-0.62249243,-9.069236,2.2361844
0.05358678,4.95493,0.09297965,0.08368994,0.22923209,-0.56982,-9.078813,2.2888567
0.053979512,4.9551063,0.09297965,0.08368994,0.22923209,-0.56982,-9.078813,2.2888567
0.053979512,4.9551063,0.09297965,0.08368994,0.22923209,-0.56982,-9.078813,2.2888567
0.053979512,4.9551063,0.09297965,0.08368994,0.22923209,-0.56982,-9.078813,2.2888567
0.054841522,4.955696,0.07806595,0.074102566,0.21644892,-0.49799395,-9.040505,2.336741
0.054973237,4.955806,0.07806595,0.074102566,0.21644892,-0.49799395,-9.040505,2.336741
0.054973237,4.955806,0.07806595,0.074102566,0.21644892,-0.49799395,-9.040505,2.336741
0.055277955,4.9561205,0.06954383,0.06771098,0.20686153,-0.49320555,-8.99741,2.2601264
0.055367243,4.956239,0.06315224,0.061319392,0.19514363,-0.3878607,-9.021352,2.3080103
0.05545582,4.956357,0.06315224,0.061319392,0.19514363,-0.3878607,-9.021352,2.3080103
0.055516552,4.9564533,0.056760654,0.05599307,0.18022992,-0.31124622,-8.973468,2.2984335
0.055577002,4.9565487,0.056760654,0.05599307,0.18022992,-0.31124622,-8.973468,2.2984335
0.05561422,4.9566193,0.047173277,0.050666746,0.16531622,-0.320823,-9.040505,2.2888567
0.055651434,4.95669,0.047173277,0.050666746,0.16531622,-0.320823,-9.040505,2.2888567
0.055672273,4.956758,0.03865116,0.045340426,0.14720672,-0.29688102,-9.088389,2.3175871
0.055692896,4.9568253,0.03865116,0.045340426,0.14720672,-0.29688102,-9.088389,2.3175871
0.05568808,4.9568696,0.031194309,0.038948838,0.12803197,-0.31124622,-9.112331,2.2936451
0.055683214,4.9569135,0.031194309,0.038948838,0.12803197,-0.31124622,-9.112331,2.2936451
0.05566083,4.9569597,0.022672193,0.031491987,0.1088572,-0.33039984,-9.112331,2.3080103
0.05563835,4.957005,0.022672193,0.031491987,0.1088572,-0.33039984,-9.112331,2.3080103
0.055614192,4.957073,0.015215342,0.024035135,0.09074771,-0.3878607,-9.093178,2.3319526
0.055589765,4.9571404,0.015215342,0.024035135,0.09074771,-0.3878607,-9.093178,2.3319526
0.055526566,4.957149,0.00988902,0.017643549,0.07476874,-0.39743748,-9.131485,2.27928
0.05546315,4.957157,0.00988902,0.017643549,0.07476874,-0.39743748,-9.131485,2.27928
0.055390894,4.9571905,0.001366904,0.011251962,0.058789775,-0.4405331,-9.102755,2.2936451
0.05532135,4.9572225,0.001366904,0.011251962,0.058789775,-0.4405331,-9.102755,2.2936451
0.05524867,4.9572554,0.001366904,0.011251962,0.058789775,-0.4405331,-9.102755,2.2936451
0.055194333,4.957174,-0.0050246827,0.003795111,0.044941336,-0.47405192,-9.131485,2.2457612
0.055102732,4.957116,-0.0114162695,-0.0025964756,0.03428869,-0.49320555,-9.064447,2.255338
0.055010326,4.957059,-0.0114162695,-0.0025964756,0.03428869,-0.49320555,-9.064447,2.255338
0.05506654,4.9569454,-0.017807856,-0.008988062,0.025766576,-0.5315128,-9.102755,2.2266076
0.055123016,4.95683,-0.017807856,-0.008988062,0.025766576,-0.5315128,-9.102755,2.2266076
0.055165283,4.956709,-0.02313418,-0.014314385,0.019374989,-0.545878,-9.054871,2.135628
0.055207413,4.9565883,-0.02313418,-0.014314385,0.019374989,-0.545878,-9.054871,2.135628
0.0552413,4.9564652,-0.025264706,-0.019640706,0.014048667,-0.545878,-9.083601,2.1404164
0.0552752,4.956342,-0.025264706,-0.019640706,0.014048667,-0.545878,-9.083601,2.1404164
0.05533904,4.956224,-0.0284605,-0.02496703,0.011918138,-0.5554548,-9.093178,2.2026656
0.05540307,4.9561057,-0.0284605,-0.02496703,0.011918138,-0.5554548,-9.093178,2.2026656
0.055460736,4.955984,-0.031656295,-0.03242388,0.009787609,-0.58418524,-9.121908,2.15957
0.055518556,4.955862,-0.031656295,-0.03242388,0.009787609,-0.58418524,-9.121908,2.15957
0.05550067,4.9557285,-0.035917353,-0.03988073,0.0065918155,-0.51714754,-9.131485,2.231396
0.055482727,4.9555945,-0.035917353,-0.03988073,0.0065918155,-0.51714754,-9.131485,2.231396
0.05541356,4.9554667,-0.039113145,-0.04627232,0.0033960221,-0.45489833,-9.160215,2.1691468
0.055343952,4.9553385,-0.039113145,-0.04627232,0.0033960221,-0.45489833,-9.160215,2.1691468
0.055202078,4.955263,-0.042308938,-0.050533377,0.0012654932,-0.4165911,-9.141062,2.2361844
0.05505987,4.9551883,-0.042308938,-0.050533377,0.0012654932,-0.4165911,-9.141062,2.2361844
0.054909322,4.95516,-0.045504734,-0.0558597,0.0012654932,-0.44532153,-9.208099,2.2888567
0.05475892,4.9551325,-0.045504734,-0.0558597,0.0012654932,-0.44532153,-9.208099,2.2888567
0.054608773,4.9550653,-0.04763526,-0.06118602,0.0012654932,-0.33039984,-9.222465,2.2505496
0.05445812,4.9549975,-0.04763526,-0.06118602,0.0012654932,-0.33039984,-9.222465,2.2505496
0.05430343,4.954967,-0.046569996,-0.06544708,-0.0008650357,-0.29688102,-9.241618,2.3080103
0.054148484,4.954937,-0.046569996,-0.06544708,-0.0008650357,-0.29688102,-9.241618,2.3080103
0.053998083,4.9549227,-0.046569996,-0.06757761,-0.0008650357,-0.24420857,-9.23683,2.3463178
0.05384508,4.954909,-0.046569996,-0.06757761,-0.0008650357,-0.24420857,-9.23683,2.3463178
0.053690925,4.95489,-0.045504734,-0.066512346,-0.0029955646,-0.14844051,-9.227253,2.3463178
0.05353527,4.9548707,-0.045504734,-0.066512346,-0.0029955646,-0.14844051,-9.227253,2.3463178
0.05337416,4.954843,-0.042308938,-0.064381815,-0.008321887,-0.038307227,-9.232041,2.3223755
0.053213075,4.9548154,-0.042308938,-0.064381815,-0.008321887,-0.038307227,-9.232041,2.3223755
0.053049523,4.9548006,-0.04017841,-0.057990227,-0.014713474,-0.009576807,-9.203311,2.360683
0.052885886,4.954786,-0.04017841,-0.057990227,-0.014713474,-0.009576807,-9.203311,2.360683
0.05271879,4.9547663,-0.039113145,-0.047337584,-0.018974531,0.07182605,-9.203311,2.3511062
0.05255189,4.954747,-0.039113145,-0.047337584,-0.018974531,0.07182605,-9.203311,2.3511062
0.05238659,4.954748,-0.039113145,-0.036684938,-0.029627176,0.062249243,-9.260772,2.4660277
0.052221376,4.9547496,-0.039113145,-0.036684938,-0.029627176,0.062249243,-9.260772,2.4660277
0.052048746,4.9547534,-0.042308938,-0.02496703,-0.04454088,0.009576807,-9.23683,2.4756045
0.051873613,4.954757,-0.042308938,-0.02496703,-0.04454088,0.009576807,-9.23683,2.4756045
0.051702835,4.9547696,-0.04763526,-0.012183856,-0.062650375,-0.06703765,-9.255983,2.5330653
0.051529866,4.9547825,-0.04763526,-0.012183856,-0.062650375,-0.06703765,-9.255983,2.5330653
0.05134143,4.954789,-0.05402685,-0.0015312112,-0.08182514,-0.18674773,-9.299079,2.480393
0.05115341,4.954797,-0.05402685,-0.0015312112,-0.08182514,-0.18674773,-9.299079,2.480393
0.05096541,4.9548035,-0.05402685,-0.0015312112,-0.08182514,-0.18674773,-9.299079,2.480393
0.05079587,4.954821,-0.06361423,0.009121433,-0.09673884,-0.29688102,-9.299079,2.5091233
0.05062573,4.954838,-0.06361423,0.009121433,-0.09673884,-0.29688102,-9.299079,2.5091233
0.05049516,4.9548626,-0.07107108,0.018708814,-0.108456746,-0.4165911,-9.212888,2.504335
0.05036509,4.954887,-0.07107108,0.018708814,-0.108456746,-0.4165911,-9.212888,2.504335
0.05025443,4.954908,-0.076397404,0.024035135,-0.11697886,-0.47405192,-9.208099,2.5378537
0.0501442,4.954929,-0.076397404,0.024035135,-0.11697886,-0.47405192,-9.208099,2.5378537
0.050021086,4.9549465,-0.0795932,0.029361458,-0.121239915,-0.46447513,-9.255983,2.4229321
0.049899224,4.9549637,-0.0795932,0.029361458,-0.121239915,-0.46447513,-9.255983,2.4229321
0.049916383,4.954917,-0.08491952,0.03681831,-0.123370446,-0.5602432,-9.337387,2.336741
0.04993313,4.95487,-0.08491952,0.03681831,-0.123370446,-0.5602432,-9.337387,2.336741
0.049957845,4.9547577,-0.08705004,0.04214463,-0.12550098,-0.6560113,-9.409213,2.2984335
0.04998277,4.954645,-0.08705004,0.04214463,-0.12550098,-0.6560113,-9.409213,2.2984335
0.05001387,4.9545364,-0.08705004,0.046405688,-0.124435715,-0.7661445,-9.457097,2.3127987
0.05004175,4.95444,-0.08705004,0.046405688,-0.124435715,-0.7661445,-9.457097,2.3127987
0.050075784,4.954369,-0.08385425,0.04853622,-0.11910939,-0.7182605,-9.428367,2.3558946
0.05010993,4.954298,-0.08385425,0.04853622,-0.11910939,-0.7182605,-9.428367,2.3558946
0.05015176,4.9541955,-0.08065846,0.04853622,-0.11058728,-0.7757214,-9.399636,2.27928
0.050193623,4.9540935,-0.08065846,0.04853622,-0.11058728,-0.7757214,-9.399636,2.27928
0.05024064,4.954004,-0.07426687,0.046405688,-0.106326215,-0.6943185,-9.337387,2.2840683
0.05028756,4.9539156,-0.07426687,0.046405688,-0.106326215,-0.6943185,-9.337387,2.2840683
0.050341293,4.953841,-0.06787529,0.045340426,-0.09993463,-0.6655881,-9.32781,2.2936451
0.050394904,4.9537673,-0.06787529,0.045340426,-0.09993463,-0.6655881,-9.32781,2.2936451
0.05045693,4.953707,-0.062548965,0.045340426,-0.091412514,-0.6655881,-9.303867,2.2984335
0.0505188,4.9536476,-0.062548965,0.045340426,-0.091412514,-0.6655881,-9.303867,2.2984335
0.050576065,4.953624,-0.05935317,0.04427516,-0.08502093,-0.6607997,-9.232041,2.327164
0.050633043,4.953601,-0.05935317,0.04427516,-0.08502093,-0.6607997,-9.232041,2.327164
0.050693613,4.9535847,-0.058287904,0.045340426,-0.077564076,-0.6512229,-9.222465,2.3319526
0.050753947,4.953569,-0.058287904,0.045340426,-0.077564076,-0.6512229,-9.222465,2.3319526
0.050814256,4.953559,-0.058287904,0.04427516,-0.07330302,-0.6655881,-9.217676,2.3463178
0.050874382,4.9535484,-0.058287904,0.04427516,-0.07330302,-0.6655881,-9.217676,2.3463178
0.05087397,4.953578,-0.05935317,0.04107937,-0.07010722,-0.5650316,-9.198523,2.3942018
0.050873656,4.9536076,-0.05935317,0.04107937,-0.07010722,-0.5650316,-9.198523,2.3942018
0.05085849,4.9536405,-0.060418434,0.040014103,-0.06691143,-0.5363012,-9.337387,2.408567
0.050843526,4.9536734,-0.060418434,0.040014103,-0.06691143,-0.5363012,-9.337387,2.408567
0.050861772,4.9536953,-0.0614837,0.037883572,-0.064780906,-0.5602432,-9.3421755,2.384625
0.05087999,4.9537177,-0.0614837,0.037883572,-0.064780906,-0.5602432,-9.3421755,2.384625
0.050859023,4.9537535,-0.05935317,0.035753045,-0.064780906,-0.5315128,-9.375694,2.4229321
0.050838288,4.953789,-0.05935317,0.035753045,-0.064780906,-0.5315128,-9.375694,2.4229321
0.05086887,4.953809,-0.058287904,0.033622514,-0.06371564,-0.58897364,-9.380483,2.4037786
0.050899312,4.953829,-0.058287904,0.033622514,-0.06371564,-0.58897364,-9.380483,2.4037786
0.05098246,4.9537525,-0.057222642,0.030426722,-0.06371564,-0.62249243,-9.457097,2.3127987
0.051066004,4.953677,-0.057222642,0.030426722,-0.06371564,-0.62249243,-9.457097,2.3127987
0.051126424,4.953678,-0.05402685,0.028296193,-0.06371564,-0.5793968,-9.442732,2.3654714
0.051186427,4.9536796,-0.05402685,0.028296193,-0.06371564,-0.5793968,-9.442732,2.3654714
0.051234446,4.9536943,-0.05189632,0.026165664,-0.062650375,-0.62249243,-9.509769,2.4229321
0.051282022,4.9537096,-0.05189632,0.026165664,-0.062650375,-0.62249243,-9.509769,2.4229321
0.051366504,4.9536448,-0.048700526,0.024035135,-0.06158511,-0.62249243,-9.466674,2.3175871
0.05145125,4.9535813,-0.048700526,0.024035135,-0.06158511,-0.62249243,-9.466674,2.3175871
0.051508315,4.953597,-0.046569996,0.022969872,-0.058389317,-0.6368576,-9.504981,2.4181437
0.0515652,4.953613,-0.046569996,0.022969872,-0.058389317,-0.6368576,-9.504981,2.4181437
0.051658716,4.9535728,-0.04443947,0.021904606,-0.053062994,-0.7086837,-9.481039,2.3415294
0.05175233,4.9535327,-0.04443947,0.021904606,-0.053062994,-0.7086837,-9.481039,2.3415294
0.05184781,4.9535084,-0.039113145,0.019774077,-0.048801936,-0.6703765,-9.41879,2.336741
0.051943295,4.9534845,-0.039113145,0.019774077,-0.048801936,-0.6703765,-9.41879,2.336741
0.052041437,4.9534693,-0.034852087,0.018708814,-0.04454088,-0.6799533,-9.390059,2.336741
0.05213968,4.953454,-0.034852087,0.018708814,-0.04454088,-0.6799533,-9.390059,2.336741
0.052242614,4.9534054,-0.029525764,0.018708814,-0.04027982,-0.59855044,-9.380483,2.2936451
0.05234577,4.953357,-0.029525764,0.018708814,-0.04027982,-0.59855044,-9.380483,2.2936451
0.052319765,4.953432,-0.024199443,0.018708814,-0.037084028,-0.50757074,-9.313444,2.3654714
0.052294146,4.9535065,-0.024199443,0.018708814,-0.037084028,-0.50757074,-9.313444,2.3654714
0.052262682,4.9535856,-0.019938385,0.020839343,-0.037084028,-0.49799395,-9.227253,2.3415294
0.05223174,4.953665,-0.019938385,0.020839343,-0.037084028,-0.49799395,-9.227253,2.3415294
0.052168086,4.9537477,-0.013546798,0.022969872,-0.04241035,-0.45968673,-9.179369,2.3894134
0.05210473,4.9538307,-0.013546798,0.022969872,-0.04241035,-0.45968673,-9.179369,2.3894134
0.051971886,4.9538927,-0.0114162695,0.0251004,-0.0498672,-0.33518824,-9.169792,2.3942018
0.051838737,4.9539547,-0.0114162695,0.0251004,-0.0498672,-0.33518824,-9.169792,2.3942018
0.051673353,4.9539995,-0.0114162695,0.028296193,-0.060519844,-0.2873042,-9.184157,2.3702598
0.051508605,4.9540434,-0.0114162695,0.028296193,-0.060519844,-0.2873042,-9.184157,2.3702598
0.051367782,4.9541125,-0.012481534,0.032557253,-0.075433545,-0.2825158,-9.165004,2.4947581
0.051227048,4.954181,-0.012481534,0.032557253,-0.075433545,-0.2825158,-9.165004,2.4947581
0.051065072,4.954243,-0.015677327,0.037883572,-0.092477776,-0.2633622,-9.23683,2.5091233
0.050903216,4.954305,-0.015677327,0.037883572,-0.092477776,-0.2633622,-9.23683,2.5091233
0.050903216,4.954305,-0.015677327,0.037883572,-0.092477776,-0.2633622,-9.23683,2.5091233
0.050589986,4.954445,-0.019938385,0.040014103,-0.11271781,-0.31124622,-9.26556,2.6001031
0.050589986,4.954445,-0.019938385,0.040014103,-0.11271781,-0.31124622,-9.26556,2.6001031
0.050264183,4.9545703,-0.025264706,0.043209895,-0.1340231,-0.36391866,-9.3661175,2.566584
0.05006813,4.954637,-0.031656295,0.046405688,-0.15319785,-0.38307226,-9.356541,2.5809495
0.04989567,4.9546967,-0.031656295,0.046405688,-0.15319785,-0.38307226,-9.356541,2.5809495
0.049746078,4.954752,-0.03804788,0.04853622,-0.16917682,-0.47884035,-9.380483,2.566584
0.049746078,4.954752,-0.03804788,0.04853622,-0.16917682,-0.47884035,-9.380483,2.566584
0.04942331,4.9548516,-0.04443947,0.052797277,-0.18089473,-0.47884035,-9.390059,2.5713725
0.04925902,4.9549026,-0.04443947,0.052797277,-0.18089473,-0.47884035,-9.390059,2.5713725
0.049139928,4.9549417,-0.048700526,0.05599307,-0.19154738,-0.5554548,-9.452309,2.4708161
0.049139928,4.9549417,-0.048700526,0.05599307,-0.19154738,-0.5554548,-9.452309,2.4708161
0.048887603,4.9550247,-0.05189632,0.05918886,-0.19793896,-0.6751649,-9.404425,2.4756045
0.048816286,4.9550376,-0.05189632,0.05918886,-0.19793896,-0.6751649,-9.404425,2.4756045
0.048758544,4.955028,-0.05509211,0.061319392,-0.20220003,-0.78050977,-9.251195,2.4229321
0.048698816,4.9550176,-0.05509211,0.061319392,-0.20220003,-0.78050977,-9.251195,2.4229321
0.048630625,4.9550085,-0.05935317,0.061319392,-0.20539582,-0.81881696,-9.232041,2.456451
0.048563,4.9549985,-0.05935317,0.061319392,-0.20539582,-0.81881696,-9.232041,2.456451
0.04851436,4.9549446,-0.06574476,0.060254127,-0.20752634,-0.80924016,-9.308656,2.3463178
0.04846539,4.9548903,-0.06574476,0.060254127,-0.20752634,-0.80924016,-9.308656,2.3463178
0.04841893,4.954816,-0.07000581,0.0581236,-0.20646107,-0.79966336,-9.32781,2.3080103
0.0483725,4.954741,-0.07000581,0.0581236,-0.20646107,-0.79966336,-9.32781,2.3080103
0.048325058,4.95465,-0.07426687,0.053862542,-0.20539582,-0.80924016,-9.361329,2.2840683
0.04827767,4.9545593,-0.07426687,0.053862542,-0.20539582,-0.80924016,-9.361329,2.2840683
0.04823123,4.9544635,-0.076397404,0.05173201,-0.20326528,-0.7422025,-9.3661175,2.2840683
0.048184928,4.9543686,-0.076397404,0.05173201,-0.20326528,-0.7422025,-9.3661175,2.2840683
0.048137642,4.954306,-0.076397404,0.047470953,-0.20220003,-0.6703765,-9.351752,2.336741
0.048090238,4.954244,-0.076397404,0.047470953,-0.20220003,-0.6703765,-9.351752,2.336741
0.0480288,4.9542055,-0.077462666,0.043209895,-0.20433055,-0.60333884,-9.289502,2.3415294
0.047967315,4.9541674,-0.077462666,0.043209895,-0.20433055,-0.60333884,-9.289502,2.3415294
0.04788504,4.9541473,-0.076397404,0.04214463,-0.21072213,-0.49320555,-9.260772,2.303222
0.047803238,4.9541264,-0.076397404,0.04214463,-0.21072213,-0.49320555,-9.260772,2.303222
0.047618542,4.9541464,-0.075332135,0.04107937,-0.21711372,-0.45968673,-9.260772,2.303222
0.047443032,4.954166,-0.075332135,0.04107937,-0.21711372,-0.45968673,-9.260772,2.303222
0.04736935,4.954083,-0.076397404,0.040014103,-0.22989689,-0.5746084,-9.232041,2.2744915
0.04729569,4.9540005,-0.076397404,0.040014103,-0.22989689,-0.5746084,-9.232041,2.2744915
0.047205757,4.953939,-0.08065846,0.040014103,-0.24268007,-0.61291564,-9.208099,2.2984335
0.04711573,4.953878,-0.08065846,0.040014103,-0.24268007,-0.61291564,-9.208099,2.2984335
0.046995506,4.9538417,-0.08705004,0.037883572,-0.2533327,-0.6607997,-9.093178,2.3463178
0.046875317,4.9538054,-0.08705004,0.037883572,-0.2533327,-0.6607997,-9.093178,2.3463178
0.04672407,4.9537807,-0.093441635,0.032557253,-0.26292008,-0.6464345,-9.11712,2.4037786
0.04657308,4.9537554,-0.093441635,0.032557253,-0.26292008,-0.6464345,-9.11712,2.4037786
0.046402086,4.953727,-0.10196375,0.026165664,-0.274638,-0.62249243,-9.078813,2.3989902
0.046231475,4.953697,-0.10196375,0.026165664,-0.274638,-0.62249243,-9.078813,2.3989902
0.046001602,4.9536767,-0.11261639,0.019774077,-0.28529066,-0.47884035,-9.131485,2.3463178
0.045773596,4.9536552,-0.11261639,0.019774077,-0.28529066,-0.47884035,-9.131485,2.3463178
0.045423735,4.953615,-0.124334306,0.013382491,-0.2959433,-0.33039984,-9.107543,2.3798366
0.045075707,4.953576,-0.124334306,0.013382491,-0.2959433,-0.33039984,-9.107543,2.3798366
0.04463831,4.9534535,-0.13392168,0.010186698,-0.310857,-0.10534488,-9.040505,2.2601264
0.0442011,4.9533324,-0.13392168,0.010186698,-0.310857,-0.10534488,-9.040505,2.2601264
0.043744072,4.9532084,-0.14777012,0.009121433,-0.33535808,0.08619126,-8.959103,2.3080103
0.04328721,4.9530854,-0.14777012,0.009121433,-0.33535808,0.08619126,-8.959103,2.3080103
0.042801693,4.952948,-0.16587962,0.013382491,-0.36838126,0.18674773,-8.844181,2.3223755
0.0423164,4.9528117,-0.16587962,0.013382491,-0.36838126,0.18674773,-8.844181,2.3223755
0.041795984,4.9526577,-0.1871849,0.019774077,-0.4088613,0.24420857,-8.7292595,2.3319526
0.04127583,4.952504,-0.1871849,0.019774077,-0.4088613,0.24420857,-8.7292595,2.3319526
0.040721256,4.9523373,-0.21381652,0.028296193,-0.45679823,0.15801731,-8.671799,2.3654714
0.040167175,4.952171,-0.21381652,0.028296193,-0.45679823,0.15801731,-8.671799,2.3654714
0.0395807,4.951987,-0.24470918,0.035753045,-0.50793093,0.15322891,-8.604761,2.4516625
0.03899487,4.9518037,-0.24470918,0.035753045,-0.50793093,0.15322891,-8.604761,2.4516625
0.03835831,4.9515886,-0.27560186,0.04107937,-0.5611941,0.22026655,-8.604761,2.4899697
0.037722424,4.951374,-0.27560186,0.04107937,-0.5611941,0.22026655,-8.604761,2.4899697
0.03702325,4.9511185,-0.30862504,0.046405688,-0.61765313,0.17717093,-8.6574335,2.3989902
0.036324855,4.9508634,-0.30862504,0.046405688,-0.61765313,0.17717093,-8.6574335,2.3989902
0.035559967,4.9505644,-0.340583,0.050666746,-0.67517745,0.20111294,-8.710106,2.336741
0.034794252,4.9502654,-0.340583,0.050666746,-0.67517745,0.20111294,-8.710106,2.336741
0.0339634,4.9499207,-0.37254092,0.057058334,-0.7305712,0.16280572,-8.781932,2.2744915
0.033145588,4.949582,-0.37254092,0.057058334,-0.7305712,0.16280572,-8.781932,2.2744915
0.032265462,4.9492064,-0.40236834,0.06451519,-0.7870302,0.16280572,-8.801085,2.255338
0.031386826,4.948833,-0.40236834,0.06451519,-0.7870302,0.16280572,-8.801085,2.255338
0.030456066,4.9484367,-0.4300652,0.06877624,-0.8445545,0.2777274,-8.796297,2.3127987
0.029526008,4.948042,-0.4300652,0.06877624,-0.8445545,0.2777274,-8.796297,2.3127987
0.02852895,4.947604,-0.45563155,0.074102566,-0.90527457,0.48841715,-8.762778,2.255338
0.02753213,4.947168,-0.45563155,0.074102566,-0.90527457,0.48841715,-8.762778,2.255338
0.026473604,4.9467053,-0.48226315,0.08155942,-0.9713209,0.842759,-8.585608,2.2888567
0.0254152,4.946244,-0.48226315,0.08155942,-0.9713209,0.842759,-8.585608,2.2888567
0.024278652,4.945739,-0.5142211,0.09221206,-1.0501505,1.340753,-8.413225,2.207454
0.023132956,4.9452305,-0.5142211,0.09221206,-1.0501505,1.340753,-8.413225,2.207454
0.021503627,4.9445114,-0.55257064,0.10819103,-1.1492201,1.6998832,-8.1642275,2.2026656
0.02064963,4.9441347,-0.55257064,0.10819103,-1.1492201,1.6998832,-8.1642275,2.2026656
0.019203307,4.9435,-0.6037033,0.12736578,-1.269595,2.0111294,-7.9008656,2.2697031
0.017963149,4.942956,-0.6037033,0.12736578,-1.269595,2.0111294,-7.9008656,2.2697031
0.016536592,4.9423323,-0.66548866,0.1508016,-1.4123404,2.2026656,-7.551312,2.3558946
0.015073219,4.941694,-0.66548866,0.1508016,-1.4123404,2.2026656,-7.551312,2.3558946
0.0134533495,4.94098,-0.7400572,0.17423743,-1.5742606,2.3750482,-7.2304893,2.3750482
0.011834954,4.9402685,-0.7400572,0.17423743,-1.5742606,2.3750482,-7.2304893,2.3750482
0.01004564,4.939471,-0.8231478,0.1987385,-1.7510946,2.5091233,-6.9719152,2.3127987
0.008257833,4.938676,-0.8231478,0.1987385,-1.7510946,2.5091233,-6.9719152,2.3127987
0.0062873056,4.937789,-0.91476053,0.22110906,-1.9428421,2.4756045,-6.6750345,2.207454
0.00431843,4.936905,-0.91476053,0.22110906,-1.9428421,2.4756045,-6.6750345,2.207454
0.0021487484,4.9359207,-1.0116996,0.24241436,-2.147373,2.3798366,-6.4882865,2.0829554
6.2831664,4.93494,-1.0116996,0.24241436,-2.147373,2.3798366,-6.4882865,2.0829554
6.280797,4.933853,-1.113965,0.26265436,-2.3561647,2.2409728,-6.469133,1.9057846
6.2784247,4.932768,-1.113965,0.26265436,-2.3561647,2.2409728,-6.469133,1.9057846
6.275845,4.931575,-1.2172956,0.2796986,-2.566022,2.2266076,-6.411672,1.7860745
6.2732625,4.9303837,-1.2172956,0.2796986,-2.566022,2.2266076,-6.411672,1.7860745
6.270483,4.9290853,-1.3206263,0.29461232,-2.771618,2.3080103,-6.3446345,1.6089035
6.267703,4.9277897,-1.3206263,0.29461232,-2.771618,2.3080103,-6.3446345,1.6089035
6.264722,4.926396,-1.4196959,0.3063302,-2.978279,2.719813,-6.2392898,1.5610195
6.2617397,4.925005,-1.4196959,0.3063302,-2.978279,2.719813,-6.2392898,1.5610195
6.2585464,4.92352,-1.5177002,0.3191134,-3.1966584,3.107674,-5.9902925,1.5179238
6.255351,4.922039,-1.5177002,0.3191134,-3.1966584,3.107674,-5.9902925,1.5179238
6.251934,4.9204617,-1.6167698,0.3393534,-3.4267554,3.371036,-5.6790466,1.4317327
6.248515,4.918889,-1.6167698,0.3393534,-3.4267554,3.371036,-5.6790466,1.4317327
6.244857,4.9172177,-1.7190351,0.36172396,-3.674962,3.6248214,-5.329493,1.3072342
6.241196,4.9155507,-1.7190351,0.36172396,-3.674962,3.6248214,-5.329493,1.3072342
6.237282,4.913781,-1.8287574,0.381964,-3.940213,3.6774938,-5.0900726,1.2162545
6.2333617,4.912015,-1.8287574,0.381964,-3.940213,3.6774938,-5.0900726,1.2162545
6.2291703,4.910135,-1.9448713,0.3990082,-4.2171817,3.6966474,-4.9943047,1.0390835
6.224976,4.9082594,-1.9448713,0.3990082,-4.2171817,3.6966474,-4.9943047,1.0390835
6.220503,4.9062657,-2.0684419,0.41285667,-4.5016074,3.763685,-4.9224787,0.90979666
6.216027,4.904278,-2.0684419,0.41285667,-4.5016074,3.763685,-4.9224787,0.90979666
6.2112412,4.902155,-2.1962736,0.4203135,-4.790294,3.739743,-4.9895163,0.7757214
6.2059674,4.899824,-2.1962736,0.4203135,-4.790294,3.739743,-4.9895163,0.7757214
6.2013273,4.897776,-2.3251708,0.4213788,-5.0821767,3.8402996,-5.0182467,0.60333884
6.196417,4.8956156,-2.3251708,0.4213788,-5.0821767,3.8402996,-5.0182467,0.60333884
6.19107,4.8932643,-2.4519372,0.41605246,-5.3729935,3.514688,-5.2480903,0.44532153
6.185736,4.8909264,-2.4519372,0.41605246,-5.3729935,3.514688,-5.2480903,0.44532153
6.180107,4.8884535,-2.5733774,0.4032693,-5.6552887,3.2800562,-5.425261,0.15801731
6.174469,4.885985,-2.5733774,0.4032693,-5.6552887,3.2800562,-5.425261,0.15801731
6.168576,4.8834114,-2.68523,0.37770292,-5.921605,3.1747115,-5.645528,0.07182605
6.162673,4.8808417,-2.68523,0.37770292,-5.921605,3.1747115,-5.645528,0.07182605
6.1565237,4.87817,-2.7885606,0.33722287,-6.1634197,3.7445314,-5.884948,-0.23942018
6.150371,4.8755045,-2.7885606,0.33722287,-6.1634197,3.7445314,-5.884948,-0.23942018
6.1439734,4.8727465,-2.8844345,0.29354703,-6.402039,4.0701427,-6.05733,-0.40222588
6.1375527,4.8699865,-2.8844345,0.29354703,-6.402039,4.0701427,-6.05733,-0.40222588
6.130908,4.867142,-2.974982,0.25200173,-6.643854,4.185065,-6.26802,-0.6655881
6.1242595,4.864303,-2.974982,0.25200173,-6.643854,4.185065,-6.26802,-0.6655881
6.117361,4.8613915,-3.0612683,0.2083259,-6.8792777,4.9559975,-6.3063273,-0.6560113
6.1104665,4.858488,-3.0612683,0.2083259,-6.8792777,4.9559975,-6.3063273,-0.6560113
6.103309,4.855505,-3.1432939,0.16251951,-7.126419,5.3486466,-6.5696893,-0.6943185
6.096148,4.8525267,-3.1432939,0.16251951,-7.126419,5.3486466,-6.5696893,-0.6943185
6.088711,4.8494997,-3.2125359,0.116713144,-7.388474,5.861006,-6.129156,-0.2777274
6.0812626,4.8464746,-3.2125359,0.116713144,-7.388474,5.861006,-6.129156,-0.2777274
6.0735435,4.8434,-3.2721908,0.057058334,-7.6643777,6.0956373,-6.5361705,-0.07182605
6.0658054,4.8403234,-3.2721908,0.057058334,-7.6643777,6.0956373,-6.5361705,-0.07182605
6.0578017,4.8371763,-3.329715,-0.016444914,-7.940281,5.291186,-6.861782,-0.272939
6.049779,4.8340254,-3.329715,-0.016444914,-7.940281,5.291186,-6.861782,-0.272939
6.0415034,4.830795,-3.381913,-0.09740501,-8.203402,4.721366,-7.0820484,-0.6751649
6.033226,4.8275647,-3.381913,-0.09740501,-8.203402,4.721366,-7.0820484,-0.6751649
6.0247245,4.8242474,-3.4341109,-0.18795249,-8.438825,4.2999864,-7.431602,-1.1492168
6.01623,4.8209314,-3.4341109,-0.18795249,-8.438825,4.2999864,-7.431602,-1.1492168
6.0075493,4.8175225,-3.4873743,-0.28808734,-8.634833,3.7110126,-7.905654,-1.4173675
5.99886,4.814106,-3.4873743,-0.28808734,-8.634833,3.7110126,-7.905654,-1.4173675
5.990041,4.810608,-3.538507,-0.39887485,-8.796754,3.289633,-8.374918,-1.6184803
5.9812136,4.8071,-3.538507,-0.39887485,-8.796754,3.289633,-8.374918,-1.6184803
5.972275,4.8035064,-3.5821826,-0.5181845,-8.92352,2.8395233,-8.815451,-1.5945383
5.9633384,4.799905,-3.5821826,-0.5181845,-8.92352,2.8395233,-8.815451,-1.5945383
5.9543166,4.79622,-3.6162713,-0.6396246,-9.007676,2.585738,-9.155427,-1.6232687
5.9453163,4.7925315,-3.6162713,-0.6396246,-9.007676,2.585738,-9.155427,-1.6232687
5.9453163,4.7925315,-3.6162713,-0.6396246,-9.007676,2.585738,-9.155427,-1.6232687
5.9453163,4.7925315,-3.6162713,-0.6396246,-9.007676,2.585738,-9.155427,-1.6232687
5.9142933,4.7793994,-3.6524901,-0.87611336,-9.066265,2.384625,-9.787497,-1.5849615
5.906615,4.7761097,-3.6524901,-0.9826398,-9.051352,2.0925324,-10.070012,-1.5897499
5.899974,4.7732253,-3.6524901,-0.9826398,-9.051352,2.0925324,-10.070012,-1.5897499
5.8903785,4.769038,-3.6524901,-0.9826398,-9.051352,2.0925324,-10.070012,-1.5897499
5.881444,4.7650704,-3.639707,-1.0838399,-9.006611,2.1212628,-10.34774,-1.5562311
5.872641,4.761139,-3.639707,-1.0838399,-9.006611,2.1212628,-10.34774,-1.5562311
5.8633194,4.7568994,-3.6173365,-1.180779,-8.938434,2.3415294,-10.529699,-1.412579
5.8551965,4.7531815,-3.6173365,-1.180779,-8.938434,2.3415294,-10.529699,-1.412579
5.8464394,4.749097,-3.5875092,-1.2723917,-8.853212,2.6527755,-10.740389,-1.3024458
5.837663,4.744975,-3.5875092,-1.2723917,-8.853212,2.6527755,-10.740389,-1.3024458
5.828994,4.7408314,-3.55129,-1.3533518,-8.758404,2.96881,-10.759542,-0.89064306
5.820298,4.7366443,-3.55129,-1.3533518,-8.758404,2.96881,-10.759542,-0.89064306
5.81174,4.73246,-3.5076141,-1.4321814,-8.657204,3.2321723,-10.864887,-0.4357447
5.8032064,4.7282567,-3.5076141,-1.4321814,-8.657204,3.2321723,-10.864887,-0.4357447
5.7947497,4.7240233,-3.4575467,-1.5120763,-8.548547,3.4859576,-10.907983,-0.20111294
5.7862577,4.7197385,-3.4575467,-1.5120763,-8.548547,3.4859576,-10.907983,-0.20111294
5.7780676,4.7155466,-3.4010878,-1.5930363,-8.429237,3.5625722,-11.03727,0.10055647
5.7697835,4.7112694,-3.4010878,-1.5930363,-8.429237,3.5625722,-11.03727,0.10055647
5.7616267,4.7069836,-3.338237,-1.680388,-8.29608,3.6774938,-11.209652,0.34476504
5.753477,4.70266,-3.338237,-1.680388,-8.29608,3.6774938,-11.209652,0.34476504
5.745481,4.698332,-3.2657993,-1.773066,-8.142681,3.7732618,-11.415554,0.62249243
5.7374926,4.6939635,-3.2657993,-1.773066,-8.142681,3.7732618,-11.415554,0.62249243
5.729686,4.6895866,-3.1837738,-1.870005,-7.9658475,3.8546648,-11.774684,0.8379706
5.7218947,4.6851707,-3.1837738,-1.870005,-7.9658475,3.8546648,-11.774684,0.8379706
5.7142963,4.6807375,-3.0932264,-1.97014,-7.766643,3.9839516,-12.081141,0.9672575
5.706707,4.676259,-3.0932264,-1.97014,-7.766643,3.9839516,-12.081141,0.9672575
5.699359,4.6717854,-2.9898956,-2.0681443,-7.545068,4.0892963,-12.382812,1.0390835
5.6920214,4.667266,-2.9898956,-2.0681443,-7.545068,4.0892963,-12.382812,1.0390835
5.6849427,4.6627607,-2.8759124,-2.1576264,-7.300057,4.247314,-12.665327,1.043872
5.677875,4.6582074,-2.8759124,-2.1576264,-7.300057,4.247314,-12.665327,1.043872
5.6710896,4.6536837,-2.753407,-2.2353907,-7.0348063,4.43885,-12.899959,0.94810385
5.664316,4.6491117,-2.753407,-2.2353907,-7.0348063,4.43885,-12.899959,0.94810385
5.657839,4.6445904,-2.62451,-2.2961109,-6.7535763,4.711789,-13.086706,0.866701
5.6513805,4.6400256,-2.62451,-2.2961109,-6.7535763,4.711789,-13.086706,0.866701
5.6452265,4.635524,-2.4892213,-2.340852,-6.4606285,4.960786,-13.220781,0.6751649
5.6390843,4.6309743,-2.4892213,-2.340852,-6.4606285,4.960786,-13.220781,0.6751649
5.6332626,4.6265125,-2.3518023,-2.3664184,-6.157028,5.185841,-13.321339,0.48362875
5.6274533,4.622005,-2.3518023,-2.3664184,-6.157028,5.185841,-13.321339,0.48362875
5.621968,4.6176095,-2.2133179,-2.37281,-5.8438406,5.4683566,-13.330915,0.45489833
5.616489,4.613166,-2.2133179,-2.37281,-5.8438406,5.4683566,-13.330915,0.45489833
5.611349,4.6088634,-2.0737681,-2.3589613,-5.5253267,5.731719,-13.254301,0.33039984
5.606217,4.604515,-2.0737681,-2.3589613,-5.5253267,5.731719,-13.254301,0.33039984
5.601411,4.600317,-1.9374144,-2.3259382,-5.205747,5.90889,-13.2351465,0.25378537
5.5966163,4.5960793,-1.9374144,-2.3259382,-5.205747,5.90889,-13.2351465,0.25378537
5.592144,4.5920105,-1.8042563,-2.2758708,-4.886168,6.181829,-13.091495,0.18674773
5.5876827,4.587906,-1.8042563,-2.2758708,-4.886168,6.181829,-13.091495,0.18674773
5.583534,4.5839863,-1.6732289,-2.208759,-4.5676537,6.3829417,-12.909535,0.18674773
5.579399,4.580037,-1.6732289,-2.208759,-4.5676537,6.3829417,-12.909535,0.18674773
5.575575,4.576297,-1.5464623,-2.127799,-4.2523355,6.5840545,-12.6461735,0.2681506
5.571757,4.572523,-1.5464623,-2.127799,-4.2523355,6.5840545,-12.6461735,0.2681506
5.568236,4.568968,-1.423957,-2.0329905,-3.9423435,6.8091097,-12.397177,0.320823
5.5647206,4.565382,-1.423957,-2.0329905,-3.9423435,6.8091097,-12.397177,0.320823
5.5614986,4.5620337,-1.3035821,-1.9275293,-3.6408737,6.9719152,-12.11466,0.33039984
5.5582786,4.558655,-1.3035821,-1.9275293,-3.6408737,6.9719152,-12.11466,0.33039984
5.5553393,4.555518,-1.1895988,-1.8082197,-3.3457954,7.053318,-11.880029,0.31124622
5.55241,4.5523643,-1.1895988,-1.8082197,-3.3457954,7.053318,-11.880029,0.31124622
5.5497413,4.549459,-1.0788113,-1.6771922,-3.06137,7.144298,-11.549629,0.25857377
5.547079,4.546537,-1.0788113,-1.6771922,-3.06137,7.144298,-11.549629,0.25857377
5.5446677,4.5438666,-0.97441536,-1.5408384,-2.787597,7.1347213,-11.291056,0.21068975
5.54226,4.5411797,-0.97441536,-1.5408384,-2.787597,7.1347213,-11.291056,0.21068975
5.5400877,4.538741,-0.87428045,-1.3959624,-2.526607,7.0724716,-11.022904,0
5.537894,4.5362616,-0.87428045,-1.3959624,-2.526607,7.0724716,-11.022904,0
5.5359225,4.5340333,-0.77947193,-1.2500211,-2.2794657,7.005434,-10.6637745,-0.19153613
5.5340557,4.53191,-0.77947193,-1.2500211,-2.2794657,7.005434,-10.6637745,-0.19153613
5.532352,4.5299835,-0.69212025,-1.1051452,-2.0451076,6.943185,-10.414778,-0.2873042
5.530619,4.5280137,-0.69212025,-1.1051452,-2.0451076,6.943185,-10.414778,-0.2873042
5.529108,4.526311,-0.6100949,-0.96133447,-1.8224672,6.909666,-10.117896,-0.48362875
5.5275884,4.52459,-0.6100949,-0.96133447,-1.8224672,6.909666,-10.117896,-0.48362875
5.526251,4.523102,-0.53446114,-0.82391536,-1.615806,6.909666,-9.859323,-0.61770403
5.5249176,4.5216117,-0.53446114,-0.82391536,-1.615806,6.909666,-9.859323,-0.61770403
5.5237527,4.520352,-0.46521893,-0.68862677,-1.4251236,6.8761473,-9.586384,-0.6943185
5.522581,4.5190797,-0.46521893,-0.68862677,-1.4251236,6.8761473,-9.586384,-0.6943185
5.521568,4.518023,-0.40236834,-0.5586645,-1.2461592,6.871359,-9.3421755,-0.81881696
5.5205555,4.516964,-0.40236834,-0.5586645,-1.2461592,6.871359,-9.3421755,-0.81881696
5.519677,4.5161037,-0.3437788,-0.43828964,-1.0831738,6.8809357,-9.064447,-0.8714894
5.5188017,4.515244,-0.3437788,-0.43828964,-1.0831738,6.8809357,-9.064447,-0.8714894
5.518052,4.5145736,-0.2894503,-0.3253716,-0.9329714,6.9000893,-8.930372,-0.90500826
5.517302,4.5139008,-0.2894503,-0.3253716,-0.9329714,6.9000893,-8.930372,-0.90500826
5.516665,4.513406,-0.2383176,-0.22310622,-0.7934218,6.8665705,-8.63828,-0.90979666
5.5160275,4.5129085,-0.2383176,-0.22310622,-0.7934218,6.8665705,-8.63828,-0.90979666
5.515511,4.512559,-0.19038069,-0.133624,-0.66559005,6.9000893,-8.42759,-1.1204864
5.5149927,4.512207,-0.19038069,-0.133624,-0.66559005,6.9000893,-8.42759,-1.1204864
5.514585,4.5119944,-0.14457433,-0.051598642,-0.54414994,6.909666,-8.283937,-1.2258313
5.5141773,4.5117803,-0.14457433,-0.051598642,-0.54414994,6.909666,-8.283937,-1.2258313
5.5138755,4.511692,-0.10089848,0.020839343,-0.42910135,6.9623384,-8.054094,-1.3359646
5.5135727,4.511603,-0.10089848,0.020839343,-0.42910135,6.9623384,-8.054094,-1.3359646
5.513382,4.5115952,-0.05935317,0.085820474,-0.31831384,7.005434,-7.905654,-1.5131354
5.5131903,4.511587,-0.05935317,0.085820474,-0.31831384,7.005434,-7.905654,-1.5131354
5.51309,4.5116415,-0.021003649,0.14867108,-0.20965686,7.0581064,-7.728483,-1.6328455
5.51299,4.511696,-0.021003649,0.14867108,-0.20965686,7.0581064,-7.728483,-1.6328455
5.5129476,4.5118012,0.0141500775,0.20619535,-0.108456746,7.062895,-7.536947,-1.7142484
5.5129046,4.511907,0.0141500775,0.20619535,-0.108456746,7.062895,-7.536947,-1.7142484
5.512874,4.512065,0.04610801,0.26052386,-0.012582945,7.192182,-7.369353,-1.8579005
5.512844,4.5122237,0.04610801,0.26052386,-0.012582945,7.192182,-7.369353,-1.8579005
5.5128813,4.512471,0.073804885,0.31165653,0.08222559,7.1490865,-7.249643,-1.9249382
5.5129185,4.512719,0.073804885,0.31165653,0.08222559,7.1490865,-7.249643,-1.9249382
5.513006,4.5130453,0.09937123,0.35426712,0.17170781,7.16824,-7.038953,-2.0398598
5.513094,4.5133724,0.09937123,0.35426712,0.17170781,7.16824,-7.038953,-2.0398598
5.5132284,4.513775,0.12174179,0.39261663,0.25373316,7.225701,-6.8330517,-2.0494366
5.5133576,4.514163,0.12174179,0.39261663,0.25373316,7.225701,-6.8330517,-2.0494366
5.5135403,4.514631,0.14091654,0.42457458,0.32936695,7.359776,-6.679823,-2.1260512
5.5137324,4.515122,0.14091654,0.42457458,0.32936695,7.359776,-6.679823,-2.1260512
5.513965,4.51565,0.15796077,0.45120618,0.39541334,7.551312,-6.5744777,-2.2409728
5.5141997,4.516181,0.15796077,0.45120618,0.39541334,7.551312,-6.5744777,-2.2409728
5.5144677,4.516756,0.17180921,0.474642,0.44974184,7.843405,-6.50744,-2.3415294
5.5147386,4.5173354,0.17180921,0.474642,0.44974184,7.843405,-6.50744,-2.3415294
5.515029,4.5179634,0.18246186,0.4991431,0.4902219,8.130709,-6.244078,-2.408567
5.5153203,4.5185914,0.18246186,0.4991431,0.4902219,8.130709,-6.244078,-2.408567
5.5156183,4.5192556,0.18778819,0.52684,0.50833136,8.106767,-5.9902925,-2.3989902
5.5159187,4.5199227,0.18778819,0.52684,0.50833136,8.106767,-5.9902925,-2.3989902
5.516209,4.5206122,0.18672292,0.55347157,0.50620085,7.920019,-5.78918,-2.3319526
5.516503,4.521307,0.18672292,0.55347157,0.50620085,7.920019,-5.78918,-2.3319526
5.5167813,4.5220084,0.17713554,0.57584214,0.4891566,7.61835,-5.631162,-2.303222
5.5170517,4.5226874,0.17713554,0.57584214,0.4891566,7.61835,-5.631162,-2.303222
5.5173054,4.5233746,0.1632871,0.5907558,0.46678606,7.2927384,-5.506664,-2.1930888
5.5175595,4.524061,0.1632871,0.5907558,0.46678606,7.2927384,-5.506664,-2.1930888
5.517795,4.5247188,0.14304708,0.5928863,0.44228497,7.015011,-5.425261,-2.1547816
5.5180326,4.525379,0.14304708,0.5928863,0.44228497,7.015011,-5.425261,-2.1547816
5.5182447,4.5260024,0.120676525,0.58649474,0.41671863,6.8761473,-5.463568,-2.0398598
5.5184593,4.5266304,0.120676525,0.58649474,0.41671863,6.8761473,-5.463568,-2.0398598
5.518662,4.527212,0.1004365,0.57158107,0.3932828,6.742072,-5.4683566,-2.0733786
5.5188646,4.527793,0.1004365,0.57158107,0.3932828,6.742072,-5.4683566,-2.0733786
5.5190563,4.5283256,0.082327,0.5502758,0.36878175,6.612785,-5.5497594,-2.0638018
5.519249,4.5288596,0.082327,0.5502758,0.36878175,6.612785,-5.5497594,-2.0638018
5.519434,4.529347,0.06954383,0.5247094,0.34215012,6.469133,-5.6120086,-2.0973208
5.5196185,4.529833,0.06954383,0.5247094,0.34215012,6.469133,-5.6120086,-2.0973208
5.519788,4.530272,0.05995645,0.49488202,0.3123227,6.3446345,-5.693412,-2.0350714
5.519959,4.530714,0.05995645,0.49488202,0.3123227,6.3446345,-5.693412,-2.0350714
5.5201178,4.531105,0.05356486,0.45866305,0.28036478,6.2009826,-5.731719,-2.0638018
5.5202775,4.5314965,0.05356486,0.45866305,0.28036478,6.2009826,-5.731719,-2.0638018
5.520425,4.5318365,0.049303804,0.4171177,0.24947211,6.1100025,-5.7748146,-2.1212628
5.5205736,4.5321794,0.049303804,0.4171177,0.24947211,6.1100025,-5.7748146,-2.1212628
5.520709,4.532466,0.04610801,0.37024608,0.21751417,6.042965,-5.8705826,-2.111686
5.520845,4.532755,0.04610801,0.37024608,0.21751417,6.042965,-5.8705826,-2.111686
5.520972,4.5329876,0.045042746,0.31698287,0.19088256,5.9567738,-5.90889,-2.0350714
5.521098,4.5332193,0.045042746,0.31698287,0.19088256,5.9567738,-5.90889,-2.0350714
5.521216,4.5333934,0.041846953,0.2615891,0.16531622,5.9280434,-5.9663506,-2.0207062
5.521333,4.5335674,0.041846953,0.2615891,0.16531622,5.9280434,-5.9663506,-2.0207062
5.5214386,4.5336814,0.039716423,0.2051301,0.14081514,5.9280434,-5.9998693,-1.958457
5.5215435,4.5337963,0.039716423,0.2051301,0.14081514,5.9280434,-5.9998693,-1.958457
5.5216427,4.533852,0.037585896,0.1476058,0.118444584,5.861006,-5.9998693,-1.9201498
5.521737,4.533905,0.037585896,0.1476058,0.118444584,5.861006,-5.9998693,-1.9201498
5.5218325,4.5339046,0.037585896,0.090081535,0.10033509,5.899313,-6.0956373,-1.8770541
5.5219326,4.533904,0.037585896,0.090081535,0.10033509,5.899313,-6.0956373,-1.8770541
5.5220203,4.533849,0.039716423,0.032557253,0.08222559,5.9424086,-6.1387334,-1.7812861
5.5221076,4.5337944,0.039716423,0.032557253,0.08222559,5.9424086,-6.1387334,-1.7812861
5.5221896,4.5336866,0.043977484,-0.023901764,0.06518136,6.0142345,-6.2249246,-1.9057846
5.522272,4.53358,0.043977484,-0.023901764,0.06518136,6.0142345,-6.2249246,-1.9057846
5.5223484,4.5333967,0.049303804,-0.077164985,0.049202394,6.181829,-6.291962,-1.8243817
5.522405,4.53326,0.049303804,-0.077164985,0.049202394,6.181829,-6.291962,-1.8243817
5.522454,4.532977,0.0524996,-0.1251019,0.030027634,6.469133,-6.397307,-1.8579005
5.5224724,4.5328684,0.0524996,-0.1251019,0.030027634,6.469133,-6.397307,-1.8579005
5.522494,4.532607,0.055695392,-0.16451667,0.00765708,6.493075,-6.4260373,-1.8531121
5.522513,4.532375,0.055695392,-0.16451667,0.00765708,6.493075,-6.4260373,-1.8531121
5.522513,4.532375,0.055695392,-0.16451667,0.00765708,6.493075,-6.4260373,-1.8531121
5.522518,4.5317316,0.058891185,-0.1996704,-0.018974531,6.5122285,-6.4787097,-1.8435353
5.52251,4.531563,0.062086977,-0.23162833,-0.048801936,6.4499793,-6.5026517,-1.7764976
5.522496,4.5312595,0.062086977,-0.23162833,-0.048801936,6.4499793,-6.5026517,-1.7764976
5.5224824,4.530926,0.06421751,-0.26358625,-0.076498814,6.4020953,-6.622362,-1.757344
5.5224686,4.5305924,0.06421751,-0.26358625,-0.076498814,6.4020953,-6.622362,-1.757344
5.5224786,4.530237,0.0674133,-0.29660946,-0.09886937,6.2871737,-6.7612257,-1.6424223
5.5224895,4.5298853,0.0674133,-0.29660946,-0.09886937,6.2871737,-6.7612257,-1.6424223
5.522504,4.5294466,0.07273962,-0.33389372,-0.11484833,6.349423,-6.9240313,-1.6950948
5.522521,4.528944,0.07273962,-0.33389372,-0.11484833,6.349423,-6.9240313,-1.6950948
5.5225434,4.5287457,0.08126174,-0.37437376,-0.121239915,6.38773,-7.1251445,-1.6184803
5.5225883,4.528367,0.08126174,-0.37437376,-0.121239915,6.38773,-7.1251445,-1.6184803
5.522647,4.527966,0.09404491,-0.41378856,-0.121239915,6.4547677,-7.2927384,-1.6567876
5.5227065,4.527565,0.09404491,-0.41378856,-0.121239915,6.4547677,-7.2927384,-1.6567876
5.5227966,4.5271673,0.11108914,-0.45213807,-0.11271781,6.5984197,-7.40766,-1.5658079
5.522887,4.5267706,0.11108914,-0.45213807,-0.11271781,6.5984197,-7.40766,-1.5658079
5.522994,4.52636,0.13132916,-0.4872918,-0.09993463,6.7947445,-7.52737,-1.5801731
5.5231028,4.525949,0.13132916,-0.4872918,-0.09993463,6.7947445,-7.52737,-1.5801731
5.5232143,4.5255146,0.15476498,-0.5181845,-0.08395566,6.943185,-7.5800424,-1.6424223
5.5233264,4.5250797,0.15476498,-0.5181845,-0.08395566,6.943185,-7.5800424,-1.6424223
5.5234437,4.5246344,0.18033133,-0.54268557,-0.06371564,7.177817,-7.627927,-1.6136919
5.523562,4.5241895,0.18033133,-0.54268557,-0.06371564,7.177817,-7.627927,-1.6136919
5.52365,4.5237293,0.20589767,-0.5618603,-0.04241035,7.3406224,-7.632715,-1.685518
5.523739,4.52327,0.20589767,-0.5618603,-0.04241035,7.3406224,-7.632715,-1.685518
5.523827,4.5228243,0.22826824,-0.5714477,-0.014713474,7.431602,-7.642292,-1.6472107
5.5239153,4.5223784,0.22826824,-0.5714477,-0.014713474,7.431602,-7.642292,-1.6472107
5.5240097,4.5219603,0.25170404,-0.57357824,0.016179197,7.503428,-7.651869,-1.6567876
5.5241036,4.521543,0.25170404,-0.57357824,0.016179197,7.503428,-7.651869,-1.6567876
5.5242043,4.521166,0.27300933,-0.5661214,0.05026766,7.603985,-7.632715,-1.70946
5.524304,4.520789,0.27300933,-0.5661214,0.05026766,7.603985,-7.632715,-1.70946
5.524388,4.5204754,0.29111883,-0.55546874,0.08329086,7.6949644,-7.6614456,-1.6280571
5.524471,4.520164,0.29111883,-0.55546874,0.08329086,7.6949644,-7.6614456,-1.6280571
5.524566,4.5199184,0.31029359,-0.5384245,0.118444584,7.795521,-7.666234,-1.6136919
5.5246615,4.519675,0.31029359,-0.5384245,0.118444584,7.795521,-7.666234,-1.6136919
5.524773,4.5195155,0.32733783,-0.5139234,0.15359831,7.776367,-7.6375036,-1.5466543
5.524885,4.519357,0.32733783,-0.5139234,0.15359831,7.776367,-7.6375036,-1.5466543
5.5250254,4.519271,0.34438205,-0.48516127,0.18981731,7.7907324,-7.656657,-1.5179238
5.5251656,4.5191855,0.34438205,-0.48516127,0.18981731,7.7907324,-7.656657,-1.5179238
5.5253406,4.519121,0.3614263,-0.45213807,0.22710156,7.6853876,-7.5944076,-1.5514427
5.5255146,4.5190573,0.3614263,-0.45213807,0.22710156,7.6853876,-7.5944076,-1.5514427
5.5257235,4.5190454,0.37740526,-0.4159191,0.2675816,7.642292,-7.632715,-1.5514427
5.5259323,4.519034,0.37740526,-0.4159191,0.2675816,7.642292,-7.632715,-1.5514427
5.5262003,4.5190363,0.3912537,-0.37756956,0.31125745,7.5465236,-7.560889,-1.5945383
5.5264683,4.519039,0.3912537,-0.37756956,0.31125745,7.5465236,-7.560889,-1.5945383
5.5267696,4.5191073,0.40510213,-0.33602425,0.35706383,7.4986396,-7.5561004,-1.5705963
5.5270696,4.5191755,0.40510213,-0.33602425,0.35706383,7.4986396,-7.5561004,-1.5705963
5.52747,4.5192623,0.41682005,-0.29341367,0.40393546,7.431602,-7.551312,-1.6663644
5.5278673,4.5193486,0.41682005,-0.29341367,0.40393546,7.431602,-7.551312,-1.6663644
5.528298,4.519497,0.42960322,-0.24973783,0.44867656,7.398083,-7.479486,-1.685518
5.528727,4.5196466,0.42960322,-0.24973783,0.44867656,7.398083,-7.479486,-1.685518
5.529172,4.519868,0.44345164,-0.20819251,0.4955482,7.3549876,-7.4363904,-1.6136919
5.529616,4.5200896,0.44345164,-0.20819251,0.4955482,7.3549876,-7.4363904,-1.6136919
5.530097,4.5203705,0.45516956,-0.1666472,0.5434851,7.2783732,-7.3310456,-1.6089035
5.5305777,4.5206523,0.45516956,-0.1666472,0.5434851,7.2783732,-7.3310456,-1.6089035
5.5311317,4.520978,0.46795273,-0.124036625,0.5903567,7.1969705,-7.3406224,-1.6519991
5.531684,4.521304,0.46795273,-0.124036625,0.5903567,7.1969705,-7.3406224,-1.6519991
5.532265,4.5216875,0.4775401,-0.08249131,0.63509786,7.144298,-7.2927384,-1.6184803
5.5328465,4.522072,0.4775401,-0.08249131,0.63509786,7.144298,-7.2927384,-1.6184803
5.533501,4.5225043,0.48819277,-0.04201126,0.68196946,7.029376,-7.2783732,-1.6519991
5.534154,4.5229363,0.48819277,-0.04201126,0.68196946,7.029376,-7.2783732,-1.6519991
5.534835,4.5234194,0.4967149,-0.005792269,0.7288411,6.9623384,-7.225701,-1.5705963
5.5355153,4.523904,0.4967149,-0.005792269,0.7288411,6.9623384,-7.225701,-1.5705963
5.5362387,4.5244293,0.50630224,0.0251004,0.77677804,6.9000893,-7.192182,-1.5562311
5.536962,4.5249567,0.50630224,0.0251004,0.77677804,6.9000893,-7.192182,-1.5562311
5.537768,4.525529,0.5169549,0.053862542,0.82684547,6.8330517,-7.225701,-1.6136919
5.538568,4.5260983,0.5169549,0.053862542,0.82684547,6.8330517,-7.225701,-1.6136919
5.5394363,4.5267158,0.5265423,0.08262468,0.8790434,6.7229185,-7.1969705,-1.6759412
5.540301,4.527331,0.5265423,0.08262468,0.8790434,6.7229185,-7.1969705,-1.6759412
5.5412145,4.5279884,0.53612965,0.10925629,0.9301761,6.679823,-7.1826053,-1.661576
5.5421257,4.5286446,0.53612965,0.10925629,0.9301761,6.679823,-7.1826053,-1.661576
5.5430837,4.529341,0.5467823,0.13375737,0.9834393,6.670246,-7.177817,-1.5945383
5.544039,4.530037,0.5467823,0.13375737,0.9834393,6.670246,-7.177817,-1.5945383
5.5450573,4.5307736,0.55850023,0.15506266,1.0398984,6.6175733,-7.1873937,-1.5945383
5.5460725,4.5315084,0.55850023,0.15506266,1.0398984,6.6175733,-7.1873937,-1.5945383
5.5471654,4.5322843,0.56915283,0.17104164,1.0931616,6.5696893,-7.2783732,-1.6041151
5.548255,4.533057,0.56915283,0.17104164,1.0931616,6.5696893,-7.2783732,-1.6041151
5.549408,4.5338707,0.58406657,0.18489006,1.1464248,6.50744,-7.3071036,-1.6136919
5.550556,4.53468,0.58406657,0.18489006,1.1464248,6.50744,-7.3071036,-1.6136919
5.55178,4.535532,0.59898025,0.19341218,1.2028838,6.5026517,-7.326257,-1.5035586
5.552997,4.536377,0.59898025,0.19341218,1.2028838,6.5026517,-7.326257,-1.5035586
5.5542774,4.5372496,0.613894,0.19554271,1.2614733,6.4164605,-7.321469,-1.541866
5.5555534,4.5381184,0.613894,0.19554271,1.2614733,6.4164605,-7.321469,-1.541866
5.5569134,4.539024,0.6309382,0.19234692,1.3232586,6.3781533,-7.4268136,-1.541866
5.558268,4.5399237,0.6309382,0.19234692,1.3232586,6.3781533,-7.4268136,-1.541866
5.5596848,4.5408382,0.6490477,0.18489006,1.3893051,6.277597,-7.431602,-1.6424223
5.5610967,4.541748,0.6490477,0.18489006,1.3893051,6.277597,-7.431602,-1.6424223
5.562586,4.5426774,0.6682224,0.17317216,1.4606777,6.2488666,-7.4986396,-1.6950948
5.5640717,4.543602,0.6682224,0.17317216,1.4606777,6.2488666,-7.4986396,-1.6950948
5.565651,4.5445523,0.6884625,0.15612793,1.5384421,6.2249246,-7.575254,-1.6424223
5.5672274,4.545498,0.6884625,0.15612793,1.5384421,6.2249246,-7.575254,-1.6424223
5.568879,4.5464487,0.70976776,0.1358879,1.6215327,6.2249246,-7.603985,-1.7238252
5.570531,4.5473976,0.70976776,0.1358879,1.6215327,6.2249246,-7.603985,-1.7238252
5.5722647,4.548354,0.73213834,0.11458261,1.711015,6.2967505,-7.608773,-1.7142484
5.5739946,4.549307,0.73213834,0.11458261,1.711015,6.2967505,-7.608773,-1.7142484
5.5758166,4.5502768,0.75557417,0.09753838,1.8058234,6.3446345,-7.632715,-1.6950948
5.577635,4.5512424,0.75557417,0.09753838,1.8058234,6.3446345,-7.632715,-1.6950948
5.5795393,4.552227,0.78220576,0.08262468,1.9059583,6.4068837,-7.627927,-1.6998832
5.581444,4.55321,0.78220576,0.08262468,1.9059583,6.4068837,-7.627927,-1.6998832
5.5834517,4.5542216,0.8099026,0.071972035,2.009289,6.3925185,-7.6614456,-1.6711528
5.585458,4.55523,0.8099026,0.071972035,2.009289,6.3925185,-7.6614456,-1.6711528
5.587572,4.5562773,0.83866477,0.06877624,2.1147501,6.3925185,-7.73806,-1.7669208
5.5896783,4.5573173,0.83866477,0.06877624,2.1147501,6.3925185,-7.73806,-1.7669208
5.591895,4.558405,0.8706227,0.071972035,2.2244725,6.38773,-7.7332716,-1.7956513
5.5941033,4.559487,0.8706227,0.071972035,2.2244725,6.38773,-7.7332716,-1.7956513
5.596395,4.5606194,0.9047112,0.08368994,2.33526,6.5361705,-7.714118,-1.8100165
5.598686,4.56175,0.9047112,0.08368994,2.33526,6.5361705,-7.714118,-1.8100165
5.601094,4.562943,0.9366691,0.09966891,2.4439168,6.603208,-7.8050976,-1.757344
5.603474,4.56412,0.9366691,0.09966891,2.4439168,6.603208,-7.8050976,-1.757344
5.6059675,4.56536,0.96862704,0.118843675,2.5515087,6.6893997,-7.9152308,-1.7764976
5.6093316,4.567029,0.96862704,0.118843675,2.5515087,6.6893997,-7.9152308,-1.7764976
5.6111183,4.5679226,0.9995197,0.14014897,2.6559045,6.7612257,-8.063671,-1.6567876
5.6137114,4.5692177,0.9995197,0.14014897,2.6559045,6.7612257,-8.063671,-1.6567876
5.616881,4.570788,1.0282818,0.16358478,2.7560394,6.7229185,-8.293514,-1.6376339
5.6190166,4.571845,1.0282818,0.16358478,2.7560394,6.7229185,-8.293514,-1.6376339
5.62176,4.573195,1.057044,0.18915112,2.8583047,6.631939,-8.441956,-1.5370775
5.6245766,4.574579,1.057044,0.18915112,2.8583047,6.631939,-8.441956,-1.5370775
5.6275473,4.576032,1.0847409,0.21365221,2.96057,6.5026517,-8.6574335,-1.4317327
5.6305223,4.5774803,1.0847409,0.21365221,2.96057,6.5026517,-8.6574335,-1.4317327
5.6336393,4.579014,1.109242,0.23921856,3.0670967,6.4068837,-8.90643,-1.3838485
5.6367664,4.58054,1.109242,0.23921856,3.0670967,6.4068837,-8.90643,-1.3838485
5.640008,4.5821457,1.133743,0.2679807,3.1757536,6.2345014,-9.107543,-1.340753
5.6432514,4.5837398,1.133743,0.2679807,3.1757536,6.2345014,-9.107543,-1.340753
5.6466045,4.585408,1.1571789,0.29993862,3.289737,6.0764837,-9.294291,-1.2689269
5.6499777,4.587074,1.1571789,0.29993862,3.289737,6.0764837,-9.294291,-1.2689269
5.6534576,4.588799,1.1806147,0.33615762,3.4090464,5.90889,-9.514558,-1.2449849
5.6569495,4.5905175,1.1806147,0.33615762,3.4090464,5.90889,-9.514558,-1.2449849
5.6605563,4.592304,1.206181,0.3787682,3.5347476,5.6407394,-9.696517,-1.1875241
5.6641574,4.594075,1.206181,0.3787682,3.5347476,5.6407394,-9.696517,-1.1875241
5.6678753,4.5959134,1.2338779,0.42563984,3.66471,5.410896,-9.830592,-1.1252748
5.6716213,4.597753,1.2338779,0.42563984,3.66471,5.410896,-9.830592,-1.1252748
5.6754766,4.5996614,1.2605095,0.474642,3.7989333,5.1666875,-10.0029745,-0.9720459
5.679341,4.6015615,1.2605095,0.474642,3.7989333,5.1666875,-10.0029745,-0.9720459
5.683321,4.6035247,1.2914021,0.5257747,3.9406135,5.0038815,-10.132261,-0.89064306
5.6873317,4.605489,1.2914021,0.5257747,3.9406135,5.0038815,-10.132261,-0.89064306
5.6914535,4.6075025,1.3244253,0.58010316,4.084424,4.76925,-10.247183,-0.91937345
5.695611,4.609519,1.3244253,0.58010316,4.084424,4.76925,-10.247183,-0.91937345
5.6998925,4.6116014,1.3563833,0.63443166,4.2314305,4.596867,-10.381259,-0.80445176
5.704177,4.6136703,1.3563833,0.63443166,4.2314305,4.596867,-10.381259,-0.80445176
5.7086186,4.6158166,1.3915371,0.68876016,4.3805676,4.3957543,-10.414778,-0.7230489
5.7130413,4.617938,1.3915371,0.68876016,4.3805676,4.3957543,-10.414778,-0.7230489
5.717613,4.6201243,1.4288213,0.73989284,4.5286393,4.237737,-10.500969,-0.7278373
5.7221975,4.6223,1.4288213,0.73989284,4.5286393,4.237737,-10.500969,-0.7278373
5.7268963,4.6245317,1.4682361,0.78569925,4.675646,4.098873,-10.5919485,-0.59855044
5.731636,4.626766,1.4682361,0.78569925,4.675646,4.098873,-10.5919485,-0.59855044
5.73836,4.629924,1.5097814,0.82617927,4.820522,3.9839516,-10.6158905,-0.5410896
5.746661,4.6337833,1.5534573,0.86026776,4.9643326,3.9121256,-10.596737,-0.51235914
5.746661,4.6337833,1.5534573,0.86026776,4.9643326,3.9121256,-10.596737,-0.51235914
5.7521615,4.636317,1.5534573,0.86026776,4.9643326,3.9121256,-10.596737,-0.51235914
5.7521615,4.636317,1.5534573,0.86026776,4.9643326,3.9121256,-10.596737,-0.51235914
5.7521615,4.636317,1.5534573,0.86026776,4.9643326,3.9121256,-10.596737,-0.51235914
5.76959,4.644282,1.64507,0.9188573,5.242367,3.8355112,-10.649409,-0.39743748
5.7752295,4.6468167,1.6951374,0.9422931,5.373394,3.86903,-10.716447,-0.4405331
5.7790084,4.6485066,1.6951374,0.9422931,5.373394,3.86903,-10.716447,-0.4405331
5.783458,4.650484,1.6951374,0.9422931,5.373394,3.86903,-10.716447,-0.4405331
5.783458,4.650484,1.6951374,0.9422931,5.373394,3.86903,-10.716447,-0.4405331
5.794527,4.655395,1.7494658,0.9625331,5.5001607,3.892972,-10.649409,-0.35434186
5.800206,4.6579022,1.8048596,0.9806426,5.618405,3.9360676,-10.682928,-0.35913026
5.8058887,4.660391,1.8048596,0.9806426,5.618405,3.9360676,-10.682928,-0.35913026
5.81169,4.6629305,1.8613186,0.99449104,5.728127,3.9504328,-10.759542,-0.35913026
5.8175006,4.6654534,1.8613186,0.99449104,5.728127,3.9504328,-10.759542,-0.35913026
5.8234057,4.6680317,1.9209734,1.0040784,5.828262,3.9600096,-10.836157,-0.2681506
5.8293266,4.670597,1.9209734,1.0040784,5.828262,3.9600096,-10.836157,-0.2681506
5.835351,4.6732183,1.9827588,1.0083395,5.9241357,4.0797195,-10.879252,-0.23942018
5.841356,4.67581,1.9827588,1.0083395,5.9241357,4.0797195,-10.879252,-0.23942018
5.8474483,4.6784678,2.0466747,1.0115353,6.0082917,4.1706996,-10.936713,-0.14844051
5.8535504,4.68111,2.0466747,1.0115353,6.0082917,4.1706996,-10.936713,-0.14844051
5.8597274,4.6838117,2.1137862,1.0115353,6.0839257,4.256891,-11.066,-0.10055647
5.8659086,4.6864967,2.1137862,1.0115353,6.0839257,4.256891,-11.066,-0.10055647
5.872158,4.68925,2.1819632,1.0094048,6.1531677,4.285621,-11.113884,-0.019153614
5.878404,4.691985,2.1819632,1.0094048,6.1531677,4.285621,-11.113884,-0.019153614
5.8847313,4.6947327,2.2522707,1.0040784,6.2170835,4.10845,-11.21444,-0.1340753
5.8910694,4.697463,2.2522707,1.0040784,6.2170835,4.10845,-11.21444,-0.1340753
5.8975024,4.70019,2.317252,0.99449104,6.276738,3.2130187,-11.602302,-0.7278373
5.903871,4.702871,2.317252,0.99449104,6.276738,3.2130187,-11.602302,-0.7278373
5.910303,4.705593,2.3801024,0.97638154,6.3331976,3.2225955,-11.808203,-0.7374141
5.9167404,4.708299,2.3801024,0.97638154,6.3331976,3.2225955,-11.808203,-0.7374141
5.9232464,4.7110453,2.4408226,0.9508152,6.3928523,3.691859,-12.066776,-0.48841715
5.929748,4.713772,2.4408226,0.9508152,6.3928523,3.691859,-12.066776,-0.48841715
5.9362955,4.71653,2.503673,0.9188573,6.443985,3.9360676,-12.186486,-0.34476504
5.942832,4.719266,2.503673,0.9188573,6.443985,3.9360676,-12.186486,-0.34476504
5.9493866,4.7220364,2.5697196,0.8911604,6.480204,4.060566,-12.277467,-0.2633622
5.9559216,4.724787,2.5697196,0.8911604,6.480204,4.060566,-12.277467,-0.2633622
5.9624076,4.727582,2.6378965,0.8634635,6.500444,4.256891,-12.315774,-0.12449849
5.9688673,4.7303667,2.6378965,0.8634635,6.500444,4.256891,-12.315774,-0.12449849
5.975283,4.7332306,2.705008,0.8378972,6.496183,4.3718123,-12.310986,-0.019153614
5.9816847,4.736081,2.705008,0.8378972,6.496183,4.3718123,-12.310986,-0.019153614
5.988032,4.739047,2.7721198,0.8155266,6.468486,4.6016555,-12.167333,0.25378537
5.9943814,4.7419977,2.7721198,0.8155266,6.468486,4.6016555,-12.167333,0.25378537
6.0006886,4.745017,2.8317745,0.7952866,6.4237447,4.865018,-11.927913,0.46447513
6.0069966,4.748022,2.8317745,0.7952866,6.4237447,4.865018,-11.927913,0.46447513
6.013235,4.751075,2.8839724,0.7803729,6.351307,5.0038815,-11.683704,0.60333884
6.019475,4.754115,2.8839724,0.7803729,6.351307,5.0038815,-11.683704,0.60333884
6.025624,4.757197,2.9233873,0.77398133,6.255433,5.133168,-11.329363,0.82360536
6.0317736,4.7602673,2.9233873,0.77398133,6.255433,5.133168,-11.329363,0.82360536
6.0378146,4.763371,2.950019,0.77611184,6.1393194,5.080496,-11.008539,1.0821792
6.043862,4.7664676,2.950019,0.77611184,6.1393194,5.080496,-11.008539,1.0821792
6.0497665,4.7695675,2.9606717,0.78569925,6.005096,4.7788267,-10.6398325,1.1204864
6.055683,4.7726645,2.9606717,0.78569925,6.005096,4.7788267,-10.6398325,1.1204864
6.0614543,4.7757564,2.9564104,0.7995477,5.861285,4.2904096,-10.46745,1.1252748
6.0672197,4.7788353,2.9564104,0.7995477,5.861285,4.2904096,-10.46745,1.1252748
6.0730805,4.7820354,2.9404316,0.8133961,5.716409,3.7588966,-10.242394,1.2018893
6.0785117,4.7849913,2.9404316,0.8133961,5.716409,3.7588966,-10.242394,1.2018893
6.0839972,4.788033,2.9148653,0.825114,5.5736637,3.3087866,-10.103531,1.2401965
6.0894966,4.791074,2.9148653,0.825114,5.5736637,3.3087866,-10.103531,1.2401965
6.094852,4.79408,2.8807766,0.8357667,5.43731,2.9257145,-9.883265,1.292869
6.1002254,4.7970877,2.8807766,0.8357667,5.43731,2.9257145,-9.883265,1.292869
6.105583,4.8001204,2.8424273,0.84428877,5.311609,2.480393,-9.720459,1.2114661
6.110862,4.8031,2.8424273,0.84428877,5.311609,2.480393,-9.720459,1.2114661
6.116006,4.8060303,2.8008819,0.85281086,5.195495,2.0207062,-9.519346,1.2354081
6.121067,4.808909,2.8008819,0.85281086,5.195495,2.0207062,-9.519346,1.2354081
6.1260576,4.8117504,2.7582712,0.85920244,5.0921645,1.7142484,-9.404425,1.3072342
6.131317,4.814745,2.7582712,0.85920244,5.0921645,1.7142484,-9.404425,1.3072342
6.136356,4.8176093,2.7199218,0.8581372,4.9952254,1.4700398,-9.313444,1.316811
6.1413713,4.820463,2.7199218,0.8581372,4.9952254,1.4700398,-9.313444,1.316811
6.146339,4.8232884,2.6826375,0.8517456,4.8993516,1.3072342,-9.184157,1.3599066
6.1513195,4.8261247,2.6826375,0.8517456,4.8993516,1.3072342,-9.184157,1.3599066
6.156178,4.828911,2.6506796,0.8368319,4.8066735,1.2545617,-9.040505,1.3599066
6.1610217,4.8316927,2.6506796,0.8368319,4.8066735,1.2545617,-9.040505,1.3599066
6.165683,4.8344035,2.619787,0.81446135,4.7107997,1.4221559,-8.8777,1.2880806
6.170357,4.8371162,2.619787,0.81446135,4.7107997,1.4221559,-8.8777,1.2880806
6.1749125,4.8397856,2.5888944,0.78996027,4.607469,1.484405,-8.700529,1.3551182
6.1794753,4.842454,2.5888944,0.78996027,4.607469,1.484405,-8.700529,1.3551182
6.1838994,4.8450623,2.5548058,0.7643939,4.497747,1.6663644,-8.504205,1.364695
6.188343,4.8476768,2.5548058,0.7643939,4.497747,1.6663644,-8.504205,1.364695
6.1926365,4.8502345,2.5143259,0.73776233,4.374176,1.733402,-8.331821,1.412579
6.196954,4.8528023,2.5143259,0.73776233,4.374176,1.733402,-8.331821,1.412579
6.2011147,4.855309,2.466389,0.712196,4.236757,1.7525556,-8.111555,1.4221559
6.2052784,4.8578143,2.466389,0.712196,4.236757,1.7525556,-8.111555,1.4221559
6.209285,4.860263,2.414191,0.68662965,4.0908155,1.7669208,-8.025364,1.4891934
6.213318,4.862725,2.414191,0.68662965,4.0908155,1.7669208,-8.025364,1.4891934
6.2171807,4.865117,2.3524055,0.65680224,3.9395483,1.70946,-7.905654,1.5514427
6.2210464,4.867509,2.3524055,0.65680224,3.9395483,1.70946,-7.905654,1.5514427
6.2247424,4.8698277,2.2852938,0.623779,3.7829542,1.6567876,-7.776367,1.5753847
6.22846,4.872157,2.2852938,0.623779,3.7829542,1.6567876,-7.776367,1.5753847
6.2320056,4.8744116,2.2160518,0.58969057,3.6252952,1.6041151,-7.6135616,1.5849615
6.2355504,4.876663,2.2160518,0.58969057,3.6252952,1.6041151,-7.6135616,1.5849615
6.2389226,4.878827,2.1393526,0.5545368,3.4687014,1.5227122,-7.5225816,1.5370775
6.242317,4.8810043,2.1393526,0.5545368,3.4687014,1.5227122,-7.5225816,1.5370775
6.245534,4.883088,2.060523,0.51938313,3.3121073,1.5035586,-7.465121,1.5227122
6.2487555,4.8851748,2.060523,0.51938313,3.3121073,1.5035586,-7.465121,1.5227122
6.2518044,4.88717,1.9806283,0.48849043,3.1555135,1.6041151,-7.383718,1.5179238
6.254868,4.8891735,1.9806283,0.48849043,3.1555135,1.6041151,-7.383718,1.5179238
6.2577653,4.8910885,1.8964723,0.46185884,2.9978545,1.8052281,-7.1826053,1.532289
6.2606654,4.8930044,1.8964723,0.46185884,2.9978545,1.8052281,-7.1826053,1.532289
6.2633867,4.894826,1.8080554,0.43948826,2.830608,2.087744,-6.9479733,1.5705963
6.266118,4.896654,1.8080554,0.43948826,2.830608,2.087744,-6.9479733,1.5705963
6.2686667,4.898383,1.7111163,0.42777038,2.6527088,2.2744915,-6.5936313,1.6041151
6.2712274,4.9001207,1.7111163,0.42777038,2.6527088,2.2744915,-6.5936313,1.6041151
6.273592,4.901752,1.6035247,0.42563984,2.4588306,2.1787236,-6.2488666,1.6903064
6.2758565,4.9033146,1.6035247,0.42563984,2.4588306,2.1787236,-6.2488666,1.6903064
6.278023,4.9048357,1.484215,0.42777038,2.2532346,2.0111294,-5.9280434,1.8339585
6.280299,4.906434,1.484215,0.42777038,2.2532346,2.0111294,-5.9280434,1.8339585
6.2822666,4.9078407,1.3563833,0.43203142,2.0359206,1.7190368,-5.60722,1.8722657
0.0010367031,4.9092383,1.3563833,0.43203142,2.0359206,1.7190368,-5.60722,1.8722657
0.002793181,4.910515,1.22216,0.43096617,1.8175414,1.4317327,-5.415684,1.8674773
0.004566742,4.911804,1.22216,0.43096617,1.8175414,1.4317327,-5.415684,1.8674773
0.0061247414,4.9129543,1.0847409,0.4235093,1.602358,1.1348516,-5.1906295,1.8579005
0.0076805484,4.9141035,1.0847409,0.4235093,1.602358,1.1348516,-5.1906295,1.8579005
0.0090288045,4.9151144,0.94412595,0.40433455,1.3893051,0.9911995,-5.032612,1.8148049
0.010384594,4.916131,0.94412595,0.40433455,1.3893051,0.9911995,-5.032612,1.8148049
0.01152487,4.9170003,0.80031526,0.37983346,1.1783828,0.92895025,-4.951209,1.8387469
0.012859975,4.9180174,0.80031526,0.37983346,1.1783828,0.92895025,-4.951209,1.8387469
0.013625996,4.918617,0.6586351,0.35000607,0.9695909,0.94331545,-4.88896,1.7621324
0.014554769,4.919343,0.6586351,0.35000607,0.9695909,0.94331545,-4.88896,1.7621324
0.015261847,4.919924,0.5190854,0.31698287,0.75866854,0.94810385,-4.9320555,1.7381904
0.015973557,4.9205074,0.5190854,0.31698287,0.75866854,0.94810385,-4.9320555,1.7381904
0.016462639,4.920953,0.38592738,0.2828944,0.5456156,0.8379706,-5.0182467,1.6280571
0.016950985,4.921398,0.38592738,0.2828944,0.5456156,0.8379706,-5.0182467,1.6280571
0.017227044,4.921716,0.25703037,0.24454488,0.33469325,0.62728083,-5.1379566,1.5610195
0.017504608,4.9220357,0.25703037,0.24454488,0.33469325,0.62728083,-5.1379566,1.5610195
0.017573595,4.9222374,0.13559023,0.20086904,0.1269667,0.48362875,-5.2863975,1.5466543
0.017642822,4.922439,0.13559023,0.20086904,0.1269667,0.48362875,-5.2863975,1.5466543
0.017518925,4.9225364,0.020541664,0.1539974,-0.07223775,0.30166942,-5.3965306,1.532289
0.017384777,4.9226413,0.020541664,0.1539974,-0.07223775,0.30166942,-5.3965306,1.532289
0.017112648,4.922639,-0.08811531,0.10392997,-0.26398537,0.16759412,-5.60722,1.5897499
0.016820557,4.922636,-0.08811531,0.10392997,-0.26398537,0.16759412,-5.60722,1.5897499
0.016391015,4.9225416,-0.19144596,0.05173201,-0.4450803,-0.07182605,-5.8466406,1.6041151
0.0159592,4.922447,-0.19144596,0.05173201,-0.4450803,-0.07182605,-5.8466406,1.6041151
0.015413759,4.922248,-0.28731975,-0.005792269,-0.61445737,-0.2873042,-6.0716953,1.5993267
0.014868949,4.922049,-0.28731975,-0.005792269,-0.61445737,-0.2873042,-6.0716953,1.5993267
0.01420151,4.9217434,-0.37680197,-0.06757761,-0.7657249,-0.4165911,-6.349423,1.5993267
0.013533661,4.9214377,-0.37680197,-0.06757761,-0.7657249,-0.4165911,-6.349423,1.5993267
0.012743351,4.9210253,-0.45882735,-0.12936294,-0.9042093,-0.50278234,-6.5601125,1.5562311
0.011953652,4.9206133,-0.45882735,-0.12936294,-0.9042093,-0.50278234,-6.5601125,1.5562311
0.011043964,4.9200735,-0.5333958,-0.19221355,-1.0320411,-0.46926352,-6.8186865,1.4221559
0.010134408,4.919534,-0.5333958,-0.19221355,-1.0320411,-0.46926352,-6.8186865,1.4221559
0.009077862,4.918879,-0.60157275,-0.25293362,-1.1481549,-0.4357447,-7.086837,1.3215994
0.008022989,4.9182253,-0.60157275,-0.25293362,-1.1481549,-0.4357447,-7.086837,1.3215994
0.0068028583,4.9174743,-0.6644234,-0.3168495,-1.2536161,-0.2873042,-7.335834,1.2497733
0.0055859624,4.916725,-0.6644234,-0.3168495,-1.2536161,-0.2873042,-7.335834,1.2497733
0.0042186165,4.915905,-0.72194767,-0.3797001,-1.3494898,-0.16280572,-7.627927,1.1923125
0.0028558485,4.9150863,-0.72194767,-0.3797001,-1.3494898,-0.16280572,-7.627927,1.1923125
0.0013656619,4.9142118,-0.77094984,-0.4393549,-1.4357762,-0.062249243,-7.896077,1.1683705
6.28307,4.9133415,-0.77094984,-0.4393549,-1.4357762,-0.062249243,-7.896077,1.1683705
6.280805,4.9120317,-0.8124951,-0.49474865,-1.5135405,-0.0047884034,-8.111555,1.1252748
6.2798386,4.9114714,-0.8124951,-0.49474865,-1.5135405,-0.0047884034,-8.111555,1.1252748
6.278103,4.9104805,-0.84764886,-0.5469466,-1.588109,0.023942016,-8.379706,1.1444284
6.2765636,4.9096,-0.84764886,-0.5469466,-1.588109,0.023942016,-8.379706,1.1444284
6.2765636,4.9096,-0.84764886,-0.5469466,-1.588109,0.023942016,-8.379706,1.1444284
6.2724934,4.9073067,-0.876411,-0.59701407,-1.6541555,0.05746084,-8.566454,1.2497733
6.271055,4.906504,-0.9009121,-0.6428204,-1.7106144,0.095768064,-8.858546,1.3072342
6.269456,4.90561,-0.9009121,-0.6428204,-1.7106144,0.095768064,-8.858546,1.3072342
6.2676916,4.9046307,-0.9190216,-0.685431,-1.7574861,0.08140286,-9.131485,1.3503298
6.2658467,4.903604,-0.9190216,-0.685431,-1.7574861,0.08140286,-9.131485,1.3503298
6.2639804,4.902568,-0.93287003,-0.725911,-1.7937051,0.033518825,-9.370906,1.3551182
6.262115,4.9015293,-0.93287003,-0.725911,-1.7937051,0.033518825,-9.370906,1.3551182
6.2602453,4.9004846,-0.9413921,-0.76106477,-1.8150104,-0.02873042,-9.662998,1.508347
6.2602453,4.9004846,-0.9413921,-0.76106477,-1.8150104,-0.02873042,-9.662998,1.508347
6.256218,4.898234,-0.94458795,-0.79195744,-1.8235325,-0.07182605,-9.89763,1.5610195
6.2541223,4.8970604,-0.94458795,-0.79195744,-1.8235325,-0.07182605,-9.89763,1.5610195
6.252814,4.8963284,-0.9424574,-0.8175238,-1.8171409,-0.1388637,-10.208876,1.5945383
6.2510004,4.895313,-0.9424574,-0.8175238,-1.8171409,-0.1388637,-10.208876,1.5945383
6.249199,4.8943024,-0.9360658,-0.8377638,-1.7969009,-0.18195933,-10.515334,1.6663644
6.2473974,4.8932924,-0.9360658,-0.8377638,-1.7969009,-0.18195933,-10.515334,1.6663644
6.245632,4.892293,-0.9232826,-0.85161227,-1.7585514,-0.22026655,-10.864887,1.6759412
6.243867,4.891293,-0.9232826,-0.85161227,-1.7585514,-0.22026655,-10.864887,1.6759412
6.242162,4.8903213,-0.90623844,-0.85800385,-1.7074187,-0.24899697,-11.133038,1.7621324
6.2404585,4.88935,-0.90623844,-0.85800385,-1.7074187,-0.24899697,-11.133038,1.7621324
6.2388163,4.888395,-0.88386786,-0.85693854,-1.6413723,-0.16759412,-11.473015,1.8052281
6.2371764,4.887441,-0.88386786,-0.85693854,-1.6413723,-0.16759412,-11.473015,1.8052281
6.235624,4.886525,-0.85404044,-0.8452207,-1.5614774,-0.21547815,-11.793838,1.8770541
6.234076,4.885613,-0.85404044,-0.8452207,-1.5614774,-0.21547815,-11.793838,1.8770541
6.232626,4.8847446,-0.81888676,-0.82391536,-1.4687995,-0.22026655,-11.932701,1.9536686
6.231173,4.883875,-0.81888676,-0.82391536,-1.4687995,-0.22026655,-11.932701,1.9536686
6.2298326,4.883061,-0.7773414,-0.7962185,-1.3654689,-0.2681506,-11.99495,2.0207062
6.228491,4.8822455,-0.7773414,-0.7962185,-1.3654689,-0.2681506,-11.99495,2.0207062
6.227264,4.881507,-0.7294045,-0.7631953,-1.2536161,-0.22505496,-11.990162,2.1883004
6.2260356,4.880768,-0.7294045,-0.7631953,-1.2536161,-0.22505496,-11.990162,2.1883004
6.2249255,4.8800964,-0.67827183,-0.725911,-1.1332412,-0.15801731,-11.9374895,2.27928
6.223814,4.879424,-0.67827183,-0.725911,-1.1332412,-0.15801731,-11.9374895,2.27928
6.2228107,4.878838,-0.6218128,-0.68649626,-1.0096705,0.0047884034,-11.865664,2.4516625
6.221802,4.878248,-0.6218128,-0.68649626,-1.0096705,0.0047884034,-11.865664,2.4516625
6.220916,4.8777256,-0.5642885,-0.6428204,-0.8882303,0.1388637,-11.836933,2.4420857
6.220028,4.877202,-0.5642885,-0.6428204,-0.8882303,0.1388637,-11.836933,2.4420857
6.219255,4.8767505,-0.50250316,-0.59701407,-0.7657249,0.25857377,-11.779472,2.4708161
6.218481,4.876298,-0.50250316,-0.59701407,-0.7657249,0.25857377,-11.779472,2.4708161
6.2178154,4.87592,-0.43752205,-0.54907715,-0.6485458,0.37828386,-11.722012,2.4947581
6.217151,4.8755417,-0.43752205,-0.54907715,-0.6485458,0.37828386,-11.722012,2.4947581
6.2165904,4.8752327,-0.37254092,-0.50327075,-0.5345625,0.48841715,-11.626244,2.4660277
6.216032,4.8749247,-0.37254092,-0.50327075,-0.5345625,0.48841715,-11.626244,2.4660277
6.2155747,4.8746896,-0.304364,-0.4606602,-0.4248403,0.5602432,-11.544841,2.5091233
6.215118,4.8744535,-0.304364,-0.4606602,-0.4248403,0.5602432,-11.544841,2.5091233
6.2147546,4.874289,-0.23725234,-0.42018014,-0.32150963,0.6560113,-11.453861,2.5187001
6.2143917,4.8741236,-0.23725234,-0.42018014,-0.32150963,0.6560113,-11.453861,2.5187001
6.214116,4.87403,-0.16907541,-0.3797001,-0.22457057,0.7517793,-11.353305,2.4851813
6.213842,4.873936,-0.16907541,-0.3797001,-0.22457057,0.7517793,-11.353305,2.4851813
6.2136526,4.87391,-0.10302901,-0.3413506,-0.13295783,0.81402856,-11.209652,2.4277205
6.213464,4.8738837,-0.10302901,-0.3413506,-0.13295783,0.81402856,-11.209652,2.4277205
6.2133646,4.873922,-0.04017841,-0.30300105,-0.04454088,0.8331822,-11.142614,2.408567
6.213266,4.87396,-0.04017841,-0.30300105,-0.04454088,0.8331822,-11.142614,2.408567
6.213244,4.874058,0.018411135,-0.26358625,0.039615013,0.8810662,-11.09473,2.2744915
6.2132215,4.874156,0.018411135,-0.26358625,0.039615013,0.8810662,-11.09473,2.2744915
6.213275,4.8743114,0.074870154,-0.22523674,0.118444584,0.90979666,-11.018116,2.2409728
6.2133284,4.8744664,0.074870154,-0.22523674,0.118444584,0.90979666,-11.018116,2.2409728
6.213452,4.874675,0.1270681,-0.18688722,0.19088256,0.90500826,-10.965444,2.1404164
6.213575,4.874883,0.1270681,-0.18688722,0.19088256,0.90500826,-10.965444,2.1404164
6.2137713,4.875142,0.17607027,-0.14960296,0.2590595,0.90021986,-10.864887,2.135628
6.213967,4.875401,0.17607027,-0.14960296,0.2590595,0.90021986,-10.864887,2.135628
6.214248,4.87571,0.22187665,-0.11231872,0.32404062,0.81881696,-10.793061,2.0590134
6.214528,4.876019,0.22187665,-0.11231872,0.32404062,0.81881696,-10.793061,2.0590134
6.214922,4.876376,0.26874828,-0.07503446,0.38689122,0.6799533,-10.692505,2.0446482
6.2153144,4.8767333,0.26874828,-0.07503446,0.38689122,0.6799533,-10.692505,2.0446482
6.215807,4.8771276,0.31242412,-0.043076526,0.44654605,0.5554548,-10.601525,2.030283
6.216299,4.877522,0.31242412,-0.043076526,0.44654605,0.5554548,-10.601525,2.030283
6.2168736,4.877949,0.35183892,-0.015379649,0.50620085,0.49799395,-10.529699,1.9871874
6.2174473,4.878376,0.35183892,-0.015379649,0.50620085,0.49799395,-10.529699,1.9871874
6.2181153,4.878825,0.39231896,0.0069909045,0.5658557,0.37349546,-10.448297,1.9393034
6.2187834,4.879274,0.39231896,0.0069909045,0.5658557,0.37349546,-10.448297,1.9393034
6.2195306,4.8797398,0.43173376,0.026165664,0.6244452,0.37828386,-10.362105,1.8387469
6.2202787,4.8802047,0.43173376,0.026165664,0.6244452,0.37828386,-10.362105,1.8387469
6.221083,4.880709,0.469018,0.040014103,0.67983896,0.4213795,-10.19451,1.8004397
6.2218866,4.8812113,0.469018,0.040014103,0.67983896,0.4213795,-10.19451,1.8004397
6.2227273,4.8817744,0.5031065,0.05173201,0.7299064,0.49320555,-10.079589,1.7956513
6.2235646,4.882334,0.5031065,0.05173201,0.7299064,0.49320555,-10.079589,1.7956513
6.2244334,4.8829355,0.5329339,0.061319392,0.77677804,0.5410896,-9.911995,1.7477672
6.2253036,4.8835382,0.5329339,0.061319392,0.77677804,0.5410896,-9.911995,1.7477672
6.22614,4.884195,0.561696,0.06877624,0.8183233,0.56982,-9.730036,1.6950948
6.226883,4.8848367,0.561696,0.06877624,0.8183233,0.56982,-9.730036,1.6950948
6.2276187,4.8854733,0.5851318,0.0762331,0.85134655,0.63206923,-9.586384,1.70946
6.2283454,4.8861003,0.5851318,0.0762331,0.85134655,0.63206923,-9.586384,1.70946
6.229124,4.886769,0.6032413,0.08368994,0.87797815,0.6512229,-9.404425,1.7381904
6.229896,4.887433,0.6032413,0.08368994,0.87797815,0.6512229,-9.404425,1.7381904
6.230663,4.8880796,0.61708975,0.089016266,0.8971529,0.7086837,-9.255983,1.6903064
6.2314267,4.888721,0.61708975,0.089016266,0.8971529,0.7086837,-9.255983,1.6903064
6.2322016,4.8893557,0.62667716,0.090081535,0.9110013,0.770933,-9.121908,1.6472107
6.2329745,4.889986,0.62667716,0.090081535,0.9110013,0.770933,-9.121908,1.6472107
6.233754,4.8906155,0.6320035,0.090081535,0.91845816,0.81402856,-9.002198,1.6184803
6.234535,4.891243,0.6320035,0.090081535,0.91845816,0.81402856,-9.002198,1.6184803
6.2353196,4.8918777,0.6309382,0.0911468,0.92271924,0.8283938,-8.892065,1.6280571
6.236103,4.89251,0.6309382,0.0911468,0.92271924,0.8283938,-8.892065,1.6280571
6.236888,4.8931146,0.6277424,0.09221206,0.92058873,0.842759,-8.772355,1.5370775
6.237672,4.893718,0.6277424,0.09221206,0.92058873,0.842759,-8.772355,1.5370775
6.238449,4.894327,0.6213508,0.0911468,0.91419715,0.8379706,-8.671799,1.5610195
6.2392254,4.894934,0.6213508,0.0911468,0.91419715,0.8379706,-8.671799,1.5610195
6.23999,4.895544,0.613894,0.090081535,0.9035445,0.81881696,-8.619126,1.5897499
6.240755,4.896153,0.613894,0.090081535,0.9035445,0.81881696,-8.619126,1.5897499
6.2415047,4.8967495,0.6032413,0.089016266,0.8886308,0.78529817,-8.513782,1.5705963
6.2422547,4.8973436,0.6032413,0.089016266,0.8886308,0.78529817,-8.513782,1.5705963
6.2429867,4.897936,0.5893929,0.086885735,0.8705213,0.7565677,-8.456321,1.5993267
6.2437162,4.8985248,0.5893929,0.086885735,0.8705213,0.7565677,-8.456321,1.5993267
6.2444396,4.8990784,0.57447916,0.08155942,0.85028124,0.78050977,-8.384495,1.4987702
6.2451477,4.89962,0.57447916,0.08155942,0.85028124,0.78050977,-8.384495,1.4987702
6.245838,4.9001365,0.55423915,0.07516783,0.8225844,0.7278373,-8.331821,1.4700398
6.246529,4.9006524,0.55423915,0.07516783,0.8225844,0.7278373,-8.331821,1.4700398
6.2471814,4.9011607,0.5329339,0.06877624,0.792757,0.6607997,-8.24563,1.5179238
6.247838,4.901671,0.5329339,0.06877624,0.792757,0.6607997,-8.24563,1.5179238
6.248468,4.9021454,0.5084328,0.060254127,0.7597338,0.6464345,-8.1642275,1.4700398
6.2491765,4.9026775,0.5084328,0.060254127,0.7597338,0.6464345,-8.1642275,1.4700398
6.249736,4.9030337,0.48180118,0.050666746,0.72458005,0.51235914,-8.145074,1.3694834
6.250355,4.903429,0.48180118,0.050666746,0.72458005,0.51235914,-8.145074,1.3694834
6.250955,4.9037924,0.45197377,0.040014103,0.6894263,0.47405192,-8.183381,1.3694834
6.2515574,4.904158,0.45197377,0.040014103,0.6894263,0.47405192,-8.183381,1.3694834
6.252121,4.904498,0.42214635,0.026165664,0.6542726,0.45010993,-8.173804,1.4077905
6.2526803,4.904836,0.42214635,0.026165664,0.6542726,0.45010993,-8.173804,1.4077905
6.253175,4.905164,0.39018843,0.008056169,0.6159231,0.5506664,-8.130709,1.4221559
6.253669,4.905491,0.39018843,0.008056169,0.6159231,0.5506664,-8.130709,1.4221559
6.254095,4.9058223,0.35929576,-0.011118591,0.575443,0.60333884,-8.1163435,1.5227122
6.2545204,4.9061527,0.35929576,-0.011118591,0.575443,0.60333884,-8.1163435,1.5227122
6.254915,4.906433,0.32946837,-0.029228088,0.53283244,0.6751649,-8.12592,1.4269443
6.2553077,4.9067116,0.32946837,-0.029228088,0.53283244,0.6751649,-8.12592,1.4269443
6.255635,4.907012,0.3007062,-0.047337584,0.4859608,0.6607997,-8.111555,1.6089035
6.2559633,4.9073124,0.3007062,-0.047337584,0.4859608,0.6607997,-8.111555,1.6089035
6.256239,4.9075756,0.27300933,-0.066512346,0.43695867,0.6943185,-8.169016,1.5945383
6.256514,4.9078383,0.27300933,-0.066512346,0.43695867,0.6943185,-8.169016,1.5945383
6.256741,4.908096,0.24637774,-0.08675237,0.38902175,0.7038953,-8.1881695,1.6759412
6.2569685,4.908354,0.24637774,-0.08675237,0.38902175,0.7038953,-8.1881695,1.6759412
6.257147,4.9085855,0.21868086,-0.10486186,0.34321538,0.7230489,-8.274361,1.70946
6.2573256,4.9088173,0.21868086,-0.10486186,0.34321538,0.7230489,-8.274361,1.70946
6.257455,4.9090133,0.1931145,-0.121906094,0.29847428,0.7661445,-8.350976,1.6903064
6.257584,4.909208,0.1931145,-0.121906094,0.29847428,0.7661445,-8.350976,1.6903064
6.2576647,4.909376,0.16754816,-0.13575453,0.25160265,0.7661445,-8.384495,1.6903064
6.2577453,4.909543,0.16754816,-0.13575453,0.25160265,0.7661445,-8.384495,1.6903064
6.2577834,4.9096994,0.14198181,-0.14747244,0.2079268,0.7613561,-8.413225,1.757344
6.257821,4.9098554,0.14198181,-0.14747244,0.2079268,0.7613561,-8.413225,1.757344
6.2578197,4.9099765,0.11748073,-0.1549293,0.17170781,0.7278373,-8.532935,1.7381904
6.257818,4.910097,0.11748073,-0.1549293,0.17170781,0.7278373,-8.532935,1.7381904
6.2577844,4.9101715,0.09404491,-0.15919036,0.1386846,0.6703765,-8.63828,1.6807296
6.2577505,4.9102454,0.09404491,-0.15919036,0.1386846,0.6703765,-8.63828,1.6807296
6.257685,4.910308,0.07273962,-0.1634514,0.1088572,0.62728083,-8.714894,1.7286136
6.2576203,4.910369,0.07273962,-0.1634514,0.1088572,0.62728083,-8.714894,1.7286136
6.257523,4.9104176,0.0524996,-0.16451667,0.07689927,0.641646,-8.7771435,1.7621324
6.2574263,4.9104657,0.0524996,-0.16451667,0.07689927,0.641646,-8.7771435,1.7621324
6.257302,4.9105144,0.033324838,-0.16451667,0.0460066,0.641646,-8.839393,1.8339585
6.2571774,4.9105625,0.033324838,-0.16451667,0.0460066,0.641646,-8.839393,1.8339585
6.257017,4.91057,0.015215342,-0.16238615,0.020440254,0.59376204,-8.8777,1.7717092
6.2568665,4.9105763,0.015215342,-0.16238615,0.020440254,0.59376204,-8.8777,1.7717092
6.25663,4.9105783,-0.0018288894,-0.16025561,-0.0019303001,0.5554548,-8.978256,1.8195933
6.256529,4.9105787,-0.0018288894,-0.16025561,-0.0019303001,0.5554548,-8.978256,1.8195933
6.256529,4.9105787,-0.0018288894,-0.16025561,-0.0019303001,0.5554548,-8.978256,1.8195933
6.25614,4.9104815,-0.01674259,-0.15812509,-0.025366118,0.5410896,-9.030929,1.7525556
6.255925,4.9104524,-0.032721557,-0.15599456,-0.04773667,0.60333884,-9.088389,1.8435353
6.2556987,4.9104223,-0.032721557,-0.15599456,-0.04773667,0.60333884,-9.088389,1.8435353
6.2554784,4.9103675,-0.04763526,-0.1549293,-0.06691143,0.61770403,-9.227253,1.8339585
6.2552433,4.91031,-0.04763526,-0.1549293,-0.06691143,0.61770403,-9.227253,1.8339585
6.254987,4.9102473,-0.058287904,-0.15279876,-0.08715145,0.58897364,-9.313444,1.8674773
6.2547336,4.910186,-0.058287904,-0.15279876,-0.08715145,0.58897364,-9.313444,1.8674773
6.254356,4.9101124,-0.06681002,-0.15066823,-0.10526095,0.5650316,-9.390059,1.9201498
6.2541924,4.910081,-0.06681002,-0.15066823,-0.10526095,0.5650316,-9.390059,1.9201498
6.253908,4.9100313,-0.07426687,-0.14960296,-0.123370446,0.5554548,-9.437943,1.9488802
6.2536235,4.9099817,-0.07426687,-0.14960296,-0.123370446,0.5554548,-9.437943,1.9488802
6.2533226,4.909918,-0.08065846,-0.14747244,-0.13828415,0.5602432,-9.524135,1.9488802
6.2530212,4.909855,-0.08065846,-0.14747244,-0.13828415,0.5602432,-9.524135,1.9488802
6.2527103,4.9098005,-0.08278899,-0.14747244,-0.1489368,0.49320555,-9.591172,1.9680338
6.252407,4.9097476,-0.08278899,-0.14747244,-0.1489368,0.49320555,-9.591172,1.9680338
6.252086,4.9096403,-0.08278899,-0.14534192,-0.15852417,0.44532153,-9.619903,1.9009962
6.2517657,4.9095335,-0.08278899,-0.14534192,-0.15852417,0.44532153,-9.619903,1.9009962
6.2514386,4.90944,-0.08278899,-0.14108086,-0.16278523,0.35434186,-9.696517,1.934515
6.251111,4.9093494,-0.08278899,-0.14108086,-0.16278523,0.35434186,-9.696517,1.934515
6.2507877,4.9092393,-0.08385425,-0.13895033,-0.1638505,0.35913026,-9.730036,1.934515
6.250463,4.9091306,-0.08385425,-0.13895033,-0.1638505,0.35913026,-9.730036,1.934515
6.250266,4.908946,-0.08172372,-0.13468927,-0.16065471,0.33039984,-9.734824,1.8962077
6.250073,4.908761,-0.08172372,-0.13468927,-0.16065471,0.33039984,-9.734824,1.8962077
6.2500005,4.9087496,-0.076397404,-0.12936294,-0.15213259,0.32561144,-9.758766,1.9440918
6.2499332,4.9087334,-0.076397404,-0.12936294,-0.15213259,0.32561144,-9.758766,1.9440918
6.249883,4.9086,-0.07320161,-0.124036625,-0.14361048,0.2681506,-9.768343,1.910573
6.2498345,4.9084673,-0.07320161,-0.124036625,-0.14361048,0.2681506,-9.768343,1.910573
6.249818,4.908381,-0.06894055,-0.1187103,-0.13508835,0.22026655,-9.773131,1.9297266
6.249801,4.908296,-0.06894055,-0.1187103,-0.13508835,0.22026655,-9.773131,1.9297266
6.249794,4.9082375,-0.06467949,-0.11338398,-0.12656625,0.19153613,-9.725247,1.9393034
6.2497873,4.908182,-0.06467949,-0.11338398,-0.12656625,0.19153613,-9.725247,1.9393034
6.249785,4.9080853,-0.057222642,-0.109122925,-0.11378307,0.18195933,-9.753978,1.8914193
6.249783,4.9079847,-0.057222642,-0.109122925,-0.11378307,0.18195933,-9.753978,1.8914193
6.2498026,4.9079123,-0.050831053,-0.10486186,-0.09993463,0.19632454,-9.763555,1.9153614
6.2498217,4.9078407,-0.050831053,-0.10486186,-0.09993463,0.19632454,-9.763555,1.9153614
6.2498517,4.9077682,-0.043374203,-0.10166607,-0.08715145,0.22984336,-9.77792,1.9153614
6.249882,4.907696,-0.043374203,-0.10166607,-0.08715145,0.22984336,-9.77792,1.9153614
6.249881,4.9075813,-0.034852087,-0.10166607,-0.07330302,0.25857377,-9.730036,1.8626889
6.2498803,4.907467,-0.034852087,-0.10166607,-0.07330302,0.25857377,-9.730036,1.8626889
6.249924,4.907389,-0.026329972,-0.10166607,-0.060519844,0.22026655,-9.749189,1.8818425
6.2499685,4.907312,-0.026329972,-0.10166607,-0.060519844,0.22026655,-9.749189,1.8818425
6.249962,4.9072,-0.017807856,-0.10166607,-0.046671405,0.2681506,-9.725247,1.8243817
6.2499557,4.9070883,-0.017807856,-0.10166607,-0.046671405,0.2681506,-9.725247,1.8243817
6.249976,4.90699,-0.010351005,-0.10166607,-0.034953497,0.29209262,-9.710882,1.8722657
6.2499976,4.906892,-0.010351005,-0.10166607,-0.034953497,0.29209262,-9.710882,1.8722657
6.24982,4.9068584,-0.0018288894,-0.10273133,-0.02323559,0.34955344,-9.744401,1.9153614
6.249644,4.9068255,-0.0018288894,-0.10273133,-0.02323559,0.34955344,-9.744401,1.9153614
6.249562,4.906738,0.008823755,-0.10166607,-0.01151768,0.39264908,-9.715671,1.8004397
6.24948,4.9066505,0.008823755,-0.10166607,-0.01151768,0.39264908,-9.715671,1.8004397
6.249365,4.9065905,0.017345872,-0.10166607,-0.0008650357,0.4213795,-9.725247,1.8435353
6.2492504,4.9065304,0.017345872,-0.10166607,-0.0008650357,0.4213795,-9.725247,1.8435353
6.2491574,4.90647,0.024802722,-0.09953554,0.009787609,0.46447513,-9.677363,1.7717092
6.249067,4.9064107,0.024802722,-0.09953554,0.009787609,0.46447513,-9.677363,1.7717092
6.2489295,4.906417,0.032259572,-0.09740501,0.018309724,0.50757074,-9.629479,1.8626889
6.2487926,4.9064226,0.032259572,-0.09740501,0.018309724,0.50757074,-9.629479,1.8626889
6.2486987,4.9063883,0.03865116,-0.095274486,0.025766576,0.521936,-9.653421,1.7669208
6.2486053,4.906354,0.03865116,-0.095274486,0.025766576,0.521936,-9.653421,1.7669208
6.2484374,4.906371,0.045042746,-0.09207869,0.033223428,0.5315128,-9.605537,1.8435353
6.2483664,4.9063783,0.045042746,-0.09207869,0.033223428,0.5315128,-9.605537,1.8435353
6.2482586,4.906386,0.05036907,-0.08888289,0.040680278,0.58418524,-9.600749,1.8100165
6.248153,4.906393,0.05036907,-0.08888289,0.040680278,0.58418524,-9.600749,1.8100165
6.248074,4.906383,0.055695392,-0.08781763,0.047071867,0.61291564,-9.595961,1.7286136
6.2479935,4.906373,0.055695392,-0.08781763,0.047071867,0.61291564,-9.595961,1.7286136
6.2479005,4.906392,0.062086977,-0.08355658,0.052398186,0.61770403,-9.576807,1.7956513
6.247807,4.9064116,0.062086977,-0.08355658,0.052398186,0.61770403,-9.576807,1.7956513
6.247723,4.9064283,0.0674133,-0.08249131,0.056659244,0.6607997,-9.572019,1.757344
6.247639,4.9064445,0.0674133,-0.08249131,0.056659244,0.6607997,-9.572019,1.757344
6.2475486,4.9064837,0.07167436,-0.079295516,0.059855036,0.6512229,-9.5385,1.8052281
6.2474585,4.906522,0.07167436,-0.079295516,0.059855036,0.6512229,-9.5385,1.8052281
6.2473664,4.906584,0.07700068,-0.07609972,0.06305083,0.6368576,-9.509769,1.8435353
6.247275,4.906645,0.07700068,-0.07609972,0.06305083,0.6368576,-9.509769,1.8435353
6.247192,4.906697,0.08019647,-0.0707734,0.06731189,0.6464345,-9.514558,1.8148049
6.247109,4.906748,0.08019647,-0.0707734,0.06731189,0.6464345,-9.514558,1.8148049
6.2470317,4.9067984,0.08339227,-0.066512346,0.07050768,0.6560113,-9.485827,1.7956513
6.2469544,4.906848,0.08339227,-0.066512346,0.07050768,0.6560113,-9.485827,1.7956513
6.2468824,4.9069,0.08658806,-0.06118602,0.073703475,0.61770403,-9.476251,1.8004397
6.24681,4.9069514,0.08658806,-0.06118602,0.073703475,0.61770403,-9.476251,1.8004397
6.246745,4.906997,0.08871859,-0.05692496,0.075834006,0.6512229,-9.481039,1.7717092
6.2466807,4.9070425,0.08871859,-0.05692496,0.075834006,0.6512229,-9.481039,1.7717092
6.2466297,4.9070745,0.089783855,-0.052663904,0.07796454,0.59376204,-9.500193,1.757344
6.246579,4.9071064,0.089783855,-0.052663904,0.07796454,0.59376204,-9.500193,1.757344
6.246548,4.9071283,0.09297965,-0.04946811,0.08222559,0.58418524,-9.428367,1.6998832
6.246517,4.9071503,0.09297965,-0.04946811,0.08222559,0.58418524,-9.428367,1.6998832
6.246463,4.907203,0.09511018,-0.044141788,0.08435612,0.5602432,-9.414001,1.7908629
6.246409,4.9072556,0.09511018,-0.044141788,0.08435612,0.5602432,-9.414001,1.7908629
6.246357,4.9073143,0.0972407,-0.037750203,0.087551914,0.61291564,-9.404425,1.7812861
6.2463055,4.9073725,0.0972407,-0.037750203,0.087551914,0.61291564,-9.404425,1.7812861
6.246276,4.9074125,0.09830597,-0.031358615,0.0939435,0.59855044,-9.41879,1.7381904
6.2462463,4.907452,0.09830597,-0.031358615,0.0939435,0.59855044,-9.41879,1.7381904
6.246221,4.9074926,0.09937123,-0.027097559,0.09713929,0.59376204,-9.428367,1.7429788
6.246196,4.9075336,0.09937123,-0.027097559,0.09713929,0.59376204,-9.428367,1.7429788
6.246171,4.9075794,0.10150176,-0.020705972,0.09926982,0.61770403,-9.437943,1.7429788
6.246146,4.907625,0.10150176,-0.020705972,0.09926982,0.61770403,-9.437943,1.7429788
6.246123,4.907675,0.102567025,-0.014314385,0.10140035,0.63206923,-9.471462,1.7525556
6.2460995,4.9077244,0.102567025,-0.014314385,0.10140035,0.63206923,-9.471462,1.7525556
6.2460704,4.907786,0.105762824,-0.008988062,0.10140035,0.641646,-9.495404,1.7812861
6.246042,4.9078474,0.105762824,-0.008988062,0.10140035,0.641646,-9.495404,1.7812861
6.2460184,4.90791,0.10895862,-0.0025964756,0.103530884,0.6847417,-9.452309,1.7477672
6.245995,4.9079714,0.10895862,-0.0025964756,0.103530884,0.6847417,-9.452309,1.7477672
6.245962,4.908057,0.10895862,0.0027298466,0.10566141,0.6703765,-9.442732,1.8195933
6.24593,4.9081435,0.10895862,0.0027298466,0.10566141,0.6703765,-9.442732,1.8195933
6.245916,4.908202,0.10895862,0.009121433,0.10779194,0.63206923,-9.437943,1.757344
6.2459016,4.908261,0.10895862,0.009121433,0.10779194,0.63206923,-9.437943,1.757344
6.2458806,4.908331,0.11002388,0.01551302,0.106726676,0.59855044,-9.433155,1.7956513
6.24586,4.9084005,0.11002388,0.01551302,0.106726676,0.59855044,-9.433155,1.7956513
6.245853,4.908454,0.11108914,0.021904606,0.10566141,0.61291564,-9.452309,1.7477672
6.2458463,4.9085073,0.11108914,0.021904606,0.10566141,0.61291564,-9.452309,1.7477672
6.2458506,4.908554,0.11321967,0.02723093,0.10566141,0.5793968,-9.428367,1.7286136
6.2458553,4.9086003,0.11321967,0.02723093,0.10566141,0.5793968,-9.428367,1.7286136
6.2458544,4.908655,0.11428493,0.032557253,0.106726676,0.5506664,-9.375694,1.757344
6.2458534,4.9087095,0.11428493,0.032557253,0.106726676,0.5506664,-9.375694,1.757344
6.2458496,4.908771,0.1153502,0.03681831,0.1088572,0.50757074,-9.361329,1.7908629
6.2458463,4.908833,0.1153502,0.03681831,0.1088572,0.50757074,-9.361329,1.7908629
6.245836,4.9089093,0.1153502,0.04107937,0.112053,0.39264908,-9.323022,1.8435353
6.2458267,4.908983,0.1153502,0.04107937,0.112053,0.39264908,-9.323022,1.8435353
6.245843,4.909034,0.11428493,0.04427516,0.11631405,0.4165911,-9.303867,1.8148049
6.245859,4.9090843,0.11428493,0.04427516,0.11631405,0.4165911,-9.303867,1.8148049
6.245863,4.90915,0.11108914,0.047470953,0.12164038,0.5363012,-9.351752,1.7956513
6.2458673,4.9092155,0.11108914,0.047470953,0.12164038,0.5363012,-9.351752,1.7956513
6.245869,4.909296,0.10895862,0.050666746,0.12803197,0.5554548,-9.351752,1.8195933
6.245871,4.9093757,0.10895862,0.050666746,0.12803197,0.5554548,-9.351752,1.8195933
6.2458935,4.9094267,0.105762824,0.05599307,0.13016249,0.58418524,-9.409213,1.7669208
6.245916,4.9094777,0.105762824,0.05599307,0.13016249,0.58418524,-9.409213,1.7669208
6.2459364,4.909526,0.10150176,0.06344992,0.12803197,0.5410896,-9.404425,1.7908629
6.245957,4.909574,0.10150176,0.06344992,0.12803197,0.5410896,-9.404425,1.7908629
6.245983,4.909614,0.09937123,0.071972035,0.12483617,0.44532153,-9.428367,1.8339585
6.2460093,4.909653,0.09937123,0.071972035,0.12483617,0.44532153,-9.428367,1.8339585
6.2460084,4.909732,0.0972407,0.07836362,0.12270564,0.45489833,-9.442732,1.8722657
6.2460074,4.909809,0.0972407,0.07836362,0.12270564,0.45489833,-9.442732,1.8722657
6.2460046,4.9098916,0.09404491,0.08475521,0.12164038,0.4261679,-9.41879,1.8770541
6.246002,4.9099727,0.09404491,0.08475521,0.12164038,0.4261679,-9.41879,1.8770541
6.2460117,4.9100213,0.089783855,0.09221206,0.119509846,0.4165911,-9.409213,1.8626889
6.2460217,4.9100695,0.089783855,0.09221206,0.119509846,0.4165911,-9.409213,1.8626889
6.246277,4.910207,0.08658806,0.09647312,0.11631405,0.33518824,-9.466674,1.9057846
6.2465334,4.910343,0.08658806,0.09647312,0.11631405,0.33518824,-9.466674,1.9057846
6.2467647,4.9103584,0.08339227,0.100734174,0.11524879,0.272939,-9.490616,1.8435353
6.2469945,4.910372,0.08339227,0.100734174,0.11524879,0.272939,-9.490616,1.8435353
6.247265,4.910431,0.08019647,0.1060605,0.11524879,0.17717093,-9.485827,1.8722657
6.2475348,4.91049,0.08019647,0.1060605,0.11524879,0.17717093,-9.485827,1.8722657
6.2478023,4.9105396,0.07700068,0.11032156,0.11418352,0.11492168,-9.495404,1.8531121
6.2480702,4.9105887,0.07700068,0.11032156,0.11418352,0.11492168,-9.495404,1.8531121
6.248331,4.9107122,0.073804885,0.11245208,0.11631405,0.090979666,-9.514558,2.006341
6.2485914,4.9108353,0.073804885,0.11245208,0.11631405,0.090979666,-9.514558,2.006341
6.248861,4.910942,0.07273962,0.11245208,0.11737932,0.090979666,-9.519346,1.9728222
6.2491302,4.9110484,0.07273962,0.11245208,0.11737932,0.090979666,-9.519346,1.9728222
6.249515,4.9111843,0.07167436,0.11138682,0.119509846,0.08619126,-9.548077,1.9632454
6.2497087,4.911252,0.07167436,0.11138682,0.119509846,0.08619126,-9.548077,1.9632454
6.2497087,4.911252,0.07167436,0.11138682,0.119509846,0.08619126,-9.548077,1.9632454
6.2497087,4.911252,0.07167436,0.11138682,0.119509846,0.08619126,-9.548077,1.9632454
6.2497087,4.911252,0.07167436,0.11138682,0.119509846,0.08619126,-9.548077,1.9632454
6.251016,4.9118433,0.075935416,0.100734174,0.13122776,0.05746084,-9.56723,1.9776106
6.251115,4.9118786,0.075935416,0.100734174,0.13122776,0.05746084,-9.56723,1.9776106
6.251307,4.9119463,0.075935416,0.100734174,0.13122776,0.05746084,-9.56723,1.9776106
6.2516074,4.9120545,0.07806595,0.09647312,0.13229302,0.047884032,-9.629479,1.9919758
6.2518735,4.9121504,0.07806595,0.09647312,0.13229302,0.047884032,-9.629479,1.9919758
6.252157,4.912254,0.07913121,0.090081535,0.13335828,0.12449849,-9.634268,1.982399
6.2524405,4.9123573,0.07913121,0.090081535,0.13335828,0.12449849,-9.634268,1.982399
6.2524405,4.9123573,0.07913121,0.090081535,0.13335828,0.12449849,-9.634268,1.982399
6.2531524,4.9125366,0.082327,0.08475521,0.13442355,0.11971009,-9.595961,1.9297266
6.2533364,4.912628,0.08552279,0.07942889,0.13335828,0.17238252,-9.653421,2.006341
6.2535677,4.9127426,0.08552279,0.07942889,0.13335828,0.17238252,-9.653421,2.006341
6.253805,4.912906,0.089783855,0.073037304,0.13442355,0.16280572,-9.586384,2.0494366
6.2540445,4.9130707,0.089783855,0.073037304,0.13442355,0.16280572,-9.586384,2.0494366
6.2543015,4.9132247,0.09297965,0.06664571,0.13335828,0.19153613,-9.634268,2.0111294
6.2545567,4.913377,0.09297965,0.06664571,0.13335828,0.19153613,-9.634268,2.0111294
6.2548065,4.913536,0.09617544,0.061319392,0.13016249,0.22984336,-9.610326,1.9871874
6.2550564,4.913694,0.09617544,0.061319392,0.13016249,0.22984336,-9.610326,1.9871874
6.2552657,4.9138794,0.09830597,0.057058334,0.13016249,0.20111294,-9.586384,2.0494366
6.255475,4.914065,0.09830597,0.057058334,0.13016249,0.20111294,-9.586384,2.0494366
6.2556925,4.9142423,0.09830597,0.052797277,0.12377091,0.18195933,-9.591172,2.0446482
6.255911,4.9144206,0.09830597,0.052797277,0.12377091,0.18195933,-9.591172,2.0446482
6.2561183,4.9145975,0.09617544,0.047470953,0.118444584,0.15801731,-9.548077,2.0638018
6.256326,4.914775,0.09617544,0.047470953,0.118444584,0.15801731,-9.548077,2.0638018
6.256571,4.9149146,0.09297965,0.04427516,0.11418352,0.10055647,-9.548077,2.0207062
6.2568154,4.915054,0.09297965,0.04427516,0.11418352,0.10055647,-9.548077,2.0207062
6.257016,4.9152217,0.089783855,0.04107937,0.10992247,0.110133275,-9.495404,2.087744
6.2572184,4.915391,0.089783855,0.04107937,0.10992247,0.110133275,-9.495404,2.087744
6.2574434,4.9155407,0.087653324,0.040014103,0.1088572,0.095768064,-9.481039,2.0398598
6.257668,4.9156895,0.087653324,0.040014103,0.1088572,0.095768064,-9.481039,2.0398598
6.257923,4.915782,0.08552279,0.038948838,0.10992247,0.12449849,-9.471462,1.958457
6.2581787,4.9158735,0.08552279,0.038948838,0.10992247,0.12449849,-9.471462,1.958457
6.258375,4.9160366,0.082327,0.040014103,0.10779194,0.1388637,-9.442732,2.0494366
6.2585716,4.916199,0.082327,0.040014103,0.10779194,0.1388637,-9.442732,2.0494366
6.2588234,4.9162855,0.08019647,0.04107937,0.10566141,0.1388637,-9.457097,1.958457
6.259075,4.9163704,0.08019647,0.04107937,0.10566141,0.1388637,-9.457097,1.958457
6.2593055,4.9164968,0.07806595,0.043209895,0.102465615,0.17238252,-9.442732,1.9776106
6.259538,4.9166236,0.07806595,0.043209895,0.102465615,0.17238252,-9.442732,1.9776106
6.259785,4.916696,0.07806595,0.043209895,0.10033509,0.11492168,-9.433155,1.9488802
6.2600317,4.9167676,0.07806595,0.043209895,0.10033509,0.11492168,-9.433155,1.9488802
6.2602396,4.9169064,0.073804885,0.043209895,0.09500877,0.11971009,-9.394848,2.0111294
6.260448,4.9170456,0.073804885,0.043209895,0.09500877,0.11971009,-9.394848,2.0111294
6.260672,4.917158,0.06954383,0.043209895,0.09074771,0.1340753,-9.433155,1.9871874
6.2608967,4.91727,0.06954383,0.043209895,0.09074771,0.1340753,-9.433155,1.9871874
6.261129,4.9173365,0.06528277,0.043209895,0.08542138,0.12449849,-9.399636,1.9536686
6.261361,4.9174023,0.06528277,0.043209895,0.08542138,0.12449849,-9.399636,1.9536686
6.2615867,4.917449,0.061021715,0.04107937,0.08009506,0.1388637,-9.409213,1.9488802
6.2618117,4.917495,0.061021715,0.04107937,0.08009506,0.1388637,-9.409213,1.9488802
6.2620325,4.9175577,0.054630127,0.04107937,0.07476874,0.11971009,-9.414001,1.9632454
6.2622547,4.9176197,0.054630127,0.04107937,0.07476874,0.11971009,-9.414001,1.9632454
6.262464,4.9176407,0.049303804,0.04107937,0.06944242,0.10534488,-9.41879,1.9393034
6.262675,4.91766,0.049303804,0.04107937,0.06944242,0.10534488,-9.41879,1.9393034
6.2628865,4.9177074,0.043977484,0.040014103,0.06518136,0.08619126,-9.394848,1.958457
6.2630982,4.917754,0.043977484,0.040014103,0.06518136,0.08619126,-9.394848,1.958457
6.263276,4.917852,0.037585896,0.038948838,0.058789775,0.14844051,-9.423578,1.9871874
6.2634544,4.917949,0.037585896,0.038948838,0.058789775,0.14844051,-9.423578,1.9871874
6.263652,4.917974,0.034390103,0.037883572,0.052398186,0.12928689,-9.437943,1.9632454
6.263851,4.9179974,0.034390103,0.037883572,0.052398186,0.12928689,-9.437943,1.9632454
6.26402,4.9179688,0.030129045,0.037883572,0.049202394,0.11971009,-9.44752,1.934515
6.2641883,4.9179397,0.030129045,0.037883572,0.049202394,0.11971009,-9.44752,1.934515
6.2643065,4.9178762,0.024802722,0.035753045,0.0460066,0.11971009,-9.466674,1.8866309
6.2644243,4.917813,0.024802722,0.035753045,0.0460066,0.11971009,-9.466674,1.8866309
6.26458,4.9178996,0.02160693,0.033622514,0.04387607,0.11492168,-9.452309,2.0111294
6.264736,4.9179873,0.02160693,0.033622514,0.04387607,0.11492168,-9.452309,2.0111294
6.2649107,4.917961,0.018411135,0.030426722,0.04387607,0.11971009,-9.423578,1.9440918
6.2650843,4.9179344,0.018411135,0.030426722,0.04387607,0.11971009,-9.423578,1.9440918
6.2652593,4.9179893,0.017345872,0.028296193,0.040680278,0.095768064,-9.442732,1.9919758
6.2654347,4.918044,0.017345872,0.028296193,0.040680278,0.095768064,-9.442732,1.9919758
6.2655854,4.9179964,0.016280606,0.026165664,0.03854975,0.11971009,-9.423578,1.934515
6.2657366,4.917948,0.016280606,0.026165664,0.03854975,0.11971009,-9.423578,1.934515
6.26589,4.917906,0.0141500775,0.024035135,0.035353955,0.12449849,-9.404425,1.9393034
6.266045,4.917863,0.0141500775,0.024035135,0.035353955,0.12449849,-9.404425,1.9393034
6.2661257,4.917969,0.012019549,0.020839343,0.031092897,0.14844051,-9.433155,2.0015526
6.2662053,4.918076,0.012019549,0.020839343,0.031092897,0.14844051,-9.433155,2.0015526
6.2662764,4.917989,0.008823755,0.018708814,0.02896237,0.1340753,-9.390059,1.8866309
6.266347,4.9179015,0.008823755,0.018708814,0.02896237,0.1340753,-9.390059,1.8866309
6.2663445,4.9178095,0.005627962,0.016578285,0.024701312,0.18195933,-9.385271,1.8866309
6.266342,4.9177175,0.005627962,0.016578285,0.024701312,0.18195933,-9.385271,1.8866309
6.2662277,4.9177184,0.003497433,0.01551302,0.022570781,0.19632454,-9.361329,1.9488802
6.266113,4.917719,0.003497433,0.01551302,0.022570781,0.19632454,-9.361329,1.9488802
6.2660484,4.917641,0.001366904,0.014447756,0.018309724,0.20590134,-9.346964,1.9057846
6.2659836,4.9175634,0.001366904,0.014447756,0.018309724,0.20590134,-9.346964,1.9057846
6.265862,4.9175806,-0.0028941538,0.013382491,0.012983402,0.18195933,-9.375694,1.9536686
6.2657404,4.9175982,-0.0028941538,0.013382491,0.012983402,0.18195933,-9.375694,1.9536686
6.2657666,4.9174905,-0.008220476,0.014447756,0.009787609,0.15801731,-9.361329,1.8866309
6.2657933,4.9173827,-0.008220476,0.014447756,0.009787609,0.15801731,-9.361329,1.8866309
6.2659416,4.9173527,-0.013546798,0.013382491,0.00765708,0.1388637,-9.390059,1.9488802
6.2660904,4.917323,-0.013546798,0.013382491,0.00765708,0.1388637,-9.390059,1.9488802
6.2661996,4.9173717,-0.018873122,0.014447756,0.0033960221,0.11971009,-9.394848,1.982399
6.266309,4.9174213,-0.018873122,0.014447756,0.0033960221,0.11971009,-9.394848,1.982399
6.2664504,4.9173875,-0.022068914,0.01551302,0.00020022877,0.095768064,-9.375694,1.9440918
6.2665935,4.9173546,-0.022068914,0.01551302,0.00020022877,0.095768064,-9.375694,1.9440918
6.266725,4.9172883,-0.025264706,0.01551302,0.00020022877,0.05267244,-9.380483,1.9153614
6.2668567,4.9172225,-0.025264706,0.01551302,0.00020022877,0.05267244,-9.380483,1.9153614
6.2669864,4.9171476,-0.03059103,0.016578285,0.0012654932,0.04309563,-9.394848,1.910573
6.267117,4.9170732,-0.03059103,0.016578285,0.0012654932,0.04309563,-9.394848,1.910573
6.267245,4.9170856,-0.034852087,0.016578285,0.0012654932,0.07182605,-9.437943,1.9919758
6.267372,4.917099,-0.034852087,0.016578285,0.0012654932,0.07182605,-9.437943,1.9919758
6.2675176,4.9170594,-0.03804788,0.016578285,0.0023307577,0.076614454,-9.414001,1.9536686
6.2676635,4.917021,-0.03804788,0.016578285,0.0023307577,0.076614454,-9.414001,1.9536686
6.26776,4.9170537,-0.042308938,0.01551302,0.0012654932,0.062249243,-9.390059,2.0207062
6.267856,4.9170866,-0.042308938,0.01551302,0.0012654932,0.062249243,-9.390059,2.0207062
6.2679243,4.9171305,-0.04443947,0.01551302,-0.0008650357,0.08140286,-9.409213,2.0446482
6.267991,4.9171743,-0.04443947,0.01551302,-0.0008650357,0.08140286,-9.409213,2.0446482
6.26804,4.91722,-0.04763526,0.013382491,-0.004060829,0.10055647,-9.423578,2.0446482
6.2680883,4.917266,-0.04763526,0.013382491,-0.004060829,0.10055647,-9.423578,2.0446482
6.2682147,4.9172487,-0.052961584,0.012317227,-0.0072566224,0.07182605,-9.41879,1.9776106
6.26834,4.9172325,-0.052961584,0.012317227,-0.0072566224,0.07182605,-9.41879,1.9776106
6.268431,4.917249,-0.05509211,0.011251962,-0.009387151,0.090979666,-9.423578,1.9967642
6.268533,4.9172688,-0.05509211,0.011251962,-0.009387151,0.090979666,-9.423578,1.9967642
6.2686057,4.9172845,-0.057222642,0.009121433,-0.013648209,0.12449849,-9.471462,1.982399
6.268683,4.9173026,-0.057222642,0.009121433,-0.013648209,0.12449849,-9.471462,1.982399
6.2687626,4.9173164,-0.058287904,0.0069909045,-0.017909266,0.07182605,-9.514558,2.030283
6.268842,4.9173307,-0.058287904,0.0069909045,-0.017909266,0.07182605,-9.514558,2.030283
6.2689605,4.917293,-0.062548965,0.0048603755,-0.018974531,0.038307227,-9.5385,2.0015526
6.2690783,4.917256,-0.062548965,0.0048603755,-0.018974531,0.038307227,-9.5385,2.0015526
6.269197,4.917186,-0.06467949,0.0027298466,-0.022170324,0.038307227,-9.605537,1.9919758
6.2693157,4.917117,-0.06467949,0.0027298466,-0.022170324,0.038307227,-9.605537,1.9919758
6.2694097,4.9171057,-0.06681002,0.0005993177,-0.02323559,-0.0047884034,-9.610326,2.0638018
6.2695026,4.917094,-0.06681002,0.0005993177,-0.02323559,-0.0047884034,-9.610326,2.0638018
6.2696185,4.9170356,-0.06894055,-0.0015312112,-0.02323559,-0.038307227,-9.648633,2.0159178
6.269735,4.9169774,-0.06894055,-0.0015312112,-0.02323559,-0.038307227,-9.648633,2.0159178
6.2698455,4.9169345,-0.07000581,-0.0047270046,-0.02323559,-0.090979666,-9.677363,2.054225
6.269956,4.916892,-0.07000581,-0.0047270046,-0.02323559,-0.090979666,-9.677363,2.054225
6.270073,4.916808,-0.07000581,-0.007922798,-0.02110506,-0.095768064,-9.715671,1.9919758
6.2701893,4.9167247,-0.07000581,-0.007922798,-0.02110506,-0.095768064,-9.715671,1.9919758
6.270309,4.9166484,-0.06894055,-0.012183856,-0.017909266,-0.08619126,-9.734824,2.006341
6.2704287,4.916573,-0.06894055,-0.012183856,-0.017909266,-0.08619126,-9.734824,2.006341
6.27055,4.916519,-0.06574476,-0.015379649,-0.014713474,-0.1436521,-9.710882,2.0350714
6.270671,4.9164658,-0.06574476,-0.015379649,-0.014713474,-0.1436521,-9.710882,2.0350714
6.270798,4.916397,-0.06361423,-0.018575443,-0.009387151,-0.10055647,-9.734824,2.006341
6.270925,4.9163284,-0.06361423,-0.018575443,-0.009387151,-0.10055647,-9.734824,2.006341
6.271048,4.916301,-0.060418434,-0.0228365,-0.004060829,-0.08619126,-9.744401,2.0685902
6.271171,4.9162736,-0.060418434,-0.0228365,-0.004060829,-0.08619126,-9.744401,2.0685902
6.2713056,4.9162035,-0.056157377,-0.028162822,0.0012654932,-0.095768064,-9.734824,1.9919758
6.27144,4.916135,-0.056157377,-0.028162822,0.0012654932,-0.095768064,-9.734824,1.9919758
6.2715716,4.916048,-0.05189632,-0.033489145,0.0065918155,-0.06703765,-9.715671,1.958457
6.2717032,4.9159613,-0.05189632,-0.033489145,0.0065918155,-0.06703765,-9.715671,1.958457
6.2718267,4.9158635,-0.04763526,-0.03881547,0.009787609,-0.023942016,-9.696517,1.9440918
6.2719502,4.915766,-0.04763526,-0.03881547,0.009787609,-0.023942016,-9.696517,1.9440918
6.272089,4.9157505,-0.043374203,-0.044141788,0.014048667,0.01436521,-9.672575,2.0159178
6.272228,4.9157357,-0.043374203,-0.044141788,0.014048667,0.01436521,-9.672575,2.0159178
6.272303,4.9157834,-0.039113145,-0.04946811,0.01724446,0.076614454,-9.691729,2.0398598
6.272378,4.915831,-0.039113145,-0.04946811,0.01724446,0.076614454,-9.691729,2.0398598
6.2723427,4.9158897,-0.035917353,-0.054794434,0.018309724,0.12928689,-9.710882,2.054225
6.2723074,4.9159484,-0.035917353,-0.054794434,0.018309724,0.12928689,-9.710882,2.054225
6.272142,4.915849,-0.032721557,-0.057990227,0.019374989,0.11971009,-9.691729,1.9967642
6.2719674,4.915754,-0.032721557,-0.057990227,0.019374989,0.11971009,-9.691729,1.9967642
6.2719674,4.915754,-0.032721557,-0.057990227,0.019374989,0.11971009,-9.691729,1.9967642
6.271836,4.915588,-0.029525764,-0.06118602,0.021505518,0.1436521,-9.720459,1.9776106
6.2717633,4.915566,-0.026329972,-0.064381815,0.021505518,0.16759412,-9.715671,2.0159178
6.2716293,4.9155736,-0.026329972,-0.064381815,0.021505518,0.16759412,-9.715671,2.0159178
6.2715454,4.915476,-0.02313418,-0.06544708,0.021505518,0.19153613,-9.720459,1.9393034
6.2714515,4.915367,-0.02313418,-0.06544708,0.021505518,0.19153613,-9.720459,1.9393034
6.271326,4.91541,-0.019938385,-0.06544708,0.023636047,0.16759412,-9.739613,2.030283
6.27126,4.9154334,-0.019938385,-0.06544708,0.023636047,0.16759412,-9.739613,2.030283
6.2711706,4.9154854,-0.015677327,-0.06331655,0.025766576,0.19153613,-9.782708,2.0638018
6.2710814,4.9155374,-0.015677327,-0.06331655,0.025766576,0.19153613,-9.782708,2.0638018
