Pitch,Roll,Gyro_X,Gyro_Y,Gyro_Z,Accel_X,Accel_Y,Accel_Z
6.162565,4.5464973,-0.042308938,0.0251004,0.00020022877,1.3072342,-9.323022,-1.70946
6.162446,4.546399,-0.046569996,0.029361458,0.0044612866,1.3120226,-9.3182335,-1.6376339
6.1623273,4.546301,-0.046569996,0.029361458,0.0044612866,1.3120226,-9.3182335,-1.6376339
6.1622577,4.546168,-0.050831053,0.033622514,0.009787609,1.2306197,-9.303867,-1.6567876
6.162188,4.546035,-0.050831053,0.033622514,0.009787609,1.2306197,-9.303867,-1.6567876
6.1621575,4.545887,-0.05509211,0.03681831,0.014048667,1.2066777,-9.394848,-1.6950948
6.162127,4.545739,-0.05509211,0.03681831,0.014048667,1.2066777,-9.394848,-1.6950948
6.162108,4.5455875,-0.05935317,0.040014103,0.021505518,1.163582,-9.385271,-1.5945383
6.1620865,4.5454354,-0.05935317,0.040014103,0.021505518,1.163582,-9.385271,-1.5945383
6.1619906,4.5453224,-0.0614837,0.04214463,0.027897105,1.2210429,-9.442732,-1.6184803
6.1618943,4.54521,-0.0614837,0.04214463,0.027897105,1.2210429,-9.442732,-1.6184803
6.1618543,4.545064,-0.062548965,0.043209895,0.03428869,1.1827357,-9.428367,-1.6136919
6.161813,4.544919,-0.062548965,0.043209895,0.03428869,1.1827357,-9.428367,-1.6136919
6.1617827,4.54495,-0.06467949,0.046405688,0.040680278,1.2114661,-9.524135,-1.5610195
6.1617527,4.544981,-0.06467949,0.046405688,0.040680278,1.2114661,-9.524135,-1.5610195
6.161916,4.5448775,-0.06681002,0.04853622,0.0460066,1.1492168,-9.495404,-1.6136919
6.1620793,4.5447755,-0.06681002,0.04853622,0.0460066,1.1492168,-9.495404,-1.6136919
6.1620927,4.544618,-0.06574476,0.04853622,0.05133292,1.1779473,-9.461885,-1.6328455
6.1621046,4.544461,-0.06574476,0.04853622,0.05133292,1.1779473,-9.461885,-1.6328455
6.162212,4.5444937,-0.06574476,0.046405688,0.056659244,1.1492168,-9.509769,-1.5753847
6.162317,4.5445266,-0.06574476,0.046405688,0.056659244,1.1492168,-9.509769,-1.5753847
6.1623425,4.5443687,-0.06574476,0.045340426,0.058789775,1.1827357,-9.495404,-1.6567876
6.1623664,4.5442095,-0.06574476,0.045340426,0.058789775,1.1827357,-9.495404,-1.6567876
6.162409,4.544255,-0.062548965,0.04214463,0.058789775,1.1731589,-9.500193,-1.5753847
6.1624465,4.5442967,-0.062548965,0.04214463,0.058789775,1.1731589,-9.500193,-1.5753847
6.1624784,4.5443416,-0.05935317,0.03681831,0.059855036,1.1875241,-9.533711,-1.541866
6.16251,4.5443864,-0.05935317,0.03681831,0.059855036,1.1875241,-9.533711,-1.541866
6.1624956,4.5444226,-0.056157377,0.032557253,0.059855036,1.2114661,-9.519346,-1.5610195
6.1624813,4.5444584,-0.056157377,0.032557253,0.059855036,1.2114661,-9.519346,-1.5610195
6.1625404,4.544511,-0.05189632,0.0251004,0.059855036,1.1683705,-9.552865,-1.5035586
6.1625986,4.5445633,-0.05189632,0.0251004,0.059855036,1.1683705,-9.552865,-1.5035586
6.1626086,4.5446153,-0.046569996,0.020839343,0.05772451,1.1923125,-9.528923,-1.5658079
6.162618,4.5446672,-0.046569996,0.020839343,0.05772451,1.1923125,-9.528923,-1.5658079
6.1627164,4.5447264,-0.039113145,0.016578285,0.055593982,1.1252748,-9.524135,-1.5227122
6.162813,4.5447855,-0.039113145,0.016578285,0.055593982,1.1252748,-9.524135,-1.5227122
6.162913,4.5448484,-0.032721557,0.012317227,0.05026766,1.1061212,-9.533711,-1.5035586
6.163012,4.5449114,-0.032721557,0.012317227,0.05026766,1.1061212,-9.533711,-1.5035586
6.163079,4.5449867,-0.026329972,0.0069909045,0.044941336,1.1492168,-9.572019,-1.5275006
6.1631446,4.545061,-0.026329972,0.0069909045,0.044941336,1.1492168,-9.572019,-1.5275006
6.1632876,4.54511,-0.019938385,0.0005993177,0.041745543,1.1204864,-9.533711,-1.5801731
6.163431,4.5451603,-0.019938385,0.0005993177,0.041745543,1.1204864,-9.533711,-1.5801731
6.1635838,4.545207,-0.012481534,-0.00366174,0.03854975,1.1204864,-9.600749,-1.5945383
6.1637363,4.5452547,-0.012481534,-0.00366174,0.03854975,1.1204864,-9.600749,-1.5945383
6.1638956,4.545301,-0.0050246827,-0.005792269,0.037484486,1.163582,-9.648633,-1.6232687
6.164053,4.5453496,-0.0050246827,-0.005792269,0.037484486,1.163582,-9.648633,-1.6232687
6.164106,4.5452495,0.00030163955,-0.011118591,0.035353955,1.163582,-9.648633,-1.6807296
6.1641583,4.5451493,0.00030163955,-0.011118591,0.035353955,1.163582,-9.648633,-1.6807296
6.16413,4.545064,0.005627962,-0.014314385,0.03428869,1.2114661,-9.682152,-1.685518
6.164102,4.544978,0.005627962,-0.014314385,0.03428869,1.2114661,-9.682152,-1.685518
6.16399,4.544958,0.010954284,-0.016444914,0.032158162,1.2641385,-9.662998,-1.6519991
6.16399,4.544958,0.010954284,-0.016444914,0.032158162,1.2641385,-9.662998,-1.6519991
6.16399,4.544958,0.018411135,-0.017510178,0.02896237,1.3551182,-9.706094,-1.7669208
6.163792,4.544796,0.018411135,-0.017510178,0.02896237,1.3551182,-9.706094,-1.7669208
6.1637034,4.544756,0.024802722,-0.019640706,0.024701312,1.3694834,-9.653421,-1.7381904
6.1636076,4.5447125,0.024802722,-0.019640706,0.024701312,1.3694834,-9.653421,-1.7381904
6.1635294,4.544673,0.031194309,-0.019640706,0.021505518,1.460463,-9.634268,-1.8195933
6.163463,4.5446396,0.031194309,-0.019640706,0.021505518,1.460463,-9.634268,-1.8195933
6.1633673,4.544618,0.037585896,-0.017510178,0.01724446,1.508347,-9.615114,-1.7908629
6.1632595,4.5445943,0.037585896,-0.017510178,0.01724446,1.508347,-9.615114,-1.7908629
6.1631837,4.544567,0.04291222,-0.014314385,0.01724446,1.5370775,-9.56723,-1.8722657
6.163102,4.5445385,0.04291222,-0.014314385,0.01724446,1.5370775,-9.56723,-1.8722657
6.1630087,4.544518,0.049303804,-0.010053327,0.012983402,1.5705963,-9.562442,-1.8770541
6.1629195,4.544498,0.049303804,-0.010053327,0.012983402,1.5705963,-9.562442,-1.8770541
6.162816,4.544487,0.05356486,-0.005792269,0.0065918155,1.6041151,-9.543288,-1.8626889
6.162712,4.5444765,0.05356486,-0.005792269,0.0065918155,1.6041151,-9.543288,-1.8626889
6.1626015,4.544472,0.056760654,0.0016645822,0.0033960221,1.6424223,-9.576807,-1.8722657
6.1624913,4.544468,0.056760654,0.0016645822,0.0033960221,1.6424223,-9.576807,-1.8722657
6.1623836,4.544461,0.058891185,0.009121433,0.0023307577,1.6711528,-9.595961,-1.9249382
6.162276,4.544454,0.058891185,0.009121433,0.0023307577,1.6711528,-9.595961,-1.9249382
6.1621666,4.5444503,0.061021715,0.016578285,0.0012654932,1.6184803,-9.667787,-1.9009962
6.1620574,4.544446,0.061021715,0.016578285,0.0012654932,1.6184803,-9.667787,-1.9009962
6.1619463,4.544447,0.06315224,0.026165664,0.0033960221,1.6232687,-9.706094,-1.8962077
6.1618366,4.544448,0.06315224,0.026165664,0.0033960221,1.6232687,-9.706094,-1.8962077
6.161728,4.544451,0.06528277,0.03468778,0.005526551,1.5993267,-9.758766,-1.8914193
6.161619,4.5444546,0.06528277,0.03468778,0.005526551,1.5993267,-9.758766,-1.8914193
6.1615143,4.544459,0.0674133,0.043209895,0.00765708,1.532289,-9.825804,-1.8674773
6.1614094,4.544463,0.0674133,0.043209895,0.00765708,1.532289,-9.825804,-1.8674773
6.1613092,4.5444727,0.07167436,0.050666746,0.014048667,1.541866,-9.840169,-1.8722657
6.161209,4.5444827,0.07167436,0.050666746,0.014048667,1.541866,-9.840169,-1.8722657
6.1611295,4.544488,0.074870154,0.057058334,0.023636047,1.4700398,-9.907207,-1.8722657
6.1610503,4.544493,0.074870154,0.057058334,0.023636047,1.4700398,-9.907207,-1.8722657
6.1609344,4.54455,0.07806595,0.06344992,0.030027634,1.4987702,-9.911995,-1.7381904
6.1608186,4.544606,0.07806595,0.06344992,0.030027634,1.4987702,-9.911995,-1.7381904
6.1607294,4.544638,0.082327,0.06771098,0.037484486,1.4748282,-9.921572,-1.8004397
6.16064,4.54467,0.082327,0.06771098,0.037484486,1.4748282,-9.921572,-1.8004397
6.160531,4.5447626,0.087653324,0.071972035,0.04387607,1.460463,-9.964667,-1.6950948
6.1604223,4.5448537,0.087653324,0.071972035,0.04387607,1.460463,-9.964667,-1.6950948
6.1603246,4.544976,0.09404491,0.074102566,0.052398186,1.460463,-9.940725,-1.6519991
6.160227,4.5450983,0.09404491,0.074102566,0.052398186,1.460463,-9.940725,-1.6519991
6.160138,4.5452323,0.1004365,0.07516783,0.059855036,1.4556746,-9.988609,-1.6519991
6.160049,4.5453653,0.1004365,0.07516783,0.059855036,1.4556746,-9.988609,-1.6519991
6.160029,4.545568,0.106828086,0.0762331,0.0641161,1.388637,-9.993398,-1.5179238
6.1600084,4.5457706,0.106828086,0.0762331,0.0641161,1.388637,-9.993398,-1.5179238
6.160008,4.545986,0.11321967,0.07729836,0.06624663,1.364695,-9.998186,-1.484405
6.1600075,4.546202,0.11321967,0.07729836,0.06624663,1.364695,-9.998186,-1.484405
6.1600294,4.5464296,0.120676525,0.07729836,0.07050768,1.3311762,-10.04607,-1.4796166
6.160051,4.5466576,0.120676525,0.07729836,0.07050768,1.3311762,-10.04607,-1.4796166
6.1600833,4.546896,0.12919864,0.07836362,0.07050768,1.3263878,-10.103531,-1.4317327
6.1601152,4.5471334,0.12919864,0.07836362,0.07050768,1.3263878,-10.103531,-1.4317327
6.1601744,4.54738,0.13559023,0.07836362,0.06837715,1.2593501,-10.160992,-1.460463
6.160233,4.5476265,0.13559023,0.07836362,0.06837715,1.2593501,-10.160992,-1.460463
6.1603017,4.5478783,0.14198181,0.07729836,0.06518136,1.2210429,-10.156203,-1.4221559
6.1603703,4.54813,0.14198181,0.07729836,0.06518136,1.2210429,-10.156203,-1.4221559
6.160456,4.548387,0.14943866,0.07516783,0.061985567,1.1587936,-10.242394,-1.3934253
6.1605415,4.548642,0.14943866,0.07516783,0.061985567,1.1587936,-10.242394,-1.3934253
6.1606183,4.5489063,0.15689552,0.073037304,0.056659244,1.1444284,-10.25676,-1.3120226
6.160695,4.5491695,0.15689552,0.073037304,0.056659244,1.1444284,-10.25676,-1.3120226
6.160776,4.549438,0.16435237,0.06877624,0.04813713,1.1013328,-10.290278,-1.3263878
6.1608577,4.549706,0.16435237,0.06877624,0.04813713,1.1013328,-10.290278,-1.3263878
6.1609273,4.549981,0.17180921,0.06451519,0.039615013,1.1013328,-10.247183,-1.292869
6.160997,4.550257,0.17180921,0.06451519,0.039615013,1.1013328,-10.247183,-1.292869
6.161056,4.5505414,0.1813966,0.057058334,0.02896237,1.091756,-10.299856,-1.2497733
6.161115,4.5508256,0.1813966,0.057058334,0.02896237,1.091756,-10.299856,-1.2497733
6.1611776,4.551114,0.18991871,0.04853622,0.018309724,1.0534488,-10.295067,-1.292869
6.1612406,4.5514026,0.18991871,0.04853622,0.018309724,1.0534488,-10.295067,-1.292869
6.1612816,4.551702,0.19950609,0.038948838,0.00765708,1.067814,-10.251971,-1.1923125
6.161322,4.552002,0.19950609,0.038948838,0.00765708,1.067814,-10.251971,-1.1923125
6.1613593,4.5523057,0.20696294,0.029361458,-0.004060829,1.0055647,-10.25676,-1.1348516
6.161397,4.5526137,0.20696294,0.029361458,-0.004060829,1.0055647,-10.25676,-1.1348516
6.1614285,4.552929,0.21761559,0.019774077,-0.015778739,1.0151415,-10.184934,-1.1971009
6.1614594,4.5532374,0.21761559,0.019774077,-0.015778739,1.0151415,-10.184934,-1.1971009
6.161477,4.5535574,0.22720297,0.011251962,-0.026431382,1.0247183,-10.151415,-1.1683705
6.1614947,4.5538797,0.22720297,0.011251962,-0.026431382,1.0247183,-10.151415,-1.1683705
6.1614947,4.5542316,0.23679034,0.0027298466,-0.037084028,1.0630256,-10.093954,-1.1540052
6.161495,4.5545516,0.23679034,0.0027298466,-0.037084028,1.0630256,-10.093954,-1.1540052
6.1614747,4.5548887,0.24531247,-0.0025964756,-0.04773667,1.115698,-10.079589,-1.1444284
6.1614547,4.5552278,0.24531247,-0.0025964756,-0.04773667,1.115698,-10.079589,-1.1444284
6.16144,4.555582,0.25170404,-0.008988062,-0.05412826,1.0726024,-9.974244,-1.1875241
6.161426,4.555919,0.25170404,-0.008988062,-0.05412826,1.0726024,-9.974244,-1.1875241
6.161397,4.556271,0.25809565,-0.011118591,-0.06158511,1.1013328,-9.959879,-1.163582
6.161368,4.556623,0.25809565,-0.011118591,-0.06158511,1.1013328,-9.959879,-1.163582
6.1613226,4.556979,0.26129144,-0.012183856,-0.06904196,1.1109096,-9.945514,-1.0486604
6.161278,4.5573363,0.26129144,-0.012183856,-0.06904196,1.1109096,-9.945514,-1.0486604
6.161219,4.5576963,0.26448724,-0.01324912,-0.075433545,1.1540052,-9.873688,-1.1013328
6.161161,4.558056,0.26448724,-0.01324912,-0.075433545,1.1540052,-9.873688,-1.1013328
6.161081,4.5584188,0.26661775,-0.015379649,-0.07969461,1.2354081,-9.873688,-0.9911995
6.1610007,4.55878,0.26661775,-0.015379649,-0.07969461,1.2354081,-9.873688,-0.9911995
6.1609163,4.559143,0.26768303,-0.018575443,-0.08395566,1.2354081,-9.830592,-1.0007763
6.160832,4.5595055,0.26768303,-0.018575443,-0.08395566,1.2354081,-9.830592,-1.0007763
6.1607423,4.559868,0.26768303,-0.019640706,-0.08395566,1.2545617,-9.758766,-0.9816227
6.160653,4.56023,0.26768303,-0.019640706,-0.08395566,1.2545617,-9.758766,-0.9816227
6.160577,4.560592,0.26661775,-0.018575443,-0.0828904,1.1923125,-9.739613,-1.0534488
6.1605005,4.560953,0.26661775,-0.018575443,-0.0828904,1.1923125,-9.739613,-1.0534488
6.160431,4.561314,0.2655525,-0.018575443,-0.08182514,1.163582,-9.68694,-1.0390835
6.1603613,4.561675,0.2655525,-0.018575443,-0.08182514,1.163582,-9.68694,-1.0390835
6.160274,4.562032,0.2623567,-0.017510178,-0.0828904,1.2258313,-9.624691,-1.0582372
6.1601872,4.56239,0.2623567,-0.017510178,-0.0828904,1.2258313,-9.624691,-1.0582372
6.1600986,4.5627437,0.2591609,-0.016444914,-0.08075987,1.2401965,-9.610326,-1.0534488
6.16001,4.5630984,0.2591609,-0.016444914,-0.08075987,1.2401965,-9.610326,-1.0534488
6.1599193,4.5634475,0.25489986,-0.016444914,-0.076498814,1.2737153,-9.595961,-0.9864111
6.159829,4.563798,0.25489986,-0.016444914,-0.076498814,1.2737153,-9.595961,-0.9864111
6.159747,4.5641403,0.24744299,-0.016444914,-0.07010722,1.2593501,-9.572019,-1.0007763
6.1596646,4.564482,0.24744299,-0.016444914,-0.07010722,1.2593501,-9.572019,-1.0007763
6.1595654,4.5648117,0.23785561,-0.018575443,-0.064780906,1.364695,-9.495404,-0.9624691
6.1594663,4.565141,0.23785561,-0.018575443,-0.064780906,1.364695,-9.495404,-0.9624691
6.1593604,4.565459,0.22826824,-0.020705972,-0.06158511,1.412579,-9.433155,-0.94810385
6.159255,4.5657744,0.22826824,-0.020705972,-0.06158511,1.412579,-9.433155,-0.94810385
6.1591535,4.56608,0.21655032,-0.021771235,-0.059454583,1.4173675,-9.41879,-0.90979666
6.1590514,4.5663853,0.21655032,-0.021771235,-0.059454583,1.4173675,-9.41879,-0.90979666
6.158941,4.566673,0.20270188,-0.021771235,-0.05732405,1.4556746,-9.32781,-0.92895025
6.1588287,4.5669622,0.20270188,-0.021771235,-0.05732405,1.4556746,-9.32781,-0.92895025
6.1587105,4.567232,0.18778819,-0.019640706,-0.05732405,1.4556746,-9.246407,-0.9624691
6.1585913,4.5675044,0.18778819,-0.019640706,-0.05732405,1.4556746,-9.246407,-0.9624691
6.1584716,4.567757,0.16967869,-0.018575443,-0.059454583,1.4700398,-9.222465,-0.92416185
6.1583514,4.5680103,0.16967869,-0.018575443,-0.059454583,1.4700398,-9.222465,-0.92416185
6.1582317,4.5682445,0.15050393,-0.016444914,-0.059454583,1.4317327,-9.23683,-0.9768343
6.1581116,4.5684795,0.15050393,-0.016444914,-0.059454583,1.4317327,-9.23683,-0.9768343
6.158009,4.5687,0.13026391,-0.014314385,-0.058389317,1.3838485,-9.275137,-0.92416185
6.1579065,4.5689197,0.13026391,-0.014314385,-0.058389317,1.3838485,-9.275137,-0.92416185
6.1577997,4.5691175,0.10895862,-0.012183856,-0.059454583,1.3934253,-9.26556,-0.93373865
6.1576924,4.569316,0.10895862,-0.012183856,-0.059454583,1.3934253,-9.26556,-0.93373865
6.1575727,4.5694895,0.087653324,-0.012183856,-0.06158511,1.412579,-9.241618,-0.9816227
6.1574526,4.5696626,0.087653324,-0.012183856,-0.06158511,1.412579,-9.241618,-0.9816227
6.1573358,4.569815,0.06528277,-0.011118591,-0.062650375,1.4173675,-9.279925,-0.9576807
6.1572185,4.5699677,0.06528277,-0.011118591,-0.062650375,1.4173675,-9.279925,-0.9576807
6.1570964,4.5700974,0.04291222,-0.008988062,-0.064780906,1.4269443,-9.26556,-0.9576807
6.1569743,4.570227,0.04291222,-0.008988062,-0.064780906,1.4269443,-9.26556,-0.9576807
6.1568437,4.570332,0.020541664,-0.0068575335,-0.06691143,1.4508862,-9.294291,-0.9816227
6.156713,4.5704374,0.020541664,-0.0068575335,-0.06691143,1.4508862,-9.294291,-0.9816227
6.156559,4.5705123,0.00030163955,-0.0047270046,-0.06904196,1.5035586,-9.251195,-1.0390835
6.156405,4.5705876,0.00030163955,-0.0047270046,-0.06904196,1.5035586,-9.251195,-1.0390835
6.156256,4.570646,-0.019938385,-0.0025964756,-0.06904196,1.5131354,-9.23683,-0.9959879
6.1561074,4.570704,-0.019938385,-0.0025964756,-0.06904196,1.5131354,-9.23683,-0.9959879
6.1559563,4.5707426,-0.03804788,0.0005993177,-0.0679767,1.5275006,-9.222465,-1.0007763
6.1558046,4.570781,-0.03804788,0.0005993177,-0.0679767,1.5275006,-9.222465,-1.0007763
6.15563,4.570788,-0.05509211,0.00592564,-0.0679767,1.5753847,-9.165004,-1.0773908
6.155455,4.570795,-0.05509211,0.00592564,-0.0679767,1.5753847,-9.165004,-1.0773908
6.155254,4.570758,-0.07213634,0.008056169,-0.07223775,1.6184803,-9.107543,-1.1779473
6.155052,4.5707216,-0.07213634,0.008056169,-0.07223775,1.6184803,-9.107543,-1.1779473
6.1548467,4.5706744,-0.08811531,0.012317227,-0.078629345,1.6041151,-9.093178,-1.1587936
6.1546416,4.570628,-0.08811531,0.012317227,-0.078629345,1.6041151,-9.093178,-1.1587936
6.154425,4.5705543,-0.10515954,0.017643549,-0.0828904,1.5370775,-9.088389,-1.2162545
6.1542087,4.570481,-0.10515954,0.017643549,-0.0828904,1.5370775,-9.088389,-1.2162545
6.153988,4.5703883,-0.120073244,0.021904606,-0.08502093,1.5466543,-9.102755,-1.2306197
6.1537666,4.5702963,-0.120073244,0.021904606,-0.08502093,1.5466543,-9.102755,-1.2306197
6.1535363,4.5701666,-0.1360522,0.024035135,-0.08821672,1.4987702,-9.107543,-1.292869
6.153304,4.570036,-0.1360522,0.024035135,-0.08821672,1.4987702,-9.107543,-1.292869
6.153078,4.5698996,-0.15096591,0.0251004,-0.08715145,1.4460979,-9.121908,-1.2880806
6.152849,4.5697618,-0.15096591,0.0251004,-0.08715145,1.4460979,-9.121908,-1.2880806
6.1526217,4.5696044,-0.16587962,0.022969872,-0.0828904,1.4556746,-9.184157,-1.3024458
6.1523995,4.569452,-0.16587962,0.022969872,-0.0828904,1.4556746,-9.184157,-1.3024458
6.1523995,4.569452,-0.16587962,0.022969872,-0.0828904,1.4556746,-9.184157,-1.3024458
6.1519876,4.5691266,-0.18079332,0.019774077,-0.078629345,1.4460979,-9.212888,-1.316811
6.1519876,4.5691266,-0.18079332,0.019774077,-0.078629345,1.4460979,-9.212888,-1.316811
6.1519876,4.5691266,-0.19251123,0.016578285,-0.06904196,1.4508862,-9.270349,-1.292869
6.1513367,4.5686007,-0.20103334,0.011251962,-0.058389317,1.4748282,-9.284714,-1.292869
6.151151,4.568435,-0.20103334,0.011251962,-0.058389317,1.4748282,-9.284714,-1.292869
6.150968,4.568192,-0.2084902,0.003795111,-0.045606144,1.4748282,-9.337387,-1.4030021
6.1507974,4.567967,-0.2084902,0.003795111,-0.045606144,1.4748282,-9.337387,-1.4030021
6.150625,4.567759,-0.21275125,-0.0025964756,-0.033888236,1.4652514,-9.337387,-1.3503298
6.1504517,4.56755,-0.21275125,-0.0025964756,-0.033888236,1.4652514,-9.337387,-1.3503298
6.1502943,4.5673203,-0.21381652,-0.008988062,-0.02110506,1.4317327,-9.351752,-1.3838485
6.150136,4.56709,-0.21381652,-0.008988062,-0.02110506,1.4317327,-9.351752,-1.3838485
6.150001,4.5668364,-0.21381652,-0.016444914,-0.006191358,1.4891934,-9.356541,-1.4317327
6.149866,4.5665855,-0.21381652,-0.016444914,-0.006191358,1.4891934,-9.356541,-1.4317327
6.1497416,4.566347,-0.21062072,-0.023901764,0.008722344,1.532289,-9.32781,-1.4173675
6.1496167,4.56611,-0.21062072,-0.023901764,0.008722344,1.532289,-9.32781,-1.4173675
6.1495066,4.5658836,-0.20635967,-0.03242388,0.023636047,1.6184803,-9.303867,-1.412579
6.149392,4.56565,-0.20635967,-0.03242388,0.023636047,1.6184803,-9.303867,-1.412579
6.1492968,4.5654483,-0.20209861,-0.040945996,0.03641922,1.6998832,-9.255983,-1.3694834
6.1491995,4.5652423,-0.20209861,-0.040945996,0.03641922,1.6998832,-9.255983,-1.3694834
6.1491137,4.565038,-0.19464175,-0.04946811,0.047071867,1.7764976,-9.255983,-1.388637
6.1490254,4.564829,-0.19464175,-0.04946811,0.047071867,1.7764976,-9.255983,-1.388637
6.148965,4.5646024,-0.18611965,-0.057990227,0.05772451,1.7717092,-9.241618,-1.541866
6.1488996,4.5643587,-0.18611965,-0.057990227,0.05772451,1.7717092,-9.241618,-1.541866
6.148848,4.564133,-0.17759752,-0.064381815,0.06837715,1.8100165,-9.222465,-1.5562311
6.1487966,4.5639067,-0.17759752,-0.064381815,0.06837715,1.8100165,-9.222465,-1.5562311
6.1487527,4.5636916,-0.16801015,-0.07183866,0.07689927,1.8004397,-9.275137,-1.5466543
6.148709,4.5634766,-0.16801015,-0.07183866,0.07689927,1.8004397,-9.275137,-1.5466543
6.1486797,4.5632653,-0.15522698,-0.08036078,0.08648665,1.8004397,-9.289502,-1.5849615
6.14865,4.563055,-0.15522698,-0.08036078,0.08648665,1.8004397,-9.289502,-1.5849615
6.1486306,4.5628595,-0.14244379,-0.091013424,0.09607403,1.8004397,-9.337387,-1.5801731
6.1486106,4.562663,-0.14244379,-0.091013424,0.09607403,1.8004397,-9.337387,-1.5801731
6.1485996,4.562479,-0.12859535,-0.10166607,0.102465615,1.8004397,-9.399636,-1.5945383
6.148588,4.562294,-0.12859535,-0.10166607,0.102465615,1.8004397,-9.399636,-1.5945383
6.1485896,4.5621214,-0.11368166,-0.11338398,0.112053,1.8339585,-9.385271,-1.6184803
6.1485906,4.561948,-0.11368166,-0.11338398,0.112053,1.8339585,-9.385271,-1.6184803
6.1486087,4.561784,-0.09770269,-0.12829769,0.12270564,1.8100165,-9.385271,-1.6424223
6.148627,4.5616198,-0.09770269,-0.12829769,0.12270564,1.8100165,-9.385271,-1.6424223
6.1486597,4.561474,-0.077462666,-0.14321138,0.13548881,1.8100165,-9.399636,-1.6472107
6.1486926,4.5613284,-0.077462666,-0.14321138,0.13548881,1.8100165,-9.399636,-1.6472107
6.1487403,4.561201,-0.056157377,-0.15919036,0.14720672,1.8004397,-9.404425,-1.6519991
6.148788,4.5610733,-0.056157377,-0.15919036,0.14720672,1.8004397,-9.404425,-1.6519991
6.148847,4.560975,-0.033786822,-0.17623459,0.16212043,1.8914193,-9.423578,-1.6424223
6.1489058,4.560877,-0.033786822,-0.17623459,0.16212043,1.8914193,-9.423578,-1.6424223
6.148983,4.5607986,-0.0114162695,-0.19327882,0.1780994,1.9393034,-9.380483,-1.661576
6.1490607,4.56072,-0.0114162695,-0.19327882,0.1780994,1.9393034,-9.380483,-1.661576
6.1491566,4.560666,0.013084813,-0.20925778,0.19514363,1.9632454,-9.404425,-1.661576
6.149252,4.560612,0.013084813,-0.20925778,0.19514363,1.9632454,-9.404425,-1.661576
6.1493654,4.5605903,0.03865116,-0.22417149,0.21538365,2.0015526,-9.476251,-1.6328455
6.149479,4.560569,0.03865116,-0.22417149,0.21538365,2.0015526,-9.476251,-1.6328455
6.149609,4.560581,0.06528277,-0.23695466,0.23349315,2.006341,-9.562442,-1.5945383
6.149739,4.5605946,0.06528277,-0.23695466,0.23349315,2.006341,-9.562442,-1.5945383
6.1498933,4.5606422,0.09404491,-0.25186837,0.25799423,1.9153614,-9.653421,-1.5562311
6.1500483,4.560689,0.09404491,-0.25186837,0.25799423,1.9153614,-9.653421,-1.5562311
6.1502404,4.5608134,0.12493758,-0.2657168,0.28782162,1.7764976,-9.753978,-1.3934253
6.150432,4.560937,0.12493758,-0.2657168,0.28782162,1.7764976,-9.753978,-1.3934253
6.1506953,4.561135,0.16115656,-0.28169575,0.32617116,1.6136919,-9.854534,-1.316811
6.150957,4.561331,0.16115656,-0.28169575,0.32617116,1.6136919,-9.854534,-1.316811
6.151347,4.5615997,0.20270188,-0.30087054,0.37410805,1.4173675,-9.974244,-1.2114661
6.1517353,4.561868,0.20270188,-0.30087054,0.37410805,1.4173675,-9.974244,-1.2114661
6.1522593,4.5621834,0.25489986,-0.32430634,0.43376285,1.2210429,-10.0029745,-1.292869
6.152782,4.5624995,0.25489986,-0.32430634,0.43376285,1.2210429,-10.0029745,-1.292869
6.1534424,4.562841,0.31668517,-0.35200322,0.50407034,1.0199299,-10.079589,-1.3503298
6.1541057,4.563184,0.31668517,-0.35200322,0.50407034,1.0199299,-10.079589,-1.3503298
6.1548834,4.5635395,0.3880579,-0.38609168,0.58716094,0.80924016,-10.141838,-1.5035586
6.155661,4.5638943,0.3880579,-0.38609168,0.58716094,0.80924016,-10.141838,-1.5035586
6.1565356,4.5642943,0.46795273,-0.43189806,0.6830347,0.79966336,-10.156203,-1.6184803
6.1574097,4.5646935,0.46795273,-0.43189806,0.6830347,0.79966336,-10.156203,-1.6184803
6.158353,4.5651217,0.55210865,-0.48516127,0.79062647,0.90021986,-10.108319,-1.8483237
6.1592937,4.5655494,0.55210865,-0.48516127,0.79062647,0.90021986,-10.108319,-1.8483237
6.1602926,4.5660377,0.6394603,-0.5448161,0.9099361,1.1587936,-9.945514,-2.006341
6.161289,4.5665264,0.6394603,-0.5448161,0.9099361,1.1587936,-9.945514,-2.006341
6.162366,4.5670943,0.7236162,-0.6076667,1.0335068,1.4748282,-9.864111,-2.1739352
6.163443,4.567664,0.7236162,-0.6076667,1.0335068,1.4748282,-9.864111,-2.1739352
6.164655,4.568306,0.80244577,-0.6673215,1.1592079,1.460463,-9.629479,-2.327164
6.1658683,4.568949,0.80244577,-0.6673215,1.1592079,1.460463,-9.629479,-2.327164
6.1674247,4.569727,0.87168795,-0.725911,1.2838439,0.4213795,-9.006987,-2.8107927
6.1687074,4.5703692,0.87168795,-0.725911,1.2838439,0.4213795,-9.006987,-2.8107927
6.17016,4.571126,0.92814696,-0.7908922,1.4084798,1.757344,-9.002198,-2.8107927
6.1716194,4.5718875,0.92814696,-0.7908922,1.4084798,1.757344,-9.002198,-2.8107927
6.173183,4.572693,0.96862704,-0.8494817,1.5331157,2.1452048,-9.006987,-2.695871
6.174745,4.5734997,0.96862704,-0.8494817,1.5331157,2.1452048,-9.006987,-2.695871
6.176414,4.574343,1.000585,-0.8942228,1.6492296,2.4756045,-8.839393,-2.6719291
6.1780815,4.5751886,1.000585,-0.8942228,1.6492296,2.4756045,-8.839393,-2.6719291
6.1798553,4.5760574,1.025086,-0.9336376,1.7546908,2.719813,-8.796297,-2.8299465
6.1816354,4.576931,1.025086,-0.9336376,1.7546908,2.719813,-8.796297,-2.8299465
6.183501,4.5778246,1.0442609,-0.96772605,1.8526951,2.906561,-8.719683,-2.753332
6.1853676,4.57872,1.0442609,-0.96772605,1.8526951,2.906561,-8.719683,-2.753332
6.1873207,4.579624,1.057044,-0.99542296,1.9443078,2.8443117,-8.714894,-2.72939
6.189277,4.580531,1.057044,-0.99542296,1.9443078,2.8443117,-8.714894,-2.72939
6.1913247,4.581452,1.068762,-1.0209893,2.0327249,2.8778305,-8.6334915,-2.719813
6.193373,4.5823755,1.068762,-1.0209893,2.0327249,2.8778305,-8.6334915,-2.719813
6.1955028,4.5833116,1.0815451,-1.0444251,2.1190112,2.9592333,-8.494628,-2.7102363
6.1976337,4.5842495,1.0815451,-1.0444251,2.1190112,2.9592333,-8.494628,-2.7102363
6.199843,4.585209,1.097524,-1.067861,2.2010367,3.0262709,-8.283937,-2.585738
6.202051,4.5861692,1.097524,-1.067861,2.2010367,3.0262709,-8.283937,-2.585738
6.2043395,4.587162,1.1209599,-1.0902315,2.278801,3.2848446,-8.121132,-2.552219
6.206618,4.588152,1.1209599,-1.0902315,2.278801,3.2848446,-8.121132,-2.552219
6.2089624,4.589176,1.1475915,-1.1062105,2.3533695,3.6343982,-7.9631147,-2.480393
6.211313,4.590205,1.1475915,-1.1062105,2.3533695,3.6343982,-7.9631147,-2.480393
6.2137294,4.5912714,1.1784841,-1.112602,2.4268727,4.084508,-7.714118,-2.4660277
6.2161474,4.59234,1.1784841,-1.112602,2.4268727,4.084508,-7.714118,-2.4660277
6.2186255,4.5934424,1.2093768,-1.1094062,2.4982455,4.453215,-7.627927,-2.4947581
6.2211103,4.5945497,1.2093768,-1.1094062,2.4982455,4.453215,-7.627927,-2.4947581
6.223648,4.595683,1.2338779,-1.0934273,2.5600307,4.8027687,-7.4603324,-2.6048915
6.2261877,4.596819,1.2338779,-1.0934273,2.5600307,4.8027687,-7.4603324,-2.6048915
6.2287765,4.5979767,1.2519873,-1.0710567,2.613294,5.056554,-7.225701,-2.6910827
6.2313647,4.5991364,1.2519873,-1.0710567,2.613294,5.056554,-7.225701,-2.6910827
6.2339926,4.600305,1.2573137,-1.0422946,2.658035,5.161899,-7.0341644,-2.681506
6.2366223,4.601477,1.2573137,-1.0422946,2.658035,5.161899,-7.0341644,-2.681506
6.239285,4.602637,1.2466611,-1.0092714,2.6995804,4.9895163,-6.7612257,-2.7102363
6.241949,4.6037993,1.2466611,-1.0092714,2.6995804,4.9895163,-6.7612257,-2.7102363
6.244647,4.6049376,1.2210947,-0.97731346,2.7368646,4.6591167,-6.517017,-2.6048915
6.247344,4.606078,1.2210947,-0.97731346,2.7368646,4.6591167,-6.517017,-2.6048915
6.2500806,4.607175,1.1795493,-0.9485513,2.7773447,4.1706996,-6.3206925,-2.5905263
6.2528167,4.6082726,1.1795493,-0.9485513,2.7773447,4.1706996,-6.3206925,-2.5905263
6.2555943,4.609316,1.1262861,-0.92511547,2.81889,3.4811692,-6.3111157,-2.4133554
6.258371,4.610361,1.1262861,-0.92511547,2.81889,3.4811692,-6.3111157,-2.4133554
6.261213,4.6113505,1.0623703,-0.9123323,2.8668268,3.9504328,-6.1243677,-2.657564
6.2640142,4.612328,1.0623703,-0.9123323,2.8668268,3.9504328,-6.1243677,-2.657564
6.266886,4.613245,0.98886704,-0.8984839,2.9222207,4.405331,-5.9807158,-2.705448
6.2697625,4.6141653,0.98886704,-0.8984839,2.9222207,4.405331,-5.9807158,-2.705448
6.2729244,4.615072,0.90151536,-0.8771786,2.9786797,4.3766007,-5.626374,-2.4708161
6.2756853,4.615865,0.90151536,-0.8771786,2.9786797,4.3766007,-5.626374,-2.4708161
6.2786164,4.6165943,0.80244577,-0.85161227,3.0351386,4.5537715,-5.0757074,-2.5809495
6.281568,4.617331,0.80244577,-0.85161227,3.0351386,4.5537715,-5.0757074,-2.5809495
0.0014060645,4.617964,0.6937888,-0.8196543,3.0958588,4.759673,-4.7261543,-2.6671407
0.0044566174,4.618604,0.6937888,-0.8196543,3.0958588,4.759673,-4.7261543,-2.6671407
0.007539531,4.6191263,0.5734139,-0.77917427,3.161905,4.8458643,-4.4819455,-2.4277205
0.010628385,4.619651,0.5734139,-0.77917427,3.161905,4.8458643,-4.4819455,-2.4277205
0.013786168,4.620053,0.44451693,-0.72910684,3.2311473,4.6255975,-4.3526587,-2.1308396
0.016937468,4.6204557,0.44451693,-0.72910684,3.2311473,4.6255975,-4.3526587,-2.1308396
0.020161172,4.6207285,0.30922833,-0.66838676,3.3078463,4.1802764,-4.256891,-1.7956513
0.023384789,4.6210027,0.30922833,-0.66838676,3.3078463,4.1802764,-4.256891,-1.7956513
0.026688188,4.621146,0.175005,-0.6066014,3.395198,3.643975,-4.237737,-1.4939818
0.029991545,4.62129,0.175005,-0.6066014,3.395198,3.643975,-4.237737,-1.4939818
0.033386655,4.6213017,0.040781688,-0.5448161,3.4942677,3.107674,-4.2999864,-1.2785037
0.03679872,4.621314,0.040781688,-0.5448161,3.4942677,3.107674,-4.2999864,-1.2785037
0.040281788,4.6212006,-0.092376366,-0.4872918,3.6071856,2.6910827,-4.3766007,-0.9864111
0.043782376,4.621087,-0.092376366,-0.4872918,3.6071856,2.6910827,-4.3766007,-0.9864111
0.047402214,4.620847,-0.22020811,-0.43083277,3.7328868,2.4420857,-4.4963107,-0.866701
0.05102209,4.6206083,-0.22020811,-0.43083277,3.7328868,2.4420857,-4.4963107,-0.866701
0.054774646,4.620244,-0.3395177,-0.37543905,3.8713713,2.2457612,-4.5154643,-0.8714894
0.058527168,4.6198807,-0.3395177,-0.37543905,3.8713713,2.2457612,-4.5154643,-0.8714894
0.062415544,4.619401,-0.45243576,-0.31898,4.0130515,2.1643584,-4.3718123,-0.8379706
0.06630391,4.6189203,-0.45243576,-0.31898,4.0130515,2.1643584,-4.3718123,-0.8379706
0.07032856,4.618326,-0.5589622,-0.262521,4.1547318,2.231396,-4.1132383,-0.8714894
0.08286058,4.6162868,-0.6612276,-0.2028662,4.2953467,2.4516625,-3.6583402,-0.93852705
0.08286058,4.6162868,-0.6612276,-0.2028662,4.2953467,2.4516625,-3.6583402,-0.93852705
0.08286058,4.6162868,-0.6612276,-0.2028662,4.2953467,2.4516625,-3.6583402,-0.93852705
0.087210156,4.615465,-0.7560361,-0.13468927,4.4338307,2.8203697,-3.1028855,-0.9911995
0.09144792,4.6146636,-0.7560361,-0.13468927,4.4338307,2.8203697,-3.1028855,-0.9911995
0.09727819,4.613457,-0.8487141,-0.05692496,4.5659237,3.1603463,-2.6910827,-1.0247183
0.10027052,4.6128364,-0.8487141,-0.05692496,4.5659237,3.1603463,-2.6910827,-1.0247183
0.10539809,4.6116734,-0.9435227,0.032557253,4.69056,3.289633,-2.2266076,-1.1683705
0.10967217,4.6107016,-0.9435227,0.032557253,4.69056,3.289633,-2.2266076,-1.1683705
0.11379439,4.609682,-1.041527,0.12949632,4.8098693,3.265691,-1.9440918,-1.2449849
0.11841799,4.6085362,-1.041527,0.12949632,4.8098693,3.265691,-1.9440918,-1.2449849
0.12317202,4.607253,-1.1437924,0.23069644,4.922787,3.0454245,-1.6807296,-1.4317327
0.127911,4.60597,-1.1437924,0.23069644,4.922787,3.0454245,-1.6807296,-1.4317327
0.1327705,4.6045437,-1.2513841,0.33402708,5.031444,2.6719291,-1.5945383,-1.4987702
0.13764815,4.6031065,-1.2513841,0.33402708,5.031444,2.6719291,-1.5945383,-1.4987702
0.14255834,4.6015353,-1.3664327,0.43948826,5.1411667,2.2505496,-1.5514427,-1.7381904
0.14750148,4.5999475,-1.3664327,0.43948826,5.1411667,2.2505496,-1.5514427,-1.7381904
0.15254903,4.598203,-1.4900033,0.54708,5.256215,2.1691468,-1.5849615,-1.9201498
0.15759441,4.5964518,-1.4900033,0.54708,5.256215,2.1691468,-1.5849615,-1.9201498
0.16275258,4.5945244,-1.6220962,0.66106325,5.373394,1.8914193,-1.6041151,-2.255338
0.16790798,4.5925894,-1.6220962,0.66106325,5.373394,1.8914193,-1.6041151,-2.255338
0.17320539,4.590461,-1.7595153,0.77611184,5.493769,0.9816227,-1.5179238,-2.6527755
0.17849936,4.588322,-1.7595153,0.77611184,5.493769,0.9816227,-1.5179238,-2.6527755
0.1839318,4.5859985,-1.9011954,0.8879646,5.6162744,0.35434186,-1.3694834,-3.193865
0.18936008,4.583663,-1.9011954,0.8879646,5.6162744,0.35434186,-1.3694834,-3.193865
0.19491397,4.5811453,-2.0439408,0.99236053,5.746237,0.10055647,-1.0247183,-3.5194764
0.2004631,4.578614,-2.0439408,0.99236053,5.746237,0.10055647,-1.0247183,-3.5194764
0.20613447,4.575897,-2.1877515,1.094626,5.8815255,0.05267244,-0.47405192,-3.9935284
0.21180043,4.5731664,-2.1877515,1.094626,5.8815255,0.05267244,-0.47405192,-3.9935284
0.21757641,4.570246,-2.334758,1.2011523,6.0189443,0.36391866,0.05267244,-4.4196963
0.22334625,4.5673094,-2.334758,1.2011523,6.0189443,0.36391866,0.05267244,-4.4196963
0.2292354,4.56417,-2.4892213,1.3193967,6.158494,0.2633622,0.2777274,-4.6399627
0.23511754,4.5610113,-2.4892213,1.3193967,6.158494,0.2633622,0.2777274,-4.6399627
0.2411163,4.5576363,-2.6511416,1.4525548,6.300174,0.17238252,0.5315128,-4.6160207
0.24711883,4.554233,-2.6511416,1.4525548,6.300174,0.17238252,0.5315128,-4.6160207
0.25319645,4.55062,-2.8183882,1.582517,6.4290714,-0.20111294,-0.009576807,-4.2042184
0.25928867,4.54697,-2.8183882,1.582517,6.4290714,-0.20111294,-0.009576807,-4.2042184
0.26546663,4.5430956,-2.983504,1.7199361,6.549446,-0.50757074,-0.61770403,-3.763685
0.2716333,4.5391955,-2.983504,1.7199361,6.549446,-0.50757074,-0.61770403,-3.763685
0.27791885,4.5350733,-3.1422286,1.8797258,6.6676903,-1.733402,-1.2401965,-3.3806129
0.28419134,4.530922,-3.1422286,1.8797258,6.6676903,-1.733402,-1.2401965,-3.3806129
0.29058775,4.526564,-3.2924309,2.0565598,6.785935,-3.8115692,-1.685518,-3.2944214
0.29696956,4.5221753,-3.2924309,2.0565598,6.785935,-3.8115692,-1.685518,-3.2944214
0.30343652,4.5175724,-3.4394374,2.2312632,6.903114,-5.985504,-2.0685902,-3.4955344
0.30988708,4.5129356,-3.4394374,2.2312632,6.903114,-5.985504,-2.0685902,-3.4955344
0.31640378,4.508067,-3.5917702,2.392118,7.0149665,-7.7572136,-2.7341783,-3.6248214
0.32289565,4.5031667,-3.5917702,2.392118,7.0149665,-7.7572136,-2.7341783,-3.6248214
0.3294466,4.4980083,-3.7558208,2.536994,7.109775,-9.32781,-3.7205894,-3.7828386
0.33596376,4.49282,-3.7558208,2.536994,7.109775,-9.32781,-3.7205894,-3.7828386
0.34251717,4.4873657,-3.9251978,2.6648257,7.1822133,-10.247183,-4.9081135,-3.8738184
0.3490411,4.4818735,-3.9251978,2.6648257,7.1822133,-10.247183,-4.9081135,-3.8738184
0.3555563,4.4761276,-4.0924444,2.7756133,7.2226934,-10.788273,-6.0142345,-4.0797195
0.36204624,4.470336,-4.0924444,2.7756133,7.2226934,-10.788273,-6.0142345,-4.0797195
0.36849213,4.4643,-4.2511687,2.8736176,7.2280197,-10.812215,-6.9862804,-4.2999864
0.37491044,4.4582157,-4.2511687,2.8736176,7.2280197,-10.812215,-6.9862804,-4.2999864
0.38123897,4.4519053,-4.39711,2.9652302,7.1960616,-10.649409,-7.8625584,-4.6686935
0.3875441,4.4455385,-4.39711,2.9652302,7.1960616,-10.649409,-7.8625584,-4.6686935
0.3937278,4.4389577,-4.5281377,3.0536473,7.127885,-10.668563,-8.389283,-4.9895163
0.39987963,4.432325,-4.5281377,3.0536473,7.127885,-10.668563,-8.389283,-4.9895163
0.40586868,4.425494,-4.647447,3.1367378,7.0192275,-10.860099,-8.916007,-5.434838
0.41182378,4.4186115,-4.647447,3.1367378,7.0192275,-10.860099,-8.916007,-5.434838
0.4175909,4.411554,-4.751843,3.20598,6.874352,-11.113884,-9.461885,-5.616797
0.4233164,4.4044514,-4.751843,3.20598,6.874352,-11.113884,-9.461885,-5.616797
0.42881823,4.397208,-4.844521,3.253917,6.693257,-11.200075,-9.983821,-5.731719
0.43428278,4.389914,-4.844521,3.253917,6.693257,-11.200075,-9.983821,-5.731719
0.43949905,4.382511,-4.923351,3.2837443,6.480204,-11.386824,-10.457873,-5.755661
0.44467205,4.375066,-4.923351,3.2837443,6.480204,-11.386824,-10.457873,-5.755661
0.44959265,4.3675313,-4.980875,3.2997234,6.2479763,-11.702858,-10.869676,-5.8466406
0.4544646,4.3599644,-4.980875,3.2997234,6.2479763,-11.702858,-10.869676,-5.8466406
0.45907235,4.352347,-5.0149636,3.3007886,5.997639,-11.741165,-11.161768,-5.78918
0.46365893,4.344654,-5.0149636,3.3007886,5.997639,-11.741165,-11.161768,-5.78918
0.46794322,4.3370013,-5.024551,3.2922664,5.7366495,-12.061988,-11.305421,-5.7843914
0.47219217,4.329299,-5.024551,3.2922664,5.7366495,-12.061988,-11.305421,-5.7843914
0.476127,4.3217,-5.010702,3.269896,5.465007,-12.129025,-11.525687,-5.659893
0.48005036,4.31401,-5.010702,3.269896,5.465007,-12.129025,-11.525687,-5.659893
0.4839206,4.305923,-4.973418,3.2326117,5.186973,-12.253524,-11.669339,-5.4539914
0.48730642,4.2987394,-4.973418,3.2326117,5.186973,-12.253524,-11.669339,-5.4539914
0.49067885,4.291108,-4.9137635,3.181479,4.904678,-12.588713,-11.774684,-5.386954
0.49395677,4.283574,-4.9137635,3.181479,4.904678,-12.588713,-11.774684,-5.386954
0.49697125,4.2762046,-4.828542,3.117563,4.63197,-12.665327,-11.827356,-5.080496
0.49994636,4.268815,-4.828542,3.117563,4.63197,-12.665327,-11.827356,-5.080496
0.50268924,4.26158,-4.7198853,3.0472558,4.3709803,-13.043611,-11.803414,-4.783615
0.5054135,4.2542763,-4.7198853,3.0472558,4.3709803,-13.043611,-11.803414,-4.783615
0.5078947,4.2472243,-4.5877924,2.971622,4.119578,-13.388376,-11.736377,-4.673482
0.5103404,4.240158,-4.5877924,2.971622,4.119578,-13.388376,-11.736377,-4.673482
0.5125682,4.2333508,-4.43759,2.8842702,3.8756323,-13.402741,-11.741165,-4.477157
0.5147827,4.2264695,-4.43759,2.8842702,3.8756323,-13.402741,-11.741165,-4.477157
0.5168008,4.219827,-4.2724743,2.7937226,3.6348825,-13.393165,-11.736377,-4.3766007
0.518776,4.2132144,-4.2724743,2.7937226,3.6348825,-13.393165,-11.736377,-4.3766007
0.5205442,4.2068944,-4.0977707,2.7127626,3.3962634,-13.752295,-12.061988,-4.357447
0.5223084,4.2004776,-4.0977707,2.7127626,3.3962634,-13.752295,-12.061988,-4.357447
0.5238524,4.194436,-3.9166758,2.633933,3.1597745,-14.077906,-12.579136,-4.5777135
0.525389,4.1883163,-3.9166758,2.633933,3.1597745,-14.077906,-12.579136,-4.5777135
0.526739,4.1825047,-3.7302544,2.5519078,2.931808,-14.240712,-12.971785,-4.759673
0.5280691,4.176672,-3.7302544,2.5519078,2.931808,-14.240712,-12.971785,-4.759673
0.5292275,4.1711445,-3.5417027,2.4666865,2.710233,-14.523228,-13.31655,-4.975151
0.5303687,4.165593,-3.5417027,2.4666865,2.710233,-14.523228,-13.31655,-4.975151
0.5313507,4.1603374,-3.3510203,2.3772044,2.4918537,-14.820108,-13.704411,-5.233725
0.53231215,4.1550856,-3.3510203,2.3772044,2.4918537,-14.820108,-13.704411,-5.233725
0.5331296,4.1501403,-3.1582074,2.2802653,2.283062,-14.681245,-13.88637,-5.4539914
0.53393346,4.145171,-3.1582074,2.2802653,2.283062,-14.681245,-13.88637,-5.4539914
0.5346048,4.1405206,-2.9621987,2.1769347,2.081727,-14.5328045,-13.910312,-5.439626
0.535262,4.1358624,-2.9621987,2.1769347,2.081727,-14.5328045,-13.910312,-5.439626
0.53579247,4.1315327,-2.761929,2.0714734,1.8814572,-14.030022,-13.599066,-5.3342814
0.5363116,4.1271887,-2.761929,2.0714734,1.8814572,-14.030022,-13.599066,-5.3342814
0.53670675,4.1231713,-2.5542026,1.9638817,1.6758612,-13.584701,-13.278243,-5.2768207
0.53709024,4.119157,-2.5542026,1.9638817,1.6758612,-13.584701,-13.278243,-5.2768207
0.53734833,4.115491,-2.339019,1.8509637,1.4596125,-13.034034,-12.751518,-5.21936
0.537598,4.1118097,-2.339019,1.8509637,1.4596125,-13.034034,-12.751518,-5.21936
0.5377218,4.108485,-2.117444,1.7348498,1.2380376,-12.354081,-12.143391,-5.0374002
0.5378418,4.1050453,-2.117444,1.7348498,1.2380376,-12.354081,-12.143391,-5.0374002
0.5378306,4.102182,-1.891608,1.6166055,1.0090057,-11.592725,-11.540052,-4.9224787
0.5378131,4.0992336,-1.891608,1.6166055,1.0090057,-11.592725,-11.540052,-4.9224787
0.5376638,4.0966396,-1.6668372,1.5047528,0.77677804,-10.840945,-11.008539,-4.7884035
0.53751034,4.0940604,-1.6668372,1.5047528,0.77677804,-10.840945,-11.008539,-4.7884035
0.5372243,4.0918097,-1.4441969,1.4024874,0.54455036,-10.275913,-10.352529,-4.7261543
0.5369358,4.089569,-1.4441969,1.4024874,0.54455036,-10.275913,-10.352529,-4.7261543
0.5365118,4.087658,-1.2343398,1.3098093,0.3101922,-9.811439,-9.821015,-4.793192
0.5360869,4.0857563,-1.2343398,1.3098093,0.3101922,-9.811439,-9.821015,-4.793192
0.5355271,4.0841646,-1.0351354,1.2213924,0.08222559,-9.682152,-9.423578,-4.630386
0.5349666,4.082577,-1.0351354,1.2213924,0.08222559,-9.682152,-9.423578,-4.630386
0.5342831,4.0812755,-0.84764886,1.139367,-0.12976204,-9.662998,-8.992621,-4.644751
0.5336065,4.0799904,-0.84764886,1.139367,-0.12976204,-9.662998,-8.992621,-4.644751
0.53281736,4.078973,-0.67827183,1.0594722,-0.32470542,-9.715671,-8.7053175,-4.4915223
0.5320275,4.077956,-0.67827183,1.0594722,-0.32470542,-9.715671,-8.7053175,-4.4915223
0.5311483,4.0771823,-0.52487373,0.9827731,-0.49514773,-9.801862,-8.42759,-4.501099
0.53027207,4.076413,-0.52487373,0.9827731,-0.49514773,-9.801862,-8.42759,-4.501099
0.5293268,4.075859,-0.38745463,0.90713936,-0.6346974,-9.859323,-8.173804,-4.4340615
0.5283822,4.075307,-0.38745463,0.90713936,-0.6346974,-9.859323,-8.173804,-4.4340615
0.52738845,4.074947,-0.26707974,0.83257085,-0.7476154,-9.811439,-7.97748,-4.3478703
0.526402,4.0745897,-0.26707974,0.83257085,-0.7476154,-9.811439,-7.97748,-4.3478703
0.5253835,4.074401,-0.16161856,0.75800234,-0.8339018,-9.701305,-7.843405,-4.280833
0.52437115,4.074213,-0.16161856,0.75800234,-0.8339018,-9.701305,-7.843405,-4.280833
0.5233479,4.074171,-0.06787529,0.6844991,-0.89568716,-9.581595,-7.5800424,-4.1802764
0.52232766,4.07413,-0.06787529,0.6844991,-0.89568716,-9.581595,-7.5800424,-4.1802764
0.5213216,4.0742154,0.015215342,0.61206114,-0.9340367,-9.184157,-7.2352777,-4.10845
0.52031755,4.074301,0.015215342,0.61206114,-0.9340367,-9.184157,-7.2352777,-4.10845
0.51933664,4.0744877,0.087653324,0.54814523,-0.9521462,-8.796297,-6.8426285,-4.1276035
0.5183596,4.074674,0.087653324,0.54814523,-0.9521462,-8.796297,-6.8426285,-4.1276035
0.51740956,4.074934,0.1451776,0.49381676,-0.955342,-8.504205,-6.4404025,-4.295198
0.51647466,4.0751886,0.1451776,0.49381676,-0.955342,-8.504205,-6.4404025,-4.295198
0.5155678,4.0755005,0.18885344,0.44587985,-0.94788516,-7.9966335,-6.1195793,-4.3478703
0.5146625,4.0758123,0.18885344,0.44587985,-0.94788516,-7.9966335,-6.1195793,-4.3478703
0.5137969,4.076147,0.2144198,0.4053998,-0.9340367,-7.3645644,-5.837064,-4.525041
0.5129348,4.076481,0.2144198,0.4053998,-0.9340367,-7.3645644,-5.837064,-4.525041
0.5121008,4.076812,0.22507244,0.37770292,-0.91805774,-6.8809357,-5.5162406,-4.6830587
0.51126754,4.0771427,0.22507244,0.37770292,-0.91805774,-6.8809357,-5.5162406,-4.6830587
0.5104566,4.0774584,0.22187665,0.35852817,-0.90527457,-6.540959,-5.2528787,-4.721366
0.50964546,4.077774,0.22187665,0.35852817,-0.90527457,-6.540959,-5.2528787,-4.721366
0.50884986,4.0780582,0.20376715,0.34787554,-0.89142615,-6.363788,-5.12838,-4.8362875
0.5080558,4.0783405,0.20376715,0.34787554,-0.89142615,-6.363788,-5.12838,-4.8362875
0.5080558,4.0783405,0.20376715,0.34787554,-0.89142615,-6.363788,-5.12838,-4.8362875
0.5063864,4.0788507,0.17393975,0.34467974,-0.878643,-6.172252,-5.046977,-4.8937483
0.5056742,4.0790563,0.13878602,0.34361446,-0.8679903,-6.0046577,-5.094861,-4.8362875
0.5048973,4.079258,0.13878602,0.34361446,-0.8679903,-6.0046577,-5.094861,-4.8362875
0.5041104,4.079412,0.09830597,0.34361446,-0.8562724,-5.865794,-5.1475334,-4.9081135
0.50300866,4.0796266,0.09830597,0.34361446,-0.8562724,-5.865794,-5.1475334,-4.9081135
0.5025473,4.079689,0.0524996,0.34681025,-0.8381629,-5.779603,-5.2145715,-4.817134
0.50179374,4.079791,0.0524996,0.34681025,-0.8381629,-5.779603,-5.2145715,-4.817134
0.5011176,4.0798316,0.008823755,0.35213658,-0.81898814,-5.6359506,-5.305551,-4.8602295
0.5011176,4.0798316,0.008823755,0.35213658,-0.81898814,-5.6359506,-5.305551,-4.8602295
0.49963486,4.0798907,-0.035917353,0.35639766,-0.7998134,-5.5018754,-5.3582234,-4.88896
0.49889797,4.079878,-0.035917353,0.35639766,-0.7998134,-5.5018754,-5.3582234,-4.88896
0.4981833,4.079812,-0.08065846,0.3606587,-0.7774428,-5.391742,-5.5162406,-4.879383
0.4974629,4.0797462,-0.08065846,0.3606587,-0.7774428,-5.391742,-5.5162406,-4.879383
0.4967689,4.0796437,-0.124334306,0.36491975,-0.754007,-5.257667,-5.683835,-4.7309427
0.49607447,4.079541,-0.124334306,0.36491975,-0.754007,-5.257667,-5.683835,-4.7309427
0.49540293,4.0794144,-0.16801015,0.36811554,-0.73163646,-5.2624555,-5.865794,-4.5920787
0.49472815,4.0792866,-0.16801015,0.36811554,-0.73163646,-5.2624555,-5.865794,-4.5920787
0.4940761,4.0791326,-0.2084902,0.36918083,-0.7060701,-5.2049947,-6.0525417,-4.5298295
0.49342206,4.078978,-0.2084902,0.36918083,-0.7060701,-5.2049947,-6.0525417,-4.5298295
0.49277985,4.078804,-0.24577445,0.37024608,-0.6826343,-5.2385135,-6.14831,-4.3861775
0.49213773,4.078629,-0.24577445,0.37024608,-0.6826343,-5.2385135,-6.14831,-4.3861775
0.49150872,4.0784187,-0.28092816,0.37131134,-0.661329,-5.2768207,-6.220136,-4.3718123
0.49087918,4.078209,-0.28092816,0.37131134,-0.661329,-5.2768207,-6.220136,-4.3718123
0.4902589,4.07798,-0.31075558,0.36811554,-0.6400237,-5.2768207,-6.3302693,-4.271256
0.4896362,4.07775,-0.31075558,0.36811554,-0.6400237,-5.2768207,-6.3302693,-4.271256
0.48902223,4.0774937,-0.33632192,0.36172396,-0.61871845,-5.2480903,-6.4020953,-4.261679
0.48843825,4.07725,-0.33632192,0.36172396,-0.61871845,-5.2480903,-6.4020953,-4.261679
0.4878597,4.0769835,-0.35869247,0.35107133,-0.5974131,-5.2002063,-6.4643445,-4.2425256
0.48727936,4.0767164,-0.35869247,0.35107133,-0.5974131,-5.2002063,-6.4643445,-4.2425256
0.48670793,4.07644,-0.3789325,0.33722287,-0.5793036,-5.0900726,-6.531382,-4.175488
0.48613983,4.076165,-0.3789325,0.33722287,-0.5793036,-5.0900726,-6.531382,-4.175488
0.4855788,4.0758834,-0.39597675,0.32337445,-0.5675857,-5.023035,-6.6510925,-4.19943
0.48502126,4.0756035,-0.39597675,0.32337445,-0.5675857,-5.023035,-6.6510925,-4.19943
0.48447064,4.0753174,-0.4119557,0.3073955,-0.5569331,-4.9559975,-6.694188,-4.1276035
0.48391908,4.0750313,-0.4119557,0.3073955,-0.5569331,-4.9559975,-6.694188,-4.1276035
0.48337772,4.074744,-0.4215431,0.29354703,-0.54841095,-4.9224787,-6.7947445,-4.1802764
0.48283717,4.074457,-0.4215431,0.29354703,-0.54841095,-4.9224787,-6.7947445,-4.1802764
0.48230666,4.0741687,-0.42793468,0.27756807,-0.5430846,-4.975151,-6.8522053,-4.1276035
0.481779,4.073882,-0.42793468,0.27756807,-0.5430846,-4.975151,-6.8522053,-4.1276035
0.4812542,4.0736036,-0.43219572,0.25945857,-0.54201937,-4.9416323,-6.981492,-4.1611223
0.48072746,4.073324,-0.43219572,0.25945857,-0.54201937,-4.9416323,-6.981492,-4.1611223
0.4802035,4.073062,-0.4300652,0.23921856,-0.5473457,-5.0038815,-7.153875,-4.084508
0.47967878,4.072799,-0.4300652,0.23921856,-0.5473457,-5.0038815,-7.153875,-4.084508
0.47915632,4.072556,-0.42260835,0.216848,-0.5569331,-5.056554,-7.2448545,-4.0222588
0.4786363,4.072314,-0.42260835,0.216848,-0.5569331,-5.056554,-7.2448545,-4.0222588
0.47811696,4.0720987,-0.41089043,0.19128166,-0.5697163,-5.0517654,-7.3310456,-4.1276035
0.47759992,4.0718837,-0.41089043,0.19128166,-0.5697163,-5.0517654,-7.3310456,-4.1276035
0.47707948,4.0717072,-0.39278096,0.16145425,-0.5856952,-5.0134583,-7.431602,-4.0940847
0.4765594,4.0715303,-0.39278096,0.16145425,-0.5856952,-5.0134583,-7.431602,-4.0940847
0.47604594,4.071393,-0.37041038,0.13162684,-0.6016742,-5.032612,-7.441179,-4.1132383
0.47553453,4.0712557,-0.37041038,0.13162684,-0.6016742,-5.032612,-7.441179,-4.1132383
0.4750211,4.071168,-0.3395177,0.100734174,-0.62084895,-5.023035,-7.513005,-4.19943
0.47450897,4.071081,-0.3395177,0.100734174,-0.62084895,-5.023035,-7.513005,-4.19943
0.47399646,4.0710506,-0.30329874,0.06771098,-0.64108896,-4.9559975,-7.493851,-4.19943
0.473487,4.0710206,-0.30329874,0.06771098,-0.64108896,-4.9559975,-7.493851,-4.19943
0.47297764,4.0710506,-0.2628187,0.03468778,-0.6623943,-4.936844,-7.4842744,-4.3047748
0.47247073,4.07108,-0.2628187,0.03468778,-0.6623943,-4.936844,-7.4842744,-4.3047748
0.47196013,4.07118,-0.21488178,0.0027298466,-0.68156904,-4.841076,-7.489063,-4.333505
0.4714521,4.071278,-0.21488178,0.0027298466,-0.68156904,-4.841076,-7.489063,-4.333505
0.4709211,4.071455,-0.16268381,-0.027097559,-0.70180905,-4.6112323,-7.599196,-4.3622355
0.47038993,4.0716314,-0.16268381,-0.027097559,-0.70180905,-4.6112323,-7.599196,-4.3622355
0.46987846,4.0718775,-0.10515954,-0.05692496,-0.72631013,-4.8745947,-7.6135616,-4.3861775
0.46936566,4.0721235,-0.10515954,-0.05692496,-0.72631013,-4.8745947,-7.6135616,-4.3861775
0.46887103,4.0724382,-0.043374203,-0.08355658,-0.7486807,-5.1475334,-7.632715,-4.462792
0.4683749,4.072754,-0.043374203,-0.08355658,-0.7486807,-5.1475334,-7.632715,-4.462792
0.46788913,4.073145,0.020541664,-0.11338398,-0.769986,-5.2959743,-7.680599,-4.534618
0.46740156,4.0735373,0.020541664,-0.11338398,-0.769986,-5.2959743,-7.680599,-4.534618
0.46692,4.0740137,0.08658806,-0.14640717,-0.7870302,-5.2385135,-7.680599,-4.5777135
0.46643677,4.0744905,0.08658806,-0.14640717,-0.7870302,-5.2385135,-7.680599,-4.5777135
0.46596396,4.075054,0.15689552,-0.17943038,-0.79661757,-5.2002063,-7.73806,-4.711789
0.46549228,4.075617,0.15689552,-0.17943038,-0.79661757,-5.2002063,-7.73806,-4.711789
0.46504638,4.076258,0.22826824,-0.21564937,-0.806205,-5.415684,-7.785944,-4.759673
0.46459982,4.0769,0.22826824,-0.21564937,-0.806205,-5.415684,-7.785944,-4.759673
0.46417743,4.0776253,0.29964095,-0.25506416,-0.81472707,-5.57849,-7.785944,-4.7979803
0.46375763,4.0783453,0.29964095,-0.25506416,-0.81472707,-5.57849,-7.785944,-4.7979803
0.46335837,4.0791574,0.37207893,-0.29767472,-0.8200534,-5.6551046,-7.8146744,-4.8027687
0.46296087,4.079965,0.37207893,-0.29767472,-0.8200534,-5.6551046,-7.8146744,-4.8027687
0.46258253,4.0808716,0.44558218,-0.34241584,-0.8200534,-5.60722,-7.85777,-4.7548847
0.4622056,4.0817733,0.44558218,-0.34241584,-0.8200534,-5.60722,-7.85777,-4.7548847
0.46184805,4.0827794,0.5233465,-0.38715693,-0.8179229,-5.482722,-7.905654,-4.7740383
0.46149102,4.083782,0.5233465,-0.38715693,-0.8179229,-5.482722,-7.905654,-4.7740383
0.4611519,4.0848866,0.6032413,-0.43083277,-0.8136618,-5.3678,-7.9966335,-4.7500963
0.46081188,4.085992,0.6032413,-0.43083277,-0.8136618,-5.3678,-7.9966335,-4.7500963
0.4604954,4.0871997,0.6852667,-0.47450864,-0.8072702,-5.243302,-7.9870567,-4.7644615
0.46017927,4.0884037,0.6852667,-0.47450864,-0.8072702,-5.243302,-7.9870567,-4.7644615
0.45989844,4.089709,0.77048784,-0.51924974,-0.80300915,-5.3103395,-7.9726915,-4.8123455
0.45961782,4.09101,0.77048784,-0.51924974,-0.80300915,-5.3103395,-7.9726915,-4.8123455
0.4593904,4.092388,0.85464376,-0.56399083,-0.7998134,-5.439626,-7.8146744,-4.975151
0.4591624,4.093768,0.85464376,-0.56399083,-0.7998134,-5.439626,-7.8146744,-4.975151
0.45898047,4.095225,0.93560386,-0.6108625,-0.79661757,-5.425261,-7.7189064,-5.1523223
0.45879805,4.096682,0.93560386,-0.6108625,-0.79661757,-5.425261,-7.7189064,-5.1523223
0.45864436,4.0982323,1.0144334,-0.65986466,-0.79448706,-5.4204726,-7.699753,-5.109226
0.4584902,4.099782,1.0144334,-0.65986466,-0.79448706,-5.4204726,-7.699753,-5.109226
0.45837733,4.1014004,1.0868714,-0.7099321,-0.7934218,-5.45878,-7.608773,-5.2385135
0.4582639,4.103013,1.0868714,-0.7099321,-0.7934218,-5.45878,-7.608773,-5.2385135
0.45817998,4.104706,1.153983,-0.7599995,-0.79129124,-5.3486466,-7.627927,-5.2480903
0.45809498,4.1064,1.153983,-0.7599995,-0.79129124,-5.3486466,-7.627927,-5.2480903
0.45803702,4.1081705,1.2147031,-0.81006694,-0.7934218,-5.2720323,-7.608773,-5.267244
0.45797825,4.10993,1.2147031,-0.81006694,-0.7934218,-5.2720323,-7.608773,-5.267244
0.45794016,4.1117377,1.2700969,-0.8590691,-0.7998134,-5.1666875,-7.575254,-5.3725886
0.45789933,4.1135354,1.2700969,-0.8590691,-0.7998134,-5.1666875,-7.575254,-5.3725886
0.45787597,4.115405,1.3190991,-0.9080713,-0.8083355,-5.070919,-7.589619,-5.3486466
0.45784882,4.117261,1.3190991,-0.9080713,-0.8083355,-5.070919,-7.589619,-5.3486466
0.45782548,4.1191645,1.3617096,-0.9538776,-0.81685764,-5.0038815,-7.5561004,-5.386954
0.4577968,4.1210556,1.3617096,-0.9538776,-0.81685764,-5.0038815,-7.5561004,-5.386954
0.45775643,4.122988,1.4011244,-0.99542296,-0.82751024,-4.9943047,-7.52737,-5.4922986
0.45771083,4.1249223,1.4011244,-0.99542296,-0.82751024,-4.9943047,-7.52737,-5.4922986
0.4576657,4.126895,1.4352129,-1.0327072,-0.83709764,-4.984728,-7.503428,-5.5258174
0.45761567,4.128875,1.4352129,-1.0327072,-0.83709764,-4.984728,-7.503428,-5.5258174
0.45754495,4.130883,1.4661056,-1.0657305,-0.8477503,-4.9320555,-7.441179,-5.6790466
0.45747,4.1328998,1.4661056,-1.0657305,-0.8477503,-4.9320555,-7.441179,-5.6790466
0.4573927,4.134947,1.4916719,-1.0966231,-0.85733765,-4.879383,-7.383718,-5.7029886
0.4573115,4.137002,1.4916719,-1.0966231,-0.85733765,-4.879383,-7.383718,-5.7029886
0.45723626,4.139084,1.5140424,-1.1243199,-0.86372924,-4.903325,-7.345411,-5.7604494
0.4571573,4.1411734,1.5140424,-1.1243199,-0.86372924,-4.903325,-7.345411,-5.7604494
0.4570758,4.143284,1.5321519,-1.148821,-0.86905557,-4.8458643,-7.3406224,-5.78918
0.45699075,4.145399,1.5321519,-1.148821,-0.86905557,-4.8458643,-7.3406224,-5.78918
0.4569071,4.1475415,1.5491961,-1.1701263,-0.87225133,-4.841076,-7.321469,-5.865794
0.45682028,4.149681,1.5491961,-1.1701263,-0.87225133,-4.841076,-7.321469,-5.865794
0.4567359,4.1518474,1.5651752,-1.1861053,-0.87225133,-4.7884035,-7.297527,-5.81791
0.45664826,4.1540112,1.5651752,-1.1861053,-0.87225133,-4.7884035,-7.297527,-5.81791
0.4565694,4.156191,1.5800889,-1.1999537,-0.8711861,-4.8458643,-7.297527,-5.8562174
0.45648712,4.158368,1.5800889,-1.1999537,-0.8711861,-4.8458643,-7.297527,-5.8562174
0.4564029,4.1605825,1.5939373,-1.2095411,-0.8701208,-4.783615,-7.2927384,-5.8083334
0.45631495,4.162803,1.5939373,-1.2095411,-0.8701208,-4.783615,-7.2927384,-5.8083334
0.45622885,4.1649866,1.6045899,-1.2148675,-0.86585975,-4.7548847,-7.2448545,-5.861006
0.45613867,4.1671896,1.6045899,-1.2148675,-0.86585975,-4.7548847,-7.2448545,-5.861006
0.45603934,4.1694074,1.6152426,-1.2180632,-0.86159873,-4.630386,-7.2209125,-5.923255
0.45593652,4.17163,1.6152426,-1.2180632,-0.86159873,-4.630386,-7.2209125,-5.923255
0.4558344,4.1738505,1.6205689,-1.2159327,-0.8562724,-4.5633483,-7.0964136,-5.8562174
0.45572877,4.176075,1.6205689,-1.2159327,-0.8562724,-4.5633483,-7.0964136,-5.8562174
0.45561782,4.1782894,1.6237646,-1.2095411,-0.8477503,-4.4005427,-6.9048777,-5.8945246
0.455503,4.180518,1.6237646,-1.2095411,-0.8477503,-4.4005427,-6.9048777,-5.8945246
0.45537794,4.182722,1.6205689,-1.1935622,-0.8402934,-4.213795,-6.7133417,-5.875371
0.45524997,4.184925,1.6205689,-1.1935622,-0.8402934,-4.213795,-6.7133417,-5.875371
0.4551077,4.187119,1.6099162,-1.1711916,-0.8296408,-4.012682,-6.564901,-5.995081
0.45496374,4.189293,1.6099162,-1.1711916,-0.8296408,-4.012682,-6.564901,-5.995081
0.4548051,4.191451,1.5896763,-1.1424295,-0.8232492,-3.9360676,-6.445191,-6.129156
0.45464465,4.193596,1.5896763,-1.1424295,-0.8232492,-3.9360676,-6.445191,-6.129156
0.45446348,4.195686,1.5619793,-1.1051452,-0.8200534,-3.8498764,-6.4020953,-6.2105594
0.45427692,4.197807,1.5619793,-1.1051452,-0.8200534,-3.8498764,-6.4020953,-6.2105594
0.45407408,4.1998477,1.5257603,-1.0614693,-0.8136618,-3.8642416,-6.4164605,-6.253655
0.45386836,4.2018943,1.5257603,-1.0614693,-0.8136618,-3.8642416,-6.4164605,-6.253655
0.45364246,4.2038813,1.484215,-1.015663,-0.80940074,-3.8833952,-6.3781533,-6.3063273
0.45341524,4.20586,1.484215,-1.015663,-0.80940074,-3.8833952,-6.3781533,-6.3063273
0.45316905,4.207776,1.4362781,-0.96772605,-0.80300915,-3.9552212,-6.4404025,-6.3063273
0.45292172,4.2096834,1.4362781,-0.96772605,-0.80300915,-3.9552212,-6.4404025,-6.3063273
0.4526576,4.2115245,1.3851454,-0.9197892,-0.7934218,-4.003105,-6.5361705,-6.1770406
0.45239264,4.213358,1.3851454,-0.9197892,-0.7934218,-4.003105,-6.5361705,-6.1770406
0.4520838,4.215311,1.3340127,-0.8739828,-0.78276914,-4.0892963,-6.655881,-6.196194
0.45182034,4.216966,1.3340127,-0.8739828,-0.78276914,-4.0892963,-6.655881,-6.196194
0.45182034,4.216966,1.3340127,-0.8739828,-0.78276914,-4.0892963,-6.655881,-6.196194
0.45125028,4.2202654,1.2850106,-0.8292417,-0.769986,-4.132392,-6.751649,-6.0956373
0.45087865,4.222283,1.2360084,-0.7845006,-0.754007,-4.247314,-6.861782,-6.042965
0.4506291,4.22363,1.2360084,-0.7845006,-0.754007,-4.247314,-6.861782,-6.042965
0.4503354,4.2251253,1.1891367,-0.74082476,-0.7358975,-4.309563,-6.9862804,-5.947197
0.4500036,4.226807,1.1891367,-0.74082476,-0.7358975,-4.309563,-6.9862804,-5.947197
0.449731,4.228107,1.1465262,-0.6971489,-0.7188533,-4.343082,-7.1059904,-5.793968
0.44942158,4.2295766,1.1465262,-0.6971489,-0.7188533,-4.343082,-7.1059904,-5.793968
0.44910103,4.230997,1.1060462,-0.6534731,-0.70393956,-4.367024,-7.1969705,-5.731719
0.44877982,4.2324157,1.1060462,-0.6534731,-0.70393956,-4.367024,-7.1969705,-5.731719
0.4484509,4.23377,1.0645008,-0.612993,-0.6890259,-4.3861775,-7.273585,-5.803545
0.44812042,4.2351265,1.0645008,-0.612993,-0.6890259,-4.3861775,-7.273585,-5.803545
0.4477815,4.2364283,1.0261513,-0.5714477,-0.6741122,-4.381389,-7.297527,-5.7604494
0.44744462,4.2377195,1.0261513,-0.5714477,-0.6741122,-4.381389,-7.297527,-5.7604494
0.44709888,4.238957,0.9899323,-0.53096765,-0.6645248,-4.4244847,-7.3406224,-5.674258
0.4467521,4.2401953,0.9899323,-0.53096765,-0.6645248,-4.4244847,-7.3406224,-5.674258
0.446395,4.2413826,0.9569091,-0.4926181,-0.65919846,-4.4723687,-7.398083,-5.583278
0.44603717,4.2425694,0.9569091,-0.4926181,-0.65919846,-4.4723687,-7.398083,-5.583278
0.44566056,4.2437077,0.92601645,-0.4542686,-0.65706795,-4.429273,-7.4363904,-5.5497594
0.4452827,4.2448473,0.92601645,-0.4542686,-0.65706795,-4.429273,-7.4363904,-5.5497594
0.44488996,4.245942,0.8983196,-0.4180496,-0.6581332,-4.4580035,-7.445967,-5.497087
0.4444961,4.2470393,0.8983196,-0.4180496,-0.6581332,-4.4580035,-7.445967,-5.497087
0.44408196,4.24809,0.87168795,-0.38076535,-0.661329,-4.4436383,-7.517793,-5.434838
0.44366673,4.2491417,0.87168795,-0.38076535,-0.661329,-4.4436383,-7.517793,-5.434838
0.44322985,4.2501564,0.8482521,-0.3434811,-0.66878587,-4.501099,-7.6135616,-5.3965306
0.4427927,4.2511697,0.8482521,-0.3434811,-0.66878587,-4.501099,-7.6135616,-5.3965306
0.4423388,4.252152,0.8280121,-0.30726212,-0.6794385,-4.6399627,-7.747637,-5.257667
0.44188634,4.25313,0.8280121,-0.30726212,-0.6794385,-4.6399627,-7.747637,-5.257667
0.44141975,4.254082,0.8120332,-0.27317366,-0.69328696,-4.8458643,-7.9583263,-5.185841
0.44095245,4.2550344,0.8120332,-0.27317366,-0.69328696,-4.8458643,-7.9583263,-5.185841
0.4404785,4.255969,0.79925,-0.24228097,-0.70820063,-5.0757074,-8.183381,-5.080496
0.4400046,4.256902,0.79925,-0.24228097,-0.70820063,-5.0757074,-8.183381,-5.080496
0.43953913,4.257833,0.7896626,-0.21671464,-0.7241796,-5.3199162,-8.432379,-4.88896
0.43907192,4.2587643,0.7896626,-0.21671464,-0.7241796,-5.3199162,-8.432379,-4.88896
0.43861604,4.2597127,0.783271,-0.19860514,-0.74015856,-5.616797,-8.676587,-4.7405195
0.43815827,4.2606616,0.783271,-0.19860514,-0.74015856,-5.616797,-8.676587,-4.7405195
0.43769214,4.2616277,0.78646684,-0.18795249,-0.75613755,-5.683835,-8.90643,-4.673482
0.43722418,4.262594,0.78646684,-0.18795249,-0.75613755,-5.683835,-8.90643,-4.673482
0.43674108,4.2635784,0.7928584,-0.18688722,-0.7753123,-5.7125654,-8.954314,-4.6255975
0.43625712,4.2645607,0.7928584,-0.18688722,-0.7753123,-5.7125654,-8.954314,-4.6255975
0.435757,4.2655735,0.8056416,-0.19221355,-0.79874814,-5.722142,-9.14585,-4.6112323
0.4352551,4.266585,0.8056416,-0.19221355,-0.79874814,-5.722142,-9.14585,-4.6112323
0.43473393,4.267645,0.8226858,-0.20393145,-0.826445,-5.813122,-9.313444,-4.5537715
0.43421477,4.2686977,0.8226858,-0.20393145,-0.826445,-5.813122,-9.313444,-4.5537715
0.43366873,4.2698097,0.84718686,-0.22097568,-0.85946816,-5.81791,-9.346964,-4.43885
0.43312356,4.270917,0.84718686,-0.22097568,-0.85946816,-5.81791,-9.346964,-4.43885
0.43255207,4.2720838,0.8791448,-0.24441151,-0.89568716,-5.7748146,-9.394848,-4.390966
0.43197978,4.2732487,0.8791448,-0.24441151,-0.89568716,-5.7748146,-9.394848,-4.390966
0.43137786,4.2744865,0.91962487,-0.27317366,-0.9372325,-5.6982,-9.41879,-4.271256
0.43077543,4.2757225,0.91962487,-0.27317366,-0.9372325,-5.6982,-9.41879,-4.271256
0.43013752,4.277046,0.9675618,-0.30939263,-0.98303884,-5.6886234,-9.461885,-4.156334
0.42949983,4.2783675,0.9675618,-0.30939263,-0.98303884,-5.6886234,-9.461885,-4.156334
0.42883855,4.2797623,1.0240208,-0.34880742,-1.0299104,-5.875371,-9.414001,-4.156334
0.42817906,4.2811494,1.0240208,-0.34880742,-1.0299104,-5.875371,-9.414001,-4.156334
0.42748448,4.2826385,1.0868714,-0.39354852,-1.0810432,-5.9902925,-9.337387,-3.9935284
0.42679292,4.2841177,1.0868714,-0.39354852,-1.0810432,-5.9902925,-9.337387,-3.9935284
0.42607582,4.285699,1.1561136,-0.44574648,-1.1300454,-6.0238113,-9.313444,-3.9695864
0.42535752,4.287278,1.1561136,-0.44574648,-1.1300454,-6.0238113,-9.313444,-3.9695864
0.42461282,4.288966,1.2285515,-0.5022055,-1.1801128,-5.9902925,-9.289502,-3.8833952
0.42386883,4.290648,1.2285515,-0.5022055,-1.1801128,-5.9902925,-9.289502,-3.8833952
0.42309844,4.2924466,1.3041854,-0.56079507,-1.2269844,-5.9567738,-9.332599,-3.7588966
0.42232582,4.2942457,1.3041854,-0.56079507,-1.2269844,-5.9567738,-9.332599,-3.7588966
0.4215283,4.296159,1.3787539,-0.6225804,-1.2749213,-5.865794,-9.3182335,-3.6822822
0.42073396,4.298059,1.3787539,-0.6225804,-1.2749213,-5.865794,-9.3182335,-3.6822822
0.419917,4.300077,1.4565182,-0.685431,-1.3207277,-5.8226986,-9.356541,-3.6631286
0.41909903,4.302091,1.4565182,-0.685431,-1.3207277,-5.8226986,-9.356541,-3.6631286
0.41825873,4.304223,1.536413,-0.7461511,-1.3633382,-5.813122,-9.3421755,-3.5482068
0.41741642,4.3063536,1.536413,-0.7461511,-1.3633382,-5.813122,-9.3421755,-3.5482068
0.41656205,4.3085814,1.6141773,-0.80793643,-1.4048836,-5.7748146,-9.299079,-3.5290532
0.41570553,4.310807,1.6141773,-0.80793643,-1.4048836,-5.7748146,-9.299079,-3.5290532
0.41483065,4.313144,1.6908764,-0.86865646,-1.4442984,-5.66947,-9.313444,-3.5051112
0.4139534,4.315479,1.6908764,-0.86865646,-1.4442984,-5.66947,-9.313444,-3.5051112
0.4130631,4.317919,1.7654449,-0.9315071,-1.4837132,-5.6646814,-9.23683,-3.5673606
0.4121672,4.3203635,1.7654449,-0.9315071,-1.4837132,-5.6646814,-9.23683,-3.5673606
0.41126248,4.322898,1.8389481,-0.9943577,-1.5199322,-5.602432,-9.179369,-3.5003228
0.4103717,4.3253818,1.8389481,-0.9943577,-1.5199322,-5.602432,-9.179369,-3.5003228
0.4094666,4.3279834,1.9103208,-1.0582736,-1.5497595,-5.626374,-9.11712,-3.442862
0.40854958,4.3306055,1.9103208,-1.0582736,-1.5497595,-5.626374,-9.11712,-3.442862
0.407621,4.3333325,1.979563,-1.1221894,-1.5806522,-5.6215854,-9.050082,-3.3901896
0.40670407,4.3360105,1.979563,-1.1221894,-1.5806522,-5.6215854,-9.050082,-3.3901896
0.405771,4.33881,2.04774,-1.1861053,-1.6083491,-5.554548,-9.002198,-3.323152
0.4048373,4.341595,2.04774,-1.1861053,-1.6083491,-5.554548,-9.002198,-3.323152
0.4038878,4.3444986,2.1137862,-1.2436296,-1.6296544,-5.6120086,-9.040505,-3.1507695
0.40293765,4.3473873,2.1137862,-1.2436296,-1.6296544,-5.6120086,-9.040505,-3.1507695
0.40198278,4.3503647,2.1777022,-1.2990233,-1.6466986,-5.707777,-9.121908,-3.016694
0.4010185,4.353353,2.1777022,-1.2990233,-1.6466986,-5.707777,-9.121908,-3.016694
0.4000667,4.3564,2.2426834,-1.3512213,-1.6573513,-5.813122,-9.059659,-3.0358477
0.3991077,4.3594503,2.2426834,-1.3512213,-1.6573513,-5.813122,-9.059659,-3.0358477
0.3981576,4.362564,2.3034034,-1.3980929,-1.6648082,-5.8562174,-9.126697,-3.1316159
0.39720374,4.365668,2.3034034,-1.3980929,-1.6648082,-5.8562174,-9.126697,-3.1316159
0.3962517,4.36885,2.358797,-1.4417688,-1.6690692,-5.971139,-9.212888,-3.0885203
0.39529467,4.3720264,2.358797,-1.4417688,-1.6690692,-5.971139,-9.212888,-3.0885203
0.39434946,4.3752584,2.4077992,-1.4843793,-1.6669387,-6.105214,-9.227253,-3.1316159
0.39339685,4.3784904,2.4077992,-1.4843793,-1.6669387,-6.105214,-9.227253,-3.1316159
0.3924627,4.381754,2.454671,-1.5269899,-1.6637429,-6.215348,-9.241618,-3.1842883
0.39151692,4.3850307,2.454671,-1.5269899,-1.6637429,-6.215348,-9.241618,-3.1842883
0.39058527,4.388359,2.4983468,-1.571731,-1.6573513,-6.3063273,-9.26556,-3.2848446
0.38964993,4.391671,2.4983468,-1.571731,-1.6573513,-6.3063273,-9.26556,-3.2848446
0.38872793,4.395047,2.5377617,-1.6196679,-1.6498944,-6.181829,-9.323022,-3.2130187
0.38780215,4.398407,2.5377617,-1.6196679,-1.6498944,-6.181829,-9.323022,-3.2130187
0.38688603,4.401828,2.576111,-1.66867,-1.6456333,-6.0142345,-9.332599,-3.193865
0.3859628,4.4052424,2.576111,-1.66867,-1.6456333,-6.0142345,-9.332599,-3.193865
0.3850495,4.4086914,2.6133955,-1.716607,-1.6466986,-5.8801594,-9.337387,-3.1986535
0.3841241,4.412152,2.6133955,-1.716607,-1.6466986,-5.8801594,-9.337387,-3.1986535
0.383205,4.415656,2.6506796,-1.7645439,-1.6477638,-5.765238,-9.303867,-3.1842883
0.38228157,4.4191403,2.6506796,-1.7645439,-1.6477638,-5.765238,-9.303867,-3.1842883
0.38135314,4.422682,2.6868987,-1.8103503,-1.6552207,-5.659893,-9.179369,-3.1507695
0.38041338,4.426227,2.6868987,-1.8103503,-1.6552207,-5.659893,-9.179369,-3.1507695
0.37947598,4.429815,2.7220523,-1.8518956,-1.6637429,-5.535394,-9.232041,-2.9735985
0.37852538,4.433413,2.7220523,-1.8518956,-1.6637429,-5.535394,-9.232041,-2.9735985
0.37756917,4.437031,2.7561407,-1.8870493,-1.6765261,-5.506664,-9.150639,-2.9592333
0.3766013,4.4406524,2.7561407,-1.8870493,-1.6765261,-5.506664,-9.150639,-2.9592333
0.37561604,4.444322,2.7838376,-1.9168767,-1.6946355,-5.5018754,-9.184157,-2.8443117
0.3746249,4.4479737,2.7838376,-1.9168767,-1.6946355,-5.5018754,-9.184157,-2.8443117
0.3736029,4.4516716,2.8051429,-1.9392473,-1.7202018,-5.497087,-9.203311,-2.777274
0.3725729,4.4553585,2.8051429,-1.9392473,-1.7202018,-5.497087,-9.203311,-2.777274
0.37151197,4.4590592,2.8200567,-1.9573568,-1.7521598,-5.535394,-9.299079,-2.705448
0.3704409,4.462757,2.8200567,-1.9573568,-1.7521598,-5.535394,-9.299079,-2.705448
0.3693269,4.4664693,2.8264482,-1.9712052,-1.7883788,-5.530606,-9.428367,-2.72939
0.36820233,4.4701777,2.8264482,-1.9712052,-1.7883788,-5.530606,-9.428367,-2.72939
0.3670353,4.473878,2.8264482,-1.9861189,-1.8320546,-5.6215854,-9.524135,-2.705448
0.3658554,4.477581,2.8264482,-1.9861189,-1.8320546,-5.6215854,-9.524135,-2.705448
0.364621,4.4812784,2.8189914,-1.9978368,-1.8810568,-5.6790466,-9.639056,-2.7341783
0.36338076,4.4849563,2.8189914,-1.9978368,-1.8810568,-5.6790466,-9.639056,-2.7341783
0.36207753,4.488633,2.8062081,-2.0116851,-1.9375159,-5.7365074,-9.744401,-2.72939
0.36076462,4.4923024,2.8062081,-2.0116851,-1.9375159,-5.7365074,-9.744401,-2.72939
0.35938662,4.4959564,2.7902293,-2.0287294,-1.9971706,-5.770026,-9.730036,-2.7724855
0.35799608,4.4996095,2.7902293,-2.0287294,-1.9971706,-5.770026,-9.730036,-2.7724855
0.35654464,4.5032315,2.7710545,-2.0489695,-2.058956,-5.7508726,-9.749189,-2.791639
0.3550805,4.506853,2.7710545,-2.0489695,-2.058956,-5.7508726,-9.749189,-2.791639
0.35354385,4.5104504,2.7497492,-2.07134,-2.1260676,-5.530606,-9.706094,-2.7820623
0.35199097,4.5140533,2.7497492,-2.07134,-2.1260676,-5.530606,-9.706094,-2.7820623
0.35036975,4.517624,2.729509,-2.0969064,-2.1974404,-5.2959743,-9.634268,-2.7006595
0.34873688,4.5211887,2.729509,-2.0969064,-2.1974404,-5.2959743,-9.634268,-2.7006595
0.34702075,4.5247436,2.7113998,-2.1203423,-2.2688131,-5.0421886,-9.533711,-2.6479871
0.34529275,4.5282936,2.7113998,-2.1203423,-2.2688131,-5.0421886,-9.533711,-2.6479871
0.34350136,4.5318227,2.6943555,-2.143778,-2.3401859,-4.841076,-9.466674,-2.4372973
0.34169605,4.535351,2.6943555,-2.143778,-2.3401859,-4.841076,-9.466674,-2.4372973
0.33981666,4.5388837,2.680507,-2.167214,-2.412624,-4.711789,-9.375694,-2.2505496
0.3379343,4.542393,2.680507,-2.167214,-2.412624,-4.711789,-9.375694,-2.2505496
0.3359758,4.5459085,2.671985,-2.1895845,-2.4829311,-4.5298295,-9.294291,-2.1068976
0.33400682,4.5494137,2.671985,-2.1895845,-2.4829311,-4.5298295,-9.294291,-2.1068976
0.33196744,4.5529337,2.6634629,-2.2066286,-2.5532386,-4.4580035,-9.284714,-1.8962077
0.32992572,4.5564284,2.6634629,-2.2066286,-2.5532386,-4.4580035,-9.284714,-1.8962077
0.32781228,4.5599236,2.6560059,-2.2226076,-2.619285,-4.3382936,-9.11712,-1.7860745
0.3256841,4.5634146,2.6560059,-2.2226076,-2.619285,-4.3382936,-9.11712,-1.7860745
0.32348928,4.566908,2.648549,-2.2364562,-2.6810703,-4.3382936,-9.006987,-1.6807296
0.32128868,4.5703826,2.648549,-2.2364562,-2.6810703,-4.3382936,-9.006987,-1.6807296
0.32128868,4.5703826,2.648549,-2.2364562,-2.6810703,-4.3382936,-9.006987,-1.6807296
0.32128868,4.5703826,2.648549,-2.2364562,-2.6810703,-4.3382936,-9.006987,-1.6807296
0.31341034,4.582131,2.6261785,-2.2588265,-2.7897274,-4.223372,-8.892065,-1.4796166
0.31175494,4.584556,2.6261785,-2.2588265,-2.7897274,-4.223372,-8.892065,-1.4796166
0.3094403,4.5878615,2.608069,-2.2652183,-2.8355339,-4.19943,-8.791509,-1.388637
0.30712867,4.591139,2.608069,-2.2652183,-2.8355339,-4.19943,-8.791509,-1.388637
0.30467057,4.5945373,2.5899596,-2.2694793,-2.8738832,-4.074931,-8.75799,-1.3072342
0.3023038,4.597785,2.5899596,-2.2694793,-2.8738832,-4.074931,-8.75799,-1.3072342
0.29980966,4.601129,2.567589,-2.2694793,-2.9026453,-4.0222588,-8.734048,-1.2497733
0.29731864,4.604444,2.567589,-2.2694793,-2.9026453,-4.0222588,-8.734048,-1.2497733
0.29479533,4.607741,2.5409575,-2.2662835,-2.9239507,-3.9791632,-8.671799,-1.1109096
0.29226065,4.611028,2.5409575,-2.2662835,-2.9239507,-3.9791632,-8.671799,-1.1109096
0.28969827,4.6142855,2.5132606,-2.2577612,-2.9377992,-3.8402996,-8.66701,-1.0390835
0.28711182,4.6175494,2.5132606,-2.2577612,-2.9377992,-3.8402996,-8.66701,-1.0390835
0.28454039,4.6207175,2.4813025,-2.2460434,-2.9441907,-3.6870706,-8.604761,-1.067814
0.28194457,4.623892,2.4813025,-2.2460434,-2.9441907,-3.6870706,-8.604761,-1.067814
0.27933627,4.6270123,2.4482794,-2.227934,-2.9441907,-3.5194764,-8.604761,-1.0582372
0.27671647,4.630124,2.4482794,-2.227934,-2.9441907,-3.5194764,-8.604761,-1.0582372
0.2740953,4.633167,2.4131255,-2.208759,-2.9377992,-3.3423057,-8.48984,-1.067814
0.27146015,4.6362047,2.4131255,-2.208759,-2.9377992,-3.3423057,-8.48984,-1.067814
0.2687973,4.6391973,2.3758414,-2.1853232,-2.9314075,-3.1268275,-8.485051,-1.0486604
0.26615268,4.64215,2.3758414,-2.1853232,-2.9314075,-3.1268275,-8.485051,-1.0486604
0.26348606,4.645042,2.3406878,-2.159757,-2.9186244,-2.9400797,-8.374918,-1.1252748
0.26081237,4.647925,2.3406878,-2.159757,-2.9186244,-2.9400797,-8.374918,-1.1252748
0.25812262,4.6507916,2.305534,-2.1309948,-2.8983843,-3.0454245,-8.2169,-1.1875241
0.25542057,4.653655,2.305534,-2.1309948,-2.8983843,-3.0454245,-8.2169,-1.1875241
0.252757,4.6564207,2.2714455,-2.1043632,-2.872818,-2.777274,-8.078036,-1.1683705
0.25011435,4.65915,2.2714455,-2.1043632,-2.872818,-2.777274,-8.078036,-1.1683705
0.24741127,4.6618457,2.240553,-2.075601,-2.8419254,-2.231396,-8.087613,-1.115698
0.244702,4.6645365,2.240553,-2.075601,-2.8419254,-2.231396,-8.087613,-1.115698
0.24197347,4.6671877,2.213921,-2.0393822,-2.8067715,-1.8914193,-7.991845,-1.0342951
0.23924038,4.669833,2.213921,-2.0393822,-2.8067715,-1.8914193,-7.991845,-1.0342951
0.23655383,4.672422,2.1915507,-1.9967716,-2.7694874,-1.8435353,-7.867347,-0.9768343
0.23385473,4.6750135,2.1915507,-1.9967716,-2.7694874,-1.8435353,-7.867347,-0.9768343
0.23119606,4.6775637,2.1702454,-1.9488347,-2.727942,-1.8195933,-7.704541,-1.0582372
0.228535,4.680107,2.1702454,-1.9488347,-2.727942,-1.8195933,-7.704541,-1.0582372
0.22587655,4.6826177,2.1521358,-1.901963,-2.6810703,-1.4987702,-7.627927,-0.9576807
0.22321682,4.68512,2.1521358,-1.901963,-2.6810703,-1.4987702,-7.627927,-0.9576807
0.22058278,4.6875887,2.132961,-1.8476346,-2.6299376,-1.3263878,-7.589619,-0.90021986
0.21794239,4.690054,2.132961,-1.8476346,-2.6299376,-1.3263878,-7.589619,-0.90021986
0.21536018,4.692472,2.1148515,-1.7901102,-2.5766745,-1.2593501,-7.5465236,-0.9576807
0.21277139,4.6948876,2.1148515,-1.7901102,-2.5766745,-1.2593501,-7.5465236,-0.9576807
0.21021098,4.697272,2.0946116,-1.7304554,-2.518085,-1.0630256,-7.536947,-0.82360536
0.20765215,4.6996465,2.0946116,-1.7304554,-2.518085,-1.0630256,-7.536947,-0.82360536
0.20512572,4.70199,2.0711758,-1.66867,-2.4605606,-0.92416185,-7.5704656,-0.7565677
0.20260088,4.7043247,2.0711758,-1.66867,-2.4605606,-0.92416185,-7.5704656,-0.7565677
0.20012236,4.7066197,2.0445442,-1.6026237,-2.3998406,-0.8283938,-7.5465236,-0.7469909
0.19765536,4.708897,2.0445442,-1.6026237,-2.3998406,-0.8283938,-7.5465236,-0.7469909
0.1952299,4.7111363,2.012586,-1.5344467,-2.3369899,-0.7326257,-7.489063,-0.6655881
0.19280377,4.7133684,2.012586,-1.5344467,-2.3369899,-0.7326257,-7.489063,-0.6655881
0.19043075,4.7155495,1.975302,-1.4641393,-2.2741394,-0.62249243,-7.513005,-0.6512229
0.1880547,4.7177258,1.975302,-1.4641393,-2.2741394,-0.62249243,-7.513005,-0.6512229
0.18573515,4.7198467,1.9348218,-1.3906361,-2.2102234,-0.5554548,-7.513005,-0.58418524
0.18341276,4.7219634,1.9348218,-1.3906361,-2.2102234,-0.5554548,-7.513005,-0.58418524
0.18115784,4.7240114,1.8879503,-1.3160676,-2.1441772,-0.51235914,-7.4746976,-0.5410896
0.17889796,4.726059,1.8879503,-1.3160676,-2.1441772,-0.51235914,-7.4746976,-0.5410896
0.17668888,4.72804,1.8325565,-1.2414991,-2.083457,-0.4213795,-7.541735,-0.50757074
0.17448385,4.7300124,1.8325565,-1.2414991,-2.083457,-0.4213795,-7.541735,-0.50757074
0.17232415,4.7319174,1.7718364,-1.1679958,-2.0259328,-0.35913026,-7.5082164,-0.4309563
0.17016207,4.7338195,1.7718364,-1.1679958,-2.0259328,-0.35913026,-7.5082164,-0.4309563
0.16805047,4.7356462,1.7068553,-1.0966231,-1.9694737,-0.34476504,-7.493851,-0.39743748
0.16594726,4.737461,1.7068553,-1.0966231,-1.9694737,-0.34476504,-7.493851,-0.39743748
0.16389093,4.7391996,1.6354825,-1.0263156,-1.9172758,-0.2825158,-7.5225816,-0.18195933
0.16181979,4.740946,1.6354825,-1.0263156,-1.9172758,-0.2825158,-7.5225816,-0.18195933
0.15979573,4.7426066,1.5630445,-0.9602692,-1.8704041,-0.25857377,-7.455544,-0.16759412
0.15777968,4.7442565,1.5630445,-0.9602692,-1.8704041,-0.25857377,-7.455544,-0.16759412
0.15578787,4.7458463,1.4863455,-0.8952881,-1.8277936,-0.32561144,-7.489063,0.062249243
0.1537956,4.7474318,1.4863455,-0.8952881,-1.8277936,-0.32561144,-7.489063,0.062249243
0.15183632,4.7489653,1.4064507,-0.834568,-1.7873136,-0.37828386,-7.513005,0.29209262
0.14987756,4.750493,1.4064507,-0.834568,-1.7873136,-0.37828386,-7.513005,0.29209262
0.1479806,4.7519693,1.3244253,-0.7813048,-1.748964,-0.40222588,-7.565677,0.56982
0.14608192,4.7534437,1.3244253,-0.7813048,-1.748964,-0.40222588,-7.565677,0.56982
0.14422621,4.75486,1.2402694,-0.7333679,-1.7170061,-0.5363012,-7.6231384,0.7278373
0.14239527,4.756255,1.2402694,-0.7333679,-1.7170061,-0.5363012,-7.6231384,0.7278373
0.1406061,4.757578,1.1529177,-0.69075733,-1.6861134,-0.59855044,-7.6853876,0.89064306
0.13881832,4.758898,1.1529177,-0.69075733,-1.6861134,-0.59855044,-7.6853876,0.89064306
0.13708754,4.7601357,1.0645008,-0.65240777,-1.6573513,-0.7038953,-7.7907324,1.1923125
0.13535872,4.7613707,1.0645008,-0.65240777,-1.6573513,-0.7038953,-7.7907324,1.1923125
0.13365953,4.762515,0.9750186,-0.61831933,-1.6317849,-0.7661445,-7.9008656,1.2162545
0.13196757,4.7636533,0.9750186,-0.61831933,-1.6317849,-0.7661445,-7.9008656,1.2162545
0.13030446,4.764701,0.88553643,-0.5895572,-1.6083491,-0.82360536,-8.020576,1.2976574
0.12864359,4.765747,0.88553643,-0.5895572,-1.6083491,-0.82360536,-8.020576,1.2976574
0.1270022,4.7667,0.79498893,-0.5661214,-1.5859785,-0.80924016,-8.101978,1.340753
0.12535983,4.767653,0.79498893,-0.5661214,-1.5859785,-0.80924016,-8.101978,1.340753
0.1237417,4.768506,0.7044414,-0.5480119,-1.5678691,-0.7565677,-8.178593,1.3742718
0.122117735,4.7693624,0.7044414,-0.5480119,-1.5678691,-0.7565677,-8.178593,1.3742718
0.120498784,4.7701283,0.618155,-0.5352287,-1.5540206,-0.6943185,-8.24563,1.2880806
0.118880644,4.770894,0.618155,-0.5352287,-1.5540206,-0.6943185,-8.24563,1.2880806
0.117262885,4.771572,0.53399915,-0.5267066,-1.5454985,-0.59855044,-8.322245,1.3215994
0.115642674,4.77225,0.53399915,-0.5267066,-1.5454985,-0.59855044,-8.322245,1.3215994
0.114029065,4.7728453,0.4562348,-0.52244556,-1.539107,-0.521936,-8.365341,1.3359646
0.112409756,4.7734423,0.4562348,-0.52244556,-1.539107,-0.521936,-8.365341,1.3359646
0.11079247,4.7739654,0.38592738,-0.52138025,-1.5359111,-0.47405192,-8.307879,1.3072342
0.10917278,4.774489,0.38592738,-0.52138025,-1.5359111,-0.47405192,-8.307879,1.3072342
0.10754106,4.7749395,0.32307678,-0.5256413,-1.5327153,-0.19153613,-8.355764,1.3359646
0.10590657,4.7753906,0.32307678,-0.5256413,-1.5327153,-0.19153613,-8.355764,1.3359646
0.10426551,4.7757835,0.26768303,-0.53096765,-1.5348458,-0.009576807,-8.331821,1.4460979
0.102621555,4.7761765,0.26768303,-0.53096765,-1.5348458,-0.009576807,-8.331821,1.4460979
0.1009805,4.7765207,0.22187665,-0.53309816,-1.5348458,0.0047884034,-8.303091,1.388637
0.09933662,4.776865,0.22187665,-0.53309816,-1.5348458,0.0047884034,-8.303091,1.388637
0.09769839,4.777172,0.18246186,-0.53309816,-1.5369763,-0.019153614,-8.207323,1.4700398
0.09605747,4.7774796,0.18246186,-0.53309816,-1.5369763,-0.019153614,-8.207323,1.4700398
0.09442367,4.777786,0.18246186,-0.53309816,-1.5369763,-0.019153614,-8.207323,1.4700398
0.092793696,4.778063,0.14943866,-0.5320329,-1.5423027,-0.12928689,-8.240842,1.5610195
0.091166094,4.7783394,0.14943866,-0.5320329,-1.5423027,-0.12928689,-8.240842,1.5610195
0.08954122,4.778589,0.120676525,-0.52883714,-1.543368,-0.18674773,-8.307879,1.6232687
0.08791556,4.7788377,0.120676525,-0.52883714,-1.543368,-0.18674773,-8.307879,1.6232687
0.08629887,4.7790585,0.09404491,-0.52244556,-1.5454985,-0.23463176,-8.403648,1.5993267
0.0846782,4.7792797,0.09404491,-0.52244556,-1.5454985,-0.23463176,-8.403648,1.5993267
0.083055265,4.779472,0.0674133,-0.51072764,-1.5444332,-0.22984336,-8.523358,1.5514427
0.08143166,4.779664,0.0674133,-0.51072764,-1.5444332,-0.22984336,-8.523358,1.5514427
0.07980501,4.779827,0.043977484,-0.4958139,-1.5423027,-0.16759412,-8.556877,1.388637
0.07817618,4.7799897,0.043977484,-0.4958139,-1.5423027,-0.16759412,-8.556877,1.388637
0.07653868,4.780122,0.019476399,-0.47770444,-1.5380416,-0.19153613,-8.652645,1.163582
0.07489926,4.780254,0.019476399,-0.47770444,-1.5380416,-0.19153613,-8.652645,1.163582
0.073260695,4.7803516,-0.0050246827,-0.4574644,-1.5295196,-0.1340753,-8.700529,1.0630256
0.07162179,4.7804494,-0.0050246827,-0.4574644,-1.5295196,-0.1340753,-8.700529,1.0630256
0.06998994,4.7805243,-0.026329972,-0.4372244,-1.5199322,-0.14844051,-8.781932,1.043872
0.068361215,4.7805986,-0.026329972,-0.4372244,-1.5199322,-0.14844051,-8.781932,1.043872
0.066722505,4.780638,-0.045504734,-0.4159191,-1.5060837,-0.05746084,-8.78672,0.93373865
0.065091476,4.7806783,-0.045504734,-0.4159191,-1.5060837,-0.05746084,-8.78672,0.93373865
0.063449845,4.780669,-0.0614837,-0.39567906,-1.4879742,0.10055647,-8.781932,0.7757214
0.06180854,4.7806606,-0.0614837,-0.39567906,-1.4879742,0.10055647,-8.781932,0.7757214
0.060181268,4.7806187,-0.07320161,-0.37117797,-1.4677342,0.272939,-8.690952,0.6799533
0.058539417,4.7805758,-0.07320161,-0.37117797,-1.4677342,0.272939,-8.690952,0.6799533
0.05691497,4.780513,-0.0795932,-0.34561163,-1.4485594,0.39264908,-8.6574335,0.60812724
0.05532592,4.7804503,-0.0795932,-0.34561163,-1.4485594,0.39264908,-8.6574335,0.60812724
0.053755164,4.780365,-0.08278899,-0.3168495,-1.4261888,0.50278234,-8.499416,0.47405192
0.052171778,4.780279,-0.08278899,-0.3168495,-1.4261888,0.50278234,-8.499416,0.47405192
0.050607707,4.7801847,-0.08065846,-0.28808734,-1.4027531,0.521936,-8.528147,0.4165911
0.04905618,4.7800903,-0.08065846,-0.28808734,-1.4027531,0.521936,-8.528147,0.4165911
0.047520697,4.779995,-0.077462666,-0.2593252,-1.3814478,0.6895301,-8.437167,0.36391866
0.04599451,4.7798996,-0.077462666,-0.2593252,-1.3814478,0.6895301,-8.437167,0.36391866
0.044491377,4.7797995,-0.07426687,-0.22843254,-1.3548162,0.80924016,-8.384495,0.2825158
0.042988375,4.779699,-0.07426687,-0.22843254,-1.3548162,0.80924016,-8.384495,0.2825158
0.04151974,4.7796025,-0.07000581,-0.19647461,-1.3249887,0.8331822,-8.312668,0.2873042
0.040048264,4.7795057,-0.07000581,-0.19647461,-1.3249887,0.8331822,-8.312668,0.2873042
0.038613994,4.779416,-0.06574476,-0.16132088,-1.2930309,0.90979666,-8.283937,0.30645782
0.037174057,4.779325,-0.06574476,-0.16132088,-1.2930309,0.90979666,-8.283937,0.30645782
0.035772756,4.7792306,-0.06361423,-0.1251019,-1.2610729,1.0247183,-8.2169,0.23463176
0.034374334,4.7791367,-0.06361423,-0.1251019,-1.2610729,1.0247183,-8.2169,0.23463176
0.033009537,4.779041,-0.06361423,-0.08994816,-1.2269844,1.115698,-8.207323,0.21068975
0.03164206,4.778945,-0.06361423,-0.08994816,-1.2269844,1.115698,-8.207323,0.21068975
0.03031769,4.778844,-0.06894055,-0.0558597,-1.1907654,1.1827357,-8.207323,0.21547815
0.028990727,4.7787433,-0.06894055,-0.0558597,-1.1907654,1.1827357,-8.207323,0.21547815
0.027699042,4.778637,-0.07852793,-0.020705972,-1.1534811,1.2114661,-8.1402855,0.2633622
0.026411258,4.7785306,-0.07852793,-0.020705972,-1.1534811,1.2114661,-8.1402855,0.2633622
0.025161618,4.7784142,-0.092376366,0.014447756,-1.1151316,1.1923125,-8.145074,0.31603462
0.023915738,4.7782984,-0.092376366,0.014447756,-1.1151316,1.1923125,-8.145074,0.31603462
0.022708694,4.778158,-0.11048587,0.046405688,-1.0746516,1.1779473,-8.145074,0.2681506
0.02139632,4.777998,-0.13392168,0.07836362,-1.0331063,1.1683705,-8.159439,0.48841715
0.02139632,4.777998,-0.13392168,0.07836362,-1.0331063,1.1683705,-8.159439,0.48841715
0.02139632,4.777998,-0.13392168,0.07836362,-1.0331063,1.1683705,-8.159439,0.48841715
0.017629161,4.7775183,-0.16055329,0.1060605,-0.9883652,1.1779473,-8.202535,0.37828386
0.016855288,4.7773933,-0.16055329,0.1060605,-0.9883652,1.1779473,-8.202535,0.37828386
0.01581139,4.777198,-0.18931544,0.13162684,-0.9425588,1.1779473,-8.255207,0.45968673
0.014712047,4.7769556,-0.22020811,0.15612793,-0.8967524,1.1252748,-8.264784,0.51714754
0.013798109,4.776755,-0.22020811,0.15612793,-0.8967524,1.1252748,-8.264784,0.51714754
0.012772436,4.77653,-0.22020811,0.15612793,-0.8967524,1.1252748,-8.264784,0.51714754
0.011797886,4.7762685,-0.25429657,0.18062901,-0.85094607,1.0869676,-8.279149,0.48841715
0.010792957,4.775999,-0.25429657,0.18062901,-0.85094607,1.0869676,-8.279149,0.48841715
0.009880925,4.7757196,-0.2894503,0.19980377,-0.8051397,1.1348516,-8.355764,0.59376204
0.008963282,4.775439,-0.2894503,0.19980377,-0.8051397,1.1348516,-8.355764,0.59376204
0.008074564,4.7751145,-0.32673454,0.21578273,-0.76039857,1.1252748,-8.360553,0.58418524
0.0071946625,4.7747946,-0.32673454,0.21578273,-0.76039857,1.1252748,-8.360553,0.58418524
0.0063565997,4.774436,-0.36295354,0.23069644,-0.7156575,1.1252748,-8.379706,0.5793968
0.0055126282,4.7740765,-0.36295354,0.23069644,-0.7156575,1.1252748,-8.379706,0.5793968
0.0047207163,4.7736964,-0.397042,0.24347961,-0.6741122,1.1875241,-8.432379,0.6751649
0.0039288136,4.7733164,-0.397042,0.24347961,-0.6741122,1.1875241,-8.432379,0.6751649
0.0031766647,4.7729006,-0.42899993,0.25200173,-0.63256687,1.1731589,-8.451532,0.63206923
0.0024207355,4.772483,-0.42899993,0.25200173,-0.63256687,1.1731589,-8.451532,0.63206923
0.0017092434,4.772044,-0.45776206,0.26052386,-0.59421736,1.2306197,-8.451532,0.6751649
0.0009956583,4.7716045,-0.45776206,0.26052386,-0.59421736,1.2306197,-8.451532,0.6751649
0.0003157177,4.77114,-0.48226315,0.26904595,-0.5611941,1.2545617,-8.422802,0.6607997
6.2828174,4.7706738,-0.48226315,0.26904595,-0.5611941,1.2545617,-8.422802,0.6607997
6.2821703,4.7701917,-0.5046337,0.27650282,-0.53030145,1.3263878,-8.37013,0.7086837
6.281523,4.7697105,-0.5046337,0.27650282,-0.53030145,1.3263878,-8.37013,0.7086837
6.2809033,4.7692,-0.5227432,0.28395966,-0.4994088,1.3120226,-8.39886,0.5793968
6.2802825,4.768688,-0.5227432,0.28395966,-0.4994088,1.3120226,-8.39886,0.5793968
6.279694,4.7681694,-0.53872216,0.29141653,-0.4695814,1.3311762,-8.346188,0.6512229
6.2791057,4.7676506,-0.53872216,0.29141653,-0.4695814,1.3311762,-8.346188,0.6512229
6.278546,4.7671156,-0.5504401,0.2978081,-0.43975398,1.3742718,-8.384495,0.59376204
6.277986,4.7665806,-0.5504401,0.2978081,-0.43975398,1.3742718,-8.384495,0.59376204
6.2774534,4.7660265,-0.56109273,0.30526495,-0.4099266,1.3934253,-8.350976,0.51235914
6.276921,4.7654734,-0.56109273,0.30526495,-0.4099266,1.3934253,-8.350976,0.51235914
6.2764173,4.7649117,-0.5696148,0.309526,-0.38222972,1.4030021,-8.322245,0.48841715
6.2759132,4.76435,-0.5696148,0.309526,-0.38222972,1.4030021,-8.322245,0.48841715
6.2754345,4.7637763,-0.57707167,0.31378707,-0.3555981,1.4460979,-8.365341,0.45489833
6.274956,4.763205,-0.57707167,0.31378707,-0.3555981,1.4460979,-8.365341,0.45489833
6.274504,4.7626224,-0.5834633,0.3191134,-0.3289665,1.340753,-8.394072,0.40701428
6.274051,4.762039,-0.5834633,0.3191134,-0.3289665,1.340753,-8.394072,0.40701428
6.2736278,4.7614503,-0.5887896,0.3244397,-0.30020434,1.3072342,-8.451532,0.3878607
6.273204,4.7608614,-0.5887896,0.3244397,-0.30020434,1.3072342,-8.451532,0.3878607
6.2728095,4.7602577,-0.59305066,0.32976604,-0.27037695,1.3024458,-8.576031,0.29688102
6.272417,4.759657,-0.59305066,0.32976604,-0.27037695,1.3024458,-8.576031,0.29688102
6.2720513,4.759047,-0.5962465,0.33402708,-0.24268007,1.2306197,-8.556877,0.2681506
6.271685,4.7584386,-0.5962465,0.33402708,-0.24268007,1.2306197,-8.556877,0.2681506
6.271351,4.757823,-0.598377,0.33828816,-0.21285266,1.2258313,-8.595184,0.21547815
6.2710156,4.7572074,-0.598377,0.33828816,-0.21285266,1.2258313,-8.595184,0.21547815
6.270715,4.756584,-0.6005075,0.34148395,-0.17982946,1.1875241,-8.6334915,0.17238252
6.270414,4.755961,-0.6005075,0.34148395,-0.17982946,1.1875241,-8.6334915,0.17238252
6.2701445,4.755343,-0.60157275,0.34361446,-0.145741,1.1827357,-8.686164,0.22505496
6.269876,4.754728,-0.60157275,0.34361446,-0.145741,1.1827357,-8.686164,0.22505496
6.269639,4.754105,-0.6005075,0.34361446,-0.1159136,1.1587936,-8.724471,0.15801731
6.269401,4.753482,-0.6005075,0.34361446,-0.1159136,1.1587936,-8.724471,0.15801731
6.269192,4.752861,-0.598377,0.34361446,-0.08715145,1.1731589,-8.7532015,0.1436521
6.268983,4.7522397,-0.598377,0.34361446,-0.08715145,1.1731589,-8.7532015,0.1436521
6.2688074,4.7516165,-0.59305066,0.34467974,-0.05519352,1.2066777,-8.805874,0.076614454
6.2686324,4.7509966,-0.59305066,0.34467974,-0.05519352,1.2066777,-8.805874,0.076614454
6.2684894,4.7503734,-0.5877243,0.34361446,-0.026431382,1.1923125,-8.825027,0.0047884034
6.268346,4.74975,-0.5877243,0.34361446,-0.026431382,1.1923125,-8.825027,0.0047884034
6.2682266,4.749139,-0.57920223,0.3425492,0.00020022877,1.2066777,-8.834604,0.02873042
6.2681074,4.748528,-0.57920223,0.3425492,0.00020022877,1.2066777,-8.834604,0.02873042
6.2680135,4.7479253,-0.5696148,0.34041867,0.025766576,1.1971009,-8.863335,0.019153614
6.267919,4.747325,-0.5696148,0.34041867,0.025766576,1.1971009,-8.863335,0.019153614
6.2678504,4.746728,-0.5578969,0.33722287,0.047071867,1.2066777,-8.8777,-0.06703765
6.2677813,4.746131,-0.5578969,0.33722287,0.047071867,1.2066777,-8.8777,-0.06703765
6.26774,4.745539,-0.54617906,0.33509237,0.07050768,1.2210429,-8.896853,-0.14844051
6.267698,4.7449465,-0.54617906,0.33509237,0.07050768,1.2210429,-8.896853,-0.14844051
6.267676,4.744364,-0.5355264,0.33189657,0.09074771,1.2449849,-8.882488,-0.17238252
6.2676535,4.743782,-0.5355264,0.33189657,0.09074771,1.2449849,-8.882488,-0.17238252
6.2676473,4.743213,-0.5227432,0.3276355,0.10566141,1.2258313,-8.901642,-0.18674773
6.2676406,4.742643,-0.5227432,0.3276355,0.10566141,1.2258313,-8.901642,-0.18674773
6.2676544,4.742076,-0.51209056,0.3244397,0.120575115,1.1875241,-8.911219,-0.2633622
6.267668,4.741503,-0.51209056,0.3244397,0.120575115,1.1875241,-8.911219,-0.2633622
6.2676926,4.7409487,-0.50250316,0.32017866,0.13548881,1.2641385,-8.935161,-0.25857377
6.2677164,4.740403,-0.50250316,0.32017866,0.13548881,1.2641385,-8.935161,-0.25857377
6.267752,4.7398643,-0.49185053,0.31485233,0.14720672,1.2306197,-8.954314,-0.24899697
6.2677875,4.739322,-0.49185053,0.31485233,0.14720672,1.2306197,-8.954314,-0.24899697
6.2678437,4.738779,-0.48332843,0.3127218,0.15892464,1.1875241,-8.973468,-0.36391866
6.267899,4.7382355,-0.48332843,0.3127218,0.15892464,1.1875241,-8.973468,-0.36391866
6.2679634,4.737704,-0.47267577,0.309526,0.16744675,1.1875241,-8.963891,-0.38307226
6.2680283,4.7371683,-0.47267577,0.309526,0.16744675,1.1875241,-8.963891,-0.38307226
6.268101,4.7366447,-0.4630884,0.3063302,0.1749036,1.1779473,-8.949526,-0.40701428
6.268173,4.7361226,-0.4630884,0.3063302,0.1749036,1.1779473,-8.949526,-0.40701428
6.2682557,4.7356067,-0.45243576,0.30206916,0.18129519,1.1300632,-8.992621,-0.4309563
6.2683372,4.735091,-0.45243576,0.30206916,0.18129519,1.1300632,-8.992621,-0.4309563
6.268423,4.7345877,-0.44284838,0.2978081,0.18875204,1.1204864,-8.978256,-0.38307226
6.268508,4.734084,-0.44284838,0.2978081,0.18875204,1.1204864,-8.978256,-0.38307226
6.2686014,4.733592,-0.43113047,0.29461232,0.1962089,1.091756,-9.011775,-0.38307226
6.2686944,4.7330985,-0.43113047,0.29461232,0.1962089,1.091756,-9.011775,-0.38307226
6.268795,4.73262,-0.41941255,0.289286,0.20579627,1.0773908,-9.006987,-0.36391866
6.2688956,4.73214,-0.41941255,0.289286,0.20579627,1.0773908,-9.006987,-0.36391866
6.2690086,4.73167,-0.40662938,0.28395966,0.21431838,1.0869676,-9.074024,-0.4213795
6.26912,4.731201,-0.40662938,0.28395966,0.21431838,1.0869676,-9.074024,-0.4213795
6.269239,4.730744,-0.39171568,0.27650282,0.2228405,1.0199299,-9.045294,-0.34955344
6.269355,4.7302957,-0.39171568,0.27650282,0.2228405,1.0199299,-9.045294,-0.34955344
6.269479,4.729857,-0.3757367,0.27011123,0.23136261,1.0055647,-9.021352,-0.30645782
6.2696004,4.7294235,-0.3757367,0.27011123,0.23136261,1.0055647,-9.021352,-0.30645782
6.2697315,4.7290053,-0.3576272,0.26265436,0.2377542,0.9959879,-8.99741,-0.34476504
6.2698617,4.728588,-0.3576272,0.26265436,0.2377542,0.9959879,-8.99741,-0.34476504
6.269995,4.728191,-0.3395177,0.25413227,0.24308053,1.0199299,-8.954314,-0.34476504
6.2701287,4.727793,-0.3395177,0.25413227,0.24308053,1.0199299,-8.954314,-0.34476504
6.270265,4.7274203,-0.3192777,0.24454488,0.25053737,1.0390835,-8.916007,-0.31124622
6.2704015,4.727047,-0.3192777,0.24454488,0.25053737,1.0390835,-8.916007,-0.31124622
6.2705398,4.726699,-0.29690716,0.23602276,0.25479844,0.9768343,-8.896853,-0.2633622
6.270678,4.7263503,-0.29690716,0.23602276,0.25479844,0.9768343,-8.896853,-0.2633622
6.2708178,4.726031,-0.27347133,0.22430485,0.26119003,1.0247183,-8.892065,-0.23463176
6.270957,4.7257113,-0.27347133,0.22430485,0.26119003,1.0247183,-8.892065,-0.23463176
6.2711024,4.7254143,-0.2500355,0.21152169,0.26651633,0.9959879,-8.815451,-0.23463176
6.2712407,4.725131,-0.2500355,0.21152169,0.26651633,0.9959879,-8.815451,-0.23463176
6.2713823,4.7248716,-0.22553442,0.1987385,0.2707774,0.9911995,-8.805874,-0.1340753
6.2715297,4.7246,-0.22553442,0.1987385,0.2707774,0.9911995,-8.805874,-0.1340753
6.2716756,4.7243695,-0.19996808,0.18489006,0.277169,0.9528923,-8.7771435,-0.10534488
6.271822,4.724138,-0.19996808,0.18489006,0.277169,0.9528923,-8.7771435,-0.10534488
6.271973,4.7239375,-0.17333646,0.17317216,0.28462583,0.9720459,-8.772355,-0.08619126
6.2721252,4.723736,-0.17333646,0.17317216,0.28462583,0.9720459,-8.772355,-0.08619126
6.272285,4.7235675,-0.14670485,0.16038899,0.2952785,0.9720459,-8.738836,-0.05267244
6.272445,4.723399,-0.14670485,0.16038899,0.2952785,0.9720459,-8.738836,-0.05267244
6.2726126,4.723261,-0.11794271,0.14547528,0.3038006,1.0055647,-8.743625,-0.047884032
6.27278,4.723123,-0.11794271,0.14547528,0.3038006,1.0055647,-8.743625,-0.047884032
6.2729564,4.723013,-0.091311105,0.13269211,0.3123227,0.9720459,-8.719683,-0.033518825
6.273132,4.7229033,-0.091311105,0.13269211,0.3123227,0.9720459,-8.719683,-0.033518825
6.273316,4.7228203,-0.06361423,0.118843675,0.32084483,0.9528923,-8.66701,-0.038307227
6.2735004,4.7227373,-0.06361423,0.118843675,0.32084483,0.9528923,-8.66701,-0.038307227
6.2736964,4.722676,-0.035917353,0.104995236,0.3304322,1.0103531,-8.686164,-0.090979666
6.273891,4.722615,-0.035917353,0.104995236,0.3304322,1.0103531,-8.686164,-0.090979666
6.274092,4.7225885,-0.010351005,0.09327733,0.33895433,1.0055647,-8.7053175,-0.019153614
6.274293,4.7225633,-0.010351005,0.09327733,0.33895433,1.0055647,-8.7053175,-0.019153614
6.2745,4.7225614,0.015215342,0.08049415,0.34428066,0.9576807,-8.695741,-0.023942016
6.2747064,4.7225595,0.015215342,0.08049415,0.34428066,0.9576807,-8.695741,-0.023942016
6.2749147,4.7225914,0.03865116,0.06877624,0.34747645,0.92895025,-8.78672,0.04309563
6.2751236,4.722623,0.03865116,0.06877624,0.34747645,0.92895025,-8.78672,0.04309563
6.2753363,4.7226915,0.062086977,0.0581236,0.3517375,0.866701,-8.7292595,0.12449849
6.275549,4.72276,0.062086977,0.0581236,0.3517375,0.866701,-8.7292595,0.12449849
6.275765,4.7228518,0.082327,0.04853622,0.35386804,0.770933,-8.801085,0.1388637
6.27598,4.722944,0.082327,0.04853622,0.35386804,0.770933,-8.801085,0.1388637
6.2761974,4.7230687,0.104697555,0.037883572,0.35280275,0.7182605,-8.796297,0.18674773
6.2764125,4.723192,0.104697555,0.037883572,0.35280275,0.7182605,-8.796297,0.18674773
6.276631,4.723347,0.12600285,0.026165664,0.35067225,0.6607997,-8.892065,0.22505496
6.276849,4.7235017,0.12600285,0.026165664,0.35067225,0.6607997,-8.892065,0.22505496
6.2770667,4.7236814,0.14624287,0.01551302,0.3485417,0.45010993,-8.901642,0.20111294
6.2772846,4.723861,0.14624287,0.01551302,0.3485417,0.45010993,-8.901642,0.20111294
6.2775283,4.7240915,0.16435237,0.0005993177,0.34641117,0.36870706,-8.978256,0.30645782
6.2777715,4.724322,0.16435237,0.0005993177,0.34641117,0.36870706,-8.978256,0.30645782
6.277995,4.724552,0.18352713,-0.016444914,0.3453459,0.51235914,-9.074024,0.2873042
6.2782183,4.724783,0.18352713,-0.016444914,0.3453459,0.51235914,-9.074024,0.2873042
6.278419,4.7249866,0.20376715,-0.03242388,0.34108487,0.62728083,-9.097966,0.11492168
6.27862,4.7251906,0.20376715,-0.03242388,0.34108487,0.62728083,-9.097966,0.11492168
6.2788153,4.725404,0.22187665,-0.043076526,0.33575854,0.6703765,-9.040505,0.076614454
6.2788153,4.725404,0.22187665,-0.043076526,0.33575854,0.6703765,-9.040505,0.076614454
6.2792478,4.725882,0.23892088,-0.052663904,0.32510588,0.6368576,-9.040505,0.10534488
6.2792478,4.725882,0.23892088,-0.052663904,0.32510588,0.6368576,-9.040505,0.10534488
6.279572,4.7263136,0.25276932,-0.062251285,0.3091269,0.5602432,-9.150639,0.19632454
6.279746,4.726589,0.25276932,-0.062251285,0.3091269,0.5602432,-9.150639,0.19632454
6.2799063,4.7268777,0.2655525,-0.0707734,0.28995216,0.38307226,-9.193734,0.1388637
6.280052,4.72714,0.2655525,-0.0707734,0.28995216,0.38307226,-9.193734,0.1388637
6.280174,4.7274137,0.27620512,-0.079295516,0.2675816,0.33518824,-9.222465,0.16280572
6.280174,4.7274137,0.27620512,-0.079295516,0.2675816,0.33518824,-9.222465,0.16280572
6.2804203,4.7279835,0.28792304,-0.08675237,0.24627632,0.21547815,-9.251195,0.15801731
6.2805204,4.728266,0.28792304,-0.08675237,0.24627632,0.21547815,-9.251195,0.15801731
6.2806325,4.7285147,0.2985757,-0.09740501,0.22497103,0.14844051,-9.323022,0.08619126
6.280742,4.728754,0.2985757,-0.09740501,0.22497103,0.14844051,-9.323022,0.08619126
6.2808104,4.7290325,0.30922833,-0.106992394,0.20366573,0.090979666,-9.409213,0.1388637
6.2808814,4.72931,0.30922833,-0.106992394,0.20366573,0.090979666,-9.409213,0.1388637
6.281069,4.729726,0.31988096,-0.11764504,0.18342571,0.01436521,-9.442732,0.2633622
6.2812557,4.7301445,0.31988096,-0.11764504,0.18342571,0.01436521,-9.442732,0.2633622
6.2814407,4.7305746,0.33159888,-0.12723242,0.16318569,0,-9.485827,0.24420857
6.2816257,4.731007,0.33159888,-0.12723242,0.16318569,0,-9.485827,0.24420857
6.281856,4.7314296,0.34544733,-0.13895033,0.148272,-0.110133275,-9.562442,0.29209262
6.282089,4.7318535,0.34544733,-0.13895033,0.148272,-0.110133275,-9.562442,0.29209262
6.282318,4.7322865,0.3582305,-0.14747244,0.13442355,-0.18674773,-9.624691,0.33518824
6.2825456,4.7327156,0.3582305,-0.14747244,0.13442355,-0.18674773,-9.624691,0.33518824
6.2827897,4.733123,0.37207893,-0.15599456,0.12270564,-0.22505496,-9.595961,0.2681506
6.2830524,4.7335587,0.37207893,-0.15599456,0.12270564,-0.22505496,-9.595961,0.2681506
9.013981e-05,4.7339683,0.3848621,-0.1634514,0.11418352,-0.34476504,-9.639056,0.33039984
0.00036926303,4.734478,0.3848621,-0.1634514,0.11418352,-0.34476504,-9.639056,0.33039984
0.0005599522,4.734825,0.3976453,-0.16984299,0.103530884,-0.41180268,-9.677363,0.29688102
0.00079138455,4.7352443,0.3976453,-0.16984299,0.103530884,-0.41180268,-9.677363,0.29688102
0.0010127411,4.735686,0.41042846,-0.17623459,0.0939435,-0.39264908,-9.773131,0.31603462
0.0012337046,4.7361245,0.41042846,-0.17623459,0.0939435,-0.39264908,-9.773131,0.31603462
0.0014519733,4.736567,0.42321163,-0.18262617,0.08648665,-0.45010993,-9.792285,0.29688102
0.0016738134,4.7370152,0.42321163,-0.18262617,0.08648665,-0.45010993,-9.792285,0.29688102
0.0018875689,4.737454,0.43173376,-0.18795249,0.08116033,-0.51235914,-9.821015,0.2777274
0.0021029154,4.737894,0.43173376,-0.18795249,0.08116033,-0.51235914,-9.821015,0.2777274
0.0023126493,4.73833,0.43812534,-0.19327882,0.07476874,-0.59376204,-9.907207,0.23942018
0.002522265,4.738764,0.43812534,-0.19327882,0.07476874,-0.59376204,-9.907207,0.23942018
0.002727215,4.7392116,0.4423864,-0.19434407,0.07050768,-0.6464345,-9.911995,0.2825158
0.0029321695,4.7396584,0.4423864,-0.19434407,0.07050768,-0.6464345,-9.911995,0.2825158
0.0031264683,4.740122,0.4423864,-0.19647461,0.0641161,-0.6560113,-9.916783,0.36870706
0.0033217568,4.740586,0.4423864,-0.19647461,0.0641161,-0.6560113,-9.916783,0.36870706
0.0035080367,4.7410445,0.43812534,-0.19753987,0.055593982,-0.79487497,-9.9790325,0.39264908
0.0036942607,4.7415023,0.43812534,-0.19753987,0.055593982,-0.79487497,-9.9790325,0.39264908
0.0038743317,4.741952,0.42960322,-0.19753987,0.049202394,-0.89543146,-10.055647,0.41180268
0.0040541845,4.7424,0.42960322,-0.19753987,0.049202394,-0.89543146,-10.055647,0.41180268
0.004234907,4.742851,0.4178853,-0.19540934,0.044941336,-0.94810385,-10.156203,0.4309563
0.0044052056,4.743275,0.4178853,-0.19540934,0.044941336,-0.94810385,-10.156203,0.4309563
0.004573209,4.743704,0.4061674,-0.19221355,0.03854975,-1.0821792,-10.218452,0.48362875
0.004739802,4.744129,0.4061674,-0.19221355,0.03854975,-1.0821792,-10.218452,0.48362875
0.0049003274,4.744543,0.39018843,-0.19008303,0.031092897,-1.1013328,-10.280702,0.49799395
0.0050604884,4.7449555,0.39018843,-0.19008303,0.031092897,-1.1013328,-10.280702,0.49799395
0.00521545,4.745343,0.37101367,-0.18582197,0.023636047,-1.1587936,-10.400413,0.46447513
0.005371552,4.7457333,0.37101367,-0.18582197,0.023636047,-1.1587936,-10.400413,0.46447513
0.0055195927,4.7460914,0.35290417,-0.1815609,0.016179197,-1.163582,-10.419566,0.40222588
0.0056707277,4.746456,0.35290417,-0.1815609,0.016179197,-1.163582,-10.419566,0.40222588
0.0058137043,4.7468033,0.33159888,-0.17943038,0.00765708,-1.1300632,-10.491392,0.4213795
0.0059514903,4.747137,0.33159888,-0.17943038,0.00765708,-1.1300632,-10.491392,0.4213795
0.006081433,4.747445,0.30922833,-0.17623459,-0.0029955646,-1.115698,-10.524911,0.35913026
0.006211601,4.7477527,0.30922833,-0.17623459,-0.0029955646,-1.115698,-10.524911,0.35913026
0.006330255,4.7480435,0.28685778,-0.17197353,-0.014713474,-1.1731589,-10.58716,0.40222588
0.0064487658,4.748334,0.28685778,-0.17197353,-0.014713474,-1.1731589,-10.58716,0.40222588
0.006556183,4.748598,0.26448724,-0.16771246,-0.026431382,-1.1923125,-10.635044,0.36870706
0.0066635692,4.7488613,0.26448724,-0.16771246,-0.026431382,-1.1923125,-10.635044,0.36870706
0.006756868,4.7491074,0.24318193,-0.1634514,-0.04027982,-1.2162545,-10.673351,0.40222588
0.0068507204,4.7493534,0.24318193,-0.1634514,-0.04027982,-1.2162545,-10.673351,0.40222588
0.0069304924,4.7495837,0.22400717,-0.15919036,-0.05412826,-1.1827357,-10.70687,0.4309563
0.007009664,4.749812,0.22400717,-0.15919036,-0.05412826,-1.1827357,-10.70687,0.4309563
0.0070757754,4.750016,0.20696294,-0.1549293,-0.0679767,-1.1252748,-10.7356,0.37349546
0.0071418355,4.75022,0.20696294,-0.1549293,-0.0679767,-1.1252748,-10.7356,0.37349546
0.007194572,4.7504187,0.18991871,-0.14853771,-0.08075987,-1.1348516,-10.730812,0.46447513
0.007247368,4.750617,0.18991871,-0.14853771,-0.08075987,-1.1348516,-10.730812,0.46447513
0.0072881607,4.750793,0.17287448,-0.14321138,-0.093543045,-1.0534488,-10.773908,0.4261679
0.0073288847,4.750968,0.17287448,-0.14321138,-0.093543045,-1.0534488,-10.773908,0.4261679
0.0073573417,4.7511277,0.16009131,-0.1368198,-0.106326215,-1.0821792,-10.783484,0.40222588
0.00738565,4.7512865,0.16009131,-0.1368198,-0.106326215,-1.0821792,-10.783484,0.40222588
0.0074016084,4.7514343,0.14730814,-0.12723242,-0.11804412,-1.0486604,-10.769119,0.45489833
0.0074187894,4.751593,0.14730814,-0.12723242,-0.11804412,-1.0486604,-10.769119,0.45489833
0.007424541,4.751725,0.13452496,-0.11551451,-0.12976204,-1.0007763,-10.778696,0.40222588
0.0074302577,4.751857,0.13452496,-0.11551451,-0.12976204,-1.0007763,-10.778696,0.40222588
0.007424654,4.7519727,0.120676525,-0.1037966,-0.14147994,-0.9864111,-10.769119,0.3878607
0.0074190465,4.7520885,0.120676525,-0.1037966,-0.14147994,-0.9864111,-10.769119,0.3878607
0.0074040196,4.7521853,0.106828086,-0.08994816,-0.15106732,-0.9911995,-10.759542,0.35913026
0.0073889927,4.752282,0.106828086,-0.08994816,-0.15106732,-0.9911995,-10.759542,0.35913026
0.007365753,4.7523603,0.09084912,-0.07396919,-0.15958944,-0.93373865,-10.783484,0.34955344
0.007342486,4.7524385,0.09084912,-0.07396919,-0.15958944,-0.93373865,-10.783484,0.34955344
0.007304967,4.7524786,0.075935416,-0.0558597,-0.1670463,-0.8858546,-10.773908,0.21068975
0.0072674546,4.7525187,0.075935416,-0.0558597,-0.1670463,-0.8858546,-10.773908,0.21068975
0.0072267293,4.7525415,0.05782592,-0.037750203,-0.17130736,-0.90021986,-10.769119,0.21068975
0.0071860584,4.7525635,0.05782592,-0.037750203,-0.17130736,-0.90021986,-10.769119,0.21068975
0.0071411696,4.752568,0.040781688,-0.017510178,-0.1755684,-0.8283938,-10.82658,0.22505496
0.007096419,4.752572,0.040781688,-0.017510178,-0.1755684,-0.8283938,-10.82658,0.22505496
0.0070510185,4.7525587,0.023737457,0.0027298466,-0.17663367,-0.78529817,-10.793061,0.23463176
0.007005689,4.752546,0.023737457,0.0027298466,-0.17663367,-0.78529817,-10.793061,0.23463176
0.0069652563,4.752525,0.0045626974,0.024035135,-0.17769894,-0.7374141,-10.773908,0.31124622
0.006924924,4.7525043,0.0045626974,0.024035135,-0.17769894,-0.7374141,-10.773908,0.31124622
0.0068801846,4.75245,-0.013546798,0.04427516,-0.1755684,-0.7613561,-10.769119,0.21547815
0.006835549,4.7523956,-0.013546798,0.04427516,-0.1755684,-0.7613561,-10.769119,0.21547815
0.0067963367,4.7523336,-0.029525764,0.06451519,-0.1755684,-0.7469909,-10.793061,0.272939
0.0067571555,4.7522726,-0.029525764,0.06451519,-0.1755684,-0.7469909,-10.793061,0.272939
0.0067231916,4.752199,-0.046569996,0.087951005,-0.17343788,-0.79008657,-10.788273,0.29209262
0.006689376,4.752126,-0.046569996,0.087951005,-0.17343788,-0.79008657,-10.788273,0.29209262
0.006660472,4.7520366,-0.06574476,0.10925629,-0.17024209,-0.80445176,-10.745177,0.30645782
0.006631803,4.751948,-0.06574476,0.10925629,-0.17024209,-0.80445176,-10.745177,0.30645782
0.006601731,4.751828,-0.08278899,0.12949632,-0.1670463,-0.79966336,-10.773908,0.22984336
0.0065718605,4.751709,-0.08278899,0.12949632,-0.1670463,-0.79966336,-10.773908,0.22984336
0.006549578,4.7515907,-0.09770269,0.14973634,-0.16598102,-0.78050977,-10.79785,0.320823
0.0065272893,4.751472,-0.09770269,0.14973634,-0.16598102,-0.78050977,-10.79785,0.320823
0.0065059657,4.751334,-0.11368166,0.1689111,-0.16491576,-0.7661445,-10.788273,0.30645782
0.0064847465,4.7511973,-0.11368166,0.1689111,-0.16491576,-0.7661445,-10.788273,0.30645782
0.0064665633,4.7510448,-0.12966062,0.18595533,-0.16278523,-0.80924016,-10.783484,0.30166942
0.006448382,4.7508926,-0.12966062,0.18595533,-0.16278523,-0.80924016,-10.783484,0.30166942
0.0064329244,4.750724,-0.1456396,0.20299956,-0.16065471,-0.7661445,-10.783484,0.30645782
0.0064175166,4.750556,-0.1456396,0.20299956,-0.16065471,-0.7661445,-10.783484,0.30645782
0.006396694,4.7503624,-0.16268381,0.21365221,-0.1638505,-0.7374141,-10.764331,0.2681506
0.0063759806,4.75017,-0.16268381,0.21365221,-0.1638505,-0.7374141,-10.764331,0.2681506
0.0063543865,4.749973,-0.17759752,0.22217433,-0.16811156,-0.7086837,-10.754754,0.320823
0.0063328417,4.749776,-0.17759752,0.22217433,-0.16811156,-0.7086837,-10.754754,0.320823
0.0063078534,4.749565,-0.19357648,0.23069644,-0.17237261,-0.7374141,-10.754754,0.32561144
0.006282827,4.7493544,-0.19357648,0.23069644,-0.17237261,-0.7374141,-10.754754,0.32561144
0.0062501566,4.749152,-0.20742492,0.23602276,-0.18089473,-0.6799533,-10.70687,0.4261679
0.0062173237,4.74895,-0.20742492,0.23602276,-0.18089473,-0.6799533,-10.70687,0.4261679
0.0061771497,4.7487354,-0.22020811,0.24028382,-0.18835159,-0.62728083,-10.697293,0.4213795
0.0061368737,4.748522,-0.22020811,0.24028382,-0.18835159,-0.62728083,-10.697293,0.4213795
0.006087017,4.7483,-0.23086074,0.24347961,-0.19793896,-0.6368576,-10.654198,0.4261679
0.006036508,4.748077,-0.23086074,0.24347961,-0.19793896,-0.6368576,-10.654198,0.4261679
0.0059699933,4.747863,-0.23938286,0.24561015,-0.20859161,-0.6464345,-10.658986,0.50278234
0.0059032054,4.7476497,-0.23938286,0.24561015,-0.20859161,-0.6464345,-10.658986,0.50278234
0.005823208,4.7474394,-0.24577445,0.24561015,-0.21817899,-0.58897364,-10.601525,0.521936
0.0057448656,4.7472343,-0.24577445,0.24561015,-0.21817899,-0.58897364,-10.601525,0.521936
0.0056500053,4.747028,-0.2500355,0.24561015,-0.22776636,-0.60812724,-10.577583,0.5650316
0.0055530434,4.746818,-0.2500355,0.24561015,-0.22776636,-0.60812724,-10.577583,0.5650316
0.0054453327,4.746608,-0.25429657,0.24347961,-0.23841901,-0.59855044,-10.500969,0.5650316
0.005337968,4.746399,-0.25429657,0.24347961,-0.23841901,-0.59855044,-10.500969,0.5650316
0.0052216877,4.746182,-0.25749236,0.24134909,-0.2501369,-0.5650316,-10.500969,0.5267244
0.005105551,4.7459655,-0.25749236,0.24134909,-0.2501369,-0.5650316,-10.500969,0.5267244
0.0049838144,4.745731,-0.26068816,0.23708802,-0.26292008,-0.5650316,-10.496181,0.45968673
0.0048622545,4.745497,-0.26068816,0.23708802,-0.26292008,-0.5650316,-10.496181,0.45968673
0.0047106487,4.745284,-0.2649492,0.23389223,-0.2778338,-0.545878,-10.472239,0.5650316
0.0045578773,4.7450695,-0.2649492,0.23389223,-0.2778338,-0.545878,-10.472239,0.5650316
0.00440204,4.744846,-0.26707974,0.22963117,-0.28742117,-0.50278234,-10.366894,0.50278234
0.004244769,4.7446213,-0.26707974,0.22963117,-0.28742117,-0.50278234,-10.366894,0.50278234
0.004078536,4.744396,-0.27027553,0.22323959,-0.2959433,-0.50278234,-10.357317,0.50757074
0.0039129765,4.744173,-0.27027553,0.22323959,-0.2959433,-0.50278234,-10.357317,0.50757074
0.0037358974,4.7439475,-0.27453658,0.2200438,-0.30553067,-0.46926352,-10.314221,0.50278234
0.00355615,4.74372,-0.27453658,0.2200438,-0.30553067,-0.46926352,-10.314221,0.50278234
0.0033687109,4.743481,-0.27773237,0.216848,-0.3129875,-0.46447513,-10.223241,0.47884035
0.003190063,4.7432547,-0.27773237,0.216848,-0.3129875,-0.46447513,-10.223241,0.47884035
0.0030144276,4.7429943,-0.28092816,0.21471748,-0.31831384,-0.40701428,-10.141838,0.37349546
0.0028384416,4.7427354,-0.28092816,0.21471748,-0.31831384,-0.40701428,-10.141838,0.37349546
0.002659414,4.7424707,-0.2862545,0.21258694,-0.32044438,-0.3878607,-10.093954,0.36870706
0.002659414,4.7424707,-0.2862545,0.21258694,-0.32044438,-0.3878607,-10.093954,0.36870706
0.002659414,4.7424707,-0.2862545,0.21258694,-0.32044438,-0.3878607,-10.093954,0.36870706
0.002081901,4.741594,-0.29690716,0.20726062,-0.3257707,-0.20111294,-10.0029745,0.31603462
0.0019484287,4.7413898,-0.29690716,0.20726062,-0.3257707,-0.20111294,-10.0029745,0.31603462
0.0017494167,4.741087,-0.29690716,0.20726062,-0.3257707,-0.20111294,-10.0029745,0.31603462
0.001563706,4.740788,-0.30329874,0.20619535,-0.3289665,-0.12928689,-9.940725,0.29209262
0.0013829214,4.7405014,-0.30329874,0.20619535,-0.3289665,-0.12928689,-9.940725,0.29209262
0.0011588685,4.740214,-0.30969033,0.2051301,-0.331097,-0.095768064,-9.902418,0.31124622
0.0009779956,4.7399855,-0.30969033,0.2051301,-0.331097,-0.095768064,-9.902418,0.31124622
0.00078283995,4.7397094,-0.3160819,0.20406483,-0.3321623,-0.076614454,-9.873688,0.29209262
0.000583964,4.739435,-0.3160819,0.20406483,-0.3321623,-0.076614454,-9.873688,0.29209262
0.0003472058,4.7391863,-0.32353875,0.20299956,-0.3342928,-0.06703765,-9.840169,0.31603462
0.00010985846,4.738938,-0.32353875,0.20299956,-0.3342928,-0.06703765,-9.840169,0.31603462
6.283042,4.7386904,-0.32993034,0.2019343,-0.33535808,-0.047884032,-9.816227,0.31124622
6.2827883,4.738443,-0.32993034,0.2019343,-0.33535808,-0.047884032,-9.816227,0.31124622
6.282545,4.738185,-0.33525667,0.20086904,-0.33642334,-0.038307227,-9.787497,0.29209262
6.282301,4.737927,-0.33525667,0.20086904,-0.33642334,-0.038307227,-9.787497,0.29209262
6.2820864,4.737547,-0.3395177,0.19980377,-0.3374886,-0.05746084,-9.768343,0.24899697
6.2819157,4.737252,-0.3395177,0.19980377,-0.3374886,-0.05746084,-9.768343,0.24899697
6.2817225,4.736933,-0.3437788,0.19980377,-0.3342928,-0.08140286,-9.725247,0.25857377
6.2815275,4.736618,-0.3437788,0.19980377,-0.3342928,-0.08140286,-9.725247,0.25857377
6.2812977,4.7363434,-0.34697458,0.19767325,-0.33003175,-0.05267244,-9.715671,0.2873042
6.2810674,4.73607,-0.34697458,0.19767325,-0.33003175,-0.05267244,-9.715671,0.2873042
6.280851,4.7357903,-0.3491051,0.19767325,-0.32150963,-0.033518825,-9.753978,0.2681506
6.280633,4.735511,-0.3491051,0.19767325,-0.32150963,-0.033518825,-9.753978,0.2681506
6.280466,4.7351723,-0.35017037,0.19767325,-0.3097917,-0.08140286,-9.739613,0.23463176
6.280299,4.73484,-0.35017037,0.19767325,-0.3097917,-0.08140286,-9.739613,0.23463176
6.280135,4.734532,-0.35017037,0.19767325,-0.2959433,-0.06703765,-9.715671,0.24899697
6.2799683,4.7342257,-0.35017037,0.19767325,-0.2959433,-0.06703765,-9.715671,0.24899697
6.2798314,4.7338815,-0.35123563,0.20086904,-0.28102958,-0.1340753,-9.744401,0.22026655
6.2796926,4.7335367,-0.35123563,0.20086904,-0.28102958,-0.1340753,-9.744401,0.22026655
6.2795753,4.7331905,-0.35230088,0.2019343,-0.26185483,-0.10534488,-9.739613,0.21068975
6.2794576,4.732848,-0.35230088,0.2019343,-0.26185483,-0.10534488,-9.739613,0.21068975
6.279345,4.732459,-0.35336617,0.2051301,-0.24694112,-0.090979666,-9.787497,0.16280572
6.2792335,4.7320714,-0.35336617,0.2051301,-0.24694112,-0.090979666,-9.787497,0.16280572
6.279145,4.731737,-0.35443142,0.20939115,-0.22989689,-0.08619126,-9.811439,0.21068975
6.279055,4.731406,-0.35443142,0.20939115,-0.22989689,-0.08619126,-9.811439,0.21068975
6.278985,4.731064,-0.35656196,0.21258694,-0.21285266,-0.110133275,-9.844957,0.20111294
6.2789145,4.7307243,-0.35656196,0.21258694,-0.21285266,-0.110133275,-9.844957,0.20111294
6.278848,4.7303276,-0.35975775,0.216848,-0.20006949,-0.18674773,-9.854534,0.11492168
6.2787833,4.7299337,-0.35975775,0.216848,-0.20006949,-0.18674773,-9.854534,0.11492168
6.278718,4.729519,-0.36295354,0.22110906,-0.18835159,-0.15322891,-9.864111,0.08619126
6.2786536,4.7291036,-0.36295354,0.22110906,-0.18835159,-0.15322891,-9.864111,0.08619126
6.2785983,4.7286863,-0.36614934,0.22430485,-0.17663367,-0.12449849,-9.911995,0.08619126
6.2785444,4.7282677,-0.36614934,0.22430485,-0.17663367,-0.12449849,-9.911995,0.08619126
6.2784905,4.7278385,-0.36934513,0.22537012,-0.17343788,-0.11492168,-9.854534,0.08140286
6.27844,4.727417,-0.36934513,0.22537012,-0.17343788,-0.11492168,-9.854534,0.08140286
6.2784104,4.727035,-0.37147567,0.22537012,-0.17130736,-0.06703765,-9.859323,0.1340753
6.2783813,4.726651,-0.37147567,0.22537012,-0.17130736,-0.06703765,-9.859323,0.1340753
6.278329,4.7262225,-0.37254092,0.22537012,-0.17024209,-0.04309563,-9.878476,0.095768064
6.2782803,4.725801,-0.37254092,0.22537012,-0.17024209,-0.04309563,-9.878476,0.095768064
6.2782397,4.7253942,-0.37041038,0.22323959,-0.17343788,-0.04309563,-9.816227,0.10534488
6.2782016,4.724991,-0.37041038,0.22323959,-0.17343788,-0.04309563,-9.816227,0.10534488
6.278145,4.724576,-0.3672146,0.2200438,-0.18089473,0.0047884034,-9.787497,0.10534488
6.278095,4.72417,-0.3672146,0.2200438,-0.18089473,0.0047884034,-9.787497,0.10534488
6.2779517,4.7239017,-0.36295354,0.21471748,-0.19154738,0.02873042,-9.768343,0.15801731
6.277808,4.723634,-0.36295354,0.21471748,-0.19154738,0.02873042,-9.768343,0.15801731
6.277649,4.723371,-0.3576272,0.21045642,-0.20220003,0.019153614,-9.739613,0.18674773
6.2774906,4.72311,-0.3576272,0.21045642,-0.20220003,0.019153614,-9.739613,0.18674773
6.2772784,4.722861,-0.3491051,0.2051301,-0.2117874,0.05746084,-9.720459,0.19632454
6.2770686,4.7226114,-0.3491051,0.2051301,-0.2117874,0.05746084,-9.720459,0.19632454
6.2768297,4.7223725,-0.33845246,0.1987385,-0.22457057,0.08140286,-9.667787,0.22984336
6.2765923,4.722133,-0.33845246,0.1987385,-0.22457057,0.08140286,-9.667787,0.22984336
6.276325,4.721903,-0.32779983,0.19341218,-0.23628849,0.11971009,-9.643845,0.25857377
6.27606,4.721672,-0.32779983,0.19341218,-0.23628849,0.11971009,-9.643845,0.25857377
6.2757955,4.7214527,-0.31821242,0.18915112,-0.24587587,0.095768064,-9.615114,0.22026655
6.275533,4.721234,-0.31821242,0.18915112,-0.24587587,0.095768064,-9.615114,0.22026655
6.275241,4.7210245,-0.30542925,0.18169427,-0.254398,0.1340753,-9.557653,0.22984336
6.2749505,4.7208157,-0.30542925,0.18169427,-0.254398,0.1340753,-9.557653,0.22984336
6.2746577,4.7206173,-0.29584187,0.17530268,-0.2597243,0.12928689,-9.5385,0.22026655
6.274367,4.7204185,-0.29584187,0.17530268,-0.2597243,0.12928689,-9.5385,0.22026655
6.2740507,4.7202253,-0.28518924,0.16997637,-0.26292008,0.17238252,-9.528923,0.22505496
6.273738,4.7200336,-0.28518924,0.16997637,-0.26292008,0.17238252,-9.528923,0.22505496
6.273422,4.7198505,-0.27560186,0.1657153,-0.26398537,0.17238252,-9.471462,0.21547815
6.2731075,4.719668,-0.27560186,0.1657153,-0.26398537,0.17238252,-9.471462,0.21547815
6.2728057,4.7194967,-0.26707974,0.16145425,-0.26292008,0.15322891,-9.452309,0.20590134
6.272491,4.719318,-0.26707974,0.16145425,-0.26292008,0.15322891,-9.452309,0.20590134
6.272211,4.7191634,-0.2596229,0.1571932,-0.25865903,0.16759412,-9.428367,0.22984336
6.271916,4.719,-0.2596229,0.1571932,-0.25865903,0.16759412,-9.428367,0.22984336
6.271642,4.718847,-0.2532313,0.15293214,-0.25226745,0.1388637,-9.370906,0.19632454
6.27137,4.7186937,-0.2532313,0.15293214,-0.25226745,0.1388637,-9.370906,0.19632454
6.2710752,4.718539,-0.24683972,0.1508016,-0.2448106,0.18195933,-9.356541,0.19632454
6.270787,4.718388,-0.24683972,0.1508016,-0.2448106,0.18195933,-9.356541,0.19632454
6.2705173,4.718242,-0.24364392,0.14867108,-0.23522322,0.16280572,-9.3421755,0.18195933
6.27025,4.7180963,-0.24364392,0.14867108,-0.23522322,0.16280572,-9.3421755,0.18195933
6.2699866,4.7179527,-0.23938286,0.14654055,-0.22244005,0.20111294,-9.346964,0.23942018
6.269721,4.717807,-0.23938286,0.14654055,-0.22244005,0.20111294,-9.346964,0.23942018
6.269498,4.717675,-0.23405655,0.14334476,-0.20965686,0.15801731,-9.385271,0.21068975
6.2692714,4.7175417,-0.23405655,0.14334476,-0.20965686,0.15801731,-9.385271,0.21068975
6.2690587,4.717409,-0.23192601,0.14227949,-0.1968737,0.17238252,-9.3661175,0.30166942
6.2688475,4.7172766,-0.23192601,0.14227949,-0.1968737,0.17238252,-9.3661175,0.30166942
6.268652,4.7171464,-0.22979549,0.14121422,-0.18089473,0.1436521,-9.337387,0.11492168
6.2684617,4.717018,-0.22979549,0.14121422,-0.18089473,0.1436521,-9.337387,0.11492168
6.268297,4.716889,-0.22979549,0.14014897,-0.1670463,0.1340753,-9.380483,0.23463176
6.268133,4.7167587,-0.22979549,0.14014897,-0.1670463,0.1340753,-9.380483,0.23463176
6.2679696,4.7166276,-0.22766495,0.1390837,-0.15426312,0.15322891,-9.399636,0.2681506
6.2678165,4.716505,-0.22766495,0.1390837,-0.15426312,0.15322891,-9.399636,0.2681506
6.2676854,4.7163777,-0.22766495,0.13801843,-0.14147994,0.12928689,-9.437943,0.20111294
6.2675533,4.7162495,-0.22766495,0.13801843,-0.14147994,0.12928689,-9.437943,0.20111294
6.2674456,4.716122,-0.22873022,0.13695318,-0.12869677,0.11492168,-9.409213,0.20111294
6.2673373,4.7159934,-0.22873022,0.13695318,-0.12869677,0.11492168,-9.409213,0.20111294
6.267212,4.7158656,-0.22873022,0.1358879,-0.11697886,0.15801731,-9.414001,0.12928689
6.2670865,4.715737,-0.22873022,0.1358879,-0.11697886,0.15801731,-9.414001,0.12928689
6.266986,4.7156096,-0.22873022,0.13375737,-0.10952201,0.1436521,-9.394848,0.12928689
6.2668853,4.7154818,-0.22873022,0.13375737,-0.10952201,0.1436521,-9.394848,0.12928689
6.2667675,4.7153525,-0.22979549,0.13269211,-0.10526095,0.17238252,-9.428367,0.17238252
6.2666507,4.715223,-0.22979549,0.13269211,-0.10526095,0.17238252,-9.428367,0.17238252
6.266536,4.7150936,-0.22979549,0.13375737,-0.09886937,0.17717093,-9.380483,0.15801731
6.2664213,4.714963,-0.22979549,0.13375737,-0.09886937,0.17717093,-9.380483,0.15801731
6.2663755,4.714829,-0.22979549,0.13269211,-0.095673576,0.12928689,-9.385271,0.076614454
6.2663293,4.7146935,-0.22979549,0.13269211,-0.095673576,0.12928689,-9.385271,0.076614454
6.2662954,4.7145567,-0.22873022,0.13269211,-0.092477776,0.10055647,-9.380483,0.110133275
6.266261,4.7144203,-0.22873022,0.13269211,-0.092477776,0.10055647,-9.380483,0.110133275
6.2661877,4.7142906,-0.22979549,0.13375737,-0.091412514,0.1388637,-9.414001,0.1340753
6.266114,4.714161,-0.22979549,0.13375737,-0.091412514,0.1388637,-9.414001,0.1340753
6.266066,4.7140274,-0.22979549,0.1358879,-0.091412514,0.12449849,-9.409213,0.095768064
6.2660174,4.7138944,-0.22979549,0.1358879,-0.091412514,0.12449849,-9.409213,0.095768064
6.2659507,4.713763,-0.22979549,0.13695318,-0.09460831,0.11971009,-9.452309,0.16280572
6.2658844,4.7136326,-0.22979549,0.13695318,-0.09460831,0.11971009,-9.452309,0.16280572
6.265831,4.713498,-0.22979549,0.13695318,-0.0978041,0.110133275,-9.481039,0.12449849
6.265778,4.7133646,-0.22979549,0.13695318,-0.0978041,0.110133275,-9.481039,0.12449849
6.2657447,4.713225,-0.22979549,0.13695318,-0.0978041,0.08140286,-9.519346,0.12449849
6.265711,4.713085,-0.22979549,0.13695318,-0.0978041,0.08140286,-9.519346,0.12449849
6.2656894,4.7129383,-0.23086074,0.1358879,-0.09993463,0.038307227,-9.519346,0.1388637
6.265668,4.7127914,-0.23086074,0.1358879,-0.09993463,0.038307227,-9.519346,0.1388637
6.265636,4.712647,-0.22979549,0.13482264,-0.104195684,0.01436521,-9.543288,0.18195933
6.2656035,4.7125044,-0.22979549,0.13482264,-0.104195684,0.01436521,-9.543288,0.18195933
6.265576,4.7123604,-0.22766495,0.13375737,-0.107391484,0.02873042,-9.586384,0.1436521
6.2655473,4.7122164,-0.22766495,0.13375737,-0.107391484,0.02873042,-9.586384,0.1436521
6.26552,4.7120705,-0.2265997,0.13269211,-0.11058728,-0.009576807,-9.605537,0.16759412
6.2654924,4.711925,-0.2265997,0.13269211,-0.11058728,-0.009576807,-9.605537,0.16759412
6.265447,4.711792,-0.22233863,0.13162684,-0.11058728,0.01436521,-9.610326,0.20111294
6.265402,4.711659,-0.22233863,0.13162684,-0.11058728,0.01436521,-9.610326,0.20111294
6.265358,4.711529,-0.21807757,0.13056158,-0.11165254,0,-9.619903,0.21068975
6.265313,4.711399,-0.21807757,0.13056158,-0.11165254,0,-9.619903,0.21068975
6.2653065,4.711251,-0.21275125,0.12523526,-0.11484833,0.0047884034,-9.591172,0.08619126
6.2652993,4.711103,-0.21275125,0.12523526,-0.11484833,0.0047884034,-9.591172,0.08619126
6.265234,4.710993,-0.20422913,0.11990894,-0.1159136,0.06703765,-9.653421,0.17717093
6.265169,4.710882,-0.20422913,0.11990894,-0.1159136,0.06703765,-9.653421,0.17717093
6.2651205,4.710774,-0.19677228,0.11458261,-0.11484833,0.01436521,-9.629479,0.19153613
6.2650723,4.7106657,-0.19677228,0.11458261,-0.11484833,0.01436521,-9.629479,0.19153613
6.2650185,4.710566,-0.18931544,0.10819103,-0.11697886,0.033518825,-9.615114,0.17717093
6.264965,4.710466,-0.18931544,0.10819103,-0.11697886,0.033518825,-9.615114,0.17717093
6.264906,4.7103763,-0.18079332,0.100734174,-0.11804412,0.076614454,-9.591172,0.12928689
6.264847,4.7102866,-0.18079332,0.100734174,-0.11804412,0.076614454,-9.591172,0.12928689
6.264789,4.710204,-0.1722712,0.09540785,-0.11910939,0.07182605,-9.581595,0.12928689
6.264731,4.710122,-0.1722712,0.09540785,-0.11910939,0.07182605,-9.581595,0.12928689
6.2646422,4.7100563,-0.16374908,0.090081535,-0.120174654,0.110133275,-9.591172,0.18195933
6.2645535,4.70999,-0.16374908,0.090081535,-0.120174654,0.110133275,-9.591172,0.18195933
6.2644753,4.70993,-0.15522698,0.08368994,-0.121239915,0.110133275,-9.562442,0.12449849
6.2643967,4.7098694,-0.15522698,0.08368994,-0.121239915,0.110133275,-9.562442,0.12449849
6.264104,4.7097178,-0.13711748,0.07090677,-0.123370446,0.110133275,-9.533711,0.12928689
6.264104,4.7097178,-0.13711748,0.07090677,-0.123370446,0.110133275,-9.533711,0.12928689
6.264104,4.7097178,-0.13711748,0.07090677,-0.123370446,0.110133275,-9.533711,0.12928689
6.2640724,4.7097015,-0.13711748,0.07090677,-0.123370446,0.110133275,-9.533711,0.12928689
6.263951,4.709615,-0.12966062,0.06771098,-0.12550098,0.08140286,-9.552865,0.10534488
6.263951,4.709615,-0.12966062,0.06771098,-0.12550098,0.08140286,-9.552865,0.10534488
6.2639184,4.7095675,-0.122203775,0.061319392,-0.12656625,0.10055647,-9.557653,0.038307227
6.2638865,4.709521,-0.122203775,0.061319392,-0.12656625,0.10055647,-9.557653,0.038307227
6.2638116,4.709492,-0.11581218,0.05599307,-0.12550098,0.11492168,-9.557653,0.076614454
6.263756,4.7094703,-0.11581218,0.05599307,-0.12550098,0.11492168,-9.557653,0.076614454
6.2636824,4.7094545,-0.1094206,0.05173201,-0.124435715,0.110133275,-9.504981,0.110133275
6.263608,4.7094383,-0.1094206,0.05173201,-0.124435715,0.110133275,-9.504981,0.110133275
