Pitch,Roll,Gyro_X,Gyro_Y,Gyro_Z,Accel_X,Accel_Y,Accel_Z
6.0703883,4.859969,0.026933251,0.032557253,0.011918138,1.7669208,-9.112331,1.2545617
6.070516,4.8599496,0.019476399,0.024035135,-0.0019303001,1.7286136,-9.136273,1.2689269
6.070646,4.8599296,0.019476399,0.024035135,-0.0019303001,1.7286136,-9.136273,1.2689269
6.0707445,4.85988,0.00988902,0.013382491,-0.015778739,1.7525556,-9.136273,1.2306197
6.0708437,4.8598304,0.00988902,0.013382491,-0.015778739,1.7525556,-9.136273,1.2306197
6.0709467,4.859789,0.001366904,0.003795111,-0.025366118,1.7286136,-9.198523,1.2737153
6.0710497,4.859747,0.001366904,0.003795111,-0.025366118,1.7286136,-9.198523,1.2737153
6.0711336,4.859684,-0.006089947,-0.0047270046,-0.033888236,1.7381904,-9.222465,1.2449849
6.0712185,4.859621,-0.006089947,-0.0047270046,-0.033888236,1.7381904,-9.222465,1.2449849
6.0713043,4.8595614,-0.014612063,-0.01324912,-0.041345086,1.70946,-9.23683,1.2737153
6.07139,4.8595023,-0.014612063,-0.01324912,-0.041345086,1.70946,-9.23683,1.2737153
6.0714684,4.859434,-0.021003649,-0.021771235,-0.046671405,1.7286136,-9.26556,1.2785037
6.071547,4.8593655,-0.021003649,-0.021771235,-0.046671405,1.7286136,-9.26556,1.2785037
6.0716143,4.859283,-0.027395237,-0.028162822,-0.05199773,1.7669208,-9.255983,1.2737153
6.0716825,4.8592,-0.027395237,-0.028162822,-0.05199773,1.7669208,-9.255983,1.2737153
6.0717435,4.859107,-0.033786822,-0.035619672,-0.05519352,1.7477672,-9.279925,1.2593501
6.0718074,4.8590097,-0.033786822,-0.035619672,-0.05519352,1.7477672,-9.279925,1.2593501
6.071877,4.858919,-0.039113145,-0.043076526,-0.05732405,1.8004397,-9.346964,1.3120226
6.071941,4.858836,-0.039113145,-0.043076526,-0.05732405,1.8004397,-9.346964,1.3120226
6.071941,4.858836,-0.039113145,-0.043076526,-0.05732405,1.8004397,-9.346964,1.3120226
6.0720634,4.8586473,-0.04443947,-0.04946811,-0.06158511,1.8387469,-9.351752,1.3215994
6.072121,4.858549,-0.049765788,-0.05692496,-0.06371564,1.8195933,-9.3661175,1.316811
6.072121,4.858549,-0.049765788,-0.05692496,-0.06371564,1.8195933,-9.3661175,1.316811
6.0722003,4.858308,-0.05402685,-0.062251285,-0.06584617,1.9009962,-9.423578,1.2545617
6.0722003,4.858308,-0.05402685,-0.062251285,-0.06584617,1.9009962,-9.423578,1.2545617
6.072222,4.858013,-0.056157377,-0.06757761,-0.06584617,1.9536686,-9.428367,1.3072342
6.072235,4.857864,-0.056157377,-0.06757761,-0.06584617,1.9536686,-9.428367,1.3072342
6.072235,4.857864,-0.056157377,-0.06757761,-0.06584617,1.9536686,-9.428367,1.3072342
6.072277,4.8575716,-0.05935317,-0.06970814,-0.0679767,1.9440918,-9.44752,1.3120226
6.0722556,4.8574014,-0.062548965,-0.07396919,-0.07010722,1.982399,-9.433155,1.292869
6.072235,4.857232,-0.062548965,-0.07396919,-0.07010722,1.982399,-9.433155,1.292869
6.072235,4.857232,-0.062548965,-0.07396919,-0.07010722,1.982399,-9.433155,1.292869
6.072168,4.856883,-0.06361423,-0.07609972,-0.07117249,1.9871874,-9.437943,1.2737153
6.072082,4.856703,-0.06361423,-0.077164985,-0.07117249,2.0446482,-9.442732,1.2976574
6.071998,4.8565245,-0.06361423,-0.077164985,-0.07117249,2.0446482,-9.442732,1.2976574
6.0719357,4.856344,-0.06467949,-0.078230254,-0.07117249,2.0398598,-9.41879,1.364695
6.071963,4.8561997,-0.06467949,-0.078230254,-0.07117249,2.0398598,-9.41879,1.364695
6.071808,4.8560333,-0.06681002,-0.077164985,-0.07117249,2.1068976,-9.409213,1.283292
6.0716524,4.8558664,-0.06681002,-0.077164985,-0.07117249,2.1068976,-9.409213,1.283292
6.0714555,4.8557277,-0.06894055,-0.07503446,-0.07223775,2.1547816,-9.380483,1.2976574
6.0712576,4.8555884,-0.06894055,-0.07503446,-0.07223775,2.1547816,-9.380483,1.2976574
6.0710387,4.8555317,-0.07107108,-0.0707734,-0.07436828,2.1404164,-9.399636,1.3742718
6.0708194,4.855477,-0.07107108,-0.0707734,-0.07436828,2.1404164,-9.399636,1.3742718
6.070593,4.8553996,-0.07320161,-0.064381815,-0.076498814,2.2170308,-9.409213,1.364695
6.0703707,4.8553243,-0.07320161,-0.064381815,-0.076498814,2.2170308,-9.409213,1.364695
6.0701494,4.8552055,-0.076397404,-0.060120758,-0.08182514,2.1547816,-9.437943,1.3359646
6.069927,4.8550873,-0.076397404,-0.060120758,-0.08182514,2.1547816,-9.437943,1.3359646
6.0697074,4.854958,-0.0795932,-0.054794434,-0.08608619,2.15957,-9.437943,1.3263878
6.069485,4.8548284,-0.0795932,-0.054794434,-0.08608619,2.15957,-9.437943,1.3263878
6.0692997,4.854661,-0.08278899,-0.050533377,-0.091412514,2.135628,-9.500193,1.316811
6.0691133,4.854493,-0.08278899,-0.050533377,-0.091412514,2.135628,-9.500193,1.316811
6.068975,4.8543034,-0.08385425,-0.047337584,-0.09993463,2.1212628,-9.576807,1.3120226
6.068838,4.8541136,-0.08385425,-0.047337584,-0.09993463,2.1212628,-9.576807,1.3120226
6.068802,4.8539367,-0.08385425,-0.04627232,-0.107391484,2.087744,-9.595961,1.3455414
6.068771,4.8537617,-0.08385425,-0.04627232,-0.107391484,2.087744,-9.595961,1.3455414
6.068666,4.85357,-0.08385425,-0.045207053,-0.11378307,2.111686,-9.696517,1.2593501
6.068562,4.8533783,-0.08385425,-0.045207053,-0.11378307,2.111686,-9.696517,1.2593501
6.0685134,4.8532023,-0.08278899,-0.04627232,-0.120174654,2.030283,-9.715671,1.2641385
6.0684657,4.853027,-0.08278899,-0.04627232,-0.120174654,2.030283,-9.715671,1.2641385
6.0684648,4.8528986,-0.08172372,-0.047337584,-0.12550098,2.0590134,-9.763555,1.3551182
6.0684648,4.8527718,-0.08172372,-0.047337584,-0.12550098,2.0590134,-9.763555,1.3551182
6.068435,4.8526163,-0.0795932,-0.04946811,-0.12869677,2.0494366,-9.787497,1.316811
6.068407,4.8524613,-0.0795932,-0.04946811,-0.12869677,2.0494366,-9.787497,1.316811
6.068348,4.852293,-0.075332135,-0.052663904,-0.13189256,2.0973208,-9.830592,1.316811
6.0682907,4.852126,-0.075332135,-0.052663904,-0.13189256,2.0973208,-9.830592,1.316811
6.0682425,4.851968,-0.07107108,-0.0558597,-0.1340231,2.1164744,-9.89763,1.340753
6.068197,4.8518114,-0.07107108,-0.0558597,-0.1340231,2.1164744,-9.89763,1.340753
6.068191,4.851705,-0.06681002,-0.060120758,-0.13295783,2.0925324,-9.902418,1.3694834
6.0681863,4.8516006,-0.06681002,-0.060120758,-0.13295783,2.0925324,-9.902418,1.3694834
6.0681734,4.85157,-0.0614837,-0.06331655,-0.13189256,2.111686,-9.868899,1.4030021
6.0681605,4.85154,-0.0614837,-0.06331655,-0.13189256,2.111686,-9.868899,1.4030021
6.068162,4.851477,-0.056157377,-0.06544708,-0.1308273,2.1308396,-9.873688,1.3838485
6.068163,4.8514156,-0.056157377,-0.06544708,-0.1308273,2.1308396,-9.873688,1.3838485
6.067945,4.8512745,-0.048700526,-0.06864287,-0.12869677,2.1978772,-9.830592,1.3455414
6.067728,4.851132,-0.048700526,-0.06864287,-0.12869677,2.1978772,-9.830592,1.3455414
6.0676346,4.85098,-0.042308938,-0.07396919,-0.12656625,2.1691468,-9.849746,1.3599066
6.0675516,4.8508296,-0.042308938,-0.07396919,-0.12656625,2.1691468,-9.849746,1.3599066
6.067289,4.8508224,-0.035917353,-0.07609972,-0.124435715,2.2361844,-9.825804,1.388637
6.0670276,4.8508177,-0.035917353,-0.07609972,-0.124435715,2.2361844,-9.825804,1.388637
6.0667624,4.8508043,-0.03059103,-0.079295516,-0.121239915,2.2409728,-9.787497,1.3790601
6.066498,4.850792,-0.03059103,-0.079295516,-0.121239915,2.2409728,-9.787497,1.3790601
6.066244,4.8507137,-0.024199443,-0.08036078,-0.1159136,2.3415294,-9.782708,1.3120226
6.0659904,4.850636,-0.024199443,-0.08036078,-0.1159136,2.3415294,-9.782708,1.3120226
6.06573,4.8506236,-0.017807856,-0.08036078,-0.11271781,2.3798366,-9.696517,1.3790601
6.0654697,4.8506117,-0.017807856,-0.08036078,-0.11271781,2.3798366,-9.696517,1.3790601
6.0652122,4.850593,-0.012481534,-0.08036078,-0.107391484,2.3702598,-9.615114,1.3503298
6.064955,4.850575,-0.012481534,-0.08036078,-0.107391484,2.3702598,-9.615114,1.3503298
6.064704,4.850561,-0.008220476,-0.077164985,-0.10206516,2.3894134,-9.648633,1.3551182
6.0644526,4.850548,-0.008220476,-0.077164985,-0.10206516,2.3894134,-9.648633,1.3551182
6.0642076,4.850543,-0.0039594183,-0.07396919,-0.09673884,2.3798366,-9.610326,1.3551182
6.0639625,4.850538,-0.0039594183,-0.07396919,-0.09673884,2.3798366,-9.610326,1.3551182
6.0637255,4.850544,-0.0018288894,-0.06970814,-0.09034725,2.384625,-9.581595,1.364695
6.063489,4.8505497,-0.0018288894,-0.06970814,-0.09034725,2.384625,-9.581595,1.364695
6.0632577,4.850544,0.003497433,-0.06544708,-0.0828904,2.4133554,-9.543288,1.3311762
6.063027,4.850538,0.003497433,-0.06544708,-0.0828904,2.4133554,-9.543288,1.3311762
6.0628014,4.850522,0.0045626974,-0.06118602,-0.078629345,2.432509,-9.500193,1.3024458
6.0625753,4.850506,0.0045626974,-0.06118602,-0.078629345,2.432509,-9.500193,1.3024458
6.062359,4.8504763,0.005627962,-0.0558597,-0.07436828,2.4181437,-9.504981,1.2737153
6.062143,4.850447,0.005627962,-0.0558597,-0.07436828,2.4181437,-9.504981,1.2737153
6.061926,4.8504486,0.0066932263,-0.047337584,-0.07117249,2.4372973,-9.433155,1.316811
6.061709,4.85045,0.0066932263,-0.047337584,-0.07117249,2.4372973,-9.433155,1.316811
6.0614986,4.850441,0.008823755,-0.04201126,-0.06584617,2.3942018,-9.404425,1.2880806
6.0612884,4.850432,0.008823755,-0.04201126,-0.06584617,2.3942018,-9.404425,1.2880806
6.0610847,4.850454,0.008823755,-0.035619672,-0.06158511,2.3702598,-9.399636,1.3359646
6.060881,4.8504753,0.008823755,-0.035619672,-0.06158511,2.3702598,-9.399636,1.3359646
6.0606794,4.8504677,0.0077584907,-0.028162822,-0.059454583,2.3894134,-9.3421755,1.2785037
6.0604777,4.85046,0.0077584907,-0.028162822,-0.059454583,2.3894134,-9.3421755,1.2785037
6.060279,4.850483,0.0066932263,-0.021771235,-0.058389317,2.360683,-9.323022,1.3263878
6.060081,4.850506,0.0066932263,-0.021771235,-0.058389317,2.360683,-9.323022,1.3263878
6.059888,4.850537,0.005627962,-0.017510178,-0.056258786,2.360683,-9.284714,1.3359646
6.059695,4.850568,0.005627962,-0.017510178,-0.056258786,2.360683,-9.284714,1.3359646
6.0594983,4.850583,0.003497433,-0.011118591,-0.056258786,2.3319526,-9.270349,1.3072342
6.059302,4.850599,0.003497433,-0.011118591,-0.056258786,2.3319526,-9.270349,1.3072342
6.059107,4.850611,0.0024321685,-0.0047270046,-0.05519352,2.3319526,-9.232041,1.2976574
6.0589123,4.8506236,0.0024321685,-0.0047270046,-0.05519352,2.3319526,-9.232041,1.2976574
6.058719,4.8506308,0.001366904,-0.00046594674,-0.053062994,2.3223755,-9.217676,1.2880806
6.0585265,4.8506374,0.001366904,-0.00046594674,-0.053062994,2.3223755,-9.217676,1.2880806
6.0583463,4.850679,-0.0007636249,0.0027298466,-0.05199773,2.2840683,-9.188946,1.3263878
6.058165,4.8507204,-0.0007636249,0.0027298466,-0.05199773,2.2840683,-9.188946,1.3263878
6.0579824,4.8507524,-0.0018288894,0.0069909045,-0.0498672,2.231396,-9.188946,1.3024458
6.0578,4.850784,-0.0018288894,0.0069909045,-0.0498672,2.231396,-9.188946,1.3024458
6.057614,4.850773,-0.0028941538,0.010186698,-0.048801936,2.231396,-9.174581,1.2689269
6.0574284,4.8507614,-0.0028941538,0.010186698,-0.048801936,2.231396,-9.174581,1.2689269
6.0572815,4.850692,-0.0050246827,0.013382491,-0.048801936,2.2170308,-9.188946,1.2210429
6.0571346,4.850621,-0.0050246827,0.013382491,-0.048801936,2.2170308,-9.188946,1.2210429
6.056955,4.8506446,-0.008220476,0.016578285,-0.046671405,2.1883004,-9.184157,1.2880806
6.0567756,4.8506684,-0.008220476,0.016578285,-0.046671405,2.1883004,-9.184157,1.2880806
6.056672,4.8507576,-0.009285741,0.017643549,-0.04454088,2.1643584,-9.212888,1.3120226
6.05657,4.850847,-0.009285741,0.017643549,-0.04454088,2.1643584,-9.212888,1.3120226
6.056662,4.85087,-0.010351005,0.017643549,-0.04454088,2.087744,-9.198523,1.292869
6.0567536,4.850894,-0.010351005,0.017643549,-0.04454088,2.087744,-9.198523,1.292869
6.056851,4.8508797,-0.0114162695,0.017643549,-0.045606144,2.0638018,-9.279925,1.2880806
6.0569477,4.8508654,-0.0114162695,0.017643549,-0.045606144,2.0638018,-9.279925,1.2880806
6.0570345,4.850896,-0.012481534,0.017643549,-0.04454088,2.0733786,-9.232041,1.3072342
6.0571218,4.850927,-0.012481534,0.017643549,-0.04454088,2.0733786,-9.232041,1.3072342
6.057221,4.850919,-0.012481534,0.016578285,-0.043475613,2.0350714,-9.241618,1.2880806
6.0573196,4.850911,-0.012481534,0.016578285,-0.043475613,2.0350714,-9.241618,1.2880806
6.057417,4.8509183,-0.013546798,0.013382491,-0.04241035,2.0111294,-9.232041,1.3024458
6.057514,4.850926,-0.013546798,0.013382491,-0.04241035,2.0111294,-9.232041,1.3024458
6.0576134,4.850919,-0.014612063,0.009121433,-0.04241035,2.030283,-9.217676,1.2880806
6.057712,4.8509116,-0.014612063,0.009121433,-0.04241035,2.030283,-9.217676,1.2880806
6.0578027,4.850932,-0.015677327,0.0048603755,-0.041345086,2.0685902,-9.222465,1.3024458
6.0578938,4.8509526,-0.015677327,0.0048603755,-0.041345086,2.0685902,-9.222465,1.3024458
6.0579658,4.8509946,-0.01674259,0.0005993177,-0.04241035,2.0590134,-9.198523,1.316811
6.0580378,4.8510365,-0.01674259,0.0005993177,-0.04241035,2.0590134,-9.198523,1.316811
6.058082,4.8510966,-0.017807856,-0.00366174,-0.043475613,2.0446482,-9.169792,1.3455414
6.058127,4.851157,-0.017807856,-0.00366174,-0.043475613,2.0446482,-9.169792,1.3455414
6.058139,4.8512287,-0.018873122,-0.008988062,-0.04773667,2.0925324,-9.169792,1.3215994
6.0581517,4.8513,-0.018873122,-0.008988062,-0.04773667,2.0925324,-9.169792,1.3215994
6.0581365,4.8513775,-0.018873122,-0.01324912,-0.050932467,2.0973208,-9.136273,1.316811
6.0581226,4.8514543,-0.018873122,-0.01324912,-0.050932467,2.0973208,-9.136273,1.316811
6.0581727,4.851498,-0.019938385,-0.017510178,-0.053062994,2.1068976,-9.141062,1.283292
6.0582247,4.85154,-0.019938385,-0.017510178,-0.053062994,2.1068976,-9.141062,1.283292
6.058177,4.8516173,-0.021003649,-0.021771235,-0.05519352,2.1021092,-9.121908,1.3551182
6.0581303,4.8516946,-0.021003649,-0.021771235,-0.05519352,2.1021092,-9.121908,1.3551182
6.0580993,4.8515663,-0.024199443,-0.023901764,-0.05732405,2.1021092,-9.121908,1.2593501
6.058072,4.8514385,-0.024199443,-0.023901764,-0.05732405,2.1021092,-9.121908,1.2593501
6.0580745,4.8513174,-0.026329972,-0.026032293,-0.060519844,2.0925324,-9.126697,1.2545617
6.0580792,4.851197,-0.026329972,-0.026032293,-0.060519844,2.0925324,-9.126697,1.2545617
6.0579824,4.8512635,-0.0284605,-0.029228088,-0.062650375,2.1260512,-9.069236,1.3503298
6.0578866,4.8513303,-0.0284605,-0.029228088,-0.062650375,2.1260512,-9.069236,1.3503298
6.057926,4.8513584,-0.031656295,-0.030293351,-0.06371564,2.078167,-9.131485,1.2976574
6.0579653,4.851386,-0.031656295,-0.030293351,-0.06371564,2.078167,-9.131485,1.2976574
6.058007,4.8514094,-0.034852087,-0.029228088,-0.06371564,2.0638018,-9.069236,1.2880806
6.0580482,4.8514323,-0.034852087,-0.029228088,-0.06371564,2.0638018,-9.069236,1.2880806
6.058113,4.8514223,-0.03698262,-0.030293351,-0.06371564,2.0494366,-9.059659,1.2785037
6.0581827,4.8514123,-0.03698262,-0.030293351,-0.06371564,2.0494366,-9.059659,1.2785037
6.05821,4.8514404,-0.04017841,-0.03242388,-0.064780906,2.054225,-9.045294,1.292869
6.05821,4.8514404,-0.04017841,-0.03242388,-0.064780906,2.054225,-9.045294,1.292869
6.0582438,4.851475,-0.04017841,-0.03242388,-0.064780906,2.054225,-9.045294,1.292869
6.058352,4.8513536,-0.043374203,-0.03455441,-0.06584617,2.0111294,-9.021352,1.2497733
6.0583534,4.851389,-0.046569996,-0.037750203,-0.0679767,2.0638018,-9.030929,1.2880806
6.0583534,4.851389,-0.046569996,-0.037750203,-0.0679767,2.0638018,-9.030929,1.2880806
6.058325,4.8514633,-0.048700526,-0.040945996,-0.07010722,2.0638018,-8.968679,1.2737153
6.0582957,4.8514986,-0.048700526,-0.040945996,-0.07010722,2.0638018,-8.968679,1.2737153
6.0582957,4.8514986,-0.048700526,-0.040945996,-0.07010722,2.0638018,-8.968679,1.2737153
6.0578637,4.8513727,-0.050831053,-0.045207053,-0.07223775,2.1260512,-9.006987,1.2593501
6.057648,4.8513336,-0.05402685,-0.048402846,-0.07330302,2.1452048,-8.949526,1.2641385
6.057432,4.851296,-0.05402685,-0.048402846,-0.07330302,2.1452048,-8.949526,1.2641385
6.0572553,4.8513036,-0.058287904,-0.050533377,-0.07436828,2.1643584,-8.925584,1.316811
6.057079,4.851312,-0.058287904,-0.050533377,-0.07436828,2.1643584,-8.925584,1.316811
6.056896,4.8513155,-0.0614837,-0.05372917,-0.078629345,2.207454,-8.887277,1.3455414
6.056714,4.8513193,-0.0614837,-0.05372917,-0.078629345,2.207454,-8.887277,1.3455414
6.056486,4.8512683,-0.06574476,-0.0558597,-0.08502093,2.231396,-8.868123,1.2689269
6.056258,4.8512177,-0.06574476,-0.0558597,-0.08502093,2.231396,-8.868123,1.2689269
6.0560217,4.8511553,-0.07000581,-0.05692496,-0.091412514,2.2361844,-8.7771435,1.2497733
6.055785,4.8510933,-0.07000581,-0.05692496,-0.091412514,2.2361844,-8.7771435,1.2497733
6.0555434,4.8510222,-0.07426687,-0.059055492,-0.095673576,2.231396,-8.762778,1.2401965
6.055301,4.850951,-0.07426687,-0.059055492,-0.095673576,2.231396,-8.762778,1.2401965
6.0550528,4.85088,-0.0795932,-0.06118602,-0.10313042,2.2840683,-8.738836,1.2497733
6.054804,4.850809,-0.0795932,-0.06118602,-0.10313042,2.2840683,-8.738836,1.2497733
6.054546,4.850736,-0.08491952,-0.06118602,-0.11378307,2.2984335,-8.767567,1.2593501
6.0542884,4.850664,-0.08491952,-0.06118602,-0.11378307,2.2984335,-8.767567,1.2593501
6.0540204,4.850589,-0.09024584,-0.06118602,-0.124435715,2.2984335,-8.748413,1.2593501
6.053753,4.850514,-0.09024584,-0.06118602,-0.124435715,2.2984335,-8.748413,1.2593501
6.0534854,4.8504524,-0.09557216,-0.062251285,-0.13295783,2.2744915,-8.781932,1.2880806
6.053219,4.8503914,-0.09557216,-0.062251285,-0.13295783,2.2744915,-8.781932,1.2880806
6.0529304,4.8502903,-0.10089848,-0.06544708,-0.14147994,2.3175871,-8.772355,1.2354081
6.0526414,4.8501897,-0.10089848,-0.06544708,-0.14147994,2.3175871,-8.772355,1.2354081
6.0523562,4.8501167,-0.107290074,-0.06864287,-0.15106732,2.3127987,-8.796297,1.2976574
6.0520716,4.8500443,-0.107290074,-0.06864287,-0.15106732,2.3127987,-8.796297,1.2976574
6.0517645,4.8499393,-0.11261639,-0.07183866,-0.16065471,2.384625,-8.810662,1.2593501
6.051458,4.849835,-0.11261639,-0.07183866,-0.16065471,2.384625,-8.810662,1.2593501
6.051142,4.8496842,-0.11900798,-0.07396919,-0.17024209,2.432509,-8.791509,1.1683705
6.0508265,4.849534,-0.11900798,-0.07396919,-0.17024209,2.432509,-8.791509,1.1683705
6.0505004,4.8494015,-0.12646483,-0.077164985,-0.17769894,2.3989902,-8.78672,1.2258313
6.0501738,4.84927,-0.12646483,-0.077164985,-0.17769894,2.3989902,-8.78672,1.2258313
6.0498405,4.8491507,-0.13179116,-0.077164985,-0.18728632,2.4372973,-8.78672,1.2689269
6.0495105,4.8490334,-0.13179116,-0.077164985,-0.18728632,2.4372973,-8.78672,1.2689269
6.0491695,4.8489084,-0.13818274,-0.077164985,-0.1968737,2.480393,-8.78672,1.2737153
6.048828,4.8487844,-0.13818274,-0.077164985,-0.1968737,2.480393,-8.78672,1.2737153
6.0484767,4.8486404,-0.14350906,-0.077164985,-0.20326528,2.4899697,-8.75799,1.2306197
6.0481257,4.848497,-0.14350906,-0.077164985,-0.20326528,2.4899697,-8.75799,1.2306197
6.047768,4.8483553,-0.14777012,-0.07503446,-0.21072213,2.4899697,-8.772355,1.2449849
6.047411,4.848214,-0.14777012,-0.07503446,-0.21072213,2.4899697,-8.772355,1.2449849
6.04705,4.8480783,-0.15309644,-0.07183866,-0.21817899,2.4612393,-8.796297,1.2641385
6.0466886,4.847943,-0.15309644,-0.07183866,-0.21817899,2.4612393,-8.796297,1.2641385
6.0463276,4.847814,-0.15948802,-0.06864287,-0.22457057,2.4229321,-8.810662,1.283292
6.0459666,4.8476863,-0.15948802,-0.06864287,-0.22457057,2.4229321,-8.810662,1.283292
6.045594,4.8475385,-0.16587962,-0.066512346,-0.22989689,2.4516625,-8.858546,1.2593501
6.0452223,4.8473916,-0.16587962,-0.066512346,-0.22989689,2.4516625,-8.858546,1.2593501
6.0448585,4.847264,-0.17120594,-0.062251285,-0.23522322,2.4756045,-8.935161,1.3263878
6.0444956,4.847137,-0.17120594,-0.062251285,-0.23522322,2.4756045,-8.935161,1.3263878
6.0441513,4.847027,-0.17653225,-0.05692496,-0.23841901,2.432509,-9.030929,1.3694834
6.0438085,4.846918,-0.17653225,-0.05692496,-0.23841901,2.432509,-9.030929,1.3694834
6.0434747,4.846812,-0.18185858,-0.050533377,-0.24054953,2.408567,-9.126697,1.3694834
6.0431423,4.8467064,-0.18185858,-0.050533377,-0.24054953,2.408567,-9.126697,1.3694834
6.0428395,4.846613,-0.18398911,-0.04627232,-0.24054953,2.3511062,-9.150639,1.3694834
6.0425386,4.8465195,-0.18398911,-0.04627232,-0.24054953,2.3511062,-9.150639,1.3694834
6.0422935,4.846436,-0.18398911,-0.03988073,-0.23948428,2.2984335,-9.246407,1.3982137
6.04205,4.846352,-0.18398911,-0.03988073,-0.23948428,2.2984335,-9.246407,1.3982137
6.0418415,4.846266,-0.18505438,-0.033489145,-0.23628849,2.2649148,-9.3182335,1.4221559
6.0416336,4.846179,-0.18505438,-0.033489145,-0.23628849,2.2649148,-9.3182335,1.4221559
6.0414534,4.8460884,-0.18292385,-0.027097559,-0.22989689,2.2361844,-9.404425,1.4413095
6.0412793,4.846001,-0.18292385,-0.027097559,-0.22989689,2.2361844,-9.404425,1.4413095
6.041149,4.8458996,-0.17972806,-0.020705972,-0.21924424,2.2170308,-9.509769,1.4030021
6.0410194,4.8457985,-0.17972806,-0.020705972,-0.21924424,2.2170308,-9.509769,1.4030021
6.040915,4.845695,-0.175467,-0.01324912,-0.20539582,2.2218192,-9.591172,1.3982137
6.040811,4.8455915,-0.175467,-0.01324912,-0.20539582,2.2218192,-9.591172,1.3982137
6.040709,4.845505,-0.16907541,-0.0068575335,-0.18941684,2.231396,-9.672575,1.4556746
6.040607,4.845419,-0.16907541,-0.0068575335,-0.18941684,2.231396,-9.672575,1.4556746
6.040543,4.8453274,-0.16055329,0.0016645822,-0.17343788,2.2170308,-9.763555,1.4317327
6.0404787,4.8452363,-0.16055329,0.0016645822,-0.17343788,2.2170308,-9.763555,1.4317327
6.0404215,4.8451643,-0.15096591,0.009121433,-0.15639365,2.2266076,-9.816227,1.4748282
6.0403643,4.845093,-0.15096591,0.009121433,-0.15639365,2.2266076,-9.816227,1.4748282
6.0403214,4.845034,-0.14137854,0.01551302,-0.13934942,2.2170308,-9.892841,1.5179238
6.0402784,4.844975,-0.14137854,0.01551302,-0.13934942,2.2170308,-9.892841,1.5179238
6.040253,4.844928,-0.13072589,0.021904606,-0.122305185,2.2218192,-9.916783,1.5227122
6.040228,4.844881,-0.13072589,0.021904606,-0.122305185,2.2218192,-9.916783,1.5227122
6.0402164,4.84485,-0.11794271,0.029361458,-0.10526095,2.2505496,-9.983821,1.5370775
6.040205,4.8448195,-0.11794271,0.029361458,-0.10526095,2.2505496,-9.983821,1.5370775
6.0402064,4.844805,-0.106224805,0.035753045,-0.08821672,2.2840683,-10.0508585,1.5514427
6.040208,4.8447895,-0.106224805,0.035753045,-0.08821672,2.2840683,-10.0508585,1.5514427
6.040243,4.8447785,-0.092376366,0.043209895,-0.07223775,2.255338,-10.089166,1.5179238
6.040279,4.8447676,-0.092376366,0.043209895,-0.07223775,2.255338,-10.089166,1.5179238
6.040338,4.8447638,-0.0795932,0.050666746,-0.05732405,2.2649148,-10.0748005,1.4796166
6.0403967,4.8447595,-0.0795932,0.050666746,-0.05732405,2.2649148,-10.0748005,1.4796166
6.0404925,4.844745,-0.06574476,0.0581236,-0.04241035,2.255338,-10.113108,1.4173675
6.0405874,4.8447304,-0.06574476,0.0581236,-0.04241035,2.255338,-10.113108,1.4173675
6.040705,4.844713,-0.05402685,0.06877624,-0.028561912,2.2218192,-10.156203,1.3934253
6.0408225,4.844696,-0.05402685,0.06877624,-0.028561912,2.2218192,-10.156203,1.3934253
6.040944,4.844719,-0.041243672,0.08155942,-0.013648209,2.2026656,-10.141838,1.460463
6.0410657,4.8447423,-0.041243672,0.08155942,-0.013648209,2.2026656,-10.141838,1.460463
6.041182,4.844805,-0.025264706,0.09221206,0.00020022877,2.1452048,-10.0508585,1.5562311
6.041301,4.844868,-0.025264706,0.09221206,0.00020022877,2.1452048,-10.0508585,1.5562311
6.041301,4.844868,-0.025264706,0.09221206,0.00020022877,2.1452048,-10.0508585,1.5562311
6.041488,4.844958,-0.006089947,0.09753838,0.012983402,1.9440918,-9.959879,1.5514427
6.0417395,4.8450875,0.010954284,0.09540785,0.027897105,1.8674773,-9.883265,1.5945383
6.0418925,4.8451757,0.010954284,0.09540785,0.027897105,1.8674773,-9.883265,1.5945383
6.04207,4.845269,0.025867987,0.089016266,0.044941336,1.9536686,-9.89763,1.5131354
6.0422473,4.845363,0.025867987,0.089016266,0.044941336,1.9536686,-9.89763,1.5131354
6.0424566,4.845394,0.03865116,0.08155942,0.06305083,2.2840683,-10.199299,1.3215994
6.0426674,4.845425,0.03865116,0.08155942,0.06305083,2.2840683,-10.199299,1.3215994
6.0428886,4.8454676,0.05356486,0.07729836,0.07689927,2.1068976,-10.1226845,1.2785037
6.0431113,4.8455095,0.05356486,0.07729836,0.07689927,2.1068976,-10.1226845,1.2785037
6.0433517,4.8456078,0.06847856,0.0762331,0.09287824,2.15957,-9.878476,1.3503298
6.043592,4.8457055,0.06847856,0.0762331,0.09287824,2.15957,-9.878476,1.3503298
6.0437956,4.8458786,0.08126174,0.07729836,0.10566141,2.2266076,-9.581595,1.3982137
6.044001,4.846052,0.08126174,0.07729836,0.10566141,2.2266076,-9.581595,1.3982137
6.044201,4.8462396,0.089783855,0.0762331,0.11311826,2.183512,-9.457097,1.4221559
6.0444016,4.8464274,0.089783855,0.0762331,0.11311826,2.183512,-9.457097,1.4221559
6.044626,4.8466063,0.09511018,0.07942889,0.11524879,2.1212628,-9.433155,1.4030021
6.0448523,4.8467865,0.09511018,0.07942889,0.11524879,2.1212628,-9.433155,1.4030021
6.0451136,4.846923,0.1004365,0.08155942,0.11524879,2.078167,-9.394848,1.3024458
6.0453753,4.8470592,0.1004365,0.08155942,0.11524879,2.078167,-9.394848,1.3024458
6.0456395,4.8471575,0.104697555,0.08262468,0.11737932,2.006341,-9.3182335,1.2210429
6.045905,4.8472557,0.104697555,0.08262468,0.11737932,2.006341,-9.3182335,1.2210429
6.046145,4.8473134,0.106828086,0.08368994,0.119509846,2.006341,-9.232041,1.115698
6.046385,4.84737,0.106828086,0.08368994,0.119509846,2.006341,-9.232041,1.115698
6.046621,4.847424,0.106828086,0.08262468,0.120575115,2.0111294,-9.165004,1.1109096
6.046858,4.847477,0.106828086,0.08262468,0.120575115,2.0111294,-9.165004,1.1109096
6.0471125,4.8475423,0.10363229,0.08155942,0.12377091,2.0207062,-9.136273,1.1587936
6.0473676,4.8476076,0.10363229,0.08155942,0.12377091,2.0207062,-9.136273,1.1587936
6.0476356,4.847748,0.1004365,0.07729836,0.12483617,2.0590134,-9.174581,1.2785037
6.047905,4.8478875,0.1004365,0.07729836,0.12483617,2.0590134,-9.174581,1.2785037
6.0481577,4.8480453,0.0972407,0.07090677,0.12377091,2.0111294,-9.155427,1.3263878
6.0484123,4.8482037,0.0972407,0.07090677,0.12377091,2.0111294,-9.155427,1.3263878
6.0486727,4.848343,0.09404491,0.062384658,0.12270564,2.078167,-9.050082,1.2641385
6.0489335,4.848482,0.09404491,0.062384658,0.12270564,2.078167,-9.050082,1.2641385
6.049106,4.848676,0.09084912,0.053862542,0.118444584,2.1499932,-9.002198,1.2689269
6.0492787,4.848872,0.09084912,0.053862542,0.118444584,2.1499932,-9.002198,1.2689269
6.0493274,4.849057,0.087653324,0.047470953,0.112053,2.2409728,-8.944737,1.3359646
6.049375,4.8492417,0.087653324,0.047470953,0.112053,2.2409728,-8.944737,1.3359646
6.04935,4.849354,0.08339227,0.043209895,0.106726676,2.2840683,-8.868123,1.2449849
6.049324,4.849466,0.08339227,0.043209895,0.106726676,2.2840683,-8.868123,1.2449849
6.049291,4.849532,0.07806595,0.04214463,0.09926982,2.3463178,-8.848969,1.1923125
6.049257,4.8496,0.07806595,0.04214463,0.09926982,2.3463178,-8.848969,1.1923125
6.049235,4.8496275,0.07060909,0.045340426,0.09287824,2.2601264,-8.844181,1.1683705
6.049212,4.8496556,0.07060909,0.045340426,0.09287824,2.2601264,-8.844181,1.1683705
6.04921,4.8496513,0.062086977,0.04853622,0.08542138,2.3175871,-8.863335,1.0773908
6.049208,4.8496466,0.062086977,0.04853622,0.08542138,2.3175871,-8.863335,1.0773908
6.0491567,4.8496857,0.051434334,0.054927804,0.07796454,2.3080103,-8.920795,1.2066777
6.0491056,4.8497252,0.051434334,0.054927804,0.07796454,2.3080103,-8.920795,1.2066777
6.049065,4.849729,0.040781688,0.06344992,0.07263821,2.3175871,-8.892065,1.1587936
6.0490246,4.8497324,0.040781688,0.06344992,0.07263821,2.3175871,-8.892065,1.1587936
6.049015,4.8496995,0.032259572,0.071972035,0.06624663,2.2840683,-8.944737,1.115698
6.0490046,4.8496656,0.032259572,0.071972035,0.06624663,2.2840683,-8.944737,1.115698
6.0490046,4.8496656,0.032259572,0.071972035,0.06624663,2.2840683,-8.944737,1.115698
6.0490046,4.8496656,0.032259572,0.071972035,0.06624663,2.2840683,-8.944737,1.115698
6.0490046,4.8496656,0.032259572,0.071972035,0.06624663,2.2840683,-8.944737,1.115698
6.0490603,4.8494425,0.010954284,0.089016266,0.052398186,2.1739352,-8.925584,1.0821792
6.049155,4.849368,0.001366904,0.09647312,0.0460066,2.1164744,-8.983045,1.1348516
6.049251,4.8492928,0.001366904,0.09647312,0.0460066,2.1164744,-8.983045,1.1348516
6.0493846,4.8492184,-0.0071552116,0.100734174,0.042810805,2.0494366,-9.021352,1.1109096
6.0495143,4.8491454,-0.0071552116,0.100734174,0.042810805,2.0494366,-9.021352,1.1109096
6.049644,4.849062,-0.015677327,0.104995236,0.040680278,2.0254946,-9.002198,1.0821792
6.049768,4.848982,-0.015677327,0.104995236,0.040680278,2.0254946,-9.002198,1.0821792
6.0498934,4.848896,-0.024199443,0.10925629,0.03854975,2.0207062,-9.064447,1.0773908
6.05002,4.8488083,-0.024199443,0.10925629,0.03854975,2.0207062,-9.064447,1.0773908
6.0501747,4.848715,-0.032721557,0.10925629,0.037484486,2.0111294,-9.059659,1.115698
6.050311,4.848632,-0.032721557,0.10925629,0.037484486,2.0111294,-9.059659,1.115698
6.050311,4.848632,-0.032721557,0.10925629,0.037484486,2.0111294,-9.059659,1.115698
6.0506334,4.848459,-0.04017841,0.11138682,0.035353955,1.9776106,-9.107543,1.1252748
6.050759,4.8483663,-0.04763526,0.11351735,0.031092897,2.0446482,-9.141062,1.1204864
6.050888,4.84826,-0.04763526,0.11351735,0.031092897,2.0446482,-9.141062,1.1204864
6.0509925,4.8481374,-0.056157377,0.11564788,0.02683184,2.0685902,-9.126697,1.0965444
6.051097,4.8480144,-0.056157377,0.11564788,0.02683184,2.0685902,-9.126697,1.0965444
6.051251,4.8479176,-0.06361423,0.116713144,0.022570781,2.0638018,-9.208099,1.1923125
6.051251,4.8479176,-0.06361423,0.116713144,0.022570781,2.0638018,-9.208099,1.1923125
6.0515575,4.8477254,-0.07213634,0.118843675,0.01724446,2.030283,-9.303867,1.1923125
6.0517144,4.8476276,-0.07213634,0.118843675,0.01724446,2.030283,-9.303867,1.1923125
6.051876,4.847562,-0.08065846,0.12203947,0.009787609,1.9680338,-9.375694,1.2497733
6.0520453,4.8474936,-0.08065846,0.12203947,0.009787609,1.9680338,-9.375694,1.2497733
6.0522027,4.8474226,-0.089180574,0.12417,0.0012654932,1.8866309,-9.385271,1.2497733
6.0523586,4.8473516,-0.089180574,0.12417,0.0012654932,1.8866309,-9.385271,1.2497733
6.052503,4.847253,-0.0945069,0.12630053,-0.0072566224,1.8579005,-9.442732,1.1923125
6.052647,4.8471546,-0.0945069,0.12630053,-0.0072566224,1.8579005,-9.442732,1.1923125
6.052792,4.8470817,-0.09983322,0.12843105,-0.012582945,1.8004397,-9.509769,1.2785037
6.0529366,4.847009,-0.09983322,0.12843105,-0.012582945,1.8004397,-9.509769,1.2785037
6.053074,4.846913,-0.106224805,0.12843105,-0.017909266,1.7046716,-9.552865,1.2162545
6.0532117,4.846817,-0.106224805,0.12843105,-0.017909266,1.7046716,-9.552865,1.2162545
6.0533476,4.8467374,-0.11048587,0.12736578,-0.02110506,1.6950948,-9.605537,1.3024458
6.0534835,4.846658,-0.11048587,0.12736578,-0.02110506,1.6950948,-9.605537,1.3024458
6.053616,4.8465624,-0.11368166,0.12736578,-0.024300855,1.5849615,-9.648633,1.2449849
6.053748,4.846467,-0.11368166,0.12736578,-0.024300855,1.5849615,-9.648633,1.2449849
6.0538783,4.8463783,-0.11581218,0.12523526,-0.026431382,1.5179238,-9.763555,1.3024458
6.054009,4.8462896,-0.11581218,0.12523526,-0.026431382,1.5179238,-9.763555,1.3024458
6.0541396,4.8461933,-0.11687745,0.11990894,-0.025366118,1.5179238,-9.768343,1.2737153
6.0542703,4.846097,-0.11687745,0.11990894,-0.025366118,1.5179238,-9.768343,1.2737153
6.054403,4.846008,-0.11687745,0.11458261,-0.022170324,1.4652514,-9.797073,1.316811
6.0545363,4.8459177,-0.11687745,0.11458261,-0.022170324,1.4652514,-9.797073,1.316811
6.0546727,4.8458295,-0.11474692,0.10925629,-0.017909266,1.4939818,-9.835381,1.3263878
6.054809,4.8457417,-0.11474692,0.10925629,-0.017909266,1.4939818,-9.835381,1.3263878
6.0549445,4.8456497,-0.11155113,0.10179944,-0.017909266,1.484405,-9.883265,1.2976574
6.055083,4.8455553,-0.11155113,0.10179944,-0.017909266,1.484405,-9.883265,1.2976574
6.055219,4.845463,-0.108355336,0.09327733,-0.015778739,1.508347,-9.911995,1.292869
6.055357,4.8453693,-0.108355336,0.09327733,-0.015778739,1.508347,-9.911995,1.292869
6.055491,4.8452873,-0.104094274,0.08368994,-0.015778739,1.4891934,-9.916783,1.3359646
6.055624,4.8452063,-0.104094274,0.08368994,-0.015778739,1.4891934,-9.916783,1.3359646
6.055756,4.8451214,-0.10089848,0.073037304,-0.016844003,1.5131354,-9.935937,1.3215994
6.0558887,4.845037,-0.10089848,0.073037304,-0.016844003,1.5131354,-9.935937,1.3215994
6.0560207,4.844951,-0.0945069,0.060254127,-0.015778739,1.6136919,-9.993398,1.3072342
6.056153,4.844866,-0.0945069,0.060254127,-0.015778739,1.6136919,-9.993398,1.3072342
6.0562806,4.844791,-0.089180574,0.047470953,-0.017909266,1.6567876,-9.9790325,1.340753
6.0564094,4.844715,-0.089180574,0.047470953,-0.017909266,1.6567876,-9.9790325,1.340753
6.056531,4.8446536,-0.08278899,0.033622514,-0.02110506,1.7381904,-9.998186,1.3838485
6.0566525,4.844592,-0.08278899,0.033622514,-0.02110506,1.7381904,-9.998186,1.3838485
6.0567703,4.8445325,-0.075332135,0.020839343,-0.02323559,1.7764976,-10.01734,1.3694834
6.056889,4.8444724,-0.075332135,0.020839343,-0.02323559,1.7764976,-10.01734,1.3694834
6.057001,4.8444138,-0.07000581,0.0069909045,-0.027496647,1.8387469,-9.983821,1.3551182
6.057114,4.8443546,-0.07000581,0.0069909045,-0.027496647,1.8387469,-9.983821,1.3551182
6.057218,4.8443117,-0.062548965,-0.00366174,-0.031757705,1.8914193,-10.041282,1.3934253
6.0573177,4.8442707,-0.062548965,-0.00366174,-0.031757705,1.8914193,-10.041282,1.3934253
6.0574102,4.844245,-0.05509211,-0.012183856,-0.03814929,1.9201498,-10.031705,1.4221559
6.057507,4.8442183,-0.05509211,-0.012183856,-0.03814929,1.9201498,-10.031705,1.4221559
6.0576034,4.8441744,-0.04763526,-0.018575443,-0.041345086,1.9393034,-10.084377,1.3551182
6.0576987,4.8441305,-0.04763526,-0.018575443,-0.041345086,1.9393034,-10.084377,1.3551182
6.0577855,4.8441043,-0.04017841,-0.026032293,-0.046671405,1.9919758,-10.041282,1.3742718
6.057873,4.844078,-0.04017841,-0.026032293,-0.046671405,1.9919758,-10.041282,1.3742718
6.0579457,4.844078,-0.029525764,-0.03242388,-0.053062994,2.0111294,-10.103531,1.4221559
6.058019,4.844077,-0.029525764,-0.03242388,-0.053062994,2.0111294,-10.103531,1.4221559
6.0580974,4.8440576,-0.019938385,-0.037750203,-0.056258786,2.0159178,-10.084377,1.3503298
6.058176,4.844037,-0.019938385,-0.037750203,-0.056258786,2.0159178,-10.084377,1.3503298
6.058238,4.844061,-0.010351005,-0.043076526,-0.058389317,2.054225,-10.0029745,1.4077905
6.0583005,4.844085,-0.010351005,-0.043076526,-0.058389317,2.054225,-10.0029745,1.4077905
6.058376,4.8440895,-0.0007636249,-0.048402846,-0.056258786,2.0829554,-10.0508585,1.3551182
6.0584517,4.8440943,-0.0007636249,-0.048402846,-0.056258786,2.0829554,-10.0508585,1.3551182
6.0585327,4.8440933,0.008823755,-0.052663904,-0.05199773,2.0829554,-9.969456,1.3215994
6.0586147,4.8440924,0.008823755,-0.052663904,-0.05199773,2.0829554,-9.969456,1.3215994
6.058696,4.844125,0.019476399,-0.054794434,-0.046671405,2.0925324,-9.907207,1.3455414
6.058778,4.8441577,0.019476399,-0.054794434,-0.046671405,2.0925324,-9.907207,1.3455414
6.058872,4.844174,0.02906378,-0.0558597,-0.03814929,2.054225,-9.840169,1.3024458
6.058967,4.8441906,0.02906378,-0.0558597,-0.03814929,2.054225,-9.840169,1.3024458
6.0590644,4.844244,0.03865116,-0.054794434,-0.029627176,2.1212628,-9.753978,1.316811
6.0591626,4.844298,0.03865116,-0.054794434,-0.029627176,2.1212628,-9.753978,1.316811
6.0592694,4.8443027,0.047173277,-0.051598642,-0.020039797,2.0638018,-9.639056,1.2449849
6.0593805,4.844307,0.047173277,-0.051598642,-0.020039797,2.0638018,-9.639056,1.2449849
6.0594735,4.8442845,0.054630127,-0.048402846,-0.006191358,2.0398598,-9.572019,1.1779473
6.0595684,4.8442616,0.054630127,-0.048402846,-0.006191358,2.0398598,-9.572019,1.1779473
6.0596614,4.844232,0.061021715,-0.044141788,0.009787609,2.0207062,-9.442732,1.1300632
6.0597544,4.844202,0.061021715,-0.044141788,0.009787609,2.0207062,-9.442732,1.1300632
6.0598803,4.844188,0.06421751,-0.03988073,0.024701312,1.9153614,-9.3182335,1.1013328
6.060005,4.844174,0.06421751,-0.03988073,0.024701312,1.9153614,-9.3182335,1.1013328
6.060145,4.844158,0.06634804,-0.03455441,0.04387607,1.8626889,-9.188946,1.0534488
6.060284,4.844142,0.06634804,-0.03455441,0.04387607,1.8626889,-9.188946,1.0534488
6.0604157,4.8441095,0.06634804,-0.029228088,0.06624663,1.8531121,-9.054871,0.93852705
6.0605464,4.844077,0.06634804,-0.029228088,0.06624663,1.8531121,-9.054871,0.93852705
6.0607085,4.8440466,0.06528277,-0.02496703,0.087551914,1.8195933,-8.90643,0.9576807
6.060869,4.8440175,0.06528277,-0.02496703,0.087551914,1.8195933,-8.90643,0.9576807
6.061076,4.8439965,0.062086977,-0.021771235,0.112053,1.7142484,-8.801085,0.9576807
6.0612826,4.8439755,0.062086977,-0.021771235,0.112053,1.7142484,-8.801085,0.9576807
6.0615005,4.8439417,0.05782592,-0.017510178,0.13655408,1.6759412,-8.671799,0.8714894
6.061717,4.843908,0.05782592,-0.017510178,0.13655408,1.6759412,-8.671799,0.8714894
6.061941,4.8438616,0.051434334,-0.014314385,0.15572885,1.6711528,-8.5473,0.81402856
6.0621643,4.843815,0.051434334,-0.014314385,0.15572885,1.6711528,-8.5473,0.81402856
6.062398,4.843755,0.041846953,-0.01324912,0.17596887,1.6759412,-8.456321,0.7757214
6.0626316,4.8436947,0.041846953,-0.01324912,0.17596887,1.6759412,-8.456321,0.7757214
6.0628886,4.843625,0.031194309,-0.011118591,0.1962089,1.6184803,-8.307879,0.7565677
6.0631466,4.843556,0.031194309,-0.011118591,0.1962089,1.6184803,-8.307879,0.7565677
6.0634174,4.8434706,0.017345872,-0.011118591,0.21431838,1.6184803,-8.24563,0.7374141
6.063688,4.8433847,0.017345872,-0.011118591,0.21431838,1.6184803,-8.24563,0.7374141
6.063968,4.8432813,0.001366904,-0.010053327,0.22923209,1.6041151,-8.149862,0.7038953
6.0642486,4.843178,0.001366904,-0.010053327,0.22923209,1.6041151,-8.149862,0.7038953
6.0645475,4.843057,-0.017807856,-0.011118591,0.24094999,1.5658079,-8.101978,0.7134721
6.064846,4.842936,-0.017807856,-0.011118591,0.24094999,1.5658079,-8.101978,0.7134721
6.065149,4.8427916,-0.04017841,-0.01324912,0.24840684,1.508347,-8.078036,0.61291564
6.0654516,4.8426456,-0.04017841,-0.01324912,0.24840684,1.508347,-8.078036,0.61291564
6.0657587,4.842477,-0.062548965,-0.017510178,0.25373316,1.5370775,-8.054094,0.6560113
6.0660644,4.842308,-0.062548965,-0.017510178,0.25373316,1.5370775,-8.054094,0.6560113
6.066368,4.8421154,-0.08385425,-0.023901764,0.25692895,1.5227122,-8.0445175,0.60333884
6.0666723,4.8419228,-0.08385425,-0.023901764,0.25692895,1.5227122,-8.0445175,0.60333884
6.0669675,4.8417034,-0.10515954,-0.033489145,0.2590595,1.5658079,-8.015787,0.59376204
6.0672617,4.8414845,-0.10515954,-0.033489145,0.2590595,1.5658079,-8.015787,0.59376204
6.0675344,4.8412375,-0.1275301,-0.045207053,0.25692895,1.6328455,-8.001422,0.5315128
6.0678067,4.840991,-0.1275301,-0.045207053,0.25692895,1.6328455,-8.001422,0.5315128
6.0680656,4.840719,-0.14990065,-0.059055492,0.2526679,1.6807296,-8.049306,0.5410896
6.0683246,4.8404465,-0.14990065,-0.059055492,0.2526679,1.6807296,-8.049306,0.5410896
6.068567,4.840147,-0.17333646,-0.07609972,0.24734159,1.7429788,-8.073248,0.6991069
6.068809,4.8398476,-0.17333646,-0.07609972,0.24734159,1.7429788,-8.073248,0.6991069
6.0689898,4.839528,-0.19570702,-0.09633975,0.23881947,1.9393034,-8.178593,0.7230489
6.06917,4.8392076,-0.19570702,-0.09633975,0.23881947,1.9393034,-8.178593,0.7230489
6.069281,4.8388867,-0.21807757,-0.11444924,0.22710156,2.2266076,-8.293514,0.7661445
6.069392,4.8385663,-0.21807757,-0.11444924,0.22710156,2.2266076,-8.293514,0.7661445
6.0694556,4.8382487,-0.24044813,-0.133624,0.20899206,2.5474305,-8.331821,0.81881696
6.0695186,4.8379307,-0.24044813,-0.133624,0.20899206,2.5474305,-8.331821,0.81881696
6.0695486,4.8375974,-0.2628187,-0.14747244,0.18236046,2.8060043,-8.422802,0.82360536
6.069578,4.837264,-0.2628187,-0.14747244,0.18236046,2.8060043,-8.422802,0.82360536
6.069567,4.8369226,-0.28731975,-0.15705982,0.148272,2.9640217,-8.542512,0.94810385
6.069556,4.8365817,-0.28731975,-0.15705982,0.148272,2.9640217,-8.542512,0.94810385
6.0695,4.8362236,-0.31182083,-0.1634514,0.104596145,3.145981,-8.662222,1.0103531
6.0694437,4.835866,-0.31182083,-0.1634514,0.104596145,3.145981,-8.662222,1.0103531
6.069338,4.83549,-0.33525667,-0.16558194,0.054528717,3.2321723,-8.791509,1.0630256
6.0692315,4.8351154,-0.33525667,-0.16558194,0.054528717,3.2321723,-8.791509,1.0630256
6.0690737,4.8347306,-0.3576272,-0.1634514,0.0012654932,3.2992098,-8.959103,1.1827357
6.0689154,4.834345,-0.3576272,-0.1634514,0.0012654932,3.2992098,-8.959103,1.1827357
6.0686984,4.833939,-0.37999776,-0.16025561,-0.056258786,3.2704794,-9.136273,1.2306197
6.0686984,4.833939,-0.37999776,-0.16025561,-0.056258786,3.2704794,-9.136273,1.2306197
6.0682187,4.833102,-0.4002378,-0.15599456,-0.11271781,3.2752678,-9.222465,1.2641385
6.0679526,4.832691,-0.4002378,-0.15599456,-0.11271781,3.2752678,-9.222465,1.2641385
6.0679526,4.832691,-0.4002378,-0.15599456,-0.11271781,3.2752678,-9.222465,1.2641385
6.067322,4.8318405,-0.4183473,-0.15066823,-0.16598102,3.2034419,-9.351752,1.2401965
6.0669594,4.8314104,-0.43432626,-0.14427665,-0.21604845,3.1794999,-9.533711,1.3263878
6.0665793,4.8309593,-0.43432626,-0.14427665,-0.21604845,3.1794999,-9.533711,1.3263878
6.0665793,4.8309593,-0.43432626,-0.14427665,-0.21604845,3.1794999,-9.533711,1.3263878
6.0657315,4.8300185,-0.44923997,-0.13575453,-0.26292008,3.1747115,-9.682152,1.2258313
6.065317,4.8295913,-0.46095788,-0.124036625,-0.3044654,3.074155,-9.89763,1.2306197
6.0648527,4.8291135,-0.46095788,-0.124036625,-0.3044654,3.074155,-9.89763,1.2306197
6.06438,4.828668,-0.47161052,-0.106992394,-0.34068438,2.9352913,-10.04607,1.3263878
6.0638947,4.8282113,-0.47161052,-0.106992394,-0.34068438,2.9352913,-10.04607,1.3263878
6.063399,4.8277783,-0.48013264,-0.08994816,-0.37264234,2.8538885,-10.0987425,1.4508862
6.0629053,4.8273478,-0.48013264,-0.08994816,-0.37264234,2.8538885,-10.0987425,1.4508862
6.0623956,4.826929,-0.48226315,-0.07503446,-0.40246972,2.743755,-10.184934,1.484405
6.0618906,4.826514,-0.48226315,-0.07503446,-0.40246972,2.743755,-10.184934,1.484405
6.0613747,4.8261127,-0.48013264,-0.06331655,-0.4280361,2.6001031,-10.280702,1.4221559
6.060861,4.825713,-0.48013264,-0.06331655,-0.4280361,2.6001031,-10.280702,1.4221559
6.060368,4.8253345,-0.4748063,-0.052663904,-0.44721085,2.4660277,-10.342952,1.4077905
6.0598774,4.824957,-0.4748063,-0.052663904,-0.44721085,2.4660277,-10.342952,1.4077905
6.059417,4.82459,-0.46947998,-0.045207053,-0.46105927,2.3989902,-10.496181,1.3982137
6.0589585,4.8242235,-0.46947998,-0.045207053,-0.46105927,2.3989902,-10.496181,1.3982137
6.0585184,4.823864,-0.46202314,-0.035619672,-0.47064665,2.3942018,-10.654198,1.3599066
6.05808,4.823504,-0.46202314,-0.035619672,-0.47064665,2.3942018,-10.654198,1.3599066
6.057663,4.8231506,-0.45137048,-0.02496703,-0.4727772,2.336741,-10.673351,1.3934253
6.0572467,4.822798,-0.45137048,-0.02496703,-0.4727772,2.336741,-10.673351,1.3934253
6.0568695,4.822441,-0.4385873,-0.014314385,-0.47384244,2.2649148,-10.7116585,1.3455414
6.056492,4.8220835,-0.4385873,-0.014314385,-0.47384244,2.2649148,-10.7116585,1.3455414
6.056108,4.8217454,-0.4268694,-0.005792269,-0.47384244,2.2649148,-10.749966,1.3838485
6.055723,4.821407,-0.4268694,-0.005792269,-0.47384244,2.2649148,-10.749966,1.3838485
6.0553,4.821101,-0.4119557,0.0016645822,-0.47597298,2.3702598,-10.769119,1.436521
6.05489,4.820804,-0.4119557,0.0016645822,-0.47597298,2.3702598,-10.769119,1.436521
6.0543976,4.8205233,-0.39597675,0.008056169,-0.4812993,2.542642,-10.692505,1.4077905
6.053893,4.820234,-0.39597675,0.008056169,-0.4812993,2.542642,-10.692505,1.4077905
6.053351,4.8199615,-0.3821283,0.016578285,-0.49195194,2.6671407,-10.67814,1.4077905
6.0528145,4.819692,-0.3821283,0.016578285,-0.49195194,2.6671407,-10.67814,1.4077905
6.05224,4.8194313,-0.37041038,0.028296193,-0.5153878,2.7964275,-10.70687,1.5035586
6.051665,4.81917,-0.37041038,0.028296193,-0.5153878,2.7964275,-10.70687,1.5035586
6.051063,4.8189244,-0.360823,0.04107937,-0.54841095,2.8107927,-10.658986,1.532289
6.0504756,4.8186846,-0.360823,0.04107937,-0.54841095,2.8107927,-10.658986,1.532289
6.0498414,4.818451,-0.35336617,0.05599307,-0.58676046,2.7724855,-10.67814,1.6089035
6.0492234,4.818222,-0.35336617,0.05599307,-0.58676046,2.7724855,-10.67814,1.6089035
6.048561,4.8180037,-0.3491051,0.069841504,-0.63576263,2.7246015,-10.668563,1.532289
6.047901,4.8177853,-0.3491051,0.069841504,-0.63576263,2.7246015,-10.668563,1.532289
6.0472274,4.8175764,-0.34697458,0.08049415,-0.69328696,2.6192567,-10.922348,1.4317327
6.046556,4.8173676,-0.34697458,0.08049415,-0.69328696,2.6192567,-10.922348,1.4317327
6.0458674,4.817153,-0.34803984,0.087951005,-0.754007,2.5139117,-10.998962,1.4317327
6.0451803,4.8169384,-0.34803984,0.087951005,-0.754007,2.5139117,-10.998962,1.4317327
6.044484,4.8166986,-0.34803984,0.0911468,-0.81472707,2.0111294,-10.840945,1.5227122
6.0437865,4.8164577,-0.34803984,0.0911468,-0.81472707,2.0111294,-10.840945,1.5227122
6.0430465,4.816207,-0.3459093,0.08475521,-0.87225133,1.9919758,-10.673351,1.3790601
6.0423055,4.815955,-0.3459093,0.08475521,-0.87225133,1.9919758,-10.673351,1.3790601
6.0415173,4.815688,-0.3437788,0.06877624,-0.9287104,2.231396,-10.658986,1.2162545
6.0407295,4.815422,-0.3437788,0.06877624,-0.9287104,2.231396,-10.658986,1.2162545
6.0398684,4.815163,-0.34484404,0.045340426,-0.991561,2.456451,-10.611102,1.1683705
6.039009,4.814904,-0.34484404,0.045340426,-0.991561,2.456451,-10.611102,1.1683705
6.03803,4.814674,-0.34803984,0.022969872,-1.0608032,2.504335,-10.563218,1.2449849
6.0370545,4.8144426,-0.34803984,0.022969872,-1.0608032,2.504335,-10.563218,1.2449849
6.035965,4.814218,-0.35017037,0.0005993177,-1.1375022,2.528277,-10.390836,1.283292
6.0348797,4.813993,-0.35017037,0.0005993177,-1.1375022,2.528277,-10.390836,1.283292
6.0336785,4.8137665,-0.35230088,-0.023901764,-1.2237886,2.5713725,-10.261548,1.283292
6.0324845,4.8135395,-0.35230088,-0.023901764,-1.2237886,2.5713725,-10.261548,1.283292
6.0324845,4.8135395,-0.35230088,-0.023901764,-1.2237886,2.5713725,-10.261548,1.283292
6.030716,4.813226,-0.35549667,-0.050533377,-1.3154013,2.5953147,-10.079589,1.2258313
6.0284214,4.812825,-0.36295354,-0.079295516,-1.4123404,2.6671407,-10.022128,1.2785037
6.027014,4.812583,-0.36295354,-0.079295516,-1.4123404,2.6671407,-10.022128,1.2785037
6.0254765,4.812323,-0.37254092,-0.109122925,-1.5103447,2.7150247,-9.931149,1.2545617
6.0239363,4.8120623,-0.37254092,-0.109122925,-1.5103447,2.7150247,-9.931149,1.2545617
6.0222464,4.8117695,-0.38425884,-0.14108086,-1.6072838,2.7389667,-9.859323,1.1013328
6.020568,4.811482,-0.38425884,-0.14108086,-1.6072838,2.7389667,-9.859323,1.1013328
6.018741,4.8111434,-0.39597675,-0.1730388,-1.7020924,2.7868507,-9.830592,1.0390835
6.0169196,4.810813,-0.39597675,-0.1730388,-1.7020924,2.7868507,-9.830592,1.0390835
6.015044,4.81031,-0.40875992,-0.20499672,-1.7894441,2.825158,-9.744401,0.79008657
6.013174,4.809804,-0.40875992,-0.20499672,-1.7894441,2.825158,-9.744401,0.79008657
6.0112076,4.8092823,-0.4236736,-0.23801991,-1.8736,3.040636,-9.691729,0.61291564
6.009238,4.808758,-0.4236736,-0.23801991,-1.8736,3.040636,-9.691729,0.61291564
6.0071483,4.8082304,-0.4417831,-0.26891258,-1.9534948,3.4715924,-9.514558,0.51714754
6.0050735,4.807706,-0.4417831,-0.26891258,-1.9534948,3.4715924,-9.514558,0.51714754
6.0028844,4.8071704,-0.46095788,-0.29874,-2.039781,3.916914,-9.279925,0.48362875
6.0006976,4.806635,-0.46095788,-0.29874,-2.039781,3.916914,-9.279925,0.48362875
5.998403,4.8060985,-0.48332843,-0.32643688,-2.1345897,4.534618,-9.097966,0.6464345
5.9961085,4.805561,-0.48332843,-0.32643688,-2.1345897,4.534618,-9.097966,0.6464345
5.993701,4.804996,-0.51209056,-0.35093796,-2.2453773,5.1379566,-8.810662,0.63206923
5.991293,4.80443,-0.51209056,-0.35093796,-2.2453773,5.1379566,-8.810662,0.63206923
5.9887505,4.8038387,-0.54511374,-0.36904746,-2.3796005,5.5880666,-8.513782,0.770933
5.9862075,4.8032475,-0.54511374,-0.36904746,-2.3796005,5.5880666,-8.513782,0.770933
5.983511,4.8026233,-0.58133274,-0.3797001,-2.5340638,5.9424086,-8.269572,0.82360536
5.980812,4.8019977,-0.58133274,-0.3797001,-2.5340638,5.9424086,-8.269572,0.82360536
5.977949,4.8013353,-0.6250086,-0.38502643,-2.7045062,6.1195793,-8.00621,0.8762778
5.9750834,4.8006716,-0.6250086,-0.38502643,-2.7045062,6.1195793,-8.00621,0.8762778
5.9720383,4.799961,-0.675076,-0.38502643,-2.884536,6.129156,-7.8769236,0.842759
5.9689937,4.799249,-0.675076,-0.38502643,-2.884536,6.129156,-7.8769236,0.842759
5.9657645,4.7984915,-0.727274,-0.38076535,-3.069892,6.009446,-7.762002,0.8283938
5.9625354,4.7977324,-0.727274,-0.38076535,-3.069892,6.009446,-7.762002,0.8283938
5.9591208,4.796919,-0.783733,-0.3733085,-3.2563133,5.827487,-7.6949644,0.7038953
5.9557023,4.7961035,-0.783733,-0.3733085,-3.2563133,5.827487,-7.6949644,0.7038953
5.952115,4.7952356,-0.8423225,-0.36265585,-3.4331472,5.6120086,-7.656657,0.62728083
5.9485106,4.794362,-0.8423225,-0.36265585,-3.4331472,5.6120086,-7.656657,0.62728083
5.9444003,4.7933483,-0.89984685,-0.34987268,-3.5971978,5.449203,-7.6853876,0.51714754
5.940906,4.792485,-0.89984685,-0.34987268,-3.5971978,5.449203,-7.6853876,0.51714754
5.937111,4.791526,-0.95630586,-0.33922005,-3.7505958,5.3199162,-7.747637,0.35434186
5.933218,4.7905407,-0.95630586,-0.33922005,-3.7505958,5.3199162,-7.747637,0.35434186
5.9291706,4.7895017,-1.0106343,-0.32963267,-3.8944066,5.410896,-7.7811556,0.30645782
5.9251237,4.788461,-1.0106343,-0.32963267,-3.8944066,5.410896,-7.7811556,0.30645782
5.9209385,4.787376,-1.0638976,-0.32111055,-4.032891,5.7269306,-7.819463,0.32561144
5.916754,4.786289,-1.0638976,-0.32111055,-4.032891,5.7269306,-7.819463,0.32561144
5.9124303,4.785165,-1.1150303,-0.31258842,-4.1724405,6.1530986,-7.8625584,0.44532153
5.9081063,4.784039,-1.1150303,-0.31258842,-4.1724405,6.1530986,-7.8625584,0.44532153
5.903631,4.7828765,-1.166163,-0.30087054,-4.3215775,6.6079965,-7.943961,0.62249243
5.899161,4.781714,-1.166163,-0.30087054,-4.3215775,6.6079965,-7.943961,0.62249243
5.8945293,4.780518,-1.2172956,-0.2838263,-4.4898896,7.0245876,-7.943961,0.79487497
5.8898892,4.779319,-1.2172956,-0.2838263,-4.4898896,7.0245876,-7.943961,0.79487497
5.885052,4.7780848,-1.2673631,-0.26358625,-4.6763105,7.3310456,-7.991845,1.0055647
5.8802586,4.7768598,-1.2673631,-0.26358625,-4.6763105,7.3310456,-7.991845,1.0055647
5.8752394,4.775598,-1.3153,-0.24015045,-4.87658,7.551312,-8.154651,1.1540052
5.8702254,4.774336,-1.3153,-0.24015045,-4.87658,7.551312,-8.154651,1.1540052
5.8650026,4.773046,-1.360041,-0.21671464,-5.092829,7.7189064,-8.422802,1.2114661
5.859765,4.7717514,-1.360041,-0.21671464,-5.092829,7.7189064,-8.422802,1.2114661
5.8543243,4.770441,-1.3983905,-0.19540934,-5.3154693,7.771579,-8.734048,1.364695
5.848884,4.7691298,-1.3983905,-0.19540934,-5.3154693,7.771579,-8.734048,1.364695
5.8432035,4.767793,-1.4346095,-0.17623459,-5.5413055,7.699753,-9.107543,1.3599066
5.8375344,4.7664576,-1.4346095,-0.17623459,-5.5413055,7.699753,-9.107543,1.3599066
5.8316493,4.76511,-1.4612412,-0.16132088,-5.765011,7.642292,-9.481039,1.3503298
5.825753,4.7637587,-1.4612412,-0.16132088,-5.765011,7.642292,-9.481039,1.3503298
5.819651,4.762398,-1.4793507,-0.14960296,-5.98126,7.503428,-9.868899,1.1923125
5.813544,4.761035,-1.4793507,-0.14960296,-5.98126,7.503428,-9.868899,1.1923125
5.807228,4.759659,-1.4900033,-0.14214613,-6.1847253,7.225701,-10.290278,0.91937345
5.8009067,4.7582808,-1.4900033,-0.14214613,-6.1847253,7.225701,-10.290278,0.91937345
5.7944064,4.7568893,-1.4942644,-0.14427665,-6.3711467,7.062895,-10.649409,0.7134721
5.7878942,4.755496,-1.4942644,-0.14427665,-6.3711467,7.062895,-10.649409,0.7134721
5.781228,4.7540817,-1.4921339,-0.15919036,-6.5330667,7.0581064,-11.022904,0.5506664
5.774549,4.7526646,-1.4921339,-0.15919036,-6.5330667,7.0581064,-11.022904,0.5506664
5.767736,4.751218,-1.4825464,-0.18688722,-6.6779428,7.2831616,-11.233594,0.40222588
5.760909,4.7497654,-1.4825464,-0.18688722,-6.6779428,7.2831616,-11.233594,0.40222588
5.753962,4.748326,-1.464437,-0.22097568,-6.8111005,7.7811556,-11.286267,0.46926352
5.7470083,4.7468824,-1.464437,-0.22097568,-6.8111005,7.7811556,-11.286267,0.46926352
5.7399254,4.7454486,-1.4399359,-0.26039046,-6.941063,8.418014,-11.410766,0.5793968
5.7328434,4.7440114,-1.4399359,-0.26039046,-6.941063,8.418014,-11.410766,0.5793968
5.725619,4.7425776,-1.4101084,-0.29767472,-7.082743,9.198523,-11.36767,0.6560113
5.718179,4.741096,-1.4101084,-0.29767472,-7.082743,9.198523,-11.36767,0.6560113
5.711019,4.7397194,-1.3760201,-0.32963267,-7.2446632,10.0269165,-11.362882,0.90021986
5.703624,4.7382913,-1.3760201,-0.32963267,-7.2446632,10.0269165,-11.362882,0.90021986
5.6960545,4.736895,-1.3398011,-0.35093796,-7.433215,10.433931,-11.477803,1.1827357
5.688495,4.7354946,-1.3398011,-0.35093796,-7.433215,10.433931,-11.477803,1.1827357
5.680736,4.7341366,-1.2971904,-0.3583948,-7.6409416,10.764331,-11.559206,1.460463
5.6729875,4.7327733,-1.2971904,-0.3583948,-7.6409416,10.764331,-11.559206,1.460463
5.665019,4.731461,-1.2513841,-0.3615906,-7.8614516,10.453085,-11.745954,1.6089035
5.6570625,4.7301435,-1.2513841,-0.3615906,-7.8614516,10.453085,-11.745954,1.6089035
5.648798,4.7288675,-1.1981208,-0.3647864,-8.085157,10.065224,-11.903971,1.6376339
5.648798,4.7288675,-1.1981208,-0.3647864,-8.085157,10.065224,-11.903971,1.6376339
5.632461,4.7263813,-1.1384661,-0.37437376,-8.295014,9.677363,-12.004527,1.5514427
5.6238413,4.725117,-1.1384661,-0.37437376,-8.295014,9.677363,-12.004527,1.5514427
5.6154747,4.723959,-1.0756154,-0.38822222,-8.482501,9.524135,-12.11466,1.4221559
5.6065235,4.722707,-1.0756154,-0.38822222,-8.482501,9.524135,-12.11466,1.4221559
5.6065235,4.722707,-1.0756154,-0.38822222,-8.482501,9.524135,-12.11466,1.4221559
5.589726,4.720485,-1.005308,-0.4010054,-8.641225,9.888053,-12.200851,1.6998832
5.5806026,4.719355,-0.9275437,-0.40739697,-8.777579,10.070012,-12.08593,1.70946
5.57204,4.718281,-0.9275437,-0.40739697,-8.777579,10.070012,-12.08593,1.70946
5.57204,4.718281,-0.9275437,-0.40739697,-8.777579,10.070012,-12.08593,1.70946
5.5546565,4.716226,-0.84551835,-0.40313593,-8.894758,9.581595,-11.9614315,0.9624691
5.545786,4.7152057,-0.7698846,-0.39354852,-8.990632,9.246407,-11.731588,0.50278234
5.5369015,4.714164,-0.7698846,-0.39354852,-8.990632,9.246407,-11.731588,0.50278234
5.528009,4.7131524,-0.7049034,-0.37756956,-9.063069,9.030929,-11.468226,0.21068975
5.528009,4.7131524,-0.7049034,-0.37756956,-9.063069,9.030929,-11.468226,0.21068975
5.510134,4.711128,-0.64950967,-0.35732955,-9.1184635,8.6574335,-11.27669,0.272939
5.5011687,4.7101455,-0.64950967,-0.35732955,-9.1184635,8.6574335,-11.27669,0.272939
5.490788,4.7090874,-0.598377,-0.3370895,-9.158943,8.465898,-10.922348,0.35913026
5.483089,4.7082887,-0.598377,-0.3370895,-9.158943,8.465898,-10.922348,0.35913026
5.4740653,4.707409,-0.54830956,-0.31791475,-9.18451,8.250419,-10.395624,0.31603462
5.465024,4.7065115,-0.54830956,-0.31791475,-9.18451,8.250419,-10.395624,0.31603462
5.4559703,4.7056437,-0.50037265,-0.30087054,-9.20262,7.905654,-9.835381,0.10534488
5.446908,4.7047596,-0.50037265,-0.30087054,-9.20262,7.905654,-9.835381,0.10534488
5.43784,4.7039037,-0.4566968,-0.28595683,-9.210076,7.2783732,-9.174581,-0.038307227
5.428799,4.703035,-0.4566968,-0.28595683,-9.210076,7.2783732,-9.174581,-0.038307227
5.419739,4.7021685,-0.41941255,-0.27636945,-9.20262,6.105214,-8.748413,-0.35434186
5.410679,4.701286,-0.41941255,-0.27636945,-9.20262,6.105214,-8.748413,-0.35434186
5.401665,4.700424,-0.39171568,-0.26678208,-9.165335,5.0134583,-8.346188,-0.4213795
5.3930044,4.6995807,-0.39171568,-0.26678208,-9.165335,5.0134583,-8.346188,-0.4213795
5.3840446,4.698702,-0.37041038,-0.25825995,-9.092897,4.0174704,-7.8769236,-0.6799533
5.3747272,4.697768,-0.37041038,-0.25825995,-9.092897,4.0174704,-7.8769236,-0.6799533
5.365879,4.69685,-0.35230088,-0.26145574,-8.989567,3.4093432,-7.417237,-1.0007763
5.3570666,4.6959147,-0.35230088,-0.26145574,-8.989567,3.4093432,-7.417237,-1.0007763
5.348349,4.69494,-0.33845246,-0.2774347,-8.858539,2.8634653,-6.9767036,-1.1827357
5.3395977,4.6939397,-0.33845246,-0.2774347,-8.858539,2.8634653,-6.9767036,-1.1827357
5.331033,4.692887,-0.32779983,-0.30406633,-8.705141,2.4660277,-6.445191,-1.3072342
5.3224783,4.6918106,-0.32779983,-0.30406633,-8.705141,2.4660277,-6.445191,-1.3072342
5.314087,4.690658,-0.3224735,-0.3381548,-8.532568,2.0015526,-5.899313,-1.4221559
5.3056965,4.6894784,-0.3224735,-0.3381548,-8.532568,2.0015526,-5.899313,-1.4221559
5.2974916,4.6882,-0.32353875,-0.37437376,-8.344016,1.8626889,-5.305551,-1.6041151
5.2892714,4.6868877,-0.32353875,-0.37437376,-8.344016,1.8626889,-5.305551,-1.6041151
5.281259,4.685474,-0.32886508,-0.4127233,-8.143746,1.6807296,-4.9176903,-1.7142484
5.273224,4.68402,-0.32886508,-0.4127233,-8.143746,1.6807296,-4.9176903,-1.7142484
5.2654443,4.682458,-0.340583,-0.45000756,-7.9392157,1.6089035,-4.357447,-1.8004397
5.2576823,4.680859,-0.340583,-0.45000756,-7.9392157,1.6089035,-4.357447,-1.8004397
5.2500715,4.6791325,-0.35336617,-0.4872918,-7.7325544,1.5705963,-3.9312792,-1.7717092
5.2424846,4.677367,-0.35336617,-0.4872918,-7.7325544,1.5705963,-3.9312792,-1.7717092
5.2350936,4.675476,-0.36934513,-0.52457607,-7.529089,1.3790601,-3.41892,-1.685518
5.2350936,4.675476,-0.36934513,-0.52457607,-7.529089,1.3790601,-3.41892,-1.685518
5.21971,4.671271,-0.38425884,-0.56399083,-7.3245583,1.2210429,-3.0023289,-1.661576
5.21295,4.669263,-0.38425884,-0.56399083,-7.3245583,1.2210429,-3.0023289,-1.661576
5.2061567,4.6670485,-0.39810726,-0.6076667,-7.1157665,1.2162545,-2.7341783,-1.6041151
5.199233,4.664731,-0.39810726,-0.6076667,-7.1157665,1.2162545,-2.7341783,-1.6041151
5.1924906,4.662233,-0.41302097,-0.6609299,-6.9027133,1.4796166,-2.552219,-1.6089035
5.1857166,4.659655,-0.41302097,-0.6609299,-6.9027133,1.4796166,-2.552219,-1.6089035
5.1791744,4.6568937,-0.42899993,-0.7205847,-6.68753,1.7525556,-2.4229321,-1.6376339
5.1726294,4.6540556,-0.42899993,-0.7205847,-6.68753,1.7525556,-2.4229321,-1.6376339
5.1662807,4.6510086,-0.44604418,-0.78343534,-6.4702163,2.1978772,-2.4229321,-1.6089035
5.15997,4.647897,-0.44604418,-0.78343534,-6.4702163,2.1978772,-2.4229321,-1.6089035
5.153868,4.644576,-0.4630884,-0.8473512,-6.251837,2.7485435,-2.5187001,-1.5227122
5.1477532,4.6411567,-0.4630884,-0.8473512,-6.251837,2.7485435,-2.5187001,-1.5227122
5.1418576,4.6375237,-0.47906736,-0.9133976,-6.037719,3.4524388,-2.743755,-1.4077905
5.135962,4.6337914,-0.47906736,-0.9133976,-6.037719,3.4524388,-2.743755,-1.4077905
5.1303654,4.6298895,-0.49504632,-0.9783787,-5.8267965,4.156334,-2.8874073,-1.4460979
5.1247144,4.625843,-0.49504632,-0.9783787,-5.8267965,4.156334,-2.8874073,-1.4460979
5.1193066,4.621593,-0.5110253,-1.0422946,-5.6222653,4.8698063,-3.1124623,-1.3982137
5.1138687,4.617204,-0.5110253,-1.0422946,-5.6222653,4.8698063,-3.1124623,-1.3982137
5.1086183,4.6125774,-0.5227432,-1.1008841,-5.4273224,5.674258,-3.2992098,-1.3982137
5.103446,4.607896,-0.5227432,-1.1008841,-5.4273224,5.674258,-3.2992098,-1.3982137
5.098433,4.60297,-0.53446114,-1.1541474,-5.2430315,6.5265937,-3.4380736,-1.2449849
5.0934067,4.5978966,-0.53446114,-1.1541474,-5.2430315,6.5265937,-3.4380736,-1.2449849
5.0886006,4.5926676,-0.54298323,-1.1978232,-5.073654,7.4507556,-3.5003228,-1.067814
5.0837984,4.587302,-0.54298323,-1.1978232,-5.073654,7.4507556,-3.5003228,-1.067814
5.0791492,4.581742,-0.5472443,-1.2329769,-4.919191,8.288726,-3.6008794,-0.9576807
5.0745125,4.576047,-0.5472443,-1.2329769,-4.919191,8.288726,-3.6008794,-0.9576807
5.070025,4.5702095,-0.5493748,-1.2521517,-4.780707,9.030929,-3.691859,-0.81402856
5.0655856,4.5642824,-0.5493748,-1.2521517,-4.780707,9.030929,-3.691859,-0.81402856
5.061244,4.5581994,-0.54830956,-1.2564127,-4.661397,9.749189,-3.6870706,-0.6991069
5.0569363,4.5520086,-0.54830956,-1.2564127,-4.661397,9.749189,-3.6870706,-0.6991069
5.0526958,4.546223,-0.5472443,-1.2436296,-4.560197,10.280702,-3.7062242,-0.51714754
5.048494,4.5402775,-0.5472443,-1.2436296,-4.560197,10.280702,-3.7062242,-0.51714754
5.044297,4.534327,-0.5440485,-1.2148675,-4.4696493,10.745177,-3.7780502,-0.31603462
5.040146,4.52826,-0.5440485,-1.2148675,-4.4696493,10.745177,-3.7780502,-0.31603462
5.036071,4.522183,-0.5397874,-1.1775832,-4.394016,10.840945,-3.892972,-0.08619126
5.032013,4.515954,-0.5397874,-1.1775832,-4.394016,10.840945,-3.892972,-0.08619126
5.02804,4.5097513,-0.53020006,-1.1317768,-4.3258386,10.692505,-4.1180267,0.19632454
5.0240808,4.5033917,-0.53020006,-1.1317768,-4.3258386,10.692505,-4.1180267,0.19632454
5.020206,4.497073,-0.5152864,-1.0849051,-4.253401,10.548853,-4.213795,0.22505496
5.0163455,4.490597,-0.5152864,-1.0849051,-4.253401,10.548853,-4.213795,0.22505496
5.012581,4.484148,-0.49717686,-1.0422946,-4.1756363,10.352529,-4.280833,0.10055647
5.0087147,4.477331,-0.49717686,-1.0422946,-4.1756363,10.352529,-4.280833,0.10055647
5.005177,4.4709635,-0.47693685,-1.0028799,-4.0850887,10.199299,-4.2664676,0.023942016
5.0015373,4.4642253,-0.47693685,-1.0028799,-4.0850887,10.199299,-4.2664676,0.023942016
4.998019,4.457551,-0.45563155,-0.96559554,-3.9785626,9.888053,-4.1706996,-0.076614454
4.994525,4.450733,-0.45563155,-0.96559554,-3.9785626,9.888053,-4.1706996,-0.076614454
4.99115,4.443955,-0.433261,-0.92724603,-3.8571224,9.662998,-4.2281604,-0.19153613
4.9877872,4.437013,-0.433261,-0.92724603,-3.8571224,9.662998,-4.2281604,-0.19153613
4.9845686,4.4301715,-0.41089043,-0.8888965,-3.718638,9.5385,-4.2185836,-0.30166942
4.9813623,4.423169,-0.41089043,-0.8888965,-3.718638,9.5385,-4.2185836,-0.30166942
4.9783,4.416322,-0.38958514,-0.8494817,-3.569501,9.572019,-4.209007,-0.29688102
4.975253,4.4093246,-0.38958514,-0.8494817,-3.569501,9.572019,-4.209007,-0.29688102
4.972343,4.4025097,-0.36827987,-0.81219745,-3.4129071,9.648633,-4.1276035,-0.20111294
4.9694495,4.3955545,-0.36827987,-0.81219745,-3.4129071,9.648633,-4.1276035,-0.20111294
4.9666953,4.388802,-0.3459093,-0.7749132,-3.2541826,9.983821,-4.0078936,-0.18674773
4.9639587,4.3819156,-0.3459093,-0.7749132,-3.2541826,9.983821,-4.0078936,-0.18674773
4.9613523,4.37527,-0.3224735,-0.7323026,-3.0997193,10.189722,-3.739743,-0.21547815
4.95876,4.3684897,-0.3224735,-0.7323026,-3.0997193,10.189722,-3.739743,-0.21547815
4.956271,4.3619866,-0.3011682,-0.685431,-2.9591045,10.280702,-3.7062242,0.08619126
4.9537945,4.35535,-0.3011682,-0.685431,-2.9591045,10.280702,-3.7062242,0.08619126
4.951415,4.348972,-0.28412396,-0.63642883,-2.836599,10.620679,-3.6152446,0.12449849
4.949049,4.342472,-0.28412396,-0.63642883,-2.836599,10.620679,-3.6152446,0.12449849
4.9467616,4.336237,-0.2617534,-0.57890457,-2.7258115,10.453085,-3.4045548,0.062249243
4.944497,4.3299117,-0.2617534,-0.57890457,-2.7258115,10.453085,-3.4045548,0.062249243
4.9423113,4.32388,-0.24044813,-0.5181845,-2.6224809,10.31901,-3.2465374,-0.04309563
4.9401336,4.3177314,-0.24044813,-0.5181845,-2.6224809,10.31901,-3.2465374,-0.04309563
4.9380436,4.31189,-0.22020811,-0.4574644,-2.5244765,9.849746,-3.145981,-0.1340753
4.9359617,4.3059397,-0.22020811,-0.4574644,-2.5244765,9.849746,-3.145981,-0.1340753
4.9339542,4.300291,-0.19996808,-0.40207064,-2.429668,9.557653,-3.0214825,-0.16280572
4.9319572,4.294545,-0.19996808,-0.40207064,-2.429668,9.557653,-3.0214825,-0.16280572
4.930041,4.2890787,-0.17972806,-0.35306847,-2.3316636,9.303867,-2.9257145,-0.25378537
4.9281344,4.283521,-0.17972806,-0.35306847,-2.3316636,9.303867,-2.9257145,-0.25378537
4.9263163,4.2782707,-0.16055329,-0.30513158,-2.2293983,9.045294,-2.719813,-0.39264908
4.924505,4.272929,-0.16055329,-0.30513158,-2.2293983,9.045294,-2.719813,-0.39264908
4.9227934,4.2678895,-0.14350906,-0.26039046,-2.1239371,8.700529,-2.5713725,-0.51714754
4.921086,4.26276,-0.14350906,-0.26039046,-2.1239371,8.700529,-2.5713725,-0.51714754
4.9194727,4.257933,-0.13285641,-0.21671464,-2.0131495,8.336611,-2.528277,-0.56982
4.9178677,4.2530375,-0.13285641,-0.21671464,-2.0131495,8.336611,-2.528277,-0.56982
4.9163637,4.2484303,-0.122203775,-0.17729984,-1.8991663,8.082825,-2.5091233,-0.6703765
4.9148645,4.243756,-0.122203775,-0.17729984,-1.8991663,8.082825,-2.5091233,-0.6703765
4.9134703,4.2393246,-0.11368166,-0.14214613,-1.7841177,7.9487495,-2.3127987,-0.82360536
4.912078,4.234832,-0.11368166,-0.14214613,-1.7841177,7.9487495,-2.3127987,-0.82360536
4.910781,4.2306504,-0.104094274,-0.108057655,-1.6669387,7.747637,-2.2744915,-0.8810662
4.909489,4.2264185,-0.104094274,-0.108057655,-1.6669387,7.747637,-2.2744915,-0.8810662
4.9082875,4.222395,-0.09663743,-0.078230254,-1.5518901,7.704541,-2.0685902,-1.0007763
4.90709,4.2183275,-0.09663743,-0.078230254,-1.5518901,7.704541,-2.0685902,-1.0007763
4.9059796,4.214545,-0.092376366,-0.054794434,-1.4432331,7.675811,-1.8818425,-0.9720459
4.904869,4.2107167,-0.092376366,-0.054794434,-1.4432331,7.675811,-1.8818425,-0.9720459
4.9038363,4.2071133,-0.089180574,-0.03455441,-1.342033,7.785944,-1.7860745,-1.0055647
4.9028077,4.2034774,-0.089180574,-0.03455441,-1.342033,7.785944,-1.7860745,-1.0055647
4.901805,4.199787,-0.08811531,-0.016444914,-1.2536161,8.015787,-1.4891934,-1.0869676
4.900804,4.196059,-0.08811531,-0.016444914,-1.2536161,8.015787,-1.4891934,-1.0869676
4.8998256,4.1924276,-0.089180574,0.0005993177,-1.1822433,8.159439,-1.3503298,-0.9959879
4.8988523,4.1887655,-0.089180574,0.0005993177,-1.1822433,8.159439,-1.3503298,-0.9959879
4.897835,4.1851335,-0.092376366,0.018708814,-1.1343064,8.207323,-1.0726024,-1.0534488
4.8968215,4.1814613,-0.092376366,0.018708814,-1.1343064,8.207323,-1.0726024,-1.0534488
4.895785,4.177906,-0.09663743,0.035753045,-1.1087401,8.130709,-0.9672575,-0.9528923
4.8947496,4.174307,-0.09663743,0.035753045,-1.1087401,8.130709,-0.9672575,-0.9528923
4.893708,4.1707616,-0.10302901,0.050666746,-1.1012832,7.8050976,-0.79487497,-0.94810385
4.8926697,4.1671734,-0.10302901,0.050666746,-1.1012832,7.8050976,-0.79487497,-0.94810385
4.891618,4.1635327,-0.108355336,0.060254127,-1.1076748,7.489063,-0.7038953,-0.94331545
4.8904395,4.1593904,-0.108355336,0.060254127,-1.1076748,7.489063,-0.7038953,-0.94331545
4.88853,4.1523423,-0.11368166,0.061319392,-1.1193928,7.240066,-0.60812724,-1.0821792
4.88853,4.1523423,-0.11368166,0.061319392,-1.1193928,7.240066,-0.60812724,-1.0821792
4.8874774,4.148314,-0.11687745,0.05599307,-1.1321759,6.9144545,-0.47405192,-1.1540052
4.8864827,4.1444483,-0.11687745,0.05599307,-1.1321759,6.9144545,-0.47405192,-1.1540052
4.8854136,4.140113,-0.121138506,0.04427516,-1.1438938,6.6175733,-0.5315128,-1.1061212
4.884492,4.1363134,-0.12859535,0.02723093,-1.1502854,6.339846,-0.58418524,-1.1875241
4.883428,4.131648,-0.12859535,0.02723093,-1.1502854,6.339846,-0.58418524,-1.1875241
4.883428,4.131648,-0.12859535,0.02723093,-1.1502854,6.339846,-0.58418524,-1.1875241
4.883428,4.131648,-0.12859535,0.02723093,-1.1502854,6.339846,-0.58418524,-1.1875241
4.880518,4.118494,-0.12859535,0.02723093,-1.1502854,6.339846,-0.58418524,-1.1875241
4.8797007,4.114403,-0.14457433,-0.02496703,-1.1449591,5.78918,-0.60333884,-1.2210429
4.8788004,4.1096935,-0.14457433,-0.02496703,-1.1449591,5.78918,-0.60333884,-1.2210429
4.8779464,4.104824,-0.15203118,-0.062251285,-1.1300454,5.683835,-0.6607997,-1.163582
4.877101,4.099927,-0.15203118,-0.062251285,-1.1300454,5.683835,-0.6607997,-1.163582
4.876307,4.0948305,-0.15948802,-0.106992394,-1.1119359,5.683835,-0.7469909,-1.0821792
4.875519,4.0897026,-0.15948802,-0.106992394,-1.1119359,5.683835,-0.7469909,-1.0821792
4.874789,4.0843763,-0.16481435,-0.15705982,-1.0895653,5.8466406,-0.79966336,-1.0726024
4.874068,4.0790296,-0.16481435,-0.15705982,-1.0895653,5.8466406,-0.79966336,-1.0726024
4.8733964,4.0734067,-0.16801015,-0.2113883,-1.0629337,6.0621185,-0.81402856,-1.0534488
4.872739,4.0678062,-0.16801015,-0.2113883,-1.0629337,6.0621185,-0.81402856,-1.0534488
4.872134,4.0619297,-0.16907541,-0.26784733,-1.0394979,6.3685765,-0.842759,-1.0103531
4.8715396,4.056041,-0.16907541,-0.26784733,-1.0394979,6.3685765,-0.842759,-1.0103531
4.871002,4.049899,-0.17120594,-0.32430634,-1.0192579,6.6989765,-0.89064306,-1.0103531
4.870472,4.0437546,-0.17120594,-0.32430634,-1.0192579,6.6989765,-0.89064306,-1.0103531
4.870001,4.0373764,-0.1722712,-0.37863484,-1.0011483,7.1586633,-0.93852705,-0.90979666
4.8695393,4.030996,-0.1722712,-0.37863484,-1.0011483,7.1586633,-0.93852705,-0.90979666
4.869125,4.0244055,-0.1722712,-0.42763698,-0.9894304,7.479486,-0.94810385,-0.8571242
4.868722,4.0177774,-0.1722712,-0.42763698,-0.9894304,7.479486,-0.94810385,-0.8571242
4.86835,4.0119944,-0.17120594,-0.47344336,-0.9872999,7.73806,-1.115698,-0.7374141
4.8679786,4.006152,-0.17120594,-0.47344336,-0.9872999,7.73806,-1.115698,-0.7374141
4.867566,4.0001006,-0.16907541,-0.5139234,-0.9883652,7.991845,-1.115698,-0.62728083
4.867158,3.9940312,-0.16907541,-0.5139234,-0.9883652,7.991845,-1.115698,-0.62728083
4.866806,3.9877472,-0.16481435,-0.5501424,-0.99475676,8.221688,-1.2354081,-0.6655881
4.8664594,3.9814472,-0.16481435,-0.5501424,-0.99475676,8.221688,-1.2354081,-0.6655881
4.8661146,3.9749207,-0.15842277,-0.58210033,-1.0011483,8.389283,-1.364695,-0.48841715
4.8657746,3.9683397,-0.15842277,-0.58210033,-1.0011483,8.389283,-1.364695,-0.48841715
4.865484,3.9616218,-0.14990065,-0.61192775,-1.0086052,8.51857,-1.4413095,-0.60333884
4.8651986,3.9548717,-0.14990065,-0.61192775,-1.0086052,8.51857,-1.4413095,-0.60333884
4.864958,3.9479737,-0.14137854,-0.63642883,-1.011801,8.571242,-1.5849615,-0.6560113
4.8647175,3.940847,-0.14137854,-0.63642883,-1.011801,8.571242,-1.5849615,-0.6560113
4.864499,3.934054,-0.13392168,-0.6556036,-1.0107358,8.523358,-1.6424223,-0.5410896
4.864281,3.9270172,-0.13392168,-0.6556036,-1.0107358,8.523358,-1.6424223,-0.5410896
4.8641043,3.9199212,-0.12326904,-0.6737131,-1.0022136,8.571242,-1.8818425,-0.5602432
4.8639345,3.912803,-0.12326904,-0.6737131,-1.0022136,8.571242,-1.8818425,-0.5602432
4.8638034,3.9056883,-0.1094206,-0.69075733,-0.98623466,8.566454,-1.9728222,-0.59376204
4.863679,3.8985548,-0.1094206,-0.69075733,-0.98623466,8.566454,-1.9728222,-0.59376204
4.8635936,3.8914723,-0.092376366,-0.7099321,-0.95853776,8.580819,-2.087744,-0.5506664
4.8635178,3.884377,-0.092376366,-0.7099321,-0.95853776,8.580819,-2.087744,-0.5506664
4.863497,3.8774045,-0.07213634,-0.73123735,-0.91805774,8.738836,-2.183512,-0.61770403
4.863485,3.8704245,-0.07213634,-0.73123735,-0.91805774,8.738836,-2.183512,-0.61770403
4.8635225,3.863627,-0.049765788,-0.75147736,-0.8679903,8.925584,-2.2840683,-0.56982
4.8635674,3.856826,-0.049765788,-0.75147736,-0.8679903,8.925584,-2.2840683,-0.56982
4.863668,3.8502955,-0.024199443,-0.7685216,-0.8083355,9.112331,-2.3080103,-0.5602432
4.8637753,3.843766,-0.024199443,-0.7685216,-0.8083355,9.112331,-2.3080103,-0.5602432
4.863946,3.8375707,0.001366904,-0.7813048,-0.73802805,9.260772,-2.327164,-0.62249243
4.8641233,3.8313844,0.001366904,-0.7813048,-0.73802805,9.260772,-2.327164,-0.62249243
4.86436,3.825623,0.025867987,-0.78556585,-0.65919846,9.41879,-2.4516625,-0.61770403
4.864601,3.8198862,0.025867987,-0.78556585,-0.65919846,9.41879,-2.4516625,-0.61770403
4.8648977,3.8146296,0.051434334,-0.78343534,-0.5739773,9.476251,-2.504335,-0.58897364
4.8651967,3.809393,0.051434334,-0.78343534,-0.5739773,9.476251,-2.504335,-0.58897364
4.865548,3.8047023,0.074870154,-0.7749132,-0.48236457,9.5385,-2.4516625,-0.60812724
4.865904,3.800035,0.074870154,-0.7749132,-0.48236457,9.5385,-2.4516625,-0.60812724
4.8663073,3.7959719,0.09830597,-0.7599995,-0.38436025,9.533711,-2.4516625,-0.5793968
4.866714,3.7919304,0.09830597,-0.7599995,-0.38436025,9.533711,-2.4516625,-0.5793968
4.8671722,3.7885785,0.120676525,-0.7344332,-0.2778338,9.562442,-2.456451,-0.6607997
4.867632,3.7852461,0.120676525,-0.7344332,-0.2778338,9.562442,-2.456451,-0.6607997
4.8681335,3.7826474,0.14198181,-0.70140994,-0.1670463,9.562442,-2.4133554,-0.6895301
4.868638,3.7800617,0.14198181,-0.70140994,-0.1670463,9.562442,-2.4133554,-0.6895301
4.8691783,3.7782779,0.16115656,-0.6577341,-0.0498672,9.41879,-2.4229321,-0.7278373
4.8697205,3.776508,0.16115656,-0.6577341,-0.0498672,9.41879,-2.4229321,-0.7278373
4.870303,3.7755594,0.17607027,-0.6087319,0.071572945,9.255983,-2.2936451,-0.82360536
4.8708844,3.7746205,0.17607027,-0.6087319,0.071572945,9.255983,-2.2936451,-0.82360536
4.8714967,3.774532,0.18991871,-0.55333817,0.1962089,9.169792,-2.3080103,-0.82360536
4.8721094,3.7744448,0.18991871,-0.55333817,0.1962089,9.169792,-2.3080103,-0.82360536
4.872758,3.7752063,0.20163663,-0.4926181,0.32191008,9.097966,-2.2505496,-0.9672575
4.8734074,3.7759635,0.20163663,-0.4926181,0.32191008,9.097966,-2.2505496,-0.9672575
4.8740854,3.7775817,0.21228927,-0.42870227,0.4508071,8.892065,-2.231396,-1.0007763
4.874768,3.7791975,0.21228927,-0.42870227,0.4508071,8.892065,-2.231396,-1.0007763
4.8754745,3.7816606,0.21868086,-0.36372113,0.5797041,8.805874,-2.2266076,-1.0199299
4.8761816,3.784104,0.21868086,-0.36372113,0.5797041,8.805874,-2.2266076,-1.0199299
4.876917,3.7873807,0.22720297,-0.29874,0.7075358,8.734048,-2.1691468,-1.0342951
4.877653,3.7906322,0.22720297,-0.29874,0.7075358,8.734048,-2.1691468,-1.0342951
4.8784275,3.7946568,0.23359455,-0.23482412,0.83323705,8.580819,-2.1308396,-1.1348516
4.8792057,3.7986462,0.23359455,-0.23482412,0.83323705,8.580819,-2.1308396,-1.1348516
4.880008,3.8034163,0.23785561,-0.17197353,0.9557424,8.451532,-2.0925324,-1.0821792
4.8808126,3.8081412,0.23785561,-0.17197353,0.9557424,8.451532,-2.0925324,-1.0821792
4.8816605,3.8135257,0.23892088,-0.11657977,1.0729215,8.312668,-2.0733786,-1.163582
4.882513,3.8188577,0.23892088,-0.11657977,1.0729215,8.312668,-2.0733786,-1.163582
4.883402,3.8248076,0.24211667,-0.06544708,1.1826438,8.207323,-1.9967642,-1.1731589
4.8842983,3.830703,0.24211667,-0.06544708,1.1826438,8.207323,-1.9967642,-1.1731589
4.8852305,3.8371398,0.24531247,-0.0228365,1.2849091,8.212111,-1.8962077,-1.1683705
4.8861704,3.8435035,0.24531247,-0.0228365,1.2849091,8.212111,-1.8962077,-1.1683705
4.8871584,3.8503451,0.24850826,0.011251962,1.3829135,8.173804,-1.8579005,-1.1779473
4.888153,3.8571093,0.24850826,0.011251962,1.3829135,8.173804,-1.8579005,-1.1779473
4.8891954,3.8642473,0.25383458,0.03681831,1.4691999,8.149862,-1.7956513,-1.1875241
4.8902473,3.8713014,0.25383458,0.03681831,1.4691999,8.149862,-1.7956513,-1.1875241
4.8913527,3.8785799,0.25703037,0.052797277,1.5437684,8.111555,-1.7477672,-1.2497733
4.8924685,3.885768,0.25703037,0.052797277,1.5437684,8.111555,-1.7477672,-1.2497733
4.893632,3.89318,0.26129144,0.060254127,1.6119454,8.063671,-1.7429788,-1.2306197
4.89481,3.9005246,0.26129144,0.060254127,1.6119454,8.063671,-1.7429788,-1.2306197
4.89481,3.9005246,0.26129144,0.060254127,1.6119454,8.063671,-1.7429788,-1.2306197
4.8973355,3.915157,0.26342195,0.0581236,1.6726655,7.9870567,-1.70946,-1.436521
4.8985996,3.9221578,0.26342195,0.04853622,1.7291244,7.8865004,-1.6519991,-1.4030021
4.8999033,3.9292269,0.26342195,0.04853622,1.7291244,7.8865004,-1.6519991,-1.4030021
4.901265,3.9363217,0.2623567,0.033622514,1.7791919,7.8146744,-1.6232687,-1.3934253
4.902629,3.943273,0.2623567,0.033622514,1.7791919,7.8146744,-1.6232687,-1.3934253
4.9040575,3.9501507,0.26129144,0.014447756,1.8313898,7.7572136,-1.5131354,-1.4748282
4.9055014,3.9569438,0.26129144,0.014447756,1.8313898,7.7572136,-1.5131354,-1.4748282
4.9069963,3.9636745,0.2591609,-0.007922798,1.8825225,7.589619,-1.4652514,-1.4413095
4.908497,3.9702852,0.2591609,-0.007922798,1.8825225,7.589619,-1.4652514,-1.4413095
4.9100614,3.976822,0.2559651,-0.03455441,1.9357858,7.5225816,-1.4987702,-1.6041151
4.911631,3.9832363,0.2559651,-0.03455441,1.9357858,7.5225816,-1.4987702,-1.6041151
4.913268,3.9895847,0.24957353,-0.066512346,1.9943753,7.4746976,-1.4508862,-1.5945383
4.9149094,3.9958153,0.24957353,-0.066512346,1.9943753,7.4746976,-1.4508862,-1.5945383
4.9166336,4.002043,0.2442472,-0.10060081,2.0561607,7.465121,-1.4891934,-1.5658079
4.9185376,4.0087624,0.2442472,-0.10060081,2.0561607,7.465121,-1.4891934,-1.5658079
4.920159,4.0141706,0.23892088,-0.1368198,2.1232722,7.6135616,-1.4652514,-1.661576
4.9219713,4.020093,0.23892088,-0.1368198,2.1232722,7.6135616,-1.4652514,-1.661576
4.923866,4.0259767,0.23679034,-0.17410405,2.1957102,7.603985,-1.4987702,-1.6998832
4.925767,4.031753,0.23679034,-0.17410405,2.1957102,7.603985,-1.4987702,-1.6998832
4.927762,4.037517,0.23465982,-0.21351884,2.2702787,7.690176,-1.541866,-1.685518
4.9297576,4.0431547,0.23465982,-0.21351884,2.2702787,7.690176,-1.541866,-1.685518
4.931837,4.048711,0.23998614,-0.25506416,2.3448472,7.800309,-1.4891934,-1.7525556
4.933919,4.0541544,0.23998614,-0.25506416,2.3448472,7.800309,-1.4891934,-1.7525556
4.9360847,4.0595264,0.24850826,-0.29767472,2.420481,7.97748,-1.460463,-1.7669208
4.938255,4.064789,0.24850826,-0.29767472,2.420481,7.97748,-1.460463,-1.7669208
4.9405,4.0699577,0.26129144,-0.3413506,2.4939842,8.226477,-1.4173675,-1.7142484
4.942747,4.07502,0.26129144,-0.3413506,2.4939842,8.226477,-1.4173675,-1.7142484
4.9450736,4.0800037,0.2740746,-0.38502643,2.5621612,8.528147,-1.4796166,-1.6519991
4.947402,4.0848823,0.2740746,-0.38502643,2.5621612,8.528147,-1.4796166,-1.6519991
4.9498053,4.0896673,0.28792304,-0.42870227,2.6196854,8.772355,-1.5562311,-1.6280571
4.9522047,4.094344,0.28792304,-0.42870227,2.6196854,8.772355,-1.5562311,-1.6280571
4.954713,4.0990243,0.303902,-0.46705177,2.6772099,9.02614,-1.7669208,-1.6903064
4.957218,4.1035933,0.303902,-0.46705177,2.6772099,9.02614,-1.7669208,-1.6903064
4.959818,4.108163,0.31988096,-0.5022055,2.7326035,9.246407,-1.9536686,-1.7286136
4.9624157,4.1126223,0.31988096,-0.5022055,2.7326035,9.246407,-1.9536686,-1.7286136
4.965096,4.117085,0.33799046,-0.53096765,2.786932,9.385271,-2.1021092,-1.8004397
4.967776,4.1214404,0.33799046,-0.53096765,2.786932,9.385271,-2.1021092,-1.8004397
4.9705324,4.1258087,0.35609996,-0.5544035,2.8487175,9.399636,-2.1739352,-1.7860745
4.973273,4.1300464,0.35609996,-0.5544035,2.8487175,9.399636,-2.1739352,-1.7860745
4.9761105,4.1343555,0.36781788,-0.57357824,2.9168942,9.414001,-2.2984335,-1.8052281
4.9789934,4.138627,0.36781788,-0.57357824,2.9168942,9.414001,-2.2984335,-1.8052281
4.9819303,4.1429415,0.3784705,-0.58423084,2.995724,9.356541,-2.4372973,-1.8531121
4.98485,4.1471252,0.3784705,-0.58423084,2.995724,9.356541,-2.4372973,-1.8531121
4.9878817,4.1514645,0.38699263,-0.5884919,3.089467,9.246407,-2.542642,-1.8435353
4.990925,4.1557136,0.38699263,-0.5884919,3.089467,9.246407,-2.542642,-1.8435353
4.994063,4.1601315,0.39338422,-0.5831656,3.1981242,9.198523,-2.6767175,-1.8435353
4.997205,4.164444,0.39338422,-0.5831656,3.1981242,9.198523,-2.6767175,-1.8435353
5.0104938,4.1824117,0.4061674,-0.5480119,3.4527223,9.270349,-2.944868,-1.8291701
5.0104938,4.1824117,0.4061674,-0.5480119,3.4527223,9.270349,-2.944868,-1.8291701
5.0104938,4.1824117,0.4061674,-0.5480119,3.4527223,9.270349,-2.944868,-1.8291701
5.0104938,4.1824117,0.4061674,-0.5480119,3.4527223,9.270349,-2.944868,-1.8291701
5.0104938,4.1824117,0.4146895,-0.51924974,3.5933373,9.442732,-3.1603463,-1.7764976
5.0174136,4.191898,0.4146895,-0.51924974,3.5933373,9.442732,-3.1603463,-1.7764976
5.0214386,4.1974945,0.42747268,-0.48516127,3.7360828,9.677363,-3.3758245,-1.7381904
5.0247145,4.201933,0.42747268,-0.48516127,3.7360828,9.677363,-3.3758245,-1.7381904
5.0247145,4.201933,0.42747268,-0.48516127,3.7360828,9.677363,-3.3758245,-1.7381904
5.032036,4.212179,0.44345164,-0.44787702,3.878828,9.864111,-3.5673606,-1.5466543
5.035862,4.2176247,0.46582222,-0.40526643,4.0173125,9.974244,-3.7493198,-1.388637
5.0396976,4.222955,0.46582222,-0.40526643,4.0173125,9.974244,-3.7493198,-1.388637
5.0436234,4.2284794,0.49458435,-0.3615906,4.1504707,10.175357,-3.9935284,-1.3503298
5.047548,4.2338715,0.49458435,-0.3615906,4.1504707,10.175357,-3.9935284,-1.3503298
5.0515966,4.239494,0.5286728,-0.31578422,4.2793674,10.333375,-4.2281604,-1.3120226
5.05564,4.244975,0.5286728,-0.31578422,4.2793674,10.333375,-4.2281604,-1.3120226
5.0597715,4.2506084,0.56382656,-0.27104312,4.3997426,10.486604,-4.4340615,-1.3215994
5.063939,4.2561536,0.56382656,-0.27104312,4.3997426,10.486604,-4.4340615,-1.3215994
5.0681677,4.2618256,0.6011108,-0.22630201,4.5083995,10.6398325,-4.6591167,-1.2497733
5.0724096,4.2673774,0.6011108,-0.22630201,4.5083995,10.6398325,-4.6591167,-1.2497733
5.076721,4.273064,0.6383951,-0.17729984,4.606404,10.716447,-4.8458643,-1.1875241
5.08105,4.2786365,0.6383951,-0.17729984,4.606404,10.716447,-4.8458643,-1.1875241
5.085457,4.2843275,0.674614,-0.1251019,4.700147,10.601525,-5.070919,-1.1827357
5.0898714,4.2898927,0.674614,-0.1251019,4.700147,10.601525,-5.070919,-1.1827357
5.0943575,4.2955523,0.710833,-0.06970814,4.7896295,10.419566,-5.2289367,-1.2785037
5.09888,4.3011208,0.710833,-0.06970814,4.7896295,10.419566,-5.2289367,-1.2785037
5.103469,4.3067913,0.74385625,-0.014314385,4.8801765,10.199299,-5.3821654,-1.2545617
5.108041,4.3123055,0.74385625,-0.014314385,4.8801765,10.199299,-5.3821654,-1.2545617
5.1127033,4.3179746,0.7779447,0.043209895,4.970724,9.878476,-5.439626,-1.1061212
5.1173944,4.323543,0.7779447,0.043209895,4.970724,9.878476,-5.439626,-1.1061212
5.1221266,4.3291907,0.81309843,0.102864705,5.067663,9.562442,-5.521029,-1.0151415
5.1268888,4.3347406,0.81309843,0.102864705,5.067663,9.562442,-5.521029,-1.0151415
5.1317315,4.340414,0.8503827,0.16251951,5.166733,9.222465,-5.425261,-0.9528923
5.1365848,4.345967,0.8503827,0.16251951,5.166733,9.222465,-5.425261,-0.9528923
5.1415305,4.3516407,0.8908627,0.22217433,5.273259,8.868123,-5.4204726,-0.90979666
5.146487,4.357194,0.8908627,0.22217433,5.273259,8.868123,-5.4204726,-0.90979666
5.151542,4.362853,0.9334733,0.27863333,5.3851123,8.556877,-5.439626,-0.90979666
5.1566176,4.3684034,0.9334733,0.27863333,5.3851123,8.556877,-5.439626,-0.90979666
5.161795,4.3740287,0.9771491,0.32976604,5.49803,8.293514,-5.33907,-1.0295067
5.1669784,4.3795285,0.9771491,0.32976604,5.49803,8.293514,-5.33907,-1.0295067
5.1723003,4.3851295,1.020825,0.37237662,5.6130786,7.929596,-5.3438582,-1.0295067
5.1776137,4.390589,1.020825,0.37237662,5.6130786,7.929596,-5.3438582,-1.0295067
5.183044,4.396125,1.0634356,0.41179138,5.7302575,7.7093296,-5.3199162,-1.0055647
5.188486,4.401543,1.0634356,0.41179138,5.7302575,7.7093296,-5.3199162,-1.0055647
5.1940413,4.4070086,1.1017851,0.44374934,5.8463717,7.3789296,-5.233725,-0.9624691
5.199609,4.412359,1.1017851,0.44374934,5.8463717,7.3789296,-5.233725,-0.9624691
5.2053027,4.41774,1.1401346,0.46825042,5.9635506,7.144298,-5.2241483,-0.9768343
5.210997,4.422997,1.1401346,0.46825042,5.9635506,7.144298,-5.2241483,-0.9768343
5.2168107,4.428276,1.1763536,0.48635992,6.0764685,6.8330517,-5.1906295,-0.90500826
5.2226357,4.433445,1.1763536,0.48635992,6.0764685,6.8330517,-5.1906295,-0.90500826
5.228571,4.438613,1.2115073,0.49701256,6.190452,6.5026517,-5.209783,-0.80924016
5.228571,4.438613,1.2115073,0.49701256,6.190452,6.5026517,-5.209783,-0.80924016
5.2406445,4.448768,1.2466611,0.5002083,6.30337,6.167464,-5.2863975,-0.7613561
5.2473,4.4541717,1.2466611,0.5002083,6.30337,6.167464,-5.2863975,-0.7613561
5.2529364,4.4586306,1.2796843,0.49701256,6.417353,5.9807158,-5.386954,-0.7422025
5.259085,4.463393,1.2796843,0.49701256,6.417353,5.9807158,-5.386954,-0.7422025
5.2654176,4.468172,1.3105769,0.48849043,6.532402,5.837064,-5.4779334,-0.6799533
5.2717605,4.472855,1.3105769,0.48849043,6.532402,5.837064,-5.4779334,-0.6799533
5.2782464,4.477495,1.3404043,0.47570726,6.649581,5.650316,-5.535394,-0.7326257
5.284742,4.4820423,1.3404043,0.47570726,6.649581,5.650316,-5.535394,-0.7326257
5.2913537,4.486534,1.3702317,0.4629241,6.767825,5.497087,-5.7029886,-0.7565677
5.297981,4.490941,1.3702317,0.4629241,6.767825,5.497087,-5.7029886,-0.7565677
5.304737,4.495296,1.3957981,0.45120618,6.88607,5.2624555,-5.7987566,-0.81881696
5.3115025,4.499565,1.3957981,0.45120618,6.88607,5.2624555,-5.7987566,-0.81881696
5.3184037,4.5037756,1.4213644,0.44374934,7.0107055,4.807557,-6.129156,-1.0486604
5.3252993,4.507895,1.4213644,0.44374934,7.0107055,4.807557,-6.129156,-1.0486604
5.332356,4.5120225,1.443735,0.44907564,7.140668,4.9224787,-6.196194,-1.0007763
5.3394065,4.516061,1.443735,0.44907564,7.140668,4.9224787,-6.196194,-1.0007763
5.3464646,4.5200214,1.443735,0.44907564,7.140668,4.9224787,-6.196194,-1.0007763
5.353385,4.5238104,1.4650402,0.45227146,7.2716956,5.0757074,-6.301539,-1.0821792
5.360594,4.5276785,1.4650402,0.45227146,7.2716956,5.0757074,-6.301539,-1.0821792
5.3679075,4.531507,1.4874108,0.4448146,7.385679,5.2863975,-6.4643445,-1.091756
5.375529,4.5354156,1.4874108,0.4448146,7.385679,5.2863975,-6.4643445,-1.091756
5.382954,4.5391436,1.5108466,0.43096617,7.483683,5.4779334,-6.588843,-0.9624691
5.390349,4.5427837,1.5108466,0.43096617,7.483683,5.4779334,-6.588843,-0.9624691
5.3978944,4.5464067,1.5342824,0.41285667,7.566774,5.7029886,-6.6079965,-0.9624691
5.4054613,4.5499697,1.5342824,0.41285667,7.566774,5.7029886,-6.6079965,-0.9624691
5.413068,4.553437,1.556653,0.39261663,7.636016,5.7843914,-6.5744777,-1.1300632
5.420695,4.5568485,1.556653,0.39261663,7.636016,5.7843914,-6.5744777,-1.1300632
5.4283686,4.5601664,1.5736972,0.37131134,7.689279,5.875371,-6.703765,-1.3694834
5.436038,4.5634193,1.5736972,0.37131134,7.689279,5.875371,-6.703765,-1.3694834
5.443748,4.566581,1.5843499,0.3489408,7.7308245,5.865794,-6.8426285,-1.7142484
5.4514513,4.569683,1.5843499,0.3489408,7.7308245,5.865794,-6.8426285,-1.7142484
5.459202,4.572709,1.5854151,0.325505,7.764913,5.93762,-6.9958572,-1.9249382
5.466936,4.5756774,1.5854151,0.325505,7.764913,5.93762,-6.9958572,-1.9249382
5.4747024,4.5785584,1.5822194,0.29567757,7.7915444,6.2249246,-7.1730285,-2.2122424
5.48246,4.58139,1.5822194,0.29567757,7.7915444,6.2249246,-7.1730285,-2.2122424
5.4902267,4.584129,1.5779583,0.25732806,7.8085885,6.6654577,-7.393295,-2.3558946
5.497991,4.5868254,1.5779583,0.25732806,7.8085885,6.6654577,-7.393295,-2.3558946
5.505759,4.589429,1.572632,0.21152169,7.8181763,7.177817,-7.52737,-2.4133554
5.513508,4.5919895,1.572632,0.21152169,7.8181763,7.177817,-7.52737,-2.4133554
5.521248,4.5944734,1.5705014,0.16358478,7.8117843,7.9487495,-7.536947,-2.4612393
5.528946,4.5969124,1.5705014,0.16358478,7.8117843,7.9487495,-7.536947,-2.4612393
5.536601,4.59929,1.5758277,0.116713144,7.7883487,8.719683,-7.445967,-2.5953147
5.544247,4.6016364,1.5758277,0.116713144,7.7883487,8.719683,-7.445967,-2.5953147
5.5518436,4.6039486,1.5886109,0.07942889,7.745738,9.533711,-7.091625,-2.6910827
5.559448,4.606237,1.5886109,0.07942889,7.745738,9.533711,-7.091625,-2.6910827
5.566964,4.6084895,1.6045899,0.053862542,7.6786265,10.012551,-6.799533,-2.7820623
5.574489,4.610721,1.6045899,0.053862542,7.6786265,10.012551,-6.799533,-2.7820623
5.581919,4.6129265,1.6195036,0.037883572,7.5859485,10.117896,-6.4499793,-2.767697
5.5893426,4.6151075,1.6195036,0.037883572,7.5859485,10.117896,-6.4499793,-2.767697
5.5966663,4.61727,1.6322868,0.026165664,7.4730306,10.55843,-5.884948,-2.9113493
5.603983,4.6194096,1.6322868,0.026165664,7.4730306,10.55843,-5.884948,-2.9113493
5.6111684,4.6215267,1.6408089,0.017643549,7.350525,11.056423,-5.410896,-2.9161377
5.6183615,4.6236267,1.6408089,0.017643549,7.350525,11.056423,-5.410896,-2.9161377
5.6254272,4.625704,1.637613,0.01551302,7.2173667,11.611878,-4.9799395,-2.8491
5.6324797,4.6277595,1.637613,0.01551302,7.2173667,11.611878,-4.9799395,-2.8491
5.639392,4.6297836,1.6205689,0.021904606,7.0703607,12.076353,-4.5872903,-2.815581
5.6463118,4.631793,1.6205689,0.021904606,7.0703607,12.076353,-4.5872903,-2.815581
5.653059,4.6337624,1.5896763,0.043209895,6.911636,12.569559,-4.2999864,-2.7820623
5.659692,4.635683,1.5896763,0.043209895,6.911636,12.569559,-4.2999864,-2.7820623
5.666283,4.637609,1.5481309,0.085820474,6.7433243,12.832921,-4.0462008,-2.7485435
5.6730003,4.6395564,1.5481309,0.085820474,6.7433243,12.832921,-4.0462008,-2.7485435
5.679405,4.641429,1.4938024,0.1508016,6.5718164,12.593501,-3.8115692,-2.858677
5.6857796,4.643278,1.4938024,0.1508016,6.5718164,12.593501,-3.8115692,-2.858677
5.6920643,4.645109,1.4266907,0.23282696,6.4024396,11.841722,-3.691859,-3.1794999
5.6982255,4.6468906,1.4266907,0.23282696,6.4024396,11.841722,-3.691859,-3.1794999
5.704516,4.648695,1.3489264,0.325505,6.2522373,10.453085,-3.7924154,-3.7924154
5.710521,4.650404,1.3489264,0.325505,6.2522373,10.453085,-3.7924154,-3.7924154
5.7164354,4.6521034,1.26264,0.4213788,6.12334,10.97502,-4.4484267,-2.9113493
5.722404,4.6538053,1.26264,0.4213788,6.12334,10.97502,-4.4484267,-2.9113493
5.7282267,4.655486,1.1806147,0.5279052,6.009357,11.372458,-4.9224787,-2.1212628
5.7341323,4.657177,1.1806147,0.5279052,6.009357,11.372458,-4.9224787,-2.1212628
5.7398033,4.658828,1.1124377,0.6536064,5.9017653,11.03727,-5.161899,-1.9297266
5.74551,4.660475,1.1124377,0.6536064,5.9017653,11.03727,-5.161899,-1.9297266
5.7511215,4.6621337,1.0549134,0.8016782,5.8058915,10.515334,-5.48751,-1.982399
5.7567573,4.6637855,1.0549134,0.8016782,5.8058915,10.515334,-5.48751,-1.982399
5.762299,4.665459,1.0080419,0.9646636,5.728127,9.835381,-5.9998693,-2.006341
5.767865,4.6671257,1.0080419,0.9646636,5.728127,9.835381,-5.9998693,-2.006341
5.7733994,4.6688375,0.9654312,1.139367,5.667407,9.069236,-6.7612257,-1.8674773
5.7788095,4.6704965,0.9654312,1.139367,5.667407,9.069236,-6.7612257,-1.8674773
5.7842355,4.672221,0.9313428,1.3183315,5.626927,8.379706,-7.441179,-1.6089035
5.7896805,4.6739354,0.9313428,1.3183315,5.626927,8.379706,-7.441179,-1.6089035
5.7950883,4.6756997,0.9068417,1.4941001,5.6045566,7.833828,-7.9631147,-1.3742718
5.8005047,4.6774497,0.9068417,1.4941001,5.6045566,7.833828,-7.9631147,-1.3742718
5.8059072,4.6792583,0.8929933,1.6613466,5.593904,7.3645644,-8.389283,-1.1348516
5.8113127,4.68105,0.8929933,1.6613466,5.593904,7.3645644,-8.389283,-1.1348516
5.81671,4.682909,0.88553643,1.8179405,5.585382,7.019799,-8.686164,-0.80445176
5.8221,4.6847463,0.88553643,1.8179405,5.585382,7.019799,-8.686164,-0.80445176
5.8274794,4.686652,0.88340586,1.9617512,5.5725985,6.4020953,-8.882488,-0.45489833
5.832868,4.6885405,0.88340586,1.9617512,5.5725985,6.4020953,-8.882488,-0.45489833
5.8382363,4.6904993,0.88340586,2.0906482,5.5555544,5.8083334,-8.700529,-0.10534488
5.843603,4.6924343,0.88340586,2.0906482,5.5555544,5.8083334,-8.700529,-0.10534488
5.8489695,4.6944313,0.8802101,2.2035663,5.537445,5.3199162,-8.643068,0.1340753
5.8543386,4.696404,0.8802101,2.2035663,5.537445,5.3199162,-8.643068,0.1340753
5.859738,4.6984444,0.8706227,2.3015707,5.5076175,4.7261543,-8.724471,0.46447513
5.865001,4.70041,0.8706227,2.3015707,5.5076175,4.7261543,-8.724471,0.46447513
5.870378,4.7024364,0.8567743,2.3899875,5.4671373,4.060566,-8.7053175,0.7182605
5.87597,4.704521,0.8567743,2.3899875,5.4671373,4.060566,-8.7053175,0.7182605
5.881424,4.7065296,0.83973,2.4634907,5.422396,3.2704794,-8.714894,0.7661445
5.886852,4.7085085,0.83973,2.4634907,5.422396,3.2704794,-8.714894,0.7661445
5.886852,4.7085085,0.83973,2.4634907,5.422396,3.2704794,-8.714894,0.7661445
5.886852,4.7085085,0.83973,2.4634907,5.422396,3.2704794,-8.714894,0.7661445
5.9038424,4.714491,0.80244577,2.5721476,5.3265224,1.8914193,-8.724471,0.7613561
5.9089003,4.7162313,0.80244577,2.5721476,5.3265224,1.8914193,-8.724471,0.7613561
5.914242,4.7180424,0.7800752,2.6062362,5.2753897,1.2449849,-8.815451,0.79487497
5.919518,4.7198105,0.7800752,2.6062362,5.2753897,1.2449849,-8.815451,0.79487497
5.9248447,4.7215686,0.75450885,2.629672,5.219996,0.63206923,-8.944737,0.842759
5.930327,4.7233562,0.75450885,2.629672,5.219996,0.63206923,-8.944737,0.842759
5.935619,4.725045,0.726812,2.6445856,5.1656675,-0.062249243,-9.131485,0.78529817
5.9411926,4.726803,0.726812,2.6445856,5.1656675,-0.062249243,-9.131485,0.78529817
5.9411926,4.726803,0.69804984,2.6456509,5.1092086,-0.6655881,-9.380483,0.8810662
5.95157,4.729992,0.69804984,2.6456509,5.1092086,-0.6655881,-9.380483,0.8810662
5.956678,4.7315187,0.670353,2.6318026,5.053815,-1.0630256,-9.701305,0.9720459
5.9618945,4.73306,0.670353,2.6318026,5.053815,-1.0630256,-9.701305,0.9720459
5.967065,4.7345486,0.64478666,2.6041057,4.9994864,-1.7717092,-10.702082,1.1204864
5.97225,4.7360244,0.64478666,2.6041057,4.9994864,-1.7717092,-10.702082,1.1204864
5.977385,4.7374563,0.6298729,2.5604298,4.948354,-2.0350714,-10.82658,1.2737153
5.9825234,4.7388725,0.6298729,2.5604298,4.948354,-2.0350714,-10.82658,1.2737153
5.987587,4.740232,0.613894,2.4997098,4.891895,-2.3942018,-11.358093,1.3311762
5.9927,4.741588,0.613894,2.4997098,4.891895,-2.3942018,-11.358093,1.3311762
5.997754,4.742893,0.6043066,2.4272718,4.8354354,-2.7964275,-11.870452,1.2306197
6.0027704,4.744173,0.6043066,2.4272718,4.8354354,-2.7964275,-11.870452,1.2306197
6.007757,4.7454185,0.6032413,2.3463116,4.7896295,-3.1507695,-12.224793,1.283292
6.0127416,4.746649,0.6032413,2.3463116,4.7896295,-3.1507695,-12.224793,1.283292
6.017704,4.747841,0.6021761,2.254699,4.752345,-3.7014358,-12.756307,1.2306197
6.022664,4.749018,0.6021761,2.254699,4.752345,-3.7014358,-12.756307,1.2306197
6.0276027,4.750154,0.6043066,2.1513681,4.7310395,-4.3143516,-12.89517,1.0486604
6.0325437,4.751278,0.6043066,2.1513681,4.7310395,-4.3143516,-12.89517,1.0486604
6.03747,4.7523603,0.6096329,2.025667,4.7235827,-4.548983,-13.254301,0.9864111
6.0424037,4.753433,0.6096329,2.025667,4.7235827,-4.548983,-13.254301,0.9864111
6.0473433,4.7544622,0.61708975,1.8797258,4.7267785,-4.429273,-13.268666,0.6943185
6.05228,4.755481,0.61708975,1.8797258,4.7267785,-4.429273,-13.268666,0.6943185
6.0572224,4.7564526,0.6245466,1.7146099,4.736366,-4.0078936,-13.522451,0.45489833
6.0621614,4.757415,0.6245466,1.7146099,4.736366,-4.0078936,-13.522451,0.45489833
6.0670996,4.7583313,0.63306874,1.5303191,4.7353005,-2.9975405,-13.608643,0.25857377
6.0720387,4.759239,0.63306874,1.5303191,4.7353005,-2.9975405,-13.608643,0.25857377
6.076949,4.760105,0.64159083,1.3300494,4.7139955,-2.2936451,-13.417107,0.272939
6.08186,4.760964,0.64159083,1.3300494,4.7139955,-2.2936451,-13.417107,0.272939
6.086715,4.761781,0.650113,1.1138006,4.667124,-1.3742718,-13.412318,0.33997664
6.0915713,4.762593,0.650113,1.1138006,4.667124,-1.3742718,-13.412318,0.33997664
6.0963297,4.7633724,0.65970033,0.88476884,4.579772,-0.19632454,-13.043611,0.5650316
6.1010885,4.7641478,0.65970033,0.88476884,4.579772,-0.19632454,-13.043611,0.5650316
6.105701,4.764899,0.6639614,0.6482801,4.4466143,0.8810662,-12.818556,0.78529817
6.110314,4.765647,0.6639614,0.6482801,4.4466143,0.8810662,-12.818556,0.78529817
6.114693,4.7664123,0.66289616,0.40646508,4.2676497,1.8866309,-12.4785795,0.8810662
6.119065,4.7671814,0.66289616,0.40646508,4.2676497,1.8866309,-12.4785795,0.8810662
6.122999,4.7678795,0.654374,0.16251951,4.0482054,2.858677,-11.99495,1.0486604
6.1269317,4.7685747,0.654374,0.16251951,4.0482054,2.858677,-11.99495,1.0486604
6.13058,4.7692,0.6394603,-0.079295516,3.789346,3.787627,-11.496957,1.1061212
6.1342273,4.7698245,0.6394603,-0.079295516,3.789346,3.787627,-11.496957,1.1061212
6.137576,4.7703977,0.6202856,-0.3136537,3.5027897,4.3047748,-11.200075,1.2210429
6.140924,4.770972,0.6202856,-0.3136537,3.5027897,4.3047748,-11.200075,1.2210429
6.1439586,4.7714877,0.5957845,-0.5352287,3.2034504,5.080496,-10.7116585,1.2258313
6.146992,4.7720056,0.5957845,-0.5352287,3.2034504,5.080496,-10.7116585,1.2258313
6.1497083,4.7724686,0.56915283,-0.7354984,2.8987849,5.4061074,-10.070012,1.1013328
6.152424,4.7729335,0.56915283,-0.7354984,2.8987849,5.4061074,-10.070012,1.1013328
6.1548357,4.773345,0.5393255,-0.9059407,2.6069024,5.386954,-9.816227,0.91937345
6.157247,4.77376,0.5393255,-0.9059407,2.6069024,5.386954,-9.816227,0.91937345
6.1593738,4.7741184,0.50630224,-1.0433599,2.3320642,6.009446,-9.198523,0.60812724
6.1615,4.7744794,0.50630224,-1.0433599,2.3320642,6.009446,-9.198523,0.60812724
6.16337,4.77479,0.47008327,-1.140299,2.077466,5.9280434,-8.925584,0.320823
6.165229,4.7751007,0.47008327,-1.140299,2.077466,5.9280434,-8.925584,0.320823
6.166872,4.775368,0.43173376,-1.1999537,1.860152,5.741296,-8.561666,0.20590134
6.168516,4.7756376,0.43173376,-1.1999537,1.860152,5.741296,-8.561666,0.20590134
6.1699758,4.7758675,0.39338422,-1.22552,1.679057,5.21936,-8.231265,0.17238252
6.171435,4.776099,0.39338422,-1.22552,1.679057,5.21936,-8.231265,0.17238252
6.1727467,4.776298,0.3550347,-1.2276506,1.5320505,5.511452,-7.943961,0.22505496
6.1740594,4.776499,0.3550347,-1.2276506,1.5320505,5.511452,-7.943961,0.22505496
6.1752696,4.776664,0.31455466,-1.1967579,1.4233935,5.2959743,-8.231265,0.20111294
6.1764746,4.7768292,0.31455466,-1.1967579,1.4233935,5.2959743,-8.231265,0.20111294
6.1776037,4.776964,0.26874828,-1.1381683,1.3466945,5.2480903,-9.23683,0.50278234
6.178736,4.777101,0.26874828,-1.1381683,1.3466945,5.2480903,-9.23683,0.50278234
6.179835,4.7772326,0.2144198,-1.0572083,1.2955618,5.257667,-11.836933,1.9297266
6.1809373,4.7773657,0.2144198,-1.0572083,1.2955618,5.257667,-11.836933,1.9297266
6.182047,4.7774844,0.15583025,-0.9623997,1.2625386,5.363012,-14.259866,3.9600096
6.1831555,4.777604,0.15583025,-0.9623997,1.2625386,5.363012,-14.259866,3.9600096
6.1842527,4.777699,0.1153502,-0.8633302,1.2348417,5.78918,-15.638926,4.903325
6.1853504,4.777795,0.1153502,-0.8633302,1.2348417,5.78918,-15.638926,4.903325
6.186401,4.7778854,0.10789335,-0.75893426,1.1986227,5.985504,-15.533581,4.0174704
6.1874523,4.777977,0.10789335,-0.75893426,1.1986227,5.985504,-15.533581,4.0174704
6.188431,4.778072,0.119611256,-0.6470815,1.1421638,5.923255,-14.839262,2.6384103
6.1894116,4.7781677,0.119611256,-0.6470815,1.1421638,5.923255,-14.839262,2.6384103
6.1902976,4.778268,0.13452496,-0.5341634,1.0558773,6.2584434,-14.082694,1.7621324
6.191184,4.778369,0.13452496,-0.5341634,1.0558773,6.2584434,-14.082694,1.7621324
6.191962,4.7784905,0.1483734,-0.42018014,0.94082874,6.172252,-13.445837,1.5227122
6.19274,4.7786126,0.1483734,-0.42018014,0.94082874,6.172252,-13.445837,1.5227122
6.1933928,4.778755,0.16115656,-0.30406633,0.8108665,5.3678,-12.842498,1.2737153
6.194046,4.778898,0.16115656,-0.30406633,0.8108665,5.3678,-12.842498,1.2737153
6.194584,4.7790728,0.17607027,-0.19647461,0.68623054,4.2664676,-12.157756,1.3024458
6.195122,4.7792487,0.17607027,-0.19647461,0.68623054,4.2664676,-12.157756,1.3024458
6.1955667,4.779462,0.18991871,-0.108057655,0.5797041,3.3087866,-11.468226,1.4269443
6.196011,4.7796755,0.18991871,-0.108057655,0.5797041,3.3087866,-11.468226,1.4269443
6.1964054,4.7799277,0.20163663,-0.043076526,0.5072661,2.705448,-10.754754,1.6424223
6.1967993,4.78018,0.20163663,-0.043076526,0.5072661,2.705448,-10.754754,1.6424223
6.1971817,4.7804594,0.21335453,0.0069909045,0.47850397,2.2744915,-9.907207,1.685518
6.1975646,4.7807393,0.21335453,0.0069909045,0.47850397,2.2744915,-9.907207,1.685518
6.197943,4.7810245,0.2261377,0.047470953,0.48489556,2.4229321,-9.414001,1.4987702
6.198322,4.781309,0.2261377,0.047470953,0.48489556,2.4229321,-9.414001,1.4987702
6.198724,4.78159,0.23465982,0.09540785,0.5200493,2.6144683,-9.02614,1.2354081
6.1991262,4.781871,0.23465982,0.09540785,0.5200493,2.6144683,-9.02614,1.2354081
6.1995816,4.7821493,0.23785561,0.16145425,0.575443,2.6719291,-8.781932,1.0630256
6.2000422,4.7824306,0.23785561,0.16145425,0.575443,2.6719291,-8.781932,1.0630256
6.2005734,4.7827096,0.23572509,0.25413227,0.64148945,2.7485435,-8.7053175,0.94331545
6.201095,4.7829833,0.23572509,0.25413227,0.64148945,2.7485435,-8.7053175,0.94331545
6.201684,4.7832437,0.22507244,0.36918083,0.7096664,2.743755,-8.700529,0.80445176
6.202278,4.783506,0.22507244,0.36918083,0.7096664,2.743755,-8.700529,0.80445176
6.2029486,4.783763,0.20696294,0.50127363,0.7735822,2.7246015,-8.868123,0.8475474
6.2036195,4.7840204,0.20696294,0.50127363,0.7735822,2.7246015,-8.868123,0.8475474
6.2043567,4.7842627,0.1813966,0.6450843,0.8300412,2.6479871,-9.088389,0.8523358
6.2050943,4.784504,0.1813966,0.6450843,0.8300412,2.6479871,-9.088389,0.8523358
6.205895,4.784739,0.14943866,0.78996027,0.8747823,2.504335,-9.380483,1.0582372
6.2066913,4.7849717,0.14943866,0.78996027,0.8747823,2.504335,-9.380483,1.0582372
6.2075377,4.7851973,0.11641546,0.9284447,0.9035445,2.2457612,-9.715671,1.2354081
6.2083836,4.7854214,0.11641546,0.9284447,0.9035445,2.2457612,-9.715671,1.2354081
6.2092595,4.7856364,0.08552279,1.0530806,0.9152624,1.7956513,-9.998186,1.2545617
6.210139,4.7858505,0.08552279,1.0530806,0.9152624,1.7956513,-9.998186,1.2545617
6.2110753,4.7860804,0.061021715,1.1585418,0.9099361,1.1013328,-10.16578,1.3072342
6.2120104,4.786309,0.061021715,1.1585418,0.9099361,1.1013328,-10.16578,1.3072342
6.2130623,4.786518,0.041846953,1.2395018,0.8950224,0.2633622,-10.338163,1.364695
6.2141128,4.786727,0.041846953,1.2395018,0.8950224,0.2633622,-10.338163,1.364695
6.215205,4.7868843,0.027998514,1.2948956,0.87797815,-0.6991069,-10.414778,1.3072342
6.216298,4.7870407,0.027998514,1.2948956,0.87797815,-0.6991069,-10.414778,1.3072342
6.217392,4.7871666,0.02160693,1.324723,0.8641297,-1.7046716,-10.424355,1.1683705
6.2184863,4.7872925,0.02160693,1.324723,0.8641297,-1.7046716,-10.424355,1.1683705
6.219574,4.787408,0.019476399,1.3279189,0.85560757,-2.5091233,-10.357317,1.1300632
6.2206616,4.787522,0.019476399,1.3279189,0.85560757,-2.5091233,-10.357317,1.1300632
6.221752,4.7876263,0.02160693,1.3076788,0.85773814,-3.0693667,-10.338163,0.93852705
6.2228427,4.7877293,0.02160693,1.3076788,0.85773814,-3.0693667,-10.338163,0.93852705
6.223939,4.787833,0.02906378,1.2629377,0.86626023,-3.3327289,-10.304645,0.8714894
6.2250347,4.7879357,0.02906378,1.2629377,0.86626023,-3.3327289,-10.304645,0.8714894
6.2261357,4.7880425,0.03865116,1.1968913,0.8747823,-3.5434184,-10.223241,0.8762778
6.2272353,4.7881484,0.03865116,1.1968913,0.8747823,-3.5434184,-10.223241,0.8762778
6.228335,4.788271,0.05356486,1.1127354,0.88436973,-3.596091,-10.184934,1.1204864
6.229436,4.7883925,0.05356486,1.1127354,0.88436973,-3.596091,-10.184934,1.1204864
6.2305384,4.788531,0.074870154,1.014731,0.8939571,-3.6870706,-10.0508585,1.1875241
6.2316403,4.7886686,0.074870154,1.014731,0.8939571,-3.6870706,-10.0508585,1.1875241
6.2327456,4.78882,0.10150176,0.9082046,0.90247923,-3.596091,-9.825804,0.9720459
6.2338505,4.7889705,0.10150176,0.9082046,0.90247923,-3.596091,-9.825804,0.9720459
6.234948,4.789137,0.1270681,0.79209083,0.90247923,-3.371036,-9.667787,0.8523358
6.2360454,4.789302,0.1270681,0.79209083,0.90247923,-3.371036,-9.667787,0.8523358
6.2371225,4.789485,0.14943866,0.6642591,0.8907613,-2.9879637,-9.500193,0.8762778
6.238198,4.789667,0.14943866,0.6642591,0.8907613,-2.9879637,-9.500193,0.8762778
6.2392397,4.7898617,0.16754816,0.5279052,0.8641297,-2.5187001,-9.313444,0.8619126
6.240279,4.7900558,0.16754816,0.5279052,0.8641297,-2.5187001,-9.313444,0.8619126
6.2412715,4.790256,0.1845924,0.38835558,0.8247149,-2.087744,-9.059659,0.7326257
6.2422624,4.7904553,0.1845924,0.38835558,0.8247149,-2.087744,-9.059659,0.7326257
6.243191,4.7906566,0.19737557,0.25200173,0.7714517,-1.70946,-8.762778,0.63206923
6.244118,4.790858,0.19737557,0.25200173,0.7714517,-1.70946,-8.762778,0.63206923
6.244974,4.791047,0.20270188,0.12630053,0.7086011,-1.2641385,-8.403648,0.46926352
6.2458296,4.791235,0.20270188,0.12630053,0.7086011,-1.2641385,-8.403648,0.46926352
6.2458296,4.791235,0.20270188,0.12630053,0.7086011,-1.2641385,-8.403648,0.46926352
6.247408,4.791601,0.20270188,0.013382491,0.6382936,-0.9624691,-8.025364,0.4357447
6.2480836,4.791746,0.19524503,-0.08888289,0.56265986,-0.63206923,-7.666234,0.29688102
6.2487535,4.79189,0.19524503,-0.08888289,0.56265986,-0.63206923,-7.666234,0.29688102
6.2487535,4.79189,0.18033133,-0.17943038,0.48169976,-0.4165911,-7.302315,0.22505496
6.2487535,4.79189,0.18033133,-0.17943038,0.48169976,-0.4165911,-7.302315,0.22505496
6.2505407,4.7922363,0.18033133,-0.17943038,0.48169976,-0.4165911,-7.302315,0.22505496
6.2509713,4.792298,0.15796077,-0.25719467,0.39754388,-0.22505496,-6.981492,0.10055647
6.2513213,4.7923245,0.13026391,-0.32430634,0.31764904,-0.11971009,-6.5840545,0.0047884034
6.251661,4.792351,0.13026391,-0.32430634,0.31764904,-0.11971009,-6.5840545,0.0047884034
6.2519045,4.7923403,0.1004365,-0.37756956,0.2377542,-0.038307227,-6.291962,-0.12449849
6.252147,4.7923303,0.1004365,-0.37756956,0.2377542,-0.038307227,-6.291962,-0.12449849
6.252303,4.7922835,0.0674133,-0.42018014,0.16531622,0.009576807,-6.033388,-0.22984336
6.252459,4.7922373,0.0674133,-0.42018014,0.16531622,0.009576807,-6.033388,-0.22984336
6.252459,4.7922373,0.0674133,-0.42018014,0.16531622,0.009576807,-6.033388,-0.22984336
6.252643,4.7920694,0.031194309,-0.45213807,0.10140035,-0.05267244,-5.8226986,-0.39743748
6.252675,4.791943,-0.010351005,-0.47663915,0.047071867,-0.04309563,-5.6646814,-0.50278234
6.252707,4.7918158,-0.010351005,-0.47663915,0.047071867,-0.04309563,-5.6646814,-0.50278234
6.25268,4.7916174,-0.05402685,-0.4958139,-0.0008650357,0.0047884034,-5.559336,-0.5554548
6.2526603,4.791473,-0.05402685,-0.4958139,-0.0008650357,0.0047884034,-5.559336,-0.5554548
6.2525845,4.791254,-0.09983322,-0.51072764,-0.04241035,0.10055647,-5.4922986,-0.58897364
6.2525086,4.7910357,-0.09983322,-0.51072764,-0.04241035,0.10055647,-5.4922986,-0.58897364
6.2523823,4.790769,-0.14777012,-0.5181845,-0.075433545,0.272939,-5.4779334,-0.61291564
6.2522564,4.7905025,-0.14777012,-0.5181845,-0.075433545,0.272939,-5.4779334,-0.61291564
6.252075,4.7901907,-0.19677228,-0.52138025,-0.10313042,0.5315128,-5.554548,-0.521936
6.2518945,4.7898784,-0.19677228,-0.52138025,-0.10313042,0.5315128,-5.554548,-0.521936
6.2516656,4.789522,-0.24577445,-0.5181845,-0.12976204,0.7422025,-5.7125654,-0.45010993
6.251436,4.789166,-0.24577445,-0.5181845,-0.12976204,0.7422025,-5.7125654,-0.45010993
6.2511754,4.788765,-0.29371136,-0.5085971,-0.15319785,0.8475474,-5.9041014,-0.4165911
6.2509146,4.7883644,-0.29371136,-0.5085971,-0.15319785,0.8475474,-5.9041014,-0.4165911
6.2506266,4.7879252,-0.3373872,-0.49155286,-0.17237261,0.9864111,-6.0860605,-0.40701428
6.2503386,4.787485,-0.3373872,-0.49155286,-0.17237261,0.9864111,-6.0860605,-0.40701428
6.2500377,4.7870092,-0.3757367,-0.46811703,-0.18409052,1.0390835,-6.2967505,-0.39743748
6.249738,4.7865343,-0.3757367,-0.46811703,-0.18409052,1.0390835,-6.2967505,-0.39743748
6.2494287,4.7860255,-0.4119557,-0.4393549,-0.18835159,1.1875241,-6.4308257,-0.4213795
6.249119,4.785516,-0.4119557,-0.4393549,-0.18835159,1.1875241,-6.4308257,-0.4213795
6.2488046,4.784982,-0.4449789,-0.40313593,-0.18515578,1.3551182,-6.6367273,-0.36391866
6.2484922,4.7844515,-0.4449789,-0.40313593,-0.18515578,1.3551182,-6.6367273,-0.36391866
6.248181,4.7839,-0.47267577,-0.35946006,-0.1755684,1.4796166,-6.8761473,-0.25378537
6.2478685,4.7833467,-0.47267577,-0.35946006,-0.1755684,1.4796166,-6.8761473,-0.25378537
6.247569,4.782778,-0.49717686,-0.30726212,-0.16065471,1.6424223,-7.1395097,-0.21068975
6.24727,4.782211,-0.49717686,-0.30726212,-0.16065471,1.6424223,-7.1395097,-0.21068975
6.2469807,4.7816405,-0.5174169,-0.2476073,-0.14361048,1.70946,-7.431602,0.023942016
6.2466917,4.781071,-0.5174169,-0.2476073,-0.14361048,1.70946,-7.431602,0.023942016
6.246417,4.7805376,-0.53446114,-0.18049563,-0.123370446,1.6759412,-8.2169,0.641646
6.2461433,4.7800045,-0.53446114,-0.18049563,-0.123370446,1.6759412,-8.2169,0.641646
6.2459335,4.77952,-0.54830956,-0.109122925,-0.106326215,1.6424223,-9.591172,1.5514427
6.245724,4.779036,-0.54830956,-0.109122925,-0.106326215,1.6424223,-9.591172,1.5514427
6.245607,4.778577,-0.55257064,-0.04201126,-0.095673576,0.78050977,-12.143391,2.4133554
6.2454896,4.778118,-0.55257064,-0.04201126,-0.095673576,0.78050977,-12.143391,2.4133554
6.2453685,4.7776775,-0.53446114,0.0048603755,-0.08715145,1.2114661,-13.335704,2.7485435
6.245241,4.777214,-0.53446114,0.0048603755,-0.08715145,1.2114661,-13.335704,2.7485435
6.2451096,4.776777,-0.5174169,0.054927804,-0.0828904,1.4269443,-13.781025,2.542642
6.2449865,4.776367,-0.5174169,0.054927804,-0.0828904,1.4269443,-13.781025,2.542642
6.2448087,4.775979,-0.48226315,0.090081535,-0.11058728,1.9536686,-14.087482,2.327164
6.244627,4.7755804,-0.48226315,0.090081535,-0.11058728,1.9536686,-14.087482,2.327164
6.2444024,4.7752237,-0.4396526,0.13056158,-0.15106732,1.9871874,-15.049952,2.2601264
6.244178,4.7748666,-0.4396526,0.13056158,-0.15106732,1.9871874,-15.049952,2.2601264
6.243898,4.7745667,-0.38851988,0.1689111,-0.21711372,1.5849615,-14.84405,2.054225
6.2436194,4.774268,-0.38851988,0.1689111,-0.21711372,1.5849615,-14.84405,2.054225
6.243286,4.7740445,-0.3256693,0.19021639,-0.3076612,0.9624691,-14.580688,1.8579005
6.242954,4.7738214,-0.3256693,0.19021639,-0.3076612,0.9624691,-14.580688,1.8579005
6.2426186,4.773654,-0.26388395,0.19021639,-0.40779606,0.19632454,-14.379576,1.4508862
6.242284,4.7734876,-0.26388395,0.19021639,-0.40779606,0.19632454,-14.379576,1.4508862
6.241889,4.77336,-0.20422913,0.16678058,-0.5047351,0.033518825,-13.881581,1.2210429
6.241495,4.7732325,-0.20422913,0.16678058,-0.5047351,0.033518825,-13.881581,1.2210429
6.2409973,4.7731605,-0.15203118,0.12417,-0.5984784,0.05267244,-13.383588,1.2210429
6.2404995,4.7730885,-0.15203118,0.12417,-0.5984784,0.05267244,-13.383588,1.2210429
6.239861,4.7730784,-0.107290074,0.069841504,-0.6890259,0.32561144,-13.019669,1.2737153
6.2392235,4.773069,-0.107290074,0.069841504,-0.6890259,0.32561144,-13.019669,1.2737153
6.2384677,4.7731023,-0.06681002,0.01551302,-0.7710512,0.47884035,-12.593501,1.3455414
6.237713,4.773136,-0.06681002,0.01551302,-0.7710512,0.47884035,-12.593501,1.3455414
6.2369027,4.7732086,-0.024199443,-0.030293351,-0.84135866,0.40701428,-11.956643,1.163582
6.236093,4.7732806,-0.024199443,-0.030293351,-0.84135866,0.40701428,-11.956643,1.163582
6.2351832,4.7733936,0.015215342,-0.06864287,-0.9010135,0.5650316,-11.429919,1.0773908
6.234276,4.7735066,0.015215342,-0.06864287,-0.9010135,0.5650316,-11.429919,1.0773908
6.23329,4.7736516,0.051434334,-0.10166607,-0.9489504,0.62728083,-10.927136,0.93852705
6.232308,4.7737975,0.051434334,-0.10166607,-0.9489504,0.62728083,-10.927136,0.93852705
6.231199,4.773931,0.082327,-0.12936294,-0.9872999,0.82360536,-10.481815,0.78050977
6.2300916,4.774066,0.082327,-0.12936294,-0.9872999,0.82360536,-10.481815,0.78050977
6.228928,4.774168,0.10895862,-0.14747244,-1.016062,0.9959879,-10.108319,0.61770403
6.2277637,4.77427,0.10895862,-0.14747244,-1.016062,0.9959879,-10.108319,0.61770403
6.2265816,4.7743773,0.12919864,-0.15919036,-1.0373673,1.13964,-9.739613,0.5315128
6.225398,4.7744837,0.12919864,-0.15919036,-1.0373673,1.13964,-9.739613,0.5315128
6.224241,4.7745466,0.14198181,-0.15919036,-1.052281,1.1013328,-9.615114,0.17717093
6.223087,4.774608,0.14198181,-0.15919036,-1.052281,1.1013328,-9.615114,0.17717093
6.221927,4.7746735,0.14624287,-0.15279876,-1.0586727,1.1683705,-9.41879,0.10055647
6.220767,4.774738,0.14624287,-0.15279876,-1.0586727,1.1683705,-9.41879,0.10055647
6.219596,4.7748027,0.14304708,-0.13895033,-1.0661294,1.3838485,-9.160215,-0.033518825
6.2184258,4.774867,0.14304708,-0.13895033,-1.0661294,1.3838485,-9.160215,-0.033518825
6.217249,4.7749267,0.13452496,-0.11977556,-1.0703906,1.388637,-8.896853,-0.019153614
6.2160716,4.7749853,0.13452496,-0.11977556,-1.0703906,1.388637,-8.896853,-0.019153614
6.2149134,4.7750216,0.122807056,-0.09847028,-1.0746516,1.340753,-8.614338,-0.25378537
6.213758,4.775058,0.122807056,-0.09847028,-1.0746516,1.340753,-8.614338,-0.25378537
6.2125893,4.775082,0.10895862,-0.078230254,-1.084239,1.2880806,-8.312668,-0.20590134
6.211421,4.7751064,0.10895862,-0.078230254,-1.084239,1.2880806,-8.312668,-0.20590134
6.210246,4.7751117,0.091914386,-0.062251285,-1.0980874,1.2545617,-8.063671,-0.272939
6.2090707,4.775117,0.091914386,-0.062251285,-1.0980874,1.2545617,-8.063671,-0.272939
6.207884,4.7750993,0.06954383,-0.047337584,-1.1151316,1.2401965,-7.8386164,-0.31603462
6.206697,4.775082,0.06954383,-0.047337584,-1.1151316,1.2401965,-7.8386164,-0.31603462
6.2055044,4.7750335,0.041846953,-0.035619672,-1.1332412,1.1300632,-7.7332716,-0.36391866
6.204313,4.7749844,0.041846953,-0.035619672,-1.1332412,1.1300632,-7.7332716,-0.36391866
6.203109,4.7749023,0.00988902,-0.027097559,-1.1545465,1.043872,-7.551312,-0.37828386
6.2019053,4.7748194,0.00988902,-0.027097559,-1.1545465,1.043872,-7.551312,-0.37828386
6.200685,4.774701,-0.025264706,-0.019640706,-1.176917,1.0295067,-7.383718,-0.51235914
6.1994667,4.774582,-0.025264706,-0.019640706,-1.176917,1.0295067,-7.383718,-0.51235914
6.198245,4.7744226,-0.06361423,-0.01324912,-1.1960918,0.89064306,-7.335834,-0.5315128
6.1970234,4.774264,-0.06361423,-0.01324912,-1.1960918,0.89064306,-7.335834,-0.5315128
6.195775,4.774063,-0.107290074,-0.011118591,-1.2110054,1.0055647,-7.398083,-0.47884035
6.1945276,4.773863,-0.107290074,-0.011118591,-1.2110054,1.0055647,-7.398083,-0.47884035
6.193261,4.773618,-0.15203118,-0.012183856,-1.2259191,1.0534488,-7.479486,-0.44532153
6.1919956,4.773374,-0.15203118,-0.012183856,-1.2259191,1.0534488,-7.479486,-0.44532153
6.1907187,4.7730846,-0.19677228,-0.01324912,-1.2387023,1.0534488,-7.6231384,-0.4165911
6.1894426,4.7727947,-0.19677228,-0.01324912,-1.2387023,1.0534488,-7.6231384,-0.4165911
6.1881638,4.7724605,-0.24044813,-0.015379649,-1.2504202,0.9672575,-7.7572136,-0.33518824
6.1868863,4.7721257,-0.24044813,-0.015379649,-1.2504202,0.9672575,-7.7572136,-0.33518824
6.185608,4.7717505,-0.2798629,-0.021771235,-1.2568119,0.92895025,-8.0684595,-0.19153613
6.184331,4.7713757,-0.2798629,-0.021771235,-1.2568119,0.92895025,-8.0684595,-0.19153613
6.183012,4.770975,-0.31395137,-0.031358615,-1.2568119,1.1923125,-8.0684595,-0.090979666
6.181694,4.7705736,-0.31395137,-0.031358615,-1.2568119,1.1923125,-8.0684595,-0.090979666
6.180401,4.770132,-0.34803984,-0.03988073,-1.2557466,1.0342951,-8.686164,0.11492168
6.17911,4.7696896,-0.34803984,-0.03988073,-1.2557466,1.0342951,-8.686164,0.11492168
6.177844,4.769219,-0.37360618,-0.047337584,-1.2536161,0.9528923,-8.796297,0.22505496
6.1765814,4.7687473,-0.37360618,-0.047337584,-1.2536161,0.9528923,-8.796297,0.22505496
6.1753287,4.7682543,-0.39491147,-0.0558597,-1.2472245,0.9768343,-9.078813,0.41180268
6.1740866,4.7677608,-0.39491147,-0.0558597,-1.2472245,0.9768343,-9.078813,0.41180268
6.17294,4.7674236,-0.41302097,-0.064381815,-1.237637,0.9672575,-9.476251,0.58418524
6.1717963,4.7670827,-0.41302097,-0.064381815,-1.237637,0.9672575,-9.476251,0.58418524
6.1706996,4.766696,-0.42580414,-0.06864287,-1.2227234,0.7326257,-9.9550905,0.6607997
6.1696024,4.766309,-0.42580414,-0.06864287,-1.2227234,0.7326257,-9.9550905,0.6607997
6.16852,4.7659254,-0.433261,-0.06970814,-1.1992875,0.51235914,-10.184934,0.82360536
6.167437,4.7655416,-0.433261,-0.06970814,-1.1992875,0.51235914,-10.184934,0.82360536
6.166382,4.765154,-0.4364568,-0.0707734,-1.1715907,0.40222588,-10.448297,0.89543146
6.165327,4.764766,-0.4364568,-0.0707734,-1.1715907,0.40222588,-10.448297,0.89543146
6.1642957,4.7643886,-0.43432626,-0.07396919,-1.1396327,0.4213795,-10.764331,1.0103531
6.1632643,4.7640104,-0.43432626,-0.07396919,-1.1396327,0.4213795,-10.764331,1.0103531
6.162267,4.7636395,-0.4300652,-0.07290393,-1.1023484,0.5506664,-10.979809,1.0007763
6.1612706,4.763268,-0.4300652,-0.07290393,-1.1023484,0.5506664,-10.979809,1.0007763
6.160321,4.762901,-0.42260835,-0.06864287,-1.0576074,0.23942018,-11.075577,1.13964
6.1593723,4.7625337,-0.42260835,-0.06864287,-1.0576074,0.23942018,-11.075577,1.13964
6.1584806,4.7621727,-0.40982518,-0.062251285,-1.0064747,0.019153614,-11.21444,1.1492168
6.1575894,4.7618117,-0.40982518,-0.062251285,-1.0064747,0.019153614,-11.21444,1.1492168
6.1567583,4.7614603,-0.39597675,-0.05692496,-0.95001566,0.023942016,-11.271901,1.0821792
6.1559277,4.761109,-0.39597675,-0.05692496,-0.95001566,0.023942016,-11.271901,1.0821792
6.1551595,4.760769,-0.38319355,-0.050533377,-0.8882303,-0.06703765,-11.262324,1.091756
6.1543913,4.760429,-0.38319355,-0.050533377,-0.8882303,-0.06703765,-11.262324,1.091756
6.1536913,4.7601056,-0.36934513,-0.043076526,-0.81898814,-0.15322891,-11.238382,1.1540052
6.152991,4.759782,-0.36934513,-0.043076526,-0.81898814,-0.15322891,-11.238382,1.1540052
6.1523576,4.759472,-0.35549667,-0.036684938,-0.7529417,-0.06703765,-10.97502,1.0821792
6.1517243,4.759162,-0.35549667,-0.036684938,-0.7529417,-0.06703765,-10.97502,1.0821792
6.1517243,4.759162,-0.35549667,-0.036684938,-0.7529417,-0.06703765,-10.97502,1.0821792
6.1517243,4.759162,-0.32673454,-0.028162822,-0.61871845,-0.0047884034,-10.692505,1.1683705
6.1517243,4.759162,-0.32673454,-0.028162822,-0.61871845,-0.0047884034,-10.692505,1.1683705
6.1517243,4.759162,-0.32673454,-0.028162822,-0.61871845,-0.0047884034,-10.692505,1.1683705
6.1517243,4.759162,-0.31288612,-0.026032293,-0.5537373,0.20111294,-10.658986,1.0869676
6.149037,4.7575955,-0.31288612,-0.026032293,-0.5537373,0.20111294,-10.658986,1.0869676
6.1486206,4.7573347,-0.2979724,-0.021771235,-0.49514773,0.18195933,-10.596737,1.1109096
6.148283,4.757123,-0.2979724,-0.021771235,-0.49514773,0.18195933,-10.596737,1.1109096
6.147919,4.756875,-0.28092816,-0.016444914,-0.44401506,0.20111294,-10.505757,1.0534488
6.147618,4.7566695,-0.28092816,-0.016444914,-0.44401506,0.20111294,-10.505757,1.0534488
6.147344,4.756469,-0.26388395,-0.01324912,-0.39714342,0.39743748,-10.362105,0.94331545
6.1470623,4.756262,-0.26388395,-0.01324912,-0.39714342,0.39743748,-10.362105,0.94331545
6.146821,4.7560687,-0.24790499,-0.010053327,-0.3555981,0.50278234,-10.309433,0.8762778
6.1465797,4.7558756,-0.24790499,-0.010053327,-0.3555981,0.50278234,-10.309433,0.8762778
6.1463666,4.755707,-0.23192601,-0.0025964756,-0.32150963,0.63206923,-10.314221,0.8858546
6.146154,4.7555375,-0.23192601,-0.0025964756,-0.32150963,0.63206923,-10.314221,0.8858546
6.1459785,4.7553773,-0.21594705,0.00592564,-0.29061696,0.5363012,-10.314221,0.8523358
6.1458035,4.7552176,-0.21594705,0.00592564,-0.29061696,0.5363012,-10.314221,0.8523358
6.1456633,4.755066,-0.20103334,0.01551302,-0.26078957,0.5315128,-10.218452,0.7757214
6.145525,4.7549167,-0.20103334,0.01551302,-0.26078957,0.5315128,-10.218452,0.7757214
6.1454144,4.7547803,-0.18825017,0.021904606,-0.23309268,0.6607997,-10.251971,0.7278373
6.1453037,4.754644,-0.18825017,0.021904606,-0.23309268,0.6607997,-10.251971,0.7278373
6.1452074,4.754528,-0.17866279,0.028296193,-0.20965686,0.7326257,-10.223241,0.78050977
6.1451106,4.754412,-0.17866279,0.028296193,-0.20965686,0.7326257,-10.223241,0.78050977
6.1450424,4.754304,-0.16801015,0.033622514,-0.18515578,0.79966336,-10.13705,0.7086837
6.144974,4.754196,-0.16801015,0.033622514,-0.18515578,0.79966336,-10.13705,0.7086837
6.144931,4.754093,-0.1573575,0.038948838,-0.16598102,0.8523358,-10.070012,0.6368576
6.1448874,4.7539907,-0.1573575,0.038948838,-0.16598102,0.8523358,-10.070012,0.6368576
6.144864,4.753891,-0.14777012,0.04214463,-0.15106732,0.90021986,-10.04607,0.5793968
6.1448407,4.7537913,-0.14777012,0.04214463,-0.15106732,0.90021986,-10.04607,0.5793968
6.144822,4.7537117,-0.13818274,0.04214463,-0.13828415,0.9720459,-9.998186,0.59855044
6.144803,4.753633,-0.13818274,0.04214463,-0.13828415,0.9720459,-9.998186,0.59855044
6.14479,4.7535677,-0.12646483,0.043209895,-0.1308273,1.0199299,-9.988609,0.58418524
6.1447773,4.7535024,-0.12646483,0.043209895,-0.1308273,1.0199299,-9.988609,0.58418524
6.1447916,4.7534175,-0.11368166,0.04214463,-0.123370446,1.0390835,-9.945514,0.46447513
6.144806,4.7533326,-0.11368166,0.04214463,-0.123370446,1.0390835,-9.945514,0.46447513
6.1448255,4.753255,-0.10302901,0.038948838,-0.11910939,1.0869676,-9.892841,0.44532153
6.144845,4.7531776,-0.10302901,0.038948838,-0.11910939,1.0869676,-9.892841,0.44532153
6.14487,4.753094,-0.091311105,0.035753045,-0.11697886,1.1492168,-9.883265,0.40701428
6.144894,4.7530107,-0.091311105,0.035753045,-0.11697886,1.1492168,-9.883265,0.40701428
6.144912,4.7528996,-0.07852793,0.031491987,-0.11378307,1.1587936,-9.854534,0.33997664
6.14493,4.7527895,-0.07852793,0.031491987,-0.11378307,1.1587936,-9.854534,0.33997664
6.144946,4.7526865,-0.06574476,0.026165664,-0.11271781,1.2497733,-9.854534,0.35913026
6.144963,4.752584,-0.06574476,0.026165664,-0.11271781,1.2497733,-9.854534,0.35913026
6.144918,4.752444,-0.05509211,0.018708814,-0.11271781,1.2976574,-9.883265,0.29688102
6.144874,4.752304,-0.05509211,0.018708814,-0.11271781,1.2976574,-9.883265,0.29688102
6.1448026,4.752166,-0.04443947,0.010186698,-0.11271781,1.3503298,-9.878476,0.33518824
6.144733,4.752028,-0.04443947,0.010186698,-0.11271781,1.3503298,-9.878476,0.33518824
6.144532,4.7519164,-0.033786822,0.0016645822,-0.11378307,1.436521,-9.911995,0.34476504
6.1443324,4.7518044,-0.033786822,0.0016645822,-0.11378307,1.436521,-9.911995,0.34476504
6.144158,4.75169,-0.024199443,-0.0068575335,-0.11378307,1.5035586,-9.959879,0.22984336
6.143984,4.7515745,-0.024199443,-0.0068575335,-0.11378307,1.5035586,-9.959879,0.22984336
6.143803,4.75147,-0.015677327,-0.016444914,-0.11058728,1.5610195,-9.940725,0.18195933
6.143623,4.751365,-0.015677327,-0.016444914,-0.11058728,1.5610195,-9.940725,0.18195933
6.1434393,4.7512717,-0.0071552116,-0.0228365,-0.10526095,1.6089035,-9.835381,0.1436521
6.143255,4.751178,-0.0071552116,-0.0228365,-0.10526095,1.6089035,-9.835381,0.1436521
6.1430674,4.751098,0.00030163955,-0.027097559,-0.09673884,1.6711528,-9.844957,0.1436521
6.142879,4.7510176,0.00030163955,-0.027097559,-0.09673884,1.6711528,-9.844957,0.1436521
6.1426964,4.7509475,0.0077584907,-0.030293351,-0.08608619,1.7286136,-9.825804,0.11971009
6.142514,4.7508774,0.0077584907,-0.030293351,-0.08608619,1.7286136,-9.825804,0.11971009
6.142341,4.750818,0.016280606,-0.029228088,-0.07330302,1.7621324,-9.782708,0.10534488
6.1421685,4.7507577,0.016280606,-0.029228088,-0.07330302,1.7621324,-9.782708,0.10534488
6.1419964,4.750717,0.026933251,-0.026032293,-0.062650375,1.8004397,-9.768343,0.1340753
