Pitch,Roll,Gyro_X,Gyro_Y,Gyro_Z,Accel_X,Accel_Y,Accel_Z
0.25369635,4.7757463,0.05782592,0.011251962,0.14401093,-2.1739352,-9.131485,0.49320555
0.2537079,4.7757826,0.051434334,0.013382491,0.1386846,-2.1404164,-9.165004,0.5267244
0.2537087,4.775789,0.043977484,0.014447756,0.13229302,-2.1260512,-9.188946,0.51714754
0.25370952,4.7757955,0.043977484,0.014447756,0.13229302,-2.1260512,-9.188946,0.51714754
0.2537106,4.7757854,0.037585896,0.016578285,0.1269667,-2.1930888,-9.246407,0.51714754
0.25371164,4.775776,0.037585896,0.016578285,0.1269667,-2.1930888,-9.246407,0.51714754
0.25370035,4.775776,0.032259572,0.018708814,0.12270564,-2.1978772,-9.255983,0.545878
0.25368896,4.7757764,0.032259572,0.018708814,0.12270564,-2.1978772,-9.255983,0.545878
0.25370258,4.775735,0.02906378,0.019774077,0.119509846,-2.2361844,-9.255983,0.48841715
0.25371608,4.7756934,0.02906378,0.019774077,0.119509846,-2.2361844,-9.255983,0.48841715
0.25369355,4.775721,0.026933251,0.018708814,0.11631405,-2.27928,-9.241618,0.58897364
0.25367102,4.7757483,0.026933251,0.018708814,0.11631405,-2.27928,-9.241618,0.58897364
0.25365788,4.775732,0.024802722,0.016578285,0.11631405,-2.2744915,-9.26556,0.5506664
0.25364476,4.7757154,0.024802722,0.016578285,0.11631405,-2.2744915,-9.26556,0.5506664
0.2536468,4.7756767,0.022672193,0.014447756,0.11631405,-2.2361844,-9.222465,0.50757074
0.25364867,4.7756376,0.022672193,0.014447756,0.11631405,-2.2361844,-9.222465,0.50757074
0.25365916,4.77559,0.020541664,0.011251962,0.11737932,-2.2457612,-9.26556,0.49320555
0.25366932,4.7755427,0.020541664,0.011251962,0.11737932,-2.2457612,-9.26556,0.49320555
0.25368264,4.7754893,0.018411135,0.008056169,0.11524879,-2.2266076,-9.217676,0.47405192
0.25369564,4.7754364,0.018411135,0.008056169,0.11524879,-2.2266076,-9.217676,0.47405192
0.2536947,4.7753925,0.016280606,0.0069909045,0.11311826,-2.2266076,-9.232041,0.49799395
0.25369352,4.775348,0.016280606,0.0069909045,0.11311826,-2.2266076,-9.232041,0.49799395
0.25368214,4.775314,0.015215342,0.00592564,0.112053,-2.1739352,-9.217676,0.49799395
0.25367072,4.7752795,0.015215342,0.00592564,0.112053,-2.1739352,-9.217676,0.49799395
0.2536953,4.775211,0.013084813,0.00592564,0.10992247,-2.255338,-9.198523,0.45968673
0.25371954,4.7751417,0.013084813,0.00592564,0.10992247,-2.255338,-9.198523,0.45968673
0.25370696,4.775101,0.00988902,0.0048603755,0.10992247,-2.207454,-9.184157,0.50757074
0.25369433,4.7750607,0.00988902,0.0048603755,0.10992247,-2.207454,-9.184157,0.50757074
0.25367975,4.775018,0.0066932263,0.00592564,0.1088572,-2.1883004,-9.169792,0.50278234
0.25366494,4.7749753,0.0066932263,0.00592564,0.1088572,-2.1883004,-9.169792,0.50278234
0.25364232,4.774936,0.003497433,0.00592564,0.106726676,-2.1787236,-9.193734,0.51235914
0.25362116,4.774899,0.003497433,0.00592564,0.106726676,-2.1787236,-9.193734,0.51235914
0.25361297,4.7748375,0.00030163955,0.00592564,0.104596145,-2.1739352,-9.212888,0.46447513
0.25360465,4.7747765,0.00030163955,0.00592564,0.104596145,-2.1739352,-9.212888,0.46447513
0.25360173,4.774704,-0.0039594183,0.0069909045,0.103530884,-2.1547816,-9.203311,0.4357447
0.25359848,4.7746325,-0.0039594183,0.0069909045,0.103530884,-2.1547816,-9.203311,0.4357447
0.25358215,4.77457,-0.006089947,0.008056169,0.102465615,-2.1068976,-9.203311,0.45010993
0.25356567,4.774508,-0.006089947,0.008056169,0.102465615,-2.1068976,-9.203311,0.45010993
0.25352788,4.77448,-0.009285741,0.011251962,0.09926982,-2.0733786,-9.275137,0.5363012
0.25348854,4.774451,-0.009285741,0.011251962,0.09926982,-2.0733786,-9.275137,0.5363012
0.25344676,4.774429,-0.0114162695,0.014447756,0.09713929,-2.0254946,-9.294291,0.5554548
0.25340486,4.7744064,-0.0114162695,0.014447756,0.09713929,-2.0254946,-9.294291,0.5554548
0.25336158,4.774371,-0.013546798,0.017643549,0.0939435,-2.054225,-9.313444,0.5315128
0.25331825,4.774336,-0.013546798,0.017643549,0.0939435,-2.054225,-9.313444,0.5315128
0.25327718,4.774349,-0.015677327,0.021904606,0.088617176,-1.982399,-9.370906,0.6895301
0.253236,4.7743626,-0.015677327,0.021904606,0.088617176,-1.982399,-9.370906,0.6895301
0.25318265,4.7743597,-0.017807856,0.028296193,0.08116033,-1.9297266,-9.390059,0.6560113
0.2531291,4.774357,-0.017807856,0.028296193,0.08116033,-1.9297266,-9.390059,0.6560113
0.2530745,4.7743645,-0.021003649,0.03468778,0.07263821,-1.9488802,-9.332599,0.7038953
0.25301987,4.774372,-0.021003649,0.03468778,0.07263821,-1.9488802,-9.332599,0.7038953
0.252951,4.7743697,-0.022068914,0.04107937,0.061985567,-2.0207062,-9.375694,0.6655881
0.252951,4.7743697,-0.022068914,0.04107937,0.061985567,-2.0207062,-9.375694,0.6655881
0.25280988,4.7743716,-0.024199443,0.047470953,0.05026766,-2.0590134,-9.414001,0.7134721
0.25274092,4.7743807,-0.024199443,0.047470953,0.05026766,-2.0590134,-9.414001,0.7134721
0.25264734,4.7743526,-0.025264706,0.053862542,0.041745543,-2.078167,-9.399636,0.60812724
0.25255373,4.7743244,-0.025264706,0.053862542,0.041745543,-2.078167,-9.399636,0.60812724
0.25245586,4.7743087,-0.027395237,0.062384658,0.032158162,-2.1499932,-9.44752,0.641646
0.25235766,4.774293,-0.027395237,0.062384658,0.032158162,-2.1499932,-9.44752,0.641646
0.25227886,4.774314,-0.0284605,0.06877624,0.021505518,-2.2936451,-9.471462,0.6799533
0.25220025,4.774335,-0.0284605,0.06877624,0.021505518,-2.2936451,-9.471462,0.6799533
0.2521013,4.774343,-0.026329972,0.074102566,0.015113931,-2.3798366,-9.485827,0.61770403
0.25200275,4.774351,-0.026329972,0.074102566,0.015113931,-2.3798366,-9.485827,0.61770403
0.2519104,4.7743683,-0.025264706,0.07729836,0.012983402,-2.4229321,-9.471462,0.59855044
0.25181922,4.7743874,-0.025264706,0.07729836,0.012983402,-2.4229321,-9.471462,0.59855044
0.25191414,4.7742586,-0.02313418,0.08049415,0.011918138,-2.528277,-9.500193,0.50757074
0.2520092,4.774131,-0.02313418,0.08049415,0.011918138,-2.528277,-9.500193,0.50757074
0.25215852,4.7740483,-0.021003649,0.08155942,0.016179197,-2.6192567,-9.495404,0.5363012
0.25230816,4.7739663,-0.021003649,0.08155942,0.016179197,-2.6192567,-9.495404,0.5363012
0.25245985,4.7738786,-0.018873122,0.08049415,0.023636047,-2.6479871,-9.495404,0.51235914
0.2526114,4.7737904,-0.018873122,0.08049415,0.023636047,-2.6479871,-9.495404,0.51235914
0.25277424,4.773712,-0.014612063,0.0762331,0.032158162,-2.7581203,-9.500193,0.48362875
0.25293705,4.773634,-0.014612063,0.0762331,0.032158162,-2.7581203,-9.500193,0.48362875
0.25309086,4.773539,-0.0114162695,0.07090677,0.042810805,-2.6862943,-9.481039,0.44532153
0.2532446,4.7734437,-0.0114162695,0.07090677,0.042810805,-2.6862943,-9.481039,0.44532153
0.25343496,4.77339,-0.006089947,0.06558045,0.05346345,-2.753332,-9.476251,0.51235914
0.25362527,4.7733355,-0.006089947,0.06558045,0.05346345,-2.753332,-9.476251,0.51235914
0.25380877,4.773263,-0.0018288894,0.05918886,0.06305083,-2.7341783,-9.404425,0.4405331
0.25399214,4.77319,-0.0018288894,0.05918886,0.06305083,-2.7341783,-9.404425,0.4405331
0.25419417,4.7731366,0.0024321685,0.050666746,0.07263821,-2.7485435,-9.409213,0.47405192
0.25439605,4.773083,0.0024321685,0.050666746,0.07263821,-2.7485435,-9.409213,0.47405192
0.25457698,4.773004,0.005627962,0.043209895,0.08222559,-2.695871,-9.375694,0.38307226
0.25475767,4.7729254,0.005627962,0.043209895,0.08222559,-2.695871,-9.375694,0.38307226
0.2549559,4.77286,0.010954284,0.035753045,0.09181297,-2.633622,-9.279925,0.4309563
0.25515383,4.7727947,0.010954284,0.035753045,0.09181297,-2.633622,-9.279925,0.4309563
0.25536695,4.7727413,0.0141500775,0.028296193,0.10033509,-2.5761611,-9.241618,0.47405192
0.2555797,4.772688,0.0141500775,0.028296193,0.10033509,-2.5761611,-9.241618,0.47405192
0.25577024,4.7726164,0.016280606,0.021904606,0.1088572,-2.528277,-9.241618,0.45010993
0.2559601,4.772545,0.016280606,0.021904606,0.1088572,-2.528277,-9.241618,0.45010993
0.25610203,4.77246,0.018411135,0.017643549,0.112053,-2.4277205,-9.222465,0.521936
0.25624073,4.772375,0.018411135,0.017643549,0.112053,-2.4277205,-9.222465,0.521936
0.25643596,4.7723074,0.018411135,0.013382491,0.11631405,-2.4516625,-9.251195,0.5315128
0.25662807,4.7722387,0.018411135,0.013382491,0.11631405,-2.4516625,-9.251195,0.5315128
0.25664648,4.7721815,0.017345872,0.011251962,0.11737932,-2.360683,-9.275137,0.50278234
0.2566643,4.772125,0.017345872,0.011251962,0.11737932,-2.360683,-9.275137,0.50278234
0.25666717,4.7722006,0.016280606,0.011251962,0.11418352,-2.3319526,-9.294291,0.61291564
0.25666958,4.7722754,0.016280606,0.011251962,0.11418352,-2.3319526,-9.294291,0.61291564
0.25664505,4.7723083,0.015215342,0.011251962,0.112053,-2.327164,-9.26556,0.56982
0.25662035,4.7723417,0.015215342,0.011251962,0.112053,-2.327164,-9.26556,0.56982
0.256599,4.772312,0.012019549,0.011251962,0.10779194,-2.3511062,-9.284714,0.5315128
0.2565775,4.7722836,0.012019549,0.011251962,0.10779194,-2.3511062,-9.284714,0.5315128
0.2565787,4.7723584,0.008823755,0.012317227,0.104596145,-2.384625,-9.275137,0.58897364
0.256579,4.7724323,0.008823755,0.012317227,0.104596145,-2.384625,-9.275137,0.58897364
0.2565701,4.7723684,0.0045626974,0.01551302,0.09820456,-2.3989902,-9.3182335,0.5315128
0.25656036,4.7723045,0.0045626974,0.01551302,0.09820456,-2.3989902,-9.3182335,0.5315128
0.25651532,4.772306,0.001366904,0.017643549,0.0939435,-2.384625,-9.3182335,0.5602432
0.2564703,4.772307,0.001366904,0.017643549,0.0939435,-2.384625,-9.3182335,0.5602432
0.25657997,4.7722006,-0.0007636249,0.018708814,0.09181297,-2.4660277,-9.3182335,0.44532153
0.25668833,4.7720947,-0.0007636249,0.018708814,0.09181297,-2.4660277,-9.3182335,0.44532153
0.25678104,4.7719812,-0.0028941538,0.019774077,0.088617176,-2.4708161,-9.399636,0.51714754
0.2568804,4.7718573,-0.0028941538,0.019774077,0.088617176,-2.4708161,-9.399636,0.51714754
0.25692976,4.77176,-0.0050246827,0.020839343,0.08329086,-2.4468741,-9.390059,0.48362875
0.25698316,4.7716527,-0.0050246827,0.020839343,0.08329086,-2.4468741,-9.390059,0.48362875
0.25698316,4.7716527,-0.0050246827,0.020839343,0.08329086,-2.4468741,-9.390059,0.48362875
0.25698316,4.7716527,-0.0050246827,0.020839343,0.08329086,-2.4468741,-9.390059,0.48362875
0.25698316,4.7716527,-0.0050246827,0.020839343,0.08329086,-2.4468741,-9.390059,0.48362875
0.25680956,4.771792,-0.006089947,0.022969872,0.08116033,-2.4372973,-9.428367,0.5746084
0.2567947,4.771867,-0.0028941538,0.021904606,0.07689927,-2.4420857,-9.509769,0.61291564
0.25678277,4.771925,-0.0028941538,0.021904606,0.07689927,-2.4420857,-9.509769,0.61291564
0.25679803,4.772008,-0.0007636249,0.020839343,0.075834006,-2.4420857,-9.562442,0.6751649
0.25681353,4.772094,-0.0007636249,0.020839343,0.075834006,-2.4420857,-9.562442,0.6751649
0.25677618,4.772156,0.0024321685,0.018708814,0.07050768,-2.4229321,-9.5385,0.61770403
0.25673863,4.7722173,0.0024321685,0.018708814,0.07050768,-2.4229321,-9.5385,0.61770403
0.2567079,4.7722926,0.0066932263,0.017643549,0.06624663,-2.3558946,-9.56723,0.6847417
0.2566772,4.7723675,0.0066932263,0.017643549,0.06624663,-2.3558946,-9.56723,0.6847417
0.2566487,4.772451,0.00988902,0.016578285,0.0609203,-2.3654714,-9.595961,0.7038953
0.25662005,4.772534,0.00988902,0.016578285,0.0609203,-2.3654714,-9.595961,0.7038953
0.25659928,4.7726283,0.0141500775,0.017643549,0.056659244,-2.360683,-9.624691,0.7517793
0.25657836,4.7727227,0.0141500775,0.017643549,0.056659244,-2.360683,-9.624691,0.7517793
0.2565302,4.7728057,0.017345872,0.017643549,0.05133292,-2.3463178,-9.653421,0.7086837
0.2564819,4.7728887,0.017345872,0.017643549,0.05133292,-2.3463178,-9.653421,0.7086837
0.2564303,4.772979,0.02160693,0.017643549,0.047071867,-2.4229321,-9.648633,0.6607997
0.25637954,4.7730665,0.02160693,0.017643549,0.047071867,-2.4229321,-9.648633,0.6607997
0.25635818,4.773176,0.024802722,0.019774077,0.044941336,-2.4756045,-9.68694,0.6751649
0.2563366,4.7732844,0.024802722,0.019774077,0.044941336,-2.4756045,-9.68694,0.6751649
0.2562665,4.773366,0.02906378,0.021904606,0.04387607,-2.4851813,-9.710882,0.62249243
0.256196,4.7734466,0.02906378,0.021904606,0.04387607,-2.4851813,-9.710882,0.62249243
0.25629506,4.7733817,0.034390103,0.022969872,0.042810805,-2.5761611,-9.68694,0.5363012
0.25639287,4.773317,0.034390103,0.022969872,0.042810805,-2.5761611,-9.68694,0.5363012
0.25654483,4.773286,0.040781688,0.022969872,0.04387607,-2.6479871,-9.629479,0.51714754
0.25669563,4.7732544,0.040781688,0.022969872,0.04387607,-2.6479871,-9.629479,0.51714754
0.2567845,4.7731967,0.04610801,0.024035135,0.05026766,-2.6048915,-9.677363,0.4357447
0.25687382,4.773138,0.04610801,0.024035135,0.05026766,-2.6048915,-9.677363,0.4357447
0.2569812,4.773088,0.051434334,0.024035135,0.05772451,-2.5953147,-9.605537,0.45489833
0.25708812,4.773038,0.051434334,0.024035135,0.05772451,-2.5953147,-9.605537,0.45489833
0.25721538,4.7729974,0.056760654,0.024035135,0.06518136,-2.6479871,-9.624691,0.4213795
0.25734302,4.7729564,0.056760654,0.024035135,0.06518136,-2.6479871,-9.624691,0.4213795
0.25747088,4.7729187,0.062086977,0.022969872,0.07476874,-2.6048915,-9.615114,0.45968673
0.25759804,4.7728806,0.062086977,0.022969872,0.07476874,-2.6048915,-9.615114,0.45968673
0.25770777,4.7728434,0.06847856,0.021904606,0.08329086,-2.5713725,-9.562442,0.39264908
0.2578177,4.772806,0.06847856,0.021904606,0.08329086,-2.5713725,-9.562442,0.39264908
0.25789148,4.772774,0.073804885,0.020839343,0.09287824,-2.4947581,-9.533711,0.47405192
0.25796658,4.7727413,0.073804885,0.020839343,0.09287824,-2.4947581,-9.533711,0.47405192
0.25805026,4.7727146,0.07913121,0.020839343,0.09926982,-2.4660277,-9.44752,0.39743748
0.25813392,4.7726874,0.07913121,0.020839343,0.09926982,-2.4660277,-9.44752,0.39743748
0.25821173,4.772667,0.08445753,0.020839343,0.10566141,-2.432509,-9.442732,0.35913026
0.25829008,4.772647,0.08445753,0.020839343,0.10566141,-2.432509,-9.442732,0.35913026
0.25834,4.7726355,0.08658806,0.022969872,0.1088572,-2.3558946,-9.44752,0.36391866
0.25838962,4.772624,0.08658806,0.022969872,0.1088572,-2.3558946,-9.44752,0.36391866
0.25841197,4.772626,0.087653324,0.024035135,0.1088572,-2.2601264,-9.414001,0.36870706
0.25843415,4.772628,0.087653324,0.024035135,0.1088572,-2.2601264,-9.414001,0.36870706
0.25842407,4.7726545,0.08871859,0.0251004,0.106726676,-2.255338,-9.44752,0.45968673
0.25841415,4.772681,0.08871859,0.0251004,0.106726676,-2.255338,-9.44752,0.45968673
0.2583886,4.7727222,0.087653324,0.029361458,0.102465615,-2.2122424,-9.500193,0.48362875
0.2583634,4.7727623,0.087653324,0.029361458,0.102465615,-2.2122424,-9.500193,0.48362875
0.2583283,4.772811,0.087653324,0.03468778,0.09713929,-2.1883004,-9.509769,0.50278234
0.25829333,4.772859,0.087653324,0.03468778,0.09713929,-2.1883004,-9.509769,0.50278234
0.25825158,4.7729063,0.08871859,0.040014103,0.089682445,-2.1978772,-9.548077,0.50278234
0.25821006,4.7729526,0.08871859,0.040014103,0.089682445,-2.1978772,-9.548077,0.50278234
0.25815824,4.7730055,0.087653324,0.045340426,0.08222559,-2.2984335,-9.5385,0.5410896
0.25810674,4.773058,0.087653324,0.045340426,0.08222559,-2.2984335,-9.5385,0.5410896
0.25809404,4.773054,0.08658806,0.053862542,0.07796454,-2.336741,-9.548077,0.4357447
0.2580815,4.7730503,0.08658806,0.053862542,0.07796454,-2.336741,-9.548077,0.4357447
0.25809327,4.7730293,0.08658806,0.062384658,0.071572945,-2.4133554,-9.548077,0.4309563
0.25810492,4.773008,0.08658806,0.062384658,0.071572945,-2.4133554,-9.548077,0.4309563
0.25817257,4.772974,0.08658806,0.069841504,0.06837715,-2.504335,-9.524135,0.35434186
0.25823978,4.7729406,0.08658806,0.069841504,0.06837715,-2.504335,-9.524135,0.35434186
0.25832102,4.7729044,0.08552279,0.0762331,0.06731189,-2.5474305,-9.562442,0.36870706
0.2584016,4.772868,0.08552279,0.0762331,0.06731189,-2.5474305,-9.562442,0.36870706
0.25849634,4.772832,0.08658806,0.08155942,0.07050768,-2.5809495,-9.557653,0.30645782
0.25859043,4.772796,0.08658806,0.08155942,0.07050768,-2.5809495,-9.557653,0.30645782
0.25871566,4.7727666,0.08871859,0.086885735,0.07263821,-2.6719291,-9.562442,0.30645782
0.25884017,4.7727365,0.08871859,0.086885735,0.07263821,-2.6719291,-9.562442,0.30645782
0.2589882,4.772712,0.089783855,0.09221206,0.07689927,-2.719813,-9.543288,0.32561144
0.25913486,4.772688,0.089783855,0.09221206,0.07689927,-2.719813,-9.543288,0.32561144
0.2592842,4.7726617,0.09084912,0.09540785,0.08329086,-2.7581203,-9.56723,0.25378537
0.2594327,4.772635,0.09084912,0.09540785,0.08329086,-2.7581203,-9.56723,0.25378537
0.25960982,4.7726183,0.091914386,0.09647312,0.09074771,-2.7629087,-9.548077,0.35434186
0.25978595,4.772602,0.091914386,0.09647312,0.09074771,-2.7629087,-9.548077,0.35434186
0.25995204,4.772579,0.09297965,0.09753838,0.09607403,-2.7485435,-9.514558,0.2777274
0.26011667,4.772556,0.09297965,0.09753838,0.09607403,-2.7485435,-9.514558,0.2777274
0.2603031,4.7725396,0.09297965,0.09753838,0.10140035,-2.753332,-9.481039,0.33997664
0.26048863,4.772523,0.09297965,0.09753838,0.10140035,-2.753332,-9.481039,0.33997664
0.26068452,4.7725124,0.09404491,0.09647312,0.104596145,-2.72939,-9.485827,0.39743748
0.2608813,4.7725015,0.09404491,0.09647312,0.104596145,-2.72939,-9.485827,0.39743748
0.26106015,4.772482,0.09511018,0.09327733,0.1088572,-2.6862943,-9.485827,0.36870706
0.26123795,4.772463,0.09511018,0.09327733,0.1088572,-2.6862943,-9.485827,0.36870706
0.26142597,4.7724495,0.09830597,0.09221206,0.112053,-2.681506,-9.437943,0.38307226
0.2616126,4.772436,0.09830597,0.09221206,0.112053,-2.681506,-9.437943,0.38307226
0.26175752,4.772413,0.1004365,0.09221206,0.11098773,-2.5905263,-9.442732,0.36391866
0.261901,4.7723894,0.1004365,0.09221206,0.11098773,-2.5905263,-9.442732,0.36391866
0.26203772,4.772368,0.10363229,0.09327733,0.1088572,-2.5809495,-9.414001,0.320823
0.2621736,4.7723465,0.10363229,0.09327733,0.1088572,-2.5809495,-9.414001,0.320823
0.26230282,4.7723274,0.105762824,0.09221206,0.103530884,-2.585738,-9.428367,0.30645782
0.2624311,4.772308,0.105762824,0.09221206,0.103530884,-2.585738,-9.428367,0.30645782
0.26250914,4.7722917,0.10895862,0.09327733,0.09500877,-2.5091233,-9.44752,0.4357447
0.26258624,4.7722754,0.10895862,0.09327733,0.09500877,-2.5091233,-9.44752,0.4357447
0.26263776,4.7722616,0.11002388,0.09540785,0.08329086,-2.5187001,-9.485827,0.48362875
0.2626885,4.7722483,0.11002388,0.09540785,0.08329086,-2.5187001,-9.485827,0.48362875
0.2627209,4.772233,0.10789335,0.09540785,0.06837715,-2.5091233,-9.514558,0.45489833
0.262753,4.7722178,0.10789335,0.09540785,0.06837715,-2.5091233,-9.514558,0.45489833
0.26274797,4.7722063,0.105762824,0.09753838,0.05346345,-2.504335,-9.543288,0.48362875
0.262743,4.772195,0.105762824,0.09753838,0.05346345,-2.504335,-9.543288,0.48362875
0.26275587,4.7721715,0.10363229,0.09966891,0.03641922,-2.5570073,-9.5385,0.5315128
0.26276824,4.7721486,0.10363229,0.09966891,0.03641922,-2.5570073,-9.5385,0.5315128
0.26279935,4.7721186,0.09937123,0.100734174,0.018309724,-2.5617957,-9.481039,0.4405331
0.2628305,4.772088,0.09937123,0.100734174,0.018309724,-2.5617957,-9.481039,0.4405331
0.2628745,4.7720575,0.09511018,0.09966891,-0.0019303001,-2.6144683,-9.509769,0.44532153
0.2629174,4.772028,0.09511018,0.09966891,-0.0019303001,-2.6144683,-9.509769,0.44532153
0.26291767,4.7719917,0.09297965,0.09966891,-0.020039797,-2.5953147,-9.528923,0.37349546
0.26291794,4.771955,0.09297965,0.09966891,-0.020039797,-2.5953147,-9.528923,0.37349546
0.2629109,4.7719183,0.091914386,0.09753838,-0.034953497,-2.6144683,-9.495404,0.31603462
0.2629035,4.7718787,0.091914386,0.09753838,-0.034953497,-2.6144683,-9.495404,0.31603462
0.26287824,4.771844,0.09084912,0.09434259,-0.05199773,-2.6048915,-9.476251,0.29209262
0.2628513,4.7718067,0.09084912,0.09434259,-0.05199773,-2.6048915,-9.476251,0.29209262
0.26279628,4.771771,0.09297965,0.09221206,-0.07117249,-2.5570073,-9.390059,0.2873042
0.26274177,4.771735,0.09297965,0.09221206,-0.07117249,-2.5570073,-9.390059,0.2873042
0.2626206,4.7717023,0.09297965,0.090081535,-0.091412514,-2.432509,-9.3421755,0.33997664
0.2625002,4.7716694,0.09297965,0.090081535,-0.091412514,-2.432509,-9.3421755,0.33997664
0.26234433,4.77164,0.09404491,0.087951005,-0.1159136,-2.3319526,-9.222465,0.24899697
0.26218936,4.77161,0.09404491,0.087951005,-0.1159136,-2.3319526,-9.222465,0.24899697
0.26197195,4.771589,0.09404491,0.090081535,-0.14254521,-2.2505496,-9.107543,0.32561144
0.26176643,4.771569,0.09404491,0.090081535,-0.14254521,-2.2505496,-9.107543,0.32561144
0.26146716,4.77159,0.091914386,0.09434259,-0.1755684,-1.9153614,-9.054871,0.37828386
0.26116806,4.771611,0.091914386,0.09434259,-0.1755684,-1.9153614,-9.054871,0.37828386
0.2608628,4.771592,0.09084912,0.102864705,-0.21924424,-2.0207062,-9.069236,0.22026655
0.26055607,4.7715735,0.09084912,0.102864705,-0.21924424,-2.0207062,-9.069236,0.22026655
0.26026592,4.7715263,0.08871859,0.11351735,-0.26931167,-2.3080103,-9.064447,0.17717093
0.2599761,4.7714787,0.08871859,0.11351735,-0.26931167,-2.3080103,-9.064447,0.17717093
0.25969407,4.77142,0.07913121,0.1209742,-0.32150963,-2.4516625,-8.853758,0.25857377
0.2594172,4.771363,0.07913121,0.1209742,-0.32150963,-2.4516625,-8.853758,0.25857377
0.25905696,4.771281,0.05782592,0.117778406,-0.37157705,-2.3175871,-8.710106,0.4309563
0.25870058,4.771199,0.05782592,0.117778406,-0.37157705,-2.3175871,-8.710106,0.4309563
0.2581468,4.771193,0.02906378,0.11032156,-0.4216445,-1.8339585,-8.695741,0.51235914
0.25759202,4.7711864,0.02906378,0.11032156,-0.4216445,-1.8339585,-8.695741,0.51235914
0.25697586,4.7711344,-0.0071552116,0.10819103,-0.48236457,-1.5753847,-8.848969,0.47405192
0.2563579,4.771082,-0.0071552116,0.10819103,-0.48236457,-1.5753847,-8.848969,0.47405192
0.25565606,4.770965,-0.049765788,0.11458261,-0.55480254,-1.4748282,-8.901642,0.37349546
0.2549864,4.770854,-0.049765788,0.11458261,-0.55480254,-1.4748282,-8.901642,0.37349546
0.25423217,4.770687,-0.092376366,0.12523526,-0.6346974,-1.3934253,-8.959103,0.30166942
0.25347573,4.7705197,-0.092376366,0.12523526,-0.6346974,-1.3934253,-8.959103,0.30166942
0.2526222,4.770297,-0.139248,0.13695318,-0.7252449,-1.2689269,-8.973468,0.25378537
0.25171933,4.7700615,-0.139248,0.13695318,-0.7252449,-1.2689269,-8.973468,0.25378537
0.25080347,4.7698154,-0.1871849,0.14973634,-0.82751024,-1.1204864,-8.99741,0.36391866
0.24986835,4.7695646,-0.1871849,0.14973634,-0.82751024,-1.1204864,-8.99741,0.36391866
0.24881203,4.7692647,-0.2351218,0.16251951,-0.93829775,-1.0630256,-8.968679,0.40701428
0.24774496,4.7689624,-0.2351218,0.16251951,-0.93829775,-1.0630256,-8.968679,0.40701428
0.2465603,4.7686076,-0.28731975,0.17636795,-1.0565422,-1.0199299,-9.054871,0.44532153
0.24537668,4.768254,-0.28731975,0.17636795,-1.0565422,-1.0199299,-9.054871,0.44532153
0.24406575,4.767851,-0.3373872,0.18595533,-1.1833086,-1.0247183,-9.136273,0.48362875
0.24255416,4.7673864,-0.3373872,0.18595533,-1.1833086,-1.0247183,-9.136273,0.48362875
0.24131249,4.7669992,-0.38745463,0.19128166,-1.3154013,-0.91937345,-9.246407,0.5363012
0.2397967,4.766528,-0.38745463,0.19128166,-1.3154013,-0.91937345,-9.246407,0.5363012
0.23795459,4.765934,-0.43432626,0.19341218,-1.4485594,-0.8571242,-9.390059,0.4309563
0.23668286,4.765525,-0.43432626,0.19341218,-1.4485594,-0.8571242,-9.390059,0.4309563
0.23668286,4.765525,-0.43432626,0.19341218,-1.4485594,-0.8571242,-9.390059,0.4309563
0.23668286,4.765525,-0.43432626,0.19341218,-1.4485594,-0.8571242,-9.390059,0.4309563
0.23145948,4.763864,-0.4811979,0.19234692,-1.583848,-0.80924016,-9.543288,0.5363012
0.2297254,4.7633047,-0.5238085,0.18915112,-1.7170061,-0.7278373,-9.77792,0.4309563
0.22770788,4.762663,-0.56109273,0.1870206,-1.8501642,-0.60333884,-9.993398,0.47884035
0.22582082,4.7620645,-0.56109273,0.1870206,-1.8501642,-0.60333884,-9.993398,0.47884035
0.22371668,4.7614036,-0.5919854,0.18489006,-1.9801264,-0.5554548,-10.280702,0.4405331
0.22161663,4.760745,-0.5919854,0.18489006,-1.9801264,-0.5554548,-10.280702,0.4405331
0.21937492,4.760062,-0.61755174,0.1838248,-2.1068928,-0.5410896,-10.515334,0.51235914
0.21714874,4.759385,-0.61755174,0.1838248,-2.1068928,-0.5410896,-10.515334,0.51235914
0.21478422,4.758686,-0.638857,0.1838248,-2.2272677,-0.47884035,-10.721235,0.5746084
0.21242678,4.757991,-0.638857,0.1838248,-2.2272677,-0.47884035,-10.721235,0.5746084
0.20995584,4.7572823,-0.654836,0.18489006,-2.3412511,-0.4261679,-11.09473,0.63206923
0.20748976,4.7565765,-0.654836,0.18489006,-2.3412511,-0.4261679,-11.09473,0.63206923
0.20490015,4.7558575,-0.66548866,0.1870206,-2.4520385,-0.45010993,-11.252748,0.6368576
0.20233884,4.755147,-0.66548866,0.1870206,-2.4520385,-0.45010993,-11.252748,0.6368576
0.19965103,4.7544265,-0.6697497,0.18808587,-2.5574996,-0.4309563,-11.415554,0.62249243
0.19696316,4.753708,-0.6697497,0.18808587,-2.5574996,-0.4309563,-11.415554,0.62249243
0.19418633,4.752992,-0.66761917,0.18915112,-2.6544387,-0.30645782,-11.554418,0.61291564
0.19139826,4.752276,-0.66761917,0.18915112,-2.6544387,-0.30645782,-11.554418,0.61291564
0.18852293,4.7515655,-0.66229284,0.19234692,-2.7471168,-0.17717093,-11.626244,0.60333884
0.18565327,4.7508583,-0.66229284,0.19234692,-2.7471168,-0.17717093,-11.626244,0.60333884
0.18268691,4.750168,-0.6484444,0.19554271,-2.836599,-0.033518825,-11.702858,0.6847417
0.1797205,4.7494793,-0.6484444,0.19554271,-2.836599,-0.033518825,-11.702858,0.6847417
0.17668137,4.74881,-0.6303349,0.19980377,-2.9239507,0.2681506,-11.7268,0.6607997
0.17361777,4.7481365,-0.6303349,0.19980377,-2.9239507,0.2681506,-11.7268,0.6607997
0.17047393,4.747488,-0.60902965,0.2083259,-3.0144982,0.60812724,-11.664551,0.7230489
0.16733012,4.746842,-0.60902965,0.2083259,-3.0144982,0.60812724,-11.664551,0.7230489
0.16409065,4.7462163,-0.5887896,0.22537012,-3.114633,0.8619126,-11.535264,0.7757214
0.16085435,4.745593,-0.5887896,0.22537012,-3.114633,0.8619126,-11.535264,0.7757214
0.15750471,4.7449913,-0.5685496,0.24774067,-3.2243552,1.1013328,-11.434708,0.90021986
0.15415844,4.7443914,-0.5685496,0.24774067,-3.2243552,1.1013328,-11.434708,0.90021986
0.15069762,4.743801,-0.5536359,0.27224174,-3.3415344,1.283292,-11.281479,0.81881696
0.14723322,4.7432117,-0.5536359,0.27224174,-3.3415344,1.283292,-11.281479,0.81881696
0.14364462,4.742629,-0.54298323,0.29993862,-3.4661703,1.3982137,-11.200075,0.79487497
0.1400559,4.742049,-0.54298323,0.29993862,-3.4661703,1.3982137,-11.200075,0.79487497
0.13633204,4.741472,-0.53659165,0.3276355,-3.598263,1.6136919,-11.15698,0.79966336
0.13261186,4.740897,-0.53659165,0.3276355,-3.598263,1.6136919,-11.15698,0.79966336
0.1287553,4.740317,-0.5355264,0.35639766,-3.7335517,1.7812861,-11.128249,0.6943185
0.124898545,4.739739,-0.5355264,0.35639766,-3.7335517,1.7812861,-11.128249,0.6943185
0.120902285,4.739149,-0.53659165,0.38409454,-3.8709707,1.9776106,-11.137826,0.47405192
0.1169058,4.7385616,-0.53659165,0.38409454,-3.8709707,1.9776106,-11.137826,0.47405192
0.11276972,4.7379646,-0.53659165,0.40966088,-4.009455,2.2218192,-11.042058,0.25378537
0.108633384,4.73737,-0.53659165,0.40966088,-4.009455,2.2218192,-11.042058,0.25378537
0.1043541,4.7367654,-0.53872216,0.43203142,-4.1522007,2.4851813,-11.022904,0.047884032
0.1000873,4.736165,-0.53872216,0.43203142,-4.1522007,2.4851813,-11.022904,0.047884032
0.09565032,4.735545,-0.5440485,0.44907564,-4.2970767,2.9640217,-11.018116,-0.33997664
0.091235094,4.73493,-0.5440485,0.44907564,-4.2970767,2.9640217,-11.018116,-0.33997664
0.08664882,4.7342997,-0.55683166,0.46079355,-4.4504747,3.8115692,-10.97502,-0.5410896
0.08207139,4.7336726,-0.55683166,0.46079355,-4.4504747,3.8115692,-10.97502,-0.5410896
0.077326804,4.7330294,-0.57707167,0.46718514,-4.617721,4.783615,-10.864887,-0.6464345
0.07258657,4.7323895,-0.57707167,0.46718514,-4.617721,4.783615,-10.864887,-0.6464345
0.06764107,4.7317243,-0.60796434,0.46931568,-4.81373,5.884948,-10.788273,-0.58418524
0.06270004,4.7310634,-0.60796434,0.46931568,-4.81373,5.884948,-10.788273,-0.58418524
0.057529174,4.7303677,-0.6505749,0.474642,-5.0448923,7.005434,-10.682928,-0.4309563
0.052357756,4.729675,-0.6505749,0.474642,-5.0448923,7.005434,-10.682928,-0.4309563
0.046915375,4.7289343,-0.7049034,0.4810336,-5.3176,8.0924015,-10.6398325,-0.2873042
0.04149424,4.7282,-0.7049034,0.4810336,-5.3176,8.0924015,-10.6398325,-0.2873042
0.035718422,4.7274003,-0.7688193,0.48742518,-5.6339836,9.006987,-10.769119,-0.2777274
0.029959342,4.7266064,-0.7688193,0.48742518,-5.6339836,9.006987,-10.769119,-0.2777274
0.023840962,4.7257376,-0.84551835,0.4959473,-5.9876513,10.065224,-10.85531,-0.40222588
0.01772808,4.724873,-0.84551835,0.4959473,-5.9876513,10.065224,-10.85531,-0.40222588
0.011231032,4.7239275,-0.9318048,0.50340414,-6.372212,10.496181,-11.003751,-0.25857377
0.0047398205,4.7229877,-0.9318048,0.50340414,-6.372212,10.496181,-11.003751,-0.25857377
6.2810125,4.721961,-1.0234175,0.510861,-6.7812734,11.104307,-11.209652,0.02873042
6.274113,4.7209415,-1.0234175,0.510861,-6.7812734,11.104307,-11.209652,0.02873042
6.266523,4.7198095,-1.1065081,0.5140568,-7.2095094,11.271901,-11.554418,0.5793968
6.2594604,4.7187605,-1.1065081,0.5140568,-7.2095094,11.271901,-11.554418,0.5793968
6.251658,4.717603,-1.1736197,0.5044694,-7.6537247,12.004527,-11.9614315,0.5554548
6.2439175,4.71646,-1.1736197,0.5044694,-7.6537247,12.004527,-11.9614315,0.5554548
6.2357016,4.7152686,-1.2236872,0.47357672,-8.113919,11.884817,-12.263102,0.6751649
6.2274356,4.714074,-1.2236872,0.47357672,-8.113919,11.884817,-12.263102,0.6751649
6.218743,4.7128525,-1.2641673,0.44055355,-8.575179,11.104307,-12.770672,1.1683705
6.2100315,4.711632,-1.2641673,0.44055355,-8.575179,11.104307,-12.770672,1.1683705
6.2008677,4.710375,-1.2918642,0.4032693,-9.032177,11.27669,-13.081918,0.3878607
6.191703,4.7091217,-1.2918642,0.4032693,-9.032177,11.27669,-13.081918,0.3878607
6.182077,4.7078333,-1.319561,0.35000607,-9.491306,11.492168,-13.599066,0.033518825
6.1724505,4.706547,-1.319561,0.35000607,-9.491306,11.492168,-13.599066,0.033518825
6.1623626,4.705214,-1.3525842,0.28076386,-9.950435,11.070788,-13.833697,-0.44532153
6.1522746,4.703882,-1.3525842,0.28076386,-9.950435,11.070788,-13.833697,-0.44532153
6.141763,4.7025146,-1.3856074,0.1987385,-10.406368,11.386824,-14.930242,-0.12928689
6.1311884,4.7011385,-1.3856074,0.1987385,-10.406368,11.386824,-14.930242,-0.12928689
6.1201982,4.699705,-1.4165001,0.10819103,-10.851648,10.764331,-15.423448,-0.9624691
6.109208,4.698269,-1.4165001,0.10819103,-10.851648,10.764331,-15.423448,-0.9624691
6.0978146,4.6967845,-1.4356749,0.02723093,-11.2681675,10.390836,-15.677233,-1.541866
6.0864096,4.695294,-1.4356749,0.02723093,-11.2681675,10.390836,-15.677233,-1.541866
6.0745645,4.693734,-1.4569801,-0.052663904,-11.655924,9.763555,-16.232687,-2.2218192
6.0745645,4.693734,-1.4569801,-0.052663904,-11.655924,9.763555,-16.232687,-2.2218192
6.0505457,4.6905336,-1.4836117,-0.13575453,-12.015983,9.174581,-16.749836,-2.9017725
6.0387073,4.6889286,-1.4836117,-0.13575453,-12.015983,9.174581,-16.749836,-2.9017725
6.0263247,4.6872044,-1.520896,-0.21884516,-12.3387575,8.48984,-17.357962,-3.3375173
6.013909,4.68546,-1.520896,-0.21884516,-12.3387575,8.48984,-17.357962,-3.3375173
6.0007997,4.683551,-1.5698981,-0.29447892,-12.616792,7.833828,-17.975666,-3.7828386
5.988508,4.681742,-1.5698981,-0.29447892,-12.616792,7.833828,-17.975666,-3.7828386
5.9756274,4.679764,-1.6306182,-0.3615906,-12.837301,6.9623384,-18.56464,-4.012682
5.962768,4.677767,-1.6306182,-0.3615906,-12.837301,6.9623384,-18.56464,-4.012682
5.949875,4.6756735,-1.6998605,-0.41378856,-12.999222,6.1626754,-18.875887,-4.027047
5.9369135,4.673545,-1.6998605,-0.41378856,-12.999222,6.1626754,-18.875887,-4.027047
5.923886,4.67131,-1.7701678,-0.45213807,-13.099357,5.439626,-19.187132,-4.146757
5.9108806,4.669053,-1.7701678,-0.45213807,-13.099357,5.439626,-19.187132,-4.146757
5.8978395,4.6666923,-1.8404753,-0.47770444,-13.138772,4.855441,-19.431341,-3.8881836
5.884807,4.664305,-1.8404753,-0.47770444,-13.138772,4.855441,-19.431341,-3.8881836
5.8718333,4.6618347,-1.907587,-0.49155286,-13.122792,4.2042184,-19.670761,-3.3806129
5.858866,4.659336,-1.907587,-0.49155286,-13.122792,4.2042184,-19.670761,-3.3806129
5.846004,4.6567707,-1.964046,-0.49474865,-13.050355,3.6583402,-19.790472,-2.8203697
5.8331203,4.654168,-1.964046,-0.49474865,-13.050355,3.6583402,-19.790472,-2.8203697
5.8203807,4.6515183,-2.0023956,-0.4926181,-12.929979,2.930503,-19.938911,-2.27928
5.8076444,4.6488333,-2.0023956,-0.4926181,-12.929979,2.930503,-19.938911,-2.27928
5.7950735,4.6461105,-2.020505,-0.49155286,-12.769125,3.2130187,-19.876663,-1.7717092
5.782506,4.6433496,-2.020505,-0.49155286,-12.769125,3.2130187,-19.876663,-1.7717092
5.7701344,4.6405673,-2.0237007,-0.4872918,-12.575247,3.3854012,-19.982008,-1.2689269
5.7577667,4.637744,-2.0237007,-0.4872918,-12.575247,3.3854012,-19.982008,-1.2689269
5.745612,4.6349173,-2.0109177,-0.47770444,-12.361129,3.620033,-19.9437,-0.7757214
5.7334743,4.6320496,-2.0109177,-0.47770444,-12.361129,3.620033,-19.9437,-0.7757214
5.7215266,4.629186,-1.9853513,-0.46598652,-12.143815,3.7541082,-19.953278,-0.22505496
5.709607,4.6262827,-1.9853513,-0.46598652,-12.143815,3.7541082,-19.953278,-0.22505496
5.6978846,4.6233964,-1.9448713,-0.45213807,-11.921174,3.6152446,-19.924547,0.2681506
5.6861773,4.6204653,-1.9448713,-0.45213807,-11.921174,3.6152446,-19.924547,0.2681506
5.6747074,4.617566,-1.8905427,-0.4425507,-11.695338,3.4332852,-19.867086,0.51714754
5.6632195,4.614611,-1.8905427,-0.4425507,-11.695338,3.4332852,-19.867086,0.51714754
5.651971,4.6117,-1.8202354,-0.44042018,-11.467372,3.1124623,-19.694704,0.8523358
5.640727,4.608737,-1.8202354,-0.44042018,-11.467372,3.1124623,-19.694704,0.8523358
5.6297297,4.6058254,-1.7371447,-0.44681177,-11.231948,2.954445,-19.531897,1.2258313
5.6187153,4.6028543,-1.7371447,-0.44681177,-11.231948,2.954445,-19.531897,1.2258313
5.6079555,4.5999403,-1.6434014,-0.4606602,-10.989068,2.8491,-19.378668,1.6519991
5.597201,4.5969706,-1.6434014,-0.4606602,-10.989068,2.8491,-19.378668,1.6519991
5.5867004,4.594058,-1.5422013,-0.47770444,-10.73873,2.6767175,-19.306843,1.8339585
5.5762053,4.5910883,-1.5422013,-0.47770444,-10.73873,2.6767175,-19.306843,1.8339585
5.565978,4.5881815,-1.432479,-0.4968792,-10.475611,2.4995465,-19.220652,1.9057846
5.555745,4.5852137,-1.432479,-0.4968792,-10.475611,2.4995465,-19.220652,1.9057846
5.5458155,4.5823236,-1.3142347,-0.51924974,-10.1975765,2.4660277,-19.129671,2.054225
5.535841,4.579359,-1.3142347,-0.51924974,-10.1975765,2.4660277,-19.129671,2.054225
5.5262446,4.5764933,-1.190664,-0.5480119,-9.9035635,2.633622,-19.057846,2.1883004
5.516615,4.573556,-1.190664,-0.5480119,-9.9035635,2.633622,-19.057846,2.1883004
5.5073004,4.5707016,-1.0585712,-0.5799698,-9.593572,3.0023289,-19.091364,2.27928
5.497992,4.5677867,-1.0585712,-0.5799698,-9.593572,3.0023289,-19.091364,2.27928
5.489006,4.5649652,-0.9158258,-0.6151235,-9.277188,3.53863,-18.990808,2.3319526
5.4800344,4.5620856,-0.9158258,-0.6151235,-9.277188,3.53863,-18.990808,2.3319526
5.471361,4.559304,-0.7624277,-0.6534731,-8.9671955,4.285621,-18.80406,2.4372973
5.4627023,4.5564637,-0.7624277,-0.6534731,-8.9671955,4.285621,-18.80406,2.4372973
5.4543424,4.553734,-0.6005075,-0.6918226,-8.675314,5.1523223,-18.430565,2.2840683
5.445997,4.550944,-0.6005075,-0.6918226,-8.675314,5.1523223,-18.430565,2.2840683
5.4379086,4.5482693,-0.43219572,-0.7280416,-8.406867,6.167464,-17.951725,2.3463178
5.429834,4.545533,-0.43219572,-0.7280416,-8.406867,6.167464,-17.951725,2.3463178
5.4219956,4.542929,-0.2617534,-0.7525427,-8.1735735,7.0245876,-17.319654,2.3798366
5.4219956,4.542929,-0.2617534,-0.7525427,-8.1735735,7.0245876,-17.319654,2.3798366
5.3912253,4.532691,0.06528277,-0.75786895,-7.810319,7.455544,-16.136919,2.4420857
5.3912253,4.532691,0.06528277,-0.75786895,-7.810319,7.455544,-16.136919,2.4420857
5.3912253,4.532691,0.06528277,-0.75786895,-7.810319,7.455544,-16.136919,2.4420857
5.383955,4.530237,0.06528277,-0.75786895,-7.810319,7.455544,-16.136919,2.4420857
5.376218,4.527731,0.21974611,-0.7397595,-7.665443,7.4746976,-15.500062,2.3654714
5.3691444,4.525376,0.21974611,-0.7397595,-7.665443,7.4746976,-15.500062,2.3654714
5.3617983,4.523043,0.36568734,-0.71099734,-7.5269585,7.273585,-14.891934,2.4372973
5.354981,4.5208178,0.36568734,-0.71099734,-7.5269585,7.273585,-14.891934,2.4372973
5.348031,4.5186715,0.505237,-0.6715826,-7.3874087,7.129933,-14.173674,2.2984335
5.341008,4.5164394,0.505237,-0.6715826,-7.3874087,7.129933,-14.173674,2.2984335
5.3341417,4.5143814,0.63519925,-0.62364566,-7.239337,6.7085533,-13.508086,2.0446482
5.3272524,4.5122547,0.63519925,-0.62364566,-7.239337,6.7085533,-13.508086,2.0446482
5.320522,4.510315,0.75557417,-0.5650561,-7.078482,6.38773,-12.871228,1.8339585
5.3137956,4.5083165,0.75557417,-0.5650561,-7.078482,6.38773,-12.871228,1.8339585
5.307214,4.5065126,0.86742693,-0.49794444,-6.901648,6.172252,-12.253524,1.6280571
5.3006687,4.504661,0.86742693,-0.49794444,-6.901648,6.172252,-12.253524,1.6280571
5.2942944,4.5030217,0.9696923,-0.42337593,-6.7099004,5.765238,-11.63582,1.484405
5.287916,4.5013266,0.9696923,-0.42337593,-6.7099004,5.765238,-11.63582,1.484405
5.2817235,4.4998593,1.0666313,-0.3434811,-6.5075,5.425261,-10.970232,1.3024458
5.275534,4.498343,1.0666313,-0.3434811,-6.5075,5.425261,-10.970232,1.3024458
5.2693315,4.497026,1.1614399,-0.26039046,-6.292317,5.0757074,-10.376471,1.1300632
5.263545,4.495752,1.1614399,-0.26039046,-6.292317,5.0757074,-10.376471,1.1300632
5.2577376,4.4946938,1.2541178,-0.1730388,-6.0654154,4.6351743,-9.753978,0.9816227
5.2519665,4.4935994,1.2541178,-0.1730388,-6.0654154,4.6351743,-9.753978,0.9816227
5.246398,4.492778,1.3446654,-0.08462184,-5.832123,4.2521024,-9.088389,0.6943185
5.240831,4.4919195,1.3446654,-0.08462184,-5.832123,4.2521024,-9.088389,0.6943185
5.235483,4.491349,1.4341476,0.0048603755,-5.592438,3.8977604,-8.384495,0.40222588
5.2301416,4.4907484,1.4341476,0.0048603755,-5.592438,3.8977604,-8.384495,0.40222588
5.2250185,4.49044,1.5183035,0.09434259,-5.3484926,3.6535518,-7.752425,0.10534488
5.2198963,4.4901066,1.5183035,0.09434259,-5.3484926,3.6535518,-7.752425,0.10534488
5.214995,4.4900646,1.5950025,0.18169427,-5.1066775,3.4045548,-7.091625,-0.14844051
5.2100945,4.4900045,1.5950025,0.18169427,-5.1066775,3.4045548,-7.091625,-0.14844051
5.2054124,4.490244,1.6631794,0.2679807,-4.8648624,3.2082303,-6.4308257,-0.20590134
5.20073,4.490469,1.6631794,0.2679807,-4.8648624,3.2082303,-6.4308257,-0.20590134
5.196264,4.49098,1.7249647,0.35107133,-4.629439,3.0262709,-5.8226986,-0.4261679
5.191797,4.4914813,1.7249647,0.35107133,-4.629439,3.0262709,-5.8226986,-0.4261679
5.18754,4.492267,1.7803586,0.42990088,-4.399342,2.7964275,-5.2289367,-0.51235914
5.183283,4.4930477,1.7803586,0.42990088,-4.399342,2.7964275,-5.2289367,-0.51235914
5.179228,4.4941077,1.830426,0.50127363,-4.173506,2.5809495,-4.6255975,-0.50757074
5.1751804,4.495165,1.830426,0.50127363,-4.173506,2.5809495,-4.6255975,-0.50757074
5.17085,4.496636,1.8751671,0.5587979,-3.951931,2.4372973,-3.9743748,-0.51714754
5.1674423,4.497798,1.8751671,0.5587979,-3.951931,2.4372973,-3.9743748,-0.51714754
5.1635027,4.4994216,1.9156471,0.5992779,-3.7378128,2.3463178,-3.1507695,-0.61770403
5.1601453,4.500812,1.9156471,0.5992779,-3.7378128,2.3463178,-3.1507695,-0.61770403
5.156765,4.502371,1.9497356,0.623779,-3.5300863,2.4851813,-2.2744915,-0.81402856
5.1533194,4.5039687,1.9497356,0.623779,-3.5300863,2.4851813,-2.2744915,-0.81402856
5.1499805,4.505593,1.975302,0.63869274,-3.3330123,2.6719291,-1.4700398,-0.8858546
5.146642,4.507226,1.975302,0.63869274,-3.3330123,2.6719291,-1.4700398,-0.8858546
5.1433644,4.508959,1.9923462,0.64721483,-3.1519172,3.083732,-0.6991069,-0.9672575
5.140084,4.5107026,1.9923462,0.64721483,-3.1519172,3.083732,-0.6991069,-0.9672575
5.1369104,4.512593,2.0019336,0.6482801,-2.993193,3.5769374,-0.033518825,-0.9624691
5.133734,4.514496,2.0019336,0.6482801,-2.993193,3.5769374,-0.033518825,-0.9624691
5.130672,4.516491,2.0019336,0.6450843,-2.8696222,4.132392,0.7086837,-1.0726024
5.1276093,4.5184975,2.0019336,0.6450843,-2.8696222,4.132392,0.7086837,-1.0726024
5.124628,4.5205517,1.9880852,0.64082325,-2.7854664,4.6782703,1.5945383,-1.2354081
5.1216474,4.5226192,1.9880852,0.64082325,-2.7854664,4.6782703,1.5945383,-1.2354081
5.118706,4.5246615,1.9571924,0.6333664,-2.7492473,5.0900726,2.5091233,-1.6472107
5.115765,4.526719,1.9571924,0.6333664,-2.7492473,5.0900726,2.5091233,-1.6472107
5.112814,4.528718,1.9039292,0.6216485,-2.7620306,5.33907,3.3183637,-1.733402
5.109864,4.530732,1.9039292,0.6216485,-2.7620306,5.33907,3.3183637,-1.733402
5.106868,4.532626,1.8240343,0.60780007,-2.8131633,5.085284,3.8786068,-1.8626889
5.1038723,4.5345335,1.8240343,0.60780007,-2.8131633,5.085284,3.8786068,-1.8626889
5.1008,4.536298,1.7238995,0.5918211,-2.8941233,5.023035,4.2760444,-1.7046716
5.0977273,4.538075,1.7238995,0.5918211,-2.8941233,5.023035,4.2760444,-1.7046716
5.0945683,4.5396576,1.6099162,0.5726463,-2.9878666,4.673482,4.55856,-1.8770541
5.091406,4.541254,1.6099162,0.5726463,-2.9878666,4.673482,4.55856,-1.8770541
5.0881577,4.5426373,1.4820845,0.5545368,-3.0880015,4.2904096,4.8027687,-2.0254946
5.0849056,4.544033,1.4820845,0.5545368,-3.0880015,4.2904096,4.8027687,-2.0254946
5.081557,4.54523,1.3478612,0.53749263,-3.1892016,3.8738184,4.759673,-1.757344
5.0782084,4.546436,1.3478612,0.53749263,-3.1892016,3.8738184,4.759673,-1.757344
5.074769,4.5474257,1.2147031,0.51725256,-3.287206,3.3806129,4.663905,-1.6376339
5.071328,4.548422,1.2147031,0.51725256,-3.287206,3.3806129,4.663905,-1.6376339
5.0678043,4.549207,1.0868714,0.49488202,-3.3788185,2.719813,4.4915223,-1.4030021
5.0642767,4.549998,1.0868714,0.49488202,-3.3788185,2.719813,4.4915223,-1.4030021
5.060684,4.5505676,0.9633007,0.47038093,-3.4555178,2.0925324,4.343082,-1.340753
5.0570564,4.5511446,0.9633007,0.47038093,-3.4555178,2.0925324,4.343082,-1.340753
5.0534225,4.551504,0.84505635,0.4416188,-3.5162377,1.3742718,4.2425256,-1.13964
5.049788,4.551861,0.84505635,0.4416188,-3.5162377,1.3742718,4.2425256,-1.13964
5.046112,4.551999,0.73213834,0.4032693,-3.5567179,0.9816227,3.8115692,-0.770933
5.042444,4.5521317,0.73213834,0.4032693,-3.5567179,0.9816227,3.8115692,-0.770933
5.0387735,4.5520034,0.62348133,0.35320187,-3.573762,0.01436521,4.2281604,-0.82360536
5.0351095,4.551865,0.62348133,0.35320187,-3.573762,0.01436521,4.2281604,-0.82360536
5.0314546,4.551431,0.51802015,0.2860902,-3.5716314,0.05746084,3.8738184,-0.49799395
5.0277996,4.5509796,0.51802015,0.2860902,-3.5716314,0.05746084,3.8738184,-0.49799395
5.024172,4.550185,0.4146895,0.20619535,-3.5556526,0.08619126,3.739743,-0.31603462
5.0205503,4.549367,0.4146895,0.20619535,-3.5556526,0.08619126,3.739743,-0.31603462
5.016983,4.5482087,0.3188157,0.12843105,-3.5183682,-0.45010993,3.5242648,-0.272939
5.0134172,4.547018,0.3188157,0.12843105,-3.5183682,-0.45010993,3.5242648,-0.272939
5.0099154,4.5454617,0.2325293,0.04107937,-3.4683008,-0.6751649,3.3901896,-0.18195933
5.006433,4.5438733,0.2325293,0.04107937,-3.4683008,-0.6751649,3.3901896,-0.18195933
5.003005,4.5418525,0.15583025,-0.062251285,-3.4107766,-0.6991069,3.3327289,-0.12449849
4.9995813,4.5397825,0.15583025,-0.062251285,-3.4107766,-0.6991069,3.3327289,-0.12449849
4.996253,4.537277,0.087653324,-0.17090826,-3.3425996,-0.7134721,3.217807,-0.05267244
4.992833,4.534637,0.087653324,-0.17090826,-3.3425996,-0.7134721,3.217807,-0.05267244
4.98967,4.531678,0.026933251,-0.2838263,-3.2680311,-0.59376204,3.0454245,0.08619126
4.9864635,4.5286055,0.026933251,-0.2838263,-3.2680311,-0.59376204,3.0454245,0.08619126
4.983335,4.5250196,-0.024199443,-0.40313593,-3.1923974,-0.45489833,2.896984,0.110133275
4.9802027,4.5213413,-0.024199443,-0.40313593,-3.1923974,-0.45489833,2.896984,0.110133275
4.977169,4.5171523,-0.06467949,-0.5256413,-3.1178288,-0.25857377,2.6719291,0.17238252
4.974144,4.512871,-0.06467949,-0.5256413,-3.1178288,-0.25857377,2.6719291,0.17238252
4.9712095,4.508057,-0.0945069,-0.649212,-3.0443256,0.095768064,2.3894134,0.20111294
4.968279,4.5031276,-0.0945069,-0.649212,-3.0443256,0.095768064,2.3894134,0.20111294
4.965453,4.497691,-0.11794271,-0.7706522,-2.974018,0.45489833,2.1404164,0.24899697
4.9626217,4.4921036,-0.11794271,-0.7706522,-2.974018,0.45489833,2.1404164,0.24899697
4.959884,4.486,-0.1360522,-0.8888965,-2.9079716,0.8858546,1.8004397,0.30166942
4.9571543,4.4797544,-0.1360522,-0.8888965,-2.9079716,0.8858546,1.8004397,0.30166942
4.954526,4.473042,-0.14670485,-1.0007492,-2.8451211,1.3215994,1.4173675,0.35434186
4.951892,4.4661345,-0.14670485,-1.0007492,-2.8451211,1.3215994,1.4173675,0.35434186
4.949349,4.4587717,-0.14990065,-1.10408,-2.7897274,1.910573,1.0247183,0.37349546
4.946817,4.451243,-0.14990065,-1.10408,-2.7897274,1.910573,1.0247183,0.37349546
4.944371,4.4432993,-0.1456396,-1.1956927,-2.7407253,2.5809495,0.51714754,0.32561144
4.9419355,4.4351726,-0.1456396,-1.1956927,-2.7407253,2.5809495,0.51714754,0.32561144
4.9395976,4.4267287,-0.13072589,-1.2766528,-2.6981146,3.107674,0.04309563,0.31124622
4.9372625,4.418061,-0.13072589,-1.2766528,-2.6981146,3.107674,0.04309563,0.31124622
4.935041,4.4091854,-0.108355336,-1.3437644,-2.6650915,3.5769374,-0.5267244,0.23942018
4.9328375,4.4001365,-0.108355336,-1.3437644,-2.6650915,3.5769374,-0.5267244,0.23942018
4.930768,4.390882,-0.07852793,-1.3991581,-2.6416557,3.9073372,-0.9816227,0.20111294
4.928707,4.3813944,-0.07852793,-1.3991581,-2.6416557,3.9073372,-0.9816227,0.20111294
4.926766,4.3715973,-0.04017841,-1.447095,-2.6224809,4.132392,-1.4987702,0.21547815
4.924849,4.361638,-0.04017841,-1.447095,-2.6224809,4.132392,-1.4987702,0.21547815
4.9229274,4.350922,0.0024321685,-1.4897057,-2.603306,4.4340615,-1.9440918,0.2633622
4.921171,4.340822,0.0024321685,-1.4897057,-2.603306,4.4340615,-1.9440918,0.2633622
4.9193683,4.329809,0.047173277,-1.5291204,-2.5809355,4.6399627,-2.408567,0.4309563
4.9176774,4.319145,0.047173277,-1.5291204,-2.5809355,4.6399627,-2.408567,0.4309563
4.916016,4.307968,0.09404491,-1.5685352,-2.5489776,4.865018,-2.834735,0.58418524
4.914376,4.2965713,0.09404491,-1.5685352,-2.5489776,4.865018,-2.834735,0.58418524
4.9128165,4.2849307,0.14304708,-1.60795,-2.5095627,4.759673,-3.1507695,0.7182605
4.9112873,4.2731185,0.14304708,-1.60795,-2.5095627,4.759673,-3.1507695,0.7182605
4.909854,4.261065,0.1963103,-1.6505606,-2.4616258,4.960786,-3.2034419,0.51714754
4.908452,4.2488365,0.1963103,-1.6505606,-2.4616258,4.960786,-3.2034419,0.51714754
4.9071555,4.2363787,0.25063878,-1.6995628,-2.4083626,5.133168,-3.4141316,0.45489833
4.90589,4.223752,0.25063878,-1.6995628,-2.4083626,5.133168,-3.4141316,0.45489833
4.904735,4.2109284,0.3070978,-1.7517607,-2.3476427,5.386954,-3.6056678,0.46926352
4.903613,4.197937,0.3070978,-1.7517607,-2.3476427,5.386954,-3.6056678,0.46926352
4.902604,4.184823,0.36781788,-1.7996976,-2.2815962,5.535394,-3.7349546,0.51714754
4.9016323,4.171584,0.36781788,-1.7996976,-2.2815962,5.535394,-3.7349546,0.51714754
4.9007816,4.1582813,0.43173376,-1.8412429,-2.2048972,5.626374,-3.7445314,0.45968673
4.899967,4.1448593,0.43173376,-1.8412429,-2.2048972,5.626374,-3.7445314,0.45968673
4.899281,4.131467,0.4967149,-1.8763967,-2.1218066,5.717354,-3.6870706,0.31124622
4.89863,4.117976,0.4967149,-1.8763967,-2.1218066,5.717354,-3.6870706,0.31124622
4.898101,4.10441,0.56063074,-1.9040935,-2.0301938,5.78918,-3.4859576,0.15322891
4.897588,4.090148,0.56063074,-1.9040935,-2.0301938,5.78918,-3.4859576,0.15322891
4.8972483,4.0774045,0.6224161,-1.9253988,-1.9332547,5.961562,-3.3039982,0.009576807
4.8969307,4.064308,0.6224161,-1.9253988,-1.9332547,5.961562,-3.3039982,0.009576807
4.896737,4.0514474,0.67780983,-1.942443,-1.8320546,5.9663506,-3.0885203,-0.033518825
4.896571,4.038416,0.67780983,-1.942443,-1.8320546,5.9663506,-3.0885203,-0.033518825
4.8965354,4.025741,0.73000777,-1.9530957,-1.7265935,5.947197,-2.834735,-0.20111294
4.8965282,4.013114,0.73000777,-1.9530957,-1.7265935,5.947197,-2.834735,-0.20111294
4.896648,4.0008793,0.7800752,-1.9594873,-1.6094143,5.947197,-2.4756045,-0.29688102
4.896823,3.9866354,0.7800752,-1.9594873,-1.6094143,5.947197,-2.4756045,-0.29688102
4.8970757,3.9760668,0.8258816,-1.9616178,-1.4847784,5.770026,-2.633622,-0.32561144
4.8973737,3.9646435,0.8258816,-1.9616178,-1.4847784,5.770026,-2.633622,-0.32561144
4.897835,3.9533496,0.8706227,-1.9605526,-1.3505551,5.4300494,-1.9632454,-0.6847417
4.898323,3.9420772,0.8706227,-1.9605526,-1.3505551,5.4300494,-1.9632454,-0.6847417
4.899026,3.9296846,0.9132333,-1.9733357,-1.2110054,6.3302693,-2.0159178,-0.58897364
4.8995247,3.9212322,0.9132333,-1.9733357,-1.2110054,6.3302693,-2.0159178,-0.58897364
4.9002724,3.9114776,0.9515828,-1.9637483,-1.0544115,6.517017,-1.6663644,-0.7374141
4.9010887,3.9012017,0.9515828,-1.9637483,-1.0544115,6.517017,-1.6663644,-0.7374141
4.9018927,3.893372,0.98673654,-1.9253988,-0.88503456,6.090849,-1.5466543,-0.94810385
4.902772,3.8850036,0.98673654,-1.9253988,-0.88503456,6.090849,-1.5466543,-0.94810385
4.903797,3.8768048,1.0218903,-1.8763967,-0.7071354,6.129156,-1.1827357,-1.2785037
4.9048343,3.8687267,1.0218903,-1.8763967,-0.7071354,6.129156,-1.1827357,-1.2785037
4.9059405,3.8612864,1.0517176,-1.8199376,-0.51858354,6.0285997,-0.8475474,-1.5370775
4.9070587,3.8539557,1.0517176,-1.8199376,-0.51858354,6.0285997,-0.8475474,-1.5370775
4.908233,3.8475802,1.0751535,-1.7560217,-0.3225749,6.0956373,-0.5554548,-1.70946
4.9094257,3.841244,1.0751535,-1.7560217,-0.3225749,6.0956373,-0.5554548,-1.70946
4.910688,3.8359227,1.0921977,-1.6846491,-0.11804412,5.9663506,-0.22026655,-1.8962077
4.911939,3.830748,1.0921977,-1.6846491,-0.11804412,5.9663506,-0.22026655,-1.8962077
4.913275,3.8266006,1.1049808,-1.6100805,0.09181297,5.8562174,0.01436521,-1.9871874
4.914607,3.8225338,1.1049808,-1.6100805,0.09181297,5.8562174,0.01436521,-1.9871874
4.91602,3.8195071,1.1156335,-1.5408384,0.3091269,5.8322754,0.31603462,-2.0590134
4.917433,3.8165312,1.1156335,-1.5408384,0.3091269,5.8322754,0.31603462,-2.0590134
4.9189134,3.8145947,1.1241556,-1.4769225,0.5285714,5.741296,0.7230489,-2.0925324
4.9203978,3.8126905,1.1241556,-1.4769225,0.5285714,5.741296,0.7230489,-2.0925324
4.921961,3.8117812,1.1284167,-1.4162024,0.74482006,5.722142,1.1540052,-2.2505496
4.9235187,3.8108966,1.1284167,-1.4162024,0.74482006,5.722142,1.1540052,-2.2505496
4.9251685,3.810977,1.1284167,-1.3554823,0.9600035,5.5258174,1.5466543,-2.3798366
4.9268136,3.8110645,1.1284167,-1.3554823,0.9600035,5.5258174,1.5466543,-2.3798366
4.928548,3.8120642,1.1220251,-1.297958,1.1709259,5.21936,1.7812861,-2.5905263
4.9302783,3.8130548,1.1220251,-1.297958,1.1709259,5.21936,1.7812861,-2.5905263
4.9321074,3.8149066,1.1060462,-1.2425643,1.3775872,4.9081135,1.8914193,-2.719813
4.9339304,3.8167305,1.1060462,-1.2425643,1.3775872,4.9081135,1.8914193,-2.719813
4.9358497,3.819375,1.0826104,-1.1914316,1.5885096,4.620809,2.0111294,-2.753332
4.937766,3.8219786,1.0826104,-1.1914316,1.5885096,4.620809,2.0111294,-2.753332
4.939792,3.8253763,1.0485219,-1.14456,1.8068887,4.3047748,2.111686,-2.873042
4.9418097,3.8287063,1.0485219,-1.14456,1.8068887,4.3047748,2.111686,-2.873042
4.9439626,3.8328278,1.0027155,-1.1008841,2.0327249,3.9839516,2.0925324,-3.0358477
4.946109,3.8368626,1.0027155,-1.1008841,2.0327249,3.9839516,2.0925324,-3.0358477
4.9483943,3.8416588,0.9537133,-1.0635998,2.2724092,3.8738184,2.0159178,-3.1794999
4.950672,3.8463478,0.9537133,-1.0635998,2.2724092,3.8738184,2.0159178,-3.1794999
4.9531174,3.8517911,0.89938486,-1.035903,2.5238118,3.8355112,1.910573,-3.241749
4.955554,3.8571014,0.89938486,-1.035903,2.5238118,3.8355112,1.910573,-3.241749
4.9581757,3.863134,0.8439911,-1.015663,2.782671,4.1132383,1.7046716,-3.4620156
4.960811,3.8690627,0.8439911,-1.015663,2.782671,4.1132383,1.7046716,-3.4620156
4.9635897,3.8755643,0.7917931,-0.9986187,3.0457914,4.43885,1.4652514,-3.6248214
4.966399,3.8819795,0.7917931,-0.9986187,3.0457914,4.43885,1.4652514,-3.6248214
4.9693913,3.8890135,0.7417257,-0.9783787,3.3057158,4.7740383,1.1923125,-4.0414124
4.9723887,3.8958766,0.7417257,-0.9783787,3.3057158,4.7740383,1.1923125,-4.0414124
4.9755535,3.9032865,0.6927235,-0.9538776,3.560314,5.0900726,0.9672575,-4.223372
4.9787493,3.9105685,0.6927235,-0.9538776,3.560314,5.0900726,0.9672575,-4.223372
4.982111,3.9183533,0.6479824,-0.92511547,3.8095858,5.410896,0.641646,-4.367024
4.985486,3.9259503,0.6479824,-0.92511547,3.8095858,5.410896,0.641646,-4.367024
4.9890223,3.934009,0.60537183,-0.8920923,4.054597,5.6886234,0.25378537,-4.343082
4.9925995,3.9419224,0.60537183,-0.8920923,4.054597,5.6886234,0.25378537,-4.343082
4.996331,3.9502237,0.5670223,-0.86013436,4.2921505,5.8466406,-0.076614454,-4.295198
5.0000834,3.9583194,0.5670223,-0.86013436,4.2921505,5.8466406,-0.076614454,-4.295198
5.004001,3.9667752,0.5329339,-0.8292417,4.5211825,6.0046577,-0.45010993,-4.3047748
5.007958,3.9750488,0.5329339,-0.8292417,4.5211825,6.0046577,-0.45010993,-4.3047748
5.012071,3.9835997,0.49991068,-0.80580586,4.7502146,6.081272,-0.9528923,-4.10845
5.0162377,3.9919848,0.49991068,-0.80580586,4.7502146,6.081272,-0.9528923,-4.10845
5.0205793,4.0006146,0.46688747,-0.7908922,4.9771156,6.411672,-1.5610195,-4.1276035
5.024946,4.009012,0.46688747,-0.7908922,4.9771156,6.411672,-1.5610195,-4.1276035
5.0295005,4.0176163,0.4359948,-0.78343534,5.202952,6.622362,-2.0254946,-4.1036615
5.034103,4.026024,0.4359948,-0.78343534,5.202952,6.622362,-2.0254946,-4.1036615
5.038902,4.0346093,0.41042846,-0.78343534,5.4234614,6.95755,-2.6623523,-3.9217024
5.043727,4.0429506,0.41042846,-0.78343534,5.4234614,6.95755,-2.6623523,-3.9217024
5.048738,4.0514,0.3912537,-0.7930227,5.638645,7.321469,-3.2704794,-3.8833952
5.0538125,4.0596633,0.3912537,-0.7930227,5.638645,7.321469,-3.2704794,-3.8833952
5.0590706,4.0679884,0.3795358,-0.8090017,5.8463717,7.4746976,-3.8355112,-3.9025488
5.0643563,4.0760684,0.3795358,-0.8090017,5.8463717,7.4746976,-3.8355112,-3.9025488
5.069886,4.0842814,0.38060105,-0.8324375,6.044511,7.795521,-4.4196963,-3.7732618
5.0753736,4.092147,0.38060105,-0.8324375,6.044511,7.795521,-4.4196963,-3.7732618
5.0810947,4.1001043,0.39551476,-0.8633302,6.2330627,8.231265,-5.032612,-3.6870706
5.0868096,4.1077776,0.39551476,-0.8633302,6.2330627,8.231265,-5.032612,-3.6870706
5.092721,4.1154623,0.42534214,-0.9038102,6.4067006,8.724471,-5.439626,-3.4859576
5.0986896,4.1229544,0.42534214,-0.9038102,6.4067006,8.724471,-5.439626,-3.4859576
5.1048136,4.1303515,0.47008327,-0.94961655,6.56649,9.059659,-5.7125654,-3.6535518
5.1109633,4.1375256,0.47008327,-0.94961655,6.56649,9.059659,-5.7125654,-3.6535518
5.1172647,4.14462,0.5318686,-0.9986187,6.7124314,9.198523,-5.9902925,-3.6870706
5.123623,4.1515374,0.5318686,-0.9986187,6.7124314,9.198523,-5.9902925,-3.6870706
5.1301174,4.158388,0.6096329,-1.0529473,6.8445244,9.643845,-6.229713,-3.442862
5.1366425,4.1650424,0.6096329,-1.0529473,6.8445244,9.643845,-6.229713,-3.442862
5.143292,4.171605,0.6991151,-1.1072757,6.9670296,9.902418,-6.2967505,-3.4045548
5.1499987,4.178008,0.6991151,-1.1072757,6.9670296,9.902418,-6.2967505,-3.4045548
5.156804,4.184294,0.80031526,-1.1541474,7.084209,9.696517,-6.3206925,-3.6391866
5.1636667,4.1904297,0.80031526,-1.1541474,7.084209,9.696517,-6.3206925,-3.6391866
5.1706448,4.1965,0.9089722,-1.1967579,7.202453,9.514558,-6.2584434,-3.7732618
5.1776376,4.2023907,0.9089722,-1.1967579,7.202453,9.514558,-6.2584434,-3.7732618
5.184746,4.2082415,1.0165639,-1.2372379,7.321763,9.332599,-6.2392898,-3.787627
5.1919103,4.213958,1.0165639,-1.2372379,7.321763,9.332599,-6.2392898,-3.787627
5.1994224,4.219841,1.1220251,-1.2713264,7.4495945,9.41879,-6.315904,-3.7349546
5.206889,4.225508,1.1220251,-1.2713264,7.4495945,9.41879,-6.315904,-3.7349546
5.214178,4.230939,1.2232252,-1.2958275,7.584883,8.978256,-6.229713,-3.9121256
5.221515,4.236248,1.2232252,-1.2958275,7.584883,8.978256,-6.229713,-3.9121256
5.228982,4.2415986,1.3201643,-1.3118064,7.73402,8.738836,-6.291962,-3.8259344
5.2365894,4.246894,1.3201643,-1.3118064,7.73402,8.738836,-6.291962,-3.8259344
5.2443366,4.2522464,1.4139075,-1.3181981,7.899136,8.5473,-6.3350577,-3.7924154
5.252149,4.257492,1.4139075,-1.3181981,7.899136,8.5473,-6.3350577,-3.7924154
5.260112,4.262805,1.5055203,-1.3150023,8.085557,8.274361,-6.1770406,-3.7828386
5.2680845,4.267977,1.5055203,-1.3150023,8.085557,8.274361,-6.1770406,-3.7828386
5.2762165,4.273237,1.592872,-1.3011539,8.286893,8.2169,-6.1626754,-3.8307228
5.2844157,4.2783957,1.592872,-1.3011539,8.286893,8.2169,-6.1626754,-3.8307228
5.2927465,4.283633,1.6780932,-1.2777181,8.49888,8.274361,-6.191406,-3.8833952
5.301136,4.2887664,1.6780932,-1.2777181,8.49888,8.274361,-6.191406,-3.8833952
5.309695,4.2940087,1.7611837,-1.2457601,8.716194,8.461109,-6.517017,-4.189853
5.317877,4.29889,1.7611837,-1.2457601,8.716194,8.461109,-6.517017,-4.189853
5.326618,4.3041277,1.8378829,-1.2010189,8.934573,9.121908,-6.895301,-4.209007
5.3358054,4.309484,1.8378829,-1.2010189,8.934573,9.121908,-6.895301,-4.209007
5.344717,4.31471,1.9167124,-1.1413642,9.1423,9.883265,-7.3071036,-4.3526587
5.353652,4.319815,1.9167124,-1.1413642,9.1423,9.883265,-7.3071036,-4.3526587
5.3627334,4.3250675,2.0072598,-1.0657305,9.326591,10.582372,-7.599196,-4.3766007
5.3718643,4.3302155,2.0072598,-1.0657305,9.326591,10.582372,-7.599196,-4.3766007
5.3810163,4.335474,2.1095252,-0.9730524,9.478924,11.477803,-8.1642275,-4.5058875
5.390234,4.3406444,2.1095252,-0.9730524,9.478924,11.477803,-8.1642275,-4.5058875
5.3994513,4.345949,2.225639,-0.86652595,9.590776,12.263102,-8.734048,-4.414908
5.40888,4.3512545,2.225639,-0.86652595,9.590776,12.263102,-8.734048,-4.414908
5.417933,4.356543,2.3577318,-0.7504121,9.658953,13.067553,-9.083601,-4.3287168
5.4271855,4.3618364,2.3577318,-0.7504121,9.658953,13.067553,-9.083601,-4.3287168
5.4363623,4.3673544,2.5047383,-0.62790674,9.682389,13.771448,-9.44752,-3.9743748
5.4455624,4.372765,2.5047383,-0.62790674,9.682389,13.771448,-9.44752,-3.9743748
5.4546895,4.378348,2.6623976,-0.5022055,9.6664095,13.776237,-9.600749,-3.8546648
5.4638863,4.3838525,2.6623976,-0.5022055,9.6664095,13.776237,-9.600749,-3.8546648
5.4729524,4.3894997,2.8243177,-0.38183063,9.622734,13.608643,-9.524135,-3.6104562
5.482125,4.395094,2.8243177,-0.38183063,9.622734,13.608643,-9.524135,-3.6104562
5.4911575,4.400826,2.9819767,-0.2657168,9.564144,13.311762,-9.500193,-3.241749
5.500214,4.4064574,2.9819767,-0.2657168,9.564144,13.311762,-9.500193,-3.241749
5.5091643,4.4122114,3.1300485,-0.15279876,9.500229,12.861651,-9.227253,-3.0597897
5.518183,4.4178987,3.1300485,-0.15279876,9.500229,12.861651,-9.227253,-3.0597897
5.527062,4.4236856,3.2621415,-0.03455441,9.437378,12.430696,-8.853758,-2.7150247
5.536018,4.429416,3.2621415,-0.03455441,9.437378,12.430696,-8.853758,-2.7150247
5.544849,4.4352293,3.3750594,0.09434259,9.38518,11.722012,-8.51857,-2.6288335
5.553748,4.440983,3.3750594,0.09434259,9.38518,11.722012,-8.51857,-2.6288335
5.562566,4.4468374,3.4677374,0.23708802,9.352157,10.654198,-7.9726915,-2.408567
5.571399,4.452602,3.4677374,0.23708802,9.352157,10.654198,-7.9726915,-2.408567
5.5801797,4.4584455,3.5401754,0.39048612,9.350026,9.500193,-7.431602,-2.3750482
5.5890293,4.464237,3.5401754,0.39048612,9.350026,9.500193,-7.431602,-2.3750482
5.597843,4.470084,3.5966344,0.5524063,9.3894415,8.293514,-6.9000893,-2.3127987
5.606727,4.4758816,3.5966344,0.5524063,9.3894415,8.293514,-6.9000893,-2.3127987
5.615661,4.4817367,3.6381798,0.71539176,9.477859,7.5848308,-6.26802,-2.4612393
5.624611,4.4875097,3.6381798,0.71539176,9.477859,7.5848308,-6.26802,-2.4612393
5.633653,4.493349,3.666942,0.8826383,9.613147,7.2544312,-5.765238,-2.6144683
5.642766,4.4991417,3.666942,0.8826383,9.613147,7.2544312,-5.765238,-2.6144683
5.6519737,4.504985,3.6850514,1.0594722,9.782524,7.1490865,-5.233725,-2.8107927
5.6612535,4.510781,3.6850514,1.0594722,9.782524,7.1490865,-5.233725,-2.8107927
5.670649,4.516633,3.699965,1.248024,9.977468,7.225701,-4.8027687,-3.0023289
5.6800146,4.522374,3.699965,1.248024,9.977468,7.225701,-4.8027687,-3.0023289
5.6896343,4.528254,3.7138135,1.4450979,10.179868,7.6710224,-4.429273,-3.265691
5.6993876,4.534119,3.7138135,1.4450979,10.179868,7.6710224,-4.429273,-3.265691
5.7091637,4.53999,3.727662,1.6496286,10.372681,8.418014,-4.2042184,-3.371036
5.720001,4.5463877,3.727662,1.6496286,10.372681,8.418014,-4.2042184,-3.371036
5.720001,4.5463877,3.727662,1.6496286,10.372681,8.418014,-4.2042184,-3.371036
5.720001,4.5463877,3.7415104,1.8637469,10.539927,9.375694,-4.2042184,-3.5338416
5.749065,4.563322,3.7500324,2.0863872,10.666694,10.357317,-4.309563,-3.643975
5.7597947,4.569465,3.7500324,2.0863872,10.666694,10.357317,-4.309563,-3.643975
5.769819,4.5752277,3.747902,2.315419,10.73487,10.884041,-4.477157,-3.4859576
5.7807016,4.581379,3.747902,2.315419,10.73487,10.884041,-4.477157,-3.4859576
5.7807016,4.581379,3.747902,2.315419,10.73487,10.884041,-4.477157,-3.4859576
5.801082,4.5928764,3.7372494,2.5465813,10.7497835,11.042058,-4.4819455,-3.0789435
5.81017,4.5980015,3.7138135,2.7734828,10.717826,10.817003,-4.6160207,-2.566584
5.8203897,4.603676,3.7138135,2.7734828,10.717826,10.817003,-4.6160207,-2.566584
5.8304715,4.609309,3.67866,2.9897313,10.651779,10.328587,-4.8123455,-2.0015526
5.840657,4.6149087,3.67866,2.9897313,10.651779,10.328587,-4.8123455,-2.0015526
5.85071,4.6204586,3.6339188,3.1953275,10.566559,9.816227,-5.0278234,-1.5227122
5.860846,4.625964,3.6339188,3.1953275,10.566559,9.816227,-5.0278234,-1.5227122
5.8708477,4.631403,3.5795903,3.391336,10.476011,9.131485,-5.1235914,-1.1540052
5.8809834,4.636826,3.5795903,3.391336,10.476011,9.131485,-5.1235914,-1.1540052
5.8908796,4.6421056,3.5156744,3.584149,10.389725,8.418014,-5.315128,-1.043872
5.900898,4.647365,3.5156744,3.584149,10.389725,8.418014,-5.315128,-1.043872
5.9108152,4.6525373,3.4400406,3.778027,10.308764,7.9152308,-5.45878,-1.0007763
5.9207454,4.6576333,3.4400406,3.778027,10.308764,7.9152308,-5.45878,-1.0007763
5.930651,4.6626606,3.3516235,3.9761662,10.234196,7.469909,-5.650316,-1.0726024
5.94057,4.6676135,3.3516235,3.9761662,10.234196,7.469909,-5.650316,-1.0726024
5.950411,4.672454,3.2493582,4.176436,10.163888,7.1059904,-5.961562,-1.0821792
5.960264,4.6772223,3.2493582,4.176436,10.163888,7.1059904,-5.961562,-1.0821792
5.9700313,4.6818643,3.1332445,4.378836,10.082929,7.0102224,-6.4978633,-1.0965444
5.9798794,4.686468,3.1332445,4.378836,10.082929,7.0102224,-6.4978633,-1.0965444
5.9896116,4.6909256,3.0054126,4.5823016,9.980663,7.015011,-7.2687964,-1.1300632
5.9993653,4.6953187,3.0054126,4.5823016,9.980663,7.015011,-7.2687964,-1.1300632
6.0089793,4.699558,2.870124,4.781506,9.842178,6.823475,-8.202535,-1.1779473
6.018653,4.7037506,2.870124,4.781506,9.842178,6.823475,-8.202535,-1.1779473
6.0281215,4.707774,2.7348354,4.965797,9.665344,6.14831,-8.973468,-0.9959879
6.037667,4.711761,2.7348354,4.965797,9.665344,6.14831,-8.973468,-0.9959879
6.046999,4.7155843,2.6070037,5.127717,9.458683,5.3103395,-9.65821,-0.8331822
6.056341,4.719344,2.6070037,5.127717,9.458683,5.3103395,-9.65821,-0.8331822
6.066133,4.723205,2.4855635,5.2502227,9.224325,4.3861775,-10.28549,-0.63206923
6.0747166,4.726529,2.4855635,5.2502227,9.224325,4.3861775,-10.28549,-0.63206923
6.083813,4.7300043,2.3737109,5.3279867,8.966531,3.7014358,-10.840945,-0.24420857
6.0927315,4.73335,2.3737109,5.3279867,8.966531,3.7014358,-10.840945,-0.24420857
6.1011744,4.7364845,2.269315,5.364206,8.695954,2.9735985,-11.329363,0.11971009
6.109851,4.739646,2.269315,5.364206,8.695954,2.9735985,-11.329363,0.11971009
6.1183004,4.7427053,2.168115,5.3663363,8.412594,2.327164,-11.836933,0.33518824
6.1269,4.7457457,2.168115,5.3663363,8.412594,2.327164,-11.836933,0.33518824
6.135416,4.7486873,2.0690453,5.3365088,8.115385,1.5562311,-12.143391,0.59855044
6.143663,4.751492,2.0690453,5.3365088,8.115385,1.5562311,-12.143391,0.59855044
6.151623,4.754119,1.9667798,5.2704625,7.8085885,0.92416185,-12.382812,0.770933
6.1597586,4.756757,1.9667798,5.2704625,7.8085885,0.92416185,-12.382812,0.770933
6.167621,4.7592344,1.862384,5.168197,7.4975314,0.22026655,-12.469003,0.89543146
6.1754885,4.761668,1.862384,5.168197,7.4975314,0.22026655,-12.469003,0.89543146
6.1830406,4.7639437,1.757988,5.0339737,7.185409,-0.37828386,-12.392388,1.043872
6.190611,4.7661834,1.757988,5.0339737,7.185409,-0.37828386,-12.392388,1.043872
6.1978774,4.768263,1.6525269,4.874184,6.8775477,-0.93373865,-12.200851,1.067814
6.2051535,4.7703075,1.6525269,4.874184,6.8775477,-0.93373865,-12.200851,1.067814
6.2121415,4.772187,1.5470656,4.69522,6.5782084,-1.2593501,-11.87524,0.8379706
6.219124,4.7740307,1.5470656,4.69522,6.5782084,-1.2593501,-11.87524,0.8379706
6.2258267,4.7757344,1.4416045,4.5034723,6.2895217,-1.6184803,-11.540052,0.90021986
6.232523,4.7774057,1.4416045,4.5034723,6.2895217,-1.6184803,-11.540052,0.90021986
6.2389317,4.7789583,1.339339,4.300007,6.0082917,-1.5945383,-11.190498,1.1971009
6.245353,4.780487,1.339339,4.300007,6.0082917,-1.5945383,-11.190498,1.1971009
6.2514687,4.7818975,1.2402694,4.0912147,5.7323885,-1.4556746,-10.879252,1.4173675
6.2576013,4.783289,1.2402694,4.0912147,5.7323885,-1.4556746,-10.879252,1.4173675
6.2634587,4.784546,1.149722,3.882423,5.4628763,-1.7717092,-10.25676,1.163582
6.269321,4.785782,1.149722,3.882423,5.4628763,-1.7717092,-10.25676,1.163582
6.2749143,4.786899,1.061305,3.668305,5.2018867,-1.9488802,-9.615114,1.0103531
6.280517,4.7879987,1.061305,3.668305,5.2018867,-1.9488802,-9.615114,1.0103531
0.002666071,4.7889886,0.9728881,3.44673,4.9515495,-2.2505496,-9.361329,0.9911995
0.008003859,4.7899613,0.9728881,3.44673,4.9515495,-2.2505496,-9.361329,0.9911995
0.013090346,4.7908316,0.8866017,3.2240896,4.71293,-2.207454,-9.059659,0.91458505
0.018179363,4.791687,0.8866017,3.2240896,4.71293,-2.207454,-9.059659,0.91458505
0.023031889,4.792421,0.80244577,3.0078409,4.488159,-2.1212628,-9.021352,0.51714754
0.027886244,4.7931414,0.80244577,3.0078409,4.488159,-2.1212628,-9.021352,0.51714754
0.03251148,4.793749,0.71935517,2.8075712,4.2793674,-2.0685902,-9.050082,0.22026655
0.037137672,4.794345,0.71935517,2.8075712,4.2793674,-2.0685902,-9.050082,0.22026655
0.041536532,4.794832,0.6362645,2.6211498,4.080163,-1.9393034,-9.390059,-0.033518825
0.04593526,4.795308,0.6362645,2.6211498,4.080163,-1.9393034,-9.390059,-0.033518825
0.05012495,4.7956963,0.5531739,2.4507077,3.886285,-1.9967642,-9.825804,-0.04309563
0.054314036,4.796075,0.5531739,2.4507077,3.886285,-1.9967642,-9.825804,-0.04309563
0.05831252,4.796383,0.4743443,2.2898526,3.6987984,-2.3080103,-10.462662,0.08619126
0.062318478,4.796683,0.4743443,2.2898526,3.6987984,-2.3080103,-10.462662,0.08619126
0.06613611,4.7969337,0.40510213,2.1321936,3.5251603,-2.6910827,-11.056423,0.39264908
0.0699614,4.797178,0.40510213,2.1321936,3.5251603,-2.6910827,-11.056423,0.39264908
0.07362551,4.79739,0.35183892,1.9713385,3.370697,-2.9735985,-11.659762,0.6943185
0.07728991,4.797595,0.35183892,1.9713385,3.370697,-2.9735985,-11.659762,0.6943185
0.08082007,4.7977915,0.31668517,1.8104836,3.2375388,-3.2561142,-12.315774,1.0534488
0.08441043,4.797985,0.31668517,1.8104836,3.2375388,-3.2561142,-12.315774,1.0534488
0.087726355,4.798185,0.3017715,1.6517593,3.1256862,-3.3758245,-12.832921,1.460463
0.09111369,4.7983847,0.3017715,1.6517593,3.1256862,-3.3758245,-12.832921,1.460463
0.094397634,4.798615,0.30603254,1.501557,3.0404649,-3.490746,-13.249513,1.8483237
0.09768153,4.7988415,0.30603254,1.501557,3.0404649,-3.490746,-13.249513,1.8483237
0.10087231,4.7991157,0.32733783,1.3662684,2.9765491,-3.5913026,-13.584701,2.3223755
0.10406928,4.799387,0.32733783,1.3662684,2.9765491,-3.5913026,-13.584701,2.3223755
0.10719653,4.7997074,0.36036104,1.2448282,2.9286122,-3.5913026,-13.800179,2.5474305
0.11032349,4.800025,0.36036104,1.2448282,2.9286122,-3.5913026,-13.800179,2.5474305
0.11339067,4.8004007,0.4008411,1.1425629,2.8913279,-3.4620156,-13.776237,2.834735
0.11645718,4.8007746,0.4008411,1.1425629,2.8913279,-3.4620156,-13.776237,2.834735
0.11946791,4.8012037,0.44025585,1.058407,2.8604352,-3.1172507,-13.551182,3.040636
0.1224777,4.801631,0.44025585,1.058407,2.8604352,-3.1172507,-13.551182,3.040636
0.12541965,4.8021007,0.47114852,0.9966216,2.8210206,-2.719813,-13.278243,3.3997664
0.12836058,4.8025694,0.47114852,0.9966216,2.8210206,-2.719813,-13.278243,3.3997664
0.13122328,4.803061,0.48925802,0.95827204,2.7645614,-2.3511062,-12.909535,3.8163576
0.13408506,4.8035507,0.48925802,0.95827204,2.7645614,-2.3511062,-12.909535,3.8163576
0.1368665,4.804042,0.49138856,0.94335836,2.6889277,-2.2936451,-12.569559,4.098873
0.1396472,4.804532,0.49138856,0.94335836,2.6889277,-2.2936451,-12.569559,4.098873
0.14233318,4.805009,0.48286644,0.94761944,2.597315,-2.1883004,-12.220005,4.3478703
0.14501853,4.805485,0.48286644,0.94761944,2.597315,-2.1883004,-12.220005,4.3478703
0.14759514,4.8059325,0.4604959,0.96146786,2.488658,-2.1164744,-11.798626,4.5441947
0.1501713,4.8063784,0.4604959,0.96146786,2.488658,-2.1164744,-11.798626,4.5441947
0.15262406,4.806784,0.42640743,0.97957736,2.3650873,-2.030283,-11.477803,4.7022123
0.15507644,4.8071876,0.42640743,0.97957736,2.3650873,-2.030283,-11.477803,4.7022123
0.15738483,4.8075476,0.38912317,0.9966216,2.2212765,-1.9201498,-11.224017,4.7884035
0.15969287,4.8079057,0.38912317,0.9966216,2.2212765,-1.9201498,-11.224017,4.7884035
0.16183724,4.8082147,0.3465126,1.0083395,2.057226,-1.8626889,-11.09473,4.912902
0.16398132,4.808522,0.3465126,1.0083395,2.057226,-1.8626889,-11.09473,4.912902
0.16595079,4.8087797,0.3017715,1.0115353,1.880392,-1.910573,-10.998962,4.9464207
0.16792001,4.8090363,0.3017715,1.0115353,1.880392,-1.910573,-10.998962,4.9464207
0.16970597,4.8092456,0.2591609,1.0094048,1.6939707,-2.0207062,-10.91756,4.88896
0.17149162,4.8094535,0.2591609,1.0094048,1.6939707,-2.0207062,-10.91756,4.88896
0.17309026,4.8096204,0.22081138,1.0008826,1.5032884,-2.183512,-10.960655,4.76925
0.1746886,4.8097854,0.22081138,1.0008826,1.5032884,-2.183512,-10.960655,4.76925
0.17610471,4.809911,0.18246186,0.98383844,1.3168671,-2.3798366,-10.94629,4.6255975
0.17752053,4.8100357,0.18246186,0.98383844,1.3168671,-2.3798366,-10.94629,4.6255975
0.17876011,4.8101254,0.1483734,0.9635984,1.1368374,-2.5570073,-10.960655,4.4580035
0.17999943,4.810214,0.1483734,0.9635984,1.1368374,-2.5570073,-10.960655,4.4580035
0.18106782,4.8102665,0.11215441,0.94016254,0.9631993,-2.6910827,-10.869676,4.3478703
0.18213819,4.8103185,0.11215441,0.94016254,0.9631993,-2.6910827,-10.869676,4.3478703
0.183059,4.8103323,0.073804885,0.9145962,0.79914856,-2.8538885,-10.6877165,4.2425256
0.18396497,4.810345,0.073804885,0.9145962,0.79914856,-2.8538885,-10.6877165,4.2425256
0.18471874,4.810315,0.031194309,0.8900951,0.6446852,-3.1603463,-10.534488,4.1276035
0.18547839,4.810284,0.031194309,0.8900951,0.6446852,-3.1603463,-10.534488,4.1276035
0.1861069,4.8102064,-0.014612063,0.8634635,0.5008745,-3.4715924,-10.266336,3.86903
0.18673573,4.810128,-0.014612063,0.8634635,0.5008745,-3.4715924,-10.266336,3.86903
0.1872585,4.8099957,-0.062548965,0.83896244,0.36771646,-3.845088,-9.9790325,3.5529952
0.18775137,4.8098702,-0.062548965,0.83896244,0.36771646,-3.845088,-9.9790325,3.5529952
0.1881559,4.809681,-0.11687745,0.8133961,0.24947211,-4.2425256,-9.768343,3.2130187
0.18856081,4.8094916,-0.11687745,0.8133961,0.24947211,-4.2425256,-9.768343,3.2130187
0.18887639,4.8092394,-0.1722712,0.7825034,0.14401093,-4.5298295,-9.524135,2.695871
0.18919131,4.8089867,-0.1722712,0.7825034,0.14401093,-4.5298295,-9.524135,2.695871
0.18941845,4.808676,-0.2265997,0.7473497,0.04813713,-4.7165775,-9.294291,2.3942018
0.18964525,4.808364,-0.2265997,0.7473497,0.04813713,-4.7165775,-9.294291,2.3942018
0.18979439,4.8079906,-0.28199345,0.7026086,-0.03814929,-4.865018,-9.126697,1.958457
0.18994321,4.807617,-0.28199345,0.7026086,-0.03814929,-4.865018,-9.126697,1.958457
0.19001243,4.807192,-0.33632192,0.64721483,-0.11697886,-4.9703627,-9.040505,1.7956513
0.19008279,4.806757,-0.33632192,0.64721483,-0.11697886,-4.9703627,-9.040505,1.7956513
0.19007547,4.806267,-0.38851988,0.5790379,-0.19261263,-5.104438,-8.939949,1.5227122
0.19006799,4.8057985,-0.38851988,0.5790379,-0.19261263,-5.104438,-8.939949,1.5227122
0.18998672,4.8052983,-0.433261,0.5002083,-0.26505062,-5.171476,-8.872911,1.3072342
0.18990329,4.8047876,-0.433261,0.5002083,-0.26505062,-5.171476,-8.872911,1.3072342
0.18974313,4.80423,-0.47587156,0.40433455,-0.33322755,-5.243302,-8.868123,1.0630256
0.18958576,4.8036838,-0.47587156,0.40433455,-0.33322755,-5.243302,-8.868123,1.0630256
0.18935901,4.8031054,-0.5152864,0.29674283,-0.39394763,-5.243302,-8.848969,0.81402856
0.18935901,4.8031054,-0.5152864,0.29674283,-0.39394763,-5.243302,-8.848969,0.81402856
0.18887733,4.801906,-0.5493748,0.17743322,-0.4482761,-5.2385135,-8.848969,0.5506664
0.18859315,4.8013206,-0.5493748,0.17743322,-0.4482761,-5.2385135,-8.848969,0.5506664
0.1882371,4.8006887,-0.582398,0.05173201,-0.49621302,-5.1571107,-8.863335,0.22984336
0.1882371,4.8006887,-0.582398,0.05173201,-0.49621302,-5.1571107,-8.863335,0.22984336
0.18748331,4.799417,-0.6122254,-0.078230254,-0.53669304,-4.9320555,-8.939949,0
0.18708901,4.798795,-0.6122254,-0.078230254,-0.53669304,-4.9320555,-8.939949,0
0.1866189,4.7981296,-0.638857,-0.2113883,-0.5750426,-4.7070007,-8.978256,-0.16280572
0.18618396,4.7975135,-0.638857,-0.2113883,-0.5750426,-4.7070007,-8.978256,-0.16280572
0.18568103,4.796867,-0.6601623,-0.34561163,-0.60913104,-4.3143516,-9.054871,-0.21068975
0.18517135,4.7962117,-0.6601623,-0.34561163,-0.60913104,-4.3143516,-9.054871,-0.21068975
0.18461333,4.795555,-0.6772066,-0.47770444,-0.6400237,-3.8977604,-9.232041,-0.25857377
0.18405642,4.794899,-0.6772066,-0.47770444,-0.6400237,-3.8977604,-9.232041,-0.25857377
0.18344913,4.794244,-0.6889245,-0.6044709,-0.66878587,-3.4141316,-9.423578,-0.23463176
0.1828427,4.7935886,-0.6889245,-0.6044709,-0.66878587,-3.4141316,-9.423578,-0.23463176
0.18218033,4.792938,-0.6953161,-0.72271526,-0.69967854,-2.906561,-9.653421,-0.15801731
0.18141903,4.7921886,-0.6953161,-0.72271526,-0.69967854,-2.906561,-9.653421,-0.15801731
0.1808092,4.7916436,-0.69851184,-0.8324375,-0.7305712,-2.4708161,-9.89763,0
0.18009086,4.7910004,-0.69851184,-0.8324375,-0.7305712,-2.4708161,-9.89763,0
0.17928745,4.79036,-0.6974466,-0.9283113,-0.7614639,-2.0733786,-10.204087,0.04309563
0.17848662,4.7897196,-0.6974466,-0.9283113,-0.7614639,-2.0733786,-10.204087,0.04309563
0.17757961,4.789097,-0.6953161,-1.015663,-0.7955523,-1.685518,-10.472239,0.2681506
0.17667443,4.7884727,-0.6953161,-1.015663,-0.7955523,-1.685518,-10.472239,0.2681506
0.17567147,4.7878914,-0.6878592,-1.092362,-0.82751024,-1.3599066,-10.754754,0.38307226
0.17466953,4.7873087,-0.6878592,-1.092362,-0.82751024,-1.3599066,-10.754754,0.38307226
0.17360309,4.786778,-0.6772066,-1.1562779,-0.85520715,-1.115698,-10.989386,0.5410896
0.172536,4.7862463,-0.6772066,-1.1562779,-0.85520715,-1.115698,-10.989386,0.5410896
0.17143567,4.7857656,-0.6601623,-1.2095411,-0.8765124,-0.7661445,-11.113884,0.6655881
0.1703346,4.785284,-0.6601623,-1.2095411,-0.8765124,-0.7661445,-11.113884,0.6655881
0.16921495,4.784843,-0.638857,-1.2500211,-0.89142615,-0.49320555,-11.243171,0.770933
0.1680958,4.784401,-0.638857,-1.2500211,-0.89142615,-0.49320555,-11.243171,0.770933
0.16696826,4.783992,-0.61329067,-1.2745222,-0.898883,-0.29209262,-11.348516,0.82360536
0.1658412,4.7835827,-0.61329067,-1.2745222,-0.898883,-0.29209262,-11.348516,0.82360536
0.16471587,4.7832007,-0.582398,-1.2851748,-0.8967524,-0.12928689,-11.439496,0.78529817
0.16359103,4.7828183,-0.582398,-1.2851748,-0.8967524,-0.12928689,-11.439496,0.78529817
0.16247535,4.7824683,-0.54830956,-1.2830443,-0.8882303,0.05746084,-11.391612,0.78050977
0.16135782,4.782117,-0.54830956,-1.2830443,-0.8882303,0.05746084,-11.391612,0.78050977
0.16026129,4.781801,-0.5110253,-1.2670654,-0.87331665,0.16280572,-11.36767,0.79008657
0.15916298,4.781484,-0.5110253,-1.2670654,-0.87331665,0.16280572,-11.36767,0.79008657
0.15808932,4.7811975,-0.47374105,-1.2372379,-0.8520113,0.19632454,-11.238382,0.7613561
0.15701494,4.78091,-0.47374105,-1.2372379,-0.8520113,0.19632454,-11.238382,0.7613561
0.15596928,4.780655,-0.4364568,-1.1999537,-0.826445,0.31603462,-11.137826,0.79008657
0.15492488,4.7804,-0.4364568,-1.1999537,-0.826445,0.31603462,-11.137826,0.79008657
0.15391184,4.7801723,-0.40236834,-1.1552126,-0.7976828,0.3878607,-11.003751,0.80445176
0.15289898,4.7799435,-0.40236834,-1.1552126,-0.7976828,0.3878607,-11.003751,0.80445176
0.15192106,4.779743,-0.36827987,-1.10408,-0.76679015,0.4213795,-10.907983,0.8331822
0.15094349,4.7795415,-0.36827987,-1.10408,-0.76679015,0.4213795,-10.907983,0.8331822
0.15000205,4.779366,-0.3341914,-1.0476209,-0.7348322,0.5410896,-10.730812,0.842759
0.14906086,4.77919,-0.3341914,-1.0476209,-0.7348322,0.5410896,-10.730812,0.842759
0.14811918,4.779028,-0.30223346,-0.9869008,-0.7028743,0.6847417,-10.5680065,0.79966336
0.14724737,4.778877,-0.30223346,-0.9869008,-0.7028743,0.6847417,-10.5680065,0.79966336
0.14637955,4.778743,-0.27240607,-0.9240502,-0.6730469,0.81402856,-10.395624,0.8379706
0.14550841,4.7786083,-0.27240607,-0.9240502,-0.6730469,0.81402856,-10.395624,0.8379706
0.14466947,4.7784853,-0.24683972,-0.85693854,-0.64535004,0.8714894,-10.189722,0.7565677
0.14383148,4.7783613,-0.24683972,-0.85693854,-0.64535004,0.8714894,-10.189722,0.7565677
0.14302471,4.778249,-0.22446916,-0.7898269,-0.61765313,0.91458505,-9.950302,0.7230489
0.14221798,4.7781353,-0.22446916,-0.7898269,-0.61765313,0.91458505,-9.950302,0.7230489
0.14143848,4.7780313,-0.2052944,-0.7184542,-0.5952826,1.0199299,-9.725247,0.7134721
0.14065905,4.7779264,-0.2052944,-0.7184542,-0.5952826,1.0199299,-9.725247,0.7134721
0.13990597,4.7778263,-0.19038069,-0.6438857,-0.5739773,1.0486604,-9.572019,0.7038953
0.13915226,4.7777247,-0.19038069,-0.6438857,-0.5739773,1.0486604,-9.572019,0.7038953
0.13842192,4.777615,-0.18079332,-0.56931716,-0.5558678,1.0247183,-9.428367,0.5602432
0.13769092,4.777505,-0.18079332,-0.56931716,-0.5558678,1.0247183,-9.428367,0.5602432
0.13697739,4.7773886,-0.1722712,-0.4936834,-0.5430846,0.9768343,-9.279925,0.48841715
0.13626392,4.7772717,-0.1722712,-0.4936834,-0.5430846,0.9768343,-9.279925,0.48841715
0.13556825,4.7771444,-0.16694488,-0.4191149,-0.53030145,0.8571242,-9.174581,0.39743748
0.13487263,4.777016,-0.16694488,-0.4191149,-0.53030145,0.8571242,-9.174581,0.39743748
0.13419288,4.776875,-0.16481435,-0.3466769,-0.51964885,0.81402856,-9.074024,0.31603462
0.13351324,4.7767334,-0.16481435,-0.3466769,-0.51964885,0.81402856,-9.074024,0.31603462
0.13284928,4.776577,-0.16268381,-0.27956524,-0.51006144,0.641646,-9.011775,0.22505496
0.13218543,4.7764206,-0.16268381,-0.27956524,-0.51006144,0.641646,-9.011775,0.22505496
0.13153794,4.776248,-0.16055329,-0.21884516,-0.5004741,0.545878,-8.939949,0.10534488
0.13089173,4.776076,-0.16055329,-0.21884516,-0.5004741,0.545878,-8.939949,0.10534488
0.13025993,4.7758894,-0.15948802,-0.16558194,-0.49301723,0.4213795,-8.920795,0.02873042
0.12962887,4.7757034,-0.15948802,-0.16558194,-0.49301723,0.4213795,-8.920795,0.02873042
0.12901385,4.7755003,-0.15948802,-0.12084083,-0.48662564,0.31124622,-8.911219,-0.090979666
0.12839882,4.775297,-0.15948802,-0.12084083,-0.48662564,0.31124622,-8.911219,-0.090979666
0.12780274,4.7750773,-0.16161856,-0.08249131,-0.47916877,0.20590134,-8.949526,-0.20590134
0.12720674,4.7748575,-0.16161856,-0.08249131,-0.47916877,0.20590134,-8.949526,-0.20590134
0.12662026,4.7746296,-0.16587962,-0.051598642,-0.4727772,0.20590134,-9.035717,-0.21547815
0.1260326,4.7744007,-0.16587962,-0.051598642,-0.4727772,0.20590134,-9.035717,-0.21547815
0.12545653,4.7741623,-0.16907541,-0.029228088,-0.46745086,0.21068975,-9.126697,-0.29688102
0.124881074,4.7739244,-0.16907541,-0.029228088,-0.46745086,0.21068975,-9.126697,-0.29688102
0.12431279,4.773678,-0.17333646,-0.014314385,-0.46212456,0.18195933,-9.203311,-0.31603462
0.12374512,4.773432,-0.17333646,-0.014314385,-0.46212456,0.18195933,-9.203311,-0.31603462
0.12318267,4.77318,-0.17653225,-0.0025964756,-0.45999402,0.15322891,-9.3182335,-0.33039984
0.12261919,4.7729278,-0.17653225,-0.0025964756,-0.45999402,0.15322891,-9.3182335,-0.33039984
0.12205793,4.7726746,-0.17866279,0.0069909045,-0.45679823,0.20111294,-9.442732,-0.32561144
0.1214967,4.772421,-0.17866279,0.0069909045,-0.45679823,0.20111294,-9.442732,-0.32561144
0.12094972,4.7721577,-0.18079332,0.012317227,-0.4514719,0.1340753,-9.500193,-0.4405331
0.120402925,4.7718954,-0.18079332,0.012317227,-0.4514719,0.1340753,-9.500193,-0.4405331
0.11986788,4.771631,-0.17972806,0.014447756,-0.44401506,0.095768064,-9.586384,-0.49320555
0.11931905,4.771359,-0.17972806,0.014447756,-0.44401506,0.095768064,-9.586384,-0.49320555
0.11931905,4.771359,-0.17972806,0.014447756,-0.44401506,0.095768064,-9.586384,-0.49320555
0.118256316,4.7708387,-0.175467,0.013382491,-0.4365582,0.08140286,-9.572019,-0.45010993
0.11774229,4.770588,-0.1722712,0.011251962,-0.4280361,0.06703765,-9.605537,-0.41180268
0.11722991,4.770338,-0.1722712,0.011251962,-0.4280361,0.06703765,-9.605537,-0.41180268
0.11670775,4.7700944,-0.16694488,0.0069909045,-0.41844872,0.110133275,-9.634268,-0.29688102
0.11618922,4.7698526,-0.16694488,0.0069909045,-0.41844872,0.110133275,-9.634268,-0.29688102
0.11568067,4.7696166,-0.15842277,0.0027298466,-0.4067308,0.10055647,-9.624691,-0.32561144
0.11517368,4.7693815,-0.15842277,0.0027298466,-0.4067308,0.10055647,-9.624691,-0.32561144
0.11468063,4.7691555,-0.14883539,-0.0015312112,-0.39607814,0.08140286,-9.615114,-0.34476504
0.1141842,4.7689285,-0.14883539,-0.0015312112,-0.39607814,0.08140286,-9.615114,-0.34476504
0.11369164,4.768719,-0.139248,-0.0068575335,-0.3854255,0.18195933,-9.552865,-0.25857377
0.11319808,4.7685094,-0.139248,-0.0068575335,-0.3854255,0.18195933,-9.552865,-0.25857377
0.112729944,4.7683024,-0.12966062,-0.007922798,-0.3737076,0.047884032,-9.41879,-0.34955344
0.11225863,4.7680936,-0.12966062,-0.007922798,-0.3737076,0.047884032,-9.41879,-0.34955344
0.11179315,4.7679,-0.121138506,-0.011118591,-0.36412022,0.033518825,-9.514558,-0.23463176
0.111324914,4.767705,-0.121138506,-0.011118591,-0.36412022,0.033518825,-9.514558,-0.23463176
0.11086105,4.767526,-0.11368166,-0.014314385,-0.3524023,0.1436521,-9.423578,-0.16280572
0.1103963,4.767347,-0.11368166,-0.014314385,-0.3524023,0.1436521,-9.423578,-0.16280572
0.109944336,4.7671747,-0.107290074,-0.01324912,-0.34068438,0.18674773,-9.437943,-0.18195933
0.10949012,4.767002,-0.107290074,-0.01324912,-0.34068438,0.18674773,-9.437943,-0.18195933
0.10905021,4.766841,-0.09983322,-0.0047270046,-0.3257707,0.110133275,-9.476251,-0.076614454
0.10860765,4.7666783,-0.09983322,-0.0047270046,-0.3257707,0.110133275,-9.476251,-0.076614454
0.108181976,4.766523,-0.09557216,0.008056169,-0.3097917,0.05267244,-9.552865,-0.009576807
0.10775849,4.766368,-0.09557216,0.008056169,-0.3097917,0.05267244,-9.552865,-0.009576807
0.1073477,4.766218,-0.089180574,0.021904606,-0.29381275,0.0047884034,-9.509769,0.023942016
0.1069316,4.766066,-0.089180574,0.021904606,-0.29381275,0.0047884034,-9.509769,0.023942016
0.106538236,4.7659197,-0.08172372,0.03681831,-0.27996433,-0.090979666,-9.457097,0.04309563
0.10614525,4.765774,-0.08172372,0.03681831,-0.27996433,-0.090979666,-9.457097,0.04309563
0.10575986,4.7656403,-0.077462666,0.052797277,-0.26611587,-0.15322891,-9.404425,0.16759412
0.10537055,4.7655053,-0.077462666,0.052797277,-0.26611587,-0.15322891,-9.404425,0.16759412
0.104998216,4.7653785,-0.07213634,0.07090677,-0.2501369,-0.20590134,-9.394848,0.21547815
0.10462595,4.765251,-0.07213634,0.07090677,-0.2501369,-0.20590134,-9.394848,0.21547815
0.10428394,4.7651157,-0.06787529,0.089016266,-0.23096216,-0.2777274,-9.404425,0.15322891
0.103939936,4.7649794,-0.06787529,0.089016266,-0.23096216,-0.2777274,-9.404425,0.15322891
0.1036159,4.7648497,-0.06467949,0.10925629,-0.21072213,-0.33039984,-9.423578,0.21068975
0.10328931,4.764719,-0.06467949,0.10925629,-0.21072213,-0.33039984,-9.423578,0.21068975
0.102982335,4.764594,-0.0614837,0.12843105,-0.19154738,-0.35913026,-9.32781,0.24899697
0.102672905,4.7644687,-0.0614837,0.12843105,-0.19154738,-0.35913026,-9.32781,0.24899697
0.102393396,4.7643366,-0.058287904,0.1508016,-0.17130736,-0.3878607,-9.337387,0.20590134
0.10211335,4.7642045,-0.058287904,0.1508016,-0.17130736,-0.3878607,-9.337387,0.20590134
0.10184698,4.7640834,-0.056157377,0.17210689,-0.15106732,-0.37828386,-9.255983,0.2681506
0.10157929,4.763962,-0.056157377,0.17210689,-0.15106732,-0.37828386,-9.255983,0.2681506
0.10132881,4.763845,-0.05509211,0.19447745,-0.13295783,-0.39743748,-9.26556,0.30166942
0.10107656,4.763727,-0.05509211,0.19447745,-0.13295783,-0.39743748,-9.26556,0.30166942
0.10084523,4.76361,-0.052961584,0.21578273,-0.11484833,-0.45968673,-9.26556,0.320823
0.100612715,4.7634926,-0.052961584,0.21578273,-0.11484833,-0.45968673,-9.26556,0.320823
0.1003944,4.763385,-0.05189632,0.2349575,-0.0978041,-0.49799395,-9.270349,0.36870706
0.10017469,4.763276,-0.05189632,0.2349575,-0.0978041,-0.49799395,-9.270349,0.36870706
0.09997053,4.763167,-0.050831053,0.253067,-0.08395566,-0.50757074,-9.270349,0.36870706
0.099766105,4.7630577,-0.050831053,0.253067,-0.08395566,-0.50757074,-9.270349,0.36870706
0.09957393,4.762956,-0.050831053,0.2711765,-0.07010722,-0.56982,-9.208099,0.40701428
0.09938042,4.7628546,-0.050831053,0.2711765,-0.07010722,-0.56982,-9.208099,0.40701428
0.09919928,4.7627554,-0.05189632,0.28715545,-0.058389317,-0.6560113,-9.255983,0.4309563
0.09901697,4.7626553,-0.05189632,0.28715545,-0.058389317,-0.6560113,-9.255983,0.4309563
0.098846585,4.7625613,-0.052961584,0.29887336,-0.046671405,-0.7326257,-9.251195,0.45010993
0.098675095,4.7624674,-0.052961584,0.29887336,-0.046671405,-0.7326257,-9.251195,0.45010993
0.09854418,4.762442,-0.05402685,0.309526,-0.034953497,-0.79966336,-9.260772,0.5267244
0.098406926,4.762416,-0.05402685,0.309526,-0.034953497,-0.79966336,-9.260772,0.5267244
0.09828991,4.762258,-0.056157377,0.31698287,-0.026431382,-0.8714894,-9.255983,0.4357447
0.09828991,4.762258,-0.056157377,0.31698287,-0.026431382,-0.8714894,-9.255983,0.4357447
0.09807734,4.761979,-0.057222642,0.31804812,-0.018974531,-0.91937345,-9.303867,0.5363012
0.09807739,4.761989,-0.057222642,0.31804812,-0.018974531,-0.91937345,-9.303867,0.5363012
0.09817689,4.7619724,-0.057222642,0.3159176,-0.013648209,-1.0055647,-9.308656,0.5267244
0.09828396,4.7619543,-0.057222642,0.3159176,-0.013648209,-1.0055647,-9.308656,0.5267244
0.09837883,4.7619386,-0.056157377,0.31165653,-0.008321887,-1.0534488,-9.346964,0.5506664
0.0984913,4.761919,-0.056157377,0.31165653,-0.008321887,-1.0534488,-9.346964,0.5506664
0.0986123,4.7618885,-0.05509211,0.30526495,-0.0051260935,-1.1252748,-9.399636,0.5506664
0.09874079,4.7618556,-0.05509211,0.30526495,-0.0051260935,-1.1252748,-9.399636,0.5506664
0.09885636,4.7618427,-0.05189632,0.29461232,0.00020022877,-1.1827357,-9.485827,0.63206923
0.09897105,4.7618303,-0.05189632,0.29461232,0.00020022877,-1.1827357,-9.485827,0.63206923
0.09912141,4.761787,-0.048700526,0.28076386,0.0044612866,-1.2497733,-9.504981,0.545878
0.09927252,4.7617435,-0.048700526,0.28076386,0.0044612866,-1.2497733,-9.504981,0.545878
0.0994087,4.7617297,-0.043374203,0.2647849,0.00765708,-1.292869,-9.562442,0.6368576
0.099542834,4.7617164,-0.043374203,0.2647849,0.00765708,-1.292869,-9.562442,0.6368576
0.09968265,4.76171,-0.03804788,0.24774067,0.012983402,-1.292869,-9.619903,0.6368576
0.09982178,4.7617044,-0.03804788,0.24774067,0.012983402,-1.292869,-9.619903,0.6368576
0.09995112,4.7617154,-0.033786822,0.23069644,0.01724446,-1.2976574,-9.701305,0.6943185
0.100081086,4.7617264,-0.033786822,0.23069644,0.01724446,-1.2976574,-9.701305,0.6943185
0.10021238,4.7617493,-0.027395237,0.21152169,0.023636047,-1.2401965,-9.682152,0.6703765
0.100343294,4.7617717,-0.027395237,0.21152169,0.023636047,-1.2401965,-9.682152,0.6703765
0.10047865,4.761801,-0.021003649,0.19234692,0.02683184,-1.1827357,-9.68694,0.62249243
0.10061376,4.761831,-0.021003649,0.19234692,0.02683184,-1.1827357,-9.68694,0.62249243
0.10070167,4.7618904,-0.015677327,0.17210689,0.02896237,-1.0965444,-9.691729,0.6895301
0.10078935,4.76195,-0.015677327,0.17210689,0.02896237,-1.0965444,-9.691729,0.6895301
0.10086252,4.762019,-0.0114162695,0.15186687,0.02896237,-1.0630256,-9.667787,0.6943185
0.10093553,4.762088,-0.0114162695,0.15186687,0.02896237,-1.0630256,-9.667787,0.6943185
0.10100967,4.7621636,-0.006089947,0.13269211,0.027897105,-1.0582372,-9.706094,0.6560113
0.101083755,4.7622395,-0.006089947,0.13269211,0.027897105,-1.0582372,-9.706094,0.6560113
0.10112833,4.7623224,-0.0039594183,0.11458261,0.023636047,-1.0247183,-9.763555,0.6895301
0.101173125,4.7624054,-0.0039594183,0.11458261,0.023636047,-1.0247183,-9.763555,0.6895301
0.101171024,4.762491,-0.0018288894,0.09753838,0.018309724,-0.94331545,-9.720459,0.6607997
0.10116881,4.762577,-0.0018288894,0.09753838,0.018309724,-0.94331545,-9.720459,0.6607997
0.10114212,4.7626634,0.00030163955,0.08049415,0.011918138,-0.89064306,-9.739613,0.7086837
0.10111533,4.76275,0.00030163955,0.08049415,0.011918138,-0.89064306,-9.739613,0.7086837
0.10105836,4.762831,0.001366904,0.06664571,0.0065918155,-0.79966336,-9.749189,0.7374141
0.10100139,4.762912,0.001366904,0.06664571,0.0065918155,-0.79966336,-9.749189,0.7374141
0.10093655,4.7629952,0.0024321685,0.052797277,-0.0008650357,-0.7469909,-9.768343,0.80924016
0.10087159,4.7630787,0.0024321685,0.052797277,-0.0008650357,-0.7469909,-9.768343,0.80924016
0.100761436,4.7631416,0.0024321685,0.038948838,-0.0072566224,-0.6464345,-9.753978,0.7038953
0.10064825,4.7632065,0.0024321685,0.038948838,-0.0072566224,-0.6464345,-9.753978,0.7038953
0.10051913,4.76326,0.0024321685,0.02723093,-0.013648209,-0.545878,-9.811439,0.7038953
0.10038964,4.763314,0.0024321685,0.02723093,-0.013648209,-0.545878,-9.811439,0.7038953
0.10024609,4.7633543,0.0024321685,0.014447756,-0.02110506,-0.4405331,-9.878476,0.6799533
0.10010213,4.763395,0.0024321685,0.014447756,-0.02110506,-0.4405331,-9.878476,0.6799533
0.09994276,4.763423,0.001366904,0.0048603755,-0.026431382,-0.36391866,-9.921572,0.6368576
0.09978445,4.763451,0.001366904,0.0048603755,-0.026431382,-0.36391866,-9.921572,0.6368576
0.099614784,4.763466,0.001366904,-0.0025964756,-0.031757705,-0.25378537,-9.888053,0.5746084
0.09944297,4.7634807,0.001366904,-0.0025964756,-0.031757705,-0.25378537,-9.888053,0.5746084
0.09926715,4.7634997,0.003497433,-0.0068575335,-0.03814929,-0.17717093,-9.935937,0.59855044
0.099091694,4.7635193,0.003497433,-0.0068575335,-0.03814929,-0.17717093,-9.935937,0.59855044
0.09890958,4.763539,0.005627962,-0.008988062,-0.04454088,-0.110133275,-9.993398,0.59855044
0.09872624,4.763559,0.005627962,-0.008988062,-0.04454088,-0.110133275,-9.993398,0.59855044
0.09853938,4.7635765,0.0077584907,-0.008988062,-0.04773667,-0.019153614,-9.964667,0.5746084
0.0983525,4.763594,0.0077584907,-0.008988062,-0.04773667,-0.019153614,-9.964667,0.5746084
0.09816289,4.7636027,0.00988902,-0.0068575335,-0.0498672,0.04309563,-9.998186,0.49799395
0.09797204,4.763611,0.00988902,-0.0068575335,-0.0498672,0.04309563,-9.998186,0.49799395
0.09778078,4.763627,0.010954284,-0.0015312112,-0.05199773,0.12449849,-9.9790325,0.5554548
0.09758953,4.7636437,0.010954284,-0.0015312112,-0.05199773,0.12449849,-9.9790325,0.5554548
0.09739802,4.763657,0.010954284,0.0069909045,-0.053062994,0.23463176,-9.959879,0.5410896
0.09720386,4.763671,0.010954284,0.0069909045,-0.053062994,0.23463176,-9.959879,0.5410896
0.09701414,4.7636795,0.0141500775,0.018708814,-0.05199773,0.23942018,-9.92636,0.47884035
0.09682293,4.7636876,0.0141500775,0.018708814,-0.05199773,0.23942018,-9.92636,0.47884035
0.09663509,4.763701,0.017345872,0.032557253,-0.0498672,0.31124622,-9.916783,0.50278234
0.09644426,4.7637143,0.017345872,0.032557253,-0.0498672,0.31124622,-9.916783,0.50278234
0.09626202,4.7637234,0.018411135,0.049601484,-0.04773667,0.37828386,-9.854534,0.46447513
0.096077256,4.763732,0.018411135,0.049601484,-0.04773667,0.37828386,-9.854534,0.46447513
0.095896244,4.7637444,0.020541664,0.06877624,-0.045606144,0.45010993,-9.801862,0.48362875
0.09571394,4.763756,0.020541664,0.06877624,-0.045606144,0.45010993,-9.801862,0.48362875
0.095536634,4.7637672,0.02160693,0.089016266,-0.04241035,0.47884035,-9.730036,0.48841715
0.095358975,4.763779,0.02160693,0.089016266,-0.04241035,0.47884035,-9.730036,0.48841715
0.09518616,4.7637973,0.022672193,0.11351735,-0.04027982,0.50278234,-9.763555,0.56982
0.09501245,4.7638154,0.022672193,0.11351735,-0.04027982,0.50278234,-9.763555,0.56982
0.094841145,4.763831,0.02160693,0.1390837,-0.04027982,0.49320555,-9.720459,0.5746084
0.09466887,4.7638464,0.02160693,0.1390837,-0.04027982,0.49320555,-9.720459,0.5746084
0.094495796,4.7638597,0.020541664,0.16678058,-0.043475613,0.50757074,-9.706094,0.58897364
0.09432249,4.763873,0.020541664,0.16678058,-0.043475613,0.50757074,-9.706094,0.58897364
0.09415063,4.7638845,0.018411135,0.19554271,-0.04454088,0.4405331,-9.715671,0.61770403
0.0939781,4.7638965,0.018411135,0.19554271,-0.04454088,0.4405331,-9.715671,0.61770403
0.0938067,4.7639046,0.018411135,0.22643538,-0.045606144,0.3878607,-9.734824,0.60812724
0.093634255,4.7639127,0.018411135,0.22643538,-0.045606144,0.3878607,-9.734824,0.60812724
0.09346185,4.763923,0.015215342,0.25626278,-0.0498672,0.24899697,-9.682152,0.6655881
0.09328942,4.763934,0.015215342,0.25626278,-0.0498672,0.24899697,-9.682152,0.6655881
0.09311629,4.7639403,0.00988902,0.2860902,-0.05412826,0.1340753,-9.696517,0.6847417
0.09294216,4.7639475,0.00988902,0.2860902,-0.05412826,0.1340753,-9.696517,0.6847417
0.09276624,4.7639503,0.005627962,0.31698287,-0.059454583,-0.047884032,-9.677363,0.6703765
0.09258937,4.763953,0.005627962,0.31698287,-0.059454583,-0.047884032,-9.677363,0.6703765
0.092414655,4.7639575,0.00030163955,0.34467974,-0.06371564,-0.19153613,-9.653421,0.6943185
0.09223997,4.763962,0.00030163955,0.34467974,-0.06371564,-0.19153613,-9.653421,0.6943185
0.09208064,4.763979,-0.0071552116,0.3670503,-0.0679767,-0.4165911,-9.615114,0.7469909
0.091920495,4.7639966,-0.0071552116,0.3670503,-0.0679767,-0.4165911,-9.615114,0.7469909
0.091780104,4.764022,-0.014612063,0.38622504,-0.07223775,-0.5554548,-9.591172,0.7757214
0.091639034,4.764047,-0.014612063,0.38622504,-0.07223775,-0.5554548,-9.591172,0.7757214
0.09151314,4.764073,-0.021003649,0.40113875,-0.07436828,-0.6943185,-9.586384,0.7134721
0.09138851,4.764099,-0.021003649,0.40113875,-0.07436828,-0.6943185,-9.586384,0.7134721
0.09131484,4.7641306,-0.0284605,0.41285667,-0.078629345,-0.8523358,-9.619903,0.6799533
0.09124023,4.7641625,-0.0284605,0.41285667,-0.078629345,-0.8523358,-9.619903,0.6799533
0.091251515,4.7641745,-0.035917353,0.41924825,-0.07969461,-0.94331545,-9.624691,0.5746084
0.09126279,4.7641864,-0.035917353,0.41924825,-0.07969461,-0.94331545,-9.624691,0.5746084
0.09128474,4.764184,-0.043374203,0.4203135,-0.08182514,-1.0390835,-9.619903,0.6512229
0.091306746,4.764182,-0.043374203,0.4203135,-0.08182514,-1.0390835,-9.619903,0.6512229
0.09134423,4.764165,-0.049765788,0.4171177,-0.08182514,-1.1300632,-9.682152,0.6751649
0.091381855,4.764147,-0.049765788,0.4171177,-0.08182514,-1.1300632,-9.682152,0.6751649
0.091427565,4.7641177,-0.056157377,0.40966088,-0.08075987,-1.1971009,-9.667787,0.6895301
0.09147323,4.7640886,-0.056157377,0.40966088,-0.08075987,-1.1971009,-9.667787,0.6895301
0.09152316,4.764051,-0.060418434,0.39794296,-0.08182514,-1.2354081,-9.696517,0.6847417
0.09157352,4.764013,-0.060418434,0.39794296,-0.08182514,-1.2354081,-9.696517,0.6847417
0.09161043,4.7639832,-0.06361423,0.38302925,-0.08182514,-1.2689269,-9.682152,0.7613561
0.0916476,4.763953,-0.06361423,0.38302925,-0.08182514,-1.2689269,-9.682152,0.7613561
0.09169665,4.763911,-0.06681002,0.36811554,-0.08182514,-1.340753,-9.696517,0.7326257
0.091745816,4.7638683,-0.06681002,0.36811554,-0.08182514,-1.340753,-9.696517,0.7326257
0.091806315,4.7638125,-0.06894055,0.3489408,-0.08075987,-1.4030021,-9.634268,0.6847417
0.09186703,4.7637568,-0.06894055,0.3489408,-0.08075987,-1.4030021,-9.634268,0.6847417
0.091932945,4.7636943,-0.07107108,0.32870078,-0.078629345,-1.412579,-9.634268,0.6560113
0.09199875,4.7636323,-0.07107108,0.32870078,-0.078629345,-1.412579,-9.634268,0.6560113
0.09206294,4.763579,-0.07213634,0.30846074,-0.07330302,-1.4077905,-9.610326,0.6943185
0.09212742,4.7635255,-0.07213634,0.30846074,-0.07330302,-1.4077905,-9.610326,0.6943185
0.09219995,4.763468,-0.07320161,0.28715545,-0.0679767,-1.3742718,-9.595961,0.6512229
0.092272855,4.7634096,-0.07320161,0.28715545,-0.0679767,-1.3742718,-9.595961,0.6512229
0.092353866,4.7633486,-0.07426687,0.26691544,-0.06158511,-1.3311762,-9.572019,0.62249243
0.09243388,4.7632885,-0.07426687,0.26691544,-0.06158511,-1.3311762,-9.572019,0.62249243
0.09249889,4.763249,-0.076397404,0.2466754,-0.058389317,-1.2593501,-9.562442,0.6847417
0.092564285,4.763209,-0.076397404,0.2466754,-0.058389317,-1.2593501,-9.562442,0.6847417
0.09261924,4.763177,-0.0795932,0.22537012,-0.056258786,-1.2210429,-9.548077,0.7134721
0.09267396,4.763145,-0.0795932,0.22537012,-0.056258786,-1.2210429,-9.548077,0.7134721
0.09269581,4.763128,-0.08385425,0.2051301,-0.05732405,-1.1061212,-9.572019,0.7517793
0.09271756,4.76311,-0.08385425,0.2051301,-0.05732405,-1.1061212,-9.572019,0.7517793
0.09272503,4.763092,-0.09024584,0.18808587,-0.060519844,-1.0821792,-9.562442,0.7757214
0.09273239,4.7630734,-0.09024584,0.18808587,-0.060519844,-1.0821792,-9.562442,0.7757214
0.09270554,4.763057,-0.09663743,0.16997637,-0.064780906,-1.0007763,-9.576807,0.8379706
0.092678696,4.763041,-0.09663743,0.16997637,-0.064780906,-1.0007763,-9.576807,0.8379706
0.09262926,4.7630196,-0.10515954,0.1539974,-0.07223775,-0.9528923,-9.653421,0.8331822
0.09257995,4.7629976,-0.10515954,0.1539974,-0.07223775,-0.9528923,-9.653421,0.8331822
0.09248957,4.7629685,-0.11368166,0.14121422,-0.0828904,-0.8571242,-9.758766,0.8331822
0.092400126,4.76294,-0.11368166,0.14121422,-0.0828904,-0.8571242,-9.758766,0.8331822
0.092306,4.762903,-0.122203775,0.12949632,-0.095673576,-0.89064306,-9.797073,0.8810662
0.09221118,4.762867,-0.122203775,0.12949632,-0.095673576,-0.89064306,-9.797073,0.8810662
0.09209658,4.762823,-0.13072589,0.118843675,-0.10952201,-0.8619126,-9.873688,0.9720459
0.09198275,4.7627788,-0.13072589,0.118843675,-0.10952201,-0.8619126,-9.873688,0.9720459
0.09186164,4.762728,-0.13818274,0.10819103,-0.124435715,-0.90500826,-9.892841,1.0247183
0.09173948,4.762677,-0.13818274,0.10819103,-0.124435715,-0.90500826,-9.892841,1.0247183
0.091605715,4.7626204,-0.14457433,0.09860365,-0.13934942,-0.93373865,-9.988609,0.94331545
0.09147422,4.7625647,-0.14457433,0.09860365,-0.13934942,-0.93373865,-9.988609,0.94331545
0.091340765,4.762505,-0.14990065,0.087951005,-0.15000206,-0.9672575,-9.9790325,0.9624691
0.09120775,4.7624454,-0.14990065,0.087951005,-0.15000206,-0.9672575,-9.9790325,0.9624691
0.09107554,4.76238,-0.1541617,0.07836362,-0.16065471,-1.0342951,-10.093954,0.93373865
0.090942875,4.762315,-0.1541617,0.07836362,-0.16065471,-1.0342951,-10.093954,0.93373865
0.09079537,4.7622485,-0.1573575,0.069841504,-0.16811156,-0.9959879,-10.103531,0.93852705
0.09064504,4.7621813,-0.1573575,0.069841504,-0.16811156,-0.9959879,-10.103531,0.93852705
0.090485774,4.762114,-0.1573575,0.061319392,-0.17237261,-0.9768343,-10.141838,0.91937345
0.090485774,4.762114,-0.1573575,0.061319392,-0.17237261,-0.9768343,-10.141838,0.91937345
0.0901385,4.7619715,-0.1573575,0.053862542,-0.1755684,-0.9864111,-10.132261,0.92895025
0.09000937,4.761918,-0.1573575,0.053862542,-0.1755684,-0.9864111,-10.132261,0.92895025
0.089843206,4.761857,-0.1573575,0.046405688,-0.1755684,-0.91937345,-10.16578,0.842759
0.08966264,4.7617903,-0.1573575,0.046405688,-0.1755684,-0.91937345,-10.16578,0.842759
0.089480326,4.7617292,-0.15522698,0.037883572,-0.17450315,-0.8714894,-10.170568,0.90979666
0.08929113,4.7616663,-0.15522698,0.037883572,-0.17450315,-0.8714894,-10.170568,0.90979666
0.08910018,4.761612,-0.15096591,0.028296193,-0.17450315,-0.7661445,-10.204087,0.91937345
0.08889481,4.761554,-0.15096591,0.028296193,-0.17450315,-0.7661445,-10.204087,0.91937345
0.08865591,4.7614923,-0.14670485,0.018708814,-0.1787642,-0.6512229,-10.16578,0.866701
0.08841757,4.7614317,-0.14670485,0.018708814,-0.1787642,-0.6512229,-10.16578,0.866701
0.08816148,4.761369,-0.14244379,0.010186698,-0.18089473,-0.49320555,-10.160992,0.93852705
0.08790684,4.7613072,-0.14244379,0.010186698,-0.18089473,-0.49320555,-10.160992,0.93852705
0.08763722,4.7612467,-0.13711748,0.003795111,-0.18515578,-0.4165911,-10.0987425,0.93373865
0.0873691,4.761186,-0.13711748,0.003795111,-0.18515578,-0.4165911,-10.0987425,0.93373865
0.08708212,4.7611227,-0.13285641,-0.0015312112,-0.19048211,-0.31603462,-10.0748005,0.90500826
0.086796656,4.7610598,-0.13285641,-0.0015312112,-0.19048211,-0.31603462,-10.0748005,0.90500826
0.0864966,4.760994,-0.1275301,-0.0047270046,-0.1936779,-0.23463176,-10.041282,0.8571242
0.086196296,4.7609277,-0.1275301,-0.0047270046,-0.1936779,-0.23463176,-10.041282,0.8571242
0.085885145,4.7608595,-0.122203775,-0.0025964756,-0.1968737,-0.1388637,-9.993398,0.8283938
0.08557393,4.7607913,-0.122203775,-0.0025964756,-0.1968737,-0.1388637,-9.993398,0.8283938
0.08524521,4.7607183,-0.11900798,0.0016645822,-0.20220003,-0.05746084,-9.964667,0.80445176
0.08493024,4.7606483,-0.11900798,0.0016645822,-0.20220003,-0.05746084,-9.964667,0.80445176
0.08460299,4.760578,-0.11474692,0.008056169,-0.20646107,0.0047884034,-9.92636,0.79966336
0.08427595,4.760508,-0.11474692,0.008056169,-0.20646107,0.0047884034,-9.92636,0.79966336
0.08394746,4.7604446,-0.11155113,0.018708814,-0.2117874,0.02873042,-9.859323,0.842759
0.08361952,4.760381,-0.11155113,0.018708814,-0.2117874,0.02873042,-9.859323,0.842759
0.08328221,4.760314,-0.1094206,0.031491987,-0.21711372,0.05267244,-9.849746,0.79966336
0.08294502,4.7602468,-0.1094206,0.031491987,-0.21711372,0.05267244,-9.849746,0.79966336
0.08260024,4.7601786,-0.108355336,0.045340426,-0.22457057,0.033518825,-9.77792,0.78050977
0.082255654,4.7601113,-0.108355336,0.045340426,-0.22457057,0.033518825,-9.77792,0.78050977
0.08190753,4.7600455,-0.108355336,0.060254127,-0.23202743,0.05267244,-9.782708,0.81402856
0.08155919,4.7599797,-0.108355336,0.060254127,-0.23202743,0.05267244,-9.782708,0.81402856
0.08120184,4.7599096,-0.1094206,0.0762331,-0.23948428,0.06703765,-9.720459,0.79008657
0.080845356,4.759839,-0.1094206,0.0762331,-0.23948428,0.06703765,-9.720459,0.79008657
0.08048605,4.7597713,-0.11155113,0.09221206,-0.24694112,0.038307227,-9.734824,0.8283938
0.08012794,4.7597036,-0.11155113,0.09221206,-0.24694112,0.038307227,-9.734824,0.8283938
0.07975496,4.7596264,-0.11474692,0.10819103,-0.25759378,0.076614454,-9.753978,0.79966336
0.079382464,4.75955,-0.11474692,0.10819103,-0.25759378,0.076614454,-9.753978,0.79966336
0.07900619,4.759477,-0.11794271,0.12310473,-0.26931167,-0.009576807,-9.763555,0.8379706
0.07863054,4.759404,-0.11794271,0.12310473,-0.26931167,-0.009576807,-9.763555,0.8379706
0.07824458,4.7593293,-0.121138506,0.13801843,-0.28209487,-0.01436521,-9.792285,0.8571242
0.077859,4.7592545,-0.121138506,0.13801843,-0.28209487,-0.01436521,-9.792285,0.8571242
0.077462085,4.7591753,-0.12646483,0.15293214,-0.2959433,-0.0047884034,-9.821015,0.8810662
0.07706549,4.759096,-0.12646483,0.15293214,-0.2959433,-0.0047884034,-9.821015,0.8810662
0.07666536,4.7590194,-0.13072589,0.16784583,-0.3097917,-0.062249243,-9.873688,0.94331545
0.07626554,4.758943,-0.13072589,0.16784583,-0.3097917,-0.062249243,-9.873688,0.94331545
0.0758629,4.758868,-0.13179116,0.18169427,-0.31937912,-0.12449849,-9.945514,0.9624691
0.07546059,4.7587943,-0.13179116,0.18169427,-0.31937912,-0.12449849,-9.945514,0.9624691
0.07506836,4.75873,-0.13179116,0.19234692,-0.33003175,-0.24899697,-9.950302,1.0534488
0.07467736,4.7586665,-0.13179116,0.19234692,-0.33003175,-0.24899697,-9.950302,1.0534488
0.074273646,4.758601,-0.13072589,0.20406483,-0.3374886,-0.30645782,-9.969456,0.93373865
0.07387043,4.758536,-0.13072589,0.20406483,-0.3374886,-0.30645782,-9.969456,0.93373865
0.073482096,4.758479,-0.12859535,0.21471748,-0.34068438,-0.44532153,-9.988609,0.91458505
0.07309485,4.758423,-0.12859535,0.21471748,-0.34068438,-0.44532153,-9.988609,0.91458505
0.072715215,4.758371,-0.12646483,0.22430485,-0.34174967,-0.50278234,-9.974244,0.90021986
0.07233667,4.7583194,-0.12646483,0.22430485,-0.34174967,-0.50278234,-9.974244,0.90021986
0.071974024,4.7582755,-0.121138506,0.23282696,-0.33961913,-0.5746084,-9.974244,0.8714894
0.071611784,4.758231,-0.121138506,0.23282696,-0.33961913,-0.5746084,-9.974244,0.8714894
0.07126426,4.758196,-0.11368166,0.23921856,-0.33322755,-0.60333884,-9.993398,0.8810662
0.07091678,4.758161,-0.11368166,0.23921856,-0.33322755,-0.60333884,-9.993398,0.8810662
0.07058836,4.758134,-0.106224805,0.24454488,-0.32470542,-0.6512229,-9.974244,0.8523358
0.0702617,4.758107,-0.106224805,0.24454488,-0.32470542,-0.6512229,-9.974244,0.8523358
0.06994068,4.758088,-0.09876795,0.2466754,-0.31831384,-0.6464345,-9.993398,0.8571242
0.06961717,4.7580686,-0.09876795,0.2466754,-0.31831384,-0.6464345,-9.993398,0.8571242
0.06929066,4.758056,-0.09024584,0.24880594,-0.30872646,-0.58897364,-10.036493,0.80924016
0.068964325,4.758044,-0.09024584,0.24880594,-0.30872646,-0.58897364,-10.036493,0.80924016
0.06866041,4.758042,-0.08172372,0.2498712,-0.30020434,-0.6368576,-10.0029745,0.80445176
0.068357095,4.7580395,-0.08172372,0.2498712,-0.30020434,-0.6368576,-10.0029745,0.80445176
0.068058826,4.758047,-0.07320161,0.24774067,-0.29061696,-0.6464345,-10.060435,0.8619126
0.06777505,4.758054,-0.07320161,0.24774067,-0.29061696,-0.6464345,-10.060435,0.8619126
0.06747966,4.7580686,-0.06467949,0.24454488,-0.28209487,-0.5793968,-10.065224,0.8523358
0.06718559,4.758083,-0.06467949,0.24454488,-0.28209487,-0.5793968,-10.065224,0.8523358
0.06688326,4.7581053,-0.05509211,0.24028382,-0.274638,-0.5315128,-10.036493,0.80445176
0.06658111,4.7581277,-0.05509211,0.24028382,-0.274638,-0.5315128,-10.036493,0.80445176
0.06628002,4.7581563,-0.04763526,0.2381533,-0.26718116,-0.50278234,-10.022128,0.79966336
0.06597937,4.7581854,-0.04763526,0.2381533,-0.26718116,-0.50278234,-10.022128,0.79966336
0.06566005,4.758214,-0.04017841,0.2349575,-0.26185483,-0.4165911,-10.01734,0.7661445
0.0653414,4.7582436,-0.04017841,0.2349575,-0.26185483,-0.4165911,-10.01734,0.7661445
0.06501626,4.758274,-0.034852087,0.23176171,-0.25759378,-0.37349546,-10.060435,0.7565677
0.06469167,4.7583046,-0.034852087,0.23176171,-0.25759378,-0.37349546,-10.060435,0.7565677
0.06435313,4.7583327,-0.0284605,0.23069644,-0.25546324,-0.272939,-10.022128,0.7517793
0.064015396,4.7583613,-0.0284605,0.23069644,-0.25546324,-0.272939,-10.022128,0.7517793
0.063634336,4.7584014,-0.022068914,0.22856592,-0.25546324,-0.23942018,-10.070012,0.78529817
0.06333926,4.7584333,-0.022068914,0.22856592,-0.25546324,-0.23942018,-10.070012,0.78529817
0.06299576,4.758471,-0.017807856,0.22750065,-0.25865903,-0.17238252,-10.041282,0.80445176
0.062649146,4.758509,-0.017807856,0.22750065,-0.25865903,-0.17238252,-10.041282,0.80445176
0.062297557,4.758541,-0.014612063,0.22643538,-0.26185483,-0.1436521,-9.988609,0.7422025
0.061940797,4.758574,-0.014612063,0.22643538,-0.26185483,-0.1436521,-9.988609,0.7422025
0.061579477,4.7586126,-0.0114162695,0.22430485,-0.2682464,-0.08619126,-9.940725,0.79008657
0.061213724,4.7586517,-0.0114162695,0.22430485,-0.2682464,-0.08619126,-9.940725,0.79008657
0.060837865,4.7586975,-0.0071552116,0.22323959,-0.27676854,-0.07182605,-9.931149,0.80924016
0.06048087,4.7587414,-0.0071552116,0.22323959,-0.27676854,-0.07182605,-9.931149,0.80924016
0.06010018,4.7587833,-0.0050246827,0.22217433,-0.2863559,-0.062249243,-9.89763,0.7661445
0.059717905,4.7588253,-0.0050246827,0.22217433,-0.2863559,-0.062249243,-9.89763,0.7661445
0.05932363,4.758868,-0.0039594183,0.22217433,-0.2959433,-0.04309563,-9.873688,0.7613561
0.058928803,4.7589107,-0.0039594183,0.22217433,-0.2959433,-0.04309563,-9.873688,0.7613561
0.05851909,4.75895,-0.0039594183,0.2200438,-0.30872646,-0.05746084,-9.844957,0.7278373
0.058108818,4.7589903,-0.0039594183,0.2200438,-0.30872646,-0.05746084,-9.844957,0.7278373
0.057686538,4.75903,-0.0050246827,0.21897852,-0.32150963,-0.08619126,-9.80665,0.7086837
0.05726411,4.7590694,-0.0050246827,0.21897852,-0.32150963,-0.08619126,-9.80665,0.7086837
0.056828327,4.7591105,-0.006089947,0.216848,-0.33642334,-0.08619126,-9.787497,0.7182605
0.056393266,4.7591515,-0.006089947,0.216848,-0.33642334,-0.08619126,-9.787497,0.7182605
0.05593444,4.7591834,-0.006089947,0.216848,-0.35133705,-0.0047884034,-9.763555,0.6943185
0.0554758,4.7592163,-0.006089947,0.216848,-0.35133705,-0.0047884034,-9.763555,0.6943185
0.055003673,4.759246,-0.009285741,0.21578273,-0.36518547,-0.04309563,-9.710882,0.6751649
0.054544024,4.7592754,-0.009285741,0.21578273,-0.36518547,-0.04309563,-9.710882,0.6751649
0.05404196,4.7592816,-0.013546798,0.21365221,-0.38116443,-0.06703765,-9.706094,0.56982
0.053525925,4.759289,-0.013546798,0.21365221,-0.38116443,-0.06703765,-9.706094,0.56982
0.053003717,4.759283,-0.015677327,0.21258694,-0.39714342,-0.033518825,-9.662998,0.5315128
0.052483235,4.7592773,-0.015677327,0.21258694,-0.39714342,-0.033518825,-9.662998,0.5315128
0.05194963,4.7592745,-0.019938385,0.21045642,-0.41099185,-0.1340753,-9.65821,0.5363012
0.051413514,4.7592726,-0.019938385,0.21045642,-0.41099185,-0.1340753,-9.65821,0.5363012
0.050860252,4.759228,-0.025264706,0.20726062,-0.42377502,-0.15801731,-9.586384,0.4309563
0.05030529,4.7591834,-0.025264706,0.20726062,-0.42377502,-0.15801731,-9.586384,0.4309563
0.049744725,4.759124,-0.032721557,0.2051301,-0.4333624,-0.30166942,-9.543288,0.4261679
0.049184266,4.759064,-0.032721557,0.2051301,-0.4333624,-0.30166942,-9.543288,0.4261679
0.048751038,4.758916,-0.03804788,0.20299956,-0.43868873,-0.45968673,-9.476251,0.30166942
0.048320644,4.7587676,-0.03804788,0.20299956,-0.43868873,-0.45968673,-9.476251,0.30166942
0.047936942,4.7586164,-0.046569996,0.20086904,-0.44188452,-0.59376204,-9.457097,0.17717093
0.047555372,4.7584662,-0.046569996,0.20086904,-0.44188452,-0.59376204,-9.457097,0.17717093
0.04719699,4.7583127,-0.057222642,0.19980377,-0.43975398,-0.6895301,-9.390059,0.1436521
0.046839923,4.758159,-0.057222642,0.19980377,-0.43975398,-0.6895301,-9.390059,0.1436521
0.046482187,4.7579937,-0.06681002,0.19660798,-0.4333624,-0.7278373,-9.332599,0.038307227
0.04612484,4.757828,-0.06681002,0.19660798,-0.4333624,-0.7278373,-9.332599,0.038307227
0.04577664,4.757653,-0.077462666,0.19128166,-0.42590556,-0.7613561,-9.279925,-0.0047884034
0.045429125,4.7574787,-0.077462666,0.19128166,-0.42590556,-0.7613561,-9.279925,-0.0047884034
0.04509974,4.7572994,-0.08598478,0.18275954,-0.41525292,-0.79487497,-9.255983,0.009576807
0.044770952,4.75712,-0.08598478,0.18275954,-0.41525292,-0.79487497,-9.255983,0.009576807
0.044466432,4.756939,-0.09663743,0.16997637,-0.403535,-0.7757214,-9.275137,0.110133275
0.044161983,4.7567573,-0.09663743,0.16997637,-0.403535,-0.7757214,-9.275137,0.110133275
0.04383708,4.756551,-0.108355336,0.15612793,-0.39288235,-0.6799533,-9.313444,0.009576807
0.043512594,4.756344,-0.108355336,0.15612793,-0.39288235,-0.6799533,-9.313444,0.009576807
0.043202613,4.756131,-0.11794271,0.14334476,-0.38329497,-0.5793968,-9.375694,0.18674773
0.042893905,4.7559195,-0.11794271,0.14334476,-0.38329497,-0.5793968,-9.375694,0.18674773
0.042580083,4.755696,-0.12539956,0.12843105,-0.37583813,-0.5602432,-9.3421755,0.14844051
0.042268068,4.7554736,-0.12539956,0.12843105,-0.37583813,-0.5602432,-9.3421755,0.14844051
0.041940738,4.7552404,-0.13179116,0.11245208,-0.3705118,-0.47405192,-9.390059,0.21068975
0.04161514,4.7550077,-0.13179116,0.11245208,-0.3705118,-0.47405192,-9.390059,0.21068975
0.04116637,4.7547884,-0.1360522,0.09966891,-0.367316,-0.2825158,-9.504981,0.30166942
0.040718477,4.754568,-0.1360522,0.09966891,-0.367316,-0.2825158,-9.504981,0.30166942
0.040273413,4.754345,-0.14031327,0.089016266,-0.36198968,-0.19632454,-9.572019,0.22984336
0.039828427,4.754122,-0.14031327,0.089016266,-0.36198968,-0.19632454,-9.572019,0.22984336
0.039336998,4.7539654,-0.14457433,0.08368994,-0.3555981,-0.17717093,-9.682152,0.39264908
0.03884543,4.75381,-0.14457433,0.08368994,-0.3555981,-0.17717093,-9.682152,0.39264908
0.03836169,4.753644,-0.14777012,0.08049415,-0.3492065,-0.21068975,-9.792285,0.3878607
0.03788897,4.753483,-0.14777012,0.08049415,-0.3492065,-0.21068975,-9.792285,0.3878607
0.037444137,4.753394,-0.14990065,0.07942889,-0.34281492,-0.30166942,-9.864111,0.45010993
0.03692858,4.753294,-0.14990065,0.07942889,-0.34281492,-0.30166942,-9.864111,0.45010993
0.036359403,4.753206,-0.14883539,0.07942889,-0.33642334,-0.35434186,-9.935937,0.50278234
0.03627152,4.753192,-0.14883539,0.07942889,-0.33642334,-0.35434186,-9.935937,0.50278234
0.03599893,4.753135,-0.14883539,0.08049415,-0.3257707,-0.45010993,-10.041282,0.59855044
0.035726633,4.753078,-0.14883539,0.08049415,-0.3257707,-0.45010993,-10.041282,0.59855044
0.03550466,4.7529945,-0.14670485,0.08049415,-0.3140528,-0.59855044,-10.0987425,0.5793968
0.03550466,4.7529945,-0.14670485,0.08049415,-0.3140528,-0.59855044,-10.0987425,0.5793968
0.03506939,4.7528296,-0.139248,0.0762331,-0.30126962,-0.6991069,-10.228029,0.6512229
0.03488931,4.7527633,-0.139248,0.0762331,-0.30126962,-0.6991069,-10.228029,0.6512229
0.034705162,4.752697,-0.13072589,0.069841504,-0.2895517,-0.7086837,-10.295067,0.6464345
0.03452047,4.7526307,-0.13072589,0.069841504,-0.2895517,-0.7086837,-10.295067,0.6464345
0.034358565,4.7525682,-0.11900798,0.060254127,-0.27570325,-0.79487497,-10.31901,0.6464345
0.034196973,4.7525053,-0.11900798,0.060254127,-0.27570325,-0.79487497,-10.31901,0.6464345
0.03404836,4.752458,-0.106224805,0.04853622,-0.2597243,-0.78529817,-10.34774,0.6560113
0.03389984,4.752411,-0.106224805,0.04853622,-0.2597243,-0.78529817,-10.34774,0.6560113
0.03374889,4.7523904,-0.092376366,0.033622514,-0.24268007,-0.7469909,-10.419566,0.7374141
0.033599254,4.752371,-0.092376366,0.033622514,-0.24268007,-0.7469909,-10.419566,0.7374141
0.033449758,4.752377,-0.075332135,0.019774077,-0.22563584,-0.6464345,-10.448297,0.7422025
0.033300407,4.752383,-0.075332135,0.019774077,-0.22563584,-0.6464345,-10.448297,0.7422025
0.033161633,4.752411,-0.057222642,0.0048603755,-0.20752634,-0.58897364,-10.462662,0.7182605
0.033023283,4.752439,-0.057222642,0.0048603755,-0.20752634,-0.58897364,-10.462662,0.7182605
0.032872554,4.752495,-0.03804788,-0.008988062,-0.19048211,-0.51714754,-10.486604,0.82360536
0.032721106,4.752551,-0.03804788,-0.008988062,-0.19048211,-0.51714754,-10.486604,0.82360536
0.032577693,4.7526307,-0.01674259,-0.021771235,-0.17237261,-0.45968673,-10.477027,0.79487497
0.032434843,4.75271,-0.01674259,-0.021771235,-0.17237261,-0.45968673,-10.477027,0.79487497
0.032285623,4.7528152,0.0066932263,-0.03242388,-0.15319785,-0.35913026,-10.477027,0.80445176
0.03213622,4.752921,0.0066932263,-0.03242388,-0.15319785,-0.35913026,-10.477027,0.80445176
0.031996373,4.7530518,0.031194309,-0.03988073,-0.13189256,-0.31124622,-10.481815,0.8283938
0.031856798,4.753182,0.031194309,-0.03988073,-0.13189256,-0.31124622,-10.481815,0.8283938
0.031720154,4.7533364,0.056760654,-0.04627232,-0.108456746,-0.24899697,-10.429143,0.7326257
0.031583656,4.7534914,0.056760654,-0.04627232,-0.108456746,-0.24899697,-10.429143,0.7326257
0.031409178,4.7536497,0.082327,-0.048402846,-0.0828904,0.0047884034,-10.376471,0.7038953
0.031232202,4.75381,0.082327,-0.048402846,-0.0828904,0.0047884034,-10.376471,0.7038953
0.031082101,4.753993,0.10789335,-0.044141788,-0.060519844,-0.047884032,-10.280702,0.6560113
0.030930115,4.754177,0.10789335,-0.044141788,-0.060519844,-0.047884032,-10.280702,0.6560113
0.030850263,4.754404,0.13239443,-0.03881547,-0.037084028,-0.20111294,-10.208876,0.6895301
0.030770283,4.7546315,0.13239443,-0.03881547,-0.037084028,-0.20111294,-10.208876,0.6895301
0.030727142,4.754884,0.15476498,-0.033489145,-0.01151768,-0.22026655,-10.108319,0.7182605
0.030683937,4.755135,0.15476498,-0.033489145,-0.01151768,-0.22026655,-10.108319,0.7182605
0.030656375,4.7554064,0.17607027,-0.029228088,0.015113931,-0.17717093,-10.084377,0.7326257
0.030628394,4.755677,0.17607027,-0.029228088,0.015113931,-0.17717093,-10.084377,0.7326257
0.030581258,4.75595,0.1963103,-0.023901764,0.042810805,-0.08619126,-10.0269165,0.62249243
0.030533094,4.7562227,0.1963103,-0.023901764,0.042810805,-0.08619126,-10.0269165,0.62249243
0.030513467,4.756518,0.21655032,-0.018575443,0.07050768,-0.05746084,-9.959879,0.6464345
0.030492574,4.7568207,0.21655032,-0.018575443,0.07050768,-0.05746084,-9.959879,0.6464345
0.030481465,4.7571125,0.23572509,-0.012183856,0.0939435,-0.023942016,-9.911995,0.61291564
0.030469446,4.7574077,0.23572509,-0.012183856,0.0939435,-0.023942016,-9.911995,0.61291564
0.030456524,4.7577014,0.25276932,-0.0047270046,0.11418352,0.019153614,-9.835381,0.545878
0.030442912,4.757995,0.25276932,-0.0047270046,0.11418352,0.019153614,-9.835381,0.545878
0.030439582,4.7582746,0.26874828,0.0027298466,0.13548881,0.047884032,-9.77792,0.47405192
0.030436011,4.7585535,0.26874828,0.0027298466,0.13548881,0.047884032,-9.77792,0.47405192
0.030456822,4.7588525,0.28153145,0.010186698,0.15785937,0.16280572,-9.710882,0.50757074
0.030477505,4.7591505,0.28153145,0.010186698,0.15785937,0.16280572,-9.710882,0.50757074
0.030515738,4.759433,0.29324937,0.017643549,0.17703412,0.21068975,-9.643845,0.41180268
0.030554194,4.759714,0.29324937,0.017643549,0.17703412,0.21068975,-9.643845,0.41180268
0.030611796,4.760008,0.303902,0.0251004,0.1962089,0.25378537,-9.56723,0.4165911
0.030669473,4.7603016,0.303902,0.0251004,0.1962089,0.25378537,-9.56723,0.4165911
0.03074307,4.7606115,0.31135887,0.032557253,0.21218786,0.31124622,-9.5385,0.45489833
0.030816609,4.760921,0.31135887,0.032557253,0.21218786,0.31124622,-9.5385,0.45489833
0.030905847,4.7612305,0.31988096,0.04107937,0.22710156,0.40222588,-9.504981,0.41180268
0.030995226,4.7615385,0.31988096,0.04107937,0.22710156,0.40222588,-9.504981,0.41180268
0.031099368,4.7618484,0.3252073,0.05173201,0.24094999,0.45968673,-9.428367,0.3878607
0.031203574,4.762158,0.3252073,0.05173201,0.24094999,0.45968673,-9.428367,0.3878607
0.03132145,4.762462,0.33053362,0.062384658,0.25160265,0.4309563,-9.433155,0.33997664
0.031439494,4.7627664,0.33053362,0.062384658,0.25160265,0.4309563,-9.433155,0.33997664
0.031569414,4.763066,0.33372942,0.073037304,0.26012474,0.41180268,-9.370906,0.30166942
0.031699605,4.763365,0.33372942,0.073037304,0.26012474,0.41180268,-9.370906,0.30166942
0.031835806,4.763674,0.33585995,0.08262468,0.26864687,0.40701428,-9.289502,0.34476504
0.0319722,4.763982,0.33585995,0.08262468,0.26864687,0.40701428,-9.289502,0.34476504
0.032121092,4.764278,0.3369252,0.0911468,0.27503845,0.33518824,-9.23683,0.29209262
0.03227022,4.7645736,0.3369252,0.0911468,0.27503845,0.33518824,-9.23683,0.29209262
0.032423403,4.7648735,0.33585995,0.09966891,0.28143004,0.35913026,-9.179369,0.31603462
0.03257684,4.765173,0.33585995,0.09966891,0.28143004,0.35913026,-9.179369,0.31603462
0.03273682,4.765465,0.33266416,0.10712577,0.2856911,0.39264908,-9.203311,0.2873042
0.032897085,4.7657566,0.33266416,0.10712577,0.2856911,0.39264908,-9.203311,0.2873042
0.03307646,4.7660437,0.3284031,0.11351735,0.28782162,0.36391866,-9.169792,0.21068975
0.033240594,4.766305,0.3284031,0.11351735,0.28782162,0.36391866,-9.169792,0.21068975
0.033407807,4.7665796,0.3220115,0.118843675,0.2888869,0.38307226,-9.14585,0.25857377
0.03357548,4.7668543,0.3220115,0.118843675,0.2888869,0.38307226,-9.14585,0.25857377
0.033743106,4.7671237,0.31668517,0.12417,0.2888869,0.3878607,-9.097966,0.25857377
0.03391112,4.7673926,0.31668517,0.12417,0.2888869,0.3878607,-9.097966,0.25857377
0.034071445,4.767659,0.30816308,0.13056158,0.28462583,0.45010993,-9.093178,0.2825158
0.034232,4.7679257,0.30816308,0.13056158,0.28462583,0.45010993,-9.093178,0.2825158
0.03438537,4.768187,0.3007062,0.1358879,0.27823424,0.45968673,-9.069236,0.29688102
0.034538724,4.7684474,0.3007062,0.1358879,0.27823424,0.45968673,-9.069236,0.29688102
0.03468277,4.7686963,0.2889883,0.14121422,0.26864687,0.41180268,-9.035717,0.31124622
0.034827087,4.7689447,0.2889883,0.14121422,0.26864687,0.41180268,-9.035717,0.31124622
0.03495414,4.7691984,0.27513987,0.1476058,0.25692895,0.44532153,-9.016563,0.41180268
0.035080433,4.7694497,0.27513987,0.1476058,0.25692895,0.44532153,-9.016563,0.41180268
0.03519752,4.7696753,0.26129144,0.1539974,0.24308053,0.38307226,-8.983045,0.35434186
0.03531482,4.769901,0.26129144,0.1539974,0.24308053,0.38307226,-8.983045,0.35434186
0.035422992,4.770098,0.24531247,0.15825845,0.22710156,0.32561144,-9.021352,0.30166942
0.035531368,4.7702947,0.24531247,0.15825845,0.22710156,0.32561144,-9.021352,0.30166942
0.035623822,4.770481,0.22933349,0.16251951,0.21218786,0.30166942,-8.973468,0.33039984
0.035714675,4.7706633,0.22933349,0.16251951,0.21218786,0.30166942,-8.973468,0.33039984
0.035797585,4.770822,0.211224,0.16678058,0.19833942,0.2633622,-8.949526,0.30166942
0.03588058,4.77098,0.211224,0.16678058,0.19833942,0.2633622,-8.949526,0.30166942
0.035953615,4.7711134,0.1931145,0.16784583,0.18236046,0.17717093,-8.959103,0.29688102
0.036026884,4.771246,0.1931145,0.16784583,0.18236046,0.17717093,-8.959103,0.29688102
0.03608217,4.771363,0.17393975,0.16784583,0.16744675,0.20590134,-8.978256,0.30645782
0.036137708,4.7714796,0.17393975,0.16784583,0.16744675,0.20590134,-8.978256,0.30645782
