Pitch,Roll,Gyro_X,Gyro_Y,Gyro_Z,Accel_X,Accel_Y,Accel_Z
0.066240914,4.7227936,0.03545537,-0.0068575335,0.28143004,-0.45010993,-9.581595,0.12449849
0.06638533,4.722849,0.03545537,-0.0068575335,0.28143004,-0.45010993,-9.581595,0.12449849
0.06653433,4.722918,0.032259572,-0.0047270046,0.27929953,-0.4405331,-9.624691,0.15801731
0.0666835,4.722987,0.032259572,-0.0047270046,0.27929953,-0.4405331,-9.624691,0.15801731
0.0668247,4.723045,0.031194309,-0.0025964756,0.27610373,-0.4357447,-9.715671,0.1436521
0.066965565,4.7231016,0.031194309,-0.0025964756,0.27610373,-0.4357447,-9.715671,0.1436521
0.06709603,4.7231402,0.02906378,-0.00046594674,0.26971215,-0.4261679,-9.763555,0.11971009
0.06722657,4.7231784,0.02906378,-0.00046594674,0.26971215,-0.4261679,-9.763555,0.11971009
0.067364655,4.7232466,0.025867987,0.0027298466,0.26438582,-0.45968673,-9.787497,0.17238252
0.06750261,4.7233143,0.025867987,0.0027298466,0.26438582,-0.45968673,-9.787497,0.17238252
0.06764893,4.723396,0.023737457,0.003795111,0.2590595,-0.45489833,-9.844957,0.21547815
0.06779486,4.7234774,0.023737457,0.003795111,0.2590595,-0.45489833,-9.844957,0.21547815
0.067947365,4.72357,0.023737457,0.003795111,0.25160265,-0.44532153,-9.950302,0.272939
0.0680999,4.723663,0.023737457,0.003795111,0.25160265,-0.44532153,-9.950302,0.272939
0.06823483,4.723748,0.024802722,0.003795111,0.24521105,-0.44532153,-9.964667,0.23942018
0.06836901,4.723832,0.024802722,0.003795111,0.24521105,-0.44532153,-9.964667,0.23942018
0.068494394,4.723914,0.025867987,0.00592564,0.23988473,-0.46447513,-9.959879,0.22026655
0.06861922,4.7239957,0.025867987,0.00592564,0.23988473,-0.46447513,-9.959879,0.22026655
0.068741806,4.724083,0.027998514,0.0069909045,0.23349315,-0.47405192,-9.983821,0.22984336
0.068864025,4.7241697,0.027998514,0.0069909045,0.23349315,-0.47405192,-9.983821,0.22984336
0.0689934,4.724268,0.02906378,0.0069909045,0.22816682,-0.47405192,-10.070012,0.272939
0.06912225,4.724366,0.02906378,0.0069909045,0.22816682,-0.47405192,-10.070012,0.272939
0.06923243,4.7244573,0.033324838,0.00592564,0.2228405,-0.46926352,-10.113108,0.23942018
0.06935578,4.724559,0.033324838,0.00592564,0.2228405,-0.46926352,-10.113108,0.23942018
0.06944677,4.724643,0.037585896,0.00592564,0.21538365,-0.38307226,-10.132261,0.2777274
0.06944677,4.724643,0.037585896,0.00592564,0.21538365,-0.38307226,-10.132261,0.2777274
0.06944677,4.724643,0.037585896,0.00592564,0.21538365,-0.38307226,-10.132261,0.2777274
0.06944677,4.724643,0.037585896,0.00592564,0.21538365,-0.38307226,-10.132261,0.2777274
0.06985613,4.725027,0.045042746,0.0048603755,0.19940469,-0.3878607,-10.170568,0.2633622
0.06992811,4.725113,0.045042746,0.0048603755,0.19940469,-0.3878607,-10.170568,0.2633622
0.06999856,4.725209,0.05036907,0.003795111,0.1930131,-0.35913026,-10.175357,0.2825158
0.07007634,4.7253156,0.05036907,0.003795111,0.1930131,-0.35913026,-10.175357,0.2825158
0.07014227,4.7254205,0.056760654,0.003795111,0.1866215,-0.39264908,-10.13705,0.2681506
0.07020902,4.725527,0.056760654,0.003795111,0.1866215,-0.39264908,-10.13705,0.2681506
0.07025281,4.7256107,0.062086977,0.0027298466,0.18022992,-0.39743748,-10.1226845,0.18674773
0.070297934,4.725697,0.062086977,0.0027298466,0.18022992,-0.39743748,-10.1226845,0.18674773
0.07034008,4.7257876,0.0674133,0.0016645822,0.1780994,-0.39743748,-10.103531,0.19153613
0.07038401,4.725882,0.0674133,0.0016645822,0.1780994,-0.39743748,-10.103531,0.19153613
0.07043575,4.726001,0.074870154,0.0016645822,0.17703412,-0.4357447,-10.041282,0.22505496
0.07048543,4.726115,0.074870154,0.0016645822,0.17703412,-0.4357447,-10.041282,0.22505496
0.0705294,4.726226,0.08126174,0.0016645822,0.17703412,-0.37828386,-10.0269165,0.21547815
0.07057438,4.7263393,0.08126174,0.0016645822,0.17703412,-0.37828386,-10.0269165,0.21547815
0.0706125,4.7264223,0.087653324,0.003795111,0.17916466,-0.37349546,-10.0029745,0.1340753
0.07065168,4.726507,0.087653324,0.003795111,0.17916466,-0.37349546,-10.0029745,0.1340753
0.07069415,4.726603,0.09511018,0.0048603755,0.18236046,-0.35913026,-9.964667,0.1436521
0.07073665,4.726699,0.09511018,0.0048603755,0.18236046,-0.35913026,-9.964667,0.1436521
0.07078435,4.7268105,0.10150176,0.0069909045,0.1866215,-0.31124622,-9.988609,0.17238252
0.070832,4.7269216,0.10150176,0.0069909045,0.1866215,-0.31124622,-9.988609,0.17238252
0.07088693,4.7270355,0.106828086,0.010186698,0.19407836,-0.25857377,-9.935937,0.16759412
0.07094188,4.727149,0.106828086,0.010186698,0.19407836,-0.25857377,-9.935937,0.16759412
0.07100407,4.7272797,0.11428493,0.013382491,0.19940469,-0.25378537,-9.89763,0.20111294
0.07106571,4.7274094,0.11428493,0.013382491,0.19940469,-0.25378537,-9.89763,0.20111294
0.07113171,4.7275352,0.118545994,0.018708814,0.204731,-0.18195933,-9.883265,0.17717093
0.07119794,4.727661,0.118545994,0.018708814,0.204731,-0.18195933,-9.883265,0.17717093
0.071270436,4.727784,0.12493758,0.024035135,0.21218786,-0.17238252,-9.830592,0.14844051
0.07134296,4.727906,0.12493758,0.024035135,0.21218786,-0.17238252,-9.830592,0.14844051
0.07143098,4.728068,0.13239443,0.030426722,0.21964471,-0.18195933,-9.854534,0.2681506
0.071516976,4.728225,0.13239443,0.030426722,0.21964471,-0.18195933,-9.854534,0.2681506
0.071606405,4.72838,0.13878602,0.038948838,0.2260363,-0.16280572,-9.816227,0.23463176
0.071698226,4.7285395,0.13878602,0.038948838,0.2260363,-0.16280572,-9.816227,0.23463176
0.071790874,4.7286963,0.14304708,0.049601484,0.23029736,-0.16759412,-9.792285,0.23942018
0.071885094,4.7288556,0.14304708,0.049601484,0.23029736,-0.16759412,-9.792285,0.23942018
0.07198313,4.7290044,0.14730814,0.060254127,0.23668894,-0.21068975,-9.758766,0.18195933
0.072081186,4.7291536,0.14730814,0.060254127,0.23668894,-0.21068975,-9.758766,0.18195933
0.07219023,4.7292843,0.15156919,0.074102566,0.24627632,-0.23942018,-9.773131,0.110133275
0.07229931,4.729414,0.15156919,0.074102566,0.24627632,-0.23942018,-9.773131,0.110133275
0.07241813,4.7295537,0.15476498,0.089016266,0.25692895,-0.31603462,-9.68694,0.1388637
0.07253709,4.7296925,0.15476498,0.089016266,0.25692895,-0.31603462,-9.68694,0.1388637
0.072666846,4.729833,0.15689552,0.104995236,0.2675816,-0.32561144,-9.667787,0.1436521
0.07279683,4.7299733,0.15689552,0.104995236,0.2675816,-0.32561144,-9.667787,0.1436521
0.07293777,4.7301464,0.15689552,0.12310473,0.2739732,-0.39743748,-9.615114,0.22505496
0.07307851,4.730319,0.15689552,0.12310473,0.2739732,-0.39743748,-9.615114,0.22505496
0.07322206,4.730472,0.15476498,0.14014897,0.28036478,-0.36391866,-9.557653,0.19153613
0.073365465,4.7306247,0.15476498,0.14014897,0.28036478,-0.36391866,-9.557653,0.19153613
0.073513605,4.730769,0.15369973,0.1571932,0.28462583,-0.41180268,-9.56723,0.17717093
0.073660955,4.730912,0.15369973,0.1571932,0.28462583,-0.41180268,-9.56723,0.17717093
0.07381029,4.731058,0.14943866,0.17317216,0.2856911,-0.38307226,-9.490616,0.19632454
0.07395951,4.731203,0.14943866,0.17317216,0.2856911,-0.38307226,-9.490616,0.19632454
0.0741084,4.731351,0.14304708,0.18808587,0.28249532,-0.45968673,-9.471462,0.21068975
0.07425678,4.7314982,0.14304708,0.18808587,0.28249532,-0.45968673,-9.471462,0.21068975
0.0744165,4.7316685,0.13559023,0.20086904,0.277169,-0.51235914,-9.481039,0.25857377
0.07457591,4.7318373,0.13559023,0.20086904,0.277169,-0.51235914,-9.481039,0.25857377
0.07472289,4.7319937,0.12813337,0.21258694,0.26864687,-0.63206923,-9.481039,0.21068975
0.07486811,4.7321463,0.12813337,0.21258694,0.26864687,-0.63206923,-9.481039,0.21068975
0.075098924,4.732347,0.120676525,0.22217433,0.26119003,-0.6895301,-9.466674,0.24420857
0.07532553,4.732547,0.120676525,0.22217433,0.26119003,-0.6895301,-9.466674,0.24420857
0.07569733,4.7327003,0.11428493,0.23069644,0.2526679,-0.78529817,-9.490616,0.22505496
0.07606967,4.732855,0.11428493,0.23069644,0.2526679,-0.78529817,-9.490616,0.22505496
0.0764538,4.7329216,0.10789335,0.23708802,0.24308053,-0.90979666,-9.500193,0.16280572
0.07683732,4.7329874,0.10789335,0.23708802,0.24308053,-0.90979666,-9.500193,0.16280572
0.077212065,4.7330966,0.10150176,0.24241436,0.2345584,-0.9864111,-9.481039,0.24420857
0.07758614,4.733205,0.10150176,0.24241436,0.2345584,-0.9864111,-9.481039,0.24420857
0.07794985,4.7332506,0.09511018,0.24241436,0.22497103,-1.0534488,-9.495404,0.12449849
0.07831304,4.7332954,0.09511018,0.24241436,0.22497103,-1.0534488,-9.495404,0.12449849
0.07866781,4.7333374,0.089783855,0.24134909,0.21538365,-1.1348516,-9.514558,0.11492168
0.07901848,4.7333784,0.089783855,0.24134909,0.21538365,-1.1348516,-9.514558,0.11492168
0.07936498,4.73342,0.08552279,0.23708802,0.20579627,-1.1827357,-9.528923,0.11971009
0.07971136,4.733461,0.08552279,0.23708802,0.20579627,-1.1827357,-9.528923,0.11971009
0.08005331,4.7335258,0.08019647,0.23069644,0.19727415,-1.2306197,-9.543288,0.21068975
0.080395296,4.7335906,0.08019647,0.23069644,0.19727415,-1.2306197,-9.543288,0.21068975
0.08073062,4.73365,0.074870154,0.21897852,0.19088256,-1.2593501,-9.543288,0.21068975
0.08106564,4.73371,0.074870154,0.21897852,0.19088256,-1.2593501,-9.543288,0.21068975
0.08139051,4.733748,0.07167436,0.20406483,0.18236046,-1.2641385,-9.572019,0.1436521
0.081715375,4.733786,0.07167436,0.20406483,0.18236046,-1.2641385,-9.572019,0.1436521
0.08203217,4.733825,0.06954383,0.18808587,0.17383833,-1.340753,-9.562442,0.1436521
0.08234868,4.733864,0.06954383,0.18808587,0.17383833,-1.340753,-9.562442,0.1436521
0.082649045,4.733886,0.06634804,0.16997637,0.16318569,-1.3359646,-9.591172,0.08140286
0.082949646,4.733907,0.06634804,0.16997637,0.16318569,-1.3359646,-9.591172,0.08140286
0.083245635,4.733946,0.06315224,0.15186687,0.15359831,-1.3311762,-9.548077,0.15801731
0.083541974,4.733984,0.06315224,0.15186687,0.15359831,-1.3311762,-9.548077,0.15801731
0.083828256,4.734013,0.05995645,0.13269211,0.14614145,-1.3311762,-9.5385,0.12928689
0.08411506,4.734042,0.05995645,0.13269211,0.14614145,-1.3311762,-9.5385,0.12928689
0.084391765,4.7340565,0.055695392,0.11351735,0.14081514,-1.3072342,-9.495404,0.08619126
0.08466806,4.734071,0.055695392,0.11351735,0.14081514,-1.3072342,-9.495404,0.08619126
0.0849379,4.734077,0.0524996,0.09540785,0.13761935,-1.3120226,-9.528923,0.05746084
0.085207075,4.7340827,0.0524996,0.09540785,0.13761935,-1.3120226,-9.528923,0.05746084
0.08545996,4.734068,0.04823854,0.07836362,0.13442355,-1.2401965,-9.504981,0
0.085712425,4.7340527,0.04823854,0.07836362,0.13442355,-1.2401965,-9.504981,0
0.0859697,4.7340455,0.045042746,0.061319392,0.13229302,-1.1971009,-9.519346,0.062249243
0.08622731,4.734038,0.045042746,0.061319392,0.13229302,-1.1971009,-9.519346,0.062249243
0.08648215,4.734023,0.040781688,0.045340426,0.13335828,-1.1827357,-9.533711,0.05267244
0.0867364,4.734008,0.040781688,0.045340426,0.13335828,-1.1827357,-9.533711,0.05267244
0.086976945,4.733976,0.037585896,0.030426722,0.13548881,-1.1204864,-9.524135,0.019153614
0.08721694,4.733944,0.037585896,0.030426722,0.13548881,-1.1204864,-9.524135,0.019153614
0.08747047,4.73392,0.034390103,0.017643549,0.13761935,-1.0630256,-9.495404,0.090979666
0.087723725,4.733896,0.034390103,0.017643549,0.13761935,-1.0630256,-9.495404,0.090979666
0.08795483,4.7338505,0.031194309,0.0048603755,0.14081514,-1.0199299,-9.442732,0.04309563
0.0881856,4.7338047,0.031194309,0.0048603755,0.14081514,-1.0199299,-9.442732,0.04309563
0.088402994,4.7337475,0.026933251,-0.005792269,0.14294566,-0.94331545,-9.409213,0.076614454
0.08862,4.7336907,0.026933251,-0.005792269,0.14294566,-0.94331545,-9.409213,0.076614454
0.08879216,4.73362,0.025867987,-0.014314385,0.1450762,-0.8762778,-9.394848,0.05267244
0.08896324,4.73355,0.025867987,-0.014314385,0.1450762,-0.8762778,-9.394848,0.05267244
0.089083105,4.7334766,0.022672193,-0.0228365,0.1450762,-0.78529817,-9.323022,0.01436521
0.08920242,4.733403,0.022672193,-0.0228365,0.1450762,-0.78529817,-9.323022,0.01436521
0.08929396,4.7333317,0.019476399,-0.027097559,0.14188041,-0.6943185,-9.241618,-0.05267244
0.08938519,4.7332597,0.019476399,-0.027097559,0.14188041,-0.6943185,-9.241618,-0.05267244
0.08942512,4.7332067,0.017345872,-0.029228088,0.13655408,-0.61291564,-9.165004,0.033518825
0.08946476,4.733154,0.017345872,-0.029228088,0.13655408,-0.61291564,-9.165004,0.033518825
0.08947267,4.733118,0.013084813,-0.029228088,0.12909722,-0.5315128,-9.150639,0.06703765
0.08948047,4.733083,0.013084813,-0.029228088,0.12909722,-0.5315128,-9.150639,0.06703765
0.08946232,4.7330713,0.0077584907,-0.027097559,0.119509846,-0.47405192,-9.097966,0.1340753
0.089444235,4.73306,0.0077584907,-0.027097559,0.119509846,-0.47405192,-9.097966,0.1340753
0.08940922,4.7330494,0.00030163955,-0.0228365,0.104596145,-0.4261679,-9.107543,0.15322891
0.08937417,4.7330394,0.00030163955,-0.0228365,0.104596145,-0.4261679,-9.107543,0.15322891
0.089319676,4.7330513,-0.010351005,-0.014314385,0.08222559,-0.39743748,-9.184157,0.25378537
0.08926518,4.733063,-0.010351005,-0.014314385,0.08222559,-0.39743748,-9.184157,0.25378537
0.089185156,4.733056,-0.024199443,-0.005792269,0.05772451,-0.39264908,-9.150639,0.23942018
0.08910507,4.7330484,-0.024199443,-0.005792269,0.05772451,-0.39264908,-9.150639,0.23942018
0.088995844,4.733023,-0.039113145,0.0027298466,0.02896237,-0.38307226,-9.241618,0.23463176
0.088886514,4.732998,-0.039113145,0.0027298466,0.02896237,-0.38307226,-9.241618,0.23463176
0.08875884,4.7329807,-0.05402685,0.012317227,0.00020022877,-0.45010993,-9.246407,0.30166942
0.08863112,4.732964,-0.05402685,0.012317227,0.00020022877,-0.45010993,-9.246407,0.30166942
0.0884686,4.732919,-0.06894055,0.022969872,-0.028561912,-0.51235914,-9.332599,0.25378537
0.088305876,4.732875,-0.06894055,0.022969872,-0.028561912,-0.51235914,-9.332599,0.25378537
0.08811025,4.7328134,-0.08278899,0.030426722,-0.058389317,-0.6607997,-9.437943,0.22505496
0.08791779,4.732753,-0.08278899,0.030426722,-0.058389317,-0.6607997,-9.437943,0.22505496
0.08770216,4.7326226,-0.09557216,0.037883572,-0.08608619,-0.7517793,-9.476251,0.17238252
0.08748422,4.7324915,-0.09557216,0.037883572,-0.08608619,-0.7517793,-9.476251,0.17238252
0.087459676,4.732301,-0.107290074,0.043209895,-0.11058728,-0.842759,-9.543288,0.18674773
0.087458774,4.732128,-0.107290074,0.043209895,-0.11058728,-0.842759,-9.543288,0.18674773
0.08746352,4.7319856,-0.11687745,0.046405688,-0.13295783,-0.92416185,-9.610326,0.17717093
0.08746894,4.7318454,-0.11687745,0.046405688,-0.13295783,-0.92416185,-9.610326,0.17717093
0.087445356,4.7316747,-0.12539956,0.045340426,-0.15213259,-1.0007763,-9.667787,0.1388637
0.08742244,4.731505,-0.12539956,0.045340426,-0.15213259,-1.0007763,-9.667787,0.1388637
0.08738039,4.73133,-0.12966062,0.040014103,-0.17024209,-1.0630256,-9.672575,0.11492168
0.08733894,4.7311554,-0.12966062,0.040014103,-0.17024209,-1.0630256,-9.672575,0.11492168
0.08729642,4.7310143,-0.13392168,0.030426722,-0.18302526,-1.0582372,-9.744401,0.17717093
0.0872539,4.7308745,-0.13392168,0.030426722,-0.18302526,-1.0582372,-9.744401,0.17717093
0.0871845,4.730689,-0.13711748,0.018708814,-0.1936779,-0.9911995,-9.763555,0.12928689
0.087116115,4.7305045,-0.13711748,0.018708814,-0.1936779,-0.9911995,-9.763555,0.12928689
0.08699033,4.7302814,-0.139248,0.003795111,-0.20433055,-0.9720459,-9.80665,0.05746084
0.086866796,4.7300606,-0.139248,0.003795111,-0.20433055,-0.9720459,-9.80665,0.05746084
0.08665996,4.7298203,-0.14137854,-0.012183856,-0.2149832,-0.866701,-9.840169,0.05746084
0.086174645,4.729335,-0.14244379,-0.028162822,-0.22563584,-0.7757214,-9.883265,0.019153614
0.086174645,4.729335,-0.14244379,-0.028162822,-0.22563584,-0.7757214,-9.883265,0.019153614
0.086174645,4.729335,-0.14244379,-0.028162822,-0.22563584,-0.7757214,-9.883265,0.019153614
0.08557616,4.728858,-0.14350906,-0.045207053,-0.23735374,-0.6751649,-9.916783,0.11492168
0.08557616,4.728858,-0.14350906,-0.045207053,-0.23735374,-0.6751649,-9.916783,0.11492168
0.08486965,4.7285366,-0.14137854,-0.06118602,-0.24907166,-0.5650316,-9.92636,0.12449849
0.084468916,4.7283773,-0.14137854,-0.06118602,-0.24907166,-0.5650316,-9.92636,0.12449849
0.08403629,4.728245,-0.139248,-0.07609972,-0.26078957,-0.46926352,-9.921572,0.18674773
0.08364146,4.728125,-0.139248,-0.07609972,-0.26078957,-0.46926352,-9.921572,0.18674773
0.0832852,4.728031,-0.13711748,-0.08675237,-0.26931167,-0.37828386,-10.007763,0.23463176
0.08287949,4.727924,-0.13711748,-0.08675237,-0.26931167,-0.37828386,-10.007763,0.23463176
0.082461976,4.7278175,-0.13392168,-0.095274486,-0.27996433,-0.29209262,-10.04607,0.23463176
0.082044154,4.7277117,-0.13392168,-0.095274486,-0.27996433,-0.29209262,-10.04607,0.23463176
0.08161291,4.727602,-0.13179116,-0.10060081,-0.29061696,-0.18195933,-10.103531,0.22505496
0.081183046,4.727494,-0.13179116,-0.10060081,-0.29061696,-0.18195933,-10.103531,0.22505496
0.08074918,4.7273965,-0.1275301,-0.10166607,-0.29807383,-0.076614454,-10.113108,0.272939
0.08033371,4.7273035,-0.1275301,-0.10166607,-0.29807383,-0.076614454,-10.113108,0.272939
0.0798894,4.7272034,-0.124334306,-0.10166607,-0.30553067,0.009576807,-10.141838,0.24899697
0.079444736,4.727103,-0.124334306,-0.10166607,-0.30553067,0.009576807,-10.141838,0.24899697
0.07899593,4.7270145,-0.121138506,-0.09740501,-0.3140528,0.06703765,-10.146626,0.31124622
0.07854635,4.7269263,-0.121138506,-0.09740501,-0.3140528,0.06703765,-10.146626,0.31124622
0.07808884,4.7268395,-0.11687745,-0.08994816,-0.32150963,0.10534488,-10.189722,0.30645782
0.07763142,4.726753,-0.11687745,-0.08994816,-0.32150963,0.10534488,-10.189722,0.30645782
0.07716621,4.7266674,-0.11368166,-0.077164985,-0.3289665,0.14844051,-10.180145,0.30166942
0.076681085,4.726578,-0.11368166,-0.077164985,-0.3289665,0.14844051,-10.180145,0.30166942
0.07619782,4.7264853,-0.11048587,-0.062251285,-0.33535808,0.16280572,-10.1226845,0.24420857
0.07573261,4.726396,-0.11048587,-0.062251285,-0.33535808,0.16280572,-10.1226845,0.24420857
0.075256705,4.7263227,-0.104094274,-0.044141788,-0.34281492,0.12449849,-10.060435,0.32561144
0.07478092,4.7262497,-0.104094274,-0.044141788,-0.34281492,0.12449849,-10.060435,0.32561144
0.0743017,4.726187,-0.09663743,-0.023901764,-0.34814125,0.076614454,-10.070012,0.34476504
0.0738226,4.726125,-0.09663743,-0.023901764,-0.34814125,0.076614454,-10.070012,0.34476504
0.07333851,4.726065,-0.08705004,0.0005993177,-0.35133705,0.1436521,-10.055647,0.32561144
0.0728545,4.7260065,-0.08705004,0.0005993177,-0.35133705,0.1436521,-10.055647,0.32561144
0.07236666,4.7259583,-0.076397404,0.026165664,-0.35666338,0.19632454,-10.012551,0.34955344
0.07187877,4.72591,-0.076397404,0.026165664,-0.35666338,0.19632454,-10.012551,0.34955344
0.07138093,4.7258706,-0.06574476,0.05599307,-0.367316,0.22984336,-9.873688,0.35434186
0.07088317,4.725832,-0.06574476,0.05599307,-0.367316,0.22984336,-9.873688,0.35434186
0.07037135,4.7258096,-0.056157377,0.087951005,-0.38755605,0.35434186,-9.725247,0.46447513
0.06985975,4.725787,-0.056157377,0.087951005,-0.38755605,0.35434186,-9.725247,0.46447513
0.06932087,4.725773,-0.049765788,0.12417,-0.41844872,0.35434186,-9.514558,0.49799395
0.06878209,4.725759,-0.049765788,0.12417,-0.41844872,0.35434186,-9.514558,0.49799395
0.06820584,4.7257524,-0.048700526,0.16251951,-0.46212456,0.30166942,-9.375694,0.5650316
0.067632735,4.7257457,-0.048700526,0.16251951,-0.46212456,0.30166942,-9.375694,0.5650316
0.0670137,4.7257395,-0.056157377,0.19980377,-0.51964885,0.22505496,-9.323022,0.6560113
0.06639421,4.7257338,-0.056157377,0.19980377,-0.51964885,0.22505496,-9.323022,0.6560113
0.06571902,4.7257185,-0.07000581,0.23176171,-0.5835647,0.10055647,-9.323022,0.6560113
0.06504429,4.7257032,-0.07000581,0.23176171,-0.5835647,0.10055647,-9.323022,0.6560113
0.064312585,4.725677,-0.08811531,0.25839332,-0.65706795,0.05746084,-9.279925,0.79487497
0.06358208,4.7256517,-0.08811531,0.25839332,-0.65706795,0.05746084,-9.279925,0.79487497
0.06278339,4.7256103,-0.108355336,0.28076386,-0.73802805,-0.009576807,-9.332599,0.89543146
0.061985288,4.7255692,-0.108355336,0.28076386,-0.73802805,-0.009576807,-9.332599,0.89543146
0.061116986,4.7255154,-0.12646483,0.30206916,-0.82751024,-0.23463176,-9.289502,0.8379706
0.060251374,4.725462,-0.12646483,0.30206916,-0.82751024,-0.23463176,-9.289502,0.8379706
0.059303414,4.7253957,-0.14137854,0.32017866,-0.9212535,-0.33997664,-9.260772,0.81402856
0.058357563,4.72533,-0.14137854,0.32017866,-0.9212535,-0.33997664,-9.260772,0.81402856
0.05731509,4.725254,-0.15096591,0.33189657,-1.0203232,-0.33997664,-9.227253,0.80924016
0.056271818,4.7251787,-0.15096591,0.33189657,-1.0203232,-0.33997664,-9.227253,0.80924016
0.055121854,4.7250957,-0.15842277,0.34148395,-1.1225885,-0.33518824,-9.23683,0.6512229
0.0539714,4.725013,-0.15842277,0.34148395,-1.1225885,-0.33518824,-9.23683,0.6512229
0.05272065,4.724926,-0.16374908,0.35107133,-1.233376,-0.36870706,-9.203311,0.6847417
0.051531777,4.724844,-0.16374908,0.35107133,-1.233376,-0.36870706,-9.203311,0.6847417
0.05017138,4.72475,-0.1722712,0.35639766,-1.3601425,-0.4357447,-9.217676,0.7565677
0.048743457,4.724652,-0.1722712,0.35639766,-1.3601425,-0.4357447,-9.217676,0.7565677
0.047242295,4.7245436,-0.1871849,0.35639766,-1.4996921,-0.40222588,-9.222465,0.91458505
0.04575193,4.7244368,-0.1871849,0.35639766,-1.4996921,-0.40222588,-9.222465,0.91458505
0.044081915,4.7243085,-0.20742492,0.34787554,-1.6573513,-0.25378537,-9.227253,1.067814
0.042405106,4.7241807,-0.20742492,0.34787554,-1.6573513,-0.25378537,-9.227253,1.067814
0.04054679,4.724021,-0.23938286,0.32976604,-1.8352504,-0.08140286,-9.179369,1.2641385
0.038693547,4.723862,-0.23938286,0.32976604,-1.8352504,-0.08140286,-9.179369,1.2641385
0.03663461,4.7236643,-0.27879766,0.30206916,-2.0301938,0.05746084,-9.160215,1.2976574
0.034577154,4.723467,-0.27879766,0.30206916,-2.0301938,0.05746084,-9.160215,1.2976574
0.03229739,4.7232227,-0.32673454,0.2679807,-2.2496383,0.17717093,-9.212888,1.484405
0.030018928,4.7229795,-0.32673454,0.2679807,-2.2496383,0.17717093,-9.212888,1.484405
0.027505066,4.7226844,-0.38106304,0.22430485,-2.4882576,0.1340753,-9.260772,1.4748282
0.024992704,4.72239,-0.38106304,0.22430485,-2.4882576,0.1340753,-9.260772,1.4748282
0.022228152,4.722043,-0.4364568,0.17210689,-2.7417905,0.14844051,-9.361329,1.4077905
0.019459855,4.721696,-0.4364568,0.17210689,-2.7417905,0.14844051,-9.361329,1.4077905
0.016423052,4.7212896,-0.49824214,0.10712577,-3.009172,0.1388637,-9.394848,1.1444284
0.013388757,4.7208834,-0.49824214,0.10712577,-3.009172,0.1388637,-9.394848,1.1444284
0.010064068,4.7204146,-0.5600275,0.032557253,-3.282945,0.2777274,-9.533711,0.9672575
0.0066826683,4.7199383,-0.5600275,0.032557253,-3.282945,0.2777274,-9.533711,0.9672575
0.0030578212,4.7193966,-0.62607384,-0.04201126,-3.5577831,0.50757074,-9.758766,0.79966336
6.282557,4.718847,-0.62607384,-0.04201126,-3.5577831,0.50757074,-9.758766,0.79966336
6.278683,4.7182355,-0.69425076,-0.1187103,-3.8336866,0.63206923,-9.998186,0.61291564
6.2748485,4.7176313,-0.69425076,-0.1187103,-3.8336866,0.63206923,-9.998186,0.61291564
6.270648,4.716931,-0.763493,-0.20073566,-4.1106553,0.82360536,-10.199299,0.48841715
6.2664256,4.7162285,-0.763493,-0.20073566,-4.1106553,0.82360536,-10.199299,0.48841715
6.261916,4.7154303,-0.8327352,-0.28808734,-4.386559,1.2880806,-10.376471,0.38307226
6.257404,4.714632,-0.8327352,-0.28808734,-4.386559,1.2880806,-10.376471,0.38307226
6.2526145,4.713751,-0.9030426,-0.38183063,-4.6677885,1.8387469,-10.46745,0.3878607
6.247807,4.7128654,-0.9030426,-0.38183063,-4.6677885,1.8387469,-10.46745,0.3878607
6.2427163,4.7118998,-0.9776111,-0.48196548,-4.9564753,2.4420857,-10.606314,0.50757074
6.237632,4.710934,-0.9776111,-0.48196548,-4.9564753,2.4420857,-10.606314,0.50757074
6.2322464,4.7098784,-1.0543102,-0.58423084,-5.25688,3.2848446,-10.625467,0.5793968
6.226862,4.7088203,-1.0543102,-0.58423084,-5.25688,3.2848446,-10.625467,0.5793968
6.2211657,4.7076735,-1.134205,-0.68862677,-5.5817857,4.003105,-10.572795,0.6751649
6.2154474,4.706518,-1.134205,-0.68862677,-5.5817857,4.003105,-10.572795,0.6751649
6.2093964,4.7052693,-1.2172956,-0.7962185,-5.934388,4.745308,-10.510546,0.7517793
6.2033343,4.7040124,-1.2172956,-0.7962185,-5.934388,4.745308,-10.510546,0.7517793
6.196899,4.7026577,-1.3014516,-0.9038102,-6.3168178,5.482722,-10.477027,0.8762778
6.1904655,4.701296,-1.3014516,-0.9038102,-6.3168178,5.482722,-10.477027,0.8762778
6.1836247,4.6998305,-1.3866727,-1.0103366,-6.726945,6.042965,-10.577583,0.93852705
6.1767864,4.6983576,-1.3866727,-1.0103366,-6.726945,6.042965,-10.577583,0.93852705
6.169531,4.6967745,-1.4740244,-1.1147326,-7.159442,6.483498,-10.692505,0.78529817
6.162241,4.6951737,-1.4740244,-1.1147326,-7.159442,6.483498,-10.692505,0.78529817
6.1545405,4.693472,-1.557115,-1.216998,-7.6111145,6.933608,-10.812215,0.7613561
6.146819,4.6917534,-1.557115,-1.216998,-7.6111145,6.933608,-10.812215,0.7613561
6.138664,4.689931,-1.6391404,-1.3150023,-8.074504,7.0102224,-11.099519,0.7613561
6.1304784,4.6880875,-1.6391404,-1.3150023,-8.074504,7.0102224,-11.099519,0.7613561
6.1218476,4.6861353,-1.7190351,-1.410876,-8.54109,6.9383965,-11.286267,0.7134721
6.1132383,4.6841717,-1.7190351,-1.410876,-8.54109,6.9383965,-11.286267,0.7134721
6.104106,4.682078,-1.7925384,-1.5056846,-9.00448,6.823475,-11.45865,0.45489833
6.0950236,4.6799765,-1.7925384,-1.5056846,-9.00448,6.823475,-11.45865,0.45489833
6.0855,4.677757,-1.8639112,-1.6015584,-9.459348,6.6510925,-11.549629,0.17238252
6.0759997,4.67552,-1.8639112,-1.6015584,-9.459348,6.6510925,-11.549629,0.17238252
6.066025,4.673144,-1.9352839,-1.7016933,-9.900368,6.555324,-11.659762,-0.16280572
6.0560856,4.6707497,-1.9352839,-1.7016933,-9.900368,6.555324,-11.659762,-0.16280572
6.0456862,4.668213,-2.0109177,-1.8060892,-10.329669,6.6510925,-11.942278,-0.19632454
6.035324,4.665654,-2.0109177,-1.8060892,-10.329669,6.6510925,-11.942278,-0.19632454
6.0245304,4.662946,-2.0876167,-1.9083546,-10.750448,6.540959,-12.148179,-0.33997664
6.013765,4.6602097,-2.0876167,-1.9083546,-10.750448,6.540959,-12.148179,-0.33997664
6.002582,4.6573234,-2.165381,-2.0106199,-11.160576,6.6175733,-12.679692,-0.29209262
5.99143,4.6544046,-2.165381,-2.0106199,-11.160576,6.6175733,-12.679692,-0.29209262
5.9798865,4.6513305,-2.2452757,-2.1107547,-11.5579195,6.4020953,-13.273455,-0.29209262
5.968343,4.6482115,-2.2452757,-2.1107547,-11.5579195,6.4020953,-13.273455,-0.29209262
5.956456,4.644943,-2.321975,-2.2140856,-11.938218,6.042965,-13.814544,-0.31124622
5.944598,4.641634,-2.321975,-2.2140856,-11.938218,6.042965,-13.814544,-0.31124622
5.9324512,4.6381826,-2.3933475,-2.3270035,-12.294017,5.559336,-14.513651,-0.047884032
5.920358,4.6346817,-2.3933475,-2.3270035,-12.294017,5.559336,-14.513651,-0.047884032
5.908032,4.6309824,-2.4519372,-2.4527047,-12.618922,4.673482,-15.088259,-0.019153614
5.89575,4.6272206,-2.4519372,-2.4527047,-12.618922,4.673482,-15.088259,-0.019153614
5.8832135,4.6232543,-2.4934824,-2.5869281,-12.901217,4.036624,-15.452178,-0.038307227
5.870731,4.619223,-2.4934824,-2.5869281,-12.901217,4.036624,-15.452178,-0.038307227
5.85794,4.6149535,-2.5179834,-2.7307386,-13.129184,3.098097,-15.9022875,-0.18195933
5.8446217,4.610409,-2.5179834,-2.7307386,-13.129184,3.098097,-15.9022875,-0.18195933
5.8325157,4.606145,-2.520114,-2.884137,-13.295365,2.566584,-15.95496,-0.4405331
5.819762,4.6015534,-2.520114,-2.884137,-13.295365,2.566584,-15.95496,-0.4405331
5.8069367,4.596779,-2.5041351,-3.0481875,-13.397631,1.9057846,-16.031574,-0.61770403
5.794107,4.5918884,-2.5041351,-3.0481875,-13.397631,1.9057846,-16.031574,-0.61770403
5.781295,4.5868273,-2.4721773,-3.219695,-13.438111,1.6998832,-16.050728,-0.7469909
5.768507,4.5816493,-2.4721773,-3.219695,-13.438111,1.6998832,-16.050728,-0.7469909
5.7557926,4.5762877,-2.4242404,-3.3986595,-13.4178705,1.2449849,-15.701175,-1.1779473
5.743106,4.5707984,-2.4242404,-3.3986595,-13.4178705,1.2449849,-15.701175,-1.1779473
5.73055,4.5651236,-2.3635201,-3.5882766,-13.345433,1.292869,-15.370775,-1.4987702
5.717962,4.5592804,-2.3635201,-3.5882766,-13.345433,1.292869,-15.370775,-1.4987702
5.7056656,4.553303,-2.2953432,-3.7853506,-13.227188,1.532289,-15.064317,-1.4748282
5.693355,4.5471506,-2.2953432,-3.7853506,-13.227188,1.532289,-15.064317,-1.4748282
5.681288,4.5408087,-2.2186441,-3.9877508,-13.0652685,1.8387469,-14.777013,-1.5945383
5.6692476,4.534299,-2.2186441,-3.9877508,-13.0652685,1.8387469,-14.777013,-1.5945383
5.65748,4.527585,-2.1355536,-4.1922817,-12.868195,2.4756045,-14.489709,-1.7429788
5.65748,4.527585,-2.1355536,-4.1922817,-12.868195,2.4756045,-14.489709,-1.7429788
5.65748,4.527585,-2.1355536,-4.1922817,-12.868195,2.4756045,-14.489709,-1.7429788
5.65748,4.527585,-2.0460713,-4.3936167,-12.647685,3.0358477,-14.211981,-1.8387469
5.65748,4.527585,-1.9512628,-4.587495,-12.416522,3.8067808,-13.776237,-1.9249382
5.65748,4.527585,-1.9512628,-4.587495,-12.416522,3.8067808,-13.776237,-1.9249382
5.5907927,4.4830217,-1.8521932,-4.7824383,-12.180034,4.074931,-12.98615,-2.183512
5.580469,4.475156,-1.8521932,-4.7824383,-12.180034,4.074931,-12.98615,-2.183512
5.5702524,4.4669604,-1.7531236,-4.9816427,-11.940349,8.944737,-12.287044,-2.2888567
5.5600166,4.458488,-1.7531236,-4.9816427,-11.940349,8.944737,-12.287044,-2.2888567
5.5501413,4.449758,-1.6465973,-5.17339,-11.7006645,-1.4796166,-16.816874,-1.1875241
5.540336,4.440807,-1.6465973,-5.17339,-11.7006645,-1.4796166,-16.816874,-1.1875241
5.530538,4.4313326,-1.4878728,-5.499361,-11.534483,12.545617,-7.675811,-3.98874
5.5209756,4.42177,-1.4878728,-5.499361,-11.534483,12.545617,-7.675811,-3.98874
5.5117464,4.4119053,-1.4111738,-5.6026917,-11.2724285,11.209652,-6.205771,-5.315128
5.5025697,4.401754,-1.4111738,-5.6026917,-11.2724285,11.209652,-6.205771,-5.315128
5.4937387,4.391605,-1.4420664,-5.5377107,-10.989068,14.700398,-6.670246,-4.074931
5.484962,4.3811707,-1.4420664,-5.5377107,-10.989068,14.700398,-6.670246,-4.074931
5.4764895,4.370683,-1.4995908,-5.4450326,-10.749383,15.370775,-8.001422,-2.9161377
5.4681025,4.3599443,-1.4995908,-5.4450326,-10.749383,15.370775,-8.001422,-2.9161377
5.4599676,4.34917,-1.5496582,-5.2724595,-10.519286,15.83525,-7.9152308,-2.8538885
5.4519277,4.338155,-1.5496582,-5.2724595,-10.519286,15.83525,-7.9152308,-2.8538885
5.4440885,4.327096,-1.5805508,-5.067929,-10.312625,16.529568,-6.4739213,-3.8355112
5.436353,4.315805,-1.5805508,-5.067929,-10.312625,16.529568,-6.4739213,-3.8355112
5.428798,4.3045716,-1.6210308,-4.8314404,-10.123008,16.802507,-6.6079965,-3.6056678
5.421347,4.293109,-1.6210308,-4.8314404,-10.123008,16.802507,-6.6079965,-3.6056678
5.414032,4.281681,-1.6742941,-4.578973,-9.960022,18.210299,-6.14831,-3.7588966
5.406813,4.2700124,-1.6742941,-4.578973,-9.960022,18.210299,-6.14831,-3.7588966
5.3996882,4.258419,-1.7307531,-4.294547,-9.821538,18.957289,-6.411672,-3.8019924
5.392666,4.2465963,-1.7307531,-4.294547,-9.821538,18.957289,-6.411672,-3.8019924
5.3856993,4.2348895,-1.7936037,-3.976033,-9.715012,20.140024,-6.090849,-3.8546648
5.378821,4.2229304,-1.7936037,-3.976033,-9.715012,20.140024,-6.090849,-3.8546648
5.371893,4.2110214,-1.8617806,-3.613843,-9.62979,20.326773,-5.5497594,-4.10845
5.36508,4.198902,-1.8617806,-3.613843,-9.62979,20.326773,-5.5497594,-4.10845
5.3581443,4.1868496,-1.9427407,-3.2122383,-9.571201,20.15439,-6.325481,-3.3901896
5.3515244,4.1749487,-1.9427407,-3.2122383,-9.571201,20.15439,-6.325481,-3.3901896
5.344717,4.163062,-2.0300925,-2.792524,-9.5424385,19.747375,-5.947197,-3.1747115
5.3379655,4.150865,-2.0300925,-2.792524,-9.5424385,19.747375,-5.947197,-3.1747115
5.33109,4.1388574,-2.117444,-2.365353,-9.531786,18.35395,-6.38773,-2.7964275
5.324317,4.126619,-2.117444,-2.365353,-9.531786,18.35395,-6.38773,-2.7964275
5.317379,4.114506,-2.2005348,-1.9488347,-9.5381775,16.850391,-6.789956,-2.384625
5.310563,4.102191,-2.2005348,-1.9488347,-9.5381775,16.850391,-6.789956,-2.384625
5.3036065,4.0900016,-2.2729728,-1.5578825,-9.5424385,14.896723,-7.1730285,-1.9440918
5.2967234,4.077514,-2.2729728,-1.5578825,-9.5424385,14.896723,-7.1730285,-1.9440918
5.289773,4.0652103,-2.326236,-1.1999537,-9.534982,13.144167,-7.8386164,-1.6376339
5.282888,4.052586,-2.326236,-1.1999537,-9.534982,13.144167,-7.8386164,-1.6376339
5.2759824,4.0401444,-2.350737,-0.88250494,-9.510481,11.319786,-8.422802,-1.541866
5.2691207,4.0273333,-2.350737,-0.88250494,-9.510481,11.319786,-8.422802,-1.541866
5.2622685,4.0146785,-2.3422148,-0.6066014,-9.467871,9.270349,-9.56723,-1.3215994
5.255487,4.0016947,-2.3422148,-0.6066014,-9.467871,9.270349,-9.56723,-1.3215994
5.248705,3.9888008,-2.294278,-0.3733085,-9.40502,7.632715,-9.749189,-1.6328455
5.242008,3.975593,-2.294278,-0.3733085,-9.40502,7.632715,-9.749189,-1.6328455
5.2353525,3.9624827,-2.2143831,-0.17836511,-9.312342,5.7365074,-9.624691,-2.0733786
5.2287693,3.9490228,-2.2143831,-0.17836511,-9.312342,5.7365074,-9.624691,-2.0733786
5.2222924,3.9357226,-2.1206398,-0.021771235,-9.18451,3.9743748,-9.284714,-2.2266076
5.2158875,3.9220667,-2.1206398,-0.021771235,-9.18451,3.9743748,-9.284714,-2.2266076
5.2095995,3.9085197,-2.027962,0.09327733,-9.02259,2.5617957,-9.23683,-1.8148049
5.2033978,3.8946395,-2.027962,0.09327733,-9.02259,2.5617957,-9.23683,-1.8148049
5.1973634,3.8808541,-1.9352839,0.16145425,-8.834038,1.5035586,-8.724471,-1.5945383
5.1914043,3.866706,-1.9352839,0.16145425,-8.834038,1.5035586,-8.724471,-1.5945383
5.185688,3.852702,-1.8404753,0.18595533,-8.6188545,0.36870706,-7.9343843,-1.6998832
5.180049,3.8383384,-1.8404753,0.18595533,-8.6188545,0.36870706,-7.9343843,-1.6998832
5.1746597,3.8240542,-1.7456669,0.16465004,-8.388758,-0.5363012,-7.7093296,-1.3215994
5.169362,3.8094444,-1.7456669,0.16465004,-8.388758,-0.5363012,-7.7093296,-1.3215994
5.164359,3.7949247,-1.6444666,0.10179944,-8.13842,-1.2066777,-7.216124,-1.2354081
5.1594405,3.7800603,-1.6444666,0.10179944,-8.13842,-1.2066777,-7.216124,-1.2354081
5.154874,3.7653973,-1.5315486,0.009121433,-7.863582,-1.4939818,-6.5505357,-1.3024458
5.150392,3.7504072,-1.5315486,0.009121433,-7.863582,-1.4939818,-6.5505357,-1.3024458
5.14627,3.7356348,-1.4079779,-0.09740501,-7.5621123,-1.8387469,-5.6551046,-1.6184803
5.1422415,3.7205863,-1.4079779,-0.09740501,-7.5621123,-1.8387469,-5.6551046,-1.6184803
5.1385818,3.7058258,-1.2812115,-0.20712726,-7.2297497,-2.006341,-4.6591167,-2.0159178
5.135028,3.690876,-1.2812115,-0.20712726,-7.2297497,-2.006341,-4.6591167,-2.0159178
5.1318593,3.6763291,-1.1587061,-0.31152317,-6.8601027,-1.7190368,-3.41892,-2.5617957
5.1287785,3.6615658,-1.1587061,-0.31152317,-6.8601027,-1.7190368,-3.41892,-2.5617957
5.1260805,3.647328,-1.0521797,-0.41059276,-6.4670205,-1.4700398,-2.657564,-2.96881
5.1234665,3.6329074,-1.0521797,-0.41059276,-6.4670205,-1.4700398,-2.657564,-2.96881
5.1212177,3.6189969,-0.96482795,-0.5075318,-6.06435,-0.34476504,-1.8674773,-3.169923
5.119065,3.6050491,-0.96482795,-0.5075318,-6.06435,-0.34476504,-1.8674773,-3.169923
5.1172338,3.5916557,-0.89238995,-0.59701407,-5.660615,1.436521,-1.1971009,-3.3039982
5.1154633,3.5780506,-0.89238995,-0.59701407,-5.660615,1.436521,-1.1971009,-3.3039982
5.1139855,3.5652628,-0.83380044,-0.65986466,-5.270728,2.6431987,-0.46926352,-3.371036
5.112566,3.5523207,-0.83380044,-0.65986466,-5.270728,2.6431987,-0.46926352,-3.371036
5.111337,3.5399175,-0.7879941,-0.70460576,-4.919191,4.596867,0.35434186,-3.2082303
5.110165,3.527392,-0.7879941,-0.70460576,-4.919191,4.596867,0.35434186,-3.2082303
5.109133,3.515384,-0.7581667,-0.7280416,-4.620917,5.8945246,0.90979666,-3.1507695
5.108163,3.5033762,-0.7581667,-0.7280416,-4.620917,5.8945246,0.90979666,-3.1507695
5.10729,3.491841,-0.7421877,-0.72165,-4.37271,7.0245876,1.5562311,-3.1747115
5.1064687,3.480268,-0.7421877,-0.72165,-4.37271,7.0245876,1.5562311,-3.1747115
5.105724,3.4691455,-0.7421877,-0.689692,-4.169245,7.4986396,1.6663644,-3.1411927
5.105027,3.4579828,-0.7421877,-0.689692,-4.169245,7.4986396,1.6663644,-3.1411927
5.1043825,3.4471812,-0.747514,-0.6406899,-3.999868,7.536947,1.7812861,-3.1842883
5.103785,3.4363997,-0.747514,-0.6406899,-3.999868,7.536947,1.7812861,-3.1842883
5.103217,3.4259155,-0.7539056,-0.5884919,-3.8581877,7.7811556,1.5993267,-3.2034419
5.1026897,3.4153917,-0.7539056,-0.5884919,-3.8581877,7.7811556,1.5993267,-3.2034419
5.10219,3.4051638,-0.7581667,-0.53309816,-3.7282255,7.714118,1.5179238,-3.265691
5.1017313,3.3949518,-0.7581667,-0.53309816,-3.7282255,7.714118,1.5179238,-3.265691
5.101288,3.3850117,-0.7602972,-0.47770444,-3.6078506,7.431602,1.2162545,-3.1316159
5.1008806,3.3750498,-0.7602972,-0.47770444,-3.6078506,7.431602,1.2162545,-3.1316159
5.1005015,3.36535,-0.7581667,-0.42337593,-3.4938672,7.1155677,1.2737153,-3.3087866
5.1001596,3.3556714,-0.7581667,-0.42337593,-3.4938672,7.1155677,1.2737153,-3.3087866
5.0998564,3.346281,-0.75284034,-0.3733085,-3.3809493,6.6079965,1.1109096,-3.5194764
5.099586,3.3368685,-0.75284034,-0.3733085,-3.3809493,6.6079965,1.1109096,-3.5194764
5.09935,3.3278198,-0.747514,-0.3253716,-3.26377,5.875371,0.94810385,-3.6296098
5.099145,3.318763,-0.747514,-0.3253716,-3.26377,5.875371,0.94810385,-3.6296098
5.09895,3.310028,-0.7357961,-0.27849996,-3.1359384,5.631162,1.0151415,-3.667917
5.098783,3.3012958,-0.7357961,-0.27849996,-3.1359384,5.631162,1.0151415,-3.667917
5.0986395,3.2929375,-0.7176866,-0.24228097,-3.0027802,5.1475334,1.0486604,-3.8019924
5.098521,3.2845588,-0.7176866,-0.24228097,-3.0027802,5.1475334,1.0486604,-3.8019924
5.098416,3.2765996,-0.69638133,-0.20712726,-2.8557737,5.094861,1.1587936,-3.916914
5.098334,3.2686224,-0.69638133,-0.20712726,-2.8557737,5.094861,1.1587936,-3.916914
5.098251,3.2610497,-0.6729455,-0.1666472,-2.6959841,4.999093,1.3551182,-3.8642416
5.0981884,3.2534757,-0.6729455,-0.1666472,-2.6959841,4.999093,1.3551182,-3.8642416
5.0981193,3.2463126,-0.64737916,-0.1251019,-2.5298028,4.9464207,1.5466543,-3.8355112
5.09807,3.239177,-0.64737916,-0.1251019,-2.5298028,4.9464207,1.5466543,-3.8355112
5.0980067,3.2324398,-0.6228781,-0.08462184,-2.3657522,4.960786,1.7621324,-3.7493198
5.0979605,3.225708,-0.6228781,-0.08462184,-2.3657522,4.960786,1.7621324,-3.7493198
5.0978937,3.2193685,-0.6005075,-0.04201126,-2.2048972,4.9416323,1.9967642,-3.6727054
5.097843,3.213028,-0.6005075,-0.04201126,-2.2048972,4.9416323,1.9967642,-3.6727054
5.097767,3.207106,-0.5802675,0.003795111,-2.0483034,4.8841715,2.1978772,-3.643975
5.0977035,3.201171,-0.5802675,0.003795111,-2.0483034,4.8841715,2.1978772,-3.643975
5.097606,3.1956072,-0.56322324,0.05173201,-1.8970357,4.7740383,2.528277,-3.53863
5.0975194,3.1900468,-0.56322324,0.05173201,-1.8970357,4.7740383,2.528277,-3.53863
5.097403,3.1848528,-0.5504401,0.100734174,-1.7510946,4.2664676,2.72939,-3.5003228
5.097297,3.1796768,-0.5504401,0.100734174,-1.7510946,4.2664676,2.72939,-3.5003228
5.0971537,3.17486,-0.53872216,0.14867108,-1.6040881,4.2999864,2.930503,-3.5003228
5.097019,3.170045,-0.53872216,0.14867108,-1.6040881,4.2999864,2.930503,-3.5003228
5.096855,3.165566,-0.52700424,0.18595533,-1.466669,4.6255975,3.2082303,-3.6583402
5.096698,3.161079,-0.52700424,0.18595533,-1.466669,4.6255975,3.2082303,-3.6583402
5.0965185,3.1569295,-0.5174169,0.21897852,-1.342033,4.663905,3.4284968,-3.8067808
5.096344,3.1527603,-0.5174169,0.21897852,-1.342033,4.663905,3.4284968,-3.8067808
5.096139,3.1488893,-0.5110253,0.25626278,-1.2248539,4.7165775,3.6822822,-3.9791632
5.0959406,3.1450145,-0.5110253,0.25626278,-1.2248539,4.7165775,3.6822822,-3.9791632
5.095704,3.141397,-0.50996006,0.29674283,-1.1161969,4.855441,3.7110126,-3.9743748
5.095473,3.137768,-0.50996006,0.29674283,-1.1161969,4.855441,3.7110126,-3.9743748
5.0952034,3.1343715,-0.5131558,0.34148395,-1.0139315,4.4244847,3.916914,-4.175488
5.0949426,3.1310313,-0.5131558,0.34148395,-1.0139315,4.4244847,3.916914,-4.175488
5.0946426,3.1279166,-0.52061266,0.3851598,-0.919123,4.462792,3.9935284,-4.271256
5.0943437,3.1247754,-0.52061266,0.3851598,-0.919123,4.462792,3.9935284,-4.271256
5.0940037,3.121839,-0.53446114,0.42777038,-0.8296408,4.534618,4.122815,-4.357447
5.0936656,3.118889,-0.53446114,0.42777038,-0.8296408,4.534618,4.122815,-4.357447
5.093276,3.1161435,-0.5536359,0.4799683,-0.7369628,4.3861775,4.1946416,-4.3382936
5.0928893,3.1134014,-0.5536359,0.4799683,-0.7369628,4.3861775,4.1946416,-4.3382936
5.092454,3.1108646,-0.578137,0.5342968,-0.64321953,3.8259344,3.787627,-4.1371803
5.0920196,3.1083205,-0.578137,0.5342968,-0.64321953,3.8259344,3.787627,-4.1371803
5.0915384,3.105984,-0.598377,0.583299,-0.5516068,3.5529952,3.7253778,-4.1132383
5.091058,3.1036377,-0.598377,0.583299,-0.5516068,3.5529952,3.7253778,-4.1132383
5.0905514,3.1015112,-0.61542124,0.61419165,-0.46212456,3.2082303,3.5003228,-4.0222588
5.090044,3.0993736,-0.61542124,0.61419165,-0.46212456,3.2082303,3.5003228,-4.0222588
5.0895233,3.0974658,-0.62607384,0.63230115,-0.36944655,2.882619,3.241749,-4.0318356
5.0890017,3.0955517,-0.62607384,0.63230115,-0.36944655,2.882619,3.241749,-4.0318356
5.08848,3.093879,-0.63140017,0.6354969,-0.2778338,2.681506,2.9017725,-3.8881836
5.0878954,3.0919962,-0.63140017,0.6354969,-0.2778338,2.681506,2.9017725,-3.8881836
5.087431,3.0906572,-0.6324654,0.6216485,-0.19580843,2.6001031,2.7629087,-3.8067808
5.087431,3.0906572,-0.6324654,0.6216485,-0.19580843,2.6001031,2.7629087,-3.8067808
5.087431,3.0906572,-0.6324654,0.6216485,-0.19580843,2.6001031,2.7629087,-3.8067808
5.087431,3.0906572,-0.6324654,0.6216485,-0.19580843,2.6001031,2.7629087,-3.8067808
5.08539,3.084729,-0.6324654,0.6216485,-0.19580843,2.6001031,2.7629087,-3.8067808
5.084904,3.0836298,-0.6218128,0.5641242,-0.036018763,2.384625,2.1404164,-3.6774938
5.0845504,3.0829287,-0.60902965,0.51725256,0.03428869,2.3175871,1.8052281,-3.490746
5.0841455,3.0821264,-0.60902965,0.51725256,0.03428869,2.3175871,1.8052281,-3.490746
5.0837965,3.081553,-0.59092015,0.46185884,0.10140035,2.3942018,1.4748282,-3.41892
5.083447,3.080979,-0.59092015,0.46185884,0.10140035,2.3942018,1.4748282,-3.41892
5.083157,3.0806568,-0.56641906,0.4000735,0.17170781,2.4756045,1.1109096,-3.289633
5.0828657,3.0803332,-0.56641906,0.4000735,0.17170781,2.4756045,1.1109096,-3.289633
5.082635,3.08025,-0.53659165,0.33722287,0.24201526,2.5234885,0.93852705,-3.2082303
5.082404,3.0801673,-0.53659165,0.33722287,0.24201526,2.5234885,0.93852705,-3.2082303
5.0822334,3.0803447,-0.50250316,0.27330703,0.31658378,2.552219,0.78529817,-3.241749
5.0820622,3.0805225,-0.50250316,0.27330703,0.31658378,2.552219,0.78529817,-3.241749
5.0819473,3.0809658,-0.46415368,0.21152169,0.40180492,2.5570073,0.79487497,-3.2130187
5.081833,3.0814095,-0.46415368,0.21152169,0.40180492,2.5570073,0.79487497,-3.2130187
5.081775,3.082171,-0.4268694,0.15186687,0.49128714,2.336741,0.51714754,-3.0933087
5.081717,3.082933,-0.4268694,0.15186687,0.49128714,2.336741,0.51714754,-3.0933087
5.0817156,3.0839858,-0.38851988,0.0911468,0.5839651,2.336741,0.49799395,-3.1364043
5.0817146,3.0850384,-0.38851988,0.0911468,0.5839651,2.336741,0.49799395,-3.1364043
5.081769,3.0864182,-0.34697458,0.029361458,0.6851653,2.4756045,0.3878607,-3.0933087
5.0818233,3.0877974,-0.34697458,0.029361458,0.6851653,2.4756045,0.3878607,-3.0933087
5.0819316,3.0894985,-0.30542925,-0.028162822,0.79062647,2.6192567,0.3878607,-3.1890767
5.082041,3.0911982,-0.30542925,-0.028162822,0.79062647,2.6192567,0.3878607,-3.1890767
5.082201,3.093235,-0.2617534,-0.08462184,0.8992834,2.8443117,0.35434186,-3.2369606
5.0823636,3.095265,-0.2617534,-0.08462184,0.8992834,2.8443117,0.35434186,-3.2369606
5.0825753,3.0976486,-0.21807757,-0.14001559,1.0036794,3.241749,0.1388637,-3.1794999
5.0827894,3.100029,-0.21807757,-0.14001559,1.0036794,3.241749,0.1388637,-3.1794999
5.083052,3.1026955,-0.17120594,-0.19221355,1.0931616,3.8738184,0.10055647,-3.2321723
5.0833178,3.1053572,-0.17120594,-0.19221355,1.0931616,3.8738184,0.10055647,-3.2321723
5.0836296,3.1082497,-0.124334306,-0.24121572,1.1624037,4.572925,0.07182605,-3.3183637
5.0839453,3.1111388,-0.124334306,-0.24121572,1.1624037,4.572925,0.07182605,-3.3183637
5.084304,3.1142013,-0.08065846,-0.2838263,1.2103406,4.88896,0.019153614,-3.241749
5.0846663,3.117256,-0.08065846,-0.2838263,1.2103406,4.88896,0.019153614,-3.241749
5.085066,3.1203954,-0.043374203,-0.32111055,1.2305807,5.535394,0.019153614,-3.0885203
5.0854707,3.123535,-0.043374203,-0.32111055,1.2305807,5.535394,0.019153614,-3.0885203
5.0859118,3.126697,-0.0114162695,-0.35626426,1.2252543,5.7748146,-0.02873042,-2.9352913
5.086356,3.1298513,-0.0114162695,-0.35626426,1.2252543,5.7748146,-0.02873042,-2.9352913
5.086835,3.132791,0.020541664,-0.39248326,1.1986227,6.4404025,0.29209262,-3.0310593
5.0873165,3.1357212,0.020541664,-0.39248326,1.1986227,6.4404025,0.29209262,-3.0310593
5.087838,3.1388116,0.047173277,-0.42657173,1.1624037,6.349423,-0.110133275,-2.9017725
5.0883656,3.1418948,0.047173277,-0.42657173,1.1624037,6.349423,-0.110133275,-2.9017725
5.0889254,3.1446714,0.06847856,-0.4606602,1.1240542,6.885724,0.18674773,-3.1172507
5.0894895,3.1474388,0.06847856,-0.4606602,1.1240542,6.885724,0.18674773,-3.1172507
5.0900908,3.1501982,0.091914386,-0.4904876,1.0867699,6.6367273,0.08140286,-3.1172507
5.0906954,3.1529496,0.091914386,-0.4904876,1.0867699,6.6367273,0.08140286,-3.1172507
5.09133,3.1557994,0.11428493,-0.520315,1.0548121,6.517017,-0.21547815,-3.098097
5.091969,3.158642,0.11428493,-0.520315,1.0548121,6.517017,-0.21547815,-3.098097
5.09264,3.1612802,0.14091654,-0.54907715,1.0324415,6.9623384,0.05746084,-3.3901896
5.0933137,3.1639102,0.14091654,-0.54907715,1.0324415,6.9623384,0.05746084,-3.3901896
5.0940156,3.1665678,0.17074396,-0.572513,1.0196583,6.5840545,-0.023942016,-3.5434184
5.094721,3.169216,0.17074396,-0.572513,1.0196583,6.5840545,-0.023942016,-3.5434184
5.0954514,3.1718428,0.19737557,-0.59381825,1.0207236,6.459556,0.1340753,-3.7205894
5.0961823,3.1744547,0.19737557,-0.59381825,1.0207236,6.459556,0.1340753,-3.7205894
5.0969434,3.1771214,0.22187665,-0.6193846,1.0377678,6.6606693,0.12928689,-3.739743
5.097704,3.1797647,0.22187665,-0.6193846,1.0377678,6.6606693,0.12928689,-3.739743
5.0984845,3.182426,0.24531247,-0.64175516,1.0697258,7.062895,0.39743748,-3.8738184
5.099267,3.1850712,0.24531247,-0.64175516,1.0697258,7.062895,0.39743748,-3.8738184
5.1000676,3.1878102,0.26768303,-0.6587994,1.1176627,7.1730285,0.60333884,-3.9456444
5.1008687,3.1905272,0.26768303,-0.6587994,1.1176627,7.1730285,0.60333884,-3.9456444
5.1016836,3.1933827,0.28472725,-0.67051727,1.1783828,7.1969705,0.59855044,-3.9264908
5.102503,3.1962323,0.28472725,-0.67051727,1.1783828,7.1969705,0.59855044,-3.9264908
5.1033363,3.1992211,0.29964095,-0.68436575,1.2465596,7.4986396,0.5506664,-3.8402996
5.1041727,3.2021945,0.29964095,-0.68436575,1.2465596,7.4986396,0.5506664,-3.8402996
5.105011,3.2052867,0.31775045,-0.6971489,1.3168671,8.00621,0.6991069,-3.8881836
5.1058536,3.2083669,0.31775045,-0.6971489,1.3168671,8.00621,0.6991069,-3.8881836
5.106715,3.2116153,0.33479467,-0.7099321,1.3903704,8.221688,0.7469909,-4.0462008
5.107581,3.2148538,0.33479467,-0.7099321,1.3903704,8.221688,0.7469909,-4.0462008
5.1084566,3.218247,0.35077363,-0.72165,1.4649389,8.542512,0.7757214,-4.060566
5.109335,3.2216196,0.35077363,-0.72165,1.4649389,8.542512,0.7757214,-4.060566
5.110226,3.225172,0.36675262,-0.725911,1.5373769,8.868123,0.80924016,-4.1802764
5.1111164,3.228686,0.36675262,-0.725911,1.5373769,8.868123,0.80924016,-4.1802764
5.111992,3.2323487,0.37740526,-0.72165,1.606619,9.337387,0.8619126,-4.1611223
5.112872,3.2359986,0.37740526,-0.72165,1.606619,9.337387,0.8619126,-4.1611223
5.113739,3.2397964,0.38699263,-0.70886683,1.6737307,9.524135,0.90021986,-4.1419687
5.114612,3.2435858,0.38699263,-0.70886683,1.6737307,9.524135,0.90021986,-4.1419687
5.115473,3.2475033,0.39338422,-0.6939531,1.7376466,9.562442,0.7134721,-4.0940847
5.1163406,3.2514124,0.39338422,-0.6939531,1.7376466,9.562442,0.7134721,-4.0940847
5.1171904,3.2554688,0.3976453,-0.6737131,1.7983667,9.902418,0.63206923,-4.1419687
5.118056,3.2595534,0.3976453,-0.6737131,1.7983667,9.902418,0.63206923,-4.1419687
5.1189013,3.2637217,0.4029716,-0.64814675,1.860152,9.950302,0.51235914,-4.19943
5.1197653,3.2679355,0.4029716,-0.64814675,1.860152,9.950302,0.51235914,-4.19943
5.1205807,3.2721264,0.4061674,-0.6193846,1.9219373,10.070012,0.36870706,-4.2425256
5.121416,3.2763698,0.4061674,-0.6193846,1.9219373,10.070012,0.36870706,-4.2425256
5.122241,3.280777,0.40723267,-0.5863614,1.9837227,10.275913,0.272939,-4.3526587
5.1230736,3.2851675,0.40723267,-0.5863614,1.9837227,10.275913,0.272939,-4.3526587
5.1238728,3.2897017,0.40723267,-0.5480119,2.0444427,10.117896,-0.05267244,-4.256891
5.1246796,3.2942238,0.40723267,-0.5480119,2.0444427,10.117896,-0.05267244,-4.256891
5.1254506,3.2988973,0.40829793,-0.51072764,2.106228,10.275913,-0.24899697,-4.295198
5.126231,3.3035574,0.40829793,-0.51072764,2.106228,10.275913,-0.24899697,-4.295198
5.126967,3.308452,0.41255897,-0.4723781,2.1680133,10.314221,-0.36870706,-4.189853
5.127711,3.313304,0.41255897,-0.4723781,2.1680133,10.314221,-0.36870706,-4.189853
5.1284313,3.3185718,0.41682005,-0.44042018,2.2287335,10.170568,-0.770933,-4.0701427
5.129163,3.3238132,0.41682005,-0.44042018,2.2287335,10.170568,-0.770933,-4.0701427
5.1299,3.3292496,0.42747268,-0.4159191,2.2851925,10.510546,-1.0342951,-3.9217024
5.130649,3.3346682,0.42747268,-0.4159191,2.2851925,10.510546,-1.0342951,-3.9217024
5.1314306,3.340312,0.44451693,-0.40313593,2.3405862,10.419566,-1.3359646,-3.9695864
5.132225,3.3459382,0.44451693,-0.40313593,2.3405862,10.419566,-1.3359646,-3.9695864
5.13304,3.351675,0.46582222,-0.39887485,2.39598,10.529699,-1.5945383,-3.8067808
5.133868,3.357396,0.46582222,-0.39887485,2.39598,10.529699,-1.5945383,-3.8067808
5.1347427,3.363319,0.49351907,-0.3967443,2.4588306,10.5440645,-2.0207062,-3.8019924
5.1356273,3.3692024,0.49351907,-0.3967443,2.4588306,10.5440645,-2.0207062,-3.8019924
5.136555,3.3752668,0.52973807,-0.39567906,2.5302033,10.515334,-2.3798366,-3.8355112
5.137501,3.3813272,0.52973807,-0.39567906,2.5302033,10.515334,-2.3798366,-3.8355112
5.1384816,3.3875606,0.5734139,-0.39567906,2.6122286,10.582372,-2.6384103,-3.821146
5.139479,3.3937764,0.5734139,-0.39567906,2.6122286,10.582372,-2.6384103,-3.821146
5.140522,3.400252,0.62348133,-0.38822222,2.710233,10.611102,-2.6048915,-4.0318356
5.1415744,3.4066632,0.62348133,-0.38822222,2.710233,10.611102,-2.6048915,-4.0318356
5.142668,3.41338,0.674614,-0.37117797,2.8274121,10.46745,-2.7485435,-3.9791632
5.143779,3.4200683,0.674614,-0.37117797,2.8274121,10.46745,-2.7485435,-3.9791632
5.1449137,3.427039,0.7225509,-0.3434811,2.9616354,10.443508,-2.7246015,-3.9839516
5.1460724,3.4340003,0.7225509,-0.3434811,2.9616354,10.443508,-2.7246015,-3.9839516
5.147263,3.4412913,0.7694226,-0.30939263,3.1118376,10.213664,-2.815581,-3.8977604
5.1484704,3.44852,0.7694226,-0.30939263,3.1118376,10.213664,-2.815581,-3.8977604
5.149722,3.456141,0.81522894,-0.2742389,3.2726927,10.041282,-2.9831753,-3.7493198
5.150991,3.463688,0.81522894,-0.2742389,3.2726927,10.041282,-2.9831753,-3.7493198
5.152308,3.4716327,0.8621006,-0.23801991,3.4410045,9.969456,-2.906561,-3.7541082
5.1536436,3.4794977,0.8621006,-0.23801991,3.4410045,9.969456,-2.906561,-3.7541082
5.1550283,3.4877453,0.9111028,-0.2028662,3.6157079,9.9790325,-2.9735985,-3.6391866
5.1564436,3.4959645,0.9111028,-0.2028662,3.6157079,9.9790325,-2.9735985,-3.6391866
5.1579046,3.504515,0.9611702,-0.16558194,3.7957375,10.103531,-3.098097,-3.572149
5.159397,3.5130255,0.9611702,-0.16558194,3.7957375,10.103531,-3.098097,-3.572149
5.160956,3.521925,1.0123029,-0.12829769,3.9757671,10.170568,-3.2273839,-3.5577838
5.16254,3.530727,1.0123029,-0.12829769,3.9757671,10.170568,-3.2273839,-3.5577838
5.1641965,3.5399053,1.0645008,-0.091013424,4.1526012,10.338163,-3.4141316,-3.6008794
5.1658897,3.5490339,1.0645008,-0.091013424,4.1526012,10.338163,-3.4141316,-3.6008794
5.167652,3.5584652,1.1166987,-0.0558597,4.325174,10.31901,-3.5434184,-3.5913026
5.1694536,3.567842,1.1166987,-0.0558597,4.325174,10.31901,-3.5434184,-3.5913026
5.171327,3.5775383,1.1688968,-0.018575443,4.4956164,10.366894,-3.5577838,-3.5482068
5.1732426,3.587174,1.1688968,-0.018575443,4.4956164,10.366894,-3.5577838,-3.5482068
5.1752353,3.597093,1.2168336,0.020839343,4.6692543,10.189722,-3.6248214,-3.5290532
5.177273,3.6069462,1.2168336,0.020839343,4.6692543,10.189722,-3.6248214,-3.5290532
5.179401,3.6171367,1.2637053,0.06664571,4.8460884,9.974244,-4.0414124,-3.2369606
5.181564,3.627195,1.2637053,0.06664571,4.8460884,9.974244,-4.0414124,-3.2369606
5.1838174,3.6375966,1.3159032,0.117778406,5.027183,9.878476,-4.0318356,-3.2513258
5.1861215,3.6479201,1.3159032,0.117778406,5.027183,9.878476,-4.0318356,-3.2513258
5.188506,3.6585186,1.3734275,0.17423743,5.2093434,9.868899,-3.98874,-3.4284968
5.1909485,3.6690545,1.3734275,0.17423743,5.2093434,9.868899,-3.98874,-3.4284968
5.193479,3.6799073,1.4362781,0.2349575,5.3851123,9.873688,-3.9791632,-3.442862
5.196049,3.6906047,1.4362781,0.2349575,5.3851123,9.873688,-3.9791632,-3.442862
5.1986976,3.7016213,1.5033898,0.3073955,5.5566196,9.768343,-3.8019924,-3.3997664
5.201556,3.7131476,1.5033898,0.3073955,5.5566196,9.768343,-3.8019924,-3.3997664
5.2041597,3.723684,1.5694362,0.39155138,5.72067,9.629479,-3.371036,-3.5673606
5.2069683,3.734723,1.5694362,0.39155138,5.72067,9.629479,-3.371036,-3.5673606
5.2098064,3.7459729,1.629091,0.4842294,5.876199,9.198523,-2.8203697,-3.5673606
5.212694,3.757078,1.629091,0.4842294,5.876199,9.198523,-2.8203697,-3.5673606
5.2156453,3.768404,1.673832,0.57584214,6.0200095,8.853758,-2.7389667,-3.3183637
5.219282,3.7818928,1.673832,0.57584214,6.0200095,8.853758,-2.7389667,-3.3183637
5.219282,3.7818928,1.7079206,0.6578675,6.142515,8.973468,-3.217807,-2.9640217
5.2241974,3.79971,1.7079206,0.6578675,6.142515,8.973468,-3.217807,-2.9640217
5.2283573,3.8141522,1.7079206,0.6578675,6.142515,8.973468,-3.217807,-2.9640217
5.231624,3.8252819,1.7377479,0.7303055,6.2373238,9.32781,-4.0653543,-2.6288335
5.234931,3.8363996,1.7750323,0.8006129,6.3086963,9.5385,-4.999093,-2.3654714
5.234931,3.8363996,1.7750323,0.8006129,6.3086963,9.5385,-4.999093,-2.3654714
5.2417355,3.8583794,1.830426,0.8698551,6.360894,9.591172,-5.5497594,-2.432509
5.245266,3.8694687,1.830426,0.8698551,6.360894,9.591172,-5.5497594,-2.432509
5.2488613,3.8806548,1.9007335,0.93803203,6.4024396,9.203311,-6.114791,-2.3463178
5.2523537,3.8912125,1.9007335,0.93803203,6.4024396,9.203311,-6.114791,-2.3463178
5.2560673,3.9023454,1.975302,1.006209,6.4450502,8.7771435,-6.4882865,-2.408567
5.2600193,3.9138465,1.975302,1.006209,6.4450502,8.7771435,-6.4882865,-2.408567
5.2638564,3.9248848,2.052001,1.0722554,6.4983134,8.130709,-6.727707,-2.432509
5.2677293,3.9357128,2.052001,1.0722554,6.4983134,8.130709,-6.727707,-2.432509
5.2717085,3.9467006,2.1276348,1.1329755,6.5643597,7.8146744,-6.588843,-2.6384103
5.2757673,3.9575944,2.1276348,1.1329755,6.5643597,7.8146744,-6.588843,-2.6384103
5.279894,3.9684944,2.196877,1.1873039,6.6485157,7.493851,-6.540959,-2.7150247
5.284076,3.979235,2.196877,1.1873039,6.6485157,7.493851,-6.540959,-2.7150247
5.2883673,3.990049,2.2554665,1.2341756,6.74652,7.455544,-6.435614,-2.825158
5.292717,4.0007124,2.2554665,1.2341756,6.74652,7.455544,-6.435614,-2.825158
5.2971835,4.0114174,2.3044686,1.2714598,6.850916,7.3885064,-6.4499793,-2.8634653
5.3017077,4.02197,2.3044686,1.2714598,6.850916,7.3885064,-6.4499793,-2.8634653
5.3063564,4.032539,2.3470793,1.3002219,6.9531813,7.469909,-6.2345014,-3.0262709
5.311063,4.0429535,2.3470793,1.3002219,6.9531813,7.469909,-6.2345014,-3.0262709
5.315877,4.053364,2.3854287,1.316201,7.043729,8.0684595,-6.090849,-3.145981
5.3207474,4.063619,2.3854287,1.316201,7.043729,8.0684595,-6.090849,-3.145981
5.3257303,4.073826,2.4205825,1.3215272,7.1161666,8.303091,-5.8083334,-3.3279405
5.3307676,4.0838785,2.4205825,1.3215272,7.1161666,8.303091,-5.8083334,-3.3279405
5.335853,4.0938764,2.4482794,1.3236578,7.172626,8.896853,-5.497087,-3.4763808
5.3409805,4.1037235,2.4482794,1.3236578,7.172626,8.896853,-5.497087,-3.4763808
5.346071,4.1133723,2.4695847,1.3215272,7.210975,8.954314,-5.1810527,-3.4620156
5.351191,4.1228337,2.4695847,1.3215272,7.210975,8.954314,-5.1810527,-3.4620156
5.3570704,4.1332345,2.4781067,1.3119398,7.2322807,9.059659,-4.6495395,-3.5673606
5.36166,4.1411533,2.4781067,1.3119398,7.2322807,9.059659,-4.6495395,-3.5673606
5.368003,4.1517415,2.474911,1.2948956,7.240803,9.165004,-4.146757,-3.6727054
5.373242,4.160268,2.474911,1.2948956,7.240803,9.165004,-4.146757,-3.6727054
5.378113,4.167933,2.4610624,1.2650682,7.2439985,9.02614,-3.5242648,-3.8163576
5.3832026,4.1757793,2.4610624,1.2650682,7.2439985,9.02614,-3.5242648,-3.8163576
5.3886495,4.183863,2.4323003,1.2288493,7.249325,8.451532,-2.954445,-3.964798
5.3942113,4.1919413,2.4323003,1.2288493,7.249325,8.451532,-2.954445,-3.964798
5.3998475,4.199813,2.3875592,1.1873039,7.263173,8.283937,-2.5761611,-4.1180267
5.405524,4.2075753,2.3875592,1.1873039,7.263173,8.283937,-2.5761611,-4.1180267
5.4112887,4.215136,2.3321655,1.1457586,7.295131,8.111555,-2.5187001,-4.2425256
5.4170866,4.222584,2.3321655,1.1457586,7.295131,8.111555,-2.5187001,-4.2425256
5.4229946,4.229841,2.2703803,1.1063439,7.35159,7.8050976,-2.4229321,-4.429273
5.428933,4.23699,2.2703803,1.1063439,7.35159,7.8050976,-2.4229321,-4.429273
5.435,4.2439747,2.2064643,1.0743859,7.438942,7.503428,-2.3175871,-4.5202527
5.441096,4.250853,2.2064643,1.0743859,7.438942,7.503428,-2.3175871,-4.5202527
5.4473343,4.2575912,2.1404178,1.0477543,7.5539904,7.541735,-2.2218192,-4.5872903
5.4536057,4.2642317,2.1404178,1.0477543,7.5539904,7.541735,-2.2218192,-4.5872903
5.460044,4.2707434,2.0690453,1.0317754,7.7031274,7.4363904,-2.3894134,-4.6160207
5.466501,4.2771463,2.0690453,1.0317754,7.7031274,7.4363904,-2.3894134,-4.6160207
5.473153,4.2834587,1.9944767,1.0253837,7.874635,7.5848308,-2.5953147,-4.548983
5.479817,4.2896576,1.9944767,1.0253837,7.874635,7.5848308,-2.5953147,-4.548983
5.4866953,4.295782,1.9188429,1.0349711,8.068513,7.575254,-2.906561,-4.5441947
5.4935837,4.301795,1.9188429,1.0349711,8.068513,7.575254,-2.906561,-4.5441947
5.5007076,4.3077435,1.8410786,1.0605375,8.290089,7.345411,-3.3423057,-4.5777135
5.507855,4.3135924,1.8410786,1.0605375,8.290089,7.345411,-3.3423057,-4.5777135
5.515245,4.3193793,1.7675754,1.0892996,8.526577,7.067683,-3.916914,-4.486734
5.5226655,4.3250723,1.7675754,1.0892996,8.526577,7.067683,-3.916914,-4.486734
5.530336,4.330697,1.6993984,1.1159312,8.780109,6.8522053,-4.4436383,-4.548983
5.5380344,4.336226,1.6993984,1.1159312,8.780109,6.8522053,-4.4436383,-4.548983
5.546033,4.3417025,1.6354825,1.139367,9.050687,6.445191,-5.3103395,-4.534618
5.5540504,4.347077,1.6354825,1.139367,9.050687,6.445191,-5.3103395,-4.534618
5.5624,4.352414,1.5800889,1.159607,9.336178,5.7604494,-6.181829,-4.3478703
5.5707674,4.357647,1.5800889,1.159607,9.336178,5.7604494,-6.181829,-4.3478703
5.5794725,4.3628488,1.5428046,1.1659986,9.644039,5.1906295,-6.540959,-4.381389
5.5881963,4.3679457,1.5428046,1.1659986,9.644039,5.1906295,-6.540959,-4.381389
5.597269,4.373027,1.5289562,1.1649333,9.971076,4.8027687,-6.8330517,-4.2760444
5.60636,4.378002,1.5289562,1.1649333,9.971076,4.8027687,-6.8330517,-4.2760444
5.615822,4.38299,1.5417393,1.1659986,10.33007,4.8267107,-7.1730285,-4.050989
5.62531,4.3878756,1.5417393,1.1659986,10.33007,4.8267107,-7.1730285,-4.050989
5.6351748,4.3928113,1.5960678,1.1745207,10.709304,5.3678,-7.6231384,-3.7684734
5.645035,4.3976283,1.5960678,1.1745207,10.709304,5.3678,-7.6231384,-3.7684734
5.65517,4.4025435,1.7121816,1.1990218,11.088538,6.7324953,-7.762002,-3.5625722
5.6653285,4.40736,1.7121816,1.1990218,11.088538,6.7324953,-7.762002,-3.5625722
5.6757426,4.412434,1.9017987,1.2703946,11.435814,8.456321,-7.599196,-3.4811692
5.6861787,4.417401,1.9017987,1.2703946,11.435814,8.456321,-7.599196,-3.4811692
5.6968737,4.4226747,2.1627884,1.3992915,11.726631,8.781932,-7.3166804,-3.3518825
5.7075934,4.4278383,2.1627884,1.3992915,11.726631,8.781932,-7.3166804,-3.3518825
5.7185125,4.4333534,2.4738457,1.5739949,11.958859,8.317456,-7.1347213,-3.217807
5.729458,4.438757,2.4738457,1.5739949,11.958859,8.317456,-7.1347213,-3.217807
5.7405643,4.444525,2.809404,1.767873,12.149541,7.5225816,-6.8809357,-3.064578
5.7516985,4.45018,2.809404,1.767873,12.149541,7.5225816,-6.8809357,-3.064578
5.7629833,4.4561977,3.1428318,1.9681427,12.3285055,6.191406,-6.9623384,-2.5809495
5.774309,4.4621067,3.1428318,1.9681427,12.3285055,6.191406,-6.9623384,-2.5809495
5.785777,4.468399,3.4517584,2.1630862,12.514927,4.960786,-7.2831616,-1.8579005
5.7972636,4.4745603,3.4517584,2.1630862,12.514927,4.960786,-7.2831616,-1.8579005
5.8090305,4.4811153,3.7308578,2.3452463,12.716262,4.3718123,-7.469909,-1.2880806
5.8208137,4.487544,3.7308578,2.3452463,12.716262,4.3718123,-7.469909,-1.2880806
5.8328714,4.4942303,3.9748032,2.5231454,12.925054,3.9360676,-7.9248075,-0.9816227
5.844951,4.5007977,3.9748032,2.5231454,12.925054,3.9360676,-7.9248075,-0.9816227
5.857246,4.507551,4.1729426,2.7095668,13.122128,3.7828386,-8.42759,-0.866701
5.8695774,4.514195,4.1729426,2.7095668,13.122128,3.7828386,-8.42759,-0.866701
5.882123,4.5209627,4.327406,2.9098365,13.302157,3.3997664,-9.394848,-0.8475474
5.8946853,4.527611,4.327406,2.9098365,13.302157,3.3997664,-9.394848,-0.8475474
5.907428,4.5343556,4.44565,3.120759,13.453425,3.2034419,-10.213664,-0.8523358
5.9202147,4.540995,4.44565,3.120759,13.453425,3.2034419,-10.213664,-0.8523358
5.933124,4.5476627,4.529806,3.339138,13.57167,3.0071173,-11.133038,-1.1252748
5.946081,4.554227,4.529806,3.339138,13.57167,3.0071173,-11.133038,-1.1252748
5.959132,4.560808,4.590526,3.5553868,13.65263,2.5761611,-12.172121,-1.067814
5.9722195,4.567281,4.590526,3.5553868,13.65263,2.5761611,-12.172121,-1.067814
5.9853587,4.5737543,4.638463,3.7567217,13.694175,2.5617957,-13.297397,-1.1300632
5.998534,4.580121,4.638463,3.7567217,13.694175,2.5617957,-13.297397,-1.1300632
6.0117,4.586502,4.6853347,3.9420779,13.69524,2.906561,-14.489709,-0.90500826
6.024899,4.5927815,4.6853347,3.9420779,13.69524,2.906561,-14.489709,-0.90500826
6.0380406,4.599066,4.735402,4.1050634,13.651565,3.5098996,-15.20797,-1.0773908
6.0512004,4.6052556,4.735402,4.1050634,13.651565,3.5098996,-15.20797,-1.0773908
6.064146,4.611411,4.7876,4.246743,13.547169,4.453215,-15.619772,-1.0534488
6.0771055,4.6174583,4.7876,4.246743,13.547169,4.453215,-15.619772,-1.0534488
6.089889,4.623459,4.823819,4.370314,13.359682,5.5018754,-15.662868,-0.63206923
6.1027,4.629363,4.823819,4.370314,13.359682,5.5018754,-15.662868,-0.63206923
6.115264,4.635206,4.827015,4.478971,13.079517,6.655881,-14.944607,0.2777274
6.1278563,4.6409626,4.827015,4.478971,13.079517,6.655881,-14.944607,0.2777274
6.1401057,4.64661,4.7780128,4.5727143,12.697087,7.3885064,-13.737929,1.5945383
6.152383,4.652177,4.7780128,4.5727143,12.697087,7.3885064,-13.737929,1.5945383
6.164222,4.6575747,4.66616,4.660066,12.213457,7.489063,-11.9135475,2.4947581
6.176064,4.6628895,4.66616,4.660066,12.213457,7.489063,-11.9135475,2.4947581
6.1873636,4.667968,4.4882607,4.7495484,11.630757,8.341399,-10.55843,3.323152
6.198689,4.67298,4.4882607,4.7495484,11.630757,8.341399,-10.55843,3.323152
6.209364,4.6776943,4.24325,4.8241167,10.943662,8.714894,-9.773131,4.9559975
6.220062,4.6823487,4.24325,4.8241167,10.943662,8.714894,-9.773131,4.9559975
6.230002,4.6866455,3.9396496,4.865662,10.154301,8.662222,-8.327033,6.009446
6.239963,4.6908894,3.9396496,4.865662,10.154301,8.662222,-8.327033,6.009446
6.2490745,4.6947317,3.591308,4.873119,9.28185,8.66701,-6.9383965,6.1195793
6.2582045,4.698527,3.591308,4.873119,9.28185,8.66701,-6.9383965,6.1195793
6.26642,4.701893,3.2067478,4.8677926,8.346547,7.953538,-6.0046577,5.961562
6.2746596,4.7052207,3.2067478,4.8677926,8.346547,7.953538,-6.0046577,5.961562
6.2819285,4.708089,2.7870336,4.844357,7.367569,6.5840545,-5.482722,6.105214
0.0060328944,4.710924,2.7870336,4.844357,7.367569,6.5840545,-5.482722,6.105214
0.012347921,4.7132955,2.3513403,4.7932243,6.372612,5.1810527,-4.984728,5.8705826
0.018673895,4.7156367,2.3513403,4.7932243,6.372612,5.1810527,-4.984728,5.8705826
0.024634536,4.7177305,1.9124514,4.7175903,5.381916,3.2369606,-4.6112323,4.9799395
0.029639177,4.7194614,1.9124514,4.7175903,5.381916,3.2369606,-4.6112323,4.9799395
0.033898633,4.720815,1.4746276,4.61639,4.418917,1.1300632,-4.7165775,4.510676
0.038305715,4.722194,1.4746276,4.61639,4.418917,1.1300632,-4.7165775,4.510676
0.041860178,4.7231445,1.0474566,4.4800363,3.4963982,-0.92416185,-4.6160207,3.964798
0.045422066,4.7240806,1.0474566,4.4800363,3.4963982,-0.92416185,-4.6160207,3.964798
0.048148837,4.7245884,0.634134,4.2978764,2.6143591,-2.5617957,-4.3718123,3.1268275
0.05086939,4.7250834,0.634134,4.2978764,2.6143591,-2.5617957,-4.3718123,3.1268275
0.052795418,4.725161,0.23785561,4.0731053,1.7823876,-4.1611223,-4.1276035,2.1883004
0.05472556,4.7252307,0.23785561,4.0731053,1.7823876,-4.1611223,-4.1276035,2.1883004
0.05588377,4.7249026,-0.14244379,3.805724,0.99941826,-5.602432,-3.739743,1.2018893
0.057041828,4.72457,-0.14244379,3.805724,0.99941826,-5.602432,-3.739743,1.2018893
0.05747391,4.72386,-0.50996006,3.4967973,0.26864687,-6.703765,-3.5242648,0.01436521
0.05790426,4.723147,-0.50996006,3.4967973,0.26864687,-6.703765,-3.5242648,0.01436521
0.057655726,4.722081,-0.8646931,3.1463253,-0.40779606,-7.513005,-3.5625722,-1.1109096
0.057403564,4.721015,-0.8646931,3.1463253,-0.40779606,-7.513005,-3.5625722,-1.1109096
0.056517426,4.719615,-1.2077082,2.7532427,-1.0352368,-8.355764,-3.6727054,-2.1787236
0.056517426,4.719615,-1.2077082,2.7532427,-1.0352368,-8.355764,-3.6727054,-2.1787236
0.054821257,4.71696,-1.2077082,2.7532427,-1.0352368,-8.355764,-3.6727054,-2.1787236
0.052976478,4.7148294,-1.5358098,2.3143537,-1.6136755,-8.815451,-3.8402996,-3.2082303
0.051102284,4.7129726,-1.8479322,1.8317889,-2.1484382,-8.901642,-4.1659107,-4.1276035
0.048920937,4.71082,-1.8479322,1.8317889,-2.1484382,-8.901642,-4.1659107,-4.1276035
0.04668054,4.708804,-2.1398146,1.3130051,-2.642721,-8.671799,-4.6830587,-4.9320555
0.04424047,4.7066145,-2.1398146,1.3130051,-2.642721,-8.671799,-4.6830587,-4.9320555
0.04125049,4.704096,-2.4082613,0.768655,-3.1018498,-7.97748,-5.1379566,-5.521029
0.038255706,4.701577,-2.4082613,0.768655,-3.1018498,-7.97748,-5.1379566,-5.521029
0.03483949,4.6988335,-2.6511416,0.21045642,-3.5236945,-6.933608,-6.0860605,-5.6886234
0.03141975,4.696088,-2.6511416,0.21045642,-3.5236945,-6.933608,-6.0860605,-5.6886234
0.027583802,4.6931095,-2.8652596,-0.34561163,-3.9029288,-6.2823853,-6.4643445,-6.0238113
0.02381788,4.6901836,-2.8652596,-0.34561163,-3.9029288,-6.2823853,-6.4643445,-6.0238113
0.019688407,4.6870556,-3.0506158,-0.89635336,-4.2395525,-4.8602295,-7.1395097,-5.923255
0.015558599,4.6839204,-3.0506158,-0.89635336,-4.2395525,-4.8602295,-7.1395097,-5.923255
0.011145754,4.680624,-3.2104053,-1.4247246,-4.5239778,-3.5625722,-8.015787,-5.7987566
0.0067344215,4.6773176,-3.2104053,-1.4247246,-4.5239778,-3.5625722,-8.015787,-5.7987566
0.0021112696,4.673883,-3.3393025,-1.9083546,-4.749814,-2.3558946,-9.174581,-5.449203
6.2806726,4.6704316,-3.3393025,-1.9083546,-4.749814,-2.3558946,-9.174581,-5.449203
6.275898,4.666883,-3.430915,-2.3472435,-4.9213214,-1.5275006,-9.840169,-5.3678
6.271129,4.663318,-3.430915,-2.3472435,-4.9213214,-1.5275006,-9.840169,-5.3678
6.2662563,4.6596756,-3.49057,-2.735,-5.035305,-0.5602432,-10.788273,-4.9895163
6.2613964,4.6560173,-3.49057,-2.735,-5.035305,-0.5602432,-10.788273,-4.9895163
6.256479,4.6523123,-3.5161364,-3.0769496,-5.0949597,0.641646,-11.779472,-4.596867
6.2515755,4.64859,-3.5161364,-3.0769496,-5.0949597,0.641646,-11.779472,-4.596867
6.2466545,4.644855,-3.5097446,-3.3539186,-5.0981555,2.231396,-12.5504055,-4.175488
6.2417483,4.6411014,-3.5097446,-3.3539186,-5.0981555,2.231396,-12.5504055,-4.175488
6.2368956,4.6373644,-3.4756563,-3.5520577,-5.043827,3.265691,-13.254301,-3.8977604
6.2320585,4.6336083,-3.4756563,-3.5520577,-5.043827,3.265691,-13.254301,-3.8977604
6.227324,4.629895,-3.418132,-3.6756284,-4.9447575,4.084508,-13.742718,-3.6343982
6.2226043,4.6261625,-3.418132,-3.6756284,-4.9447575,4.084508,-13.742718,-3.6343982
6.218023,4.6224995,-3.341433,-3.7320874,-4.8084035,4.7979803,-14.45619,-3.2321723
6.2134566,4.6188164,-3.341433,-3.7320874,-4.8084035,4.7979803,-14.45619,-3.2321723
6.2090592,4.6152306,-3.2412982,-3.734218,-4.6432877,5.2049947,-15.011644,-2.834735
6.204668,4.611619,-3.2412982,-3.734218,-4.6432877,5.2049947,-15.011644,-2.834735
6.200475,4.6081214,-3.1230538,-3.690542,-4.455801,5.2863975,-15.255854,-2.681506
6.196309,4.604617,-3.1230538,-3.690542,-4.455801,5.2863975,-15.255854,-2.681506
6.19234,4.601245,-2.9888303,-3.6159735,-4.2555313,5.5258174,-15.44739,-2.4133554
6.1883965,4.5978675,-2.9888303,-3.6159735,-4.2555313,5.5258174,-15.44739,-2.4133554
6.184645,4.5946283,-2.8439546,-3.5169039,-4.0467396,5.7843914,-15.849615,-2.15957
6.1809072,4.5913744,-2.8439546,-3.5169039,-4.0467396,5.7843914,-15.849615,-2.15957
6.1773887,4.5882907,-2.6905563,-3.3933332,-3.8283603,6.3206925,-16.146496,-1.8148049
6.173875,4.585188,-2.6905563,-3.3933332,-3.8283603,6.3206925,-16.146496,-1.8148049
6.1705923,4.582268,-2.5307667,-3.2420657,-3.5993283,6.8282633,-16.596605,-1.4317327
6.167304,4.579323,-2.5307667,-3.2420657,-3.5993283,6.8282633,-16.596605,-1.4317327
6.1642547,4.576582,-2.3613896,-3.0599055,-3.3660355,7.1155677,-16.859968,-1.0869676
6.161216,4.5738306,-2.3613896,-3.0599055,-3.3660355,7.1155677,-16.859968,-1.0869676
6.1583924,4.5712833,-2.18136,-2.848983,-3.130612,7.2687964,-17.099388,-0.7422025
6.1555786,4.5687275,-2.18136,-2.848983,-3.130612,7.2687964,-17.099388,-0.7422025
6.1529846,4.5663958,-1.9896123,-2.6167555,-2.8898623,7.345411,-17.156849,-0.46447513
6.1503935,4.5640507,-1.9896123,-2.6167555,-2.8898623,7.345411,-17.156849,-0.46447513
6.1480284,4.5619464,-1.7904079,-2.3664184,-2.6405904,6.775591,-17.238253,-0.29209262
6.14567,4.5598354,-1.7904079,-2.3664184,-2.6405904,6.775591,-17.238253,-0.29209262
6.1435237,4.5579634,-1.5826813,-2.1096895,-2.3902533,7.2592196,-17.027563,-0.21547815
6.1413846,4.556088,-1.5826813,-2.1096895,-2.3902533,7.2592196,-17.027563,-0.21547815
6.139459,4.5544586,-1.3685632,-1.8465693,-2.1303287,7.2783732,-16.721106,-0.33518824
6.13754,4.552827,-1.3685632,-1.8465693,-2.1303287,7.2783732,-16.721106,-0.33518824
6.135841,4.5514483,-1.1565756,-1.5642742,-1.8629473,7.321469,-16.290148,-0.39743748
6.1341467,4.550068,-1.1565756,-1.5642742,-1.8629473,7.321469,-16.290148,-0.39743748
6.132666,4.548938,-0.94884896,-1.2713264,-1.5966312,7.455544,-15.86398,-0.37349546
6.131189,4.5478067,-0.94884896,-1.2713264,-1.5966312,7.455544,-15.86398,-0.37349546
6.129923,4.5469265,-0.74857926,-0.9666608,-1.3335109,7.465121,-15.389929,-0.30645782
6.1286583,4.5460443,-0.74857926,-0.9666608,-1.3335109,7.465121,-15.389929,-0.30645782
6.127595,4.5454073,-0.55470115,-0.65666884,-1.0757169,7.345411,-14.834474,-0.39743748
6.126534,4.5447693,-0.55470115,-0.65666884,-1.0757169,7.345411,-14.834474,-0.39743748
6.1256647,4.5443745,-0.36508408,-0.34454638,-0.8253797,6.919243,-14.288596,-0.5554548
6.124796,4.5439787,-0.36508408,-0.34454638,-0.8253797,6.919243,-14.288596,-0.5554548
6.1241117,4.543815,-0.18611965,-0.036684938,-0.58462995,6.4978633,-13.699622,-0.6703765
6.1234274,4.543652,-0.18611965,-0.036684938,-0.58462995,6.4978633,-13.699622,-0.6703765
6.1229186,4.5437074,-0.017807856,0.26371965,-0.3502718,5.592855,-13.101071,-1.043872
6.12241,4.543763,-0.017807856,0.26371965,-0.3502718,5.592855,-13.101071,-1.043872
6.122072,4.544031,0.14304708,0.54814523,-0.1276315,4.807557,-12.469003,-1.1923125
6.1217337,4.5442996,0.14304708,0.54814523,-0.1276315,4.807557,-12.469003,-1.1923125
6.1215615,4.544769,0.29111883,0.8006129,0.08009506,3.8546648,-12.210428,-1.3359646
6.1213894,4.5452375,0.29111883,0.8006129,0.08009506,3.8546648,-12.210428,-1.3359646
6.1213746,4.545885,0.42960322,1.0136658,0.27610373,3.1028855,-11.779472,-1.5227122
6.1213603,4.5465326,0.42960322,1.0136658,0.27610373,3.1028855,-11.779472,-1.5227122
6.1214905,4.5473385,0.557435,1.1904997,0.45613343,2.2409728,-11.271901,-1.7525556
6.1216197,4.5481424,0.557435,1.1904997,0.45613343,2.2409728,-11.271901,-1.7525556
6.1221523,4.549021,0.67354876,1.3321799,0.6223147,1.3503298,-10.860099,-1.8818425
6.122684,4.549895,0.67354876,1.3321799,0.6223147,1.3503298,-10.860099,-1.8818425
6.1233554,4.550899,0.7779447,1.4365758,0.7757127,0.60333884,-10.424355,-1.9009962
6.124027,4.5518994,0.7779447,1.4365758,0.7757127,0.60333884,-10.424355,-1.9009962
6.1248326,4.5530205,0.8738185,1.5068833,0.9152624,0.062249243,-10.036493,-1.8483237
6.1256757,4.554188,0.8738185,1.5068833,0.9152624,0.062249243,-10.036493,-1.8483237
6.1265707,4.55536,0.96223545,1.5484285,1.038833,-0.2825158,-9.528923,-1.8626889
6.127472,4.556535,0.96223545,1.5484285,1.038833,-0.2825158,-9.528923,-1.8626889
6.1284947,4.557806,1.0421302,1.5644076,1.14749,-0.7230489,-9.021352,-2.030283
6.1295195,4.5590744,1.0421302,1.5644076,1.14749,-0.7230489,-9.021352,-2.030283
6.130662,4.560432,1.1103072,1.5590812,1.2412333,-1.1587936,-8.504205,-2.1930888
6.131758,4.5617294,1.1103072,1.5590812,1.2412333,-1.1587936,-8.504205,-2.1930888
6.1329627,4.563101,1.1646357,1.5335149,1.3221934,-1.3215994,-8.058883,-2.3511062
6.134167,4.5644665,1.1646357,1.5335149,1.3221934,-1.3215994,-8.058883,-2.3511062
6.135448,4.56586,1.2051158,1.4951653,1.3956966,-1.4269443,-7.642292,-2.5139117
6.136732,4.567251,1.2051158,1.4951653,1.3956966,-1.4269443,-7.642292,-2.5139117
6.1380787,4.568649,1.226421,1.4461632,1.4553515,-1.3455414,-7.28795,-2.4995465
6.1394253,4.570042,1.226421,1.4461632,1.4553515,-1.3455414,-7.28795,-2.4995465
6.140825,4.5714293,1.2317474,1.3886389,1.5000926,-1.1731589,-6.9862804,-2.5570073
6.142223,4.5728106,1.2317474,1.3886389,1.5000926,-1.1731589,-6.9862804,-2.5570073
6.1436543,4.5741663,1.217899,1.324723,1.5245937,-1.0055647,-6.694188,-2.480393
6.145083,4.5755153,1.217899,1.324723,1.5245937,-1.0055647,-6.694188,-2.480393
6.1465235,4.57682,1.1870062,1.2586766,1.52992,-0.770933,-6.5696893,-2.3942018
6.147965,4.5781217,1.1870062,1.2586766,1.52992,-0.770933,-6.5696893,-2.3942018
6.1493907,4.5793643,1.1433305,1.1904997,1.5107453,-0.5267244,-6.3685765,-2.3319526
6.1508126,4.5806007,1.1433305,1.1904997,1.5107453,-0.5267244,-6.3685765,-2.3319526
6.1522045,4.58177,1.0868714,1.1212575,1.4713304,-0.34476504,-6.229713,-2.2218192
6.1535954,4.5829353,1.0868714,1.1212575,1.4713304,-0.34476504,-6.229713,-2.2218192
6.154938,4.584023,1.0218903,1.0488195,1.4138062,-0.23942018,-6.205771,-2.0446482
6.1562867,4.5851126,1.0218903,1.0488195,1.4138062,-0.23942018,-6.205771,-2.0446482
6.157563,4.586113,0.9494523,0.97638154,1.3392377,-0.110133275,-6.229713,-1.9680338
6.1588426,4.5871134,0.9494523,0.97638154,1.3392377,-0.110133275,-6.229713,-1.9680338
6.1600375,4.588022,0.8727532,0.9039436,1.2508208,-0.033518825,-6.1866174,-1.9297266
6.161235,4.5889306,0.8727532,0.9039436,1.2508208,-0.033518825,-6.1866174,-1.9297266
6.1623464,4.5897474,0.7917931,0.83044034,1.1528164,0,-6.291962,-1.8291701
6.163456,4.5905614,0.7917931,0.83044034,1.1528164,0,-6.291962,-1.8291701
6.164472,4.591282,0.70763725,0.75800234,1.0473552,0.033518825,-6.363788,-1.8387469
6.165486,4.592,0.70763725,0.75800234,1.0473552,0.033518825,-6.363788,-1.8387469
6.1664047,4.592622,0.6213508,0.68556434,0.9397635,0.04309563,-6.3781533,-1.757344
6.167322,4.5932417,0.6213508,0.68556434,0.9397635,0.04309563,-6.3781533,-1.757344
6.168169,4.5937862,0.5318686,0.61419165,0.8247149,0.10055647,-6.4308257,-1.8100165
6.168939,4.5942802,0.5318686,0.61419165,0.8247149,0.10055647,-6.4308257,-1.8100165
6.169634,4.594694,0.4391906,0.5428189,0.7075358,0.16759412,-6.540959,-1.7764976
6.170329,4.595107,0.4391906,0.5428189,0.7075358,0.16759412,-6.540959,-1.7764976
6.1709247,4.595421,0.3465126,0.47357672,0.591422,0.11492168,-6.6415157,-1.7525556
6.1715183,4.5957327,0.3465126,0.47357672,0.591422,0.11492168,-6.6415157,-1.7525556
6.172005,4.595941,0.25170404,0.4032693,0.47530818,0.12928689,-6.8282633,-1.8148049
6.172491,4.5961485,0.25170404,0.4032693,0.47530818,0.12928689,-6.8282633,-1.8148049
6.1728644,4.596253,0.15902604,0.3308313,0.35812908,0.23942018,-6.9958572,-1.7621324
6.1732373,4.596357,0.15902604,0.3308313,0.35812908,0.23942018,-6.9958572,-1.7621324
6.1735086,4.596364,0.06954383,0.26052386,0.24201526,0.19153613,-7.07726,-1.757344
6.173779,4.5963707,0.06954383,0.26052386,0.24201526,0.19153613,-7.07726,-1.757344
6.173847,4.5962763,-0.017807856,0.18915112,0.13016249,1.1204864,-7.6470804,-1.5562311
6.1739154,4.596182,-0.017807856,0.18915112,0.13016249,1.1204864,-7.6470804,-1.5562311
6.174006,4.5960083,-0.10196375,0.12630053,0.023636047,-0.062249243,-7.393295,-1.7908629
6.174097,4.5958343,-0.10196375,0.12630053,0.023636047,-0.062249243,-7.393295,-1.7908629
6.1741185,4.5955997,-0.17972806,0.054927804,-0.08608619,0.4405331,-8.015787,-1.1731589
6.1741405,4.595365,-0.17972806,0.054927804,-0.08608619,0.4405331,-8.015787,-1.1731589
6.173831,4.5951567,-0.25110078,-0.018575443,-0.19261263,1.6089035,-8.63828,-0.7565677
6.173522,4.5949492,-0.25110078,-0.018575443,-0.19261263,1.6089035,-8.63828,-0.7565677
6.173128,4.5946774,-0.30649453,-0.06118602,-0.28102958,1.70946,-9.093178,-0.81402856
6.172735,4.594406,-0.30649453,-0.06118602,-0.28102958,1.70946,-9.093178,-0.81402856
6.1723375,4.594137,-0.3459093,-0.08036078,-0.3555981,1.3120226,-9.572019,-0.7182605
6.171941,4.5938683,-0.3459093,-0.08036078,-0.3555981,1.3120226,-9.572019,-0.7182605
6.1715517,4.593578,-0.37360618,-0.093143955,-0.4131224,1.0630256,-9.811439,-0.81881696
6.1711645,4.5932875,-0.37360618,-0.093143955,-0.4131224,1.0630256,-9.811439,-0.81881696
6.170786,4.5929675,-0.39065042,-0.105927125,-0.45360243,0.8379706,-10.036493,-0.7661445
6.1704082,4.592648,-0.39065042,-0.105927125,-0.45360243,0.8379706,-10.036493,-0.7661445
6.1700234,4.5923114,-0.4002378,-0.11977556,-0.47597298,0.7326257,-10.16578,-0.7469909
6.16964,4.5919757,-0.4002378,-0.11977556,-0.47597298,0.7326257,-10.16578,-0.7469909
6.1692405,4.591635,-0.4034336,-0.13575453,-0.48556036,0.6703765,-10.381259,-0.60333884
6.1692405,4.591635,-0.4034336,-0.13575453,-0.48556036,0.6703765,-10.381259,-0.60333884
6.1692405,4.591635,-0.4034336,-0.13575453,-0.48556036,0.6703765,-10.381259,-0.60333884
6.1692405,4.591635,-0.40236834,-0.15066823,-0.4876909,0.61291564,-10.55843,-0.44532153
6.1692405,4.591635,-0.39171568,-0.16558194,-0.48556036,0.45010993,-10.654198,-0.47884035
6.1692405,4.591635,-0.39171568,-0.16558194,-0.48556036,0.45010993,-10.654198,-0.47884035
6.166921,4.589609,-0.37254092,-0.1815609,-0.47597298,0.29688102,-10.6877165,-0.5315128
6.1665716,4.589293,-0.37254092,-0.1815609,-0.47597298,0.29688102,-10.6877165,-0.5315128
6.166218,4.588997,-0.34697458,-0.19860514,-0.46212456,0.4309563,-10.697293,-0.50757074
6.1658626,4.588699,-0.34697458,-0.19860514,-0.46212456,0.4309563,-10.697293,-0.50757074
6.1655135,4.5884347,-0.32034296,-0.2145841,-0.44188452,0.6991069,-10.7116585,-0.5506664
6.165164,4.58817,-0.32034296,-0.2145841,-0.44188452,0.6991069,-10.7116585,-0.5506664
6.1648116,4.58794,-0.29158083,-0.21884516,-0.4131224,0.9816227,-10.831368,-0.46926352
6.164462,4.5877123,-0.29158083,-0.21884516,-0.4131224,0.9816227,-10.831368,-0.46926352
6.1641307,4.5875196,-0.2596229,-0.2113883,-0.37583813,1.1444284,-10.85531,-0.39264908
6.1637993,4.5873265,-0.2596229,-0.2113883,-0.37583813,1.1444284,-10.85531,-0.39264908
6.1635003,4.5871696,-0.2265997,-0.19221355,-0.33322755,1.2258313,-10.960655,-0.36391866
6.1632023,4.5870123,-0.2265997,-0.19221355,-0.33322755,1.2258313,-10.960655,-0.36391866
6.162952,4.586893,-0.19251123,-0.1634514,-0.28422537,1.1971009,-11.09473,-0.2633622
6.162703,4.586774,-0.19251123,-0.1634514,-0.28422537,1.1971009,-11.09473,-0.2633622
6.1625056,4.5866966,-0.15522698,-0.12936294,-0.22883163,1.1923125,-11.18571,-0.30645782
6.1623087,4.58662,-0.15522698,-0.12936294,-0.22883163,1.1923125,-11.18571,-0.30645782
6.16217,4.5865874,-0.11581218,-0.08781763,-0.16598102,1.1779473,-11.271901,-0.23463176
6.162031,4.5865555,-0.11581218,-0.08781763,-0.16598102,1.1779473,-11.271901,-0.23463176
6.1619573,4.5865703,-0.075332135,-0.040945996,-0.0978041,1.163582,-11.343728,-0.30166942
6.1618834,4.586585,-0.075332135,-0.040945996,-0.0978041,1.163582,-11.343728,-0.30166942
6.161878,4.5866456,-0.035917353,0.0069909045,-0.026431382,1.1061212,-11.358093,-0.25378537
6.161873,4.586706,-0.035917353,0.0069909045,-0.026431382,1.1061212,-11.358093,-0.25378537
6.161935,4.586815,0.005627962,0.057058334,0.044941336,1.0773908,-11.434708,-0.23463176
6.1619964,4.5869236,0.005627962,0.057058334,0.044941336,1.0773908,-11.434708,-0.23463176
6.1621227,4.5870805,0.047173277,0.10392997,0.11311826,1.0199299,-11.482592,-0.16759412
6.162249,4.587237,0.047173277,0.10392997,0.11311826,1.0199299,-11.482592,-0.16759412
6.1624436,4.5874424,0.091914386,0.14441001,0.17703412,0.8858546,-11.501745,-0.18195933
6.162638,4.587648,0.091914386,0.14441001,0.17703412,0.8858546,-11.501745,-0.18195933
6.1628904,4.587907,0.13878602,0.18062901,0.23562367,0.8331822,-11.492168,-0.12928689
6.163157,4.5881805,0.13878602,0.18062901,0.23562367,0.8331822,-11.492168,-0.12928689
6.163451,4.5884676,0.18565765,0.21045642,0.2920827,0.6991069,-11.45865,-0.21068975
6.163761,4.5887694,0.18565765,0.21045642,0.2920827,0.6991069,-11.45865,-0.21068975
6.164134,4.5891194,0.23146403,0.23389223,0.34215012,0.47405192,-11.319786,-0.21068975
6.1645074,4.5894694,0.23146403,0.23389223,0.34215012,0.47405192,-11.319786,-0.21068975
6.16494,4.5898676,0.27940091,0.25200173,0.39541334,0.34955344,-11.243171,-0.23942018
6.165372,4.5902653,0.27940091,0.25200173,0.39541334,0.34955344,-11.243171,-0.23942018
6.1658654,4.5907063,0.3252073,0.26265436,0.44974184,0.23463176,-11.104307,-0.29688102
6.166359,4.5911474,0.3252073,0.26265436,0.44974184,0.23463176,-11.104307,-0.29688102
6.166918,4.591626,0.36781788,0.2679807,0.50407034,0.1388637,-11.03727,-0.4357447
6.167477,4.592104,0.36781788,0.2679807,0.50407034,0.1388637,-11.03727,-0.4357447
6.1681046,4.5926156,0.40829793,0.27011123,0.5615946,0,-10.884041,-0.521936
6.168732,4.593127,0.40829793,0.27011123,0.5615946,0,-10.884041,-0.521936
6.1694207,4.593671,0.44558218,0.2679807,0.61698836,-0.17717093,-10.754754,-0.521936
6.17011,4.594214,0.44558218,0.2679807,0.61698836,-0.17717093,-10.754754,-0.521936
6.1708612,4.594788,0.48180118,0.26052386,0.67131686,-0.36870706,-10.582372,-0.521936
6.17161,4.5953608,0.48180118,0.26052386,0.67131686,-0.36870706,-10.582372,-0.521936
6.172422,4.5959625,0.51588964,0.25093648,0.7288411,-0.48841715,-10.433931,-0.5410896
6.1732345,4.5965643,0.51588964,0.25093648,0.7288411,-0.48841715,-10.433931,-0.5410896
6.174108,4.5971904,0.5467823,0.23602276,0.7842349,-0.47405192,-10.366894,-0.62728083
6.174982,4.5978165,0.5467823,0.23602276,0.7842349,-0.47405192,-10.366894,-0.62728083
6.175906,4.5984735,0.5755444,0.216848,0.83536756,-0.4405331,-10.251971,-0.5554548
6.17683,4.59913,0.5755444,0.216848,0.83536756,-0.4405331,-10.251971,-0.5554548
6.177808,4.5998096,0.6021761,0.19447745,0.885435,-0.4165911,-10.141838,-0.5793968
6.1787863,4.6004887,0.6021761,0.19447745,0.885435,-0.4165911,-10.141838,-0.5793968
6.1798215,4.601178,0.6256119,0.17104164,0.93230665,-0.39743748,-9.983821,-0.7230489
6.1808577,4.601867,0.6256119,0.17104164,0.93230665,-0.39743748,-9.983821,-0.7230489
6.181948,4.602566,0.64691716,0.14654055,0.97917825,-0.29688102,-9.92636,-0.8475474
6.1830387,4.6032634,0.64691716,0.14654055,0.97917825,-0.29688102,-9.92636,-0.8475474
6.184177,4.6039753,0.66502666,0.12203947,1.0228541,-0.1388637,-9.77792,-0.8762778
6.1853156,4.604686,0.66502666,0.12203947,1.0228541,-0.1388637,-9.77792,-0.8762778
6.1864986,4.605406,0.67994034,0.09647312,1.0633341,-0.02873042,-9.672575,-0.90500826
6.187682,4.606125,0.67994034,0.09647312,1.0633341,-0.02873042,-9.672575,-0.90500826
6.188904,4.60684,0.68952775,0.073037304,1.0963573,0.17717093,-9.552865,-0.9768343
6.190126,4.607554,0.68952775,0.073037304,1.0963573,0.17717093,-9.552865,-0.9768343
6.1913786,4.6082625,0.6969846,0.049601484,1.1240542,0.35434186,-9.414001,-1.0055647
6.1926312,4.6089687,0.6969846,0.049601484,1.1240542,0.35434186,-9.414001,-1.0055647
6.1939025,4.6096544,0.69804984,0.026165664,1.1442943,0.5267244,-9.251195,-1.0199299
6.1951723,4.610336,0.69804984,0.026165664,1.1442943,0.5267244,-9.251195,-1.0199299
6.196291,4.610943,0.6937888,0.0048603755,1.1581427,0.8571242,-9.121908,-1.0726024
6.1974044,4.611551,0.6937888,0.0048603755,1.1581427,0.8571242,-9.121908,-1.0726024
6.1984363,4.6121974,0.6842014,-0.015379649,1.1613384,1.1252748,-8.930372,-1.0342951
6.1994686,4.6128426,0.6842014,-0.015379649,1.1613384,1.1252748,-8.930372,-1.0342951
6.2004876,4.6134853,0.6671572,-0.033489145,1.1560122,1.3694834,-8.825027,-1.0247183
6.201507,4.6141276,0.6671572,-0.033489145,1.1560122,1.3694834,-8.825027,-1.0247183
6.2025113,4.614747,0.64478666,-0.047337584,1.1400332,1.6136919,-8.695741,-1.0582372
6.2035155,4.6153665,0.64478666,-0.047337584,1.1400332,1.6136919,-8.695741,-1.0582372
6.2044873,4.6159697,0.61708975,-0.057990227,1.1102058,1.8243817,-8.580819,-0.9816227
6.2054596,4.616572,0.61708975,-0.057990227,1.1102058,1.8243817,-8.580819,-0.9816227
6.206389,4.617135,0.5851318,-0.064381815,1.0654647,2.030283,-8.461109,-1.0630256
6.207319,4.6176972,0.5851318,-0.064381815,1.0654647,2.030283,-8.461109,-1.0630256
6.208195,4.618229,0.5489128,-0.06864287,1.0132667,2.087744,-8.456321,-1.0055647
6.209072,4.6187596,0.5489128,-0.06864287,1.0132667,2.087744,-8.456321,-1.0055647
6.2098875,4.619253,0.50630224,-0.06864287,0.95254666,2.0638018,-8.379706,-0.93852705
6.2107034,4.6197457,0.50630224,-0.06864287,0.95254666,2.0638018,-8.379706,-0.93852705
6.2114525,4.6201973,0.4604959,-0.06757761,0.88650024,2.1404164,-8.365341,-0.8858546
6.212202,4.6206484,0.4604959,-0.06757761,0.88650024,2.1404164,-8.365341,-0.8858546
6.212883,4.621044,0.41362426,-0.066512346,0.81725806,2.0733786,-8.403648,-0.9672575
6.2135644,4.62144,0.41362426,-0.066512346,0.81725806,2.0733786,-8.403648,-0.9672575
6.2141743,4.621787,0.36568734,-0.064381815,0.7458854,2.0398598,-8.441956,-0.9672575
6.2147846,4.6221337,0.36568734,-0.064381815,0.7458854,2.0398598,-8.441956,-0.9672575
6.2153263,4.6224303,0.3188157,-0.064381815,0.67664313,1.934515,-8.456321,-0.9816227
6.215868,4.6227264,0.3188157,-0.064381815,0.67664313,1.934515,-8.456321,-0.9816227
6.216338,4.622972,0.26981354,-0.064381815,0.6042052,2.006341,-8.432379,-1.0055647
6.216808,4.623217,0.26981354,-0.064381815,0.6042052,2.006341,-8.432379,-1.0055647
6.2172027,4.623405,0.21761559,-0.064381815,0.5275061,1.9153614,-8.422802,-1.0390835
6.217598,4.6235924,0.21761559,-0.064381815,0.5275061,1.9153614,-8.422802,-1.0390835
6.2179165,4.623744,0.16541763,-0.06544708,0.4540029,1.9153614,-8.465898,-0.8714894
6.218235,4.6238956,0.16541763,-0.06544708,0.4540029,1.9153614,-8.465898,-0.8714894
6.218482,4.6239815,0.11428493,-0.06970814,0.37943438,1.8195933,-8.542512,-0.9959879
6.2187295,4.6240673,0.11428493,-0.06970814,0.37943438,1.8195933,-8.542512,-0.9959879
6.2189,4.624111,0.06634804,-0.07290393,0.3038006,1.6759412,-8.5473,-0.91937345
6.219071,4.624154,0.06634804,-0.07290393,0.3038006,1.6759412,-8.5473,-0.91937345
6.219171,4.6241474,0.020541664,-0.08036078,0.23136261,1.5610195,-8.6813755,-0.93852705
6.219271,4.6241407,0.020541664,-0.08036078,0.23136261,1.5610195,-8.6813755,-0.93852705
6.2193046,4.6240892,-0.021003649,-0.08994816,0.16212043,1.4460979,-8.767567,-0.94331545
6.2193375,4.6240373,-0.021003649,-0.08994816,0.16212043,1.4460979,-8.767567,-0.94331545
6.219309,4.6239476,-0.058287904,-0.10166607,0.09926982,1.3359646,-8.935161,-0.93373865
6.2192802,4.623858,-0.058287904,-0.10166607,0.09926982,1.3359646,-8.935161,-0.93373865
6.219195,4.623745,-0.09024584,-0.11551451,0.04387607,1.316811,-9.064447,-0.8858546
6.21911,4.623633,-0.09024584,-0.11551451,0.04387607,1.316811,-9.064447,-0.8858546
6.2189837,4.623476,-0.11368166,-0.13042821,-0.0051260935,1.3024458,-9.23683,-1.0055647
6.2188573,4.6233196,-0.11368166,-0.13042821,-0.0051260935,1.3024458,-9.23683,-1.0055647
6.2186832,4.6231556,-0.13285641,-0.14747244,-0.0498672,1.3072342,-9.323022,-0.94331545
6.218509,4.6229916,-0.13285641,-0.14747244,-0.0498672,1.3072342,-9.323022,-0.94331545
6.218299,4.622819,-0.14670485,-0.1634514,-0.08608619,1.3694834,-9.466674,-0.92895025
6.218089,4.6226463,-0.14670485,-0.1634514,-0.08608619,1.3694834,-9.466674,-0.92895025
6.217849,4.6224704,-0.15629223,-0.18049563,-0.11697886,1.3599066,-9.514558,-0.89543146
6.217609,4.6222944,-0.15629223,-0.18049563,-0.11697886,1.3599066,-9.514558,-0.89543146
6.2173448,4.622119,-0.16374908,-0.19647461,-0.14254521,1.388637,-9.672575,-0.8619126
6.217081,4.621944,-0.16374908,-0.19647461,-0.14254521,1.388637,-9.672575,-0.8619126
6.216797,4.6217704,-0.16907541,-0.20819251,-0.16491576,1.4269443,-9.682152,-0.82360536
6.2165127,4.6215963,-0.16907541,-0.20819251,-0.16491576,1.4269443,-9.682152,-0.82360536
6.216212,4.621418,-0.16801015,-0.21671464,-0.18195999,1.4173675,-9.730036,-0.8571242
6.215911,4.6212397,-0.16801015,-0.21671464,-0.18195999,1.4173675,-9.730036,-0.8571242
6.2156,4.62107,-0.16374908,-0.22204095,-0.1936779,1.4030021,-9.801862,-0.842759
6.2152886,4.6209,-0.16374908,-0.22204095,-0.1936779,1.4030021,-9.801862,-0.842759
6.2149706,4.6207347,-0.15842277,-0.22310622,-0.20006949,1.4508862,-9.801862,-0.8475474
6.2149706,4.6207347,-0.15842277,-0.22310622,-0.20006949,1.4508862,-9.801862,-0.8475474
6.2143283,4.620407,-0.14777012,-0.22097568,-0.20113476,1.5275006,-9.840169,-0.8283938
6.213994,4.620248,-0.14777012,-0.22097568,-0.20113476,1.5275006,-9.840169,-0.8283938
6.213697,4.6201143,-0.13498695,-0.2145841,-0.19900422,1.5466543,-9.80665,-0.8523358
6.2133837,4.619974,-0.13498695,-0.2145841,-0.19900422,1.5466543,-9.80665,-0.8523358
6.2130713,4.6198487,-0.120073244,-0.20499672,-0.1936779,1.5658079,-9.844957,-0.8475474
6.2127585,4.6197233,-0.120073244,-0.20499672,-0.1936779,1.5658079,-9.844957,-0.8475474
6.2124505,4.6196117,-0.10302901,-0.19221355,-0.18728632,1.484405,-9.859323,-0.8810662
6.2121425,4.6195006,-0.10302901,-0.19221355,-0.18728632,1.484405,-9.859323,-0.8810662
6.2118454,4.619418,-0.08491952,-0.17623459,-0.17769894,1.4939818,-9.859323,-0.82360536
6.2115474,4.619336,-0.08491952,-0.17623459,-0.17769894,1.4939818,-9.859323,-0.82360536
6.2112575,4.6192646,-0.06467949,-0.15812509,-0.16598102,1.4700398,-9.816227,-0.8858546
6.2109675,4.619193,-0.06467949,-0.15812509,-0.16598102,1.4700398,-9.816227,-0.8858546
6.210689,4.619146,-0.04443947,-0.14001559,-0.15319785,1.4460979,-9.797073,-0.8714894
6.2104106,4.6190987,-0.04443947,-0.14001559,-0.15319785,1.4460979,-9.797073,-0.8714894
6.2101436,4.6190715,-0.027395237,-0.121906094,-0.14041469,1.3694834,-9.80665,-0.8714894
6.209876,4.6190443,-0.027395237,-0.121906094,-0.14041469,1.3694834,-9.80665,-0.8714894
6.209623,4.6190395,-0.013546798,-0.10273133,-0.12656625,1.3790601,-9.792285,-0.8331822
6.209623,4.6190395,-0.013546798,-0.10273133,-0.12656625,1.3790601,-9.792285,-0.8331822
6.209623,4.6190395,-0.0018288894,-0.0856871,-0.10952201,1.3359646,-9.801862,-0.91458505
6.208877,4.619014,-0.0018288894,-0.0856871,-0.10952201,1.3359646,-9.801862,-0.91458505
6.208661,4.619023,0.008823755,-0.06757761,-0.093543045,1.3311762,-9.835381,-0.89543146
6.208431,4.6190324,0.008823755,-0.06757761,-0.093543045,1.3311762,-9.835381,-0.89543146
6.208229,4.6190777,0.019476399,-0.050533377,-0.075433545,1.3503298,-9.888053,-0.78529817
6.208039,4.6191206,0.019476399,-0.050533377,-0.075433545,1.3503298,-9.888053,-0.78529817
6.2078624,4.619192,0.02906378,-0.033489145,-0.05732405,1.2449849,-9.864111,-0.7374141
6.207686,4.6192636,0.02906378,-0.033489145,-0.05732405,1.2449849,-9.864111,-0.7374141
6.207522,4.6193438,0.037585896,-0.015379649,-0.04027982,1.2210429,-9.935937,-0.7661445
6.20736,4.619422,0.037585896,-0.015379649,-0.04027982,1.2210429,-9.935937,-0.7661445
6.207203,4.619494,0.04610801,-0.00046594674,-0.02110506,1.1300632,-9.892841,-0.8523358
6.207048,4.619564,0.04610801,-0.00046594674,-0.02110506,1.1300632,-9.892841,-0.8523358
6.2069135,4.619654,0.05356486,0.016578285,-0.0029955646,1.0342951,-9.859323,-0.842759
6.2067785,4.619744,0.05356486,0.016578285,-0.0029955646,1.0342951,-9.859323,-0.842759
6.2066817,4.6198654,0.058891185,0.029361458,0.016179197,0.94810385,-9.873688,-0.81402856
6.2065845,4.619986,0.058891185,0.029361458,0.016179197,0.94810385,-9.873688,-0.81402856
6.206525,4.6201305,0.06634804,0.038948838,0.035353955,0.8810662,-9.854534,-0.81402856
6.2064643,4.620274,0.06634804,0.038948838,0.035353955,0.8810662,-9.854534,-0.81402856
6.2064123,4.62042,0.073804885,0.046405688,0.05346345,0.8810662,-9.854534,-0.8283938
6.2063603,4.620566,0.073804885,0.046405688,0.05346345,0.8810662,-9.854534,-0.8283938
6.2063546,4.620735,0.07913121,0.049601484,0.06837715,0.80445176,-9.821015,-0.8475474
6.2063475,4.620904,0.07913121,0.049601484,0.06837715,0.80445176,-9.821015,-0.8475474
6.2063713,4.621087,0.08658806,0.047470953,0.0790298,0.8283938,-9.830592,-0.7757214
6.206394,4.621269,0.08658806,0.047470953,0.0790298,0.8283938,-9.830592,-0.7757214
6.2064304,4.621458,0.09084912,0.04214463,0.08542138,0.79487497,-9.773131,-0.80924016
6.2064652,4.621646,0.09084912,0.04214463,0.08542138,0.79487497,-9.773131,-0.80924016
6.2065277,4.621843,0.09617544,0.033622514,0.089682445,0.78529817,-9.797073,-0.770933
6.2065887,4.62204,0.09617544,0.033622514,0.089682445,0.78529817,-9.797073,-0.770933
6.2065682,4.6222005,0.1004365,0.020839343,0.0939435,0.92895025,-9.634268,-0.7757214
6.206547,4.622361,0.1004365,0.020839343,0.0939435,0.92895025,-9.634268,-0.7757214
6.2065287,4.622527,0.10363229,0.0069909045,0.09181297,0.9528923,-9.629479,-0.7517793
6.2065096,4.622692,0.10363229,0.0069909045,0.09181297,0.9528923,-9.629479,-0.7517793
6.2064805,4.622853,0.104697555,-0.005792269,0.08542138,0.9959879,-9.701305,-0.7517793
6.206451,4.623013,0.104697555,-0.005792269,0.08542138,0.9959879,-9.701305,-0.7517793
6.2064266,4.6231847,0.104697555,-0.016444914,0.07796454,0.92416185,-9.768343,-0.7661445
6.206402,4.623354,0.104697555,-0.016444914,0.07796454,0.92416185,-9.768343,-0.7661445
6.206342,4.62348,0.105762824,-0.027097559,0.073703475,0.92895025,-9.811439,-0.8475474
6.2062817,4.6236057,0.105762824,-0.027097559,0.073703475,0.92895025,-9.811439,-0.8475474
6.206234,4.6237555,0.106828086,-0.037750203,0.07263821,1.0055647,-9.835381,-0.78529817
6.206186,4.623905,0.106828086,-0.037750203,0.07263821,1.0055647,-9.835381,-0.78529817
6.206133,4.624051,0.10789335,-0.048402846,0.06944242,1.0390835,-9.744401,-0.770933
6.20608,4.624197,0.10789335,-0.048402846,0.06944242,1.0390835,-9.744401,-0.770933
6.206029,4.624351,0.11108914,-0.059055492,0.06624663,1.043872,-9.753978,-0.7517793
6.205978,4.624505,0.11108914,-0.059055492,0.06624663,1.043872,-9.753978,-0.7517793
6.205927,4.6246643,0.11428493,-0.06757761,0.06305083,1.0821792,-9.744401,-0.7230489
6.2058754,4.624823,0.11428493,-0.06757761,0.06305083,1.0821792,-9.744401,-0.7230489
6.2058263,4.6249847,0.11748073,-0.07609972,0.0641161,1.1300632,-9.730036,-0.6991069
6.2057767,4.625146,0.11748073,-0.07609972,0.0641161,1.1300632,-9.730036,-0.6991069
6.205711,4.6252794,0.12174179,-0.0856871,0.0641161,1.1971009,-9.725247,-0.79487497
6.2056446,4.6254115,0.12174179,-0.0856871,0.0641161,1.1971009,-9.725247,-0.79487497
6.2055793,4.625543,0.1270681,-0.093143955,0.06518136,1.3455414,-9.710882,-0.79966336
6.2055135,4.6256742,0.1270681,-0.093143955,0.06518136,1.3455414,-9.710882,-0.79966336
6.205447,4.6258,0.13132916,-0.09740501,0.06518136,1.4030021,-9.667787,-0.8331822
6.205381,4.625926,0.13132916,-0.09740501,0.06518136,1.4030021,-9.667787,-0.8331822
6.2053137,4.62606,0.13559023,-0.09953554,0.0641161,1.4891934,-9.682152,-0.80924016
6.205247,4.6261935,0.13559023,-0.09953554,0.0641161,1.4891934,-9.682152,-0.80924016
6.2051797,4.62634,0.13772075,-0.09740501,0.061985567,1.532289,-9.653421,-0.7469909
6.2051125,4.6264853,0.13772075,-0.09740501,0.061985567,1.532289,-9.653421,-0.7469909
6.20504,4.6266246,0.13772075,-0.093143955,0.058789775,1.5035586,-9.605537,-0.78050977
6.2049675,4.626764,0.13772075,-0.093143955,0.058789775,1.5035586,-9.605537,-0.78050977
6.204892,4.626911,0.13772075,-0.08675237,0.054528717,1.5035586,-9.548077,-0.7326257
6.2048163,4.6270585,0.13772075,-0.08675237,0.054528717,1.5035586,-9.548077,-0.7326257
6.2047396,4.627205,0.13772075,-0.079295516,0.05346345,1.6328455,-9.442732,-0.7086837
6.204662,4.627352,0.13772075,-0.079295516,0.05346345,1.6328455,-9.442732,-0.7086837
6.2045794,4.627489,0.13559023,-0.07183866,0.05026766,1.6567876,-9.500193,-0.7661445
6.2044964,4.627626,0.13559023,-0.07183866,0.05026766,1.6567876,-9.500193,-0.7661445
6.2044086,4.627754,0.13239443,-0.059055492,0.047071867,1.5179238,-9.552865,-0.80924016
6.2043204,4.6278825,0.13239443,-0.059055492,0.047071867,1.5179238,-9.552865,-0.80924016
6.2042274,4.628006,0.13026391,-0.04946811,0.042810805,1.4939818,-9.552865,-0.8283938
6.2041345,4.6281285,0.13026391,-0.04946811,0.042810805,1.4939818,-9.552865,-0.8283938
6.2040353,4.628243,0.12919864,-0.03988073,0.037484486,1.4796166,-9.543288,-0.866701
6.203937,4.6283574,0.12919864,-0.03988073,0.037484486,1.4796166,-9.543288,-0.866701
6.203834,4.6284738,0.12813337,-0.03242388,0.03428869,1.4939818,-9.5385,-0.8523358
6.203731,4.62859,0.12813337,-0.03242388,0.03428869,1.4939818,-9.5385,-0.8523358
6.2036295,4.6286964,0.1270681,-0.02496703,0.03428869,1.4796166,-9.504981,-0.89543146
6.2035275,4.628803,0.1270681,-0.02496703,0.03428869,1.4796166,-9.504981,-0.89543146
6.2034254,4.6289062,0.12493758,-0.017510178,0.03428869,1.4748282,-9.490616,-0.90021986
6.203323,4.6290097,0.12493758,-0.017510178,0.03428869,1.4748282,-9.490616,-0.90021986
6.2032213,4.6291084,0.12387232,-0.011118591,0.03428869,1.4748282,-9.552865,-0.92416185
6.2031198,4.629207,0.12387232,-0.011118591,0.03428869,1.4748282,-9.552865,-0.92416185
6.203015,4.6293197,0.12387232,-0.0047270046,0.03428869,1.5035586,-9.5385,-0.8523358
6.20291,4.6294327,0.12387232,-0.0047270046,0.03428869,1.5035586,-9.5385,-0.8523358
6.2028017,4.6295433,0.12387232,0.0027298466,0.032158162,1.5275006,-9.543288,-0.8714894
6.202691,4.629657,0.12387232,0.0027298466,0.032158162,1.5275006,-9.543288,-0.8714894
6.202586,4.6297684,0.12387232,0.009121433,0.033223428,1.5035586,-9.481039,-0.842759
6.2024817,4.6298795,0.12387232,0.009121433,0.033223428,1.5035586,-9.481039,-0.842759
6.2023735,4.629999,0.122807056,0.01551302,0.033223428,1.4796166,-9.576807,-0.81402856
6.2022653,4.6301193,0.122807056,0.01551302,0.033223428,1.4796166,-9.576807,-0.81402856
6.2021556,4.630229,0.12387232,0.024035135,0.031092897,1.436521,-9.581595,-0.866701
6.202046,4.630338,0.12387232,0.024035135,0.031092897,1.436521,-9.581595,-0.866701
6.2019353,4.630482,0.12387232,0.031491987,0.02896237,1.3742718,-9.533711,-0.7086837
6.201824,4.6306257,0.12387232,0.031491987,0.02896237,1.3742718,-9.533711,-0.7086837
6.2017117,4.6307697,0.12387232,0.03681831,0.027897105,1.2114661,-9.471462,-0.7230489
6.201599,4.6309133,0.12387232,0.03681831,0.027897105,1.2114661,-9.471462,-0.7230489
6.201482,4.6310444,0.122807056,0.040014103,0.025766576,1.3120226,-9.394848,-0.7469909
6.201365,4.631176,0.122807056,0.040014103,0.025766576,1.3120226,-9.394848,-0.7469909
6.2012463,4.6313004,0.120676525,0.04107937,0.024701312,1.283292,-9.437943,-0.7661445
6.2011275,4.631425,0.120676525,0.04107937,0.024701312,1.283292,-9.437943,-0.7661445
6.2010045,4.631545,0.118545994,0.04427516,0.020440254,1.1779473,-9.485827,-0.7757214
6.2008815,4.6316648,0.118545994,0.04427516,0.020440254,1.1779473,-9.485827,-0.7757214
6.200754,4.631788,0.1153502,0.047470953,0.016179197,1.091756,-9.509769,-0.7613561
6.2006264,4.6319103,0.1153502,0.047470953,0.016179197,1.091756,-9.509769,-0.7613561
6.200498,4.6319976,0.11321967,0.04853622,0.009787609,1.1013328,-9.452309,-0.8331822
6.20037,4.6320844,0.11321967,0.04853622,0.009787609,1.1013328,-9.452309,-0.8331822
6.2002325,4.632187,0.11002388,0.047470953,0.005526551,1.0390835,-9.375694,-0.7757214
6.2000947,4.632289,0.11002388,0.047470953,0.005526551,1.0390835,-9.375694,-0.7757214
6.1999516,4.632376,0.105762824,0.043209895,-0.0029955646,1.0486604,-9.299079,-0.79008657
6.199808,4.6324625,0.105762824,0.043209895,-0.0029955646,1.0486604,-9.299079,-0.79008657
6.199659,4.632542,0.10150176,0.038948838,-0.010452416,1.0390835,-9.255983,-0.79008657
6.1995096,4.632621,0.10150176,0.038948838,-0.010452416,1.0390835,-9.255983,-0.79008657
6.199349,4.632726,0.09830597,0.03468778,-0.017909266,0.9720459,-9.232041,-0.7326257
6.1991887,4.63283,0.09830597,0.03468778,-0.017909266,0.9720459,-9.232041,-0.7326257
6.199034,4.63297,0.09404491,0.029361458,-0.026431382,0.93852705,-9.260772,-0.6847417
6.1988797,4.6331086,0.09404491,0.029361458,-0.026431382,0.93852705,-9.260772,-0.6847417
6.198708,4.6332197,0.089783855,0.0251004,-0.03282297,0.93373865,-9.246407,-0.7134721
6.1985364,4.63333,0.089783855,0.0251004,-0.03282297,0.93373865,-9.246407,-0.7134721
6.1983643,4.6333866,0.08445753,0.020839343,-0.036018763,0.91937345,-9.246407,-0.7613561
6.198193,4.6334424,0.08445753,0.020839343,-0.036018763,0.91937345,-9.246407,-0.7613561
6.1980143,4.633504,0.07913121,0.014447756,-0.04027982,0.89064306,-9.208099,-0.7422025
6.197835,4.633565,0.07913121,0.014447756,-0.04027982,0.89064306,-9.208099,-0.7422025
6.1976523,4.633634,0.073804885,0.010186698,-0.04241035,0.92895025,-9.212888,-0.7326257
6.197469,4.6337028,0.073804885,0.010186698,-0.04241035,0.92895025,-9.212888,-0.7326257
6.1972985,4.633816,0.06954383,0.003795111,-0.045606144,0.92416185,-9.246407,-0.6847417
6.1971273,4.633929,0.06954383,0.003795111,-0.045606144,0.92416185,-9.246407,-0.6847417
6.1969404,4.6339774,0.06634804,-0.00046594674,-0.048801936,0.8810662,-9.251195,-0.7374141
6.196754,4.634025,0.06634804,-0.00046594674,-0.048801936,0.8810662,-9.251195,-0.7374141
6.196564,4.6340933,0.06421751,-0.0068575335,-0.050932467,0.92416185,-9.203311,-0.7182605
6.196374,4.634161,0.06421751,-0.0068575335,-0.050932467,0.92416185,-9.203311,-0.7182605
6.196184,4.6342177,0.062086977,-0.01324912,-0.050932467,0.9624691,-9.174581,-0.7230489
6.1959944,4.6342745,0.062086977,-0.01324912,-0.050932467,0.9624691,-9.174581,-0.7230489
6.1958103,4.6343575,0.062086977,-0.019640706,-0.0498672,0.94331545,-9.217676,-0.6991069
6.1956263,4.6344395,0.062086977,-0.019640706,-0.0498672,0.94331545,-9.217676,-0.6991069
6.195518,4.6345882,0.062086977,-0.02496703,-0.048801936,0.8475474,-9.232041,-0.6703765
6.1954103,4.634737,0.062086977,-0.02496703,-0.048801936,0.8475474,-9.232041,-0.6703765
6.1952367,4.634762,0.06528277,-0.03242388,-0.045606144,0.94810385,-9.246407,-0.7565677
6.1950636,4.6347866,0.06528277,-0.03242388,-0.045606144,0.94810385,-9.246407,-0.7565677
6.1948867,4.63485,0.06634804,-0.03881547,-0.04027982,1.0965444,-9.3182335,-0.7230489
6.1947093,4.6349134,0.06634804,-0.03881547,-0.04027982,1.0965444,-9.3182335,-0.7230489
6.1945405,4.6349516,0.06634804,-0.040945996,-0.036018763,1.0055647,-9.433155,-0.7613561
6.1943717,4.6349897,0.06634804,-0.040945996,-0.036018763,1.0055647,-9.433155,-0.7613561
6.1943,4.6349573,0.06634804,-0.03988073,-0.03069244,0.8762778,-9.461885,-0.79966336
6.194229,4.634925,0.06634804,-0.03988073,-0.03069244,0.8762778,-9.461885,-0.79966336
6.194151,4.6348963,0.06634804,-0.04201126,-0.024300855,0.90021986,-9.461885,-0.81881696
6.194073,4.634867,0.06634804,-0.04201126,-0.024300855,0.90021986,-9.461885,-0.81881696
6.1939425,4.634877,0.06847856,-0.04627232,-0.015778739,0.9672575,-9.490616,-0.79008657
6.193813,4.634887,0.06847856,-0.04627232,-0.015778739,0.9672575,-9.490616,-0.79008657
6.1936836,4.6349134,0.07273962,-0.051598642,-0.0051260935,1.067814,-9.452309,-0.80445176
6.193555,4.6349397,0.07273962,-0.051598642,-0.0051260935,1.067814,-9.452309,-0.80445176
6.193432,4.634976,0.074870154,-0.054794434,0.005526551,1.1348516,-9.428367,-0.80445176
6.1932907,4.635017,0.074870154,-0.054794434,0.005526551,1.1348516,-9.428367,-0.80445176
6.193189,4.6350493,0.07700068,-0.05692496,0.014048667,1.1923125,-9.337387,-0.81881696
6.193189,4.6350493,0.07700068,-0.05692496,0.014048667,1.1923125,-9.337387,-0.81881696
6.193189,4.6350493,0.07700068,-0.05692496,0.014048667,1.1923125,-9.337387,-0.81881696
6.193189,4.6350493,0.07700068,-0.05692496,0.014048667,1.1923125,-9.337387,-0.81881696
6.1927853,4.6351695,0.082327,-0.06118602,0.02896237,1.340753,-9.308656,-0.79966336
6.1927094,4.63521,0.082327,-0.06118602,0.02896237,1.340753,-9.308656,-0.79966336
6.192612,4.6352553,0.08339227,-0.06118602,0.035353955,1.4317327,-9.279925,-0.8714894
6.19252,4.6352983,0.08339227,-0.06118602,0.035353955,1.4317327,-9.279925,-0.8714894
6.192431,4.6353474,0.08339227,-0.057990227,0.041745543,1.4460979,-9.308656,-0.8475474
6.1923423,4.6353965,0.08339227,-0.057990227,0.041745543,1.4460979,-9.308656,-0.8475474
6.1922555,4.635453,0.082327,-0.05372917,0.047071867,1.4652514,-9.294291,-0.80924016
6.192169,4.6355104,0.082327,-0.05372917,0.047071867,1.4652514,-9.294291,-0.80924016
6.192092,4.6355534,0.08126174,-0.047337584,0.052398186,1.5466543,-9.351752,-0.89543146
6.1920147,4.6355968,0.08126174,-0.047337584,0.052398186,1.5466543,-9.351752,-0.89543146
6.1919427,4.6356425,0.07913121,-0.037750203,0.059855036,1.6232687,-9.409213,-0.89543146
6.1918707,4.635688,0.07913121,-0.037750203,0.059855036,1.6232687,-9.409213,-0.89543146
6.191799,4.635737,0.075935416,-0.026032293,0.06305083,1.5514427,-9.509769,-0.8523358
6.191727,4.635787,0.075935416,-0.026032293,0.06305083,1.5514427,-9.509769,-0.8523358
6.1916614,4.6358194,0.07273962,-0.014314385,0.0641161,1.5227122,-9.572019,-0.92416185
6.1915994,4.635851,0.07273962,-0.014314385,0.0641161,1.5227122,-9.572019,-0.92416185
6.191529,4.6359005,0.06954383,-0.00366174,0.06731189,1.532289,-9.600749,-0.8331822
6.1914554,4.635951,0.06954383,-0.00366174,0.06731189,1.532289,-9.600749,-0.8331822
6.191389,4.635998,0.0674133,0.00592564,0.071572945,1.5705963,-9.624691,-0.842759
6.1913223,4.6360445,0.0674133,0.00592564,0.071572945,1.5705963,-9.624691,-0.842759
6.191257,4.636091,0.06421751,0.01551302,0.073703475,1.6280571,-9.643845,-0.842759
6.1911907,4.6361375,0.06421751,0.01551302,0.073703475,1.6280571,-9.643845,-0.842759
6.1911244,4.636181,0.061021715,0.024035135,0.073703475,1.5849615,-9.619903,-0.8379706
6.1910586,4.636224,0.061021715,0.024035135,0.073703475,1.5849615,-9.619903,-0.8379706
6.1909866,4.63627,0.058891185,0.033622514,0.06944242,1.5993267,-9.639056,-0.81881696
6.1909146,4.636316,0.058891185,0.033622514,0.06944242,1.5993267,-9.639056,-0.81881696
6.1908345,4.6363773,0.054630127,0.04214463,0.06305083,1.5753847,-9.639056,-0.7230489
6.1907544,4.6364384,0.054630127,0.04214463,0.06305083,1.5753847,-9.639056,-0.7230489
6.1906652,4.636505,0.051434334,0.052797277,0.055593982,1.5993267,-9.672575,-0.6943185
6.1905794,4.6365685,0.051434334,0.052797277,0.055593982,1.5993267,-9.672575,-0.6943185
6.1904845,4.636643,0.047173277,0.061319392,0.047071867,1.6232687,-9.720459,-0.63206923
6.1903915,4.6367154,0.047173277,0.061319392,0.047071867,1.6232687,-9.720459,-0.63206923
6.190291,4.6367903,0.04291222,0.07090677,0.03854975,1.5275006,-9.797073,-0.62728083
6.19019,4.6368656,0.04291222,0.07090677,0.03854975,1.5275006,-9.797073,-0.62728083
6.190077,4.636941,0.039716423,0.08049415,0.02683184,1.4508862,-9.811439,-0.63206923
6.1899643,4.637016,0.039716423,0.08049415,0.02683184,1.4508862,-9.811439,-0.63206923
6.189846,4.6371,0.037585896,0.089016266,0.016179197,1.3503298,-9.911995,-0.62249243
6.1897273,4.6371846,0.037585896,0.089016266,0.016179197,1.3503298,-9.911995,-0.62249243
6.189612,4.637285,0.03652063,0.09540785,0.0065918155,1.2593501,-9.950302,-0.59376204
6.1894965,4.6373863,0.03652063,0.09540785,0.0065918155,1.2593501,-9.950302,-0.59376204
6.1893764,4.637492,0.037585896,0.100734174,-0.0008650357,1.1683705,-9.9550905,-0.62728083
6.189256,4.6375976,0.037585896,0.100734174,-0.0008650357,1.1683705,-9.9550905,-0.62728083
6.189162,4.6377263,0.03865116,0.1060605,-0.006191358,1.1348516,-9.983821,-0.5554548
6.1890674,4.6378555,0.03865116,0.1060605,-0.006191358,1.1348516,-9.983821,-0.5554548
6.189015,4.638003,0.040781688,0.10925629,-0.012582945,1.0103531,-10.012551,-0.5554548
6.1889625,4.63815,0.040781688,0.10925629,-0.012582945,1.0103531,-10.012551,-0.5554548
6.188945,4.6383038,0.043977484,0.11032156,-0.014713474,0.93373865,-10.022128,-0.46926352
6.188927,4.6384563,0.043977484,0.11032156,-0.014713474,0.93373865,-10.022128,-0.46926352
6.1889586,4.638605,0.047173277,0.11032156,-0.015778739,0.82360536,-10.041282,-0.5363012
6.18899,4.6387534,0.047173277,0.11032156,-0.015778739,0.82360536,-10.041282,-0.5363012
6.189032,4.638901,0.051434334,0.10925629,-0.017909266,0.7565677,-10.0269165,-0.49799395
6.1890745,4.639049,0.051434334,0.10925629,-0.017909266,0.7565677,-10.0269165,-0.49799395
6.189148,4.6391873,0.05782592,0.104995236,-0.016844003,0.6751649,-10.04607,-0.5410896
6.1892214,4.639325,0.05782592,0.104995236,-0.016844003,0.6751649,-10.04607,-0.5410896
6.1892967,4.639469,0.06421751,0.09860365,-0.014713474,0.61770403,-10.031705,-0.49799395
6.1893725,4.639613,0.06421751,0.09860365,-0.014713474,0.61770403,-10.031705,-0.49799395
6.1894565,4.63976,0.06954383,0.09221206,-0.009387151,0.59855044,-10.022128,-0.49320555
6.18954,4.639907,0.06954383,0.09221206,-0.009387151,0.59855044,-10.022128,-0.49320555
6.18961,4.640072,0.075935416,0.08368994,-0.004060829,0.7517793,-9.964667,-0.5363012
6.18968,4.640237,0.075935416,0.08368994,-0.004060829,0.7517793,-9.964667,-0.5363012
6.18975,4.64041,0.08339227,0.0762331,-0.0008650357,0.7086837,-10.0508585,-0.47405192
6.1898203,4.640583,0.08339227,0.0762331,-0.0008650357,0.7086837,-10.0508585,-0.47405192
6.189914,4.640751,0.09084912,0.07090677,0.0012654932,0.6560113,-10.01734,-0.51714754
6.190008,4.6409187,0.09084912,0.07090677,0.0012654932,0.6560113,-10.01734,-0.51714754
6.19011,4.6410933,0.09937123,0.06451519,0.0065918155,0.6368576,-10.01734,-0.51235914
6.1902127,4.6412673,0.09937123,0.06451519,0.0065918155,0.6368576,-10.01734,-0.51235914
6.1903095,4.6414566,0.10789335,0.057058334,0.011918138,0.7038953,-10.01734,-0.51714754
6.190407,4.641646,0.10789335,0.057058334,0.011918138,0.7038953,-10.01734,-0.51714754
6.1904774,4.641856,0.1153502,0.049601484,0.016179197,0.79487497,-9.92636,-0.50278234
6.1905484,4.642066,0.1153502,0.049601484,0.016179197,0.79487497,-9.92636,-0.50278234
6.190624,4.6422815,0.12174179,0.04214463,0.019374989,0.7661445,-9.935937,-0.46447513
6.1907,4.642497,0.12174179,0.04214463,0.019374989,0.7661445,-9.935937,-0.46447513
6.190778,4.6427197,0.12919864,0.035753045,0.022570781,0.78529817,-9.907207,-0.48362875
6.1908555,4.6429424,0.12919864,0.035753045,0.022570781,0.78529817,-9.907207,-0.48362875
6.190936,4.64317,0.13452496,0.030426722,0.024701312,0.8331822,-9.868899,-0.5602432
6.1910176,4.643398,0.13452496,0.030426722,0.024701312,0.8331822,-9.868899,-0.5602432
6.1910486,4.64364,0.14091654,0.0251004,0.023636047,0.89543146,-9.835381,-0.521936
6.1910796,4.6438823,0.14091654,0.0251004,0.023636047,0.89543146,-9.835381,-0.521936
6.1910963,4.6441298,0.14624287,0.019774077,0.022570781,0.91458505,-9.816227,-0.5315128
6.1911125,4.644377,0.14624287,0.019774077,0.022570781,0.91458505,-9.816227,-0.5315128
6.1911073,4.644626,0.15050393,0.01551302,0.023636047,0.93373865,-9.730036,-0.545878
6.191101,4.644875,0.15050393,0.01551302,0.023636047,0.93373865,-9.730036,-0.545878
6.191085,4.6451263,0.15476498,0.012317227,0.024701312,0.94331545,-9.730036,-0.5554548
6.191068,4.645377,0.15476498,0.012317227,0.024701312,0.94331545,-9.730036,-0.5554548
6.191045,4.64563,0.15796077,0.009121433,0.022570781,0.9528923,-9.701305,-0.5363012
6.1910214,4.645882,0.15796077,0.009121433,0.022570781,0.9528923,-9.701305,-0.5363012
6.1909757,4.6461325,0.16115656,0.008056169,0.018309724,0.9959879,-9.586384,-0.48841715
6.190929,4.6463823,0.16115656,0.008056169,0.018309724,0.9959879,-9.586384,-0.48841715
6.190862,4.6466255,0.1632871,0.00592564,0.01724446,0.9768343,-9.557653,-0.545878
6.1907945,4.6468678,0.1632871,0.00592564,0.01724446,0.9768343,-9.557653,-0.545878
6.1906857,4.6470785,0.16435237,0.0048603755,0.015113931,1.0055647,-9.466674,-0.5746084
6.1905756,4.647288,0.16435237,0.0048603755,0.015113931,1.0055647,-9.466674,-0.5746084
6.190448,4.6474457,0.16541763,0.003795111,0.011918138,0.9576807,-9.404425,-0.61770403
6.19032,4.647601,0.16541763,0.003795111,0.011918138,0.9576807,-9.404425,-0.61770403
6.1902037,4.6477194,0.16541763,0.0016645822,0.00765708,0.93852705,-9.370906,-0.63206923
6.190089,4.6478357,0.16541763,0.0016645822,0.00765708,0.93852705,-9.370906,-0.63206923
6.189975,4.6479473,0.16541763,-0.00046594674,0.0044612866,1.0486604,-9.251195,-0.6799533
6.189861,4.6480584,0.16541763,-0.00046594674,0.0044612866,1.0486604,-9.251195,-0.6799533
6.1897388,4.64817,0.16222183,-0.0015312112,-0.0008650357,1.0965444,-9.193734,-0.6895301
6.189617,4.64828,0.16222183,-0.0015312112,-0.0008650357,1.0965444,-9.193734,-0.6895301
6.1895213,4.648358,0.15796077,-0.0025964756,-0.010452416,1.0295067,-9.203311,-0.7422025
6.1894264,4.6484356,0.15796077,-0.0025964756,-0.010452416,1.0295067,-9.203311,-0.7422025
6.1892986,4.6485243,0.15156919,-0.0015312112,-0.017909266,1.0103531,-9.241618,-0.6703765
6.189172,4.6486125,0.15156919,-0.0015312112,-0.017909266,1.0103531,-9.241618,-0.6703765
6.189044,4.648689,0.1451776,0.0005993177,-0.025366118,1.0007763,-9.193734,-0.6751649
6.188917,4.6487646,0.1451776,0.0005993177,-0.025366118,1.0007763,-9.193734,-0.6751649
6.1888013,4.648822,0.13878602,-0.0015312112,-0.03282297,1.0726024,-9.169792,-0.78050977
6.188686,4.648879,0.13878602,-0.0015312112,-0.03282297,1.0726024,-9.169792,-0.78050977
6.1885424,4.648936,0.12813337,-0.0047270046,-0.043475613,1.0869676,-9.131485,-0.7326257
6.188399,4.6489925,0.12813337,-0.0047270046,-0.043475613,1.0869676,-9.131485,-0.7326257
6.188259,4.6490293,0.118545994,-0.0068575335,-0.056258786,1.067814,-9.141062,-0.7661445
6.1881194,4.649066,0.118545994,-0.0068575335,-0.056258786,1.067814,-9.141062,-0.7661445
6.18797,4.649091,0.10789335,-0.007922798,-0.0679767,1.0486604,-9.155427,-0.7517793
6.1878214,4.6491156,0.10789335,-0.007922798,-0.0679767,1.0486604,-9.155427,-0.7517793
6.1876526,4.649135,0.09937123,-0.010053327,-0.08182514,1.067814,-9.208099,-0.7469909
6.1874804,4.6491547,0.09937123,-0.010053327,-0.08182514,1.067814,-9.208099,-0.7469909
6.187311,4.64916,0.089783855,-0.014314385,-0.093543045,1.0295067,-9.227253,-0.7278373
6.187139,4.649165,0.089783855,-0.014314385,-0.093543045,1.0295067,-9.227253,-0.7278373
6.186965,4.6491556,0.07913121,-0.018575443,-0.10313042,1.0486604,-9.284714,-0.7661445
6.186791,4.649146,0.07913121,-0.018575443,-0.10313042,1.0486604,-9.284714,-0.7661445
6.186569,4.6491537,0.07167436,-0.021771235,-0.11165254,1.0965444,-9.308656,-0.6943185
6.1863475,4.6491613,0.07167436,-0.021771235,-0.11165254,1.0965444,-9.308656,-0.6943185
6.1861315,4.6491528,0.0674133,-0.026032293,-0.120174654,1.1540052,-9.375694,-0.770933
6.185916,4.649144,0.0674133,-0.026032293,-0.120174654,1.1540052,-9.375694,-0.770933
6.1856885,4.6491337,0.062086977,-0.030293351,-0.12656625,1.1204864,-9.375694,-0.7278373
6.1854615,4.649123,0.062086977,-0.030293351,-0.12656625,1.1204864,-9.375694,-0.7278373
6.185261,4.649089,0.056760654,-0.033489145,-0.13189256,1.1348516,-9.437943,-0.8475474
6.1850605,4.6490545,0.056760654,-0.033489145,-0.13189256,1.1348516,-9.437943,-0.8475474
6.184824,4.6490355,0.054630127,-0.035619672,-0.13615362,1.1875241,-9.423578,-0.770933
6.1845846,4.6490154,0.054630127,-0.035619672,-0.13615362,1.1875241,-9.423578,-0.770933
6.1843452,4.6489954,0.05036907,-0.037750203,-0.13828415,1.1923125,-9.375694,-0.7565677
6.1841083,4.6489754,0.05036907,-0.037750203,-0.13828415,1.1923125,-9.375694,-0.7565677
6.1838655,4.648953,0.049303804,-0.03988073,-0.13934942,1.2066777,-9.323022,-0.7661445
6.1836243,4.6489296,0.049303804,-0.03988073,-0.13934942,1.2066777,-9.323022,-0.7661445
6.1833954,4.6488976,0.049303804,-0.04201126,-0.13934942,1.2497733,-9.390059,-0.8523358
6.1831675,4.6488647,0.049303804,-0.04201126,-0.13934942,1.2497733,-9.390059,-0.8523358
6.1829143,4.648851,0.047173277,-0.043076526,-0.13828415,1.3072342,-9.3661175,-0.7661445
6.1826625,4.6488376,0.047173277,-0.043076526,-0.13828415,1.3072342,-9.3661175,-0.7661445
6.1824236,4.6488104,0.04610801,-0.04201126,-0.13615362,1.316811,-9.361329,-0.8331822
6.182186,4.648783,0.04610801,-0.04201126,-0.13615362,1.316811,-9.361329,-0.8331822
6.181942,4.648764,0.04610801,-0.040945996,-0.13295783,1.3599066,-9.351752,-0.80924016
6.181699,4.648745,0.04610801,-0.040945996,-0.13295783,1.3599066,-9.351752,-0.80924016
6.1814547,4.648731,0.04610801,-0.03455441,-0.12869677,1.364695,-9.380483,-0.79008657
6.1812115,4.6487164,0.04610801,-0.03455441,-0.12869677,1.364695,-9.380483,-0.79008657
6.180973,4.6487017,0.04610801,-0.028162822,-0.123370446,1.3982137,-9.370906,-0.80924016
6.180692,4.648684,0.04610801,-0.028162822,-0.123370446,1.3982137,-9.370906,-0.80924016
6.180692,4.648684,0.04610801,-0.028162822,-0.123370446,1.3982137,-9.370906,-0.80924016
6.1802325,4.648658,0.047173277,-0.021771235,-0.11804412,1.4077905,-9.409213,-0.81402856
6.180019,4.648651,0.04823854,-0.012183856,-0.11165254,1.4269443,-9.375694,-0.79966336
6.179795,4.648644,0.04823854,-0.012183856,-0.11165254,1.4269443,-9.375694,-0.79966336
6.179795,4.648644,0.04823854,-0.012183856,-0.11165254,1.4269443,-9.375694,-0.79966336
6.1792903,4.648689,0.05036907,-0.00046594674,-0.107391484,1.4413095,-9.380483,-0.6943185
6.179088,4.6487017,0.051434334,0.008056169,-0.10099989,1.4796166,-9.414001,-0.7374141
6.1788554,4.648717,0.051434334,0.008056169,-0.10099989,1.4796166,-9.414001,-0.7374141
6.1786246,4.648741,0.05356486,0.020839343,-0.095673576,1.4173675,-9.404425,-0.6991069
6.1783943,4.648764,0.05356486,0.020839343,-0.095673576,1.4173675,-9.404425,-0.6991069
6.178162,4.648814,0.055695392,0.031491987,-0.09034725,1.3982137,-9.471462,-0.62728083
6.177928,4.6488643,0.055695392,0.031491987,-0.09034725,1.3982137,-9.471462,-0.62728083
6.177704,4.6489344,0.058891185,0.04107937,-0.08395566,1.4077905,-9.457097,-0.5793968
6.1774783,4.6490045,0.058891185,0.04107937,-0.08395566,1.4077905,-9.457097,-0.5793968
6.1772604,4.649055,0.06315224,0.049601484,-0.076498814,1.3359646,-9.461885,-0.641646
6.177043,4.649105,0.06315224,0.049601484,-0.076498814,1.3359646,-9.461885,-0.641646
6.1768293,4.6491785,0.06634804,0.05918886,-0.07010722,1.3215994,-9.41879,-0.59376204
6.176615,4.649252,0.06634804,0.05918886,-0.07010722,1.3215994,-9.41879,-0.59376204
6.1764097,4.6493254,0.06954383,0.069841504,-0.06158511,1.292869,-9.437943,-0.60333884
6.1762037,4.6493983,0.06954383,0.069841504,-0.06158511,1.292869,-9.437943,-0.60333884
6.176029,4.6494255,0.074870154,0.07836362,-0.053062994,1.2162545,-9.380483,-0.6895301
6.1758547,4.6494517,0.074870154,0.07836362,-0.053062994,1.2162545,-9.380483,-0.6895301
6.1756716,4.6495137,0.08019647,0.089016266,-0.04241035,1.1587936,-9.308656,-0.61770403
6.175489,4.6495748,0.08019647,0.089016266,-0.04241035,1.1587936,-9.308656,-0.61770403
6.175331,4.64962,0.08552279,0.09966891,-0.03069244,1.0869676,-9.284714,-0.61770403
6.175174,4.649664,0.08552279,0.09966891,-0.03069244,1.0869676,-9.284714,-0.61770403
6.1751895,4.6496687,0.08871859,0.10925629,-0.017909266,0.9624691,-9.193734,-0.6655881
6.1752043,4.6496735,0.08871859,0.10925629,-0.017909266,0.9624691,-9.193734,-0.6655881
6.1752515,4.649686,0.09084912,0.116713144,-0.004060829,0.8619126,-9.155427,-0.78050977
6.1752987,4.6496983,0.09084912,0.116713144,-0.004060829,0.8619126,-9.155427,-0.78050977
6.1753626,4.649713,0.091914386,0.1209742,0.010852873,0.842759,-9.11712,-0.79008657
6.175427,4.649728,0.091914386,0.1209742,0.010852873,0.842759,-9.11712,-0.79008657
6.175531,4.649756,0.09404491,0.12417,0.025766576,0.7565677,-9.030929,-0.770933
6.175634,4.6497836,0.09404491,0.12417,0.025766576,0.7565677,-9.030929,-0.770933
6.175746,4.649811,0.09617544,0.12630053,0.040680278,0.7230489,-9.011775,-0.8283938
6.175858,4.6498375,0.09617544,0.12630053,0.040680278,0.7230489,-9.011775,-0.8283938
6.176,4.649872,0.09617544,0.12523526,0.05772451,0.7182605,-8.968679,-0.7661445
6.1761427,4.649906,0.09617544,0.12523526,0.05772451,0.7182605,-8.968679,-0.7661445
6.1762934,4.6499367,0.09617544,0.12310473,0.07263821,0.7086837,-8.968679,-0.79487497
6.1764445,4.649967,0.09617544,0.12310473,0.07263821,0.7086837,-8.968679,-0.79487497
6.176595,4.6499977,0.09617544,0.12310473,0.07263821,0.7086837,-8.968679,-0.79487497
6.176773,4.650033,0.09511018,0.11990894,0.088617176,0.6703765,-8.939949,-0.7757214
6.1769505,4.650068,0.09511018,0.11990894,0.088617176,0.6703765,-8.939949,-0.7757214
6.1771407,4.6500998,0.09404491,0.11458261,0.104596145,0.6799533,-8.949526,-0.78050977
6.1773305,4.650131,0.09404491,0.11458261,0.104596145,0.6799533,-8.949526,-0.78050977
6.1775355,4.65016,0.091914386,0.11245208,0.119509846,0.6943185,-8.930372,-0.7661445
6.1777396,4.6501884,0.091914386,0.11245208,0.119509846,0.6943185,-8.930372,-0.7661445
6.1779556,4.6502094,0.08658806,0.10819103,0.13442355,0.6943185,-8.882488,-0.770933
6.1781707,4.6502295,0.08658806,0.10819103,0.13442355,0.6943185,-8.882488,-0.770933
6.178395,4.650242,0.08019647,0.10392997,0.1450762,0.7134721,-8.882488,-0.7613561
