Pitch,Roll,Gyro_X,Gyro_Y,Gyro_Z,Accel_X,Accel_Y,Accel_Z
0.023829129,4.8741465,-0.017807856,-0.20712726,-0.037084028,0.12928689,-9.3182335,1.1923125
0.023829129,4.8741465,-0.017807856,-0.20712726,-0.037084028,0.12928689,-9.3182335,1.1923125
0.023503121,4.873955,-0.02313418,-0.20606199,-0.03814929,0.17717093,-9.26556,1.1971009
0.023503121,4.873955,-0.02313418,-0.20606199,-0.03814929,0.17717093,-9.26556,1.1971009
0.023503121,4.873955,-0.02313418,-0.20606199,-0.03814929,0.17717093,-9.26556,1.1971009
0.023503121,4.873955,-0.02313418,-0.20606199,-0.03814929,0.17717093,-9.26556,1.1971009
0.022736965,4.873558,-0.03804788,-0.20499672,-0.04454088,0.33039984,-9.284714,1.1923125
0.022644036,4.8735094,-0.03804788,-0.20499672,-0.04454088,0.33039984,-9.284714,1.1923125
0.02248851,4.873429,-0.03804788,-0.20499672,-0.04454088,0.33039984,-9.284714,1.1923125
0.022277756,4.873324,-0.045504734,-0.20180093,-0.046671405,0.37828386,-9.337387,1.2306197
0.021996995,4.8731856,-0.052961584,-0.19860514,-0.0498672,0.3878607,-9.284714,1.2689269
0.021996995,4.8731856,-0.052961584,-0.19860514,-0.0498672,0.3878607,-9.284714,1.2689269
0.021561863,4.8729725,-0.05935317,-0.19327882,-0.05412826,0.36870706,-9.346964,1.2018893
0.021561863,4.8729725,-0.05935317,-0.19327882,-0.05412826,0.36870706,-9.346964,1.2018893
0.021561863,4.8729725,-0.05935317,-0.19327882,-0.05412826,0.36870706,-9.346964,1.2018893
0.021561863,4.8729725,-0.05935317,-0.19327882,-0.05412826,0.36870706,-9.346964,1.2018893
0.021561863,4.8729725,-0.05935317,-0.19327882,-0.05412826,0.36870706,-9.346964,1.2018893
0.021561863,4.8729725,-0.05935317,-0.19327882,-0.05412826,0.36870706,-9.346964,1.2018893
0.021561863,4.8729725,-0.05935317,-0.19327882,-0.05412826,0.36870706,-9.346964,1.2018893
0.020149752,4.8719983,-0.0795932,-0.17516932,-0.06371564,0.31603462,-9.481039,1.2354081
0.019978832,4.871858,-0.08491952,-0.16877773,-0.062650375,0.29688102,-9.461885,1.163582
0.019771304,4.871688,-0.08491952,-0.16877773,-0.062650375,0.29688102,-9.461885,1.163582
0.019574996,4.871519,-0.089180574,-0.16132088,-0.06158511,0.2825158,-9.442732,1.163582
0.019426147,4.8713903,-0.089180574,-0.16132088,-0.06158511,0.2825158,-9.442732,1.163582
0.019254895,4.8712344,-0.093441635,-0.1517335,-0.060519844,0.24899697,-9.404425,1.1731589
0.019075276,4.8710704,-0.093441635,-0.1517335,-0.060519844,0.24899697,-9.404425,1.1731589
0.018894214,4.870905,-0.09770269,-0.14214613,-0.05732405,0.25857377,-9.452309,1.2066777
0.018707307,4.8707347,-0.09770269,-0.14214613,-0.05732405,0.25857377,-9.452309,1.2066777
0.018535268,4.870564,-0.10196375,-0.13042821,-0.05199773,0.22026655,-9.437943,1.2210429
0.018363945,4.8703938,-0.10196375,-0.13042821,-0.05199773,0.22026655,-9.437943,1.2210429
0.018181568,4.870233,-0.10515954,-0.12084083,-0.048801936,0.24899697,-9.404425,1.283292
0.017997595,4.870071,-0.10515954,-0.12084083,-0.048801936,0.24899697,-9.404425,1.283292
0.01781785,4.869906,-0.11048587,-0.109122925,-0.046671405,0.22984336,-9.490616,1.3120226
0.017637804,4.869741,-0.11048587,-0.109122925,-0.046671405,0.22984336,-9.490616,1.3120226
0.017462783,4.8695683,-0.11474692,-0.09633975,-0.046671405,0.22984336,-9.442732,1.2880806
0.017288022,4.869396,-0.11474692,-0.09633975,-0.046671405,0.22984336,-9.442732,1.2880806
0.017105745,4.8692293,-0.120073244,-0.0856871,-0.045606144,0.2681506,-9.457097,1.3263878
0.016922206,4.8690615,-0.120073244,-0.0856871,-0.045606144,0.2681506,-9.457097,1.3263878
0.016739205,4.868891,-0.124334306,-0.07396919,-0.04773667,0.2777274,-9.500193,1.3311762
0.016556067,4.86872,-0.124334306,-0.07396919,-0.04773667,0.2777274,-9.500193,1.3311762
0.01636429,4.8685565,-0.12966062,-0.062251285,-0.053062994,0.272939,-9.548077,1.3838485
0.016170457,4.8683915,-0.12966062,-0.062251285,-0.053062994,0.272939,-9.548077,1.3838485
0.01597229,4.8682218,-0.13498695,-0.052663904,-0.059454583,0.22026655,-9.576807,1.4030021
0.015773768,4.8680525,-0.13498695,-0.052663904,-0.059454583,0.22026655,-9.576807,1.4030021
0.015569427,4.8678746,-0.14031327,-0.043076526,-0.0679767,0.20590134,-9.610326,1.4030021
0.015365312,4.8676972,-0.14031327,-0.043076526,-0.0679767,0.20590134,-9.610326,1.4030021
0.015153919,4.8675194,-0.1456396,-0.03455441,-0.07436828,0.090979666,-9.653421,1.4508862
0.014942746,4.867342,-0.1456396,-0.03455441,-0.07436828,0.090979666,-9.653421,1.4508862
0.014722769,4.8671656,-0.15096591,-0.027097559,-0.08075987,0.06703765,-9.672575,1.4700398
0.014503186,4.86699,-0.15096591,-0.027097559,-0.08075987,0.06703765,-9.672575,1.4700398
0.014337559,4.8667536,-0.1541617,-0.020705972,-0.08395566,-0.05267244,-9.696517,1.4173675
0.014171724,4.866517,-0.1541617,-0.020705972,-0.08395566,-0.05267244,-9.696517,1.4173675
0.014069051,4.8662605,-0.15522698,-0.015379649,-0.08608619,-0.12449849,-9.739613,1.4077905
0.013968617,4.8660073,-0.15522698,-0.015379649,-0.08608619,-0.12449849,-9.739613,1.4077905
0.013944217,4.8657613,-0.15842277,-0.012183856,-0.08928198,-0.23942018,-9.768343,1.3742718
0.013920825,4.8655148,-0.15842277,-0.012183856,-0.08928198,-0.23942018,-9.768343,1.3742718
0.01389767,4.8652673,-0.16055329,-0.011118591,-0.09034725,-0.2681506,-9.792285,1.340753
0.0138753485,4.865019,-0.16055329,-0.011118591,-0.09034725,-0.2681506,-9.792285,1.340753
0.013881887,4.8647866,-0.15948802,-0.011118591,-0.08928198,-0.34476504,-9.77792,1.3455414
0.013889124,4.864555,-0.15948802,-0.011118591,-0.08928198,-0.34476504,-9.77792,1.3455414
0.013924202,4.864348,-0.15842277,-0.011118591,-0.08715145,-0.36391866,-9.768343,1.4077905
0.013959816,4.8641424,-0.15842277,-0.011118591,-0.08715145,-0.36391866,-9.768343,1.4077905
0.014004305,4.8639493,-0.15629223,-0.01324912,-0.08502093,-0.39743748,-9.811439,1.4269443
0.014049188,4.863757,-0.15629223,-0.01324912,-0.08502093,-0.39743748,-9.811439,1.4269443
0.01409904,4.8635683,-0.15522698,-0.016444914,-0.08075987,-0.39743748,-9.758766,1.4221559
0.0141498735,4.8633785,-0.15522698,-0.016444914,-0.08075987,-0.39743748,-9.758766,1.4221559
0.01420908,4.863208,-0.15309644,-0.019640706,-0.075433545,-0.44532153,-9.792285,1.4460979
0.01426925,4.863036,-0.15309644,-0.019640706,-0.075433545,-0.44532153,-9.792285,1.4460979
0.014335189,4.862876,-0.15096591,-0.0228365,-0.07117249,-0.37828386,-9.787497,1.4700398
0.014400858,4.862717,-0.15096591,-0.0228365,-0.07117249,-0.37828386,-9.787497,1.4700398
0.014465215,4.8625894,-0.14777012,-0.029228088,-0.06904196,-0.4213795,-9.787497,1.5227122
0.014529305,4.8624625,-0.14777012,-0.029228088,-0.06904196,-0.4213795,-9.787497,1.5227122
0.014599833,4.862324,-0.14457433,-0.035619672,-0.064780906,-0.39264908,-9.801862,1.4939818
0.014669961,4.862188,-0.14457433,-0.035619672,-0.064780906,-0.39264908,-9.801862,1.4939818
0.014743092,4.8620567,-0.14031327,-0.043076526,-0.060519844,-0.40222588,-9.792285,1.4939818
0.0148161575,4.861926,-0.14031327,-0.043076526,-0.060519844,-0.40222588,-9.792285,1.4939818
0.01488515,4.8618155,-0.1360522,-0.050533377,-0.059454583,-0.4309563,-9.821015,1.532289
0.014953909,4.8617053,-0.1360522,-0.050533377,-0.059454583,-0.4309563,-9.821015,1.532289
0.015024448,4.8615904,-0.13179116,-0.057990227,-0.059454583,-0.4165911,-9.782708,1.5035586
0.01509389,4.861478,-0.13179116,-0.057990227,-0.059454583,-0.4165911,-9.782708,1.5035586
0.015165186,4.861354,-0.12859535,-0.066512346,-0.059454583,-0.41180268,-9.835381,1.484405
0.01523742,4.861229,-0.12859535,-0.066512346,-0.059454583,-0.41180268,-9.835381,1.484405
0.015301012,4.8611336,-0.12539956,-0.07609972,-0.059454583,-0.40222588,-9.792285,1.5227122
0.015364355,4.861038,-0.12539956,-0.07609972,-0.059454583,-0.40222588,-9.792285,1.5227122
0.015421345,4.860958,-0.122203775,-0.0856871,-0.058389317,-0.35913026,-9.782708,1.532289
0.015478233,4.8608785,-0.122203775,-0.0856871,-0.058389317,-0.35913026,-9.782708,1.532289
0.015545267,4.8607574,-0.11900798,-0.09420922,-0.059454583,-0.4213795,-9.744401,1.4508862
0.015612604,4.8606367,-0.11900798,-0.09420922,-0.059454583,-0.4213795,-9.744401,1.4508862
0.015668083,4.860559,-0.11474692,-0.10273133,-0.060519844,-0.39264908,-9.792285,1.5275006
0.015723424,4.8604813,-0.11474692,-0.10273133,-0.060519844,-0.39264908,-9.792285,1.5275006
0.01578398,4.860384,-0.11155113,-0.110188186,-0.062650375,-0.34476504,-9.734824,1.4700398
0.01584467,4.860287,-0.11155113,-0.110188186,-0.062650375,-0.34476504,-9.734824,1.4700398
0.015898904,4.860206,-0.1094206,-0.11977556,-0.06371564,-0.33039984,-9.725247,1.484405
0.015952362,4.8601265,-0.1094206,-0.11977556,-0.06371564,-0.33039984,-9.725247,1.484405
0.015995849,4.8600664,-0.107290074,-0.12723242,-0.062650375,-0.35913026,-9.730036,1.5227122
0.016039116,4.860007,-0.107290074,-0.12723242,-0.062650375,-0.35913026,-9.730036,1.5227122
0.016088821,4.8599343,-0.10302901,-0.1368198,-0.064780906,-0.35434186,-9.701305,1.484405
0.016138459,4.8598623,-0.10302901,-0.1368198,-0.064780906,-0.35434186,-9.701305,1.484405
0.016174393,4.8598123,-0.09983322,-0.14534192,-0.06584617,-0.31124622,-9.682152,1.4987702
0.016210055,4.859763,-0.09983322,-0.14534192,-0.06584617,-0.31124622,-9.682152,1.4987702
0.016226731,4.8597317,-0.09770269,-0.15279876,-0.0679767,-0.29209262,-9.639056,1.5131354
0.016243491,4.8597,-0.09770269,-0.15279876,-0.0679767,-0.29209262,-9.639056,1.5131354
0.016285501,4.859641,-0.09557216,-0.15812509,-0.0679767,-0.2873042,-9.672575,1.4796166
0.016313514,4.859602,-0.09557216,-0.15812509,-0.0679767,-0.2873042,-9.672575,1.4796166
0.016286489,4.859598,-0.0945069,-0.1634514,-0.06904196,-0.20111294,-9.619903,1.484405
0.016259504,4.859594,-0.0945069,-0.1634514,-0.06904196,-0.20111294,-9.619903,1.484405
0.01616516,4.8596034,-0.092376366,-0.17090826,-0.07010722,-0.15801731,-9.610326,1.4748282
0.016072577,4.859613,-0.092376366,-0.17090826,-0.07010722,-0.15801731,-9.610326,1.4748282
0.0159692,4.8596225,-0.092376366,-0.17516932,-0.07330302,-0.15322891,-9.600749,1.4796166
0.015867466,4.859632,-0.092376366,-0.17516932,-0.07330302,-0.15322891,-9.600749,1.4796166
0.015645511,4.85959,-0.093441635,-0.17943038,-0.075433545,-0.10055647,-9.634268,1.4508862
0.015424985,4.8595505,-0.093441635,-0.17943038,-0.075433545,-0.10055647,-9.634268,1.4508862
0.015192626,4.859428,-0.093441635,-0.18369143,-0.07330302,-0.02873042,-9.662998,1.4030021
0.014959942,4.8593063,-0.093441635,-0.18369143,-0.07330302,-0.02873042,-9.662998,1.4030021
0.014722819,4.859201,-0.092376366,-0.18582197,-0.07223775,-0.038307227,-9.691729,1.4221559
0.014485797,4.859097,-0.092376366,-0.18582197,-0.07223775,-0.038307227,-9.691729,1.4221559
0.014248803,4.8590026,-0.091311105,-0.18795249,-0.07117249,-0.009576807,-9.662998,1.4221559
0.01401018,4.858908,-0.091311105,-0.18795249,-0.07117249,-0.009576807,-9.662998,1.4221559
0.01378835,4.858775,-0.091311105,-0.19008303,-0.06904196,0.033518825,-9.691729,1.3694834
0.013566333,4.858642,-0.091311105,-0.19008303,-0.06904196,0.033518825,-9.691729,1.3694834
0.013341381,4.8585205,-0.089180574,-0.19008303,-0.06691143,0.038307227,-9.739613,1.388637
0.013115666,4.8583994,-0.089180574,-0.19008303,-0.06691143,0.038307227,-9.739613,1.388637
0.012899962,4.858274,-0.08705004,-0.18795249,-0.060519844,0.06703765,-9.706094,1.364695
0.012684328,4.8581486,-0.08705004,-0.18795249,-0.060519844,0.06703765,-9.706094,1.364695
0.012514019,4.8579907,-0.08491952,-0.18582197,-0.05199773,0.038307227,-9.653421,1.283292
0.012343151,4.8578324,-0.08491952,-0.18582197,-0.05199773,0.038307227,-9.653421,1.283292
0.012164823,4.85769,-0.08278899,-0.18369143,-0.041345086,0.05267244,-9.586384,1.3072342
0.011986558,4.8575478,-0.08278899,-0.18369143,-0.041345086,0.05267244,-9.586384,1.3072342
0.011817734,4.8574123,-0.0795932,-0.17729984,-0.029627176,0.095768064,-9.591172,1.292869
0.011648252,4.8572764,-0.0795932,-0.17729984,-0.029627176,0.095768064,-9.591172,1.292869
0.011484979,4.857148,-0.07852793,-0.17090826,-0.017909266,0.12449849,-9.591172,1.2976574
0.01132173,4.8570204,-0.07852793,-0.17090826,-0.017909266,0.12449849,-9.591172,1.2976574
0.011180982,4.856886,-0.076397404,-0.1634514,-0.0051260935,0.15801731,-9.610326,1.2545617
0.011039687,4.856751,-0.076397404,-0.1634514,-0.0051260935,0.15801731,-9.610326,1.2545617
0.010897062,4.856631,-0.075332135,-0.15599456,0.0044612866,0.21547815,-9.533711,1.2641385
0.010754459,4.85651,-0.075332135,-0.15599456,0.0044612866,0.21547815,-9.533711,1.2641385
0.010615399,4.856398,-0.076397404,-0.14534192,0.011918138,0.2681506,-9.490616,1.2689269
0.010475791,4.8562856,-0.076397404,-0.14534192,0.011918138,0.2681506,-9.490616,1.2689269
0.010338701,4.856187,-0.077462666,-0.13468927,0.019374989,0.2873042,-9.528923,1.316811
0.01020167,4.856089,-0.077462666,-0.13468927,0.019374989,0.2873042,-9.528923,1.316811
0.010066509,4.8560057,-0.0795932,-0.122971356,0.022570781,0.32561144,-9.500193,1.3599066
0.009931342,4.8559227,-0.0795932,-0.122971356,0.022570781,0.32561144,-9.500193,1.3599066
0.009801761,4.8558335,-0.08172372,-0.110188186,0.025766576,0.36870706,-9.519346,1.3455414
0.009671763,4.8557444,-0.08172372,-0.110188186,0.025766576,0.36870706,-9.519346,1.3455414
0.009543538,4.8556437,-0.08598478,-0.09740501,0.024701312,0.36870706,-9.509769,1.3215994
0.00941537,4.8555436,-0.08598478,-0.09740501,0.024701312,0.36870706,-9.509769,1.3215994
0.009288653,4.8554716,-0.09024584,-0.08249131,0.022570781,0.40222588,-9.509769,1.4317327
0.009161622,4.855399,-0.09024584,-0.08249131,0.022570781,0.40222588,-9.509769,1.4317327
0.009031399,4.855319,-0.0945069,-0.06970814,0.018309724,0.36870706,-9.552865,1.4221559
0.008901335,4.855239,-0.0945069,-0.06970814,0.018309724,0.36870706,-9.552865,1.4221559
0.008767468,4.8551397,-0.09876795,-0.05692496,0.014048667,0.34476504,-9.557653,1.3694834
0.008633128,4.8550396,-0.09876795,-0.05692496,0.014048667,0.34476504,-9.557653,1.3694834
0.008497484,4.854947,-0.104094274,-0.044141788,0.009787609,0.29688102,-9.624691,1.412579
0.008497484,4.854947,-0.104094274,-0.044141788,0.009787609,0.29688102,-9.624691,1.412579
0.008215249,4.854757,-0.108355336,-0.031358615,0.0044612866,0.22505496,-9.643845,1.4173675
0.008071817,4.854661,-0.108355336,-0.031358615,0.0044612866,0.22505496,-9.643845,1.4173675
0.007947161,4.8545904,-0.11048587,-0.018575443,0.00020022877,0.16759412,-9.634268,1.4460979
0.007947161,4.8545904,-0.11048587,-0.018575443,0.00020022877,0.16759412,-9.634268,1.4460979
0.007772696,4.854491,-0.11048587,-0.018575443,0.00020022877,0.16759412,-9.634268,1.4460979
0.0075354935,4.8543444,-0.11368166,-0.007922798,-0.004060829,0.11971009,-9.701305,1.4269443
0.007382117,4.8542304,-0.11581218,0.0005993177,-0.009387151,0.06703765,-9.677363,1.388637
0.007238338,4.854125,-0.11581218,0.0005993177,-0.009387151,0.06703765,-9.677363,1.388637
0.007089831,4.8540115,-0.11794271,0.009121433,-0.01151768,0.04309563,-9.744401,1.3934253
0.0069407797,4.8538995,-0.11794271,0.009121433,-0.01151768,0.04309563,-9.744401,1.3934253
0.0068925214,4.853876,-0.11900798,0.01551302,-0.013648209,-0.04309563,-9.753978,1.4556746
0.006844834,4.8538527,-0.11900798,0.01551302,-0.013648209,-0.04309563,-9.753978,1.4556746
0.0068940264,4.853823,-0.11900798,0.021904606,-0.014713474,-0.10534488,-9.758766,1.4460979
0.006942342,4.8537936,-0.11900798,0.021904606,-0.014713474,-0.10534488,-9.758766,1.4460979
0.0070034508,4.853758,-0.120073244,0.02723093,-0.015778739,-0.15322891,-9.797073,1.4939818
0.007063676,4.8537226,-0.120073244,0.02723093,-0.015778739,-0.15322891,-9.797073,1.4939818
0.0071311914,4.853683,-0.120073244,0.030426722,-0.018974531,-0.17238252,-9.859323,1.5035586
0.0071981456,4.853643,-0.120073244,0.030426722,-0.018974531,-0.17238252,-9.859323,1.5035586
0.0072884625,4.853589,-0.11794271,0.032557253,-0.02110506,-0.23463176,-9.844957,1.4987702
0.0073783426,4.853535,-0.11794271,0.032557253,-0.02110506,-0.23463176,-9.844957,1.4987702
0.007441563,4.8535004,-0.11474692,0.032557253,-0.02323559,-0.22505496,-9.859323,1.5514427
0.0075044124,4.853466,-0.11474692,0.032557253,-0.02323559,-0.22505496,-9.859323,1.5514427
0.0075697983,4.8534307,-0.11368166,0.032557253,-0.024300855,-0.22026655,-9.864111,1.5370775
0.0076347324,4.853396,-0.11368166,0.032557253,-0.024300855,-0.22026655,-9.864111,1.5370775
0.0077226297,4.8533454,-0.11155113,0.031491987,-0.026431382,-0.22026655,-9.921572,1.4891934
0.007810485,4.8532953,-0.11155113,0.031491987,-0.026431382,-0.22026655,-9.921572,1.4891934
0.007899066,4.8532443,-0.108355336,0.02723093,-0.029627176,-0.23942018,-9.883265,1.484405
0.007987018,4.8531933,-0.108355336,0.02723093,-0.029627176,-0.23942018,-9.883265,1.484405
0.0080438405,4.853165,-0.10515954,0.0251004,-0.034953497,-0.25378537,-9.921572,1.5801731
0.008087327,4.8531437,-0.10515954,0.0251004,-0.034953497,-0.25378537,-9.921572,1.5801731
0.008162411,4.853099,-0.10196375,0.019774077,-0.041345086,-0.2873042,-9.911995,1.508347
0.008238104,4.853054,-0.10196375,0.019774077,-0.041345086,-0.2873042,-9.911995,1.508347
0.008285836,4.853028,-0.09983322,0.01551302,-0.04773667,-0.2825158,-9.92636,1.5658079
0.008333745,4.853002,-0.09983322,0.01551302,-0.04773667,-0.2825158,-9.92636,1.5658079
0.008381876,4.852974,-0.09663743,0.010186698,-0.05412826,-0.29209262,-9.878476,1.541866
0.008430193,4.852946,-0.09663743,0.010186698,-0.05412826,-0.29209262,-9.878476,1.541866
0.008462687,4.8529243,-0.0945069,0.0027298466,-0.06158511,-0.30645782,-9.916783,1.5801731
0.008495127,4.852904,-0.0945069,0.0027298466,-0.06158511,-0.30645782,-9.916783,1.5801731
0.008531251,4.852876,-0.092376366,-0.0047270046,-0.06904196,-0.33039984,-9.9550905,1.5610195
0.008567176,4.852849,-0.092376366,-0.0047270046,-0.06904196,-0.33039984,-9.9550905,1.5610195
0.00861339,4.852811,-0.08705004,-0.012183856,-0.07436828,-0.37828386,-9.969456,1.5275006
0.008659411,4.852772,-0.08705004,-0.012183856,-0.07436828,-0.37828386,-9.969456,1.5275006
0.008714006,4.852716,-0.08385425,-0.021771235,-0.077564076,-0.320823,-9.964667,1.4556746
0.008768456,4.852659,-0.08385425,-0.021771235,-0.077564076,-0.320823,-9.964667,1.4556746
0.008801372,4.8526335,-0.077462666,-0.030293351,-0.0828904,-0.31603462,-9.945514,1.5035586
0.008834237,4.8526077,-0.077462666,-0.030293351,-0.0828904,-0.31603462,-9.945514,1.5035586
0.0088670235,4.8525844,-0.07107108,-0.03881547,-0.08502093,-0.37828386,-9.983821,1.5227122
0.008900501,4.852561,-0.07107108,-0.03881547,-0.08502093,-0.37828386,-9.983821,1.5227122
0.008914185,4.852561,-0.06467949,-0.048402846,-0.08608619,-0.30645782,-9.945514,1.5370775
0.00892769,4.852561,-0.06467949,-0.048402846,-0.08608619,-0.30645782,-9.945514,1.5370775
0.008965011,4.85253,-0.05935317,-0.057990227,-0.08928198,-0.33997664,-9.911995,1.4508862
0.009002628,4.8524995,-0.05935317,-0.057990227,-0.08928198,-0.33997664,-9.911995,1.4508862
0.009032223,4.8524866,-0.05402685,-0.066512346,-0.08928198,-0.31124622,-9.916783,1.4700398
0.00906184,4.852474,-0.05402685,-0.066512346,-0.08928198,-0.31124622,-9.916783,1.4700398
0.009091011,4.8524723,-0.045504734,-0.07290393,-0.08715145,-0.30645782,-9.92636,1.4748282
0.009120101,4.852471,-0.045504734,-0.07290393,-0.08715145,-0.30645782,-9.92636,1.4748282
0.009151293,4.8524723,-0.039113145,-0.08142605,-0.08608619,-0.29209262,-9.907207,1.460463
0.009182512,4.8524737,-0.039113145,-0.08142605,-0.08608619,-0.29209262,-9.907207,1.460463
0.009190981,4.852508,-0.032721557,-0.08781763,-0.08395566,-0.2681506,-9.92636,1.5131354
0.009199522,4.8525424,-0.032721557,-0.08781763,-0.08395566,-0.2681506,-9.92636,1.5131354
0.009184693,4.852601,-0.026329972,-0.095274486,-0.076498814,-0.18674773,-9.92636,1.508347
0.009170215,4.852659,-0.026329972,-0.095274486,-0.076498814,-0.18674773,-9.92636,1.508347
0.009197226,4.8527,-0.018873122,-0.10060081,-0.07223775,-0.20111294,-9.935937,1.460463
0.009224415,4.8527403,-0.018873122,-0.10060081,-0.07223775,-0.20111294,-9.935937,1.460463
0.0092585515,4.8527884,-0.010351005,-0.105927125,-0.06584617,-0.15801731,-9.89763,1.4317327
0.009293049,4.852836,-0.010351005,-0.105927125,-0.06584617,-0.15801731,-9.89763,1.4317327
0.009311428,4.852908,-0.0039594183,-0.109122925,-0.058389317,-0.17717093,-9.868899,1.4652514
0.009330221,4.8529797,-0.0039594183,-0.109122925,-0.058389317,-0.17717093,-9.868899,1.4652514
0.00935693,4.8530602,0.0045626974,-0.11231872,-0.0498672,-0.1436521,-9.854534,1.436521
0.00938439,4.8531404,0.0045626974,-0.11231872,-0.0498672,-0.1436521,-9.854534,1.436521
0.0093652345,4.8532486,0.012019549,-0.11444924,-0.04241035,-0.1340753,-9.792285,1.4891934
0.009346597,4.853357,0.012019549,-0.11444924,-0.04241035,-0.1340753,-9.792285,1.4891934
0.0094363745,4.853393,0.019476399,-0.11231872,-0.03282297,-0.16759412,-9.758766,1.3934253
0.009526537,4.853429,0.019476399,-0.11231872,-0.03282297,-0.16759412,-9.758766,1.3934253
0.009610624,4.853406,0.026933251,-0.110188186,-0.02110506,-0.12928689,-9.653421,1.3551182
0.009694536,4.853383,0.026933251,-0.110188186,-0.02110506,-0.12928689,-9.653421,1.3551182
0.009691137,4.8533187,0.033324838,-0.108057655,-0.0072566224,-0.10534488,-9.648633,1.3120226
0.009688012,4.8532543,0.033324838,-0.108057655,-0.0072566224,-0.10534488,-9.648633,1.3120226
0.009761807,4.853215,0.03865116,-0.10486186,0.0033960221,-0.11492168,-9.562442,1.3359646
0.009834861,4.853175,0.03865116,-0.10486186,0.0033960221,-0.11492168,-9.562442,1.3359646
0.009921093,4.8532963,0.04291222,-0.10060081,0.012983402,-0.10055647,-9.524135,1.3551182
0.010012528,4.853415,0.04291222,-0.10060081,0.012983402,-0.10055647,-9.524135,1.3551182
0.009913886,4.8533998,0.045042746,-0.095274486,0.025766576,-0.05746084,-9.528923,1.3311762
0.009815928,4.853384,0.045042746,-0.095274486,0.025766576,-0.05746084,-9.528923,1.3311762
0.009715323,4.853386,0.047173277,-0.08888289,0.03641922,-0.023942016,-9.461885,1.316811
0.009614933,4.8533874,0.047173277,-0.08888289,0.03641922,-0.023942016,-9.461885,1.316811
0.009512905,4.8534155,0.05036907,-0.08036078,0.0460066,-0.062249243,-9.44752,1.3359646
0.009411532,4.853442,0.05036907,-0.08036078,0.0460066,-0.062249243,-9.44752,1.3359646
0.009325055,4.8534594,0.051434334,-0.07183866,0.055593982,0.02873042,-9.394848,1.3024458
0.009238972,4.8534765,0.051434334,-0.07183866,0.055593982,0.02873042,-9.394848,1.3024458
0.009153388,4.853516,0.051434334,-0.06331655,0.06305083,0.01436521,-9.370906,1.3215994
0.009067696,4.8535547,0.051434334,-0.06331655,0.06305083,0.01436521,-9.370906,1.3215994
0.009011458,4.8535523,0.051434334,-0.054794434,0.06944242,0.062249243,-9.279925,1.2497733
0.008953825,4.8535495,0.051434334,-0.054794434,0.06944242,0.062249243,-9.279925,1.2497733
0.0088939145,4.8535566,0.04823854,-0.045207053,0.073703475,0.1388637,-9.308656,1.2497733
0.008832901,4.853564,0.04823854,-0.045207053,0.073703475,0.1388637,-9.308656,1.2497733
0.008766672,4.8535976,0.04610801,-0.031358615,0.07796454,0.1436521,-9.212888,1.2880806
0.008700579,4.853631,0.04610801,-0.031358615,0.07796454,0.1436521,-9.212888,1.2880806
0.008633103,4.853677,0.04291222,-0.019640706,0.075834006,0.2825158,-9.169792,1.3120226
0.008565556,4.8537235,0.04291222,-0.019640706,0.075834006,0.2825158,-9.169792,1.3120226
0.008496003,4.853782,0.037585896,-0.005792269,0.06837715,0.30645782,-9.069236,1.3503298
0.008426469,4.853841,0.037585896,-0.005792269,0.06837715,0.30645782,-9.069236,1.3503298
0.008348468,4.8538966,0.02906378,0.008056169,0.055593982,0.33039984,-9.002198,1.364695
0.008270581,4.8539524,0.02906378,0.008056169,0.055593982,0.33039984,-9.002198,1.364695
0.008174157,4.853988,0.018411135,0.021904606,0.03854975,0.2681506,-8.930372,1.316811
0.008077866,4.854024,0.018411135,0.021904606,0.03854975,0.2681506,-8.930372,1.316811
0.007972945,4.85407,0.0066932263,0.037883572,0.01724446,0.24899697,-8.892065,1.3694834
0.0078675775,4.8541164,0.0066932263,0.037883572,0.01724446,0.24899697,-8.892065,1.3694834
0.007733094,4.854138,-0.0071552116,0.05173201,-0.008321887,0.16280572,-8.839393,1.3120226
0.007598744,4.854159,-0.0071552116,0.05173201,-0.008321887,0.16280572,-8.839393,1.3120226
0.007440651,4.8541684,-0.022068914,0.06344992,-0.034953497,0.076614454,-8.8777,1.3024458
0.0072799698,4.8541784,-0.022068914,0.06344992,-0.034953497,0.076614454,-8.8777,1.3024458
0.0071158847,4.854199,-0.03804788,0.069841504,-0.06584617,0.10055647,-8.868123,1.3551182
0.0069495756,4.85422,-0.03804788,0.069841504,-0.06584617,0.10055647,-8.868123,1.3551182
0.006743595,4.854217,-0.05402685,0.07516783,-0.09886937,0.076614454,-8.829816,1.3215994
0.0065374556,4.8542147,-0.05402685,0.07516783,-0.09886937,0.076614454,-8.829816,1.3215994
0.0062850113,4.8541784,-0.06894055,0.07836362,-0.13295783,0.06703765,-8.896853,1.3024458
0.0060339724,4.854143,-0.06894055,0.07836362,-0.13295783,0.06703765,-8.896853,1.3024458
0.005747307,4.854093,-0.08385425,0.07942889,-0.16811156,0.1436521,-8.858546,1.316811
0.005460653,4.854044,-0.08385425,0.07942889,-0.16811156,0.1436521,-8.858546,1.316811
0.0051273247,4.8539457,-0.09876795,0.07836362,-0.20752634,0.22984336,-8.887277,1.2689269
0.00479129,4.853847,-0.09876795,0.07836362,-0.20752634,0.22984336,-8.887277,1.2689269
0.0044250377,4.853775,-0.1094206,0.07942889,-0.25226745,0.2777274,-8.781932,1.3455414
0.0040583475,4.853704,-0.1094206,0.07942889,-0.25226745,0.2777274,-8.781932,1.3455414
0.003641949,4.853624,-0.11900798,0.07942889,-0.30340013,0.50757074,-8.662222,1.4030021
0.003225715,4.853544,-0.11900798,0.07942889,-0.30340013,0.50757074,-8.662222,1.4030021
0.0027464454,4.8534455,-0.13072589,0.08155942,-0.36305496,0.866701,-8.508993,1.4317327
0.002267777,4.853347,-0.13072589,0.08155942,-0.36305496,0.866701,-8.508993,1.4317327
0.001710511,4.8532243,-0.1456396,0.087951005,-0.43975398,1.2641385,-8.264784,1.3982137
0.0011538959,4.853102,-0.1456396,0.087951005,-0.43975398,1.2641385,-8.264784,1.3982137
0.00050165824,4.8529577,-0.16587962,0.102864705,-0.53669304,1.436521,-8.049306,1.3742718
6.2830358,4.8528132,-0.16587962,0.102864705,-0.53669304,1.436521,-8.049306,1.3742718
6.2822685,4.852637,-0.19783755,0.12310473,-0.6560027,1.541866,-7.9343843,1.364695
6.281502,4.8524604,-0.19783755,0.12310473,-0.6560027,1.541866,-7.9343843,1.364695
6.2806005,4.8522334,-0.24364392,0.14441001,-0.79235655,1.5131354,-7.8912888,1.292869
6.2797,4.852007,-0.24364392,0.14441001,-0.79235655,1.5131354,-7.8912888,1.292869
6.278638,4.8517127,-0.29903767,0.1657153,-0.94468933,1.5131354,-7.872135,1.1779473
6.277594,4.851424,-0.29903767,0.1657153,-0.94468933,1.5131354,-7.872135,1.1779473
6.2763844,4.851075,-0.36508408,0.1838248,-1.1098053,1.508347,-7.8625584,1.2449849
6.275176,4.850727,-0.36508408,0.1838248,-1.1098053,1.508347,-7.8625584,1.2449849
6.2737947,4.8503118,-0.43539152,0.19660798,-1.2845087,1.5849615,-7.9870567,1.3072342
6.2724133,4.8498983,-0.43539152,0.19660798,-1.2845087,1.5849615,-7.9870567,1.3072342
6.2708454,4.849394,-0.5035685,0.20726062,-1.4687995,1.4556746,-8.259995,1.0965444
6.269282,4.8488927,-0.5035685,0.20726062,-1.4687995,1.4556746,-8.259995,1.0965444
6.2675285,4.8483043,-0.5642885,0.21578273,-1.6616123,1.0821792,-8.341399,0.92895025
6.265776,4.8477173,-0.5642885,0.21578273,-1.6616123,1.0821792,-8.341399,0.92895025
6.2638383,4.847065,-0.618617,0.21471748,-1.8554904,0.8475474,-8.461109,0.91937345
6.2618904,4.8464108,-0.618617,0.21471748,-1.8554904,0.8475474,-8.461109,0.91937345
6.2597203,4.8456755,-0.6697497,0.1987385,-2.0440423,0.63206923,-8.5473,0.92895025
6.2575083,4.8449264,-0.6697497,0.1987385,-2.0440423,0.63206923,-8.5473,0.92895025
6.255204,4.8441534,-0.7176866,0.1689111,-2.228333,0.6847417,-8.623915,0.8714894
6.2530546,4.8434324,-0.7176866,0.1689111,-2.228333,0.6847417,-8.623915,0.8714894
6.2505817,4.842654,-0.7624277,0.12843105,-2.4072974,0.8523358,-8.619126,0.9624691
6.2478085,4.8417835,-0.7624277,0.12843105,-2.4072974,0.8523358,-8.619126,0.9624691
6.2478085,4.8417835,-0.7624277,0.12843105,-2.4072974,0.8523358,-8.619126,0.9624691
6.2419543,4.8400097,-0.8050383,0.08262468,-2.586262,0.9959879,-8.6334915,0.9911995
6.239846,4.8393893,-0.8444531,0.03681831,-2.7694874,1.1348516,-8.51857,0.9816227
6.2369337,4.838534,-0.8444531,0.03681831,-2.7694874,1.1348516,-8.51857,0.9816227
6.233933,4.8376813,-0.8849331,-0.0068575335,-2.953778,1.1731589,-8.461109,1.043872
6.230281,4.836646,-0.8849331,-0.0068575335,-2.953778,1.1731589,-8.461109,1.043872
6.2276955,4.835921,-0.92647845,-0.047337584,-3.1391342,1.412579,-8.283937,0.9864111
6.2237754,4.8348227,-0.92647845,-0.047337584,-3.1391342,1.412579,-8.283937,0.9864111
6.220865,4.8340197,-0.9701543,-0.08036078,-3.331947,1.436521,-8.202535,0.9816227
6.2175217,4.833098,-0.9701543,-0.08036078,-3.331947,1.436521,-8.202535,0.9816227
6.2138886,4.832104,-1.017026,-0.108057655,-3.5311515,1.3215994,-8.283937,0.9768343
6.21023,4.8311057,-1.017026,-0.108057655,-3.5311515,1.3215994,-8.283937,0.9768343
6.2063823,4.830016,-1.0660281,-0.13255873,-3.7335517,1.1683705,-8.336611,0.78529817
6.2025347,4.828927,-1.0660281,-0.13255873,-3.7335517,1.1683705,-8.336611,0.78529817
6.1984706,4.8277555,-1.1150303,-0.15812509,-3.9306257,0.9816227,-8.384495,0.7757214
6.194486,4.826605,-1.1150303,-0.15812509,-3.9306257,0.9816227,-8.384495,0.7757214
6.1903467,4.825363,-1.1619018,-0.18795249,-4.122373,0.770933,-8.456321,0.6943185
6.186253,4.8241324,-1.1619018,-0.18795249,-4.122373,0.770933,-8.456321,0.6943185
6.182049,4.8228827,-1.2045125,-0.22523674,-4.3098598,0.5267244,-8.604761,0.7422025
6.1778483,4.821638,-1.2045125,-0.22523674,-4.3098598,0.5267244,-8.604761,0.7422025
6.1734705,4.8203554,-1.2439272,-0.27104312,-4.483498,0.51714754,-8.695741,0.7374141
6.1691074,4.8190813,-1.2439272,-0.27104312,-4.483498,0.51714754,-8.695741,0.7374141
6.1645775,4.817781,-1.279081,-0.3253716,-4.6507444,0.45968673,-8.834604,0.770933
6.1600504,4.8164854,-1.279081,-0.3253716,-4.6507444,0.45968673,-8.834604,0.770933
6.1553555,4.815155,-1.3078431,-0.38715693,-4.8126645,0.4213795,-8.916007,0.7422025
6.150657,4.8138266,-1.3078431,-0.38715693,-4.8126645,0.4213795,-8.916007,0.7422025
6.145819,4.8124804,-1.3291484,-0.4510728,-4.963932,0.47405192,-9.011775,0.7757214
6.140977,4.811136,-1.3291484,-0.4510728,-4.963932,0.47405192,-9.011775,0.7757214
6.135979,4.8097916,-1.3451273,-0.5181845,-5.1109385,0.521936,-8.992621,0.90979666
6.1309667,4.808445,-1.3451273,-0.5181845,-5.1109385,0.521936,-8.992621,0.90979666
6.1258206,4.80709,-1.3589758,-0.5863614,-5.2504883,0.47884035,-8.992621,0.9768343
6.12068,4.805735,-1.3589758,-0.5863614,-5.2504883,0.47884035,-8.992621,0.9768343
6.1154037,4.8043585,-1.3706937,-0.6556036,-5.385777,0.50757074,-8.930372,0.9528923
6.110117,4.8029776,-1.3706937,-0.6556036,-5.385777,0.50757074,-8.930372,0.9528923
6.1046944,4.801565,-1.3824116,-0.72484577,-5.5178695,0.35434186,-8.978256,0.90500826
6.099272,4.8001513,-1.3824116,-0.72484577,-5.5178695,0.35434186,-8.978256,0.90500826
6.093684,4.798704,-1.3930643,-0.798349,-5.643571,0.2825158,-9.035717,0.91458505
6.0881467,4.797268,-1.3930643,-0.798349,-5.643571,0.2825158,-9.035717,0.91458505
6.082487,4.795805,-1.4015864,-0.87611336,-5.76075,0.21547815,-9.112331,0.91458505
6.0768104,4.7943344,-1.4015864,-0.87611336,-5.76075,0.21547815,-9.112331,0.91458505
6.071024,4.792837,-1.4069127,-0.95920396,-5.8651457,0.08140286,-9.208099,0.90500826
6.0652375,4.791335,-1.4069127,-0.95920396,-5.8651457,0.08140286,-9.208099,0.90500826
6.059352,4.78981,-1.4069127,-1.0476209,-5.958889,0.0047884034,-9.323022,0.90979666
6.053467,4.78828,-1.4069127,-1.0476209,-5.958889,0.0047884034,-9.323022,0.90979666
6.047494,4.7867327,-1.3994559,-1.1434947,-6.0398493,0.10534488,-9.461885,0.93852705
6.0415215,4.785179,-1.3994559,-1.1434947,-6.0398493,0.10534488,-9.461885,0.93852705
6.035473,4.7836084,-1.3813463,-1.2457601,-6.1058955,0.45010993,-9.615114,0.8714894
6.0294366,4.782034,-1.3813463,-1.2457601,-6.1058955,0.45010993,-9.615114,0.8714894
6.023328,4.780462,-1.3525842,-1.3490907,-6.164485,1.0726024,-9.701305,0.90500826
6.0172205,4.778881,-1.3525842,-1.3490907,-6.164485,1.0726024,-9.701305,0.90500826
6.011047,4.777311,-1.3153,-1.4449645,-6.22414,1.7429788,-9.65821,0.8331822
6.0048747,4.7757316,-1.3153,-1.4449645,-6.22414,1.7429788,-9.65821,0.8331822
5.9985857,4.774208,-1.2726893,-1.5323162,-6.293382,2.3702598,-9.562442,0.90979666
5.992305,4.7726707,-1.2726893,-1.5323162,-6.293382,2.3702598,-9.562442,0.90979666
5.9857197,4.7711163,-1.2332746,-1.60795,-6.3786035,3.2752678,-9.346964,0.7422025
5.9791446,4.76956,-1.2332746,-1.60795,-6.3786035,3.2752678,-9.346964,0.7422025
5.972451,4.7679815,-1.202382,-1.6697353,-6.4798036,3.643975,-9.284714,0.7230489
5.9657564,4.766395,-1.202382,-1.6697353,-6.4798036,3.643975,-9.284714,0.7230489
5.9589543,4.764799,-1.1789461,-1.7198027,-6.595917,3.821146,-9.303867,0.6895301
5.952151,4.763194,-1.1789461,-1.7198027,-6.595917,3.821146,-9.303867,0.6895301
5.9452195,4.761573,-1.1672282,-1.7645439,-6.723749,3.8833952,-9.370906,0.6703765
5.9382954,4.7599444,-1.1672282,-1.7645439,-6.723749,3.8833952,-9.370906,0.6703765
5.93124,4.758297,-1.1576408,-1.8124808,-6.8558416,3.739743,-9.476251,0.5746084
5.9241943,4.7566476,-1.1576408,-1.8124808,-6.8558416,3.739743,-9.476251,0.5746084
5.9171443,4.7550116,-1.1491187,-1.8710704,-6.9836736,3.6008794,-9.586384,0.5315128
5.9101424,4.7533484,-1.1491187,-1.8710704,-6.9836736,3.6008794,-9.586384,0.5315128
5.903066,4.7516184,-1.1331397,-1.9435083,-7.1019177,3.6152446,-9.643845,0.47405192
5.8959928,4.749861,-1.1331397,-1.9435083,-7.1019177,3.6152446,-9.643845,0.47405192
5.8887987,4.7481203,-1.1097039,-2.0329905,-7.2127056,3.7062242,-9.720459,0.6799533
5.8816113,4.746353,-1.1097039,-2.0329905,-7.2127056,3.7062242,-9.720459,0.6799533
5.8743143,4.744549,-1.0766808,-2.1352558,-7.314971,3.7732618,-9.782708,0.6560113
5.8670497,4.7427225,-1.0766808,-2.1352558,-7.314971,3.7732618,-9.782708,0.6560113
5.8596215,4.7408686,-1.0340701,-2.2460434,-7.404453,3.940856,-9.768343,0.7278373
5.852242,4.7389956,-1.0340701,-2.2460434,-7.404453,3.940856,-9.768343,0.7278373
5.844727,4.737109,-0.98293746,-2.365353,-7.481152,4.3478703,-9.792285,0.82360536
5.8372283,4.735194,-0.98293746,-2.365353,-7.481152,4.3478703,-9.792285,0.82360536
5.8295517,4.7332373,-0.92860895,-2.4867933,-7.5514593,5.1762643,-9.595961,0.81881696
5.82189,4.7312555,-0.92860895,-2.4867933,-7.5514593,5.1762643,-9.595961,0.81881696
5.814102,4.7292013,-0.87428045,-2.6007764,-7.626028,6.129156,-9.308656,0.7661445
5.806323,4.72712,-0.87428045,-2.6007764,-7.626028,6.129156,-9.308656,0.7661445
5.7984457,4.7249794,-0.8263436,-2.6987808,-7.71338,7.062895,-8.887277,0.7278373
5.790576,4.722808,-0.8263436,-2.6987808,-7.71338,7.062895,-8.887277,0.7278373
5.7825956,4.720577,-0.7901246,-2.7829368,-7.823102,7.752425,-8.508993,0.61770403
5.774622,4.7183104,-0.7901246,-2.7829368,-7.823102,7.752425,-8.508993,0.61770403
5.766519,4.7159696,-0.7698846,-2.853244,-7.953064,8.202535,-8.264784,0.320823
5.7584233,4.713589,-0.7698846,-2.853244,-7.953064,8.202535,-8.264784,0.320823
5.7501893,4.711128,-0.7656235,-2.9150295,-8.096875,8.528147,-7.9822683,0.20111294
5.741963,4.708625,-0.7656235,-2.9150295,-8.096875,8.528147,-7.9822683,0.20111294
5.7335896,4.7060223,-0.7784067,-2.969358,-8.250273,8.7292595,-7.8290396,0.038307227
5.7250824,4.703327,-0.7784067,-2.969358,-8.250273,8.7292595,-7.8290396,0.038307227
5.716723,4.700626,-0.80077726,-3.0236864,-8.407932,8.643068,-7.73806,0.1388637
5.708194,4.6978164,-0.80077726,-3.0236864,-8.407932,8.643068,-7.73806,0.1388637
5.699534,4.694897,-0.824213,-3.0854719,-8.558134,8.39886,-7.747637,0.22984336
5.690695,4.691858,-0.824213,-3.0854719,-8.558134,8.39886,-7.747637,0.22984336
5.681976,4.688774,-0.8423225,-3.1589751,-8.699815,8.145074,-7.5465236,0.15801731
5.67339,4.6856766,-0.8423225,-3.1589751,-8.699815,8.145074,-7.5465236,0.15801731
5.664546,4.682379,-0.85190994,-3.251653,-8.829777,7.8050976,-7.2352777,-0.009576807
5.6556787,4.6790032,-0.85190994,-3.251653,-8.829777,7.8050976,-7.2352777,-0.009576807
5.646719,4.6754484,-0.8529752,-3.3624406,-8.94376,7.704541,-6.8186865,-0.37349546
5.637773,4.67182,-0.8529752,-3.3624406,-8.94376,7.704541,-6.8186865,-0.37349546
5.62875,4.667995,-0.8487141,-3.4870765,-9.0428295,7.565677,-6.4020953,-0.7182605
5.6197414,4.6640882,-0.8487141,-3.4870765,-9.0428295,7.565677,-6.4020953,-0.7182605
5.610679,4.6599865,-0.8444531,-3.6149082,-9.121659,7.599196,-6.0956373,-0.90021986
5.601634,4.655794,-0.8444531,-3.6149082,-9.121659,7.599196,-6.0956373,-0.90021986
5.5925593,4.651394,-0.8433878,-3.7395442,-9.180249,7.699753,-5.8562174,-1.115698
5.583522,4.646904,-0.8433878,-3.7395442,-9.180249,7.699753,-5.8562174,-1.115698
5.5744348,4.642186,-0.84551835,-3.8545928,-9.222859,7.9822683,-5.6407394,-1.2976574
5.5653872,4.6373696,-0.84551835,-3.8545928,-9.222859,7.9822683,-5.6407394,-1.2976574
5.5563583,4.632348,-0.856171,-3.9494014,-9.254817,8.389283,-5.33907,-1.6041151
5.5471377,4.6270857,-0.856171,-3.9494014,-9.254817,8.389283,-5.33907,-1.6041151
5.538293,4.621822,-0.88173735,-4.0154476,-9.282515,8.781932,-5.070919,-1.9393034
5.52924,4.616292,-0.88173735,-4.0154476,-9.282515,8.781932,-5.070919,-1.9393034
5.520305,4.6106215,-0.92860895,-4.049536,-9.313407,9.227253,-4.88896,-2.1691468
5.511363,4.604792,-0.92860895,-4.049536,-9.313407,9.227253,-4.88896,-2.1691468
5.5024204,4.598745,-0.99785113,-4.0474057,-9.34856,9.500193,-4.841076,-2.4899697
5.4934826,4.592534,-0.99785113,-4.0474057,-9.34856,9.500193,-4.841076,-2.4899697
5.4845467,4.586115,-1.0862681,-4.0143824,-9.387976,9.595961,-4.951209,-2.6192567
5.4756274,4.5795264,-1.0862681,-4.0143824,-9.387976,9.595961,-4.951209,-2.6192567
5.4667187,4.5727334,-1.1917293,-3.9568582,-9.428455,9.562442,-5.046977,-2.7485435
5.4578557,4.5657816,-1.1917293,-3.9568582,-9.428455,9.562442,-5.046977,-2.7485435
5.4489946,4.5586185,-1.3078431,-3.8854854,-9.466805,9.356541,-5.195418,-2.6671407
5.4401464,4.551257,-1.3078431,-3.8854854,-9.466805,9.356541,-5.195418,-2.6671407
5.4313207,4.5436783,-1.4250222,-3.8045254,-9.495567,9.002198,-5.425261,-2.7150247
5.4225383,4.5359116,-1.4250222,-3.8045254,-9.495567,9.002198,-5.425261,-2.7150247
5.413795,4.5279317,-1.541136,-3.7203693,-9.507285,8.532935,-5.592855,-2.528277
5.405429,4.5200677,-1.541136,-3.7203693,-9.507285,8.532935,-5.592855,-2.528277
5.3968024,4.5116706,-1.6455319,-3.6394093,-9.495567,7.9343843,-5.8322754,-2.4468741
5.3878794,4.5027075,-1.6455319,-3.6394093,-9.495567,7.9343843,-5.8322754,-2.4468741
5.3794384,4.4939055,-1.7350142,-3.5648408,-9.457217,7.311892,-6.0477533,-2.2122424
5.371116,4.484955,-1.7350142,-3.5648408,-9.457217,7.311892,-6.0477533,-2.2122424
5.362879,4.475795,-1.8063868,-3.4966638,-9.389041,6.6415157,-6.2871737,-2.0207062
5.3546753,4.4663906,-1.8063868,-3.4966638,-9.389041,6.6415157,-6.2871737,-2.0207062
5.3466754,4.456935,-1.8585849,-3.432748,-9.287841,6.019023,-6.4499793,-1.7669208
5.3387146,4.4472346,-1.8585849,-3.432748,-9.287841,6.019023,-6.4499793,-1.7669208
5.3309374,4.4374228,-1.8894775,-3.3720279,-9.148291,5.3199162,-6.469133,-1.685518
5.3232245,4.4273863,-1.8894775,-3.3720279,-9.148291,5.3199162,-6.469133,-1.685518
5.315706,4.4172435,-1.9011954,-3.3091774,-8.9714575,4.7548847,-6.469133,-1.5801731
5.308215,4.4068155,-1.9011954,-3.3091774,-8.9714575,4.7548847,-6.469133,-1.5801731
5.301005,4.396391,-1.8969344,-3.243131,-8.758404,4.285621,-6.4404025,-1.484405
5.293868,4.3857417,-1.8969344,-3.243131,-8.758404,4.285621,-6.4404025,-1.484405
5.2870116,4.3750944,-1.8777596,-3.1728234,-8.511263,3.9600096,-6.4020953,-1.5131354
5.280196,4.364168,-1.8777596,-3.1728234,-8.511263,3.9600096,-6.4020953,-1.5131354
5.2736855,4.353297,-1.8447365,-3.098255,-8.233229,3.7828386,-6.4068837,-1.532289
5.267225,4.34216,-1.8447365,-3.098255,-8.233229,3.7828386,-6.4068837,-1.532289
5.261093,4.3311424,-1.8021258,-3.0226212,-7.9306936,3.7445314,-6.469133,-1.4556746
5.261093,4.3311424,-1.8021258,-3.0226212,-7.9306936,3.7445314,-6.469133,-1.4556746
5.2492847,4.308623,-1.7509931,-2.9459221,-7.6047225,3.9073372,-6.5505357,-1.4413095
5.2437325,4.2975206,-1.7509931,-2.9459221,-7.6047225,3.9073372,-6.5505357,-1.4413095
5.2437325,4.2975206,-1.7509931,-2.9459221,-7.6047225,3.9073372,-6.5505357,-1.4413095
5.2327404,4.2741623,-1.690273,-2.8724189,-7.265969,4.2760444,-6.7564373,-1.3503298
5.227859,4.2631106,-1.6199656,-2.8063726,-6.9218884,4.7070007,-6.909666,-1.2354081
5.223192,4.2522235,-1.6199656,-2.8063726,-6.9218884,4.7070007,-6.909666,-1.2354081
5.223192,4.2522235,-1.6199656,-2.8063726,-6.9218884,4.7070007,-6.909666,-1.2354081
5.2143617,4.2302446,-1.541136,-2.7488482,-6.5714164,5.161899,-7.0102224,-1.1779473
5.2102737,4.219342,-1.4527191,-2.6987808,-6.218814,5.463568,-7.153875,-1.1204864
5.2061934,4.208131,-1.4527191,-2.6987808,-6.218814,5.463568,-7.153875,-1.1204864
5.202473,4.1972876,-1.3547148,-2.6540396,-5.8640804,5.765238,-7.249643,-1.1013328
5.1980734,4.184038,-1.3547148,-2.6540396,-5.8640804,5.765238,-7.249643,-1.1013328
5.195424,4.175518,-1.2503189,-2.6124945,-5.5008254,6.033388,-7.2592196,-1.1204864
5.192158,4.1647367,-1.2503189,-2.6124945,-5.5008254,6.033388,-7.2592196,-1.1204864
5.189227,4.1543546,-1.1384661,-2.5677533,-5.1343746,6.291962,-7.2592196,-1.1492168
5.186345,4.1438465,-1.1384661,-2.5677533,-5.1343746,6.291962,-7.2592196,-1.1492168
5.183801,4.1338387,-1.0223522,-2.5187511,-4.766858,6.5122285,-7.2209125,-1.1540052
5.1812963,4.123695,-1.0223522,-2.5187511,-4.766858,6.5122285,-7.2209125,-1.1540052
5.1791115,4.114093,-0.89984685,-2.4590962,-4.3961463,6.8043213,-7.0820484,-1.2018893
5.176969,4.1044025,-0.89984685,-2.4590962,-4.3961463,6.8043213,-7.0820484,-1.2018893
5.175121,4.095273,-0.7741456,-2.3898542,-4.025434,7.2065473,-7.0245876,-1.1587936
5.17332,4.086117,-0.7741456,-2.3898542,-4.025434,7.2065473,-7.0245876,-1.1587936
5.1718035,4.0775824,-0.6452486,-2.3099592,-3.657918,7.565677,-6.9479733,-1.283292
5.170317,4.068975,-0.6452486,-2.3099592,-3.657918,7.565677,-6.9479733,-1.283292
5.1691003,4.061049,-0.5131558,-2.2226076,-3.2925322,7.896077,-6.8330517,-1.3311762
5.167919,4.053129,-0.5131558,-2.2226076,-3.2925322,7.896077,-6.8330517,-1.3311762
5.1669836,4.045865,-0.3789325,-2.1256685,-2.9346035,8.1642275,-6.6989765,-1.5227122
5.166067,4.038527,-0.3789325,-2.1256685,-2.9346035,8.1642275,-6.6989765,-1.5227122
5.1653824,4.0319624,-0.24151339,-2.0234032,-2.583066,8.470686,-6.631939,-1.4748282
5.1647186,4.025378,-0.24151339,-2.0234032,-2.583066,8.470686,-6.631939,-1.4748282
5.164268,4.019533,-0.104094274,-1.9179419,-2.2411163,8.724471,-6.3685765,-1.5993267
5.1638336,4.0136757,-0.104094274,-1.9179419,-2.2411163,8.724471,-6.3685765,-1.5993267
5.1635976,4.0085526,0.031194309,-1.8135461,-1.9098189,9.088389,-6.181829,-1.7477672
5.163372,4.003392,0.031194309,-1.8135461,-1.9098189,9.088389,-6.181829,-1.7477672
5.16333,3.9989927,0.15796077,-1.7059543,-1.588109,9.639056,-5.9998693,-1.9632454
5.1632977,3.9946094,0.15796077,-1.7059543,-1.588109,9.639056,-5.9998693,-1.9632454
5.1634274,3.9909153,0.2772704,-1.5909058,-1.2791824,9.993398,-5.78918,-2.1499932
5.163563,3.9872413,0.2772704,-1.5909058,-1.2791824,9.993398,-5.78918,-2.1499932
5.1638393,3.9842784,0.38699263,-1.4652046,-0.98303884,10.184934,-5.506664,-2.3127987
5.164118,3.9813406,0.38699263,-1.4652046,-0.98303884,10.184934,-5.506664,-2.3127987
5.1645107,3.979063,0.4839317,-1.334177,-0.7028743,10.577583,-5.21936,-2.4277205
5.1649046,3.976801,0.4839317,-1.334177,-0.7028743,10.577583,-5.21936,-2.4277205
5.165395,3.9751983,0.57021815,-1.1967579,-0.43762347,10.79785,-5.0278234,-2.5234885
5.165887,3.9735994,0.57021815,-1.1967579,-0.43762347,10.79785,-5.0278234,-2.5234885
5.166455,3.9726229,0.6426561,-1.0572083,-0.19048211,10.994174,-4.759673,-2.657564
5.1670227,3.9716501,0.6426561,-1.0572083,-0.19048211,10.994174,-4.759673,-2.657564
5.167649,3.9712625,0.7023109,-0.9133976,0.039615013,11.123461,-4.5394063,-2.7724855
5.168278,3.9708743,0.7023109,-0.9133976,0.039615013,11.123461,-4.5394063,-2.7724855
5.169045,3.971069,0.75450885,-0.76532584,0.2558637,11.271901,-4.3239284,-2.96881
5.169693,3.9712334,0.75450885,-0.76532584,0.2558637,11.271901,-4.3239284,-2.96881
5.1703525,3.971878,0.7981847,-0.6151235,0.45719868,11.362882,-4.0892963,-3.0933087
5.170984,3.9724936,0.7981847,-0.6151235,0.45719868,11.362882,-4.0892963,-3.0933087
5.171671,3.9736133,0.8344037,-0.46279073,0.6468158,11.372458,-3.9456444,-3.2321723
5.172372,3.974751,0.8344037,-0.46279073,0.6468158,11.372458,-3.9456444,-3.2321723
5.1730814,3.9763331,0.8621006,-0.30619684,0.8247149,11.429919,-3.8546648,-3.323152
5.173791,3.9779081,0.8621006,-0.30619684,0.8247149,11.429919,-3.8546648,-3.323152
5.1745024,3.979868,0.88766694,-0.14853771,0.9898309,11.324574,-3.7828386,-3.4955344
5.1752143,3.9818168,0.88766694,-0.14853771,0.9898309,11.324574,-3.7828386,-3.4955344
5.1759377,3.984148,0.9089722,0.00592564,1.1421638,11.104307,-3.7972038,-3.5625722
5.1766624,3.986465,0.9089722,0.00592564,1.1421638,11.104307,-3.7972038,-3.5625722
5.177425,3.9891248,0.92814696,0.15293214,1.2902355,11.022904,-3.6104562,-3.6391866
5.178187,3.991764,0.92814696,0.15293214,1.2902355,11.022904,-3.6104562,-3.6391866
5.1789618,3.9948285,0.9451912,0.29248178,1.4308504,11.137826,-3.41892,-3.6152446
5.179741,3.997879,0.9451912,0.29248178,1.4308504,11.137826,-3.41892,-3.6152446
5.1805305,4.001302,0.9579744,0.42563984,1.5576168,11.243171,-3.2704794,-3.6056678
5.1813235,4.0047083,0.9579744,0.42563984,1.5576168,11.243171,-3.2704794,-3.6056678
5.1821156,4.0084777,0.96436596,0.5524063,1.6662738,11.142614,-3.1603463,-3.4284968
5.182913,4.0122256,0.96436596,0.5524063,1.6662738,11.142614,-3.1603463,-3.4284968
5.183705,4.0162773,0.96436596,0.67491174,1.755756,11.046846,-3.122039,-3.3423057
5.1845026,4.0203047,0.96436596,0.67491174,1.755756,11.046846,-3.122039,-3.3423057
5.185297,4.02458,0.9590396,0.788895,1.8313898,10.754754,-3.0502129,-3.2944214
5.186096,4.0288215,0.9590396,0.788895,1.8313898,10.754754,-3.0502129,-3.2944214
5.18689,4.033267,0.95051754,0.8879646,1.8910446,10.496181,-3.0214825,-3.2321723
5.1876936,4.0376997,0.95051754,0.8879646,1.8910446,10.496181,-3.0214825,-3.2321723
5.188496,4.042262,0.9398649,0.9710552,1.9389815,10.247183,-3.083732,-3.241749
5.189309,4.046812,0.9398649,0.9710552,1.9389815,10.247183,-3.083732,-3.241749
5.1901207,4.0514784,0.92814696,1.0381669,1.9762658,9.950302,-3.1028855,-3.1555579
5.190942,4.0561256,0.92814696,1.0381669,1.9762658,9.950302,-3.1028855,-3.1555579
5.1917725,4.060848,0.9153638,1.0892996,2.0071585,9.773131,-3.1268275,-3.1411927
5.192614,4.0655565,0.9153638,1.0892996,2.0071585,9.773131,-3.1268275,-3.1411927
5.1934767,4.070302,0.9036459,1.1255186,2.03379,9.56723,-3.193865,-3.1411927
5.1943493,4.0750246,0.9036459,1.1255186,2.03379,9.56723,-3.193865,-3.1411927
5.1952467,4.0797834,0.8951238,1.1500196,2.0550954,9.356541,-3.2513258,-3.107674
5.196155,4.08452,0.8951238,1.1500196,2.0550954,9.356541,-3.2513258,-3.107674
5.197102,4.0892653,0.88766694,1.1649333,2.07427,9.160215,-3.3327289,-3.1124623
5.1980586,4.0939884,0.88766694,1.1649333,2.07427,9.160215,-3.3327289,-3.1124623
5.199046,4.0987225,0.88340586,1.1723902,2.0913143,8.949526,-3.3662477,-3.0454245
5.2000437,4.1034384,0.88340586,1.1723902,2.0913143,8.949526,-3.3662477,-3.0454245
5.2010746,4.108166,0.88127536,1.1777165,2.1094239,8.853758,-3.3854012,-3.0502129
5.202119,4.112894,0.88127536,1.1777165,2.1094239,8.853758,-3.3854012,-3.0502129
5.2031775,4.117568,0.8802101,1.1819776,2.129664,8.829816,-3.3327289,-3.1124623
5.204266,4.122316,0.8802101,1.1819776,2.129664,8.829816,-3.3327289,-3.1124623
5.2053537,4.1269655,0.8791448,1.1841081,2.1509693,8.805874,-3.3518825,-3.0550013
5.2064605,4.1316423,0.8791448,1.1841081,2.1509693,8.805874,-3.3518825,-3.0550013
5.2075834,4.136318,0.8791448,1.1862386,2.1701438,8.772355,-3.3135753,-3.0023289
5.2087173,4.1409826,0.8791448,1.1862386,2.1701438,8.772355,-3.3135753,-3.0023289
5.209874,4.1456337,0.8770143,1.1851734,2.1850576,8.7292595,-3.3087866,-2.9879637
5.21104,4.1502643,0.8770143,1.1851734,2.1850576,8.7292595,-3.3087866,-2.9879637
5.212222,4.1548777,0.8738185,1.1809124,2.1978407,8.628703,-3.3039982,-2.8874073
5.2134137,4.1594715,0.8738185,1.1809124,2.1978407,8.628703,-3.3039982,-2.8874073
5.2146254,4.16404,0.8706227,1.1734555,2.2084935,8.556877,-3.2704794,-2.8491
5.215846,4.168588,0.8706227,1.1734555,2.2084935,8.556877,-3.2704794,-2.8491
5.2170916,4.1731033,0.8684922,1.1617376,2.2180808,8.355764,-3.2752678,-2.7485435
5.2183456,4.177598,0.8684922,1.1617376,2.2180808,8.355764,-3.2752678,-2.7485435
5.2196302,4.18205,0.86742693,1.1457586,2.2212765,8.240842,-3.265691,-2.7581203
5.220922,4.1864767,0.86742693,1.1457586,2.2212765,8.240842,-3.265691,-2.7581203
5.222224,4.190843,0.86529636,1.1255186,2.2223418,8.1402855,-3.2752678,-2.6479871
5.2235374,4.195197,0.86529636,1.1255186,2.2223418,8.1402855,-3.2752678,-2.6479871
5.224883,4.199483,0.86316586,1.098887,2.2212765,8.073248,-3.3087866,-2.6767175
5.226236,4.2037473,0.86316586,1.098887,2.2212765,8.073248,-3.3087866,-2.6767175
5.2276,4.2079353,0.85997003,1.0690596,2.2180808,8.111555,-3.2704794,-2.6671407
5.2289743,4.212112,0.85997003,1.0690596,2.2180808,8.111555,-3.2704794,-2.6671407
5.230353,4.2161956,0.8567743,1.0339059,2.2031672,8.1881695,-3.2561142,-2.6671407
5.231737,4.220255,0.8567743,1.0339059,2.2031672,8.1881695,-3.2561142,-2.6671407
5.2331095,4.2242303,0.85144794,0.9966216,2.178666,8.336611,-3.193865,-2.6048915
5.234488,4.228182,0.85144794,0.9966216,2.178666,8.336611,-3.193865,-2.6048915
5.235857,4.2320223,0.8439911,0.95933735,2.1435122,8.379706,-3.074155,-2.6431987
5.2372336,4.2358437,0.8439911,0.95933735,2.1435122,8.379706,-3.074155,-2.6431987
5.2385883,4.239548,0.8322732,0.92311835,2.098771,8.384495,-2.9975405,-2.6144683
5.2399497,4.2432346,0.8322732,0.92311835,2.098771,8.384495,-2.9975405,-2.6144683
5.24128,4.2467923,0.81309843,0.88476884,2.045508,8.336611,-2.9257145,-2.5330653
5.2426176,4.2503366,0.81309843,0.88476884,2.045508,8.336611,-2.9257145,-2.5330653
5.2439203,4.253722,0.79072785,0.84215826,1.981592,8.231265,-2.815581,-2.5091233
5.245234,4.2571087,0.79072785,0.84215826,1.981592,8.231265,-2.815581,-2.5091233
5.2465034,4.2603054,0.76409626,0.79635185,1.9134152,8.135497,-2.825158,-2.4851813
5.247782,4.2635007,0.76409626,0.79635185,1.9134152,8.135497,-2.825158,-2.4851813
5.2490263,4.266513,0.73213834,0.7452192,1.8399119,8.087613,-2.825158,-2.5234885
5.250274,4.269513,0.73213834,0.7452192,1.8399119,8.087613,-2.825158,-2.5234885
5.25147,4.272341,0.6948541,0.69302124,1.7632129,8.073248,-2.7724855,-2.3989902
5.2526703,4.2751575,0.6948541,0.69302124,1.7632129,8.073248,-2.7724855,-2.3989902
5.25383,4.2777877,0.6575698,0.63869274,1.6886444,8.039729,-2.777274,-2.408567
5.2549934,4.280408,0.6575698,0.63869274,1.6886444,8.039729,-2.777274,-2.408567
5.256111,4.282846,0.6202856,0.583299,1.6108801,8.00621,-2.743755,-2.3750482
5.257231,4.2852745,0.6202856,0.583299,1.6108801,8.00621,-2.743755,-2.3750482
5.258308,4.287519,0.58193606,0.5279052,1.534181,7.9726915,-2.6862943,-2.3894134
5.259387,4.289755,0.58193606,0.5279052,1.534181,7.9726915,-2.6862943,-2.3894134
5.2604256,4.291806,0.54252124,0.47251147,1.4606777,7.8290396,-2.743755,-2.3558946
5.2614694,4.2938566,0.54252124,0.47251147,1.4606777,7.8290396,-2.743755,-2.3558946
5.262476,4.2957206,0.505237,0.4171177,1.3903704,7.7811556,-2.834735,-2.3942018
5.2634854,4.2975807,0.505237,0.4171177,1.3903704,7.7811556,-2.834735,-2.3942018
5.2644663,4.299264,0.46795273,0.35852817,1.3275198,7.704541,-2.873042,-2.408567
5.2654486,4.3009415,0.46795273,0.35852817,1.3275198,7.704541,-2.873042,-2.408567
5.2664046,4.3024597,0.43492955,0.3010039,1.272126,7.6710224,-2.9161377,-2.3894134
5.2673626,4.3039737,0.43492955,0.3010039,1.272126,7.6710224,-2.9161377,-2.3894134
5.268307,4.3053284,0.4029716,0.24241436,1.2252543,7.747637,-3.0310593,-2.4612393
5.2692513,4.3066783,0.4029716,0.24241436,1.2252543,7.747637,-3.0310593,-2.4612393
5.270189,4.3078847,0.37527472,0.1870206,1.183709,7.872135,-3.1268275,-2.5809495
5.271131,4.3090935,0.37527472,0.1870206,1.183709,7.872135,-3.1268275,-2.5809495
5.272079,4.3101926,0.35183892,0.1358879,1.14749,8.058883,-3.2561142,-2.6623523
5.2730474,4.311312,0.35183892,0.1358879,1.14749,8.058883,-3.2561142,-2.6623523
5.2730474,4.311312,0.35183892,0.1358879,1.14749,8.058883,-3.2561142,-2.6623523
5.274852,4.3132377,0.33053362,0.09327733,1.1144669,8.336611,-3.2609026,-2.705448
5.2758546,4.314226,0.31029359,0.057058334,1.0825089,8.48984,-3.2800562,-2.705448
5.2758546,4.314226,0.31029359,0.057058334,1.0825089,8.48984,-3.2800562,-2.705448
5.2775264,4.3158665,0.2889883,0.031491987,1.0516162,8.6334915,-3.2752678,-2.6862943
5.27838,4.3166533,0.2889883,0.031491987,1.0516162,8.6334915,-3.2752678,-2.6862943
5.2792163,4.317377,0.26448724,0.013382491,1.0185931,8.700529,-3.3087866,-2.6767175
5.280122,4.318159,0.26448724,0.013382491,1.0185931,8.700529,-3.3087866,-2.6767175
5.280122,4.318159,0.26448724,0.013382491,1.0185931,8.700529,-3.3087866,-2.6767175
5.281656,4.3193955,0.23892088,0.0016645822,0.98556983,8.662222,-3.41892,-2.6623523
5.282449,4.3199987,0.21228927,-0.007922798,0.95893824,8.576031,-3.5194764,-2.552219
5.283238,4.3205986,0.21228927,-0.007922798,0.95893824,8.576031,-3.5194764,-2.552219
5.284026,4.3211427,0.18565765,-0.019640706,0.941894,8.456321,-3.6104562,-2.5378537
5.284811,4.321683,0.18565765,-0.019640706,0.941894,8.456321,-3.6104562,-2.5378537
5.285588,4.3221793,0.15902604,-0.033489145,0.93443716,8.513782,-3.763685,-2.4372973
5.2863665,4.322676,0.15902604,-0.033489145,0.93443716,8.513782,-3.763685,-2.4372973
5.287147,4.3231263,0.1334597,-0.047337584,0.9355024,8.576031,-3.9312792,-2.408567
5.2879367,4.323581,0.1334597,-0.047337584,0.9355024,8.576031,-3.9312792,-2.408567
5.2887435,4.3239865,0.11108914,-0.05692496,0.9482856,8.580819,-4.0892963,-2.504335
5.2895546,4.324393,0.11108914,-0.05692496,0.9482856,8.580819,-4.0892963,-2.504335
5.290397,4.324778,0.091914386,-0.062251285,0.97278666,8.576031,-4.333505,-2.4899697
5.291243,4.325165,0.091914386,-0.062251285,0.97278666,8.576031,-4.333505,-2.4899697
5.292139,4.3255496,0.07913121,-0.060120758,1.0047446,8.552089,-4.548983,-2.5187001
5.292986,4.325914,0.07913121,-0.060120758,1.0047446,8.552089,-4.548983,-2.5187001
5.293938,4.326318,0.07167436,-0.052663904,1.0473552,8.528147,-4.7261543,-2.5617957
5.2949343,4.3267403,0.07167436,-0.052663904,1.0473552,8.528147,-4.7261543,-2.5617957
5.295936,4.327187,0.0674133,-0.037750203,1.0984879,8.599973,-4.879383,-2.5617957
5.2969317,4.32763,0.0674133,-0.037750203,1.0984879,8.599973,-4.879383,-2.5617957
5.297991,4.328135,0.06528277,-0.017510178,1.1581427,8.652645,-5.0374002,-2.5187001
5.299052,4.32864,0.06528277,-0.017510178,1.1581427,8.652645,-5.0374002,-2.5187001
5.300201,4.3292255,0.0674133,0.008056169,1.2252543,8.6095495,-5.233725,-2.5378537
5.301347,4.3298073,0.0674133,0.008056169,1.2252543,8.6095495,-5.233725,-2.5378537
5.3025517,4.330475,0.07060909,0.038948838,1.2976923,8.719683,-5.3438582,-2.4708161
5.3037524,4.331137,0.07060909,0.038948838,1.2976923,8.719683,-5.3438582,-2.4708161
5.305054,4.3319173,0.07700068,0.071972035,1.3722608,8.853758,-5.592855,-2.480393
5.3063593,4.3326945,0.07700068,0.071972035,1.3722608,8.853758,-5.592855,-2.480393
5.3077636,4.333623,0.08552279,0.10819103,1.4457641,8.7532015,-5.7269306,-2.432509
5.3091664,4.334542,0.08552279,0.10819103,1.4457641,8.7532015,-5.7269306,-2.432509
5.3106413,4.335612,0.09830597,0.14654055,1.5192673,8.710106,-5.7604494,-2.3415294
5.312122,4.336674,0.09830597,0.14654055,1.5192673,8.710106,-5.7604494,-2.3415294
5.31367,4.337881,0.1153502,0.18595533,1.5959663,8.710106,-5.78918,-2.2984335
5.315212,4.3390684,0.1153502,0.18595533,1.5959663,8.710106,-5.78918,-2.2984335
5.316825,4.340445,0.13239443,0.22110906,1.6694696,8.839393,-5.7987566,-2.2409728
5.318437,4.341802,0.13239443,0.22110906,1.6694696,8.839393,-5.7987566,-2.2409728
5.320057,4.343363,0.14943866,0.25839332,1.7408423,8.887277,-5.8705826,-2.1883004
5.321672,4.34492,0.14943866,0.25839332,1.7408423,8.887277,-5.8705826,-2.1883004
5.3233314,4.3465757,0.1664829,0.29674283,1.807954,8.90643,-6.009446,-2.1404164
5.3249884,4.3482256,0.1664829,0.29674283,1.807954,8.90643,-6.009446,-2.1404164
5.3266945,4.349962,0.18352713,0.33615762,1.868674,8.911219,-6.1387334,-2.1068976
5.3283997,4.351691,0.18352713,0.33615762,1.868674,8.911219,-6.1387334,-2.1068976
5.3301487,4.353503,0.20163663,0.37344187,1.9251331,8.887277,-6.277597,-2.0494366
5.3318977,4.355307,0.20163663,0.37344187,1.9251331,8.887277,-6.277597,-2.0494366
5.3336983,4.357191,0.22187665,0.41179138,1.9826574,8.7771435,-6.5122285,-1.9536686
5.335499,4.3590636,0.22187665,0.41179138,1.9826574,8.7771435,-6.5122285,-1.9536686
5.3373647,4.3609977,0.24318193,0.44801039,2.0380511,8.571242,-6.7229185,-1.9728222
5.3392334,4.3629203,0.24318193,0.44801039,2.0380511,8.571242,-6.7229185,-1.9728222
5.3411427,4.3649287,0.26661775,0.4810336,2.0955753,8.394072,-6.885724,-1.8483237
5.3430543,4.3669252,0.26661775,0.4810336,2.0955753,8.394072,-6.885724,-1.8483237
5.3450346,4.3689885,0.2953799,0.51192623,2.162687,8.178593,-7.029376,-1.910573
5.347018,4.371039,0.2953799,0.51192623,2.162687,8.178593,-7.029376,-1.910573
5.349059,4.3731775,0.3252073,0.54175365,2.2340598,7.9391727,-7.1730285,-1.8100165
5.351104,4.3753037,0.3252073,0.54175365,2.2340598,7.9391727,-7.1730285,-1.8100165
5.353225,4.3775206,0.35716522,0.5726463,2.3150198,7.771579,-7.2687964,-1.8100165
5.3552623,4.379633,0.35716522,0.5726463,2.3150198,7.771579,-7.2687964,-1.8100165
5.3574624,4.3819265,0.39231896,0.603539,2.403437,7.589619,-7.383718,-1.7956513
5.3597484,4.384289,0.39231896,0.603539,2.403437,7.589619,-7.383718,-1.7956513
5.3620253,4.386664,0.42747268,0.6354969,2.4982455,7.52737,-7.455544,-1.7190368
5.3643036,4.389021,0.42747268,0.6354969,2.4982455,7.52737,-7.455544,-1.7190368
5.366677,4.3914957,0.46688747,0.66852015,2.6005108,7.3789296,-7.5704656,-1.6184803
5.3690677,4.393967,0.46688747,0.66852015,2.6005108,7.3789296,-7.5704656,-1.6184803
5.371537,4.396529,0.50949806,0.6994128,2.7081025,7.311892,-7.642292,-1.5753847
5.3740134,4.3990746,0.50949806,0.6994128,2.7081025,7.311892,-7.642292,-1.5753847
5.3765926,4.4017286,0.55636966,0.7281749,2.8178246,7.240066,-7.771579,-1.5562311
5.3791704,4.404357,0.55636966,0.7281749,2.8178246,7.240066,-7.771579,-1.5562311
5.3818493,4.4070897,0.60537183,0.7548066,2.9286122,7.0820484,-7.867347,-1.4891934
5.384552,4.4098206,0.60537183,0.7548066,2.9286122,7.0820484,-7.867347,-1.4891934
5.38735,4.4126453,0.6575698,0.77824235,3.0404649,6.8522053,-8.001422,-1.388637
5.390147,4.415442,0.6575698,0.77824235,3.0404649,6.8522053,-8.001422,-1.388637
5.392996,4.4182587,0.7129636,0.79635185,3.1544483,6.459556,-8.145074,-1.4652514
5.3959746,4.421175,0.7129636,0.79635185,3.1544483,6.459556,-8.145074,-1.4652514
5.3989778,4.424088,0.7747489,0.80806977,3.2748232,6.196194,-8.312668,-1.4700398
5.4020133,4.4270034,0.7747489,0.80806977,3.2748232,6.196194,-8.312668,-1.4700398
5.405181,4.430007,0.83973,0.81233084,3.4079812,5.8466406,-8.413225,-1.4269443
5.408357,4.432987,0.83973,0.81233084,3.4079812,5.8466406,-8.413225,-1.4269443
5.4116774,4.4360595,0.9089722,0.8155266,3.551792,5.5641246,-8.504205,-1.412579
5.4150095,4.4391108,0.9089722,0.8155266,3.551792,5.5641246,-8.504205,-1.412579
5.418488,4.4422455,0.98247546,0.8165919,3.7073205,5.315128,-8.561666,-1.436521
5.4219756,4.4453545,0.98247546,0.8165919,3.7073205,5.315128,-8.561666,-1.436521
5.4256377,4.4485674,1.061305,0.8187224,3.8766975,5.185841,-8.566454,-1.4987702
5.4292984,4.451743,1.061305,0.8187224,3.8766975,5.185841,-8.566454,-1.4987702
5.433137,4.45503,1.1422651,0.82404876,4.0567274,5.1379566,-8.585608,-1.4748282
5.4369936,4.458295,1.1422651,0.82404876,4.0567274,5.1379566,-8.585608,-1.4748282
5.441026,4.4616604,1.2253557,0.83044034,4.2452793,5.104438,-8.576031,-1.4891934
5.4450693,4.464996,1.2253557,0.83044034,4.2452793,5.104438,-8.576031,-1.4891934
5.4493046,4.468443,1.3105769,0.8400277,4.4380918,5.0517654,-8.628703,-1.532289
5.4535465,4.471855,1.3105769,0.8400277,4.4380918,5.0517654,-8.628703,-1.532289
5.4579835,4.475376,1.3936676,0.8517456,4.6341004,4.912902,-8.647857,-1.5562311
5.4624276,4.4788604,1.3936676,0.8517456,4.6341004,4.912902,-8.647857,-1.5562311
5.4670887,4.4824896,1.4746276,0.8677246,4.83437,5.0613422,-8.604761,-1.3024458
5.4721804,4.4864035,1.4746276,0.8677246,4.83437,5.0613422,-8.604761,-1.3024458
5.476644,4.489801,1.5555878,0.881573,5.03464,5.353435,-8.571242,-1.1875241
5.4813967,4.493376,1.5555878,0.881573,5.03464,5.353435,-8.571242,-1.1875241
5.4864144,4.497111,1.6354825,0.8922257,5.2253222,5.631162,-8.561666,-1.1300632
5.491288,4.500694,1.6354825,0.8922257,5.2253222,5.631162,-8.561666,-1.1300632
5.496496,4.504483,1.713247,0.8996825,5.404287,5.8322754,-8.580819,-1.0630256
5.5019155,4.508377,1.713247,0.8996825,5.404287,5.8322754,-8.580819,-1.0630256
5.5073113,4.5122223,1.7910112,0.9060741,5.571533,5.9519854,-8.5473,-0.93852705
5.512683,4.5160027,1.7910112,0.9060741,5.571533,5.9519854,-8.5473,-0.93852705
5.518244,4.51988,1.8687755,0.9145962,5.7259965,6.042965,-8.5473,-0.9576807
5.5238523,4.5237412,1.8687755,0.9145962,5.7259965,6.042965,-8.5473,-0.9576807
5.5295753,4.527641,1.9486704,0.9241836,5.8719378,5.9663506,-8.576031,-1.0151415
5.5353007,4.531493,1.9486704,0.9241836,5.8719378,5.9663506,-8.576031,-1.0151415
5.5411806,4.53541,2.0264347,0.9359015,6.0125527,5.841852,-8.499416,-1.0773908
5.5470686,4.5392823,2.0264347,0.9359015,6.0125527,5.841852,-8.499416,-1.0773908
5.5531,4.543226,2.1031337,0.9486847,6.154233,5.6407394,-8.504205,-0.9864111
5.5591826,4.5471525,2.1031337,0.9486847,6.154233,5.6407394,-8.504205,-0.9864111
5.5653615,4.551117,2.1777022,0.9635984,6.2980437,5.521029,-8.499416,-0.90979666
5.571512,4.555014,2.1777022,0.9635984,6.2980437,5.521029,-8.499416,-0.90979666
5.577873,4.559022,2.2512054,0.98383844,6.4450502,5.4300494,-8.42759,-0.8475474
5.5842233,4.5629735,2.2512054,0.98383844,6.4450502,5.4300494,-8.42759,-0.8475474
5.590722,4.5669985,2.321513,1.0094048,6.5941873,5.305551,-8.389283,-0.7469909
5.5972033,4.570964,2.321513,1.0094048,6.5941873,5.305551,-8.389283,-0.7469909
5.6038733,4.5750284,2.3907552,1.0413626,6.74652,5.0757074,-8.360553,-0.61291564
5.6105328,4.5790367,2.3907552,1.0413626,6.74652,5.0757074,-8.360553,-0.61291564
5.6173816,4.5831327,2.4578667,1.0775816,6.9009833,4.8027687,-8.298303,-0.5363012
5.6241913,4.587157,2.4578667,1.0775816,6.9009833,4.8027687,-8.298303,-0.5363012
5.631174,4.5912647,2.5217826,1.1148659,7.057577,4.596867,-8.192958,-0.37349546
5.638165,4.59533,2.5217826,1.1148659,7.057577,4.596867,-8.192958,-0.37349546
5.6453166,4.59945,2.584633,1.1489544,7.2131057,4.3526587,-8.159439,-0.32561144
5.6524763,4.6035266,2.584633,1.1489544,7.2131057,4.3526587,-8.159439,-0.32561144
5.6597977,4.6076565,2.6474838,1.1819776,7.3697,4.232949,-8.178593,-0.30645782
5.66712,4.6117387,2.6474838,1.1819776,7.3697,4.232949,-8.178593,-0.30645782
5.6746087,4.615877,2.7103343,1.2139355,7.5241632,4.209007,-8.236053,-0.29688102
5.682106,4.619972,2.7103343,1.2139355,7.5241632,4.209007,-8.236053,-0.29688102
5.6897583,4.62411,2.7710545,1.2458935,7.6711698,4.232949,-8.183381,-0.35913026
5.697419,4.628205,2.7710545,1.2458935,7.6711698,4.232949,-8.183381,-0.35913026
5.705225,4.6323395,2.829644,1.2778513,7.8085885,4.122815,-8.207323,-0.36391866
5.71304,4.63643,2.829644,1.2778513,7.8085885,4.122815,-8.207323,-0.36391866
5.720994,4.640546,2.8861032,1.3098093,7.9364204,4.0462008,-8.269572,-0.45010993
5.728956,4.6446166,2.8861032,1.3098093,7.9364204,4.0462008,-8.269572,-0.45010993
5.737038,4.64873,2.9404316,1.3396367,8.052534,3.9073372,-8.293514,-0.37349546
5.745129,4.6527996,2.9404316,1.3396367,8.052534,3.9073372,-8.293514,-0.37349546
5.753338,4.656869,2.9926295,1.3662684,8.161191,3.9552212,-8.341399,-0.5363012
5.7612166,4.6607275,2.9926295,1.3662684,8.161191,3.9552212,-8.341399,-0.5363012
5.7695265,4.6647406,3.0416317,1.3886389,8.25813,4.213795,-8.66701,-0.7182605
5.778167,4.6688633,3.0416317,1.3886389,8.25813,4.213795,-8.66701,-0.7182605
5.7865243,4.672817,3.0885034,1.4078137,8.343351,4.5202527,-8.987833,-0.80924016
5.7948294,4.6767077,3.0885034,1.4078137,8.343351,4.5202527,-8.987833,-0.80924016
5.803206,4.6806254,3.1300485,1.4280537,8.411529,4.855441,-9.303867,-0.80445176
5.803206,4.6806254,3.1300485,1.4280537,8.411529,4.855441,-9.303867,-0.80445176
5.803206,4.6806254,3.1694634,1.4493589,8.462661,5.171476,-9.643845,-0.6847417
5.803206,4.6806254,3.1694634,1.4493589,8.462661,5.171476,-9.643845,-0.6847417
5.803206,4.6806254,3.2099435,1.4717295,8.49675,5.5258174,-9.950302,-0.5506664
5.803206,4.6806254,3.2099435,1.4717295,8.49675,5.5258174,-9.950302,-0.5506664
5.8545504,4.7051353,3.2472277,1.4994264,8.511663,5.913678,-10.093954,-0.63206923
5.8623314,4.7087407,3.2472277,1.4994264,8.511663,5.913678,-10.093954,-0.63206923
5.8623314,4.7087407,3.2472277,1.4994264,8.511663,5.913678,-10.093954,-0.63206923
5.8799024,4.7169566,3.2802508,1.5345801,8.505272,6.421249,-10.079589,-0.44532153
5.8869777,4.7202864,3.3026214,1.5814518,8.472248,6.8426285,-10.065224,-0.30166942
5.8952765,4.7241616,3.3026214,1.5814518,8.472248,6.8426285,-10.065224,-0.30166942
5.903559,4.728078,3.312209,1.6389761,8.408333,7.1347213,-9.830592,-0.019153614
5.903559,4.728078,3.312209,1.6389761,8.408333,7.1347213,-9.830592,-0.019153614
5.9200788,4.735844,3.3058171,1.711414,8.311394,7.1059904,-9.576807,0.15322891
5.9283,4.7397137,3.3058171,1.711414,8.311394,7.1059904,-9.576807,0.15322891
5.9364023,4.7435718,3.2802508,1.7966352,8.191019,6.6893997,-9.323022,0.4213795
5.9444942,4.7473946,3.2802508,1.7966352,8.191019,6.6893997,-9.323022,0.4213795
5.9525504,4.751237,3.2376404,1.8914437,8.05573,6.133945,-9.155427,0.63206923
5.9605002,4.7549987,3.2376404,1.8914437,8.05573,6.133945,-9.155427,0.63206923
5.9683313,4.7587323,3.1779854,1.9841217,7.910854,5.554548,-8.911219,0.9624691
5.9762063,4.7624583,3.1779854,1.9841217,7.910854,5.554548,-8.911219,0.9624691
5.9839416,4.7661247,3.1076782,2.0714734,7.764913,4.9655743,-8.6334915,1.0295067
5.9916735,4.769762,3.1076782,2.0714734,7.764913,4.9655743,-8.6334915,1.0295067
5.999286,4.7733345,3.0277832,2.1513681,7.6221676,4.4244847,-8.374918,1.0821792
6.0069027,4.776882,3.0277832,2.1513681,7.6221676,4.4244847,-8.374918,1.0821792
6.0143957,4.78035,2.9404316,2.2174146,7.482618,4.027047,-8.183381,1.1492168
6.021892,4.7837944,2.9404316,2.2174146,7.482618,4.027047,-8.183381,1.1492168
6.0292764,4.7871532,2.8477535,2.2749388,7.343068,3.7493198,-8.063671,1.1683705
6.036635,4.790476,2.8477535,2.2749388,7.343068,3.7493198,-8.063671,1.1683705
6.0438867,4.7937145,2.7540102,2.323941,7.205649,3.3183637,-8.001422,1.1827357
6.051141,4.7969313,2.7540102,2.323941,7.205649,3.3183637,-8.001422,1.1827357
6.0582666,4.800046,2.6602669,2.367617,7.0703607,3.0262709,-7.97748,1.0869676
6.0654097,4.803144,2.6602669,2.367617,7.0703607,3.0262709,-7.97748,1.0869676
6.072431,4.8061485,2.5665238,2.4059665,6.9372025,3.3614593,-7.9152308,1.4221559
6.079329,4.80908,2.5665238,2.4059665,6.9372025,3.3614593,-7.9152308,1.4221559
6.0862246,4.8119707,2.4770415,2.440055,6.7976527,3.2034419,-7.9152308,1.4413095
6.093212,4.8148785,2.4770415,2.440055,6.7976527,3.2034419,-7.9152308,1.4413095
6.099966,4.8176537,2.3960814,2.4709475,6.6517115,2.681506,-7.7907324,1.1875241
6.1067095,4.820404,2.3960814,2.4709475,6.6517115,2.681506,-7.7907324,1.1875241
6.113317,4.8230686,2.317252,2.4965138,6.5025744,2.3894134,-7.848193,1.1252748
6.119927,4.8257136,2.317252,2.4965138,6.5025744,2.3894134,-7.848193,1.1252748
6.1263895,4.828247,2.2362916,2.512493,6.355568,2.1643584,-7.8625584,0.9672575
6.1328883,4.8307753,2.2362916,2.512493,6.355568,2.1643584,-7.8625584,0.9672575
6.139211,4.833201,2.1553316,2.5199497,6.2053657,1.9440918,-7.867347,0.9816227
6.145499,4.835594,2.1553316,2.5199497,6.2053657,1.9440918,-7.867347,0.9816227
6.151695,4.837886,2.076502,2.5146234,6.054098,1.7764976,-7.881712,0.8523358
6.157882,4.8401594,2.076502,2.5146234,6.054098,1.7764976,-7.881712,0.8523358
6.1639223,4.8423367,1.9976724,2.497579,5.9017653,1.757344,-7.967903,0.8475474
6.1699543,4.8444967,1.9976724,2.497579,5.9017653,1.757344,-7.967903,0.8475474
6.175861,4.8465514,1.9209734,2.468817,5.743041,1.7190368,-8.121132,0.7182605
6.1817994,4.8486056,1.9209734,2.468817,5.743041,1.7190368,-8.121132,0.7182605
6.1875997,4.850567,1.8464049,2.4294024,5.5779247,1.7142484,-8.169016,0.59376204
6.1934423,4.8525314,1.8464049,2.4294024,5.5779247,1.7142484,-8.169016,0.59376204
6.1988564,4.8543234,1.7707711,2.3814654,5.404287,1.6376339,-8.331821,0.6464345
6.2044344,4.8561597,1.7707711,2.3814654,5.404287,1.6376339,-8.331821,0.6464345
6.2098284,4.857901,1.6993984,2.3250062,5.2253222,1.6184803,-8.561666,0.5602432
6.21524,4.85964,1.6993984,2.3250062,5.2253222,1.6184803,-8.561666,0.5602432
6.2204475,4.861298,1.6312215,2.25896,5.0399666,1.6663644,-8.762778,0.59376204
6.2256613,4.8629503,1.6312215,2.25896,5.0399666,1.6663644,-8.762778,0.59376204
6.2306747,4.8645306,1.5651752,2.1854568,4.8514147,1.7238252,-8.901642,0.6560113
6.2356896,4.8661036,1.5651752,2.1854568,4.8514147,1.7238252,-8.901642,0.6560113
6.2404866,4.867623,1.5033898,2.1076925,4.655406,2.078167,-9.002198,0.79487497
6.2452803,4.869134,1.5033898,2.1076925,4.655406,2.078167,-9.002198,0.79487497
6.249851,4.870592,1.4416045,2.0299282,4.4434185,2.432509,-8.973468,0.9528923
6.254429,4.8720455,1.4416045,2.0299282,4.4434185,2.432509,-8.973468,0.9528923
6.258764,4.8734374,1.3776885,1.9553596,4.2154517,2.7581203,-8.848969,1.0773908
6.263096,4.874822,1.3776885,1.9553596,4.2154517,2.7581203,-8.848969,1.0773908
6.2671795,4.8761454,1.3084464,1.8914437,3.9683104,2.930503,-8.724471,1.2880806
6.2712684,4.877465,1.3084464,1.8914437,3.9683104,2.930503,-8.724471,1.2880806
6.275081,4.8787117,1.2317474,1.8349847,3.7030594,2.8874073,-8.499416,1.5035586
6.2787547,4.879907,1.2317474,1.8349847,3.7030594,2.8874073,-8.499416,1.5035586
6.282289,4.8810673,1.1443957,1.7827867,3.4207644,2.657564,-8.269572,1.6376339
0.0027807963,4.8822684,1.1443957,1.7827867,3.4207644,2.657564,-8.269572,1.6376339
0.0060282466,4.883333,1.0495871,1.7348498,3.1320777,2.384625,-8.025364,1.7525556
0.009260491,4.8843884,1.0495871,1.7348498,3.1320777,2.384625,-8.025364,1.7525556
0.012217165,4.88535,0.94625646,1.6837171,2.8401952,2.0446482,-7.785944,1.8148049
0.015189489,4.8863125,0.94625646,1.6837171,2.8401952,2.0446482,-7.785944,1.8148049
0.017850356,4.887159,0.83653426,1.6283234,2.5472476,1.7669208,-7.6135616,1.7621324
0.020509187,4.8880005,0.83653426,1.6283234,2.5472476,1.7669208,-7.6135616,1.7621324
0.022880917,4.888729,0.7225509,1.5697339,2.2553651,1.4748282,-7.4842744,1.6950948
0.025241394,4.8894506,0.7225509,1.5697339,2.2553651,1.4748282,-7.4842744,1.6950948
0.027312076,4.890058,0.6064371,1.5068833,1.9677436,1.1683705,-7.4363904,1.661576
0.029397532,4.8906665,0.6064371,1.5068833,1.9677436,1.1683705,-7.4363904,1.661576
0.03118385,4.891159,0.48925802,1.4408369,1.6843834,0.8523358,-7.4028716,1.6519991
0.03295772,4.891645,0.48925802,1.4408369,1.6843834,0.8523358,-7.4028716,1.6519991
0.03446474,4.8920183,0.37420946,1.3715947,1.4095451,0.5410896,-7.469909,1.5705963
0.03596721,4.892388,0.37420946,1.3715947,1.4095451,0.5410896,-7.469909,1.5705963
0.037190817,4.8926296,0.26022616,1.3002219,1.1453595,0.23942018,-7.455544,1.436521
0.03841085,4.8928685,0.26022616,1.3002219,1.1453595,0.23942018,-7.455544,1.436521
0.03937581,4.893016,0.15369973,1.2245882,0.88969606,-0.15801731,-7.5944076,1.4221559
0.040338717,4.8931594,0.15369973,1.2245882,0.88969606,-0.15801731,-7.5944076,1.4221559
0.041320786,4.893152,0.0524996,1.1404322,0.65001154,-0.46926352,-7.5848308,1.364695
0.04230261,4.893143,0.0524996,1.1404322,0.65001154,-0.46926352,-7.5848308,1.364695
0.04305025,4.8930507,-0.042308938,1.0498848,0.426306,-1.1779473,-8.24563,1.4508862
0.043798577,4.892957,-0.042308938,1.0498848,0.426306,-1.1779473,-8.24563,1.4508862
0.04432479,4.892764,-0.1275301,0.94974995,0.22390577,-1.412579,-8.240842,1.2976574
0.0448514,4.8925705,-0.1275301,0.94974995,0.22390577,-1.412579,-8.240842,1.2976574
0.04517419,4.892307,-0.20422913,0.8474846,0.03428869,-1.3599066,-7.9726915,1.2880806
0.045496494,4.892043,-0.20422913,0.8474846,0.03428869,-1.3599066,-7.9726915,1.2880806
0.045633607,4.891716,-0.27453658,0.7441539,-0.13615362,-1.3551182,-7.8290396,1.2880806
0.045770593,4.8913884,-0.27453658,0.7441539,-0.13615362,-1.3551182,-7.8290396,1.2880806
0.045738645,4.891017,-0.340583,0.6418885,-0.29061696,-1.4173675,-8.1642275,1.4796166
0.045706395,4.8906455,-0.340583,0.6418885,-0.29061696,-1.4173675,-8.1642275,1.4796166
0.045515962,4.8902063,-0.40130305,0.5438842,-0.4333624,-1.6232687,-8.207323,1.3838485
0.045325138,4.889767,-0.40130305,0.5438842,-0.4333624,-1.6232687,-8.207323,1.3838485
0.044984676,4.889268,-0.45243576,0.44587985,-0.5654552,-1.7238252,-8.145074,1.2401965
0.044644035,4.88877,-0.45243576,0.44587985,-0.5654552,-1.7238252,-8.145074,1.2401965
0.04416209,4.888214,-0.50037265,0.34467974,-0.68583006,-1.5370775,-8.1642275,1.1444284
0.043680117,4.8876595,-0.50037265,0.34467974,-0.68583006,-1.5370775,-8.1642275,1.1444284
0.043071184,4.8870583,-0.54830956,0.24454488,-0.7955523,-1.3742718,-8.24563,1.1779473
0.04248677,4.8864822,-0.54830956,0.24454488,-0.7955523,-1.3742718,-8.24563,1.1779473
0.041767366,4.885843,-0.5962465,0.1539974,-0.89355665,-1.3120226,-8.470686,1.2785037
0.041020066,4.8851795,-0.5962465,0.1539974,-0.89355665,-1.3120226,-8.470686,1.2785037
0.04019382,4.884488,-0.6420528,0.07090677,-0.9819736,-1.3072342,-8.671799,1.2306197
0.039374515,4.8838034,-0.6420528,0.07090677,-0.9819736,-1.3072342,-8.671799,1.2306197
0.038457073,4.8830857,-0.6825329,-0.008988062,-1.0661294,-1.3072342,-8.925584,1.3503298
0.03753624,4.8823667,-0.6825329,-0.008988062,-1.0661294,-1.3072342,-8.925584,1.3503298
0.036539637,4.8816247,-0.71875185,-0.08462184,-1.1375022,-1.2880806,-9.193734,1.4413095
0.035542212,4.8808837,-0.71875185,-0.08462184,-1.1375022,-1.2880806,-9.193734,1.4413095
0.034474798,4.880119,-0.7496445,-0.15705982,-1.197157,-1.3072342,-9.481039,1.5179238
0.03340747,4.8793554,-0.7496445,-0.15705982,-1.197157,-1.3072342,-9.481039,1.5179238
0.032283228,4.878569,-0.77308035,-0.21991043,-1.245094,-1.2641385,-9.734824,1.541866
0.031151332,4.8777785,-0.77308035,-0.21991043,-1.245094,-1.2641385,-9.734824,1.541866
0.029982584,4.876976,-0.7901246,-0.27317366,-1.2759866,-1.3072342,-9.9790325,1.5849615
0.02882216,4.8761797,-0.7901246,-0.27317366,-1.2759866,-1.3072342,-9.9790325,1.5849615
0.027640205,4.875374,-0.803973,-0.31791475,-1.2930309,-1.3359646,-10.228029,1.6232687
0.026452532,4.874565,-0.803973,-0.31791475,-1.2930309,-1.3359646,-10.228029,1.6232687
0.025264243,4.8737574,-0.80929935,-0.35200322,-1.2919656,-1.3934253,-10.448297,1.6711528
0.024070105,4.872946,-0.80929935,-0.35200322,-1.2919656,-1.3934253,-10.448297,1.6711528
0.02288791,4.872143,-0.8082341,-0.37756956,-1.2781171,-1.4700398,-10.644621,1.733402
0.021705855,4.8713403,-0.8082341,-0.37756956,-1.2781171,-1.4700398,-10.644621,1.733402
0.020548245,4.870546,-0.80290776,-0.3967443,-1.2514855,-1.460463,-10.749966,1.7525556
0.019389512,4.869751,-0.80290776,-0.3967443,-1.2514855,-1.460463,-10.749966,1.7525556
0.018268527,4.8689766,-0.7901246,-0.41165802,-1.2099402,-1.4077905,-10.898406,1.8291701
0.017147528,4.868202,-0.7901246,-0.41165802,-1.2099402,-1.4077905,-10.898406,1.8291701
0.016073102,4.867444,-0.7741456,-0.4180496,-1.1620033,-1.388637,-10.998962,1.8339585
0.014998686,4.866687,-0.7741456,-0.4180496,-1.1620033,-1.388637,-10.998962,1.8339585
0.013978455,4.865954,-0.7517751,-0.4191149,-1.1066096,-1.3311762,-11.133038,1.8626889
0.012958197,4.865221,-0.7517751,-0.4191149,-1.1066096,-1.3311762,-11.133038,1.8626889
0.012000642,4.864523,-0.72514343,-0.4148538,-1.0416284,-1.2401965,-11.247959,1.9249382
0.011042975,4.863825,-0.72514343,-0.4148538,-1.0416284,-1.2401965,-11.247959,1.9249382
0.010151784,4.8631673,-0.69425076,-0.40739697,-0.97238624,-1.1348516,-11.252748,1.9776106
0.009258677,4.8625083,-0.69425076,-0.40739697,-0.97238624,-1.1348516,-11.252748,1.9776106
0.008434705,4.8618836,-0.66229284,-0.39887485,-0.9042093,-1.0534488,-11.267113,1.9632454
0.007611419,4.8612595,-0.66229284,-0.39887485,-0.9042093,-1.0534488,-11.267113,1.9632454
0.006851318,4.8606753,-0.62607384,-0.39035273,-0.8381629,-0.9864111,-11.233594,1.9728222
0.0060903262,4.8600907,-0.62607384,-0.39035273,-0.8381629,-0.9864111,-11.233594,1.9728222
0.0053896937,4.8595514,-0.59092015,-0.3828959,-0.7721165,-0.8571242,-11.27669,2.0111294
0.0046896306,4.8590126,-0.59092015,-0.3828959,-0.7721165,-0.8571242,-11.27669,2.0111294
0.004030828,4.8585286,-0.55470115,-0.37543905,-0.7092659,-0.7182605,-11.324574,2.1499932
0.003360317,4.858036,-0.55470115,-0.37543905,-0.7092659,-0.7182605,-11.324574,2.1499932
0.003360317,4.858036,-0.5174169,-0.36798218,-0.65067637,-0.61770403,-11.358093,2.2361844
0.0020414793,4.8570986,-0.5174169,-0.36798218,-0.65067637,-0.61770403,-11.358093,2.2361844
0.0014781307,4.8567047,-0.48013264,-0.3615906,-0.5952826,-0.49799395,-11.348516,2.1930888
0.00092253124,4.856316,-0.48013264,-0.3615906,-0.5952826,-0.49799395,-11.348516,2.1930888
0.0003950055,4.855965,-0.44284838,-0.35626426,-0.5452152,-0.4357447,-11.391612,2.2984335
6.283002,4.8555794,-0.44284838,-0.35626426,-0.5452152,-0.4357447,-11.391612,2.2984335
6.283002,4.8555794,-0.40236834,-0.34880742,-0.49727827,-0.33039984,-11.33894,2.2697031
6.282111,4.855018,-0.40236834,-0.34880742,-0.49727827,-0.33039984,-11.33894,2.2697031
6.281644,4.8547397,-0.36295354,-0.3413506,-0.45040664,-0.2633622,-11.33894,2.2457612
6.2812147,4.8544827,-0.36295354,-0.3413506,-0.45040664,-0.2633622,-11.33894,2.2457612
6.2807565,4.8542213,-0.32353875,-0.33176318,-0.40460026,-0.23942018,-11.334151,2.1930888
6.2804093,4.8540225,-0.32353875,-0.33176318,-0.40460026,-0.23942018,-11.334151,2.1930888
6.280039,4.8538337,-0.28412396,-0.3221758,-0.35985917,-0.1340753,-11.372458,2.1404164
6.27965,4.853635,-0.28412396,-0.3221758,-0.35985917,-0.1340753,-11.372458,2.1404164
6.2792916,4.8534765,-0.24683972,-0.30939263,-0.31724858,-0.05746084,-11.286267,2.1452048
6.278988,4.853342,-0.24683972,-0.30939263,-0.31724858,-0.05746084,-11.286267,2.1452048
6.278677,4.853232,-0.20742492,-0.2923484,-0.27357274,0.047884032,-11.262324,2.1691468
6.2783628,4.853121,-0.20742492,-0.2923484,-0.27357274,0.047884032,-11.262324,2.1691468
6.2780952,4.85305,-0.16907541,-0.27210838,-0.23202743,0.062249243,-11.190498,2.054225
6.277827,4.852978,-0.16907541,-0.27210838,-0.23202743,0.062249243,-11.190498,2.054225
6.2775984,4.852943,-0.13285641,-0.25080308,-0.1936779,0.07182605,-11.18571,2.0446482
6.27737,4.8529077,-0.13285641,-0.25080308,-0.1936779,0.07182605,-11.18571,2.0446482
6.277166,4.8529043,-0.09983322,-0.22736728,-0.15852417,0.12449849,-11.152191,1.9728222
6.2769628,4.8529015,-0.09983322,-0.22736728,-0.15852417,0.12449849,-11.152191,1.9728222
6.276804,4.8529325,-0.06681002,-0.20606199,-0.123370446,0.10055647,-11.118672,1.9536686
6.2766457,4.8529625,-0.06681002,-0.20606199,-0.123370446,0.10055647,-11.118672,1.9536686
6.2765164,4.8530254,-0.034852087,-0.18582197,-0.09034725,0.11971009,-11.056423,1.9009962
6.2763877,4.8530874,-0.034852087,-0.18582197,-0.09034725,0.11971009,-11.056423,1.9009962
6.276293,4.85318,-0.0050246827,-0.16771246,-0.060519844,0.12449849,-10.979809,1.9776106
6.2761984,4.8532724,-0.0050246827,-0.16771246,-0.060519844,0.12449849,-10.979809,1.9776106
6.27613,4.8533964,0.026933251,-0.15279876,-0.03069244,0.1340753,-10.951078,1.8962077
6.276062,4.8535204,0.026933251,-0.15279876,-0.03069244,0.1340753,-10.951078,1.8962077
6.2760057,4.8536716,0.055695392,-0.14108086,-0.004060829,0.17238252,-10.879252,1.8291701
6.27595,4.8538227,0.055695392,-0.14108086,-0.004060829,0.17238252,-10.879252,1.8291701
6.275913,4.854001,0.08445753,-0.13042821,0.019374989,0.17238252,-10.788273,1.7717092
6.275875,4.8541803,0.08445753,-0.13042821,0.019374989,0.17238252,-10.788273,1.7717092
6.275862,4.8543887,0.11428493,-0.124036625,0.041745543,0.17717093,-10.682928,1.7812861
6.2758493,4.8545904,0.11428493,-0.124036625,0.041745543,0.17717093,-10.682928,1.7812861
6.275836,4.8548193,0.14091654,-0.11977556,0.0641161,0.17238252,-10.5440645,1.6519991
6.275821,4.8550587,0.14091654,-0.11977556,0.0641161,0.17238252,-10.5440645,1.6519991
6.2758183,4.8553104,0.16754816,-0.11444924,0.08542138,0.17717093,-10.462662,1.6232687
6.275814,4.855562,0.16754816,-0.11444924,0.08542138,0.17717093,-10.462662,1.6232687
6.275782,4.8558016,0.19098398,-0.110188186,0.10566141,0.17717093,-10.304645,1.5275006
6.2757483,4.85604,0.19098398,-0.110188186,0.10566141,0.17717093,-10.304645,1.5275006
6.27575,4.856187,0.21335453,-0.1037966,0.12377091,0.17238252,-10.146626,1.4077905
6.275753,4.856333,0.21335453,-0.1037966,0.12377091,0.17238252,-10.146626,1.4077905
6.2757535,4.85652,0.2325293,-0.10060081,0.14188041,0.22026655,-10.007763,1.3982137
6.2757554,4.8567057,0.2325293,-0.10060081,0.14188041,0.22026655,-10.007763,1.3982137
6.2758036,4.8568788,0.24744299,-0.095274486,0.15892464,0.19153613,-9.921572,1.3503298
6.275853,4.8570523,0.24744299,-0.095274486,0.15892464,0.19153613,-9.921572,1.3503298
6.2759023,4.8572493,0.26022616,-0.091013424,0.1749036,0.21547815,-9.753978,1.340753
6.275953,4.857448,0.26022616,-0.091013424,0.1749036,0.21547815,-9.753978,1.340753
6.2760315,4.857643,0.26981354,-0.08888289,0.18981731,0.23942018,-9.610326,1.2737153
6.2761106,4.8578377,0.26981354,-0.08888289,0.18981731,0.23942018,-9.610326,1.2737153
6.276218,4.8580327,0.2772704,-0.08355658,0.20366573,0.25378537,-9.514558,1.2066777
6.2763257,4.8582277,0.2772704,-0.08355658,0.20366573,0.25378537,-9.514558,1.2066777
6.276452,4.858426,0.283662,-0.079295516,0.21644892,0.30166942,-9.361329,1.1109096
6.276578,4.8586245,0.283662,-0.079295516,0.21644892,0.30166942,-9.361329,1.1109096
6.2766876,4.8588433,0.28685778,-0.07609972,0.22710156,0.35913026,-9.284714,1.1731589
6.2767973,4.859062,0.28685778,-0.07609972,0.22710156,0.35913026,-9.284714,1.1731589
6.2769365,4.8592677,0.28792304,-0.07290393,0.2345584,0.32561144,-9.165004,1.0869676
6.277076,4.859473,0.28792304,-0.07290393,0.2345584,0.32561144,-9.165004,1.0869676
6.27721,4.859685,0.28685778,-0.06970814,0.24094999,0.34955344,-9.102755,1.1109096
6.2773447,4.8598957,0.28685778,-0.06970814,0.24094999,0.34955344,-9.102755,1.1109096
6.277468,4.8601155,0.283662,-0.06544708,0.24521105,0.36391866,-8.959103,1.1492168
6.277592,4.8603354,0.283662,-0.06544708,0.24521105,0.36391866,-8.959103,1.1492168
6.2777276,4.8605413,0.2772704,-0.06118602,0.24734159,0.40222588,-8.90643,1.0773908
6.277863,4.8607473,0.2772704,-0.06118602,0.24734159,0.40222588,-8.90643,1.0773908
6.2780113,4.8609376,0.26981354,-0.059055492,0.24734159,0.38307226,-8.8777,1.0199299
6.27816,4.861128,0.26981354,-0.059055492,0.24734159,0.38307226,-8.8777,1.0199299
6.2783,4.861312,0.26022616,-0.0558597,0.2441458,0.40222588,-8.767567,1.0199299
6.27844,4.8614964,0.26022616,-0.0558597,0.2441458,0.40222588,-8.767567,1.0199299
6.2785764,4.861669,0.24957353,-0.052663904,0.23881947,0.4213795,-8.695741,0.9864111
6.278713,4.8618417,0.24957353,-0.052663904,0.23881947,0.4213795,-8.695741,0.9864111
6.278832,4.862008,0.23785561,-0.051598642,0.22923209,0.45489833,-8.662222,1.0055647
6.278951,4.8621745,0.23785561,-0.051598642,0.22923209,0.45489833,-8.662222,1.0055647
6.279051,4.8623343,0.22507244,-0.050533377,0.21751417,0.47405192,-8.585608,1.0295067
6.2791505,4.862494,0.22507244,-0.050533377,0.21751417,0.47405192,-8.585608,1.0295067
6.2792535,4.8626266,0.21015874,-0.050533377,0.20366573,0.44532153,-8.614338,0.94810385
6.279357,4.8627586,0.21015874,-0.050533377,0.20366573,0.44532153,-8.614338,0.94810385
6.279435,4.8628826,0.1931145,-0.04946811,0.19088256,0.45968673,-8.5473,1.0055647
6.279514,4.863006,0.1931145,-0.04946811,0.19088256,0.45968673,-8.5473,1.0055647
6.2795744,4.8631163,0.17607027,-0.048402846,0.17703412,0.50757074,-8.537724,1.0007763
6.2796326,4.863222,0.17607027,-0.048402846,0.17703412,0.50757074,-8.537724,1.0007763
6.2796736,4.863314,0.15583025,-0.04627232,0.1599899,0.5315128,-8.504205,1.0007763
6.2797165,4.86341,0.15583025,-0.04627232,0.1599899,0.5315128,-8.504205,1.0007763
6.279731,4.8634887,0.13452496,-0.045207053,0.13974987,0.5650316,-8.523358,1.0390835
6.2797446,4.8635664,0.13452496,-0.045207053,0.13974987,0.5650316,-8.523358,1.0390835
6.2797284,4.86363,0.11108914,-0.040945996,0.11631405,0.6464345,-8.528147,1.0630256
6.2797127,4.863694,0.11108914,-0.040945996,0.11631405,0.6464345,-8.528147,1.0630256
6.2796702,4.863733,0.08658806,-0.035619672,0.088617176,0.7278373,-8.48984,1.0247183
6.279628,4.8637714,0.08658806,-0.035619672,0.088617176,0.7278373,-8.48984,1.0247183
6.2795467,4.863802,0.06421751,-0.031358615,0.05772451,0.8379706,-8.513782,1.091756
6.279466,4.8638325,0.06421751,-0.031358615,0.05772451,0.8379706,-8.513782,1.091756
6.279353,4.8638315,0.03865116,-0.027097559,0.021505518,0.79966336,-8.552089,1.0726024
6.27924,4.863831,0.03865116,-0.027097559,0.021505518,0.79966336,-8.552089,1.0726024
6.2790847,4.8638153,0.013084813,-0.019640706,-0.017909266,0.79008657,-8.571242,1.1444284
6.2789288,4.8637996,0.013084813,-0.019640706,-0.017909266,0.79008657,-8.571242,1.1444284
6.278738,4.86375,-0.012481534,-0.012183856,-0.058389317,0.78050977,-8.652645,1.1109096
6.2785435,4.8637004,-0.012481534,-0.012183856,-0.058389317,0.78050977,-8.652645,1.1109096
6.278307,4.863632,-0.039113145,-0.005792269,-0.10206516,0.641646,-8.643068,1.1875241
6.2780647,4.8635626,-0.039113145,-0.005792269,-0.10206516,0.641646,-8.643068,1.1875241
6.2777967,4.863467,-0.06681002,-0.0015312112,-0.14254521,0.5315128,-8.676587,1.2066777
6.277525,4.8633704,-0.06681002,-0.0015312112,-0.14254521,0.5315128,-8.676587,1.2066777
6.2772193,4.863246,-0.091311105,0.0016645822,-0.17663367,0.4357447,-8.748413,1.2306197
6.276912,4.8631206,-0.091311105,0.0016645822,-0.17663367,0.4357447,-8.748413,1.2306197
6.276588,4.8629513,-0.11368166,0.0027298466,-0.20965686,0.4261679,-8.801085,1.1587936
6.276264,4.8627825,-0.11368166,0.0027298466,-0.20965686,0.4261679,-8.801085,1.1587936
6.275913,4.862589,-0.13392168,0.003795111,-0.2416148,0.3878607,-8.858546,1.1683705
6.275562,4.8623962,-0.13392168,0.003795111,-0.2416148,0.3878607,-8.858546,1.1683705
6.2752156,4.86216,-0.1541617,0.0069909045,-0.26931167,0.32561144,-8.8777,1.0773908
6.2748685,4.861923,-0.1541617,0.0069909045,-0.26931167,0.32561144,-8.8777,1.0773908
6.274516,4.861661,-0.17333646,0.008056169,-0.2959433,0.22984336,-8.944737,1.1204864
6.274163,4.8613977,-0.17333646,0.008056169,-0.2959433,0.22984336,-8.944737,1.1204864
6.273772,4.861122,-0.19144596,0.010186698,-0.32044438,0.22026655,-8.992621,1.1923125
6.273382,4.8608465,-0.19144596,0.010186698,-0.32044438,0.22026655,-8.992621,1.1923125
6.2730083,4.8605413,-0.20955546,0.010186698,-0.3460107,0.15801731,-9.006987,1.1492168
6.272633,4.8602343,-0.20955546,0.010186698,-0.3460107,0.15801731,-9.006987,1.1492168
6.2722673,4.8599095,-0.22553442,0.009121433,-0.36838126,0.10055647,-9.035717,1.1875241
6.271904,4.859585,-0.22553442,0.009121433,-0.36838126,0.10055647,-9.035717,1.1875241
6.271563,4.85925,-0.24044813,0.0069909045,-0.38968655,0.033518825,-9.030929,1.1875241
6.2712255,4.8589163,-0.24044813,0.0069909045,-0.38968655,0.033518825,-9.030929,1.1875241
6.2708735,4.8585706,-0.2532313,0.0027298466,-0.40779606,-0.01436521,-9.059659,1.1109096
6.2705374,4.8582387,-0.2532313,0.0027298466,-0.40779606,-0.01436521,-9.059659,1.1109096
6.2702136,4.8579025,-0.2649492,-0.0047270046,-0.4248403,-0.04309563,-9.155427,1.2258313
6.2698803,4.8575544,-0.2649492,-0.0047270046,-0.4248403,-0.04309563,-9.155427,1.2258313
6.2695456,4.857209,-0.27666712,-0.011118591,-0.43975398,-0.095768064,-9.121908,1.1875241
6.269217,4.8568707,-0.27666712,-0.011118591,-0.43975398,-0.095768064,-9.121908,1.1875241
6.2688665,4.856515,-0.2862545,-0.017510178,-0.45253718,-0.02873042,-9.212888,1.2258313
6.268516,4.8561583,-0.2862545,-0.017510178,-0.45253718,-0.02873042,-9.212888,1.2258313
6.268144,4.8557854,-0.29477662,-0.02496703,-0.45999402,-0.095768064,-9.241618,1.1252748
6.2677746,4.8554134,-0.29477662,-0.02496703,-0.45999402,-0.095768064,-9.241618,1.1252748
6.2674155,4.8550487,-0.3011682,-0.033489145,-0.46745086,-0.12449849,-9.299079,1.1779473
6.2670574,4.8546853,-0.3011682,-0.033489145,-0.46745086,-0.12449849,-9.299079,1.1779473
6.2666984,4.854323,-0.30649453,-0.040945996,-0.47490773,-0.16759412,-9.380483,1.1923125
6.2663417,4.853964,-0.30649453,-0.040945996,-0.47490773,-0.16759412,-9.380483,1.1923125
6.2659883,4.853613,-0.30969033,-0.048402846,-0.47916877,-0.18674773,-9.471462,1.2354081
6.2656364,4.8532634,-0.30969033,-0.048402846,-0.47916877,-0.18674773,-9.471462,1.2354081
6.265291,4.852927,-0.31182083,-0.0558597,-0.47810352,-0.22505496,-9.490616,1.2737153
6.2649465,4.852592,-0.31182083,-0.0558597,-0.47810352,-0.22505496,-9.490616,1.2737153
6.2645917,4.8522353,-0.31182083,-0.064381815,-0.47597298,-0.20111294,-9.586384,1.2162545
6.2642384,4.8518796,-0.31182083,-0.064381815,-0.47597298,-0.20111294,-9.586384,1.2162545
6.2638974,4.8515434,-0.30969033,-0.07503446,-0.47064665,-0.19153613,-9.595961,1.2737153
6.263557,4.8512087,-0.30969033,-0.07503446,-0.47064665,-0.19153613,-9.595961,1.2737153
6.263225,4.8508925,-0.30649453,-0.08355658,-0.46425506,-0.15801731,-9.591172,1.316811
6.262893,4.850578,-0.30649453,-0.08355658,-0.46425506,-0.15801731,-9.591172,1.316811
6.2625666,4.8502655,-0.30223346,-0.093143955,-0.45786348,-0.1388637,-9.706094,1.3263878
6.26224,4.849954,-0.30223346,-0.093143955,-0.45786348,-0.1388637,-9.706094,1.3263878
6.261918,4.849636,-0.29584187,-0.10166607,-0.44934136,-0.12928689,-9.710882,1.292869
6.261918,4.849636,-0.29584187,-0.10166607,-0.44934136,-0.12928689,-9.710882,1.292869
6.2612615,4.848995,-0.2894503,-0.106992394,-0.43868873,-0.1436521,-9.682152,1.3694834
6.2609386,4.848709,-0.2894503,-0.106992394,-0.43868873,-0.1436521,-9.682152,1.3694834
6.2606597,4.84844,-0.28412396,-0.11231872,-0.4269708,-0.15322891,-9.720459,1.3263878
6.2603445,4.848137,-0.28412396,-0.11231872,-0.4269708,-0.15322891,-9.720459,1.3263878
6.260065,4.8478713,-0.27560186,-0.1187103,-0.4120571,-0.08619126,-9.739613,1.3455414
6.260065,4.8478713,-0.27560186,-0.1187103,-0.4120571,-0.08619126,-9.739613,1.3455414
6.2595067,4.847336,-0.268145,-0.1251019,-0.40033922,-0.038307227,-9.758766,1.316811
6.259247,4.847076,-0.268145,-0.1251019,-0.40033922,-0.038307227,-9.758766,1.316811
6.2589784,4.8467975,-0.25855762,-0.12936294,-0.3886213,-0.0047884034,-9.816227,1.3072342
6.258715,4.8465257,-0.25855762,-0.12936294,-0.3886213,-0.0047884034,-9.816227,1.3072342
6.2584667,4.846278,-0.2500355,-0.13042821,-0.3737076,0.047884032,-9.844957,1.3359646
6.2582226,4.846037,-0.2500355,-0.13042821,-0.3737076,0.047884032,-9.844957,1.3359646
6.2579885,4.8457994,-0.24151339,-0.13149348,-0.36092442,0.06703765,-9.892841,1.3359646
6.2577477,4.8455563,-0.24151339,-0.13149348,-0.36092442,0.06703765,-9.892841,1.3359646
6.257497,4.84538,-0.23299128,-0.13255873,-0.3492065,0.12449849,-9.89763,1.3934253
6.2572455,4.8452024,-0.23299128,-0.13255873,-0.3492065,0.12449849,-9.89763,1.3934253
6.2570257,4.8450117,-0.2234039,-0.13149348,-0.33855388,0.08619126,-9.921572,1.3694834
6.256804,4.8448195,-0.2234039,-0.13149348,-0.33855388,0.08619126,-9.921572,1.3694834
6.2565837,4.8446574,-0.21275125,-0.12936294,-0.32470542,0.038307227,-9.921572,1.4221559
6.2563486,4.844484,-0.21275125,-0.12936294,-0.32470542,0.038307227,-9.921572,1.4221559
6.25613,4.8443155,-0.20316388,-0.12616715,-0.310857,0.062249243,-9.931149,1.4030021
6.255921,4.844155,-0.20316388,-0.12616715,-0.310857,0.062249243,-9.931149,1.4030021
6.2557473,4.8440394,-0.19251123,-0.121906094,-0.29487804,0.02873042,-9.9550905,1.460463
6.255552,4.8439093,-0.19251123,-0.121906094,-0.29487804,0.02873042,-9.9550905,1.460463
6.2553883,4.8437715,-0.18079332,-0.11764504,-0.27570325,0.047884032,-9.9790325,1.4030021
6.2552238,4.843633,-0.18079332,-0.11764504,-0.27570325,0.047884032,-9.9790325,1.4030021
6.2550826,4.843504,-0.16907541,-0.11444924,-0.254398,0.009576807,-9.935937,1.4030021
6.254942,4.843375,-0.16907541,-0.11444924,-0.254398,0.009576807,-9.935937,1.4030021
6.254808,4.843276,-0.15629223,-0.11125345,-0.23202743,0.0047884034,-9.940725,1.460463
6.254674,4.843177,-0.15629223,-0.11125345,-0.23202743,0.0047884034,-9.940725,1.460463
6.254568,4.843091,-0.14137854,-0.105927125,-0.20752634,0.05267244,-9.945514,1.4269443
6.2544622,4.843004,-0.14137854,-0.105927125,-0.20752634,0.05267244,-9.945514,1.4269443
6.254378,4.842937,-0.12646483,-0.09847028,-0.18302526,0.090979666,-9.916783,1.412579
6.2542934,4.8428693,-0.12646483,-0.09847028,-0.18302526,0.090979666,-9.916783,1.412579
6.2542477,4.842801,-0.11368166,-0.091013424,-0.15745892,0.07182605,-9.92636,1.388637
6.2542014,4.842734,-0.11368166,-0.091013424,-0.15745892,0.07182605,-9.92636,1.388637
6.2541723,4.8426914,-0.09983322,-0.08355658,-0.1308273,0.10534488,-9.907207,1.3982137
6.2541428,4.8426495,-0.09983322,-0.08355658,-0.1308273,0.10534488,-9.907207,1.3982137
6.2541146,4.8426404,-0.08491952,-0.07503446,-0.10526095,0.15322891,-9.868899,1.4173675
6.2540865,4.8426323,-0.08491952,-0.07503446,-0.10526095,0.15322891,-9.868899,1.4173675
6.2540765,4.842642,-0.07107108,-0.066512346,-0.07969461,0.22505496,-9.883265,1.364695
6.2540665,4.8426514,-0.07107108,-0.066512346,-0.07969461,0.22505496,-9.883265,1.364695
6.254027,4.8426886,-0.05935317,-0.054794434,-0.05519352,0.25378537,-9.835381,1.4460979
6.2539873,4.8427258,-0.05935317,-0.054794434,-0.05519352,0.25378537,-9.835381,1.4460979
6.2539983,4.8427687,-0.048700526,-0.043076526,-0.031757705,0.25378537,-9.835381,1.3599066
6.2540097,4.842812,-0.048700526,-0.043076526,-0.031757705,0.25378537,-9.835381,1.3599066
6.254022,4.8428707,-0.03804788,-0.030293351,-0.008321887,0.24899697,-9.801862,1.4460979
6.2540345,4.842929,-0.03804788,-0.030293351,-0.008321887,0.24899697,-9.801862,1.4460979
6.254066,4.842997,-0.029525764,-0.016444914,0.011918138,0.2633622,-9.825804,1.4077905
6.2541,4.843071,-0.029525764,-0.016444914,0.011918138,0.2633622,-9.825804,1.4077905
6.2541785,4.843143,-0.021003649,-0.0025964756,0.027897105,0.21068975,-9.77792,1.4269443
6.254263,4.8432207,-0.021003649,-0.0025964756,0.027897105,0.21068975,-9.77792,1.4269443
6.2543797,4.8432674,-0.013546798,0.010186698,0.04387607,0.19632454,-9.739613,1.3455414
6.25452,4.8433237,-0.013546798,0.010186698,0.04387607,0.19632454,-9.739613,1.3455414
6.2546964,4.843373,-0.008220476,0.021904606,0.059855036,0.19153613,-9.730036,1.3263878
6.2548723,4.843422,-0.008220476,0.021904606,0.059855036,0.19153613,-9.730036,1.3263878
6.2550764,4.84346,-0.0018288894,0.032557253,0.071572945,0.16280572,-9.68694,1.3120226
6.2552795,4.843499,-0.0018288894,0.032557253,0.071572945,0.16280572,-9.68694,1.3120226
6.2554464,4.8435855,0.0045626974,0.040014103,0.08329086,0.17717093,-9.672575,1.3742718
6.2556133,4.8436728,0.0045626974,0.040014103,0.08329086,0.17717093,-9.672575,1.3742718
6.255844,4.843717,0.0077584907,0.04853622,0.0939435,0.17238252,-9.629479,1.2976574
6.2560735,4.8437614,0.0077584907,0.04853622,0.0939435,0.17238252,-9.629479,1.2976574
6.256323,4.8437967,0.012019549,0.053862542,0.106726676,0.18195933,-9.576807,1.2785037
6.256572,4.843832,0.012019549,0.053862542,0.106726676,0.18195933,-9.576807,1.2785037
6.2568088,4.8439064,0.015215342,0.05918886,0.11737932,0.15322891,-9.519346,1.3120226
6.2570453,4.8439817,0.015215342,0.05918886,0.11737932,0.15322891,-9.519346,1.3120226
6.2573133,4.8440237,0.017345872,0.06344992,0.12483617,0.1388637,-9.509769,1.2785037
6.257581,4.8440666,0.017345872,0.06344992,0.12483617,0.1388637,-9.509769,1.2785037
6.257856,4.844073,0.019476399,0.06558045,0.12909722,0.17238252,-9.457097,1.2449849
6.2581315,4.844078,0.019476399,0.06558045,0.12909722,0.17238252,-9.457097,1.2449849
6.258408,4.8440824,0.020541664,0.06771098,0.13122776,0.12449849,-9.437943,1.2354081
6.2586846,4.844086,0.020541664,0.06771098,0.13122776,0.12449849,-9.437943,1.2354081
6.2589517,4.84415,0.02160693,0.06664571,0.13229302,0.1388637,-9.41879,1.2785037
6.259218,4.8442144,0.02160693,0.06664571,0.13229302,0.1388637,-9.41879,1.2785037
6.259481,4.8441877,0.020541664,0.06451519,0.13229302,0.15322891,-9.394848,1.2162545
6.2597423,4.84416,0.020541664,0.06451519,0.13229302,0.15322891,-9.394848,1.2162545
6.259961,4.8441,0.020541664,0.060254127,0.13122776,0.19632454,-9.370906,1.2162545
6.2601757,4.8440385,0.020541664,0.060254127,0.13122776,0.19632454,-9.370906,1.2162545
6.260329,4.843959,0.018411135,0.0581236,0.12909722,0.21068975,-9.3661175,1.2018893
6.260478,4.843879,0.018411135,0.0581236,0.12909722,0.21068975,-9.3661175,1.2018893
6.260745,4.843878,0.0141500775,0.052797277,0.12270564,0.17238252,-9.3421755,1.2306197
6.2610116,4.843876,0.0141500775,0.052797277,0.12270564,0.17238252,-9.3421755,1.2306197
6.261238,4.843953,0.00988902,0.04853622,0.11737932,0.16280572,-9.3661175,1.2689269
6.261463,4.844031,0.00988902,0.04853622,0.11737932,0.16280572,-9.3661175,1.2689269
6.2616515,4.8439503,0.0045626974,0.045340426,0.112053,0.17717093,-9.370906,1.2066777
6.2618375,4.8438687,0.0045626974,0.045340426,0.112053,0.17717093,-9.370906,1.2066777
6.2620373,4.843795,0.00030163955,0.04107937,0.102465615,0.15322891,-9.346964,1.1971009
6.262236,4.84372,0.00030163955,0.04107937,0.102465615,0.15322891,-9.346964,1.1971009
6.2624106,4.8436327,-0.0050246827,0.03468778,0.09287824,0.15322891,-9.346964,1.1875241
6.2625847,4.843545,-0.0050246827,0.03468778,0.09287824,0.15322891,-9.346964,1.1875241
6.2628107,4.843548,-0.0114162695,0.029361458,0.08435612,0.16759412,-9.380483,1.2401965
6.2630363,4.8435516,-0.0114162695,0.029361458,0.08435612,0.16759412,-9.380483,1.2401965
6.263251,4.8435435,-0.018873122,0.022969872,0.07263821,0.08619126,-9.3421755,1.2401965
6.263465,4.843536,-0.018873122,0.022969872,0.07263821,0.08619126,-9.3421755,1.2401965
6.2636685,4.843505,-0.025264706,0.017643549,0.061985567,0.08619126,-9.361329,1.2306197
6.2638717,4.8434744,-0.025264706,0.017643549,0.061985567,0.08619126,-9.361329,1.2306197
6.2640333,4.843379,-0.03059103,0.012317227,0.05346345,0.090979666,-9.394848,1.1827357
6.264195,4.8432846,-0.03059103,0.012317227,0.05346345,0.090979666,-9.394848,1.1827357
6.2643538,4.8431873,-0.03804788,0.00592564,0.044941336,0.07182605,-9.375694,1.1779473
6.2645125,4.8430905,-0.03804788,0.00592564,0.044941336,0.07182605,-9.375694,1.1779473
6.2646866,4.843028,-0.04443947,0.0005993177,0.03641922,0.062249243,-9.404425,1.2210429
6.264858,4.842967,-0.04443947,0.0005993177,0.03641922,0.062249243,-9.404425,1.2210429
6.2650213,4.842894,-0.050831053,-0.0068575335,0.027897105,0.06703765,-9.428367,1.2210429
6.2651877,4.8428206,-0.050831053,-0.0068575335,0.027897105,0.06703765,-9.428367,1.2210429
6.2653446,4.842744,-0.05509211,-0.01324912,0.021505518,0.12449849,-9.399636,1.2258313
6.2655005,4.8426695,-0.05509211,-0.01324912,0.021505518,0.12449849,-9.399636,1.2258313
6.2656374,4.8426557,-0.060418434,-0.019640706,0.016179197,0.090979666,-9.490616,1.2737153
6.265774,4.842643,-0.060418434,-0.019640706,0.016179197,0.090979666,-9.490616,1.2737153
6.265918,4.842584,-0.06574476,-0.02496703,0.00765708,0.12449849,-9.414001,1.2354081
6.2660613,4.842528,-0.06574476,-0.02496703,0.00765708,0.12449849,-9.414001,1.2354081
6.2661004,4.8425503,-0.07107108,-0.029228088,0.00020022877,0.12449849,-9.466674,1.3263878
6.266139,4.842573,-0.07107108,-0.029228088,0.00020022877,0.12449849,-9.466674,1.3263878
6.2661853,4.8425903,-0.07426687,-0.033489145,-0.004060829,0.12928689,-9.533711,1.3072342
6.2662306,4.8426065,-0.07426687,-0.033489145,-0.004060829,0.12928689,-9.533711,1.3072342
6.2663565,4.8425155,-0.077462666,-0.037750203,-0.008321887,0.11492168,-9.504981,1.2401965
6.2664824,4.8424263,-0.077462666,-0.037750203,-0.008321887,0.11492168,-9.504981,1.2401965
6.2664723,4.842443,-0.08172372,-0.040945996,-0.015778739,0.15322891,-9.557653,1.3215994
6.266463,4.8424597,-0.08172372,-0.040945996,-0.015778739,0.15322891,-9.557653,1.3215994
6.2665086,4.842455,-0.08811531,-0.043076526,-0.02323559,0.12928689,-9.56723,1.2880806
6.2665534,4.8424506,-0.08811531,-0.043076526,-0.02323559,0.12928689,-9.56723,1.2880806
6.2665153,4.842457,-0.092376366,-0.044141788,-0.03069244,0.16280572,-9.5385,1.364695
6.266477,4.8424625,-0.092376366,-0.044141788,-0.03069244,0.16280572,-9.5385,1.364695
6.266479,4.842457,-0.09876795,-0.04627232,-0.03814929,0.12449849,-9.557653,1.3263878
6.266481,4.842451,-0.09876795,-0.04627232,-0.03814929,0.12449849,-9.557653,1.3263878
6.266446,4.8424473,-0.10196375,-0.045207053,-0.046671405,0.1436521,-9.586384,1.3551182
6.2664123,4.842443,-0.10196375,-0.045207053,-0.046671405,0.1436521,-9.586384,1.3551182
6.2663717,4.842433,-0.107290074,-0.044141788,-0.056258786,0.1388637,-9.533711,1.3503298
6.266332,4.8424225,-0.107290074,-0.044141788,-0.056258786,0.1388637,-9.533711,1.3503298
6.2662783,4.8424063,-0.11368166,-0.045207053,-0.064780906,0.1388637,-9.500193,1.3742718
6.2662272,4.842391,-0.11368166,-0.045207053,-0.064780906,0.1388637,-9.500193,1.3742718
6.2662244,4.8423557,-0.11900798,-0.04627232,-0.07117249,0.08619126,-9.543288,1.3359646
6.266222,4.84232,-0.11900798,-0.04627232,-0.07117249,0.08619126,-9.543288,1.3359646
6.2662153,4.8422766,-0.12326904,-0.04627232,-0.0828904,0.076614454,-9.595961,1.340753
6.2662086,4.8422327,-0.12326904,-0.04627232,-0.0828904,0.076614454,-9.595961,1.340753
6.2661796,4.842191,-0.1275301,-0.04946811,-0.09034725,0.10534488,-9.600749,1.3311762
6.2661505,4.8421507,-0.1275301,-0.04946811,-0.09034725,0.10534488,-9.600749,1.3311762
6.2660975,4.842109,-0.13285641,-0.052663904,-0.0978041,0.10055647,-9.615114,1.3742718
6.2660446,4.842068,-0.13285641,-0.052663904,-0.0978041,0.10055647,-9.615114,1.3742718
6.2660475,4.8419876,-0.13818274,-0.054794434,-0.10313042,0.076614454,-9.624691,1.3024458
6.2660503,4.8419085,-0.13818274,-0.054794434,-0.10313042,0.076614454,-9.624691,1.3024458
6.2660174,4.8418465,-0.14137854,-0.057990227,-0.108456746,0.12449849,-9.677363,1.3024458
6.2659845,4.8417845,-0.14137854,-0.057990227,-0.108456746,0.12449849,-9.677363,1.3024458
6.265936,4.841725,-0.14350906,-0.060120758,-0.11484833,0.090979666,-9.68694,1.3503298
6.2658877,4.8416653,-0.14350906,-0.060120758,-0.11484833,0.090979666,-9.68694,1.3503298
6.265899,4.8415318,-0.14457433,-0.064381815,-0.120174654,0.1340753,-9.773131,1.2737153
6.2659097,4.8414035,-0.14457433,-0.064381815,-0.120174654,0.1340753,-9.773131,1.2737153
6.2658944,4.8413105,-0.14457433,-0.06864287,-0.12550098,0.047884032,-9.763555,1.3215994
6.2658787,4.841218,-0.14457433,-0.06864287,-0.12550098,0.047884032,-9.763555,1.3215994
6.265798,4.8411627,-0.14457433,-0.07290393,-0.12976204,0.10534488,-9.830592,1.3790601
6.265798,4.8411627,-0.14457433,-0.07290393,-0.12976204,0.10534488,-9.830592,1.3790601
6.265798,4.8411627,-0.14457433,-0.07290393,-0.12976204,0.10534488,-9.830592,1.3790601
6.265798,4.8411627,-0.14457433,-0.07290393,-0.12976204,0.10534488,-9.830592,1.3790601
6.265636,4.840908,-0.14244379,-0.08462184,-0.1340231,0.10534488,-9.892841,1.3503298
6.2655253,4.8408003,-0.14244379,-0.08462184,-0.1340231,0.10534488,-9.892841,1.3503298
6.2653975,4.840766,-0.13818274,-0.091013424,-0.13615362,0.18195933,-9.89763,1.4030021
6.2652235,4.840719,-0.13818274,-0.091013424,-0.13615362,0.18195933,-9.89763,1.4030021
6.2651114,4.8406887,-0.13392168,-0.09633975,-0.1372189,0.17238252,-9.931149,1.340753
6.2649803,4.840653,-0.13392168,-0.09633975,-0.1372189,0.17238252,-9.931149,1.340753
6.264728,4.8406,-0.13072589,-0.10273133,-0.14041469,0.24420857,-9.959879,1.3599066
6.2645426,4.8405623,-0.13072589,-0.10273133,-0.14041469,0.24420857,-9.959879,1.3599066
6.2643337,4.8405247,-0.1275301,-0.109122925,-0.14467573,0.25378537,-9.974244,1.3982137
6.2641244,4.8404875,-0.1275301,-0.109122925,-0.14467573,0.25378537,-9.974244,1.3982137
6.263868,4.840436,-0.122203775,-0.11551451,-0.14787152,0.29209262,-9.959879,1.3599066
6.2636137,4.840386,-0.122203775,-0.11551451,-0.14787152,0.29209262,-9.959879,1.3599066
6.263366,4.8403482,-0.11794271,-0.1187103,-0.15106732,0.2777274,-9.969456,1.3694834
6.2631245,4.840311,-0.11794271,-0.1187103,-0.15106732,0.2777274,-9.969456,1.3694834
6.262907,4.840287,-0.11368166,-0.122971356,-0.15213259,0.2681506,-10.022128,1.3982137
6.2626877,4.8402634,-0.11368166,-0.122971356,-0.15213259,0.2681506,-10.022128,1.3982137
6.2624393,4.840234,-0.1094206,-0.12616715,-0.15319785,0.272939,-9.998186,1.3551182
6.262197,4.840205,-0.1094206,-0.12616715,-0.15319785,0.272939,-9.998186,1.3551182
6.2619505,4.8401823,-0.10302901,-0.13149348,-0.15319785,0.2873042,-9.998186,1.364695
6.2617054,4.84016,-0.10302901,-0.13149348,-0.15319785,0.2873042,-9.998186,1.364695
6.261463,4.840146,-0.09557216,-0.13575453,-0.15106732,0.2873042,-10.007763,1.364695
6.261223,4.840132,-0.09557216,-0.13575453,-0.15106732,0.2873042,-10.007763,1.364695
6.260987,4.8401275,-0.08811531,-0.14001559,-0.1489368,0.25857377,-9.964667,1.3263878
6.2607546,4.840124,-0.08811531,-0.14001559,-0.1489368,0.25857377,-9.964667,1.3263878
6.2605176,4.8401237,-0.08172372,-0.14321138,-0.145741,0.2873042,-9.964667,1.3503298
6.2602825,4.840124,-0.08172372,-0.14321138,-0.145741,0.2873042,-9.964667,1.3503298
6.2600226,4.8401155,-0.07426687,-0.14427665,-0.14147994,0.30166942,-9.945514,1.3263878
6.2597647,4.8401084,-0.07426687,-0.14427665,-0.14147994,0.30166942,-9.945514,1.3263878
6.259534,4.8399563,-0.06681002,-0.14534192,-0.13508835,0.2681506,-9.998186,1.2497733
6.259305,4.839803,-0.06681002,-0.14534192,-0.13508835,0.2681506,-9.998186,1.2497733
6.259022,4.839752,-0.060418434,-0.14321138,-0.12656625,0.30166942,-9.974244,1.283292
6.25874,4.8397026,-0.060418434,-0.14321138,-0.12656625,0.30166942,-9.974244,1.283292
6.258472,4.839617,-0.052961584,-0.14321138,-0.11697886,0.31603462,-9.998186,1.2641385
6.2582045,4.8395314,-0.052961584,-0.14321138,-0.11697886,0.31603462,-9.998186,1.2641385
6.257958,4.839435,-0.045504734,-0.14214613,-0.106326215,0.32561144,-10.036493,1.2545617
6.2577114,4.839339,-0.045504734,-0.14214613,-0.106326215,0.32561144,-10.036493,1.2545617
6.257461,4.8393145,-0.03804788,-0.14001559,-0.095673576,0.37349546,-10.055647,1.2976574
6.2572103,4.8392906,-0.03804788,-0.14001559,-0.095673576,0.37349546,-10.055647,1.2976574
6.2569804,4.839291,-0.03059103,-0.14001559,-0.08182514,0.37349546,-10.093954,1.316811
6.2567506,4.8392925,-0.03059103,-0.14001559,-0.08182514,0.37349546,-10.093954,1.316811
6.256588,4.8391857,-0.022068914,-0.1368198,-0.06584617,0.320823,-10.0987425,1.2354081
6.256419,4.8390737,-0.022068914,-0.1368198,-0.06584617,0.320823,-10.0987425,1.2354081
6.2562227,4.839074,-0.012481534,-0.13149348,-0.048801936,0.35434186,-10.0748005,1.292869
6.2560196,4.839075,-0.012481534,-0.13149348,-0.048801936,0.35434186,-10.0748005,1.292869
6.2558374,4.839057,-0.0018288894,-0.12616715,-0.027496647,0.33518824,-10.079589,1.2785037
6.2556553,4.83904,-0.0018288894,-0.12616715,-0.027496647,0.33518824,-10.079589,1.2785037
6.2555056,4.8390074,0.008823755,-0.1187103,-0.006191358,0.36870706,-10.060435,1.2545617
6.2553554,4.838975,0.008823755,-0.1187103,-0.006191358,0.36870706,-10.060435,1.2545617
6.255215,4.838975,0.019476399,-0.108057655,0.011918138,0.4357447,-10.0029745,1.2545617
6.2550755,4.838975,0.019476399,-0.108057655,0.011918138,0.4357447,-10.0029745,1.2545617
6.2549686,4.8389635,0.031194309,-0.09953554,0.03428869,0.41180268,-10.022128,1.2354081
6.254862,4.8389516,0.031194309,-0.09953554,0.03428869,0.41180268,-10.022128,1.2354081
6.254766,4.8390017,0.04291222,-0.08888289,0.055593982,0.4357447,-10.0029745,1.283292
6.2546706,4.839051,0.04291222,-0.08888289,0.055593982,0.4357447,-10.0029745,1.283292
6.2545986,4.839112,0.054630127,-0.079295516,0.07796454,0.4213795,-9.935937,1.2737153
6.2545266,4.8391714,0.054630127,-0.079295516,0.07796454,0.4213795,-9.935937,1.2737153
6.2544975,4.8392863,0.06421751,-0.0707734,0.09926982,0.45010993,-9.945514,1.340753
6.2544684,4.8394003,0.06421751,-0.0707734,0.09926982,0.45010993,-9.945514,1.340753
6.2544484,4.839506,0.074870154,-0.059055492,0.120575115,0.4357447,-9.907207,1.3024458
6.254428,4.839611,0.074870154,-0.059055492,0.120575115,0.4357447,-9.907207,1.3024458
6.254432,4.839731,0.08339227,-0.048402846,0.13974987,0.46447513,-9.868899,1.316811
6.2544355,4.8398533,0.08339227,-0.048402846,0.13974987,0.46447513,-9.868899,1.316811
6.2544484,4.83992,0.09084912,-0.036684938,0.15572885,0.49799395,-9.864111,1.2306197
6.2544613,4.8399873,0.09084912,-0.036684938,0.15572885,0.49799395,-9.864111,1.2306197
6.254486,4.840087,0.1004365,-0.026032293,0.16957727,0.49320555,-9.849746,1.2641385
6.2545114,4.840185,0.1004365,-0.026032293,0.16957727,0.49320555,-9.849746,1.2641385
6.254551,4.840283,0.106828086,-0.01324912,0.18236046,0.50757074,-9.830592,1.2497733
6.2545905,4.8403797,0.106828086,-0.01324912,0.18236046,0.50757074,-9.830592,1.2497733
6.254642,4.840477,0.11215441,-0.0015312112,0.19194783,0.50278234,-9.773131,1.2354081
6.2546935,4.8405743,0.11215441,-0.0015312112,0.19194783,0.50278234,-9.773131,1.2354081
6.2547774,4.8406343,0.11641546,0.009121433,0.20046994,0.47884035,-9.773131,1.163582
6.2548614,4.840694,0.11641546,0.009121433,0.20046994,0.47884035,-9.773131,1.163582
6.2549524,4.840761,0.118545994,0.021904606,0.21005733,0.45968673,-9.80665,1.1875241
6.2550435,4.840828,0.118545994,0.021904606,0.21005733,0.45968673,-9.80665,1.1875241
6.255151,4.84089,0.120676525,0.031491987,0.21857944,0.41180268,-9.773131,1.1923125
6.255258,4.8409524,0.120676525,0.031491987,0.21857944,0.41180268,-9.773131,1.1923125
6.255396,4.841001,0.12387232,0.040014103,0.2260363,0.39264908,-9.730036,1.1587936
6.2555337,4.84105,0.12387232,0.040014103,0.2260363,0.39264908,-9.730036,1.1587936
6.2556534,4.8411207,0.1270681,0.046405688,0.23029736,0.37828386,-9.773131,1.2114661
6.2557726,4.8411913,0.1270681,0.046405688,0.23029736,0.37828386,-9.773131,1.2114661
6.255878,4.8412924,0.1270681,0.05173201,0.23562367,0.34955344,-9.734824,1.2449849
6.255984,4.8413925,0.1270681,0.05173201,0.23562367,0.34955344,-9.734824,1.2449849
6.256094,4.841492,0.13026391,0.05599307,0.2377542,0.36391866,-9.701305,1.2354081
6.256204,4.841591,0.13026391,0.05599307,0.2377542,0.36391866,-9.701305,1.2354081
6.256318,4.8416967,0.13452496,0.0581236,0.23881947,0.3878607,-9.701305,1.2306197
6.256428,4.8417974,0.13452496,0.0581236,0.23881947,0.3878607,-9.701305,1.2306197
6.2565355,4.8419533,0.13772075,0.060254127,0.23988473,0.32561144,-9.68694,1.2689269
6.256643,4.8421063,0.13772075,0.060254127,0.23988473,0.32561144,-9.68694,1.2689269
6.2568054,4.842167,0.13878602,0.061319392,0.24201526,0.30166942,-9.667787,1.2210429
6.256967,4.8422284,0.13878602,0.061319392,0.24201526,0.30166942,-9.667787,1.2210429
6.2571545,4.8422785,0.13985129,0.060254127,0.24094999,0.31124622,-9.648633,1.1731589
6.257341,4.842329,0.13985129,0.060254127,0.24094999,0.31124622,-9.648633,1.1731589
6.257503,4.8423896,0.13985129,0.05918886,0.23988473,0.33039984,-9.639056,1.1827357
6.257664,4.84245,0.13985129,0.05918886,0.23988473,0.33039984,-9.639056,1.1827357
6.257857,4.8424997,0.14091654,0.05918886,0.23881947,0.2777274,-9.581595,1.1971009
6.2580476,4.8425493,0.14091654,0.05918886,0.23881947,0.2777274,-9.581595,1.1971009
6.258235,4.842599,0.14091654,0.057058334,0.23562367,0.29209262,-9.605537,1.1731589
6.2584205,4.842649,0.14091654,0.057058334,0.23562367,0.29209262,-9.605537,1.1731589
6.2585783,4.842707,0.13985129,0.054927804,0.23136261,0.32561144,-9.576807,1.163582
6.258735,4.8427653,0.13985129,0.054927804,0.23136261,0.32561144,-9.576807,1.163582
6.258735,4.8427653,0.13985129,0.054927804,0.23136261,0.32561144,-9.576807,1.163582
6.2591243,4.8428497,0.13772075,0.052797277,0.22497103,0.29209262,-9.562442,1.1013328
6.2593184,4.8428993,0.13452496,0.05173201,0.21857944,0.29688102,-9.5385,1.13964
6.2594686,4.8429384,0.13452496,0.05173201,0.21857944,0.29688102,-9.5385,1.13964
6.2596493,4.842972,0.13132916,0.050666746,0.21325313,0.2681506,-9.495404,1.1109096
6.2598352,4.843006,0.13132916,0.050666746,0.21325313,0.2681506,-9.495404,1.1109096
6.2600207,4.8430343,0.12600285,0.049601484,0.204731,0.25378537,-9.495404,1.1204864
6.260205,4.8430624,0.12600285,0.049601484,0.204731,0.25378537,-9.495404,1.1204864
6.260271,4.8432164,0.119611256,0.049601484,0.1930131,0.22505496,-9.461885,1.2449849
6.260329,4.843337,0.119611256,0.049601484,0.1930131,0.22505496,-9.461885,1.2449849
6.260505,4.843351,0.11321967,0.047470953,0.18022992,0.22505496,-9.423578,1.1492168
6.2606792,4.843365,0.11321967,0.047470953,0.18022992,0.22505496,-9.423578,1.1492168
6.260872,4.8433733,0.105762824,0.04427516,0.16851202,0.20111294,-9.437943,1.1779473
6.2610617,4.8433805,0.105762824,0.04427516,0.16851202,0.20111294,-9.437943,1.1779473
6.261302,4.843395,0.0972407,0.04107937,0.15785937,0.19153613,-9.41879,1.2210429
6.2615347,4.843407,0.0972407,0.04107937,0.15785937,0.19153613,-9.41879,1.2210429
6.261784,4.8434277,0.08871859,0.03681831,0.14401093,0.14844051,-9.414001,1.2018893
6.2620316,4.8434467,0.08871859,0.03681831,0.14401093,0.14844051,-9.414001,1.2018893
6.2622504,4.843604,0.07913121,0.032557253,0.13016249,0.1436521,-9.409213,1.292869
6.2624693,4.8437624,0.07913121,0.032557253,0.13016249,0.1436521,-9.409213,1.292869
6.262728,4.8438315,0.06847856,0.028296193,0.11631405,0.095768064,-9.41879,1.2449849
6.2629876,4.8438997,0.06847856,0.028296193,0.11631405,0.095768064,-9.41879,1.2449849
6.2632174,4.8440056,0.05995645,0.022969872,0.102465615,0.12928689,-9.385271,1.2641385
6.2634454,4.84411,0.05995645,0.022969872,0.102465615,0.12928689,-9.385271,1.2641385
6.2636437,4.844226,0.0524996,0.016578285,0.089682445,0.10534488,-9.390059,1.292869
6.263842,4.844342,0.0524996,0.016578285,0.089682445,0.10534488,-9.390059,1.292869
6.264049,4.844428,0.04291222,0.011251962,0.08009506,0.10055647,-9.41879,1.2785037
6.2642565,4.844513,0.04291222,0.011251962,0.08009506,0.10055647,-9.41879,1.2785037
6.2644653,4.844542,0.03545537,0.008056169,0.06944242,0.08619126,-9.437943,1.2497733
6.2646756,4.84457,0.03545537,0.008056169,0.06944242,0.08619126,-9.437943,1.2497733
6.26487,4.8446064,0.025867987,0.003795111,0.055593982,0.07182605,-9.414001,1.2593501
6.265065,4.844642,0.025867987,0.003795111,0.055593982,0.07182605,-9.414001,1.2593501
6.265235,4.8447,0.017345872,-0.00046594674,0.042810805,0.076614454,-9.414001,1.283292
6.265235,4.8447,0.017345872,-0.00046594674,0.042810805,0.076614454,-9.414001,1.283292
6.265575,4.844775,0.008823755,-0.00366174,0.032158162,-0.0047884034,-9.442732,1.2354081
6.2657433,4.8447666,0.008823755,-0.00366174,0.032158162,-0.0047884034,-9.442732,1.2354081
6.2658935,4.8448005,0.00030163955,-0.0068575335,0.020440254,-0.023942016,-9.481039,1.3120226
6.266044,4.8448343,0.00030163955,-0.0068575335,0.020440254,-0.023942016,-9.481039,1.3120226
6.2661924,4.844821,-0.006089947,-0.010053327,0.009787609,0,-9.519346,1.2593501
6.2663403,4.8448067,-0.006089947,-0.010053327,0.009787609,0,-9.519346,1.2593501
6.2664833,4.8447695,-0.0114162695,-0.015379649,0.0033960221,-0.023942016,-9.562442,1.2401965
6.266617,4.8447347,-0.0114162695,-0.015379649,0.0033960221,-0.023942016,-9.562442,1.2401965
6.2667336,4.844764,-0.01674259,-0.020705972,-0.004060829,0.01436521,-9.548077,1.3263878
6.266849,4.8447933,-0.01674259,-0.020705972,-0.004060829,0.01436521,-9.548077,1.3263878
6.266974,4.8447666,-0.022068914,-0.02496703,-0.01151768,-0.038307227,-9.576807,1.2689269
6.267099,4.8447394,-0.022068914,-0.02496703,-0.01151768,-0.038307227,-9.576807,1.2689269
6.2672157,4.844714,-0.025264706,-0.031358615,-0.018974531,-0.062249243,-9.595961,1.2785037
6.2672157,4.844714,-0.0284605,-0.037750203,-0.022170324,-0.02873042,-9.600749,1.2785037
6.2674565,4.8446536,-0.0284605,-0.037750203,-0.022170324,-0.02873042,-9.600749,1.2785037
6.2675614,4.8446274,-0.0284605,-0.037750203,-0.022170324,-0.02873042,-9.600749,1.2785037
6.2676644,4.8446355,-0.031656295,-0.044141788,-0.027496647,-0.07182605,-9.591172,1.3455414
6.267747,4.844642,-0.031656295,-0.044141788,-0.027496647,-0.07182605,-9.591172,1.3455414
6.267854,4.8446145,-0.033786822,-0.050533377,-0.03069244,-0.01436521,-9.643845,1.292869
6.267854,4.8446145,-0.033786822,-0.050533377,-0.03069244,-0.01436521,-9.643845,1.292869
6.267854,4.8446145,-0.033786822,-0.050533377,-0.03069244,-0.01436521,-9.643845,1.292869
6.2681513,4.844535,-0.033786822,-0.0558597,-0.03282297,-0.019153614,-9.639056,1.283292
6.268238,4.844456,-0.033786822,-0.06118602,-0.034953497,-0.05267244,-9.68694,1.2210429
6.2683225,4.84438,-0.033786822,-0.06118602,-0.034953497,-0.05267244,-9.68694,1.2210429
6.268427,4.8443284,-0.034852087,-0.06544708,-0.037084028,0.0047884034,-9.677363,1.2737153
6.2685103,4.8442874,-0.034852087,-0.06544708,-0.037084028,0.0047884034,-9.677363,1.2737153
6.268559,4.844325,-0.032721557,-0.0707734,-0.039214555,0.06703765,-9.677363,1.340753
6.2686076,4.8443627,-0.032721557,-0.0707734,-0.039214555,0.06703765,-9.677363,1.340753
6.268694,4.8443437,-0.032721557,-0.07609972,-0.04241035,0.038307227,-9.691729,1.2976574
6.26878,4.844325,-0.032721557,-0.07609972,-0.04241035,0.038307227,-9.691729,1.2976574
6.268856,4.844329,-0.031656295,-0.079295516,-0.04454088,0.047884032,-9.68694,1.3120226
6.2689304,4.844333,-0.031656295,-0.079295516,-0.04454088,0.047884032,-9.68694,1.3120226
6.268953,4.8443847,-0.0284605,-0.08142605,-0.04773667,0.10055647,-9.662998,1.3215994
6.2689757,4.844436,-0.0284605,-0.08142605,-0.04773667,0.10055647,-9.662998,1.3215994
6.269026,4.844346,-0.0284605,-0.08462184,-0.050932467,0.05746084,-9.667787,1.2401965
6.269077,4.8442574,-0.0284605,-0.08462184,-0.050932467,0.05746084,-9.667787,1.2401965
6.269078,4.8441343,-0.029525764,-0.08781763,-0.05199773,0.076614454,-9.667787,1.1971009
6.269079,4.8440175,-0.029525764,-0.08781763,-0.05199773,0.076614454,-9.667787,1.1971009
6.269146,4.843951,-0.029525764,-0.08994816,-0.05199773,0.10055647,-9.624691,1.2641385
6.269214,4.8438864,-0.029525764,-0.08994816,-0.05199773,0.10055647,-9.624691,1.2641385
6.2692747,4.843904,-0.0284605,-0.091013424,-0.05199773,0.090979666,-9.643845,1.292869
6.2693334,4.8439217,-0.0284605,-0.091013424,-0.05199773,0.090979666,-9.643845,1.292869
6.2693014,4.843796,-0.0284605,-0.09207869,-0.05199773,0.11492168,-9.667787,1.2162545
6.26927,4.843669,-0.0284605,-0.09207869,-0.05199773,0.11492168,-9.667787,1.2162545
6.269182,4.84354,-0.029525764,-0.09207869,-0.05199773,0.15801731,-9.629479,1.1779473
6.269095,4.8434114,-0.029525764,-0.09207869,-0.05199773,0.15801731,-9.629479,1.1779473
6.269076,4.8434753,-0.029525764,-0.09207869,-0.050932467,0.12449849,-9.667787,1.3024458
6.2690578,4.8435383,-0.029525764,-0.09207869,-0.050932467,0.12449849,-9.667787,1.3024458
6.268905,4.8434343,-0.0284605,-0.091013424,-0.048801936,0.17238252,-9.653421,1.2449849
6.2687526,4.8433294,-0.0284605,-0.091013424,-0.048801936,0.17238252,-9.653421,1.2449849
6.268602,4.843375,-0.0284605,-0.08888289,-0.04773667,0.18195933,-9.629479,1.3024458
6.268452,4.843421,-0.0284605,-0.08888289,-0.04773667,0.18195933,-9.629479,1.3024458
6.2682633,4.84336,-0.027395237,-0.08781763,-0.045606144,0.19153613,-9.682152,1.2641385
6.268074,4.843299,-0.027395237,-0.08781763,-0.045606144,0.19153613,-9.682152,1.2641385
6.26789,4.843304,-0.027395237,-0.0856871,-0.041345086,0.19632454,-9.725247,1.292869
6.267707,4.8433104,-0.027395237,-0.0856871,-0.041345086,0.19632454,-9.725247,1.292869
6.2675385,4.843334,-0.027395237,-0.08249131,-0.039214555,0.20590134,-9.782708,1.3120226
6.267371,4.84336,-0.027395237,-0.08249131,-0.039214555,0.20590134,-9.782708,1.3120226
6.267236,4.8432555,-0.026329972,-0.08036078,-0.034953497,0.22505496,-9.758766,1.2258313
6.2671013,4.8431516,-0.026329972,-0.08036078,-0.034953497,0.22505496,-9.758766,1.2258313
6.2669454,4.84318,-0.025264706,-0.077164985,-0.029627176,0.20590134,-9.80665,1.3120226
6.2667904,4.84321,-0.025264706,-0.077164985,-0.029627176,0.20590134,-9.80665,1.3120226
6.2666173,4.8432026,-0.021003649,-0.07290393,-0.025366118,0.22026655,-9.77792,1.292869
6.266444,4.843196,-0.021003649,-0.07290393,-0.025366118,0.22026655,-9.77792,1.292869
6.266436,4.8432746,-0.018873122,-0.06970814,-0.018974531,0.15801731,-9.773131,1.3215994
6.2664285,4.843353,-0.018873122,-0.06970814,-0.018974531,0.15801731,-9.773131,1.3215994
6.26627,4.843357,-0.01674259,-0.066512346,-0.012582945,0.22505496,-9.77792,1.2976574
6.2661066,4.843362,-0.01674259,-0.066512346,-0.012582945,0.22505496,-9.77792,1.2976574
6.2660923,4.8432508,-0.012481534,-0.06331655,-0.008321887,0.16759412,-9.758766,1.2593501
6.2660785,4.8431387,-0.012481534,-0.06331655,-0.008321887,0.16759412,-9.758766,1.2593501
6.265932,4.84314,-0.0071552116,-0.06118602,-0.0008650357,0.22026655,-9.730036,1.283292
6.2657843,4.8431425,-0.0071552116,-0.06118602,-0.0008650357,0.22026655,-9.730036,1.283292
6.2656455,4.843155,-0.0028941538,-0.0558597,0.0065918155,0.21068975,-9.758766,1.2880806
6.265507,4.843168,-0.0028941538,-0.0558597,0.0065918155,0.21068975,-9.758766,1.2880806
6.26545,4.8430796,0.00030163955,-0.051598642,0.015113931,0.19632454,-9.706094,1.2449849
6.265393,4.842991,0.00030163955,-0.051598642,0.015113931,0.19632454,-9.706094,1.2449849
6.2654867,4.8430753,0.0024321685,-0.047337584,0.023636047,0.1436521,-9.667787,1.3024458
6.2655807,4.8431597,0.0024321685,-0.047337584,0.023636047,0.1436521,-9.667787,1.3024458
