Pitch,Roll,Gyro_X,Gyro_Y,Gyro_Z,Accel_X,Accel_Y,Accel_Z
6.037917,4.5638084,-0.042308938,0.040014103,0.056659244,2.542642,-9.414001,-1.484405
6.037836,4.563735,-0.034852087,0.035753045,0.052398186,2.5617957,-9.3661175,-1.4700398
6.037758,4.5636654,-0.034852087,0.035753045,0.052398186,2.5617957,-9.3661175,-1.4700398
6.037661,4.563634,-0.0284605,0.033622514,0.04813713,2.60968,-9.3182335,-1.4173675
6.0375643,4.5636034,-0.0284605,0.033622514,0.04813713,2.60968,-9.3182335,-1.4173675
6.037469,4.563565,-0.021003649,0.031491987,0.0460066,2.633622,-9.303867,-1.4460979
6.0373735,4.5635266,-0.021003649,0.031491987,0.0460066,2.633622,-9.303867,-1.4460979
6.037276,4.563498,-0.0114162695,0.030426722,0.04387607,2.6048915,-9.313444,-1.4413095
6.037179,4.5634694,-0.0114162695,0.030426722,0.04387607,2.6048915,-9.313444,-1.4413095
6.0370755,4.563472,-0.0039594183,0.028296193,0.041745543,2.60968,-9.299079,-1.3982137
6.036974,4.5634747,-0.0039594183,0.028296193,0.041745543,2.60968,-9.299079,-1.3982137
6.0368676,4.563488,0.001366904,0.0251004,0.037484486,2.633622,-9.303867,-1.388637
6.0367603,4.5635004,0.001366904,0.0251004,0.037484486,2.633622,-9.303867,-1.388637
6.036656,4.5635448,0.0066932263,0.0251004,0.032158162,2.6192567,-9.32781,-1.3455414
6.0365577,4.563586,0.0066932263,0.0251004,0.032158162,2.6192567,-9.32781,-1.3455414
6.0364428,4.5635896,0.012019549,0.024035135,0.027897105,2.6144683,-9.313444,-1.4221559
6.036321,4.563593,0.012019549,0.024035135,0.027897105,2.6144683,-9.313444,-1.4221559
6.0362067,4.5636244,0.016280606,0.024035135,0.02683184,2.6384103,-9.332599,-1.3838485
6.0360913,4.563656,0.016280606,0.024035135,0.02683184,2.6384103,-9.332599,-1.3838485
6.0359735,4.5637,0.020541664,0.021904606,0.023636047,2.5761611,-9.356541,-1.3790601
6.0358562,4.5637445,0.020541664,0.021904606,0.023636047,2.5761611,-9.356541,-1.3790601
6.035738,4.563803,0.025867987,0.020839343,0.018309724,2.585738,-9.3421755,-1.3599066
6.0356193,4.5638623,0.025867987,0.020839343,0.018309724,2.585738,-9.3421755,-1.3599066
6.0354915,4.5639143,0.030129045,0.020839343,0.014048667,2.6623523,-9.380483,-1.3742718
6.035363,4.5639668,0.030129045,0.020839343,0.014048667,2.6623523,-9.380483,-1.3742718
6.0352087,4.5640283,0.03545537,0.020839343,0.012983402,2.585738,-9.375694,-1.388637
6.035105,4.5640693,0.03545537,0.020839343,0.012983402,2.585738,-9.375694,-1.388637
6.0349746,4.5641017,0.039716423,0.019774077,0.010852873,2.6048915,-9.332599,-1.412579
6.0348434,4.564134,0.039716423,0.019774077,0.010852873,2.6048915,-9.332599,-1.412579
6.0347114,4.564162,0.043977484,0.019774077,0.00765708,2.6431987,-9.3421755,-1.4317327
6.034579,4.564189,0.043977484,0.019774077,0.00765708,2.6431987,-9.3421755,-1.4317327
6.034447,4.564277,0.047173277,0.019774077,0.0044612866,2.6384103,-9.303867,-1.3263878
6.0343204,4.564362,0.047173277,0.019774077,0.0044612866,2.6384103,-9.303867,-1.3263878
6.034191,4.5644565,0.05036907,0.018708814,0.0012654932,2.6001031,-9.284714,-1.3215994
6.0340624,4.56455,0.05036907,0.018708814,0.0012654932,2.6001031,-9.284714,-1.3215994
6.033952,4.5646734,0.054630127,0.018708814,-0.0019303001,2.60968,-9.313444,-1.2593501
6.033842,4.5647974,0.054630127,0.018708814,-0.0019303001,2.60968,-9.313444,-1.2593501
6.0337152,4.56491,0.05995645,0.017643549,-0.004060829,2.6384103,-9.303867,-1.2880806
6.033588,4.5650234,0.05995645,0.017643549,-0.004060829,2.6384103,-9.303867,-1.2880806
6.0334783,4.5651584,0.062086977,0.019774077,-0.006191358,2.6384103,-9.284714,-1.2162545
6.0333686,4.5652933,0.062086977,0.019774077,-0.006191358,2.6384103,-9.284714,-1.2162545
6.0332637,4.5654335,0.06315224,0.020839343,-0.006191358,2.6288335,-9.251195,-1.1923125
6.0331583,4.565574,0.06315224,0.020839343,-0.006191358,2.6288335,-9.251195,-1.1923125
6.033046,4.56571,0.06421751,0.021904606,-0.0072566224,2.6192567,-9.294291,-1.2354081
6.032932,4.565847,0.06421751,0.021904606,-0.0072566224,2.6192567,-9.294291,-1.2354081
6.032845,4.5660024,0.06634804,0.022969872,-0.008321887,2.5761611,-9.289502,-1.1779473
6.032757,4.5661592,0.06634804,0.022969872,-0.008321887,2.5761611,-9.289502,-1.1779473
6.0326524,4.5663033,0.06528277,0.022969872,-0.0072566224,2.6240451,-9.284714,-1.1971009
6.0325484,4.5664463,0.06528277,0.022969872,-0.0072566224,2.6240451,-9.284714,-1.1971009
6.032442,4.566588,0.06315224,0.022969872,-0.008321887,2.6001031,-9.251195,-1.2066777
6.032335,4.5667286,0.06315224,0.022969872,-0.008321887,2.6001031,-9.251195,-1.2066777
6.032241,4.566875,0.061021715,0.021904606,-0.0072566224,2.585738,-9.260772,-1.1827357
6.032147,4.5670214,0.061021715,0.021904606,-0.0072566224,2.585738,-9.260772,-1.1827357
6.0320554,4.567165,0.05782592,0.020839343,-0.006191358,2.5905263,-9.251195,-1.1683705
6.031964,4.567309,0.05782592,0.020839343,-0.006191358,2.5905263,-9.251195,-1.1683705
6.031874,4.567449,0.054630127,0.017643549,-0.006191358,2.585738,-9.26556,-1.1731589
6.0317845,4.567589,0.054630127,0.017643549,-0.006191358,2.585738,-9.26556,-1.1731589
6.031734,4.567741,0.0524996,0.01551302,-0.004060829,2.5570073,-9.303867,-1.043872
6.031683,4.567893,0.0524996,0.01551302,-0.004060829,2.5570073,-9.303867,-1.043872
6.031607,4.5680776,0.049303804,0.014447756,-0.0029955646,2.5761611,-9.299079,-1.0773908
6.0315614,4.5681887,0.049303804,0.014447756,-0.0029955646,2.5761611,-9.299079,-1.0773908
6.0315056,4.568363,0.049303804,0.013382491,-0.0008650357,2.552219,-9.308656,-1.0582372
6.031467,4.568484,0.049303804,0.013382491,-0.0008650357,2.552219,-9.308656,-1.0582372
6.03141,4.5686283,0.04823854,0.012317227,0.00020022877,2.566584,-9.337387,-1.115698
6.03141,4.5686283,0.04823854,0.012317227,0.00020022877,2.566584,-9.337387,-1.115698
6.0312753,4.5689807,0.04610801,0.012317227,0.0033960221,2.5474305,-9.380483,-1.1061212
6.0312495,4.569071,0.04610801,0.012317227,0.0033960221,2.5474305,-9.380483,-1.1061212
6.0312495,4.569071,0.04610801,0.012317227,0.0033960221,2.5474305,-9.380483,-1.1061212
6.0312195,4.569388,0.041846953,0.012317227,0.005526551,2.4995465,-9.409213,-1.0007763
6.031213,4.569527,0.037585896,0.012317227,0.00765708,2.4756045,-9.409213,-1.0534488
6.031208,4.569634,0.037585896,0.012317227,0.00765708,2.4756045,-9.409213,-1.0534488
6.031191,4.5697737,0.03545537,0.011251962,0.008722344,2.4947581,-9.385271,-1.1013328
6.0311737,4.5699124,0.03545537,0.011251962,0.008722344,2.4947581,-9.385271,-1.1013328
6.0311375,4.570041,0.031194309,0.010186698,0.009787609,2.5330653,-9.404425,-1.1587936
6.0311007,4.5701723,0.031194309,0.010186698,0.009787609,2.5330653,-9.404425,-1.1587936
6.0310593,4.5702953,0.026933251,0.009121433,0.010852873,2.5761611,-9.390059,-1.0965444
6.031018,4.570419,0.026933251,0.009121433,0.010852873,2.5761611,-9.390059,-1.0965444
6.0309863,4.570539,0.020541664,0.0069909045,0.010852873,2.504335,-9.346964,-1.163582
6.0309544,4.5706577,0.020541664,0.0069909045,0.010852873,2.504335,-9.346964,-1.163582
6.0309196,4.5707703,0.015215342,0.003795111,0.010852873,2.5570073,-9.370906,-1.0821792
6.0308847,4.5708823,0.015215342,0.003795111,0.010852873,2.5570073,-9.370906,-1.0821792
6.0308485,4.5709867,0.00988902,-0.00046594674,0.011918138,2.5474305,-9.313444,-1.0821792
6.0308123,4.5710917,0.00988902,-0.00046594674,0.011918138,2.5474305,-9.313444,-1.0821792
6.0307713,4.5711904,0.0045626974,-0.0015312112,0.009787609,2.542642,-9.32781,-1.115698
6.0307302,4.571289,0.0045626974,-0.0015312112,0.009787609,2.542642,-9.32781,-1.115698
6.03068,4.5713778,-0.0018288894,-0.00366174,0.0065918155,2.5953147,-9.323022,-1.0582372
6.030629,4.571467,-0.0018288894,-0.00366174,0.0065918155,2.5953147,-9.323022,-1.0582372
6.03059,4.571553,-0.008220476,-0.0047270046,0.0044612866,2.5378537,-9.323022,-1.0869676
6.03055,4.57164,-0.008220476,-0.0047270046,0.0044612866,2.5378537,-9.323022,-1.0869676
6.030513,4.5717225,-0.013546798,-0.0047270046,0.00020022877,2.5187001,-9.356541,-1.115698
6.0304756,4.571806,-0.013546798,-0.0047270046,0.00020022877,2.5187001,-9.356541,-1.115698
6.030427,4.571881,-0.018873122,-0.005792269,-0.004060829,2.5091233,-9.346964,-1.1683705
6.030379,4.571956,-0.018873122,-0.005792269,-0.004060829,2.5091233,-9.346964,-1.1683705
6.030328,4.5720277,-0.02313418,-0.0068575335,-0.008321887,2.4995465,-9.346964,-1.1827357
6.0302773,4.5720987,-0.02313418,-0.0068575335,-0.008321887,2.4995465,-9.346964,-1.1827357
6.0302234,4.572165,-0.027395237,-0.007922798,-0.01151768,2.504335,-9.351752,-1.1779473
6.030169,4.572232,-0.027395237,-0.007922798,-0.01151768,2.504335,-9.351752,-1.1779473
6.0300856,4.572284,-0.031656295,-0.010053327,-0.014713474,2.5330653,-9.299079,-1.1827357
6.030003,4.5723367,-0.031656295,-0.010053327,-0.014713474,2.5330653,-9.299079,-1.1827357
6.0299354,4.5723915,-0.034852087,-0.01324912,-0.018974531,2.528277,-9.356541,-1.163582
6.029867,4.5724473,-0.034852087,-0.01324912,-0.018974531,2.528277,-9.356541,-1.163582
6.0297766,4.5724926,-0.03698262,-0.017510178,-0.024300855,2.5474305,-9.270349,-1.1492168
6.029687,4.572538,-0.03698262,-0.017510178,-0.024300855,2.5474305,-9.270349,-1.1492168
6.0295815,4.5725756,-0.03804788,-0.021771235,-0.028561912,2.566584,-9.246407,-1.1540052
6.0294757,4.572613,-0.03804788,-0.021771235,-0.028561912,2.566584,-9.246407,-1.1540052
6.0293565,4.5726423,-0.03804788,-0.026032293,-0.031757705,2.5330653,-9.260772,-1.2162545
6.0292377,4.572672,-0.03804788,-0.026032293,-0.031757705,2.5330653,-9.260772,-1.2162545
6.029118,4.5727043,-0.03698262,-0.030293351,-0.03814929,2.542642,-9.227253,-1.1875241
6.0289984,4.572737,-0.03698262,-0.030293351,-0.03814929,2.542642,-9.227253,-1.1875241
6.0288205,4.5726876,-0.034852087,-0.03455441,-0.043475613,2.5617957,-9.203311,-1.2976574
6.028642,4.572639,-0.034852087,-0.03455441,-0.043475613,2.5617957,-9.203311,-1.2976574
6.028466,4.5726223,-0.032721557,-0.03988073,-0.048801936,2.6001031,-9.23683,-1.2641385
6.0282903,4.5726066,-0.032721557,-0.03988073,-0.048801936,2.6001031,-9.23683,-1.2641385
6.028107,4.572551,-0.03059103,-0.047337584,-0.050932467,2.5905263,-9.23683,-1.3120226
6.0279236,4.5724945,-0.03059103,-0.047337584,-0.050932467,2.5905263,-9.23683,-1.3120226
6.027738,4.5724525,-0.029525764,-0.05372917,-0.05412826,2.60968,-9.179369,-1.2880806
6.027552,4.5724115,-0.029525764,-0.05372917,-0.05412826,2.60968,-9.179369,-1.2880806
6.027367,4.5723453,-0.027395237,-0.05692496,-0.056258786,2.5953147,-9.155427,-1.316811
6.0271816,4.572279,-0.027395237,-0.05692496,-0.056258786,2.5953147,-9.155427,-1.316811
6.0269923,4.5722375,-0.025264706,-0.06118602,-0.058389317,2.60968,-9.150639,-1.2880806
6.0268035,4.5721965,-0.025264706,-0.06118602,-0.058389317,2.60968,-9.150639,-1.2880806
6.0266185,4.572132,-0.019938385,-0.066512346,-0.058389317,2.6431987,-9.165004,-1.3311762
6.026433,4.5720673,-0.019938385,-0.066512346,-0.058389317,2.6431987,-9.165004,-1.3311762
6.0262446,4.572045,-0.01674259,-0.06970814,-0.059454583,2.681506,-9.136273,-1.2641385
6.026058,4.572023,-0.01674259,-0.06970814,-0.059454583,2.681506,-9.136273,-1.2641385
6.0258656,4.5719705,-0.013546798,-0.07290393,-0.060519844,2.6767175,-9.155427,-1.3215994
6.0256715,4.5719175,-0.013546798,-0.07290393,-0.060519844,2.6767175,-9.155427,-1.3215994
6.0254865,4.5718927,-0.009285741,-0.077164985,-0.060519844,2.681506,-9.093178,-1.2737153
6.0252995,4.5718684,-0.009285741,-0.077164985,-0.060519844,2.681506,-9.093178,-1.2737153
6.025119,4.5718503,-0.0028941538,-0.078230254,-0.059454583,2.6767175,-9.088389,-1.2737153
6.0249324,4.5718317,-0.0028941538,-0.078230254,-0.059454583,2.6767175,-9.088389,-1.2737153
6.0247507,4.571779,0.00030163955,-0.079295516,-0.058389317,2.6719291,-9.11712,-1.340753
6.0245676,4.571725,0.00030163955,-0.079295516,-0.058389317,2.6719291,-9.11712,-1.340753
6.024385,4.571708,0.0045626974,-0.079295516,-0.05519352,2.6623523,-9.14585,-1.292869
6.0242004,4.5716915,0.0045626974,-0.079295516,-0.05519352,2.6623523,-9.14585,-1.292869
6.0240355,4.571624,0.0066932263,-0.079295516,-0.05412826,2.6384103,-9.126697,-1.3694834
6.0238695,4.5715556,0.0066932263,-0.079295516,-0.05412826,2.6384103,-9.126697,-1.3694834
6.0237007,4.5715046,0.00988902,-0.079295516,-0.048801936,2.6479871,-9.150639,-1.3503298
6.0235324,4.5714545,0.00988902,-0.079295516,-0.048801936,2.6479871,-9.150639,-1.3503298
6.023415,4.5713606,0.013084813,-0.078230254,-0.04454088,2.6479871,-9.141062,-1.4748282
6.0232973,4.571267,0.013084813,-0.078230254,-0.04454088,2.6479871,-9.141062,-1.4748282
6.023189,4.5711718,0.0141500775,-0.077164985,-0.041345086,2.585738,-9.136273,-1.4317327
6.023081,4.5710764,0.0141500775,-0.077164985,-0.041345086,2.585738,-9.136273,-1.4317327
6.0229754,4.570983,0.013084813,-0.07609972,-0.034953497,2.5570073,-9.160215,-1.3934253
6.02287,4.570889,0.013084813,-0.07609972,-0.034953497,2.5570073,-9.160215,-1.3934253
6.0227695,4.570796,0.013084813,-0.07290393,-0.028561912,2.5713725,-9.141062,-1.4077905
6.0226693,4.5707035,0.013084813,-0.07290393,-0.028561912,2.5713725,-9.141062,-1.4077905
6.0225964,4.570603,0.013084813,-0.0707734,-0.02110506,2.5761611,-9.160215,-1.4556746
6.022524,4.5705028,0.013084813,-0.0707734,-0.02110506,2.5761611,-9.160215,-1.4556746
6.0224423,4.5704055,0.010954284,-0.06970814,-0.015778739,2.6288335,-9.193734,-1.4748282
6.0223613,4.5703087,0.010954284,-0.06970814,-0.015778739,2.6288335,-9.193734,-1.4748282
6.022272,4.5702157,0.008823755,-0.066512346,-0.012582945,2.6719291,-9.121908,-1.4939818
6.0221834,4.5701222,0.008823755,-0.066512346,-0.012582945,2.6719291,-9.121908,-1.4939818
6.022121,4.570018,0.0066932263,-0.062251285,-0.010452416,2.633622,-9.141062,-1.541866
6.0220585,4.5699124,0.0066932263,-0.062251285,-0.010452416,2.633622,-9.141062,-1.541866
6.0220017,4.5698047,0.0045626974,-0.057990227,-0.010452416,2.60968,-9.097966,-1.5466543
6.021945,4.5696955,0.0045626974,-0.057990227,-0.010452416,2.60968,-9.097966,-1.5466543
6.021873,4.56959,0.001366904,-0.054794434,-0.009387151,2.6862943,-8.99741,-1.5945383
6.0218015,4.569485,0.001366904,-0.054794434,-0.009387151,2.6862943,-8.99741,-1.5945383
6.0217266,4.5693808,0.00030163955,-0.050533377,-0.010452416,2.6431987,-9.016563,-1.532289
6.021652,4.569278,0.00030163955,-0.050533377,-0.010452416,2.6431987,-9.016563,-1.532289
6.0215797,4.5691686,-0.0018288894,-0.047337584,-0.01151768,2.6719291,-8.992621,-1.5945383
6.021508,4.5690613,-0.0018288894,-0.047337584,-0.01151768,2.6719291,-8.992621,-1.5945383
6.0214305,4.5689545,-0.0028941538,-0.043076526,-0.014713474,2.6910827,-8.968679,-1.6089035
6.0213523,4.568847,-0.0028941538,-0.043076526,-0.014713474,2.6910827,-8.968679,-1.6089035
6.0212674,4.5687413,-0.0039594183,-0.03988073,-0.020039797,2.719813,-8.963891,-1.6328455
6.0211816,4.568635,-0.0039594183,-0.03988073,-0.020039797,2.719813,-8.963891,-1.6328455
6.0210896,4.56853,-0.0028941538,-0.035619672,-0.026431382,2.7102363,-8.935161,-1.6280571
6.020997,4.5684247,-0.0028941538,-0.035619672,-0.026431382,2.7102363,-8.935161,-1.6280571
6.020892,4.5683246,-0.0018288894,-0.03242388,-0.031757705,2.7341783,-8.944737,-1.6136919
6.0207877,4.5682244,-0.0018288894,-0.03242388,-0.031757705,2.7341783,-8.944737,-1.6136919
6.020679,4.568123,-0.0018288894,-0.030293351,-0.039214555,2.7150247,-8.954314,-1.6136919
6.0205708,4.568021,-0.0018288894,-0.030293351,-0.039214555,2.7150247,-8.954314,-1.6136919
6.0204616,4.5679183,-0.0007636249,-0.027097559,-0.045606144,2.72939,-9.002198,-1.6567876
6.020352,4.5678153,-0.0007636249,-0.027097559,-0.045606144,2.72939,-9.002198,-1.6567876
6.020233,4.5677176,0.0024321685,-0.02496703,-0.050932467,2.7006595,-9.040505,-1.5945383
6.020115,4.5676203,0.0024321685,-0.02496703,-0.050932467,2.7006595,-9.040505,-1.5945383
6.0199986,4.5675244,0.0066932263,-0.02496703,-0.058389317,2.6479871,-9.093178,-1.5562311
6.019881,4.5674276,0.0066932263,-0.02496703,-0.058389317,2.6479871,-9.093178,-1.5562311
6.0197463,4.567342,0.012019549,-0.026032293,-0.06371564,2.6431987,-9.121908,-1.4987702
6.019611,4.567255,0.012019549,-0.026032293,-0.06371564,2.6431987,-9.121908,-1.4987702
6.0194445,4.5671916,0.017345872,-0.027097559,-0.06691143,2.719813,-9.102755,-1.4796166
6.019276,4.567127,0.017345872,-0.027097559,-0.06691143,2.719813,-9.102755,-1.4796166
6.0190954,4.567082,0.024802722,-0.028162822,-0.07010722,2.7485435,-9.136273,-1.4556746
6.0189123,4.5670366,0.024802722,-0.028162822,-0.07010722,2.7485435,-9.136273,-1.4556746
6.0187125,4.5670185,0.032259572,-0.030293351,-0.07436828,2.7581203,-9.093178,-1.4077905
6.0185103,4.566999,0.032259572,-0.030293351,-0.07436828,2.7581203,-9.093178,-1.4077905
6.018314,4.5669804,0.040781688,-0.03242388,-0.077564076,2.8395233,-9.121908,-1.4556746
6.0181155,4.5669613,0.040781688,-0.03242388,-0.077564076,2.8395233,-9.121908,-1.4556746
6.0179243,4.5669374,0.049303804,-0.03242388,-0.08075987,2.825158,-9.11712,-1.4939818
6.0177298,4.5669127,0.049303804,-0.03242388,-0.08075987,2.825158,-9.11712,-1.4939818
6.0175276,4.5669107,0.056760654,-0.03455441,-0.08395566,2.815581,-9.141062,-1.4413095
6.0173225,4.566909,0.056760654,-0.03455441,-0.08395566,2.815581,-9.141062,-1.4413095
6.017118,4.5669093,0.06634804,-0.03455441,-0.08715145,2.7964275,-9.14585,-1.4508862
6.0169144,4.56691,0.06634804,-0.03455441,-0.08715145,2.7964275,-9.14585,-1.4508862
6.016708,4.5669193,0.074870154,-0.035619672,-0.08928198,2.7964275,-9.093178,-1.4460979
6.0165014,4.566929,0.074870154,-0.035619672,-0.08928198,2.7964275,-9.093178,-1.4460979
6.016291,4.5669537,0.08552279,-0.03881547,-0.08928198,2.8491,-9.088389,-1.4460979
6.0160813,4.5669785,0.08552279,-0.03881547,-0.08928198,2.8491,-9.088389,-1.4460979
6.015857,4.5670557,0.0972407,-0.043076526,-0.091412514,2.8203697,-9.126697,-1.3455414
6.015633,4.567133,0.0972407,-0.043076526,-0.091412514,2.8203697,-9.126697,-1.3455414
6.0154095,4.567202,0.11002388,-0.047337584,-0.09460831,2.8778305,-9.131485,-1.3934253
6.0151854,4.5672708,0.11002388,-0.047337584,-0.09460831,2.8778305,-9.131485,-1.3934253
6.0149574,4.5673614,0.12174179,-0.050533377,-0.09673884,2.906561,-9.14585,-1.3694834
6.01473,4.567452,0.12174179,-0.050533377,-0.09673884,2.906561,-9.14585,-1.3694834
6.014503,4.5675383,0.13452496,-0.05372917,-0.09993463,2.9400797,-9.121908,-1.412579
6.014276,4.567625,0.13452496,-0.05372917,-0.09993463,2.9400797,-9.121908,-1.412579
6.0140486,4.5677214,0.1483734,-0.05692496,-0.10206516,2.992752,-9.136273,-1.4317327
6.0138216,4.5678177,0.1483734,-0.05692496,-0.10206516,2.992752,-9.136273,-1.4317327
6.0135875,4.5679398,0.16222183,-0.060120758,-0.10206516,2.96881,-9.155427,-1.3934253
6.013353,4.568062,0.16222183,-0.060120758,-0.10206516,2.96881,-9.155427,-1.3934253
6.0131183,4.5681925,0.17287448,-0.062251285,-0.10526095,2.9592333,-9.184157,-1.3934253
6.01289,4.568319,0.17287448,-0.062251285,-0.10526095,2.9592333,-9.184157,-1.3934253
6.0126557,4.5684767,0.1845924,-0.06544708,-0.106326215,2.906561,-9.227253,-1.3455414
6.012383,4.5686603,0.1845924,-0.06544708,-0.106326215,2.906561,-9.227253,-1.3455414
6.012181,4.568779,0.1963103,-0.06970814,-0.108456746,2.8538885,-9.251195,-1.4077905
6.012181,4.568779,0.1963103,-0.06970814,-0.108456746,2.8538885,-9.251195,-1.4077905
6.012181,4.568779,0.1963103,-0.06970814,-0.108456746,2.8538885,-9.251195,-1.4077905
6.011385,4.5692534,0.20696294,-0.07396919,-0.108456746,2.801216,-9.284714,-1.3599066
6.0112658,4.569342,0.21655032,-0.078230254,-0.108456746,2.7868507,-9.308656,-1.3599066
6.011032,4.5695143,0.21655032,-0.078230254,-0.108456746,2.7868507,-9.308656,-1.3599066
6.010801,4.569684,0.2261377,-0.08355658,-0.10952201,2.777274,-9.3182335,-1.3694834
6.0105705,4.569852,0.2261377,-0.08355658,-0.10952201,2.777274,-9.3182335,-1.3694834
6.0105705,4.569852,0.2261377,-0.08355658,-0.10952201,2.777274,-9.3182335,-1.3694834
6.0105705,4.569852,0.2261377,-0.08355658,-0.10952201,2.777274,-9.3182335,-1.3694834
6.009816,4.5704694,0.24211667,-0.08675237,-0.10526095,2.777274,-9.323022,-1.364695
6.0095787,4.570658,0.24211667,-0.08675237,-0.10526095,2.777274,-9.323022,-1.364695
6.009445,4.5707617,0.24637774,-0.08781763,-0.10206516,2.801216,-9.32781,-1.3982137
6.0092387,4.570921,0.24637774,-0.08781763,-0.10206516,2.801216,-9.32781,-1.3982137
6.0090194,4.571106,0.24850826,-0.08675237,-0.09993463,2.7246015,-9.3661175,-1.3503298
6.0088034,4.5712852,0.24850826,-0.08675237,-0.09993463,2.7246015,-9.3661175,-1.3503298
6.00861,4.5714393,0.24744299,-0.0856871,-0.095673576,2.7150247,-9.361329,-1.3599066
6.0084224,4.571588,0.24744299,-0.0856871,-0.095673576,2.7150247,-9.361329,-1.3599066
6.008328,4.5717034,0.24531247,-0.08249131,-0.092477776,2.7006595,-9.390059,-1.4748282
6.0082345,4.5718184,0.24531247,-0.08249131,-0.092477776,2.7006595,-9.390059,-1.4748282
6.0081162,4.5719323,0.23998614,-0.08036078,-0.08821672,2.7485435,-9.356541,-1.4939818
6.007999,4.5720463,0.23998614,-0.08036078,-0.08821672,2.7485435,-9.356541,-1.4939818
6.007923,4.5721493,0.2325293,-0.079295516,-0.08715145,2.6910827,-9.399636,-1.5466543
6.0078473,4.572252,0.2325293,-0.079295516,-0.08715145,2.6910827,-9.399636,-1.5466543
6.0077596,4.572346,0.22400717,-0.077164985,-0.08608619,2.7102363,-9.323022,-1.5897499
6.0076714,4.572441,0.22400717,-0.077164985,-0.08608619,2.7102363,-9.323022,-1.5897499
6.0075808,4.572526,0.21335453,-0.07503446,-0.08608619,2.7341783,-9.303867,-1.6903064
6.0074897,4.572611,0.21335453,-0.07503446,-0.08608619,2.7341783,-9.303867,-1.6903064
6.007394,4.5726843,0.20163663,-0.07290393,-0.08715145,2.753332,-9.270349,-1.7429788
6.0072985,4.572758,0.20163663,-0.07290393,-0.08715145,2.753332,-9.270349,-1.7429788
6.0071893,4.5728197,0.18778819,-0.0707734,-0.08928198,2.8107927,-9.203311,-1.7956513
6.00708,4.5728807,0.18778819,-0.0707734,-0.08928198,2.8107927,-9.203311,-1.7956513
6.006958,4.5729284,0.17180921,-0.066512346,-0.092477776,2.8682537,-9.155427,-1.8291701
6.0068364,4.572976,0.17180921,-0.066512346,-0.092477776,2.8682537,-9.155427,-1.8291701
6.0067124,4.5730057,0.15263446,-0.060120758,-0.0978041,2.8299465,-9.069236,-1.8387469
6.0065885,4.5730352,0.15263446,-0.060120758,-0.0978041,2.8299465,-9.069236,-1.8387469
6.006467,4.573043,0.13132916,-0.052663904,-0.10099989,2.791639,-8.858546,-1.9967642
6.006352,4.573051,0.13132916,-0.052663904,-0.10099989,2.791639,-8.858546,-1.9967642
6.006258,4.57304,0.11108914,-0.036684938,-0.09993463,2.4995465,-8.537724,-2.5187001
6.00616,4.573029,0.11108914,-0.036684938,-0.09993463,2.4995465,-8.537724,-2.5187001
6.0060735,4.5730023,0.087653324,-0.010053327,-0.091412514,2.4612393,-8.504205,-2.6527755
6.0059867,4.572975,0.087653324,-0.010053327,-0.091412514,2.4612393,-8.504205,-2.6527755
6.005905,4.5729322,0.061021715,0.022969872,-0.07330302,2.585738,-8.552089,-2.528277
6.0058236,4.572889,0.061021715,0.022969872,-0.07330302,2.585738,-8.552089,-2.528277
6.0057254,4.5728307,0.033324838,0.052797277,-0.05412826,2.9783869,-8.647857,-2.3654714
6.0056267,4.5727725,0.033324838,0.052797277,-0.05412826,2.9783869,-8.647857,-2.3654714
6.005528,4.5726986,0.0077584907,0.07516783,-0.037084028,3.145981,-8.781932,-2.303222
6.00543,4.572625,0.0077584907,0.07516783,-0.037084028,3.145981,-8.781932,-2.303222
6.005334,4.5725365,-0.014612063,0.09327733,-0.025366118,3.217807,-8.925584,-2.231396
6.0052385,4.5724483,-0.014612063,0.09327733,-0.025366118,3.217807,-8.925584,-2.231396
6.0051403,4.572348,-0.032721557,0.10925629,-0.016844003,3.2082303,-9.02614,-2.0685902
6.0050445,4.572251,-0.032721557,0.10925629,-0.016844003,3.2082303,-9.02614,-2.0685902
6.004961,4.5721383,-0.048700526,0.1209742,-0.0072566224,3.1364043,-9.232041,-1.9871874
6.0048776,4.5720263,-0.048700526,0.1209742,-0.0072566224,3.1364043,-9.232041,-1.9871874
6.0048003,4.571907,-0.05935317,0.12630053,0.0023307577,3.083732,-9.3421755,-1.8483237
6.004723,4.571788,-0.05935317,0.12630053,0.0023307577,3.083732,-9.3421755,-1.8483237
6.004657,4.571665,-0.06467949,0.12949632,0.014048667,3.0454245,-9.414001,-1.7812861
6.004591,4.571541,-0.06467949,0.12949632,0.014048667,3.0454245,-9.414001,-1.7812861
6.004542,4.571414,-0.07000581,0.12949632,0.031092897,3.0358477,-9.56723,-1.7286136
6.004493,4.5712867,-0.07000581,0.12949632,0.031092897,3.0358477,-9.56723,-1.7286136
6.0044494,4.5711617,-0.07426687,0.12736578,0.052398186,3.0502129,-9.624691,-1.6424223
6.0044055,4.571037,-0.07426687,0.12736578,0.052398186,3.0502129,-9.624691,-1.6424223
6.004388,4.570911,-0.076397404,0.12630053,0.0790298,3.0214825,-9.677363,-1.6041151
6.00437,4.570785,-0.076397404,0.12630053,0.0790298,3.0214825,-9.677363,-1.6041151
6.0043674,4.5706654,-0.07852793,0.12630053,0.106726676,3.0214825,-9.667787,-1.5610195
6.0043635,4.570545,-0.07852793,0.12630053,0.106726676,3.0214825,-9.667787,-1.5610195
6.004407,4.5704184,-0.07852793,0.12523526,0.13761935,2.944868,-9.734824,-1.5275006
6.0044494,4.5702925,-0.07852793,0.12523526,0.13761935,2.944868,-9.734824,-1.5275006
6.004561,4.5701556,-0.07852793,0.12523526,0.17064254,2.873042,-9.720459,-1.5275006
6.004672,4.5700192,-0.07852793,0.12523526,0.17064254,2.873042,-9.720459,-1.5275006
6.004803,4.569891,-0.075332135,0.12630053,0.20366573,2.8538885,-9.715671,-1.4700398
6.004933,4.569762,-0.075332135,0.12630053,0.20366573,2.8538885,-9.715671,-1.4700398
6.005161,4.569634,-0.07107108,0.12843105,0.2377542,2.7964275,-9.725247,-1.5370775
6.0053873,4.5695057,-0.07107108,0.12843105,0.2377542,2.7964275,-9.725247,-1.5370775
6.0057144,4.5694,-0.06574476,0.13056158,0.277169,2.7389667,-9.744401,-1.484405
6.0060396,4.5692935,-0.06574476,0.13056158,0.277169,2.7389667,-9.744401,-1.484405
6.006436,4.569216,-0.057222642,0.13162684,0.31658378,2.6910827,-9.854534,-1.5131354
6.0068097,4.5691423,-0.057222642,0.13162684,0.31658378,2.6910827,-9.854534,-1.5131354
6.0072603,4.569093,-0.04763526,0.13162684,0.35386804,2.7724855,-9.902418,-1.4556746
6.007731,4.56904,-0.04763526,0.13162684,0.35386804,2.7724855,-9.902418,-1.4556746
6.008098,4.5689487,-0.039113145,0.12843105,0.38689122,2.8491,-9.974244,-1.5514427
6.008464,4.5688567,-0.039113145,0.12843105,0.38689122,2.8491,-9.974244,-1.5514427
6.008869,4.568776,-0.0284605,0.12310473,0.41671863,2.8682537,-10.084377,-1.5179238
6.0092664,4.568695,-0.0284605,0.12310473,0.41671863,2.8682537,-10.084377,-1.5179238
6.0097966,4.5686684,-0.01674259,0.118843675,0.44228497,2.825158,-10.151415,-1.4987702
6.010328,4.5686374,-0.01674259,0.118843675,0.44228497,2.825158,-10.151415,-1.4987702
6.01087,4.5686126,-0.0050246827,0.11458261,0.4657208,2.753332,-10.247183,-1.5801731
6.011412,4.568586,-0.0050246827,0.11458261,0.4657208,2.753332,-10.247183,-1.5801731
6.0120187,4.568632,0.0077584907,0.10925629,0.48809135,2.6001031,-10.261548,-1.508347
6.0126314,4.568678,0.0077584907,0.10925629,0.48809135,2.6001031,-10.261548,-1.508347
6.0132594,4.5687323,0.020541664,0.09966891,0.5093966,2.4372973,-10.299856,-1.532289
6.0138874,4.5687857,0.020541664,0.09966891,0.5093966,2.4372973,-10.299856,-1.532289
6.0145364,4.5688663,0.032259572,0.08475521,0.5296367,2.255338,-10.25676,-1.4652514
6.0151887,4.568947,0.032259572,0.08475521,0.5296367,2.255338,-10.25676,-1.4652514
6.0158615,4.569043,0.04291222,0.06664571,0.5498767,2.0350714,-10.237606,-1.4030021
6.0165343,4.569139,0.04291222,0.06664571,0.5498767,2.0350714,-10.237606,-1.4030021
6.0172353,4.569249,0.055695392,0.045340426,0.5743778,1.958457,-10.117896,-1.3503298
6.017934,4.569359,0.055695392,0.045340426,0.5743778,1.958457,-10.117896,-1.3503298
6.0186586,4.5694895,0.06847856,0.019774077,0.60100937,2.030283,-10.055647,-1.2737153
6.0193825,4.56962,0.06847856,0.019774077,0.60100937,2.030283,-10.055647,-1.2737153
6.0201087,4.5697947,0.08339227,-0.00366174,0.62977153,2.2649148,-10.012551,-1.1587936
6.0208364,4.5699697,0.08339227,-0.00366174,0.62977153,2.2649148,-10.012551,-1.1587936
6.021549,4.5701857,0.10150176,-0.021771235,0.6564031,2.4851813,-9.945514,-1.1109096
6.0222573,4.570401,0.10150176,-0.021771235,0.6564031,2.4851813,-9.945514,-1.1109096
6.0229197,4.570642,0.12387232,-0.035619672,0.68196946,2.7102363,-9.907207,-1.1492168
6.0235767,4.5708814,0.12387232,-0.035619672,0.68196946,2.7102363,-9.907207,-1.1492168
6.024206,4.5711308,0.14943866,-0.04201126,0.70434004,2.8395233,-9.787497,-1.1683705
6.02483,4.5713778,0.14943866,-0.04201126,0.70434004,2.8395233,-9.787497,-1.1683705
6.025487,4.571662,0.17926607,-0.03881547,0.72458005,2.9113493,-9.801862,-0.9816227
6.026162,4.571954,0.17926607,-0.03881547,0.72458005,2.9113493,-9.801862,-0.9816227
6.026814,4.572261,0.21761559,-0.023901764,0.7480159,3.1842883,-9.816227,-1.0726024
6.02743,4.572551,0.21761559,-0.023901764,0.7480159,3.1842883,-9.816227,-1.0726024
6.028045,4.5728283,0.26342195,-0.005792269,0.7714517,3.3901896,-9.801862,-1.4221559
6.0286684,4.573109,0.26342195,-0.005792269,0.7714517,3.3901896,-9.801862,-1.4221559
6.0293336,4.573397,0.30922833,0.012317227,0.7938222,3.6296098,-9.715671,-1.8100165
6.0299625,4.573669,0.30922833,0.012317227,0.7938222,3.6296098,-9.715671,-1.8100165
6.0306597,4.573987,0.34970838,0.031491987,0.8161928,3.7924154,-9.77792,-2.0973208
6.0313787,4.574315,0.34970838,0.031491987,0.8161928,3.7924154,-9.77792,-2.0973208
6.032096,4.5746765,0.3827316,0.04853622,0.83749807,3.9504328,-9.892841,-2.135628
6.0327992,4.575031,0.3827316,0.04853622,0.83749807,3.9504328,-9.892841,-2.135628
6.0335193,4.5754213,0.40829793,0.062384658,0.85560757,3.9360676,-9.945514,-2.054225
6.03424,4.5758114,0.40829793,0.062384658,0.85560757,3.9360676,-9.945514,-2.054225
6.0349736,4.576231,0.42853796,0.073037304,0.87371707,3.964798,-9.9550905,-1.9919758
6.0357122,4.5766525,0.42853796,0.073037304,0.87371707,3.964798,-9.9550905,-1.9919758
6.0364656,4.577103,0.44664744,0.08475521,0.8939571,3.7732618,-9.892841,-1.8243817
6.0372057,4.577545,0.44664744,0.08475521,0.8939571,3.7732618,-9.892841,-1.8243817
6.0379715,4.578032,0.46582222,0.09860365,0.9237845,3.5003228,-9.749189,-1.5658079
6.0387397,4.578519,0.46582222,0.09860365,0.9237845,3.5003228,-9.749189,-1.5658079
6.0395455,4.5790515,0.49138856,0.11458261,0.96852565,3.2273839,-9.576807,-1.3982137
6.0403514,4.579582,0.49138856,0.11458261,0.96852565,3.2273839,-9.576807,-1.3982137
6.041212,4.580162,0.5265423,0.13482264,1.0271151,2.96881,-9.222465,-1.292869
6.0420737,4.58074,0.5265423,0.13482264,1.0271151,2.96881,-9.222465,-1.292869
6.0430055,4.581376,0.5734139,0.1571932,1.1016836,2.8778305,-8.911219,-1.2306197
6.0439377,4.5820103,0.5734139,0.1571932,1.1016836,2.8778305,-8.911219,-1.2306197
6.044967,4.582677,0.634134,0.17636795,1.1901007,3.0214825,-8.532935,-1.4413095
6.045997,4.5833435,0.634134,0.17636795,1.1901007,3.0214825,-8.532935,-1.4413095
6.0471325,4.584073,0.706572,0.19021639,1.288105,3.241749,-8.317456,-1.6807296
6.048268,4.5848017,0.706572,0.19021639,1.288105,3.241749,-8.317456,-1.6807296
6.0495095,4.5856133,0.78646684,0.2019343,1.3956966,3.7349546,-8.173804,-1.9728222
6.0507555,4.586426,0.78646684,0.2019343,1.3956966,3.7349546,-8.173804,-1.9728222
6.052102,4.5873256,0.8706227,0.21365221,1.5096799,4.261679,-8.135497,-2.1691468
6.0534534,4.5882273,0.8706227,0.21365221,1.5096799,4.261679,-8.135497,-2.1691468
6.054916,4.5892286,0.9579744,0.22323959,1.6268591,4.620809,-8.173804,-2.1547816
6.056374,4.590225,0.9579744,0.22323959,1.6268591,4.620809,-8.173804,-2.1547816
6.058368,4.591606,1.0463914,0.22963117,1.7451034,4.927267,-8.236053,-2.2457612
6.0595627,4.592432,1.0463914,0.22963117,1.7451034,4.927267,-8.236053,-2.2457612
6.062963,4.594803,1.1326778,0.2349575,1.864413,5.094861,-8.087613,-2.255338
6.062963,4.594803,1.1326778,0.2349575,1.864413,5.094861,-8.087613,-2.255338
6.0647945,4.596074,1.2157683,0.2381533,1.9911795,5.1140146,-7.9343843,-2.2984335
6.066621,4.5973406,1.2157683,0.2381533,1.9911795,5.1140146,-7.9343843,-2.2984335
6.066621,4.5973406,1.2157683,0.2381533,1.9911795,5.1140146,-7.9343843,-2.2984335
6.071471,4.6006646,1.2935327,0.24134909,2.125403,5.12838,-7.5561004,-2.3319526
6.072517,4.601364,1.3627748,0.24028382,2.2692134,5.118803,-7.043741,-2.4516625
6.07461,4.602763,1.3627748,0.24028382,2.2692134,5.118803,-7.043741,-2.4516625
6.0768623,4.6042175,1.4224297,0.23282696,2.4258075,5.2480903,-6.421249,-2.6719291
6.0791264,4.6056767,1.4224297,0.23282696,2.4258075,5.2480903,-6.421249,-2.6719291
6.0815816,4.6071978,1.4724971,0.22323959,2.597315,5.449203,-5.7748146,-2.7820623
6.0839987,4.608692,1.4724971,0.22323959,2.597315,5.449203,-5.7748146,-2.7820623
6.08662,4.6102366,1.5087161,0.21365221,2.782671,5.7365074,-5.2145715,-2.8491
6.08931,4.6118193,1.5087161,0.21365221,2.782671,5.7365074,-5.2145715,-2.8491
6.0920963,4.6133695,1.5342824,0.20299956,2.9776144,5.9280434,-4.711789,-2.9161377
6.0949087,4.6149316,1.5342824,0.20299956,2.9776144,5.9280434,-4.711789,-2.9161377
6.09791,4.616499,1.5438699,0.19447745,3.1789494,6.229713,-4.4101195,-2.9592333
6.100954,4.618086,1.5438699,0.19447745,3.1789494,6.229713,-4.4101195,-2.9592333
6.1041737,4.6196437,1.5310867,0.18489006,3.387741,6.4643445,-4.0653543,-2.992752
6.107391,4.6211977,1.5310867,0.18489006,3.387741,6.4643445,-4.0653543,-2.992752
6.1108627,4.622729,1.4927372,0.17636795,3.6082509,6.555324,-3.8259344,-3.0119057
6.114301,4.624242,1.4927372,0.17636795,3.6082509,6.555324,-3.8259344,-3.0119057
6.1179433,4.625675,1.4234949,0.17210689,3.8383482,6.459556,-3.514688,-2.9879637
6.1216345,4.6271253,1.4234949,0.17210689,3.8383482,6.459556,-3.514688,-2.9879637
6.1255507,4.6284666,1.3222948,0.17210689,4.0780325,6.2632318,-3.2321723,-3.016694
6.129507,4.6298184,1.3222948,0.17210689,4.0780325,6.2632318,-3.2321723,-3.016694
6.1336493,4.6310167,1.1923325,0.17317216,4.3273044,5.913678,-2.8107927,-3.0693667
6.137826,4.632221,1.1923325,0.17317216,4.3273044,5.913678,-2.8107927,-3.0693667
6.1422644,4.633261,1.0293471,0.17956375,4.588294,5.511452,-2.2697031,-2.9975405
6.1467032,4.634299,1.0293471,0.17956375,4.588294,5.511452,-2.2697031,-2.9975405
6.151418,4.635147,0.8407953,0.1870206,4.8641977,4.951209,-1.9057846,-2.767697
6.1561337,4.6359925,0.8407953,0.1870206,4.8641977,4.951209,-1.9057846,-2.767697
6.161131,4.636636,0.634134,0.19341218,5.147558,4.3287168,-1.4796166,-2.2697031
6.1661286,4.6372757,0.634134,0.19341218,5.147558,4.3287168,-1.4796166,-2.2697031
6.171415,4.6377187,0.4242769,0.19128166,5.4383755,3.8307228,-1.1204864,-1.5801731
6.1767015,4.638158,0.4242769,0.19128166,5.4383755,3.8307228,-1.1204864,-1.5801731
6.182315,4.6384096,0.21974611,0.17743322,5.7302575,3.3662477,-0.8858546,-0.92416185
6.187878,4.638655,0.21974611,0.17743322,5.7302575,3.3662477,-0.8858546,-0.92416185
6.1937814,4.6387296,0.02906378,0.14867108,6.02214,2.96881,-0.7422025,-0.29688102
6.1996613,4.6388006,0.02906378,0.14867108,6.02214,2.96881,-0.7422025,-0.29688102
6.205837,4.6387186,-0.139248,0.104995236,6.310827,2.8299465,-0.770933,0.24420857
6.211987,4.6386337,-0.139248,0.104995236,6.310827,2.8299465,-0.770933,0.24420857
6.2184987,4.6384077,-0.28412396,0.049601484,6.5899262,2.7102363,-0.78529817,0.58897364
6.2249784,4.63818,-0.28412396,0.049601484,6.5899262,2.7102363,-0.78529817,0.58897364
6.2316833,4.637831,-0.40769464,-0.018575443,6.8615685,2.4372973,-0.8714894,0.7038953
6.2384357,4.6374764,-0.40769464,-0.018575443,6.8615685,2.4372973,-0.8714894,0.7038953
6.24545,4.6370153,-0.51209056,-0.09740501,7.124689,2.1643584,-0.8858546,0.6847417
6.2524714,4.63655,-0.51209056,-0.09740501,7.124689,2.1643584,-0.8858546,0.6847417
6.2597504,4.63599,-0.6037033,-0.18582197,7.378222,1.8339585,-0.90021986,0.58897364
6.26703,4.6354265,-0.6037033,-0.18582197,7.378222,1.8339585,-0.90021986,0.58897364
6.274563,4.63478,-0.68572867,-0.2806305,7.6264286,1.3982137,-0.81881696,0.46447513
6.282096,4.634131,-0.68572867,-0.2806305,7.6264286,1.3982137,-0.81881696,0.46447513
0.0067056427,4.633413,-0.7624277,-0.38183063,7.87357,0.8810662,-0.6512229,0.4213795
0.014500873,4.6326923,-0.7624277,-0.38183063,7.87357,0.8810662,-0.6512229,0.4213795
0.022616139,4.6319375,-0.83380044,-0.48303074,8.119646,0.047884032,-0.34955344,0.22026655
0.03074662,4.6311793,-0.83380044,-0.48303074,8.119646,0.047884032,-0.34955344,0.22026655
0.03920751,4.630294,-0.90197736,-0.58423084,8.365722,-0.6751649,-0.10534488,0.12449849
0.047685526,4.629405,-0.90197736,-0.58423084,8.365722,-0.6751649,-0.10534488,0.12449849
0.056411862,4.6284556,-0.9680238,-0.6801047,8.613929,-1.3455414,-0.05746084,0.31603462
0.06513847,4.627505,-0.9680238,-0.6801047,8.613929,-1.3455414,-0.05746084,0.31603462
0.074123785,4.6265116,-1.0287439,-0.7706522,8.871722,-1.9440918,-0.4357447,0.79966336
0.08310927,4.625518,-1.0287439,-0.7706522,8.871722,-1.9440918,-0.4357447,0.79966336
0.09235873,4.624482,-1.0873333,-0.84202486,9.134843,-2.777274,-1.4700398,1.5466543
0.10169137,4.6234365,-1.0873333,-0.84202486,9.134843,-2.777274,-1.4700398,1.5466543
0.11120731,4.6223536,-1.1427271,-0.8803744,9.40329,-4.0222588,-3.2082303,2.6288335
0.12136057,4.6211977,-1.1427271,-0.8803744,9.40329,-4.0222588,-3.2082303,2.6288335
0.13069507,4.6201124,-1.1970556,-0.87504804,9.685585,-5.6407394,-5.568913,3.8163576
0.14033274,4.6189914,-1.1970556,-0.87504804,9.685585,-5.6407394,-5.568913,3.8163576
0.15036668,4.617788,-1.2567104,-0.82178485,9.991316,-7.0964136,-8.1642275,4.6255975
0.16052096,4.616567,-1.2567104,-0.82178485,9.991316,-7.0964136,-8.1642275,4.6255975
0.17091604,4.615254,-1.3334094,-0.7205847,10.310895,-8.446744,-10.864887,4.8841715
0.18124737,4.613944,-1.3334094,-0.7205847,10.310895,-8.446744,-10.864887,4.8841715
0.19195941,4.6124816,-1.4367402,-0.57783926,10.636866,-9.763555,-13.393165,4.343082
0.20291632,4.610978,-1.4367402,-0.57783926,10.636866,-9.763555,-13.393165,4.343082
0.21373153,4.609339,-1.581616,-0.40526643,10.961771,-10.496181,-15.442601,3.2609026
0.22469878,4.607666,-1.581616,-0.40526643,10.961771,-10.496181,-15.442601,3.2609026
0.23602094,4.60571,-1.7765595,-0.20499672,11.267503,-11.271901,-16.960526,1.4987702
0.247442,4.6037197,-1.7765595,-0.20499672,11.267503,-11.271901,-16.960526,1.4987702
0.25907707,4.6013765,-2.0311577,0.018708814,11.545536,-12.0332575,-17.970879,-0.4357447
0.2706736,4.599018,-2.0311577,0.018708814,11.545536,-12.0332575,-17.970879,-0.4357447
0.28237754,4.596244,-2.3400843,0.25945857,11.779895,-12.5264635,-18.598158,-2.2888567
0.2942306,4.593404,-2.3400843,0.25945857,11.779895,-12.5264635,-18.598158,-2.2888567
0.30612963,4.590081,-2.6937523,0.5161873,11.96099,-13.077129,-18.708292,-4.1276035
0.31816515,4.5866795,-2.6937523,0.5161873,11.96099,-13.077129,-18.708292,-4.1276035
0.33010972,4.5827713,-3.083639,0.78996027,12.081365,-13.474567,-18.555063,-5.746084
0.34205642,4.578811,-3.083639,0.78996027,12.081365,-13.474567,-18.555063,-5.746084
0.35416698,4.5742145,-3.4895048,1.0722554,12.137823,-13.790602,-18.310854,-6.9479733
0.366036,4.5696464,-3.4895048,1.0722554,12.137823,-13.790602,-18.310854,-6.9479733
0.37792534,4.5644608,-3.89324,1.360942,12.123975,-14.030022,-17.76019,-7.690176
0.38980886,4.5592003,-3.89324,1.360942,12.123975,-14.030022,-17.76019,-7.690176
0.40152523,4.5533614,-4.278866,1.659216,12.02597,-14.039598,-16.821661,-8.350976
0.41323087,4.547437,-4.278866,1.659216,12.02597,-14.039598,-16.821661,-8.350976
0.4246453,4.54097,-4.630403,1.960686,11.834223,-14.121001,-16.97489,-8.829816
0.43605503,4.5344,-4.630403,1.960686,11.834223,-14.121001,-16.97489,-8.829816
0.4471542,4.5273447,-4.915894,2.254699,11.627562,-14.192827,-16.055517,-9.461885
0.45823175,4.5201836,-4.915894,2.254699,11.627562,-14.192827,-16.055517,-9.461885
0.46898627,4.5125885,-5.128947,2.5380592,11.394269,-13.785813,-15.284584,-9.782708
0.47970268,4.504887,-5.128947,2.5380592,11.394269,-13.785813,-15.284584,-9.782708
0.49003512,4.4968243,-5.2684965,2.8139627,11.104517,-13.560759,-14.681245,-10.079589
0.5003239,4.488649,-5.2684965,2.8139627,11.104517,-13.560759,-14.681245,-10.079589
0.5101685,4.4802027,-5.328151,3.0674956,10.756175,-13.2351465,-14.140155,-10.218452
0.5199642,4.4716387,-5.328151,3.0674956,10.756175,-13.2351465,-14.140155,-10.218452
0.5292547,4.4629107,-5.304715,3.2890706,10.342853,-12.832921,-13.340492,-10.232818
0.5384924,4.4540634,-5.304715,3.2890706,10.342853,-12.832921,-13.340492,-10.232818
0.5471705,4.445146,-5.206711,3.4776225,9.874137,-11.626244,-13.077129,-9.9790325
0.5557752,4.4361277,-5.206711,3.4776225,9.874137,-11.626244,-13.077129,-9.9790325
0.5638235,4.4271507,-5.034138,3.6384773,9.362809,-13.484144,-12.5025215,-10.218452
0.5718783,4.4179854,-5.034138,3.6384773,9.362809,-13.484144,-12.5025215,-10.218452
0.57911956,4.409138,-4.7901926,3.7322206,8.788632,-9.993398,-14.231135,-8.269572
0.5863446,4.400131,-4.7901926,3.7322206,8.788632,-9.993398,-14.231135,-8.269572
0.59282625,4.3914657,-4.4567647,3.8067892,8.166517,-8.1642275,-15.255854,-6.933608
0.59924805,4.3827085,-4.4567647,3.8067892,8.166517,-8.1642275,-15.255854,-6.933608
0.6050049,4.374315,-4.0445075,3.931425,7.5380116,-9.763555,-15.38514,-6.8569937
0.6107005,4.3658404,-4.0445075,3.931425,7.5380116,-9.763555,-15.38514,-6.8569937
0.61589164,4.3578033,-3.5683343,4.041147,6.916962,-13.153744,-14.197616,-7.3406224
0.62102735,4.349696,-3.5683343,4.041147,6.916962,-13.153744,-14.197616,-7.3406224
0.62558323,4.342193,-3.06766,4.058192,6.310827,-14.54717,-14.044387,-7.053318
0.6300902,4.334634,-3.06766,4.058192,6.310827,-14.54717,-14.044387,-7.053318
0.6340592,4.3278294,-2.572312,3.9506,5.7132134,-13.263878,-14.848839,-5.741296
0.63797516,4.320998,-2.572312,3.9506,5.7132134,-13.263878,-14.848839,-5.741296
0.6412525,4.3149676,-2.0897472,3.7833533,5.1305137,-11.353305,-15.030798,-4.19943
0.6444973,4.3088894,-2.0897472,3.7833533,5.1305137,-11.353305,-15.030798,-4.19943
0.6472634,4.303528,-1.6242267,3.6171722,4.5563364,-11.583148,-14.810532,-2.834735
0.65000594,4.2981234,-1.6242267,3.6171722,4.5563364,-11.583148,-14.810532,-2.834735
0.65227646,4.2934084,-1.1853377,3.4691005,4.003464,-11.281479,-14.168885,-2.0638018
0.6545256,4.288664,-1.1853377,3.4691005,4.003464,-11.281479,-14.168885,-2.0638018
0.65634316,4.284558,-0.783733,3.330616,3.4655056,-11.535264,-12.938266,-2.0207062
0.6581433,4.2804294,-0.783733,3.330616,3.4655056,-11.535264,-12.938266,-2.0207062
0.65955913,4.2768793,-0.44710943,3.1825442,2.964831,-12.239159,-11.745954,-2.078167
0.66096085,4.2733126,-0.44710943,3.1825442,2.964831,-12.239159,-11.745954,-2.078167
0.662031,4.270254,-0.18611965,3.0057104,2.5142243,-12.315774,-10.548853,-1.7860745
0.66308796,4.2671905,-0.18611965,3.0057104,2.5142243,-12.315774,-10.548853,-1.7860745
0.6638595,4.2645836,-0.0028941538,2.8001144,2.1126196,-12.038046,-9.763555,-1.1875241
0.66462284,4.2619677,-0.0028941538,2.8001144,2.1126196,-12.038046,-9.763555,-1.1875241
0.66514,4.2597437,0.10895862,2.5785394,1.751495,-11.18571,-9.217676,-0.30166942
0.66564965,4.2575183,0.10895862,2.5785394,1.751495,-11.18571,-9.217676,-0.30166942
0.6659478,4.255622,0.16754816,2.355899,1.4255241,-10.218452,-8.863335,0.47405192
0.66624033,4.2537265,0.16754816,2.355899,1.4255241,-10.218452,-8.863335,0.47405192
0.6663483,4.252096,0.18352713,2.1471071,1.1272501,-9.610326,-8.504205,1.0295067
0.66645175,4.250469,0.18352713,2.1471071,1.1272501,-9.610326,-8.504205,1.0295067
0.666391,4.2490654,0.17287448,1.948968,0.85347706,-9.23683,-8.255207,1.6807296
0.66632736,4.2476625,0.17287448,1.948968,0.85347706,-9.23683,-8.255207,1.6807296
0.6661243,4.246465,0.14624287,1.7455025,0.6020746,-8.767567,-7.9870567,1.9967642
0.6659193,4.2452683,0.14624287,1.7455025,0.6020746,-8.767567,-7.9870567,1.9967642
0.6655924,4.244273,0.11215441,1.5313843,0.36452067,-8.312668,-7.8290396,2.4899697
0.66526353,4.243278,0.11215441,1.5313843,0.36452067,-8.312668,-7.8290396,2.4899697
0.6648314,4.24249,0.07806595,1.3055483,0.1386846,-7.929596,-7.728483,2.767697
0.6643988,4.241703,0.07806595,1.3055483,0.1386846,-7.929596,-7.728483,2.767697
0.6643988,4.241703,0.07806595,1.3055483,0.1386846,-7.929596,-7.728483,2.767697
0.6643988,4.241703,0.07806595,1.3055483,0.1386846,-7.929596,-7.728483,2.767697
0.6623326,4.240524,0.03545537,0.804874,-0.27570325,-7.091625,-7.2927384,3.0933087
0.6621862,4.240441,0.03545537,0.804874,-0.27570325,-7.091625,-7.2927384,3.0933087
0.6614478,4.2401314,0.03652063,0.5364273,-0.46745086,-6.5026517,-7.3645644,3.3039982
0.6608108,4.240059,0.03652063,0.5364273,-0.46745086,-6.5026517,-7.3645644,3.3039982
0.66011465,4.2402673,0.056760654,0.26265436,-0.6485458,-6.0621185,-7.225701,3.1651347
0.6594686,4.240461,0.056760654,0.26265436,-0.6485458,-6.0621185,-7.225701,3.1651347
0.6587857,4.2409434,0.09830597,-0.01324912,-0.81898814,-5.7843914,-6.421249,2.743755
0.65809166,4.241433,0.09830597,-0.01324912,-0.81898814,-5.7843914,-6.421249,2.743755
0.6573858,4.242222,0.15369973,-0.28808734,-0.97238624,-5.473145,-5.650316,2.303222
0.6566823,4.243006,0.15369973,-0.28808734,-0.97238624,-5.473145,-5.650316,2.303222
0.65597636,4.244082,0.20909347,-0.55759925,-1.1055443,-4.9416323,-5.2145715,2.0207062
0.655269,4.245157,0.20909347,-0.55759925,-1.1055443,-4.9416323,-5.2145715,2.0207062
0.6545781,4.246488,0.26342195,-0.8132627,-1.213136,-4.2425256,-5.0278234,1.9249382
0.6538795,4.247829,0.26342195,-0.8132627,-1.213136,-4.2425256,-5.0278234,1.9249382
0.6531876,4.249446,0.31988096,-1.0518819,-1.3004876,-3.6391866,-5.0661306,1.8291701
0.6524795,4.251091,0.31988096,-1.0518819,-1.3004876,-3.6391866,-5.0661306,1.8291701
0.65184706,4.252844,0.3827316,-1.2681307,-1.3707951,-3.4141316,-5.142745,1.7669208
0.6511921,4.2546473,0.3827316,-1.2681307,-1.3707951,-3.4141316,-5.142745,1.7669208
0.65057874,4.25668,0.45516956,-1.4694656,-1.4229931,-3.5625722,-4.8985367,1.1923125
0.64996016,4.258714,0.45516956,-1.4694656,-1.4229931,-3.5625722,-4.8985367,1.1923125
0.6494025,4.260964,0.5318686,-1.6580174,-1.4496247,-3.6535518,-4.5441947,0.45968673
0.64884055,4.2632084,0.5318686,-1.6580174,-1.4496247,-3.6535518,-4.5441947,0.45968673
0.64835864,4.2656612,0.6032413,-1.8380471,-1.4485594,-3.667917,-4.223372,-0.110133275
0.64787513,4.268092,0.6032413,-1.8380471,-1.4485594,-3.667917,-4.223372,-0.110133275
0.64747965,4.2707214,0.6660919,-2.007424,-1.4176668,-3.3806129,-3.9983168,-0.641646
0.6471038,4.273184,0.6660919,-2.007424,-1.4176668,-3.3806129,-3.9983168,-0.641646
0.6467921,4.275935,0.7172246,-2.1608222,-1.3590772,-2.9640217,-3.8594532,-0.90979666
0.64645576,4.2788377,0.7172246,-2.1608222,-1.3590772,-2.9640217,-3.8594532,-0.90979666
0.6461999,4.2816877,0.75450885,-2.2918499,-1.2823782,-2.5617957,-3.7828386,-1.1109096
0.6459323,4.2845745,0.75450885,-2.2918499,-1.2823782,-2.5617957,-3.7828386,-1.1109096
0.6457441,4.287425,0.783271,-2.3983762,-1.1886349,-2.255338,-3.715801,-1.2354081
0.64554286,4.2903337,0.783271,-2.3983762,-1.1886349,-2.255338,-3.715801,-1.2354081
0.645431,4.293205,0.803511,-2.4761405,-1.0821085,-2.1164744,-3.8019924,-1.5035586
0.6453101,4.2960844,0.803511,-2.4761405,-1.0821085,-2.1164744,-3.8019924,-1.5035586
0.64530945,4.2989063,0.81522894,-2.5251427,-0.96599466,-2.135628,-3.7588966,-1.7812861
0.64530176,4.3017206,0.81522894,-2.5251427,-0.96599466,-2.135628,-3.7588966,-1.7812861
0.64543515,4.3044896,0.81949,-2.5517743,-0.842424,-2.1930888,-3.7828386,-2.1452048
0.64556146,4.3072467,0.81949,-2.5517743,-0.842424,-2.1930888,-3.7828386,-2.1452048
0.6458205,4.309951,0.8141637,-2.5581658,-0.7124617,-2.2409728,-3.8115692,-2.4516625
0.6460719,4.3126454,0.8141637,-2.5581658,-0.7124617,-2.2409728,-3.8115692,-2.4516625
0.64645016,4.315278,0.7960542,-2.5453827,-0.5771731,-2.1930888,-3.8163576,-2.873042
0.6468209,4.3179045,0.7960542,-2.5453827,-0.5771731,-2.1930888,-3.8163576,-2.873042
0.64729995,4.320433,0.767292,-2.5155554,-0.44081926,-2.0590134,-3.8019924,-3.1268275
0.6477757,4.32298,0.767292,-2.5155554,-0.44081926,-2.0590134,-3.8019924,-3.1268275
0.64834875,4.3254,0.7289425,-2.4676185,-0.30872646,-1.9249382,-3.7541082,-3.41892
0.6489192,4.327835,0.7289425,-2.4676185,-0.30872646,-1.9249382,-3.7541082,-3.41892
0.6495798,4.3301396,0.6820709,-2.4026372,-0.1787642,-1.8004397,-3.7253778,-3.620033
0.6502426,4.332473,0.6820709,-2.4026372,-0.1787642,-1.8004397,-3.7253778,-3.620033
0.65096456,4.3346,0.6309382,-2.3216772,-0.059454583,-1.6424223,-3.5817258,-3.9025488
0.6516923,4.3367615,0.6309382,-2.3216772,-0.059454583,-1.6424223,-3.5817258,-3.9025488
0.6524854,4.338766,0.5755444,-2.227934,0.05026766,-1.5801731,-3.442862,-4.098873
0.6532786,4.340784,0.5755444,-2.227934,0.05026766,-1.5801731,-3.442862,-4.098873
0.65411943,4.3426385,0.51802015,-2.123538,0.14720672,-1.4700398,-3.289633,-4.1946416
0.65495926,4.3445024,0.51802015,-2.123538,0.14720672,-1.4700398,-3.289633,-4.1946416
0.6558386,4.346201,0.4604959,-2.0116851,0.23349315,-1.436521,-3.1268275,-4.367024
0.6567148,4.3479033,0.4604959,-2.0116851,0.23349315,-1.436521,-3.1268275,-4.367024
0.65761554,4.349449,0.4029716,-1.8923756,0.30806166,-1.4413095,-3.2034419,-4.31914
0.6585146,4.351001,0.4029716,-1.8923756,0.30806166,-1.4413095,-3.2034419,-4.31914
0.6594209,4.3523836,0.3465126,-1.7634786,0.37197754,-1.5227122,-3.3423057,-4.309563
0.660326,4.3537717,0.3465126,-1.7634786,0.37197754,-1.5227122,-3.3423057,-4.309563
0.66123974,4.354993,0.29324937,-1.6207331,0.43376285,-1.757344,-3.572149,-4.285621
0.66215265,4.356218,0.29324937,-1.6207331,0.43376285,-1.757344,-3.572149,-4.285621
0.6630624,4.3572607,0.23785561,-1.4684004,0.4923524,-2.0111294,-3.8833952,-4.31914
0.6639725,4.358308,0.23785561,-1.4684004,0.4923524,-2.0111294,-3.8833952,-4.31914
0.6648819,4.359172,0.18246186,-1.3075454,0.55094194,-2.2505496,-4.237737,-4.4819455
0.6657914,4.360038,0.18246186,-1.3075454,0.55094194,-2.2505496,-4.237737,-4.4819455
0.66669196,4.360708,0.12387232,-1.1413642,0.6105968,-2.4708161,-4.6112323,-4.5777135
0.6675914,4.361379,0.12387232,-1.1413642,0.6105968,-2.4708161,-4.6112323,-4.5777135
0.66848916,4.361857,0.06421751,-0.9730524,0.6691863,-2.6144683,-4.88896,-4.6112323
0.66938597,4.362335,0.06421751,-0.9730524,0.6691863,-2.6144683,-4.88896,-4.6112323
0.6702732,4.3626122,0.00030163955,-0.8047406,0.7277759,-2.825158,-5.2528787,-4.6495395
0.6711638,4.362891,0.00030163955,-0.8047406,0.7277759,-2.825158,-5.2528787,-4.6495395
0.6720459,4.3629656,-0.06467949,-0.6342983,0.7842349,-3.107674,-5.616797,-4.596867
0.6729319,4.363042,-0.06467949,-0.6342983,0.7842349,-3.107674,-5.616797,-4.596867
0.6737992,4.3629174,-0.12859535,-0.46598652,0.83749807,-3.3806129,-5.9807158,-4.5154643
0.6746689,4.3627934,-0.12859535,-0.46598652,0.83749807,-3.3806129,-5.9807158,-4.5154643
0.6755239,4.3624763,-0.18825017,-0.30087054,0.8875655,-3.5577838,-6.3685765,-4.5298295
0.6763795,4.362159,-0.18825017,-0.30087054,0.8875655,-3.5577838,-6.3685765,-4.5298295
0.6772152,4.3616605,-0.24364392,-0.14108086,0.9333719,-3.7684734,-6.751649,-4.4005427
0.67805225,4.3611608,-0.24364392,-0.14108086,0.9333719,-3.7684734,-6.751649,-4.4005427
0.6788621,4.3604918,-0.29264608,0.013382491,0.9695909,-3.9121256,-7.1107793,-4.390966
0.67967224,4.3598213,-0.29264608,0.013382491,0.9695909,-3.9121256,-7.1107793,-4.390966
0.68045396,4.3589954,-0.33525667,0.1571932,0.9962225,-4.1802764,-7.417237,-4.3047748
0.68125737,4.3581448,-0.33525667,0.1571932,0.9962225,-4.1802764,-7.417237,-4.3047748
0.68197715,4.357212,-0.36934513,0.29141653,1.0100709,-4.4101195,-7.632715,-4.223372
0.6827191,4.3562484,-0.36934513,0.29141653,1.0100709,-4.4101195,-7.632715,-4.223372
0.68342066,4.3551607,-0.39491147,0.41498718,1.0122014,-4.6351743,-7.776367,-4.0940847
0.68411416,4.354082,-0.39491147,0.41498718,1.0122014,-4.6351743,-7.776367,-4.0940847
0.6847638,4.3528976,-0.41302097,0.5247094,1.0026141,-4.841076,-7.85777,-4.10845
0.685409,4.351717,-0.41302097,0.5247094,1.0026141,-4.841076,-7.85777,-4.10845
0.6859997,4.3504496,-0.4268694,0.6269748,0.9845046,-4.9176903,-7.896077,-4.0797195
0.68659014,4.3491774,-0.4268694,0.6269748,0.9845046,-4.9176903,-7.896077,-4.0797195
0.6871106,4.3478394,-0.43539152,0.7185876,0.94935083,-5.0613422,-7.9966335,-3.9743748
0.6876291,4.3465014,-0.43539152,0.7185876,0.94935083,-5.0613422,-7.9966335,-3.9743748
0.6880648,4.3451214,-0.4396526,0.7995477,0.9003487,-5.118803,-8.159439,-3.9312792
0.68849945,4.3437386,-0.4396526,0.7995477,0.9003487,-5.118803,-8.159439,-3.9312792
0.68884593,4.3423223,-0.4385873,0.86878985,0.83536756,-5.195418,-8.336611,-4.0078936
0.6891899,4.340907,-0.4385873,0.86878985,0.83536756,-5.195418,-8.336611,-4.0078936
0.6894327,4.3394814,-0.4364568,0.9263141,0.7554727,-5.185841,-8.504205,-4.012682
0.68967384,4.3380523,-0.4364568,0.9263141,0.7554727,-5.185841,-8.504205,-4.012682
0.6898023,4.3366327,-0.4300652,0.9731858,0.65959895,-5.2480903,-8.63828,-3.9312792
0.68992853,4.335216,-0.4300652,0.9731858,0.65959895,-5.2480903,-8.63828,-3.9312792
0.68993485,4.3338227,-0.4204778,1.0083395,0.54881144,-5.4779334,-8.6813755,-3.8067808
0.689939,4.3324304,-0.4204778,1.0083395,0.54881144,-5.4779334,-8.6813755,-3.8067808
0.6898135,4.331091,-0.40769464,1.0285795,0.42311022,-5.521029,-8.710106,-3.643975
0.6896859,4.3297505,-0.40769464,1.0285795,0.42311022,-5.521029,-8.710106,-3.643975
0.6894227,4.3284945,-0.39065042,1.0371016,0.28462583,-5.5018754,-8.676587,-3.3375173
0.6891584,4.3272405,-0.39065042,1.0371016,0.28462583,-5.5018754,-8.676587,-3.3375173
0.6887607,4.326088,-0.36934513,1.0349711,0.13548881,-5.3821654,-8.6813755,-3.0119057
0.6883625,4.3249373,-0.36934513,1.0349711,0.13548881,-5.3821654,-8.6813755,-3.0119057
0.68783414,4.3239017,-0.3427135,1.026449,-0.024300855,-5.3007627,-8.619126,-2.6144683
0.6873049,4.322867,-0.3427135,1.026449,-0.024300855,-5.3007627,-8.619126,-2.6144683
0.68663806,4.321945,-0.31075558,1.0157963,-0.19580843,-5.305551,-8.623915,-2.2840683
0.6859718,4.321027,-0.31075558,1.0157963,-0.19580843,-5.305551,-8.623915,-2.2840683
0.6851627,4.3202267,-0.27240607,1.0008826,-0.37477285,-5.5737014,-8.5473,-2.087744
0.6843264,4.3194013,-0.27240607,1.0008826,-0.37477285,-5.5737014,-8.5473,-2.087744
0.68336487,4.3187194,-0.22979549,0.9817079,-0.5611941,-6.019023,-8.317456,-1.9536686
0.68243486,4.3180614,-0.22979549,0.9817079,-0.5611941,-6.019023,-8.317456,-1.9536686
0.6813947,4.3175383,-0.18292385,0.9572068,-0.7454849,-6.5026517,-8.197746,-1.958457
0.68034345,4.31701,-0.18292385,0.9572068,-0.7454849,-6.5026517,-8.197746,-1.958457
0.6791474,4.316591,-0.1360522,0.92311835,-0.9255146,-7.0341644,-8.00621,-2.078167
0.6779758,4.31618,-0.1360522,0.92311835,-0.9255146,-7.0341644,-8.00621,-2.078167
0.6766854,4.315888,-0.09024584,0.8741162,-1.0991527,-7.431602,-7.843405,-2.2361844
0.6753881,4.3155937,-0.09024584,0.8741162,-1.0991527,-7.431602,-7.843405,-2.2361844
0.67398375,4.3154273,-0.04763526,0.81446135,-1.2610729,-7.608773,-7.7428484,-2.3080103
0.6725842,4.3152614,-0.04763526,0.81446135,-1.2610729,-7.608773,-7.7428484,-2.3080103
0.6710769,4.315225,-0.008220476,0.74308866,-1.4166015,-7.752425,-7.747637,-2.4420857
0.66957474,4.315189,-0.008220476,0.74308866,-1.4166015,-7.752425,-7.747637,-2.4420857
0.6679668,4.315277,0.023737457,0.66745484,-1.563608,-7.843405,-7.776367,-2.5809495
0.666374,4.3153625,0.023737457,0.66745484,-1.563608,-7.843405,-7.776367,-2.5809495
0.6646576,4.315589,0.05036907,0.58969057,-1.7052882,-7.728483,-8.020576,-2.6001031
0.6629339,4.315815,0.05036907,0.58969057,-1.7052882,-7.728483,-8.020576,-2.6001031
0.6611204,4.316157,0.06847856,0.51192623,-1.8469683,-7.867347,-8.183381,-2.585738
0.6593082,4.316496,0.06847856,0.51192623,-1.8469683,-7.867347,-8.183381,-2.585738
0.65733695,4.3169775,0.08019647,0.43096617,-1.9897138,-7.6375036,-8.815451,-2.111686
0.65537655,4.317455,0.08019647,0.43096617,-1.9897138,-7.6375036,-8.815451,-2.111686
0.65326136,4.3180513,0.091914386,0.35320187,-2.1399162,-7.374141,-9.509769,-1.7046716
0.6511554,4.318643,0.091914386,0.35320187,-2.1399162,-7.374141,-9.509769,-1.7046716
0.64895415,4.3193245,0.11002388,0.29993862,-2.2879877,-8.030152,-9.758766,-1.6089035
0.646749,4.320004,0.11002388,0.29993862,-2.2879877,-8.030152,-9.758766,-1.6089035
0.6444683,4.3207517,0.13452496,0.2615891,-2.4286027,-9.279925,-9.629479,-1.8722657
0.64218557,4.3214955,0.13452496,0.2615891,-2.4286027,-9.279925,-9.629479,-1.8722657
0.6397887,4.322334,0.15796077,0.20619535,-2.5670872,-9.811439,-9.662998,-2.006341
0.63742065,4.3231564,0.15796077,0.20619535,-2.5670872,-9.811439,-9.662998,-2.006341
0.63493514,4.3240895,0.17287448,0.13162684,-2.7023757,-9.821015,-10.13705,-1.757344
0.6324024,4.3250346,0.17287448,0.13162684,-2.7023757,-9.821015,-10.13705,-1.757344
0.6298211,4.326063,0.18565765,0.052797277,-2.8376644,-9.543288,-10.620679,-1.460463
0.6272322,4.3270874,0.18565765,0.052797277,-2.8376644,-9.543288,-10.620679,-1.460463
0.62449574,4.3282247,0.20057136,-0.018575443,-2.974018,-9.648633,-11.070788,-1.2641385
0.6212932,4.3295455,0.20057136,-0.018575443,-2.974018,-9.648633,-11.070788,-1.2641385
0.61893225,4.330559,0.21974611,-0.08355658,-3.1220899,-9.983821,-11.439496,-1.2497733
0.6158291,4.3318806,0.21974611,-0.08355658,-3.1220899,-9.983821,-11.439496,-1.2497733
0.61255586,4.333331,0.24850826,-0.14747244,-3.2786837,-10.510546,-11.669339,-1.541866
0.6102395,4.3343496,0.24850826,-0.14747244,-3.2786837,-10.510546,-11.669339,-1.541866
0.6071999,4.335738,0.27940091,-0.21671464,-3.4427345,-11.099519,-11.880029,-1.8004397
0.6071999,4.335738,0.27940091,-0.21671464,-3.4427345,-11.099519,-11.880029,-1.8004397
0.6011289,4.3384953,0.30496728,-0.28702208,-3.6089158,-11.645397,-11.990162,-2.0925324
0.5979931,4.3399444,0.30496728,-0.28702208,-3.6089158,-11.645397,-11.990162,-2.0925324
0.5946717,4.3415036,0.3252073,-0.35200322,-3.7740316,-12.200851,-11.851298,-2.2697031
0.5913883,4.343032,0.3252073,-0.35200322,-3.7740316,-12.200851,-11.851298,-2.2697031
0.5879708,4.344632,0.33479467,-0.4159191,-3.9434087,-12.445061,-11.520899,-2.2744915
0.5845374,4.3462257,0.33479467,-0.4159191,-3.9434087,-12.445061,-11.520899,-2.2744915
0.5809592,4.347883,0.33479467,-0.47131285,-4.1031985,-13.101071,-12.406754,-2.633622
0.5773895,4.34952,0.33479467,-0.47131285,-4.1031985,-13.101071,-12.406754,-2.633622
0.57369965,4.351198,0.3252073,-0.52138025,-4.2512703,-13.206416,-13.129802,-2.9879637
0.5700108,4.352859,0.3252073,-0.52138025,-4.2512703,-13.206416,-13.129802,-2.9879637
0.5662086,4.3545494,0.31029359,-0.57357824,-4.399342,-13.158532,-13.690045,-3.41892
0.562381,4.3562336,0.31029359,-0.57357824,-4.399342,-13.158532,-13.690045,-3.41892
0.55844575,4.357928,0.28792304,-0.6247109,-4.5548706,-13.192051,-14.178462,-4.074931
0.5545001,4.359607,0.28792304,-0.6247109,-4.5548706,-13.192051,-14.178462,-4.074931
0.5504161,4.3612943,0.2591609,-0.6758436,-4.722117,-13.01488,-14.264654,-4.5681367
0.5463376,4.3629584,0.2591609,-0.6758436,-4.722117,-13.01488,-14.264654,-4.5681367
0.54210985,4.364623,0.2261377,-0.72484577,-4.9053426,-12.938266,-14.12579,-4.8362875
0.53787434,4.36627,0.2261377,-0.72484577,-4.9053426,-12.938266,-14.12579,-4.8362875
0.5334673,4.3679237,0.19737557,-0.76958686,-5.1024165,-12.847286,-13.503298,-4.8219223
0.52905196,4.36956,0.19737557,-0.76958686,-5.1024165,-12.847286,-13.503298,-4.8219223
0.52445984,4.3712144,0.1813966,-0.81006694,-5.3197303,-12.722788,-12.62702,-4.6112323
0.5200759,4.3727727,0.1813966,-0.81006694,-5.3197303,-12.722788,-12.62702,-4.6112323
0.5152511,4.3744526,0.18565765,-0.84628594,-5.5615454,-12.449849,-11.468226,-4.405331
0.5101606,4.3762,0.18565765,-0.84628594,-5.5615454,-12.449849,-11.468226,-4.405331
0.50508296,4.3779263,0.21655032,-0.8803744,-5.832123,-11.832145,-10.242394,-4.2042184
0.5000108,4.3796263,0.21655032,-0.8803744,-5.832123,-11.832145,-10.242394,-4.2042184
0.49464983,4.381422,0.2772704,-0.9080713,-6.131462,-10.927136,-9.002198,-4.1180267
0.48909575,4.383255,0.2772704,-0.9080713,-6.131462,-10.927136,-9.002198,-4.1180267
0.48356822,4.385089,0.3646221,-0.92937654,-6.4648895,-9.983821,-8.049306,-4.189853
0.47789294,4.386944,0.3646221,-0.92937654,-6.4648895,-9.983821,-8.049306,-4.189853
0.4718212,4.388955,0.4807359,-0.94535553,-6.835602,-9.150639,-7.4842744,-4.3047748
0.46579188,4.3909216,0.4807359,-0.94535553,-6.835602,-9.150639,-7.4842744,-4.3047748
0.45932335,4.393071,0.618155,-0.96133447,-7.2467937,-8.508993,-7.019799,-4.367024
0.4528159,4.3951993,0.618155,-0.96133447,-7.2467937,-8.508993,-7.019799,-4.367024
0.44593912,4.3974867,0.7715531,-0.97518295,-7.685683,-7.9008656,-6.670246,-4.596867
0.439076,4.3997326,0.7715531,-0.97518295,-7.685683,-7.9008656,-6.670246,-4.596867
0.43171445,4.4021873,0.93773437,-0.9890314,-8.145877,-7.422025,-6.2871737,-4.7548847
0.42438194,4.404592,0.93773437,-0.9890314,-8.145877,-7.422025,-6.2871737,-4.7548847
0.41659933,4.4071817,1.1103072,-1.0007492,-8.6188545,-6.8761473,-5.851429,-5.00867
0.40877718,4.4097414,1.1103072,-1.0007492,-8.6188545,-6.8761473,-5.851429,-5.00867
0.40050372,4.4124837,1.2839453,-1.0103366,-9.093963,-6.3781533,-5.2241483,-5.1379566
0.39218813,4.4151926,1.2839453,-1.0103366,-9.093963,-6.3781533,-5.2241483,-5.1379566
0.38342097,4.418071,1.4543877,-1.0145977,-9.564809,-5.8322754,-4.501099,-5.3103395
0.37466174,4.420896,1.4543877,-1.0145977,-9.564809,-5.8322754,-4.501099,-5.3103395
0.3654134,4.4238997,1.6237646,-1.0135324,-10.021808,-5.2768207,-3.739743,-5.195418
0.35371345,4.4276233,1.6237646,-1.0135324,-10.021808,-5.2768207,-3.739743,-5.195418
0.3465488,4.429914,1.7910112,-1.0082061,-10.460697,-4.55856,-2.9257145,-5.00867
0.3370027,4.432918,1.7910112,-1.0082061,-10.460697,-4.55856,-2.9257145,-5.00867
0.32589146,4.436426,1.9561272,-1.0018145,-10.87615,-3.6343982,-1.9297266,-4.4580035
0.316721,4.4392686,1.9561272,-1.0018145,-10.87615,-3.6343982,-1.9297266,-4.4580035
0.30623093,4.4425387,2.1180475,-0.9869008,-11.254319,-3.040636,-0.89543146,-3.8738184
0.2957709,4.44574,2.1180475,-0.9869008,-11.254319,-3.040636,-0.89543146,-3.8738184
0.28493667,4.4490833,2.2757065,-0.96133447,-11.587747,-3.0119057,-0.04309563,-3.41892
0.27406788,4.4523764,2.2757065,-0.96133447,-11.587747,-3.0119057,-0.04309563,-3.41892
0.2629347,4.4557853,2.4248435,-0.9304418,-11.872172,-3.122039,0.45010993,-2.753332
0.25178826,4.4591374,2.4248435,-0.9304418,-11.872172,-3.122039,0.45010993,-2.753332
0.23999706,4.4627213,2.5643933,-0.90061444,-12.095878,-3.2082303,0.7517793,-2.2409728
0.22884196,4.4660525,2.5643933,-0.90061444,-12.095878,-3.2082303,0.7517793,-2.2409728
0.2173142,4.4695234,2.6900945,-0.870787,-12.249276,-2.9735985,0.6847417,-1.9009962
0.20572679,4.472954,2.6900945,-0.870787,-12.249276,-2.9735985,0.6847417,-1.9009962
0.19288471,4.4767776,2.7955556,-0.8388291,-12.332366,-2.7389667,0.37828386,-1.6567876
0.18211046,4.4799333,2.7955556,-0.8388291,-12.332366,-2.7389667,0.37828386,-1.6567876
0.1704684,4.4833484,2.874385,-0.8026101,-12.348346,-2.5953147,0.34476504,-1.7956513
0.1588494,4.486704,2.874385,-0.8026101,-12.348346,-2.5953147,0.34476504,-1.7956513
0.14713916,4.49004,2.9244525,-0.77384794,-12.304669,-0.94331545,-0.30645782,-1.3120226
0.13538271,4.4933386,2.9244525,-0.77384794,-12.304669,-0.94331545,-0.30645782,-1.3120226
0.12372553,4.4966326,2.9393663,-0.7461511,-12.201339,-2.2218192,0.36870706,-1.8531121
0.11201052,4.499895,2.9393663,-0.7461511,-12.201339,-2.2218192,0.36870706,-1.8531121
0.100479715,4.5030394,2.9297788,-0.74295527,-12.055398,-0.7661445,0.019153614,-1.3551182
0.08884633,4.506168,2.9297788,-0.74295527,-12.055398,-0.7661445,0.019153614,-1.3551182
0.077378675,4.5091996,2.8861032,-0.7536079,-11.877499,0.08619126,-0.78050977,-0.37828386
0.06563984,4.5122595,2.8861032,-0.7536079,-11.877499,0.08619126,-0.78050977,-0.37828386
0.05428978,4.515295,2.8275135,-0.7482816,-11.654859,0.9720459,-0.7278373,0.19632454
0.04302133,4.51827,2.8275135,-0.7482816,-11.654859,0.9720459,-0.7278373,0.19632454
0.031757057,4.521254,2.764663,-0.72484577,-11.395999,0.8331822,-1.4748282,0.90021986
0.02072887,4.524141,2.764663,-0.72484577,-11.395999,0.8331822,-1.4748282,0.90021986
0.0100101195,4.526933,2.7071385,-0.69075733,-11.101986,0.8283938,-1.484405,1.4030021
6.282448,4.529702,2.7071385,-0.69075733,-11.101986,0.8283938,-1.484405,1.4030021
6.271967,4.532418,2.657071,-0.6641257,-10.771754,0.12928689,-1.5993267,1.6184803
6.26148,4.5351067,2.657071,-0.6641257,-10.771754,0.12928689,-1.5993267,1.6184803
6.251365,4.5377264,2.6133955,-0.65453833,-10.4031725,-0.35913026,-1.6089035,1.733402
6.241245,4.5403223,2.6133955,-0.65453833,-10.4031725,-0.35913026,-1.6089035,1.733402
6.2315135,4.542863,2.576111,-0.6758436,-9.999437,-0.16280572,-1.9776106,1.8531121
6.2217765,4.5453815,2.576111,-0.6758436,-9.999437,-0.16280572,-1.9776106,1.8531121
6.2124496,4.547853,2.5452185,-0.72165,-9.565875,0.45010993,-2.4372973,1.8722657
6.2031264,4.5503025,2.5452185,-0.72165,-9.565875,0.45010993,-2.4372973,1.8722657
6.1942096,4.552708,2.5207174,-0.77704376,-9.1142025,1.4413095,-2.9113493,1.5849615
6.1852794,4.555099,2.5207174,-0.77704376,-9.1142025,1.4413095,-2.9113493,1.5849615
6.176782,4.557433,2.5015426,-0.8356333,-8.660399,2.657564,-3.3758245,1.1540052
6.1682715,4.559754,2.5015426,-0.8356333,-8.660399,2.657564,-3.3758245,1.1540052
6.1601715,4.5620155,2.4876943,-0.8920923,-8.216185,3.8259344,-3.6343982,0.2873042
6.152067,4.5642624,2.4876943,-0.8920923,-8.216185,3.8259344,-3.6343982,0.2873042
6.144379,4.5664597,2.474911,-0.9357681,-7.782622,4.5920787,-3.8355112,-0.48362875
6.136687,4.568643,2.474911,-0.9357681,-7.782622,4.5920787,-3.8355112,-0.48362875
6.129397,4.5707893,2.4653237,-0.9666608,-7.362908,4.8985367,-3.9264908,-1.1540052
6.122066,4.572933,2.4653237,-0.9666608,-7.362908,4.8985367,-3.9264908,-1.1540052
6.1151953,4.5750217,2.454671,-0.9900966,-6.9559765,5.185841,-3.916914,-1.8818425
6.108286,4.5771093,2.454671,-0.9900966,-6.9559765,5.185841,-3.916914,-1.8818425
6.101779,4.5791645,2.442953,-1.0028799,-6.558633,5.4300494,-3.9312792,-2.480393
6.0956645,4.5810847,2.442953,-1.0028799,-6.558633,5.4300494,-3.9312792,-2.480393
6.089538,4.583109,2.4301698,-1.0039451,-6.1666155,5.6120086,-4.0174704,-2.992752
6.083115,4.5852194,2.4301698,-1.0039451,-6.1666155,5.6120086,-4.0174704,-2.992752
6.077372,4.587213,2.414191,-0.9890314,-5.776729,5.7125654,-4.209007,-3.442862
6.071644,4.5891924,2.414191,-0.9890314,-5.776729,5.7125654,-4.209007,-3.442862
6.06634,4.5911427,2.3950162,-0.9528124,-5.3921685,5.7508726,-4.381389,-3.620033
6.0609636,4.59311,2.3950162,-0.9528124,-5.3921685,5.7508726,-4.381389,-3.620033
6.0559835,4.5950537,2.3673193,-0.90061444,-5.012934,5.7029886,-4.534618,-3.739743
6.0510015,4.596991,2.3673193,-0.90061444,-5.012934,5.7029886,-4.534618,-3.739743
6.046353,4.5989246,2.3321655,-0.82817644,-4.6390266,5.7604494,-4.6351743,-3.8498764
6.04173,4.6008425,2.3321655,-0.82817644,-4.6390266,5.7604494,-4.6351743,-3.8498764
6.037448,4.6027484,2.286359,-0.7365637,-4.2693796,6.042965,-4.548983,-3.9983168
6.0332026,4.6046333,2.286359,-0.7365637,-4.2693796,6.042965,-4.548983,-3.9983168
6.029267,4.606506,2.2245739,-0.628972,-3.9093204,6.3589997,-4.390966,-4.175488
6.0253177,4.6083813,2.2245739,-0.628972,-3.9093204,6.3589997,-4.390966,-4.175488
6.021658,4.610236,2.1425486,-0.50327075,-3.5620441,6.579266,-4.232949,-4.3622355
6.0180936,4.6120396,2.1425486,-0.50327075,-3.5620441,6.579266,-4.232949,-4.3622355
6.014812,4.613797,2.0338914,-0.36265585,-3.2286162,6.579266,-4.1036615,-4.3047748
6.011536,4.61555,2.0338914,-0.36265585,-3.2286162,6.579266,-4.1036615,-4.3047748
6.0085564,4.6172214,1.8996682,-0.21245357,-2.909037,6.4164605,-4.050989,-4.209007
6.0055547,4.618904,1.8996682,-0.21245357,-2.909037,6.4164605,-4.050989,-4.209007
6.0028653,4.6204653,1.7388133,-0.0558597,-2.6054366,6.253655,-4.209007,-3.964798
6.0001564,4.6220374,1.7388133,-0.0558597,-2.6054366,6.253655,-4.209007,-3.964798
5.9977303,4.623479,1.5577183,0.10179944,-2.3178153,6.1626754,-4.5394063,-3.6056678
5.9953036,4.6249204,1.5577183,0.10179944,-2.3178153,6.1626754,-4.5394063,-3.6056678
5.993127,4.6262293,1.3627748,0.25413227,-2.0451076,6.14831,-4.9559975,-3.2225955
5.9909506,4.6275377,1.3627748,0.25413227,-2.0451076,6.14831,-4.9559975,-3.2225955
5.989011,4.6287036,1.1603746,0.40113875,-1.7905093,6.181829,-5.4539914,-2.825158
5.9870715,4.62987,1.1603746,0.40113875,-1.7905093,6.181829,-5.4539914,-2.825158
5.985334,4.6308937,0.9537133,0.5428189,-1.5604122,6.1387334,-6.0142345,-2.5139117
5.983624,4.631902,0.9537133,0.5428189,-1.5604122,6.1387334,-6.0142345,-2.5139117
5.982069,4.632785,0.75237834,0.6738465,-1.3526857,5.913678,-6.5601125,-2.1787236
5.9805503,4.633648,0.75237834,0.6738465,-1.3526857,5.913678,-6.5601125,-2.1787236
5.979201,4.6343737,0.561696,0.7910255,-1.1662643,5.7125654,-7.086837,-1.7956513
5.9778533,4.6351004,0.561696,0.7910255,-1.1662643,5.7125654,-7.086837,-1.7956513
5.9766474,4.635702,0.3827316,0.8911604,-0.99901783,5.4779334,-7.589619,-1.4413095
5.9754543,4.636299,0.3827316,0.8911604,-0.99901783,5.4779334,-7.589619,-1.4413095
5.974387,4.6367908,0.22187665,0.9689247,-0.8541419,5.497087,-8.221688,-0.9720459
5.9733253,4.637282,0.22187665,0.9689247,-0.8541419,5.497087,-8.221688,-0.9720459
5.9723787,4.6376667,0.08019647,1.022188,-0.73163646,5.1140146,-8.5473,-0.7230489
5.971438,4.63805,0.08019647,1.022188,-0.73163646,5.1140146,-8.5473,-0.7230489
5.9705977,4.6383624,-0.03804788,1.0552112,-0.62937105,5.032612,-8.930372,-0.29688102
5.9697604,4.6386747,-0.03804788,1.0552112,-0.62937105,5.032612,-8.930372,-0.29688102
5.9690323,4.638933,-0.13711748,1.0647985,-0.54414994,5.0517654,-9.65821,0.34955344
5.968312,4.6391897,-0.13711748,1.0647985,-0.54414994,5.0517654,-9.65821,0.34955344
5.9676867,4.639391,-0.21168599,1.0594722,-0.47490773,4.7979803,-9.993398,0.770933
5.9676867,4.639391,-0.21168599,1.0594722,-0.47490773,4.7979803,-9.993398,0.770933
5.9663973,4.639803,-0.2596229,1.0402974,-0.41738343,4.7022123,-10.036493,1.0055647
5.9658527,4.6399565,-0.2596229,1.0402974,-0.41738343,4.7022123,-10.036493,1.0055647
5.965374,4.640071,-0.29051554,1.0051436,-0.37157705,4.6782703,-10.208876,1.2401965
5.9648647,4.6401935,-0.29051554,1.0051436,-0.37157705,4.6782703,-10.208876,1.2401965
5.9644136,4.6402836,-0.30649453,0.9604026,-0.33322755,4.7979803,-10.405201,1.412579
5.9639597,4.6403747,-0.30649453,0.9604026,-0.33322755,4.7979803,-10.405201,1.412579
5.963554,4.640443,-0.30969033,0.9060741,-0.30126962,4.951209,-10.510546,1.4700398
5.96303,4.640532,-0.30969033,0.9060741,-0.30126962,4.951209,-10.510546,1.4700398
5.962735,4.6405783,-0.3011682,0.8464193,-0.2778338,4.9895163,-10.606314,1.436521
5.962339,4.64064,-0.3011682,0.8464193,-0.2778338,4.9895163,-10.606314,1.436521
5.9619627,4.6406927,-0.2862545,0.77930766,-0.26292008,4.9895163,-10.601525,1.2114661
5.9615846,4.6407466,-0.2862545,0.77930766,-0.26292008,4.9895163,-10.601525,1.2114661
5.961223,4.640799,-0.2649492,0.7100654,-0.2501369,4.9224787,-10.539276,1.1204864
5.9606442,4.6408844,-0.2649492,0.7100654,-0.2501369,4.9224787,-10.539276,1.1204864
5.960498,4.640907,-0.24151339,0.63869274,-0.23628849,4.8458643,-10.448297,0.9959879
5.960136,4.6409626,-0.24151339,0.63869274,-0.23628849,4.8458643,-10.448297,0.9959879
5.959689,4.6410365,-0.21701232,0.56732,-0.2235053,4.817134,-10.352529,0.9720459
5.959501,4.6410675,-0.21701232,0.56732,-0.2235053,4.817134,-10.352529,0.9720459
5.9592013,4.6411223,-0.19144596,0.4991431,-0.20539582,4.8602295,-10.19451,0.9768343
5.9588943,4.6411786,-0.19144596,0.4991431,-0.20539582,4.8602295,-10.19451,0.9768343
5.9586115,4.6412363,-0.16587962,0.43735775,-0.18089473,4.9176903,-10.031705,0.8475474
5.958336,4.6412926,-0.16587962,0.43735775,-0.18089473,4.9176903,-10.031705,0.8475474
5.958078,4.6413474,-0.1456396,0.381964,-0.145741,5.0517654,-9.868899,0.6895301
5.95781,4.641404,-0.1456396,0.381964,-0.145741,5.0517654,-9.868899,0.6895301
5.957593,4.64146,-0.12539956,0.33296183,-0.10313042,5.1235914,-9.710882,0.62249243
5.9573755,4.6415153,-0.12539956,0.33296183,-0.10313042,5.1235914,-9.710882,0.62249243
5.9571967,4.64157,-0.106224805,0.289286,-0.05732405,5.142745,-9.672575,0.4165911
5.9570174,4.641626,-0.106224805,0.289286,-0.05732405,5.142745,-9.672575,0.4165911
5.9568915,4.6416807,-0.091311105,0.2498712,-0.006191358,5.094861,-9.734824,0.30166942
5.956764,4.6417365,-0.091311105,0.2498712,-0.006191358,5.094861,-9.734824,0.30166942
5.956691,4.6417885,-0.08065846,0.21365221,0.049202394,5.0182467,-9.859323,0.1388637
5.9566164,4.6418405,-0.08065846,0.21365221,0.049202394,5.0182467,-9.859323,0.1388637
5.956607,4.641891,-0.075332135,0.17956375,0.1088572,4.8985367,-10.13705,0.062249243
5.956597,4.6419406,-0.075332135,0.17956375,0.1088572,4.8985367,-10.13705,0.062249243
5.9566593,4.641988,-0.07426687,0.14973634,0.1749036,4.8027687,-10.352529,0.038307227
5.956722,4.6420345,-0.07426687,0.14973634,0.1749036,4.8027687,-10.352529,0.038307227
5.9568686,4.6420813,-0.077462666,0.12417,0.24308053,4.654328,-10.596737,0.095768064
5.9570146,4.642128,-0.077462666,0.12417,0.24308053,4.654328,-10.596737,0.095768064
5.957245,4.6421704,-0.08385425,0.100734174,0.313388,4.477157,-10.788273,0.11492168
5.957476,4.642213,-0.08385425,0.100734174,0.313388,4.477157,-10.788273,0.11492168
5.957787,4.6422434,-0.093441635,0.07836362,0.38369542,4.405331,-10.941502,0.095768064
5.9580975,4.642274,-0.093441635,0.07836362,0.38369542,4.405331,-10.941502,0.095768064
5.9584913,4.6422925,-0.10515954,0.057058334,0.4508071,4.280833,-11.113884,0.10534488
5.9588847,4.6423106,-0.10515954,0.057058334,0.4508071,4.280833,-11.113884,0.10534488
5.9593534,4.642314,-0.11794271,0.035753045,0.51259243,4.156334,-11.190498,0.10534488
5.9598217,4.642318,-0.11794271,0.035753045,0.51259243,4.156334,-11.190498,0.10534488
5.96035,4.6423025,-0.13179116,0.014447756,0.5658557,4.1180267,-11.238382,0.1436521
5.9608784,4.642287,-0.13179116,0.014447756,0.5658557,4.1180267,-11.238382,0.1436521
5.9614663,4.642255,-0.1456396,-0.00366174,0.6127273,4.0174704,-11.343728,0.1340753
5.9620533,4.6422224,-0.1456396,-0.00366174,0.6127273,4.0174704,-11.343728,0.1340753
5.962682,4.6421757,-0.15629223,-0.019640706,0.6489463,3.9743748,-11.358093,0.10055647
5.963309,4.642129,-0.15629223,-0.019640706,0.6489463,3.9743748,-11.358093,0.10055647
5.9639664,4.642067,-0.16801015,-0.03242388,0.67664313,3.916914,-11.329363,0.0047884034
5.964622,4.642005,-0.16801015,-0.03242388,0.67664313,3.916914,-11.329363,0.0047884034
5.96528,4.641925,-0.18079332,-0.040945996,0.6936874,3.9983168,-11.21444,-0.07182605
5.965935,4.6418447,-0.18079332,-0.040945996,0.6936874,3.9983168,-11.21444,-0.07182605
5.9665813,4.6417437,-0.19357648,-0.04627232,0.69794846,3.9839516,-11.075577,-0.2825158
5.967218,4.641644,-0.19357648,-0.04627232,0.69794846,3.9839516,-11.075577,-0.2825158
5.9679313,4.6415434,-0.2052944,-0.045207053,0.69581795,3.4380736,-10.70687,-0.4309563
5.968643,4.6414423,-0.2052944,-0.045207053,0.69581795,3.4380736,-10.70687,-0.4309563
5.969238,4.6413035,-0.21807757,-0.044141788,0.67983896,4.3143516,-11.176133,-0.24420857
5.9698186,4.6411676,-0.21807757,-0.044141788,0.67983896,4.3143516,-11.176133,-0.24420857
5.970427,4.6408453,-0.2265997,-0.035619672,0.6585337,3.5242648,-9.878476,-1.2354081
5.9710464,4.6405168,-0.2265997,-0.035619672,0.6585337,3.5242648,-9.878476,-1.2354081
5.971552,4.6402125,-0.24151339,-0.045207053,0.6212494,4.3287168,-9.222465,-1.3072342
5.972055,4.63991,-0.24151339,-0.045207053,0.6212494,4.3287168,-9.222465,-1.3072342
5.9725046,4.639596,-0.27773237,-0.035619672,0.5818346,4.3143516,-9.77792,-1.0103531
5.972957,4.6392813,-0.27773237,-0.035619672,0.5818346,4.3143516,-9.77792,-1.0103531
5.9733543,4.6389666,-0.3214082,-0.010053327,0.5381588,4.654328,-10.223241,-0.78050977
5.973752,4.638651,-0.3214082,-0.010053327,0.5381588,4.654328,-10.223241,-0.78050977
5.9741035,4.638281,-0.35549667,0.024035135,0.4891566,4.390966,-10.031705,-1.0103531
5.9744544,4.637912,-0.35549667,0.024035135,0.4891566,4.390966,-10.031705,-1.0103531
5.9747825,4.6374874,-0.38319355,0.06451519,0.44015446,3.9360676,-10.04607,-1.1827357
5.975109,4.637065,-0.38319355,0.06451519,0.44015446,3.9360676,-10.04607,-1.1827357
5.975429,4.636595,-0.41302097,0.09966891,0.3964786,3.6631286,-9.959879,-1.3072342
5.9757442,4.6361313,-0.41302097,0.09966891,0.3964786,3.6631286,-9.959879,-1.3072342
5.976048,4.635641,-0.44391364,0.12843105,0.3666512,3.514688,-9.959879,-1.3551182
5.9763517,4.6351485,-0.44391364,0.12843105,0.3666512,3.514688,-9.959879,-1.3551182
5.976617,4.634634,-0.4780021,0.14867108,0.34747645,3.6104562,-9.974244,-1.292869
5.976881,4.6341186,-0.4780021,0.14867108,0.34747645,3.6104562,-9.974244,-1.292869
5.9771304,4.6335754,-0.5131558,0.16465004,0.33895433,3.6583402,-10.117896,-1.2689269
5.9773784,4.6330338,-0.5131558,0.16465004,0.33895433,3.6583402,-10.117896,-1.2689269
5.977592,4.6324787,-0.54830956,0.17849848,0.33575854,3.691859,-10.323798,-1.067814
5.977803,4.631928,-0.54830956,0.17849848,0.33575854,3.691859,-10.323798,-1.067814
5.978049,4.6313286,-0.5802675,0.19128166,0.33788908,3.4476504,-10.357317,-1.0151415
5.9782915,4.6307282,-0.5802675,0.19128166,0.33788908,3.4476504,-10.357317,-1.0151415
5.978585,4.63009,-0.6068991,0.1987385,0.34321538,3.3135753,-10.170568,-1.1061212
5.978876,4.629453,-0.6068991,0.1987385,0.34321538,3.3135753,-10.170568,-1.1061212
5.979109,4.62882,-0.6303349,0.19980377,0.35067225,3.442862,-10.199299,-1.0007763
5.979338,4.6281886,-0.6303349,0.19980377,0.35067225,3.442862,-10.199299,-1.0007763
5.979543,4.6275873,-0.65164024,0.19767325,0.36025962,3.5577838,-10.232818,-0.90500826
5.979746,4.6269937,-0.65164024,0.19767325,0.36025962,3.5577838,-10.232818,-0.90500826
5.979969,4.6264286,-0.66761917,0.19447745,0.37197754,3.490746,-10.280702,-0.81881696
5.980192,4.6258693,-0.66761917,0.19447745,0.37197754,3.490746,-10.280702,-0.81881696
5.980444,4.625314,-0.67827183,0.18915112,0.3847607,3.394978,-10.247183,-0.80924016
5.9806957,4.6247644,-0.67827183,0.18915112,0.3847607,3.394978,-10.247183,-0.80924016
5.981009,4.624225,-0.6867939,0.18062901,0.39754388,3.4476504,-10.520123,-0.7469909
5.98132,4.62369,-0.6867939,0.18062901,0.39754388,3.4476504,-10.520123,-0.7469909
5.9818096,4.623144,-0.691055,0.17210689,0.4124576,3.1268275,-10.524911,-0.8283938
5.9822984,4.6225967,-0.691055,0.17210689,0.4124576,3.1268275,-10.524911,-0.8283938
5.9826984,4.6220655,-0.69212025,0.15825845,0.42417547,3.3135753,-10.611102,-0.866701
5.9830947,4.6215334,-0.69212025,0.15825845,0.42417547,3.3135753,-10.611102,-0.866701
5.9836545,4.6208935,-0.68998975,0.14014897,0.43802392,3.1364043,-10.620679,-0.9768343
5.9842114,4.620263,-0.68998975,0.14014897,0.43802392,3.1364043,-10.620679,-0.9768343
5.9847836,4.6196084,-0.6867939,0.12203947,0.4508071,3.098097,-10.635044,-1.0103531
5.9853663,4.6189466,-0.6867939,0.12203947,0.4508071,3.098097,-10.635044,-1.0103531
5.9859505,4.6182823,-0.6825329,0.10179944,0.46039447,3.1028855,-10.70687,-1.0390835
5.9865346,4.6176224,-0.6825329,0.10179944,0.46039447,3.1028855,-10.70687,-1.0390835
5.9870963,4.616909,-0.6772066,0.07942889,0.4710471,3.0933087,-10.6398325,-1.1300632
5.987657,4.6162004,-0.6772066,0.07942889,0.4710471,3.0933087,-10.6398325,-1.1300632
5.9882026,4.615474,-0.6686844,0.0581236,0.47956923,3.0502129,-10.606314,-1.2449849
5.9887447,4.6147537,-0.6686844,0.0581236,0.47956923,3.0502129,-10.606314,-1.2449849
5.9893003,4.6140223,-0.6580318,0.03681831,0.48276502,2.9592333,-10.510546,-1.316811
5.9898467,4.6133037,-0.6580318,0.03681831,0.48276502,2.9592333,-10.510546,-1.316811
5.990386,4.6125574,-0.6420528,0.012317227,0.4838303,2.9640217,-10.323798,-1.4173675
5.9909134,4.611827,-0.6420528,0.012317227,0.4838303,2.9640217,-10.323798,-1.4173675
5.991416,4.61113,-0.6420528,0.012317227,0.4838303,2.9640217,-10.323798,-1.4173675
5.991951,4.610428,-0.6228781,-0.012183856,0.4838303,2.834735,-10.271125,-1.484405
5.992491,4.6097183,-0.6228781,-0.012183856,0.4838303,2.834735,-10.271125,-1.484405
5.9929795,4.60902,-0.60263807,-0.035619672,0.47637343,3.0214825,-10.223241,-1.4987702
5.9934697,4.608319,-0.60263807,-0.035619672,0.47637343,3.0214825,-10.223241,-1.4987702
5.9939513,4.607631,-0.57920223,-0.059055492,0.4689166,3.0358477,-10.232818,-1.5993267
5.9944305,4.606946,-0.57920223,-0.059055492,0.4689166,3.0358477,-10.232818,-1.5993267
5.9949007,4.6062813,-0.5515053,-0.078230254,0.45826393,3.0119057,-10.141838,-1.6567876
5.995369,4.6056166,-0.5515053,-0.078230254,0.45826393,3.0119057,-10.141838,-1.6567876
5.995828,4.6049743,-0.5238085,-0.095274486,0.44121972,2.992752,-10.180145,-1.6232687
5.9962864,4.604332,-0.5238085,-0.095274486,0.44121972,2.992752,-10.180145,-1.6232687
5.996733,4.6037126,-0.4961116,-0.110188186,0.42311022,2.930503,-10.156203,-1.8052281
5.997181,4.6030917,-0.4961116,-0.110188186,0.42311022,2.930503,-10.156203,-1.8052281
5.9975986,4.602498,-0.4662842,-0.122971356,0.40287018,3.0119057,-10.208876,-1.7477672
5.998016,4.6019044,-0.4662842,-0.122971356,0.40287018,3.0119057,-10.208876,-1.7477672
5.998426,4.6013374,-0.43539152,-0.13575453,0.38369542,2.9592333,-10.261548,-1.757344
5.9988356,4.60077,-0.43539152,-0.13575453,0.38369542,2.9592333,-10.261548,-1.757344
5.9992375,4.600232,-0.40449885,-0.14534192,0.36132488,2.882619,-10.304645,-1.757344
5.99964,4.599694,-0.40449885,-0.14534192,0.36132488,2.882619,-10.304645,-1.757344
6.000027,4.599189,-0.37041038,-0.15599456,0.33895433,2.8299465,-10.323798,-1.7717092
6.0004153,4.598683,-0.37041038,-0.15599456,0.33895433,2.8299465,-10.323798,-1.7717092
6.0007944,4.5982113,-0.3341914,-0.16771246,0.31658378,2.777274,-10.31901,-1.6998832
6.001173,4.597741,-0.3341914,-0.16771246,0.31658378,2.777274,-10.31901,-1.6998832
6.0015373,4.5973,-0.29477662,-0.17836511,0.297409,2.72939,-10.223241,-1.7477672
6.001892,4.59687,-0.29477662,-0.17836511,0.297409,2.72939,-10.223241,-1.7477672
6.002226,4.5964713,-0.2532313,-0.19114828,0.27610373,2.7629087,-10.184934,-1.7190368
6.00256,4.5960717,-0.2532313,-0.19114828,0.27610373,2.7629087,-10.184934,-1.7190368
6.0028653,4.59571,-0.21062072,-0.20180093,0.2558637,2.7724855,-10.079589,-1.7621324
6.0031705,4.5953474,-0.21062072,-0.20180093,0.2558637,2.7724855,-10.079589,-1.7621324
6.003456,4.595022,-0.16694488,-0.2145841,0.2377542,2.7820623,-10.0029745,-1.7429788
6.003456,4.595022,-0.124334306,-0.22630201,0.2228405,2.743755,-9.864111,-1.7860745
6.0039654,4.5944805,-0.124334306,-0.22630201,0.2228405,2.743755,-9.864111,-1.7860745
6.0039654,4.5944805,-0.124334306,-0.22630201,0.2228405,2.743755,-9.864111,-1.7860745
6.0046,4.5938096,-0.08385425,-0.23695466,0.2079268,2.7724855,-9.749189,-1.7812861
6.004773,4.5936327,-0.08385425,-0.23695466,0.2079268,2.7724855,-9.749189,-1.7812861
6.004995,4.593422,-0.043374203,-0.24867256,0.19194783,2.7629087,-9.595961,-1.8387469
6.005217,4.5932097,-0.043374203,-0.24867256,0.19194783,2.7629087,-9.595961,-1.8387469
6.005418,4.5930257,-0.006089947,-0.25825995,0.17596887,2.8203697,-9.423578,-1.9201498
6.0056243,4.5928364,-0.006089947,-0.25825995,0.17596887,2.8203697,-9.423578,-1.9201498
6.005818,4.59267,0.026933251,-0.26678208,0.16318569,2.896984,-9.3182335,-2.006341
6.0059505,4.592556,0.026933251,-0.26678208,0.16318569,2.896984,-9.3182335,-2.006341
6.006108,4.592434,0.054630127,-0.27210838,0.15253304,2.9161377,-9.165004,-2.006341
6.0062623,4.5923133,0.054630127,-0.27210838,0.15253304,2.9161377,-9.165004,-2.006341
6.006401,4.5922155,0.07913121,-0.27636945,0.14188041,2.954445,-9.093178,-1.9680338
6.0065384,4.592119,0.07913121,-0.27636945,0.14188041,2.954445,-9.093178,-1.9680338
6.0066643,4.592041,0.09937123,-0.27956524,0.13016249,2.9400797,-8.959103,-1.958457
6.0067883,4.591963,0.09937123,-0.27956524,0.13016249,2.9400797,-8.959103,-1.958457
6.006895,4.5919037,0.11641546,-0.27849996,0.118444584,2.9640217,-8.863335,-1.9249382
6.007001,4.5918436,0.11641546,-0.27849996,0.118444584,2.9640217,-8.863335,-1.9249382
6.0070915,4.5917974,0.12813337,-0.27849996,0.1088572,3.0023289,-8.815451,-1.8962077
6.0071807,4.591751,0.12813337,-0.27849996,0.1088572,3.0023289,-8.815451,-1.8962077
6.0072536,4.5917177,0.13878602,-0.2774347,0.09820456,3.0119057,-8.762778,-1.8243817
6.007326,4.591684,0.13878602,-0.2774347,0.09820456,3.0119057,-8.762778,-1.8243817
6.0073814,4.5916657,0.15050393,-0.27636945,0.09181297,3.1028855,-8.7053175,-1.8100165
6.0074363,4.591647,0.15050393,-0.27636945,0.09181297,3.1028855,-8.7053175,-1.8100165
6.007482,4.5916376,0.15796077,-0.27210838,0.08222559,3.0454245,-8.671799,-1.7525556
6.0075274,4.591628,0.15796077,-0.27210838,0.08222559,3.0454245,-8.671799,-1.7525556
6.0075603,4.5916286,0.16435237,-0.26784733,0.07689927,3.064578,-8.710106,-1.685518
6.007593,4.5916295,0.16435237,-0.26784733,0.07689927,3.064578,-8.710106,-1.685518
6.0076184,4.59164,0.16967869,-0.262521,0.075834006,3.0693667,-8.748413,-1.6232687
6.0076437,4.591651,0.16967869,-0.262521,0.075834006,3.0693667,-8.748413,-1.6232687
6.007683,4.5916615,0.175005,-0.2561294,0.07476874,2.944868,-8.714894,-1.6519991
6.0077224,4.5916724,0.175005,-0.2561294,0.07476874,2.944868,-8.714894,-1.6519991
6.0077577,4.591694,0.17926607,-0.2476073,0.0790298,2.920926,-8.7053175,-1.5562311
6.0077934,4.591714,0.17926607,-0.2476073,0.0790298,2.920926,-8.7053175,-1.5562311
6.0078187,4.591749,0.18352713,-0.23908518,0.08542138,3.016694,-8.7053175,-1.5227122
6.0078444,4.5917845,0.18352713,-0.23908518,0.08542138,3.016694,-8.7053175,-1.5227122
6.007877,4.5918255,0.18672292,-0.23162833,0.09287824,2.992752,-8.6574335,-1.508347
6.007909,4.591866,0.18672292,-0.23162833,0.09287824,2.992752,-8.6574335,-1.508347
6.00795,4.591911,0.18885344,-0.22417149,0.102465615,2.9735985,-8.599973,-1.5035586
6.0079913,4.5919557,0.18885344,-0.22417149,0.102465615,2.9735985,-8.599973,-1.5035586
6.0080357,4.5920095,0.18991871,-0.21564937,0.11418352,2.944868,-8.580819,-1.4221559
6.0080795,4.592063,0.18991871,-0.21564937,0.11418352,2.944868,-8.580819,-1.4221559
6.008134,4.592121,0.18991871,-0.20606199,0.1269667,2.9017725,-8.590396,-1.3790601
6.0081882,4.5921793,0.18991871,-0.20606199,0.1269667,2.9017725,-8.590396,-1.3790601
6.0082574,4.5922394,0.18885344,-0.19753987,0.14188041,2.8634653,-8.499416,-1.3599066
6.0083256,4.5922985,0.18885344,-0.19753987,0.14188041,2.8634653,-8.499416,-1.3599066
6.008397,4.59237,0.18672292,-0.18901776,0.1599899,2.9257145,-8.475474,-1.316811
6.0084686,4.5924406,0.18672292,-0.18901776,0.1599899,2.9257145,-8.475474,-1.316811
6.008554,4.5925117,0.18246186,-0.1815609,0.17703412,2.954445,-8.418014,-1.3215994
6.0086403,4.592583,0.18246186,-0.1815609,0.17703412,2.954445,-8.418014,-1.3215994
6.0087366,4.5926523,0.17607027,-0.17410405,0.19088256,2.9400797,-8.379706,-1.3024458
6.0088334,4.592721,0.17607027,-0.17410405,0.19088256,2.9400797,-8.379706,-1.3024458
6.008939,4.59279,0.16754816,-0.1666472,0.204731,2.9496565,-8.346188,-1.2737153
6.009043,4.5928583,0.16754816,-0.1666472,0.204731,2.9496565,-8.346188,-1.2737153
6.0091596,4.592924,0.15689552,-0.15812509,0.22177523,2.9257145,-8.360553,-1.2306197
6.009276,4.59299,0.15689552,-0.15812509,0.22177523,2.9257145,-8.360553,-1.2306197
6.0094028,4.5930533,0.14624287,-0.14853771,0.23668894,2.9257145,-8.437167,-1.2066777
6.0095296,4.5931168,0.14624287,-0.14853771,0.23668894,2.9257145,-8.437167,-1.2066777
6.0096617,4.593189,0.13559023,-0.1368198,0.25160265,2.7868507,-8.528147,-1.1109096
6.009794,4.5932603,0.13559023,-0.1368198,0.25160265,2.7868507,-8.528147,-1.1109096
6.009946,4.5933156,0.12493758,-0.12723242,0.2675816,2.7629087,-8.662222,-1.1348516
6.0100975,4.5933704,0.12493758,-0.12723242,0.2675816,2.7629087,-8.662222,-1.1348516
6.0102725,4.5934076,0.11428493,-0.11657977,0.28356057,2.657564,-8.75799,-1.1252748
6.0104384,4.593442,0.11428493,-0.11657977,0.28356057,2.657564,-8.75799,-1.1252748
6.010608,4.5935144,0.10150176,-0.105927125,0.29953954,2.6384103,-8.858546,-1.067814
6.010787,4.5935903,0.10150176,-0.105927125,0.29953954,2.6384103,-8.858546,-1.067814
6.010995,4.593604,0.089783855,-0.09420922,0.31445324,2.566584,-8.935161,-1.091756
6.01128,4.5936255,0.089783855,-0.09420922,0.31445324,2.566584,-8.935161,-1.091756
6.0115504,4.5937157,0.073804885,-0.08462184,0.32936695,2.4995465,-9.021352,-1.0486604
6.0119677,4.593858,0.073804885,-0.08462184,0.32936695,2.4995465,-9.021352,-1.0486604
6.0123386,4.5940113,0.058891185,-0.07290393,0.34321538,2.5187001,-9.083601,-0.9720459
6.0127015,4.594163,0.058891185,-0.07290393,0.34321538,2.5187001,-9.083601,-0.9720459
6.0130963,4.5942984,0.043977484,-0.062251285,0.35280275,2.4708161,-9.131485,-0.91937345
6.013494,4.5944357,0.043977484,-0.062251285,0.35280275,2.4708161,-9.131485,-0.91937345
6.013892,4.5945625,0.02906378,-0.051598642,0.36132488,2.456451,-9.131485,-0.866701
6.01429,4.5946894,0.02906378,-0.051598642,0.36132488,2.456451,-9.131485,-0.866701
6.0147066,4.5948014,0.015215342,-0.03988073,0.3666512,2.4037786,-9.179369,-0.8331822
6.0151253,4.5949154,0.015215342,-0.03988073,0.3666512,2.4037786,-9.179369,-0.8331822
6.015529,4.5950184,0.00030163955,-0.03242388,0.36878175,2.4133554,-9.121908,-0.79008657
6.0159283,4.5951214,0.00030163955,-0.03242388,0.36878175,2.4133554,-9.121908,-0.79008657
6.0163274,4.5952125,-0.014612063,-0.02496703,0.36771646,2.4133554,-9.155427,-0.7517793
6.0167212,4.5953026,-0.014612063,-0.02496703,0.36771646,2.4133554,-9.155427,-0.7517793
6.0170984,4.5953827,-0.0284605,-0.015379649,0.36239013,2.4372973,-9.088389,-0.7565677
6.017474,4.5954638,-0.0284605,-0.015379649,0.36239013,2.4372973,-9.088389,-0.7565677
6.017843,4.5955315,-0.042308938,-0.007922798,0.35280275,2.4277205,-9.074024,-0.79487497
6.0182104,4.5956,-0.042308938,-0.007922798,0.35280275,2.4277205,-9.074024,-0.79487497
6.01855,4.5956545,-0.058287904,0.0005993177,0.34215012,2.456451,-9.021352,-0.7469909
6.018888,4.5957093,-0.058287904,0.0005993177,0.34215012,2.456451,-9.021352,-0.7469909
6.019207,4.5957503,-0.07426687,0.010186698,0.3272364,2.456451,-8.992621,-0.79487497
6.019524,4.595791,-0.07426687,0.010186698,0.3272364,2.456451,-8.992621,-0.79487497
6.0198307,4.5958176,-0.09024584,0.018708814,0.31125745,2.4420857,-9.011775,-0.78050977
6.0201364,4.595844,-0.09024584,0.018708814,0.31125745,2.4420857,-9.011775,-0.78050977
6.020438,4.5958543,-0.108355336,0.02723093,0.2910174,2.4229321,-9.069236,-0.81881696
6.0207295,4.5958643,-0.108355336,0.02723093,0.2910174,2.4229321,-9.069236,-0.81881696
6.0209804,4.5958567,-0.12646483,0.03468778,0.26864687,2.456451,-8.99741,-0.81402856
6.0212297,4.595849,-0.12646483,0.03468778,0.26864687,2.456451,-8.99741,-0.81402856
6.0214596,4.5958233,-0.14670485,0.04214463,0.24840684,2.4660277,-9.035717,-0.770933
6.021689,4.5957966,-0.14670485,0.04214463,0.24840684,2.4660277,-9.035717,-0.770933
6.0218945,4.5957503,-0.16801015,0.05173201,0.22710156,2.4851813,-9.059659,-0.6895301
6.0221047,4.5957026,-0.16801015,0.05173201,0.22710156,2.4851813,-9.059659,-0.6895301
6.022277,4.5956364,-0.18931544,0.05918886,0.20686153,2.528277,-9.088389,-0.6943185
6.0224504,4.595569,-0.18931544,0.05918886,0.20686153,2.528277,-9.088389,-0.6943185
6.0226154,4.595484,-0.20955546,0.06771098,0.18875204,2.4899697,-9.088389,-0.6847417
6.022778,4.5953994,-0.20955546,0.06771098,0.18875204,2.4899697,-9.088389,-0.6847417
6.022913,4.595299,-0.22553442,0.07516783,0.17170781,2.5570073,-9.126697,-0.641646
6.0230484,4.5951977,-0.22553442,0.07516783,0.17170781,2.5570073,-9.126697,-0.641646
6.023176,4.595085,-0.23938286,0.08155942,0.1567941,2.5378537,-9.188946,-0.61770403
6.023304,4.594972,-0.23938286,0.08155942,0.1567941,2.5378537,-9.188946,-0.61770403
6.0234227,4.5948505,-0.24897024,0.085820474,0.14401093,2.5139117,-9.184157,-0.63206923
6.023541,4.5947294,-0.24897024,0.085820474,0.14401093,2.5139117,-9.184157,-0.63206923
6.0236483,4.594602,-0.25536183,0.087951005,0.13335828,2.5234885,-9.217676,-0.62728083
6.023755,4.594475,-0.25536183,0.087951005,0.13335828,2.5234885,-9.217676,-0.62728083
6.023858,4.5943437,-0.25855762,0.086885735,0.12483617,2.5234885,-9.270349,-0.5410896
6.023961,4.5942125,-0.25855762,0.086885735,0.12483617,2.5234885,-9.270349,-0.5410896
6.0240493,4.59408,-0.25855762,0.085820474,0.120575115,2.566584,-9.270349,-0.63206923
6.024138,4.593948,-0.25855762,0.085820474,0.120575115,2.566584,-9.270349,-0.63206923
6.0242214,4.593818,-0.25429657,0.08155942,0.11631405,2.6144683,-9.3421755,-0.521936
6.024305,4.593688,-0.25429657,0.08155942,0.11631405,2.6144683,-9.3421755,-0.521936
6.0243845,4.593564,-0.24683972,0.0762331,0.112053,2.60968,-9.346964,-0.5554548
6.024464,4.59344,-0.24683972,0.0762331,0.112053,2.60968,-9.346964,-0.5554548
6.024545,4.5933228,-0.2383176,0.069841504,0.10992247,2.6192567,-9.414001,-0.51714754
6.0246263,4.593206,-0.2383176,0.069841504,0.10992247,2.6192567,-9.414001,-0.51714754
6.0247073,4.593096,-0.22873022,0.062384658,0.1088572,2.5953147,-9.332599,-0.51235914
6.024788,4.5929866,-0.22873022,0.062384658,0.1088572,2.5953147,-9.332599,-0.51235914
6.024864,4.592887,-0.21594705,0.053862542,0.1088572,2.6431987,-9.361329,-0.49799395
6.024941,4.592787,-0.21594705,0.053862542,0.1088572,2.6431987,-9.361329,-0.49799395
6.025014,4.592696,-0.20316388,0.04214463,0.1088572,2.681506,-9.337387,-0.44532153
6.025087,4.5926056,-0.20316388,0.04214463,0.1088572,2.681506,-9.337387,-0.44532153
6.025153,4.592524,-0.18931544,0.030426722,0.1088572,2.72939,-9.323022,-0.47884035
6.0252194,4.592442,-0.18931544,0.030426722,0.1088572,2.72939,-9.323022,-0.47884035
6.0252814,4.5923686,-0.17653225,0.020839343,0.112053,2.753332,-9.241618,-0.51714754
6.025343,4.592295,-0.17653225,0.020839343,0.112053,2.753332,-9.241618,-0.51714754
6.025412,4.5922327,-0.16268381,0.008056169,0.11418352,2.7629087,-9.260772,-0.45010993
6.025481,4.5921702,-0.16268381,0.008056169,0.11418352,2.7629087,-9.260772,-0.45010993
6.0255313,4.592114,-0.14777012,-0.00366174,0.11418352,2.834735,-9.188946,-0.56982
6.025582,4.5920568,-0.14777012,-0.00366174,0.11418352,2.834735,-9.188946,-0.56982
6.0256376,4.592012,-0.13392168,-0.015379649,0.11524879,2.8443117,-9.174581,-0.51235914
6.025694,4.5919666,-0.13392168,-0.015379649,0.11524879,2.8443117,-9.174581,-0.51235914
6.0257463,4.5919294,-0.122203775,-0.026032293,0.11524879,2.815581,-9.160215,-0.59376204
6.0257993,4.5918922,-0.122203775,-0.026032293,0.11524879,2.815581,-9.160215,-0.59376204
6.0258503,4.591859,-0.11261639,-0.037750203,0.118444584,2.825158,-9.126697,-0.62728083
6.025902,4.5918255,-0.11261639,-0.037750203,0.118444584,2.825158,-9.126697,-0.62728083
6.0259476,4.591796,-0.10196375,-0.048402846,0.120575115,2.8395233,-9.126697,-0.6895301
6.025994,4.591766,-0.10196375,-0.048402846,0.120575115,2.8395233,-9.126697,-0.6895301
6.026042,4.5917416,-0.0945069,-0.059055492,0.12164038,2.8682537,-9.112331,-0.6512229
6.0260906,4.591717,-0.0945069,-0.059055492,0.12164038,2.8682537,-9.112331,-0.6512229
6.0261297,4.591689,-0.08811531,-0.06864287,0.12270564,2.9352913,-9.11712,-0.6943185
6.0261693,4.5916615,-0.08811531,-0.06864287,0.12270564,2.9352913,-9.11712,-0.6943185
6.026214,4.5916376,-0.08278899,-0.07396919,0.12803197,2.920926,-9.136273,-0.7134721
6.026214,4.5916376,-0.08278899,-0.07396919,0.12803197,2.920926,-9.136273,-0.7134721
6.026214,4.5916376,-0.08278899,-0.07396919,0.12803197,2.920926,-9.136273,-0.7134721
6.0263996,4.591555,-0.07426687,-0.08781763,0.1386846,2.8682537,-9.14585,-0.79966336
6.026419,4.591546,-0.07426687,-0.08781763,0.1386846,2.8682537,-9.14585,-0.79966336
6.02647,4.5915236,-0.07426687,-0.08781763,0.1386846,2.8682537,-9.14585,-0.79966336
6.0265336,4.591509,-0.07000581,-0.09420922,0.14294566,2.8778305,-9.169792,-0.7469909
6.0266247,4.5914874,-0.07000581,-0.09420922,0.14294566,2.8778305,-9.169792,-0.7469909
6.0266542,4.5914764,-0.06574476,-0.09847028,0.1450762,2.8538885,-9.160215,-0.8379706
6.026708,4.5914574,-0.06574476,-0.09847028,0.1450762,2.8538885,-9.160215,-0.8379706
6.0267663,4.5914435,-0.05935317,-0.1037966,0.14720672,2.8491,-9.155427,-0.8331822
6.026824,4.5914297,-0.05935317,-0.1037966,0.14720672,2.8491,-9.155427,-0.8331822
6.026867,4.591404,-0.05509211,-0.109122925,0.14720672,2.8778305,-9.155427,-0.90979666
6.0269103,4.591379,-0.05509211,-0.109122925,0.14720672,2.8778305,-9.155427,-0.90979666
6.0269604,4.5913606,-0.05189632,-0.11444924,0.14933725,2.834735,-9.193734,-0.91458505
6.0270104,4.591342,-0.05189632,-0.11444924,0.14933725,2.834735,-9.193734,-0.91458505
6.027063,4.591329,-0.04763526,-0.11764504,0.148272,2.882619,-9.198523,-0.8762778
6.0271153,4.5913157,-0.04763526,-0.11764504,0.148272,2.882619,-9.198523,-0.8762778
6.027156,4.5912957,-0.045504734,-0.121906094,0.14294566,2.882619,-9.184157,-0.91937345
6.027196,4.591275,-0.045504734,-0.121906094,0.14294566,2.882619,-9.184157,-0.91937345
6.027227,4.591251,-0.042308938,-0.1251019,0.13974987,2.8538885,-9.155427,-0.9576807
6.027258,4.591226,-0.042308938,-0.1251019,0.13974987,2.8538885,-9.155427,-0.9576807
6.027302,4.5912223,-0.039113145,-0.12936294,0.13548881,2.8634653,-9.184157,-0.8571242
6.027347,4.591218,-0.039113145,-0.12936294,0.13548881,2.8634653,-9.184157,-0.8571242
6.027373,4.5912037,-0.035917353,-0.133624,0.12803197,2.8921957,-9.155427,-0.91458505
6.027398,4.5911884,-0.035917353,-0.133624,0.12803197,2.8921957,-9.155427,-0.91458505
6.0274105,4.591164,-0.032721557,-0.13788506,0.12270564,2.882619,-9.141062,-0.9672575
6.027423,4.5911403,-0.032721557,-0.13788506,0.12270564,2.882619,-9.141062,-0.9672575
6.027429,4.5911183,-0.0284605,-0.14214613,0.11631405,2.8491,-9.232041,-1.0007763
6.027435,4.5910964,-0.0284605,-0.14214613,0.11631405,2.8491,-9.232041,-1.0007763
6.02744,4.591086,-0.022068914,-0.14640717,0.11098773,2.8538885,-9.222465,-0.9720459
6.027446,4.5910754,-0.022068914,-0.14640717,0.11098773,2.8538885,-9.222465,-0.9720459
6.0274296,4.591048,-0.014612063,-0.15066823,0.10140035,2.834735,-9.246407,-1.0630256
6.0274134,4.5910206,-0.014612063,-0.15066823,0.10140035,2.834735,-9.246407,-1.0630256
6.027389,4.5909986,-0.006089947,-0.15599456,0.09287824,2.8538885,-9.208099,-1.0582372
6.0273647,4.5909767,-0.006089947,-0.15599456,0.09287824,2.8538885,-9.208099,-1.0582372
6.027331,4.590939,0.001366904,-0.15919036,0.087551914,2.8060043,-9.141062,-1.115698
6.0272975,4.590902,0.001366904,-0.15919036,0.087551914,2.8060043,-9.141062,-1.115698
6.027259,4.590862,0.008823755,-0.16132088,0.08222559,2.8107927,-9.107543,-1.13964
6.0272202,4.5908213,0.008823755,-0.16132088,0.08222559,2.8107927,-9.107543,-1.13964
6.0271907,4.5907483,0.015215342,-0.16238615,0.07689927,2.8395233,-9.059659,-1.2689269
6.0271606,4.590675,0.015215342,-0.16238615,0.07689927,2.8395233,-9.059659,-1.2689269
6.0271378,4.590593,0.020541664,-0.16451667,0.07263821,2.8682537,-8.963891,-1.3503298
6.027115,4.5905104,0.020541664,-0.16451667,0.07263821,2.8682537,-8.963891,-1.3503298
6.0271025,4.590419,0.023737457,-0.16558194,0.06944242,2.8491,-8.8777,-1.4317327
6.02709,4.5903273,0.023737457,-0.16558194,0.06944242,2.8491,-8.8777,-1.4317327
6.0270696,4.590239,0.023737457,-0.16558194,0.06624663,2.9161377,-8.791509,-1.4460979
6.027049,4.5901513,0.023737457,-0.16558194,0.06624663,2.9161377,-8.791509,-1.4460979
6.027027,4.5900583,0.02160693,-0.16238615,0.06305083,2.9400797,-8.676587,-1.4891934
6.027005,4.5899653,0.02160693,-0.16238615,0.06305083,2.9400797,-8.676587,-1.4891934
6.026983,4.5898705,0.016280606,-0.15599456,0.059855036,2.9735985,-8.619126,-1.5370775
6.0269594,4.589773,0.016280606,-0.15599456,0.059855036,2.9735985,-8.619126,-1.5370775
6.026933,4.589671,0.00988902,-0.14853771,0.05772451,3.016694,-8.537724,-1.5753847
6.026907,4.589568,0.00988902,-0.14853771,0.05772451,3.016694,-8.537724,-1.5753847
6.0268774,4.5894628,0.0045626974,-0.13895033,0.056659244,3.016694,-8.523358,-1.5705963
6.0268483,4.589358,0.0045626974,-0.13895033,0.056659244,3.016694,-8.523358,-1.5705963
6.026821,4.5892453,-0.0050246827,-0.12829769,0.05772451,3.0550013,-8.499416,-1.6184803
6.0267935,4.589133,-0.0050246827,-0.12829769,0.05772451,3.0550013,-8.499416,-1.6184803
6.026774,4.5890074,-0.015677327,-0.11657977,0.0609203,3.040636,-8.475474,-1.685518
6.026755,4.588882,-0.015677327,-0.11657977,0.0609203,3.040636,-8.475474,-1.685518
6.026726,4.5887537,-0.026329972,-0.10273133,0.058789775,3.0885203,-8.480263,-1.6567876
6.026697,4.5886254,-0.026329972,-0.10273133,0.058789775,3.0885203,-8.480263,-1.6567876
6.026672,4.5884833,-0.03804788,-0.08675237,0.058789775,3.0454245,-8.504205,-1.6950948
6.0266476,4.588344,-0.03804788,-0.08675237,0.058789775,3.0454245,-8.504205,-1.6950948
6.026625,4.588195,-0.05189632,-0.07290393,0.0641161,3.074155,-8.552089,-1.6998832
6.0266027,4.5880466,-0.05189632,-0.07290393,0.0641161,3.074155,-8.552089,-1.6998832
6.026578,4.5878954,-0.062548965,-0.05692496,0.07050768,3.1124623,-8.566454,-1.6519991
6.0265527,4.5877447,-0.062548965,-0.05692496,0.07050768,3.1124623,-8.566454,-1.6519991
6.026536,4.5875874,-0.07213634,-0.03988073,0.0790298,3.0502129,-8.6095495,-1.6232687
6.026519,4.587431,-0.07213634,-0.03988073,0.0790298,3.0502129,-8.6095495,-1.6232687
6.0265155,4.587266,-0.08172372,-0.026032293,0.089682445,2.96881,-8.643068,-1.6089035
6.026512,4.5871015,-0.08172372,-0.026032293,0.089682445,2.96881,-8.643068,-1.6089035
6.026522,4.586931,-0.09024584,-0.01324912,0.104596145,2.9161377,-8.7292595,-1.5658079
6.026532,4.5867615,-0.09024584,-0.01324912,0.104596145,2.9161377,-8.7292595,-1.5658079
6.026555,4.586588,-0.09770269,-0.00046594674,0.11737932,2.858677,-8.805874,-1.5275006
6.0265775,4.5864134,-0.09770269,-0.00046594674,0.11737932,2.858677,-8.805874,-1.5275006
6.026617,4.5862346,-0.10515954,0.010186698,0.13442355,2.882619,-8.868123,-1.5562311
6.0266566,4.5860558,-0.10515954,0.010186698,0.13442355,2.882619,-8.868123,-1.5562311
6.026711,4.585873,-0.11368166,0.018708814,0.15359831,2.8778305,-8.901642,-1.5275006
6.026765,4.5856905,-0.11368166,0.018708814,0.15359831,2.8778305,-8.901642,-1.5275006
6.026827,4.585509,-0.122203775,0.0251004,0.17170781,2.9017725,-8.935161,-1.4796166
6.026889,4.585327,-0.122203775,0.0251004,0.17170781,2.9017725,-8.935161,-1.4796166
6.026978,4.5851316,-0.12966062,0.030426722,0.18875204,2.825158,-8.973468,-1.4987702
6.0270667,4.584937,-0.12966062,0.030426722,0.18875204,2.825158,-8.973468,-1.4987702
6.02716,4.5847416,-0.139248,0.03468778,0.204731,2.8634653,-9.011775,-1.460463
6.0272536,4.584547,-0.139248,0.03468778,0.204731,2.8634653,-9.011775,-1.460463
6.0273547,4.5843587,-0.1456396,0.04107937,0.22497103,2.8443117,-9.006987,-1.3838485
6.027456,4.5841713,-0.1456396,0.04107937,0.22497103,2.8443117,-9.006987,-1.3838485
6.0275736,4.5839777,-0.15309644,0.045340426,0.24308053,2.873042,-9.016563,-1.3982137
6.0276856,4.583795,-0.15309644,0.045340426,0.24308053,2.873042,-9.016563,-1.3982137
6.027811,4.5836096,-0.16055329,0.04853622,0.26119003,2.801216,-9.035717,-1.3120226
6.0279427,4.583415,-0.16055329,0.04853622,0.26119003,2.801216,-9.035717,-1.3120226
6.028092,4.58321,-0.16801015,0.050666746,0.27610373,2.8203697,-9.078813,-1.3790601
6.02824,4.583007,-0.16801015,0.050666746,0.27610373,2.8203697,-9.078813,-1.3790601
6.028392,4.5828066,-0.175467,0.05173201,0.28675637,2.801216,-9.131485,-1.3263878
6.028542,4.582608,-0.175467,0.05173201,0.28675637,2.801216,-9.131485,-1.3263878
6.0287075,4.5823956,-0.17972806,0.05173201,0.2952785,2.8203697,-9.083601,-1.3742718
6.0288725,4.582184,-0.17972806,0.05173201,0.2952785,2.8203697,-9.083601,-1.3742718
6.0290413,4.581975,-0.18185858,0.050666746,0.30273533,2.834735,-9.112331,-1.3599066
6.029209,4.581767,-0.18185858,0.050666746,0.30273533,2.834735,-9.112331,-1.3599066
6.0293703,4.581584,-0.18505438,0.049601484,0.30806166,2.8682537,-9.112331,-1.2689269
6.0295315,4.5814004,-0.18505438,0.049601484,0.30806166,2.8682537,-9.112331,-1.2689269
6.029694,4.581234,-0.18611965,0.045340426,0.31125745,2.8491,-9.169792,-1.2162545
6.029857,4.5810676,-0.18611965,0.045340426,0.31125745,2.8491,-9.169792,-1.2162545
6.03002,4.5808954,-0.18505438,0.04214463,0.31125745,2.8538885,-9.150639,-1.2354081
6.030184,4.580724,-0.18505438,0.04214463,0.31125745,2.8538885,-9.150639,-1.2354081
6.0303493,4.5805774,-0.18185858,0.037883572,0.3101922,2.825158,-9.14585,-1.163582
6.0305142,4.580432,-0.18185858,0.037883572,0.3101922,2.825158,-9.14585,-1.163582
6.0306873,4.580304,-0.17866279,0.033622514,0.3101922,2.815581,-9.188946,-1.1204864
6.030859,4.5801773,-0.17866279,0.033622514,0.3101922,2.815581,-9.188946,-1.1204864
6.031038,4.5800667,-0.17440173,0.02723093,0.30806166,2.8299465,-9.227253,-1.0726024
6.0312176,4.5799556,-0.17440173,0.02723093,0.30806166,2.8299465,-9.227253,-1.0726024
6.0313864,4.579834,-0.16907541,0.019774077,0.30486587,2.8395233,-9.275137,-1.1348516
6.0315547,4.579713,-0.16907541,0.019774077,0.30486587,2.8395233,-9.275137,-1.1348516
6.031723,4.579599,-0.16268381,0.012317227,0.30167007,2.8299465,-9.246407,-1.1204864
6.0318913,4.579486,-0.16268381,0.012317227,0.30167007,2.8299465,-9.246407,-1.1204864
6.0320673,4.5793896,-0.15522698,0.003795111,0.29953954,2.791639,-9.255983,-1.0869676
6.0322447,4.5792923,-0.15522698,0.003795111,0.29953954,2.791639,-9.255983,-1.0869676
6.032412,4.579195,-0.1456396,-0.005792269,0.297409,2.8060043,-9.217676,-1.1109096
6.032587,4.5790925,-0.1456396,-0.005792269,0.297409,2.8060043,-9.217676,-1.1109096
6.03275,4.579004,-0.13818274,-0.015379649,0.2910174,2.8203697,-9.246407,-1.1013328
6.0329123,4.5789156,-0.13818274,-0.015379649,0.2910174,2.8203697,-9.246407,-1.1013328
6.033073,4.578828,-0.13179116,-0.027097559,0.28675637,2.8395233,-9.270349,-1.1061212
6.0332365,4.578739,-0.13179116,-0.027097559,0.28675637,2.8395233,-9.270349,-1.1061212
6.0334024,4.5786657,-0.124334306,-0.03988073,0.28249532,2.777274,-9.337387,-1.1013328
6.0335684,4.5785923,-0.124334306,-0.03988073,0.28249532,2.777274,-9.337387,-1.1013328
6.0337534,4.578541,-0.11900798,-0.05372917,0.277169,2.7581203,-9.346964,-1.0007763
6.0339413,4.578489,-0.11900798,-0.05372917,0.277169,2.7581203,-9.346964,-1.0007763
6.034144,4.578451,-0.11261639,-0.06757761,0.2739732,2.7150247,-9.404425,-0.9528923
6.034347,4.5784135,-0.11261639,-0.06757761,0.2739732,2.7150247,-9.404425,-0.9528923
6.034553,4.5783806,-0.106224805,-0.08142605,0.27290794,2.6719291,-9.490616,-1.0103531
6.03476,4.5783477,-0.106224805,-0.08142605,0.27290794,2.6719291,-9.490616,-1.0103531
6.034955,4.5783143,-0.09770269,-0.09633975,0.26864687,2.7389667,-9.495404,-0.9959879
6.03515,4.5782804,-0.09770269,-0.09633975,0.26864687,2.7389667,-9.495404,-0.9959879
6.0353374,4.578245,-0.091311105,-0.11231872,0.26545107,2.7964275,-9.562442,-1.0055647
6.035525,4.57821,-0.091311105,-0.11231872,0.26545107,2.7964275,-9.562442,-1.0055647
6.035734,4.578185,-0.08705004,-0.13468927,0.25799423,2.8778305,-9.65821,-0.7422025
6.035944,4.5781612,-0.08705004,-0.13468927,0.25799423,2.8778305,-9.65821,-0.7422025
6.0361586,4.5781403,-0.08278899,-0.15812509,0.24627632,2.7629087,-9.682152,-0.7565677
6.036373,4.578119,-0.08278899,-0.15812509,0.24627632,2.7629087,-9.682152,-0.7565677
6.0366173,4.578105,-0.07852793,-0.17410405,0.23881947,2.528277,-9.662998,-0.7517793
6.036866,4.5780907,-0.07852793,-0.17410405,0.23881947,2.528277,-9.662998,-0.7517793
6.0371194,4.57808,-0.07426687,-0.1847567,0.2345584,2.4181437,-9.600749,-0.866701
6.037364,4.5780697,-0.07426687,-0.1847567,0.2345584,2.4181437,-9.600749,-0.866701
6.0376267,4.57806,-0.07000581,-0.19327882,0.23242788,2.4037786,-9.667787,-0.866701
6.037902,4.578051,-0.07000581,-0.19327882,0.23242788,2.4037786,-9.667787,-0.866701
6.038158,4.5780454,-0.06574476,-0.19860514,0.23029736,2.4372973,-9.734824,-0.91937345
6.0384135,4.5780396,-0.06574476,-0.19860514,0.23029736,2.4372973,-9.734824,-0.91937345
6.0386634,4.578035,-0.062548965,-0.20499672,0.22923209,2.4756045,-9.758766,-0.8619126
6.0389104,4.57803,-0.062548965,-0.20499672,0.22923209,2.4756045,-9.758766,-0.8619126
6.0391593,4.5780253,-0.0614837,-0.21032305,0.22816682,2.4947581,-9.821015,-0.90021986
6.0394163,4.5780206,-0.0614837,-0.21032305,0.22816682,2.4947581,-9.821015,-0.90021986
6.0394163,4.5780206,-0.0614837,-0.21032305,0.22816682,2.4947581,-9.821015,-0.90021986
6.039974,4.578011,-0.05935317,-0.21777989,0.2260363,2.3989902,-9.892841,-0.9816227
6.0402193,4.5780077,-0.057222642,-0.22310622,0.22177523,2.4277205,-9.92636,-0.9864111
6.0404744,4.5780044,-0.057222642,-0.22310622,0.22177523,2.4277205,-9.92636,-0.9864111
6.0407624,4.578,-0.05402685,-0.23162833,0.21751417,2.384625,-9.92636,-1.067814
6.0410304,4.5779967,-0.05402685,-0.23162833,0.21751417,2.384625,-9.92636,-1.067814
6.041279,4.5779953,-0.050831053,-0.24228097,0.21112259,2.4420857,-9.89763,-1.091756
6.0415187,4.577994,-0.050831053,-0.24228097,0.21112259,2.4420857,-9.89763,-1.091756
6.0417476,4.5779934,-0.04763526,-0.25080308,0.19940469,2.4468741,-9.849746,-1.1013328
6.0419755,4.577993,-0.04763526,-0.25080308,0.19940469,2.4468741,-9.849746,-1.1013328
6.042152,4.5779867,-0.045504734,-0.25719467,0.18875204,2.5378537,-9.80665,-1.1013328
6.0423284,4.57798,-0.045504734,-0.25719467,0.18875204,2.5378537,-9.80665,-1.1013328
6.042457,4.57796,-0.042308938,-0.26358625,0.1780994,2.528277,-9.65821,-1.1779473
6.0425854,4.5779395,-0.042308938,-0.26358625,0.1780994,2.528277,-9.65821,-1.1779473
6.0426526,4.577875,-0.039113145,-0.26891258,0.16318569,2.528277,-9.595961,-1.2593501
6.0427213,4.5778103,-0.039113145,-0.26891258,0.16318569,2.528277,-9.595961,-1.2593501
6.0427694,4.5776815,-0.03698262,-0.26997787,0.148272,2.6001031,-9.495404,-1.340753
6.0428176,4.577554,-0.03698262,-0.26997787,0.148272,2.6001031,-9.495404,-1.340753
6.0428777,4.577386,-0.03804788,-0.26891258,0.13122776,2.5809495,-9.390059,-1.4317327
6.0429373,4.5772176,-0.03804788,-0.26891258,0.13122776,2.5809495,-9.390059,-1.4317327
6.0429993,4.577033,-0.041243672,-0.2657168,0.11524879,2.5953147,-9.346964,-1.5179238
6.043061,4.576849,-0.041243672,-0.2657168,0.11524879,2.5953147,-9.346964,-1.5179238
6.0431147,4.576657,-0.045504734,-0.26039046,0.09926982,2.6288335,-9.246407,-1.6041151
6.0431676,4.5764647,-0.045504734,-0.26039046,0.09926982,2.6288335,-9.246407,-1.6041151
6.0431957,4.576273,-0.050831053,-0.25293362,0.08329086,2.7150247,-9.188946,-1.6424223
6.043224,4.576081,-0.050831053,-0.25293362,0.08329086,2.7150247,-9.188946,-1.6424223
6.0432463,4.575877,-0.058287904,-0.24441151,0.06731189,2.719813,-9.131485,-1.7381904
6.043268,4.575673,-0.058287904,-0.24441151,0.06731189,2.719813,-9.131485,-1.7381904
6.043271,4.5754633,-0.06787529,-0.23375887,0.05346345,2.767697,-9.093178,-1.7621324
6.043274,4.5752535,-0.06787529,-0.23375887,0.05346345,2.767697,-9.093178,-1.7621324
6.0432615,4.575035,-0.0795932,-0.22204095,0.039615013,2.8299465,-9.040505,-1.8291701
6.0432487,4.574815,-0.0795932,-0.22204095,0.039615013,2.8299465,-9.040505,-1.8291701
6.0432196,4.574586,-0.092376366,-0.20819251,0.024701312,2.8778305,-8.983045,-1.8914193
6.0431905,4.574357,-0.092376366,-0.20819251,0.024701312,2.8778305,-8.983045,-1.8914193
6.0431414,4.5741186,-0.107290074,-0.19434407,0.011918138,2.9017725,-8.949526,-1.8579005
6.0430923,4.57388,-0.107290074,-0.19434407,0.011918138,2.9017725,-8.949526,-1.8579005
6.043038,4.5736265,-0.121138506,-0.17836511,-0.0008650357,2.8395233,-8.930372,-1.9057846
6.042983,4.5733733,-0.121138506,-0.17836511,-0.0008650357,2.8395233,-8.930372,-1.9057846
6.042917,4.573106,-0.13498695,-0.1634514,-0.010452416,2.8107927,-8.954314,-1.8818425
6.042852,4.572845,-0.13498695,-0.1634514,-0.010452416,2.8107927,-8.954314,-1.8818425
6.0427794,4.572569,-0.14990065,-0.14640717,-0.016844003,2.7868507,-8.987833,-1.8722657
6.042707,4.5722933,-0.14990065,-0.14640717,-0.016844003,2.7868507,-8.987833,-1.8722657
6.042623,4.572008,-0.16481435,-0.13149348,-0.02110506,2.801216,-9.002198,-1.8339585
6.042539,4.5717235,-0.16481435,-0.13149348,-0.02110506,2.801216,-9.002198,-1.8339585
6.042449,4.57143,-0.17866279,-0.11764504,-0.022170324,2.8203697,-9.069236,-1.8195933
6.042359,4.571136,-0.17866279,-0.11764504,-0.022170324,2.8203697,-9.069236,-1.8195933
6.0422654,4.5708346,-0.19144596,-0.10166607,-0.022170324,2.8299465,-9.074024,-1.8195933
6.042172,4.570533,-0.19144596,-0.10166607,-0.022170324,2.8299465,-9.074024,-1.8195933
6.0420723,4.570229,-0.20103334,-0.08675237,-0.018974531,2.8060043,-9.069236,-1.7381904
6.041972,4.5699263,-0.20103334,-0.08675237,-0.018974531,2.8060043,-9.069236,-1.7381904
6.041877,4.5696144,-0.21062072,-0.07290393,-0.015778739,2.791639,-9.165004,-1.7477672
6.041781,4.5693035,-0.21062072,-0.07290393,-0.015778739,2.791639,-9.165004,-1.7477672
6.041678,4.568989,-0.22127336,-0.060120758,-0.010452416,2.7820623,-9.188946,-1.6711528
6.041576,4.5686774,-0.22127336,-0.060120758,-0.010452416,2.7820623,-9.188946,-1.6711528
6.041493,4.568358,-0.22873022,-0.047337584,-0.0019303001,2.767697,-9.193734,-1.7429788
6.041409,4.568035,-0.22873022,-0.047337584,-0.0019303001,2.767697,-9.193734,-1.7429788
6.041327,4.567709,-0.2351218,-0.035619672,0.0065918155,2.767697,-9.232041,-1.7142484
6.0412455,4.567387,-0.2351218,-0.035619672,0.0065918155,2.767697,-9.232041,-1.7142484
6.041182,4.5670576,-0.2383176,-0.02496703,0.014048667,2.72939,-9.208099,-1.7717092
6.0411177,4.5667233,-0.2383176,-0.02496703,0.014048667,2.72939,-9.208099,-1.7717092
6.0410504,4.566403,-0.24151339,-0.01324912,0.023636047,2.7724855,-9.270349,-1.7238252
6.040982,4.566079,-0.24151339,-0.01324912,0.023636047,2.7724855,-9.270349,-1.7238252
6.0409136,4.5657597,-0.24470918,-0.005792269,0.032158162,2.7724855,-9.246407,-1.6807296
6.040845,4.56544,-0.24470918,-0.005792269,0.032158162,2.7724855,-9.246407,-1.6807296
6.040794,4.565113,-0.24683972,0.0016645822,0.040680278,2.7868507,-9.23683,-1.7669208
6.040743,4.5647864,-0.24683972,0.0016645822,0.040680278,2.7868507,-9.23683,-1.7669208
6.0406866,4.564463,-0.24683972,0.009121433,0.0460066,2.791639,-9.227253,-1.7142484
6.040626,4.564117,-0.24683972,0.009121433,0.0460066,2.791639,-9.227253,-1.7142484
6.040577,4.5638247,-0.24790499,0.01551302,0.052398186,2.7964275,-9.227253,-1.7046716
6.0405235,4.5635095,-0.24790499,0.01551302,0.052398186,2.7964275,-9.227253,-1.7046716
6.0404835,4.563194,-0.24790499,0.021904606,0.05772451,2.7964275,-9.198523,-1.7621324
6.040442,4.5628757,-0.24790499,0.021904606,0.05772451,2.7964275,-9.198523,-1.7621324
6.0404005,4.5625644,-0.24577445,0.029361458,0.061985567,2.7964275,-9.232041,-1.7381904
6.040358,4.5622516,-0.24577445,0.029361458,0.061985567,2.7964275,-9.232041,-1.7381904
6.04032,4.561942,-0.24257866,0.03468778,0.06731189,2.7629087,-9.184157,-1.7190368
6.0402822,4.561636,-0.24257866,0.03468778,0.06731189,2.7629087,-9.184157,-1.7190368
6.0402317,4.5613456,-0.23725234,0.038948838,0.06837715,2.801216,-9.188946,-1.6663644
6.0401807,4.561056,-0.23725234,0.038948838,0.06837715,2.801216,-9.188946,-1.6663644
6.0401373,4.5607657,-0.23192601,0.04214463,0.06944242,2.7724855,-9.232041,-1.6950948
6.040094,4.560476,-0.23192601,0.04214463,0.06944242,2.7724855,-9.232041,-1.6950948
6.040041,4.5602007,-0.22446916,0.045340426,0.06731189,2.7868507,-9.184157,-1.6663644
6.0399876,4.5599246,-0.22446916,0.045340426,0.06731189,2.7868507,-9.184157,-1.6663644
6.039917,4.5596757,-0.21701232,0.047470953,0.06518136,2.7820623,-9.212888,-1.5753847
6.0398464,4.5594263,-0.21701232,0.047470953,0.06518136,2.7820623,-9.212888,-1.5753847
6.0397825,4.559174,-0.2084902,0.047470953,0.06305083,2.7629087,-9.14585,-1.6232687
6.039718,4.558922,-0.2084902,0.047470953,0.06305083,2.7629087,-9.14585,-1.6232687
6.039647,4.558685,-0.19996808,0.046405688,0.0609203,2.7868507,-9.241618,-1.6089035
6.0395756,4.5584474,-0.19996808,0.046405688,0.0609203,2.7868507,-9.241618,-1.6089035
6.039491,4.5582356,-0.19144596,0.043209895,0.05772451,2.7485435,-9.193734,-1.5275006
6.0394073,4.558025,-0.19144596,0.043209895,0.05772451,2.7485435,-9.193734,-1.5275006
6.0393267,4.5578074,-0.18079332,0.038948838,0.052398186,2.791639,-9.222465,-1.6041151
6.039246,4.5575905,-0.18079332,0.038948838,0.052398186,2.791639,-9.222465,-1.6041151
6.03916,4.5573854,-0.17014067,0.033622514,0.04813713,2.8203697,-9.255983,-1.6041151
6.039073,4.5571814,-0.17014067,0.033622514,0.04813713,2.8203697,-9.255983,-1.6041151
6.038983,4.556982,-0.16055329,0.029361458,0.041745543,2.7964275,-9.203311,-1.6089035
6.0388927,4.5567822,-0.16055329,0.029361458,0.041745543,2.7964275,-9.203311,-1.6089035
6.0387917,4.5565968,-0.14990065,0.022969872,0.035353955,2.791639,-9.260772,-1.5849615
6.0386925,4.556415,-0.14990065,0.022969872,0.035353955,2.791639,-9.260772,-1.5849615
6.038588,4.5562453,-0.14031327,0.01551302,0.030027634,2.777274,-9.270349,-1.5705963
6.0384827,4.556074,-0.14031327,0.01551302,0.030027634,2.777274,-9.270349,-1.5705963
6.038385,4.5558906,-0.12859535,0.009121433,0.023636047,2.7485435,-9.23683,-1.6424223
6.038286,4.5557065,-0.12859535,0.009121433,0.023636047,2.7485435,-9.23683,-1.6424223
6.0381875,4.555524,-0.120073244,0.003795111,0.01724446,2.7246015,-9.203311,-1.6567876
6.03809,4.5553446,-0.120073244,0.003795111,0.01724446,2.7246015,-9.203311,-1.6567876
6.037981,4.555179,-0.11048587,-0.00366174,0.012983402,2.8107927,-9.289502,-1.661576
6.037873,4.5550156,-0.11048587,-0.00366174,0.012983402,2.8107927,-9.289502,-1.661576
6.0377464,4.5548773,-0.10196375,-0.011118591,0.005526551,2.815581,-9.303867,-1.5849615
6.0376196,4.5547395,-0.10196375,-0.011118591,0.005526551,2.815581,-9.303867,-1.5849615
6.0374775,4.5546217,-0.09557216,-0.017510178,-0.006191358,2.72939,-9.255983,-1.5179238
6.0373354,4.554504,-0.09557216,-0.017510178,-0.006191358,2.72939,-9.255983,-1.5179238
6.037196,4.554358,-0.092376366,-0.0228365,-0.015778739,2.6910827,-9.222465,-1.5897499
6.0370574,4.5542126,-0.092376366,-0.0228365,-0.015778739,2.6910827,-9.222465,-1.5897499
6.036906,4.5540724,-0.09024584,-0.027097559,-0.026431382,2.72939,-9.174581,-1.5849615
6.0367537,4.5539317,-0.09024584,-0.027097559,-0.026431382,2.72939,-9.174581,-1.5849615
6.036589,4.5538015,-0.08811531,-0.03242388,-0.036018763,2.695871,-9.198523,-1.5514427
6.0364213,4.553669,-0.08811531,-0.03242388,-0.036018763,2.695871,-9.198523,-1.5514427
6.0362477,4.553549,-0.08811531,-0.035619672,-0.04241035,2.7341783,-9.169792,-1.5275006
6.0360756,4.5534296,-0.08811531,-0.035619672,-0.04241035,2.7341783,-9.169792,-1.5275006
6.0359077,4.5532856,-0.08811531,-0.036684938,-0.046671405,2.7006595,-9.174581,-1.5897499
6.035738,4.55314,-0.08811531,-0.036684938,-0.046671405,2.7006595,-9.174581,-1.5897499
6.035561,4.5530057,-0.09024584,-0.037750203,-0.0498672,2.719813,-9.136273,-1.5562311
6.035383,4.552871,-0.09024584,-0.037750203,-0.0498672,2.719813,-9.136273,-1.5562311
6.0352206,4.5527096,-0.092376366,-0.03988073,-0.05199773,2.7006595,-9.193734,-1.6376339
6.0350566,4.5525465,-0.092376366,-0.03988073,-0.05199773,2.7006595,-9.193734,-1.6376339
6.034904,4.552373,-0.093441635,-0.03988073,-0.05199773,2.6479871,-9.203311,-1.6519991
6.03475,4.5521984,-0.093441635,-0.03988073,-0.05199773,2.6479871,-9.203311,-1.6519991
6.034613,4.5520124,-0.093441635,-0.040945996,-0.053062994,2.6671407,-9.169792,-1.733402
6.034475,4.5518255,-0.093441635,-0.040945996,-0.053062994,2.6671407,-9.169792,-1.733402
6.0343366,4.551641,-0.0945069,-0.04201126,-0.0498672,2.6479871,-9.193734,-1.6998832
6.0341973,4.5514555,-0.0945069,-0.04201126,-0.0498672,2.6479871,-9.193734,-1.6998832
6.0340705,4.551266,-0.093441635,-0.044141788,-0.04773667,2.6479871,-9.131485,-1.7429788
6.0339427,4.551076,-0.093441635,-0.044141788,-0.04773667,2.6479871,-9.131485,-1.7429788
6.0338264,4.5508823,-0.0945069,-0.045207053,-0.04241035,2.6719291,-9.169792,-1.7860745
6.033709,4.5506883,-0.0945069,-0.045207053,-0.04241035,2.6719291,-9.169792,-1.7860745
6.0336103,4.5504885,-0.0945069,-0.04627232,-0.03814929,2.657564,-9.14585,-1.8531121
6.0335083,4.550282,-0.0945069,-0.04627232,-0.03814929,2.657564,-9.14585,-1.8531121
6.033399,4.5500965,-0.0945069,-0.045207053,-0.03282297,2.705448,-9.179369,-1.7956513
6.033287,4.549906,-0.0945069,-0.045207053,-0.03282297,2.705448,-9.179369,-1.7956513
6.0331883,4.5497108,-0.093441635,-0.045207053,-0.027496647,2.6719291,-9.169792,-1.8100165
6.0330896,4.5495167,-0.093441635,-0.045207053,-0.027496647,2.6719291,-9.169792,-1.8100165
6.0329866,4.549327,-0.091311105,-0.047337584,-0.02323559,2.7724855,-9.136273,-1.8626889
6.0328856,4.5491405,-0.091311105,-0.047337584,-0.02323559,2.7724855,-9.136273,-1.8626889
6.0327907,4.548954,-0.08705004,-0.044141788,-0.017909266,2.9017725,-9.102755,-2.0111294
6.032696,4.5487685,-0.08705004,-0.044141788,-0.017909266,2.9017725,-9.102755,-2.0111294
6.0326114,4.5485845,-0.08491952,-0.03881547,-0.013648209,2.8443117,-9.040505,-2.0159178
6.0325265,4.5484004,-0.08491952,-0.03881547,-0.013648209,2.8443117,-9.040505,-2.0159178
6.0324526,4.548215,-0.08385425,-0.03242388,-0.008321887,2.7389667,-9.030929,-1.958457
6.032378,4.5480294,-0.08385425,-0.03242388,-0.008321887,2.7389667,-9.030929,-1.958457
6.0323243,4.547841,-0.08385425,-0.026032293,-0.0029955646,2.6623523,-8.99741,-2.006341
6.0323243,4.547841,-0.08172372,-0.019640706,0.0033960221,2.6384103,-9.045294,-2.006341
6.0322375,4.54747,-0.08172372,-0.019640706,0.0033960221,2.6384103,-9.045294,-2.006341
6.0321927,4.547279,-0.08172372,-0.019640706,0.0033960221,2.6384103,-9.045294,-2.006341
6.032148,4.547101,-0.08065846,-0.010053327,0.009787609,2.6527755,-9.045294,-1.9680338
6.032103,4.546924,-0.08065846,-0.010053327,0.009787609,2.6527755,-9.045294,-1.9680338
6.032103,4.546924,-0.08065846,-0.010053327,0.009787609,2.6527755,-9.045294,-1.9680338
6.032103,4.546924,-0.08065846,-0.010053327,0.009787609,2.6527755,-9.045294,-1.9680338
6.032103,4.546924,-0.08065846,-0.010053327,0.009787609,2.6527755,-9.045294,-1.9680338
6.031913,4.546228,-0.08065846,0.022969872,0.03641922,2.8921957,-8.949526,-2.1883004
6.031876,4.5460625,-0.08065846,0.022969872,0.03641922,2.8921957,-8.949526,-2.1883004
6.031836,4.545883,-0.08065846,0.022969872,0.03641922,2.8921957,-8.949526,-2.1883004
6.031807,4.5457315,-0.08491952,0.035753045,0.0460066,2.9017725,-8.911219,-2.183512
6.0317755,4.5455656,-0.08491952,0.035753045,0.0460066,2.9017725,-8.911219,-2.183512
