Pitch,Roll,Gyro_X,Gyro_Y,Gyro_Z,Accel_X,Accel_Y,Accel_Z
5.696663,4.6675797,-0.032721557,0.01551302,0.020440254,5.391742,-7.8912888,-0.33039984
5.6964335,4.667599,-0.032721557,0.01551302,0.020440254,5.391742,-7.8912888,-0.33039984
5.6963353,4.667636,-0.031656295,0.014447756,0.022570781,5.415684,-7.867347,-0.29209262
5.6962366,4.6676726,-0.031656295,0.014447756,0.022570781,5.415684,-7.867347,-0.29209262
5.696153,4.667723,-0.03059103,0.012317227,0.025766576,5.4061074,-7.920019,-0.29209262
5.6960697,4.667774,-0.03059103,0.012317227,0.025766576,5.4061074,-7.920019,-0.29209262
5.696016,4.667848,-0.029525764,0.011251962,0.027897105,5.401319,-7.905654,-0.23942018
5.695962,4.6679225,-0.029525764,0.011251962,0.027897105,5.401319,-7.905654,-0.23942018
5.6958632,4.66785,-0.027395237,0.011251962,0.027897105,5.3965306,-7.9487495,-0.38307226
5.695764,4.6677775,-0.027395237,0.011251962,0.027897105,5.3965306,-7.9487495,-0.38307226
5.6956654,4.6678047,-0.024199443,0.010186698,0.031092897,5.410896,-7.9583263,-0.33039984
5.6955667,4.667831,-0.024199443,0.010186698,0.031092897,5.410896,-7.9583263,-0.33039984
5.6955166,4.6679077,-0.024199443,0.008056169,0.033223428,5.3965306,-8.025364,-0.320823
5.695467,4.6679845,-0.024199443,0.008056169,0.033223428,5.3965306,-8.025364,-0.320823
5.695363,4.6679387,-0.024199443,0.0069909045,0.033223428,5.415684,-8.054094,-0.36391866
5.6952586,4.6678944,-0.024199443,0.0069909045,0.033223428,5.415684,-8.054094,-0.36391866
5.6952972,4.667995,-0.022068914,0.0048603755,0.033223428,5.3678,-8.054094,-0.29688102
5.6953354,4.668096,-0.022068914,0.0048603755,0.033223428,5.3678,-8.054094,-0.29688102
5.6952524,4.66801,-0.021003649,0.003795111,0.033223428,5.4061074,-8.082825,-0.36391866
5.6951666,4.6679263,-0.021003649,0.003795111,0.033223428,5.4061074,-8.082825,-0.36391866
5.6951666,4.6680236,-0.021003649,0.0027298466,0.030027634,5.4204726,-8.101978,-0.320823
5.695166,4.6681204,-0.021003649,0.0027298466,0.030027634,5.4204726,-8.101978,-0.320823
5.695182,4.668222,-0.017807856,0.0005993177,0.027897105,5.434838,-8.135497,-0.31124622
5.6951976,4.6683245,-0.017807856,0.0005993177,0.027897105,5.434838,-8.135497,-0.31124622
5.6952534,4.668426,-0.015677327,-0.00046594674,0.025766576,5.3965306,-8.121132,-0.30166942
5.6952534,4.668426,-0.015677327,-0.00046594674,0.025766576,5.3965306,-8.121132,-0.30166942
5.69544,4.6685896,-0.014612063,-0.0015312112,0.024701312,5.415684,-8.145074,-0.34955344
5.69558,4.6686497,-0.014612063,-0.0015312112,0.024701312,5.415684,-8.145074,-0.34955344
5.695651,4.668745,-0.012481534,-0.00366174,0.022570781,5.415684,-8.1642275,-0.31603462
5.695722,4.6688414,-0.012481534,-0.00366174,0.022570781,5.415684,-8.1642275,-0.31603462
5.695764,4.6689463,-0.010351005,-0.0047270046,0.022570781,5.410896,-8.135497,-0.31124622
5.695806,4.6690516,-0.010351005,-0.0047270046,0.022570781,5.410896,-8.135497,-0.31124622
5.6958494,4.6691566,-0.008220476,-0.007922798,0.022570781,5.3965306,-8.1402855,-0.25378537
5.6958933,4.6692615,-0.008220476,-0.007922798,0.022570781,5.3965306,-8.1402855,-0.25378537
5.6959667,4.669361,-0.006089947,-0.008988062,0.021505518,5.3725886,-8.130709,-0.2873042
5.69604,4.669461,-0.006089947,-0.008988062,0.021505518,5.3725886,-8.130709,-0.2873042
5.6961374,4.669549,-0.0039594183,-0.011118591,0.019374989,5.363012,-8.197746,-0.2681506
5.696235,4.6696386,-0.0039594183,-0.011118591,0.019374989,5.363012,-8.197746,-0.2681506
5.696312,4.669739,-0.0007636249,-0.012183856,0.019374989,5.401319,-8.192958,-0.2825158
5.6963882,4.66984,-0.0007636249,-0.012183856,0.019374989,5.401319,-8.192958,-0.2825158
5.6964583,4.669944,0.00030163955,-0.01324912,0.020440254,5.386954,-8.192958,-0.24899697
5.696528,4.6700473,0.00030163955,-0.01324912,0.020440254,5.386954,-8.192958,-0.24899697
5.696623,4.670141,0.001366904,-0.01324912,0.019374989,5.3582234,-8.1402855,-0.29209262
5.6967173,4.670236,0.001366904,-0.01324912,0.019374989,5.3582234,-8.1402855,-0.29209262
5.6968055,4.670335,0.0024321685,-0.01324912,0.019374989,5.363012,-8.183381,-0.2633622
5.696893,4.6704335,0.0024321685,-0.01324912,0.019374989,5.363012,-8.183381,-0.2633622
5.696949,4.670543,0.003497433,-0.014314385,0.019374989,5.386954,-8.159439,-0.2633622
5.6970043,4.6706533,0.003497433,-0.014314385,0.019374989,5.386954,-8.159439,-0.2633622
5.6970997,4.6707497,0.003497433,-0.01324912,0.020440254,5.363012,-8.207323,-0.25857377
5.697195,4.6708465,0.003497433,-0.01324912,0.020440254,5.363012,-8.207323,-0.25857377
5.697345,4.6708875,0.0045626974,-0.012183856,0.018309724,5.353435,-8.226477,-0.31603462
5.6974955,4.6709285,0.0045626974,-0.012183856,0.018309724,5.353435,-8.226477,-0.31603462
5.697624,4.6710052,0.0077584907,-0.012183856,0.018309724,5.3678,-8.207323,-0.30166942
5.697749,4.6710796,0.0077584907,-0.012183856,0.018309724,5.3678,-8.207323,-0.30166942
5.6978445,4.6711817,0.0077584907,-0.012183856,0.021505518,5.3821654,-8.169016,-0.30166942
5.6979394,4.671284,0.0077584907,-0.012183856,0.021505518,5.3821654,-8.169016,-0.30166942
5.6980605,4.671368,0.0077584907,-0.012183856,0.019374989,5.363012,-8.135497,-0.31603462
5.6981807,4.6714516,0.0077584907,-0.012183856,0.019374989,5.363012,-8.135497,-0.31603462
5.6982303,4.67157,0.008823755,-0.012183856,0.019374989,5.3821654,-8.207323,-0.18674773
5.6982794,4.671687,0.008823755,-0.012183856,0.019374989,5.3821654,-8.207323,-0.18674773
5.6984334,4.671725,0.008823755,-0.012183856,0.020440254,5.391742,-8.202535,-0.32561144
5.6985874,4.6717625,0.008823755,-0.012183856,0.020440254,5.391742,-8.202535,-0.32561144
5.698641,4.671881,0.00988902,-0.011118591,0.020440254,5.3725886,-8.130709,-0.30166942
5.6986947,4.672003,0.00988902,-0.011118591,0.020440254,5.3725886,-8.130709,-0.30166942
5.698744,4.6721225,0.010954284,-0.008988062,0.01724446,5.377377,-8.135497,-0.30645782
5.6987934,4.672244,0.010954284,-0.008988062,0.01724446,5.377377,-8.135497,-0.30645782
5.6987514,4.6721406,0.010954284,-0.007922798,0.012983402,5.425261,-8.09719,-0.41180268
5.698709,4.6720366,0.010954284,-0.007922798,0.012983402,5.425261,-8.09719,-0.41180268
5.698696,4.671925,0.00988902,-0.0068575335,0.011918138,5.3725886,-8.078036,-0.39743748
5.698683,4.671813,0.00988902,-0.0068575335,0.011918138,5.3725886,-8.078036,-0.39743748
5.6986475,4.6717057,0.00988902,-0.0068575335,0.010852873,5.3678,-8.054094,-0.38307226
5.6986117,4.671598,0.00988902,-0.0068575335,0.010852873,5.3678,-8.054094,-0.38307226
5.6985846,4.6714892,0.008823755,-0.005792269,0.010852873,5.3725886,-8.0445175,-0.4165911
5.698557,4.671379,0.008823755,-0.005792269,0.010852873,5.3725886,-8.0445175,-0.4165911
5.698444,4.6713257,0.0077584907,-0.0047270046,0.009787609,5.363012,-8.025364,-0.34476504
5.698331,4.6712723,0.0077584907,-0.0047270046,0.009787609,5.363012,-8.025364,-0.34476504
5.698204,4.6712966,0.003497433,-0.00366174,0.009787609,5.3678,-7.9966335,-0.320823
5.698077,4.6713214,0.003497433,-0.00366174,0.009787609,5.3678,-7.9966335,-0.320823
5.6980653,4.671203,0.001366904,-0.00366174,0.008722344,5.315128,-8.001422,-0.36391866
5.6980534,4.6710844,0.001366904,-0.00366174,0.008722344,5.315128,-8.001422,-0.36391866
5.6979856,4.670981,-0.0007636249,-0.00366174,0.009787609,5.3725886,-7.97748,-0.40222588
5.697918,4.670878,-0.0007636249,-0.00366174,0.009787609,5.3725886,-7.97748,-0.40222588
5.697878,4.6707616,-0.0039594183,-0.00366174,0.011918138,5.3103395,-7.9870567,-0.34955344
5.697837,4.670644,-0.0039594183,-0.00366174,0.011918138,5.3103395,-7.9870567,-0.34955344
5.6977115,4.670624,-0.006089947,-0.0047270046,0.014048667,5.329493,-7.9631147,-0.33518824
5.697586,4.6706047,-0.006089947,-0.0047270046,0.014048667,5.329493,-7.9631147,-0.33518824
5.697574,4.67071,-0.008220476,-0.00366174,0.016179197,5.305551,-7.97748,-0.30166942
5.6975603,4.670828,-0.008220476,-0.00366174,0.016179197,5.305551,-7.97748,-0.30166942
5.6974964,4.6707277,-0.009285741,-0.00366174,0.01724446,5.315128,-7.991845,-0.33997664
5.6974964,4.6707277,-0.009285741,-0.00366174,0.01724446,5.315128,-7.991845,-0.33997664
5.6973476,4.6706514,-0.008220476,-0.00366174,0.021505518,5.329493,-7.991845,-0.320823
5.697277,4.670718,-0.008220476,-0.00366174,0.021505518,5.329493,-7.991845,-0.320823
5.69716,4.670686,-0.009285741,-0.0025964756,0.02683184,5.3199162,-7.9631147,-0.33518824
5.69716,4.670686,-0.009285741,-0.0025964756,0.02683184,5.3199162,-7.9631147,-0.33518824
5.69716,4.670686,-0.009285741,-0.0025964756,0.02683184,5.3199162,-7.9631147,-0.33518824
5.697078,4.670973,-0.010351005,-0.0025964756,0.032158162,5.3342814,-7.991845,-0.30166942
5.697076,4.671067,-0.009285741,-0.0025964756,0.03641922,5.33907,-8.020576,-0.25857377
5.6970997,4.6711745,-0.009285741,-0.0025964756,0.03641922,5.33907,-8.020576,-0.25857377
5.6971426,4.6712837,-0.009285741,-0.0025964756,0.03854975,5.3342814,-8.034941,-0.272939
5.697185,4.671392,-0.009285741,-0.0025964756,0.03854975,5.3342814,-8.034941,-0.272939
5.6972184,4.671499,-0.010351005,-0.00366174,0.042810805,5.33907,-8.020576,-0.20590134
5.697252,4.671605,-0.010351005,-0.00366174,0.042810805,5.33907,-8.020576,-0.20590134
5.697306,4.6717124,-0.010351005,-0.00366174,0.0460066,5.3342814,-8.054094,-0.20590134
5.6973605,4.6718197,-0.010351005,-0.00366174,0.0460066,5.3342814,-8.054094,-0.20590134
5.6974053,4.6719275,-0.009285741,-0.00366174,0.049202394,5.33907,-8.034941,-0.18674773
5.69745,4.672035,-0.009285741,-0.00366174,0.049202394,5.33907,-8.034941,-0.18674773
5.697537,4.672139,-0.009285741,-0.00366174,0.05026766,5.3103395,-8.121132,-0.15801731
5.6976233,4.672244,-0.009285741,-0.00366174,0.05026766,5.3103395,-8.121132,-0.15801731
5.697703,4.67235,-0.008220476,-0.0047270046,0.05133292,5.3247046,-8.12592,-0.1436521
5.697782,4.6724563,-0.008220476,-0.0047270046,0.05133292,5.3247046,-8.12592,-0.1436521
5.6979017,4.672551,-0.006089947,-0.005792269,0.05026766,5.315128,-8.154651,-0.22984336
5.6980214,4.6726465,-0.006089947,-0.005792269,0.05026766,5.315128,-8.154651,-0.22984336
5.6980934,4.672754,-0.006089947,-0.0068575335,0.047071867,5.386954,-8.183381,-0.20590134
5.698165,4.6728616,-0.006089947,-0.0068575335,0.047071867,5.386954,-8.183381,-0.20590134
5.6982512,4.6729674,-0.0028941538,-0.007922798,0.042810805,5.363012,-8.1881695,-0.21068975
5.698337,4.673074,-0.0028941538,-0.007922798,0.042810805,5.363012,-8.1881695,-0.21068975
5.6984024,4.6731863,0.00030163955,-0.010053327,0.039615013,5.377377,-8.197746,-0.15801731
5.6984673,4.673298,0.00030163955,-0.010053327,0.039615013,5.377377,-8.197746,-0.15801731
5.6985335,4.6734104,0.0045626974,-0.012183856,0.03641922,5.3486466,-8.212111,-0.090979666
5.6986,4.6735234,0.0045626974,-0.012183856,0.03641922,5.3486466,-8.212111,-0.090979666
5.6986556,4.67364,0.008823755,-0.014314385,0.032158162,5.353435,-8.178593,-0.11492168
5.698711,4.6737566,0.008823755,-0.014314385,0.032158162,5.353435,-8.178593,-0.11492168
5.6988,4.6738687,0.013084813,-0.016444914,0.02896237,5.3678,-8.226477,-0.22026655
5.6988873,4.673979,0.013084813,-0.016444914,0.02896237,5.3678,-8.226477,-0.22026655
5.698974,4.6740937,0.018411135,-0.017510178,0.025766576,5.3582234,-8.240842,-0.20111294
5.6990623,4.6742115,0.018411135,-0.017510178,0.025766576,5.3582234,-8.240842,-0.20111294
5.699119,4.674347,0.023737457,-0.019640706,0.021505518,5.3678,-8.173804,-0.21547815
5.6991696,4.674468,0.023737457,-0.019640706,0.021505518,5.3678,-8.173804,-0.21547815
5.69922,4.6745963,0.02906378,-0.021771235,0.020440254,5.363012,-8.183381,-0.18674773
5.699271,4.674726,0.02906378,-0.021771235,0.020440254,5.363012,-8.183381,-0.18674773
5.699323,4.6748605,0.03545537,-0.023901764,0.018309724,5.329493,-8.1881695,-0.11492168
5.6993756,4.674996,0.03545537,-0.023901764,0.018309724,5.329493,-8.1881695,-0.11492168
5.6994247,4.675136,0.039716423,-0.02496703,0.016179197,5.3342814,-8.183381,-0.12449849
5.699473,4.6752744,0.039716423,-0.02496703,0.016179197,5.3342814,-8.183381,-0.12449849
5.699541,4.6754103,0.04291222,-0.026032293,0.015113931,5.3438582,-8.173804,-0.22026655
5.6996098,4.6755486,0.04291222,-0.026032293,0.015113931,5.3438582,-8.173804,-0.22026655
5.6996775,4.6756864,0.04610801,-0.027097559,0.014048667,5.3438582,-8.207323,-0.19153613
5.699745,4.675825,0.04610801,-0.027097559,0.014048667,5.3438582,-8.207323,-0.19153613
5.6998234,4.6759605,0.047173277,-0.027097559,0.012983402,5.377377,-8.183381,-0.2681506
5.6999025,4.6760964,0.047173277,-0.027097559,0.012983402,5.377377,-8.183381,-0.2681506
5.7000184,4.6762104,0.049303804,-0.028162822,0.014048667,5.3438582,-8.197746,-0.25857377
5.7001348,4.676325,0.049303804,-0.028162822,0.014048667,5.3438582,-8.197746,-0.25857377
5.7002773,4.676402,0.049303804,-0.029228088,0.012983402,5.305551,-8.169016,-0.272939
5.7004204,4.676479,0.049303804,-0.029228088,0.012983402,5.305551,-8.169016,-0.272939
5.700576,4.676513,0.049303804,-0.028162822,0.014048667,5.33907,-8.145074,-0.29209262
5.7007346,4.6765466,0.049303804,-0.028162822,0.014048667,5.33907,-8.145074,-0.29209262
5.700639,4.6766434,0.047173277,-0.027097559,0.012983402,5.3725886,-8.121132,-0.2825158
5.700539,4.6767406,0.047173277,-0.027097559,0.012983402,5.3725886,-8.121132,-0.2825158
5.70042,4.67673,0.043977484,-0.026032293,0.012983402,5.386954,-8.111555,-0.29688102
5.7003007,4.676718,0.043977484,-0.026032293,0.012983402,5.386954,-8.111555,-0.29688102
5.700299,4.6766243,0.040781688,-0.02496703,0.014048667,5.353435,-8.09719,-0.33997664
5.700297,4.6765313,0.040781688,-0.02496703,0.014048667,5.353435,-8.09719,-0.33997664
5.7003083,4.6764336,0.037585896,-0.02496703,0.014048667,5.3438582,-8.0924015,-0.36870706
5.70032,4.6763363,0.037585896,-0.02496703,0.014048667,5.3438582,-8.0924015,-0.36870706
5.7002764,4.6762443,0.032259572,-0.023901764,0.014048667,5.391742,-8.1163435,-0.33997664
5.700233,4.676152,0.032259572,-0.023901764,0.014048667,5.391742,-8.1163435,-0.33997664
5.7001925,4.676059,0.02906378,-0.021771235,0.016179197,5.3725886,-8.063671,-0.35913026
5.7001524,4.675965,0.02906378,-0.021771235,0.016179197,5.3725886,-8.063671,-0.35913026
5.700043,4.676023,0.023737457,-0.021771235,0.01724446,5.3678,-8.0684595,-0.2825158
5.699934,4.67608,0.023737457,-0.021771235,0.01724446,5.3678,-8.0684595,-0.2825158
5.699871,4.675986,0.017345872,-0.020705972,0.016179197,5.4061074,-8.0684595,-0.35913026
5.699807,4.6758914,0.017345872,-0.020705972,0.016179197,5.4061074,-8.0684595,-0.35913026
5.6997385,4.675794,0.010954284,-0.020705972,0.01724446,5.3486466,-8.054094,-0.31603462
5.69967,4.675698,0.010954284,-0.020705972,0.01724446,5.3486466,-8.054094,-0.31603462
5.699634,4.6755815,0.0066932263,-0.019640706,0.018309724,5.377377,-8.058883,-0.36870706
5.699599,4.6754665,0.0066932263,-0.019640706,0.018309724,5.377377,-8.058883,-0.36870706
5.6996202,4.6753354,0.00030163955,-0.019640706,0.022570781,5.329493,-8.058883,-0.39743748
5.6996417,4.675203,0.00030163955,-0.019640706,0.022570781,5.329493,-8.058883,-0.39743748
5.699611,4.6752934,-0.0039594183,-0.018575443,0.02683184,5.33907,-8.039729,-0.2633622
5.6995797,4.6753845,-0.0039594183,-0.018575443,0.02683184,5.33907,-8.039729,-0.2633622
5.6994753,4.675397,-0.008220476,-0.018575443,0.02896237,5.386954,-8.054094,-0.2873042
5.699371,4.6754093,-0.008220476,-0.018575443,0.02896237,5.386954,-8.054094,-0.2873042
5.699413,4.6752653,-0.012481534,-0.018575443,0.032158162,5.3199162,-8.063671,-0.4309563
5.699454,4.6751237,-0.012481534,-0.018575443,0.032158162,5.3199162,-8.063671,-0.4309563
5.6995645,4.674997,-0.01674259,-0.018575443,0.033223428,5.329493,-8.101978,-0.32561144
5.6996746,4.67487,-0.01674259,-0.018575443,0.033223428,5.329493,-8.101978,-0.32561144
5.699754,4.6747236,-0.021003649,-0.020705972,0.035353955,5.3342814,-8.106767,-0.34476504
5.6998334,4.6745777,-0.021003649,-0.020705972,0.035353955,5.3342814,-8.106767,-0.34476504
5.6999793,4.674616,-0.025264706,-0.021771235,0.037484486,5.3007627,-8.1163435,-0.2777274
5.7001247,4.674655,-0.025264706,-0.021771235,0.037484486,5.3007627,-8.1163435,-0.2777274
5.700252,4.674706,-0.029525764,-0.021771235,0.039615013,5.3103395,-8.135497,-0.2633622
5.7003784,4.674757,-0.029525764,-0.021771235,0.039615013,5.3103395,-8.135497,-0.2633622
5.7005577,4.6747293,-0.032721557,-0.020705972,0.039615013,5.315128,-8.135497,-0.30166942
5.700736,4.6747036,-0.032721557,-0.020705972,0.039615013,5.315128,-8.135497,-0.30166942
5.7008724,4.6747417,-0.034852087,-0.021771235,0.037484486,5.3199162,-8.145074,-0.2777274
5.701008,4.67478,-0.034852087,-0.021771235,0.037484486,5.3199162,-8.145074,-0.2777274
5.701153,4.674804,-0.03804788,-0.0228365,0.03641922,5.33907,-8.149862,-0.29209262
5.701296,4.6748314,-0.03804788,-0.0228365,0.03641922,5.33907,-8.149862,-0.29209262
5.701471,4.6747885,-0.04017841,-0.023901764,0.03428869,5.2959743,-8.159439,-0.30166942
5.701645,4.674748,-0.04017841,-0.023901764,0.03428869,5.2959743,-8.159439,-0.30166942
5.701704,4.674809,-0.04017841,-0.02496703,0.033223428,5.3438582,-8.149862,-0.25378537
5.7017617,4.67487,-0.04017841,-0.02496703,0.033223428,5.3438582,-8.149862,-0.25378537
5.7019334,4.6748247,-0.041243672,-0.026032293,0.031092897,5.291186,-8.149862,-0.30166942
5.7021046,4.6747813,-0.041243672,-0.026032293,0.031092897,5.291186,-8.149862,-0.30166942
5.7021594,4.674838,-0.041243672,-0.029228088,0.030027634,5.3438582,-8.149862,-0.2681506
5.702213,4.674896,-0.041243672,-0.029228088,0.030027634,5.3438582,-8.149862,-0.2681506
5.7022533,4.6749535,-0.041243672,-0.031358615,0.023636047,5.33907,-8.154651,-0.21547815
5.7022924,4.675009,-0.041243672,-0.031358615,0.023636047,5.33907,-8.154651,-0.21547815
5.70227,4.675059,-0.04017841,-0.033489145,0.019374989,5.391742,-8.159439,-0.24420857
5.702248,4.6751094,-0.04017841,-0.033489145,0.019374989,5.391742,-8.159439,-0.24420857
5.7022214,4.67516,-0.03804788,-0.035619672,0.015113931,5.391742,-8.1402855,-0.22026655
5.702195,4.675211,-0.03804788,-0.035619672,0.015113931,5.391742,-8.1402855,-0.22026655
5.702245,4.675264,-0.03698262,-0.036684938,0.008722344,5.329493,-8.159439,-0.24420857
5.7022953,4.675317,-0.03698262,-0.036684938,0.008722344,5.329493,-8.159439,-0.24420857
5.702263,4.675145,-0.033786822,-0.036684938,0.005526551,5.3582234,-8.149862,-0.31124622
5.7022276,4.6749735,-0.033786822,-0.036684938,0.005526551,5.3582234,-8.149862,-0.31124622
5.7023535,4.6748686,-0.029525764,-0.037750203,-0.0008650357,5.291186,-8.09719,-0.31124622
5.7024813,4.6747656,-0.029525764,-0.037750203,-0.0008650357,5.291186,-8.09719,-0.31124622
5.7025948,4.674779,-0.0284605,-0.03881547,-0.004060829,5.2959743,-8.1163435,-0.29209262
5.702708,4.6747937,-0.0284605,-0.03881547,-0.004060829,5.2959743,-8.1163435,-0.29209262
5.702788,4.6746492,-0.026329972,-0.03881547,-0.006191358,5.3103395,-8.121132,-0.320823
5.70287,4.6745048,-0.026329972,-0.03881547,-0.006191358,5.3103395,-8.121132,-0.320823
5.7027626,4.674375,-0.02313418,-0.036684938,-0.0072566224,5.3486466,-8.1163435,-0.320823
5.702653,4.674246,-0.02313418,-0.036684938,-0.0072566224,5.3486466,-8.1163435,-0.320823
5.702644,4.6740813,-0.022068914,-0.036684938,-0.008321887,5.305551,-8.078036,-0.36870706
5.7026353,4.673917,-0.022068914,-0.036684938,-0.008321887,5.305551,-8.078036,-0.36870706
5.7025175,4.6738005,-0.019938385,-0.035619672,-0.0072566224,5.3247046,-8.078036,-0.320823
5.7023983,4.673685,-0.019938385,-0.035619672,-0.0072566224,5.3247046,-8.078036,-0.320823
5.7023926,4.6737638,-0.017807856,-0.03455441,-0.0051260935,5.305551,-8.078036,-0.29688102
5.702387,4.6738415,-0.017807856,-0.03455441,-0.0051260935,5.305551,-8.078036,-0.29688102
5.702428,4.6736917,-0.015677327,-0.033489145,-0.0029955646,5.2768207,-8.09719,-0.39264908
5.7024684,4.6735415,-0.015677327,-0.033489145,-0.0029955646,5.2768207,-8.09719,-0.39264908
5.7023816,4.6734133,-0.013546798,-0.03242388,0.0012654932,5.3342814,-8.0445175,-0.34955344
5.702295,4.673286,-0.013546798,-0.03242388,0.0012654932,5.3342814,-8.0445175,-0.34955344
5.70222,4.6731577,-0.012481534,-0.030293351,0.0065918155,5.3342814,-8.054094,-0.34955344
5.7021437,4.6730285,-0.012481534,-0.030293351,0.0065918155,5.3342814,-8.054094,-0.34955344
5.702098,4.672885,-0.012481534,-0.030293351,0.009787609,5.315128,-8.0445175,-0.35434186
5.7020535,4.6727486,-0.012481534,-0.030293351,0.009787609,5.315128,-8.0445175,-0.35434186
5.70207,4.672595,-0.012481534,-0.029228088,0.015113931,5.2863975,-8.039729,-0.38307226
5.7020855,4.6724467,-0.012481534,-0.029228088,0.015113931,5.2863975,-8.039729,-0.38307226
5.7020197,4.6723237,-0.0114162695,-0.029228088,0.021505518,5.3199162,-8.078036,-0.33039984
5.70195,4.6722016,-0.0114162695,-0.029228088,0.021505518,5.3199162,-8.078036,-0.33039984
5.701874,4.6720963,-0.009285741,-0.028162822,0.027897105,5.3247046,-8.034941,-0.34476504
5.7017965,4.6719913,-0.009285741,-0.028162822,0.027897105,5.3247046,-8.034941,-0.34476504
5.701722,4.671889,-0.009285741,-0.026032293,0.033223428,5.377377,-8.039729,-0.36870706
5.701647,4.6717863,-0.009285741,-0.026032293,0.033223428,5.377377,-8.039729,-0.36870706
5.7016573,4.671644,-0.0114162695,-0.023901764,0.035353955,5.3342814,-8.09719,-0.34955344
5.7016664,4.6714973,-0.0114162695,-0.023901764,0.035353955,5.3342814,-8.09719,-0.34955344
5.7016664,4.6714973,-0.0114162695,-0.023901764,0.035353955,5.3342814,-8.09719,-0.34955344
5.70161,4.6713624,-0.0114162695,-0.023901764,0.03641922,5.391742,-8.087613,-0.38307226
5.7014837,4.671166,-0.012481534,-0.0228365,0.03641922,5.4204726,-8.078036,-0.36870706
5.7013946,4.6710744,-0.012481534,-0.0228365,0.03641922,5.4204726,-8.078036,-0.36870706
5.7013173,4.6709824,-0.013546798,-0.020705972,0.03854975,5.45878,-8.039729,-0.39743748
5.7013173,4.6709824,-0.013546798,-0.020705972,0.03854975,5.45878,-8.039729,-0.39743748
5.7012153,4.670862,-0.013546798,-0.020705972,0.03854975,5.45878,-8.039729,-0.39743748
5.701105,4.6709433,-0.014612063,-0.019640706,0.03854975,5.4300494,-8.09719,-0.2873042
5.7010355,4.670986,-0.014612063,-0.019640706,0.03854975,5.4204726,-8.09719,-0.29688102
5.700964,4.67103,-0.014612063,-0.019640706,0.03854975,5.4204726,-8.09719,-0.29688102
5.700865,4.670983,-0.014612063,-0.018575443,0.03854975,5.4204726,-8.073248,-0.34476504
5.700766,4.6709366,-0.014612063,-0.018575443,0.03854975,5.4204726,-8.073248,-0.34476504
5.7006664,4.670918,-0.014612063,-0.018575443,0.039615013,5.4683566,-8.087613,-0.33039984
5.700568,4.6709,-0.014612063,-0.018575443,0.039615013,5.4683566,-8.087613,-0.33039984
5.700488,4.670931,-0.013546798,-0.019640706,0.041745543,5.48751,-8.111555,-0.29209262
5.700409,4.670962,-0.013546798,-0.019640706,0.041745543,5.48751,-8.111555,-0.29209262
5.700348,4.6710157,-0.009285741,-0.019640706,0.044941336,5.463568,-8.078036,-0.2681506
5.7002873,4.6710696,-0.009285741,-0.019640706,0.044941336,5.463568,-8.078036,-0.2681506
5.7002096,4.671107,-0.0028941538,-0.020705972,0.0460066,5.4539914,-8.09719,-0.30166942
5.700133,4.6711445,-0.0028941538,-0.020705972,0.0460066,5.4539914,-8.09719,-0.30166942
5.7000823,4.671216,0.003497433,-0.0228365,0.04813713,5.4683566,-8.078036,-0.25378537
5.700032,4.6712875,0.003497433,-0.0228365,0.04813713,5.4683566,-8.078036,-0.25378537
5.6999507,4.6713142,0.010954284,-0.026032293,0.05133292,5.5018754,-8.0924015,-0.30645782
5.699872,4.67134,0.010954284,-0.026032293,0.05133292,5.5018754,-8.0924015,-0.30645782
5.699819,4.6714144,0.018411135,-0.027097559,0.054528717,5.482722,-8.039729,-0.24899697
5.6997633,4.671492,0.018411135,-0.027097559,0.054528717,5.482722,-8.039729,-0.24899697
5.69971,4.6715674,0.025867987,-0.027097559,0.059855036,5.511452,-7.9966335,-0.23463176
5.699656,4.6716423,0.025867987,-0.027097559,0.059855036,5.511452,-7.9966335,-0.23463176
5.69965,4.671762,0.03545537,-0.027097559,0.0641161,5.5018754,-8.082825,-0.16759412
5.699643,4.6718817,0.03545537,-0.027097559,0.0641161,5.5018754,-8.082825,-0.16759412
5.699644,4.6720095,0.04291222,-0.028162822,0.06837715,5.482722,-8.082825,-0.17717093
5.699644,4.6721373,0.04291222,-0.028162822,0.06837715,5.482722,-8.082825,-0.17717093
5.6996393,4.672265,0.05036907,-0.031358615,0.073703475,5.4922986,-8.058883,-0.18195933
5.699634,4.672392,0.05036907,-0.031358615,0.073703475,5.4922986,-8.058883,-0.18195933
5.699633,4.672524,0.056760654,-0.031358615,0.08009506,5.473145,-8.082825,-0.21547815
5.6996317,4.672656,0.056760654,-0.031358615,0.08009506,5.473145,-8.082825,-0.21547815
5.699608,4.6727686,0.06315224,-0.03242388,0.087551914,5.506664,-8.078036,-0.24899697
5.6995835,4.6728806,0.06315224,-0.03242388,0.087551914,5.506664,-8.078036,-0.24899697
5.69959,4.67302,0.06954383,-0.03242388,0.09607403,5.463568,-8.063671,-0.22505496
5.6995964,4.673159,0.06954383,-0.03242388,0.09607403,5.463568,-8.063671,-0.22505496
5.699626,4.6733146,0.075935416,-0.033489145,0.103530884,5.439626,-8.0684595,-0.21547815
5.6996546,4.673469,0.075935416,-0.033489145,0.103530884,5.439626,-8.0684595,-0.21547815
5.699663,4.6736054,0.08019647,-0.033489145,0.11311826,5.4539914,-8.058883,-0.24899697
5.6996703,4.673742,0.08019647,-0.033489145,0.11311826,5.4539914,-8.058883,-0.24899697
5.6996703,4.673742,0.08019647,-0.033489145,0.11311826,5.4539914,-8.058883,-0.24899697
5.6996746,4.673981,0.08552279,-0.03455441,0.12483617,5.4300494,-8.010999,-0.2681506
5.6996746,4.673981,0.089783855,-0.03455441,0.13442355,5.449203,-8.0684595,-0.2777274
5.6996922,4.6742163,0.089783855,-0.03455441,0.13442355,5.449203,-8.0684595,-0.2777274
5.699711,4.6743364,0.09297965,-0.035619672,0.1450762,5.473145,-8.030152,-0.2633622
5.6997294,4.674455,0.09297965,-0.035619672,0.1450762,5.473145,-8.030152,-0.2633622
5.699808,4.6746283,0.09830597,-0.035619672,0.15892464,5.4061074,-8.030152,-0.22026655
5.699886,4.674802,0.09830597,-0.035619672,0.15892464,5.4061074,-8.030152,-0.22026655
5.699958,4.6749654,0.104697555,-0.036684938,0.17383833,5.425261,-8.001422,-0.22505496
5.7000284,4.675127,0.104697555,-0.036684938,0.17383833,5.425261,-8.001422,-0.22505496
5.7000794,4.6752286,0.11002388,-0.036684938,0.18875204,5.410896,-8.015787,-0.29209262
5.7001295,4.6753283,0.11002388,-0.036684938,0.18875204,5.410896,-8.015787,-0.29209262
5.700219,4.6754885,0.1153502,-0.036684938,0.204731,5.4061074,-7.967903,-0.23942018
5.700307,4.675647,0.1153502,-0.036684938,0.204731,5.4061074,-7.967903,-0.23942018
5.7004595,4.6758513,0.12174179,-0.03455441,0.22390577,5.3582234,-8.020576,-0.22984336
5.700608,4.6760535,0.12174179,-0.03455441,0.22390577,5.3582234,-8.020576,-0.22984336
5.700739,4.676234,0.12813337,-0.031358615,0.2441458,5.3582234,-7.991845,-0.25378537
5.7008677,4.676411,0.12813337,-0.031358615,0.2441458,5.3582234,-7.991845,-0.25378537
5.7010098,4.6765814,0.13132916,-0.028162822,0.26651633,5.4061074,-7.953538,-0.23942018
5.70115,4.6767488,0.13132916,-0.028162822,0.26651633,5.4061074,-7.953538,-0.23942018
5.7013006,4.676882,0.1366555,-0.02496703,0.2888869,5.3582234,-7.9152308,-0.2777274
5.701444,4.6770086,0.1366555,-0.02496703,0.2888869,5.3582234,-7.9152308,-0.2777274
5.701644,4.67721,0.14091654,-0.021771235,0.3123227,5.386954,-7.97748,-0.22505496
5.701849,4.6774163,0.14091654,-0.021771235,0.3123227,5.386954,-7.97748,-0.22505496
5.7020483,4.6775336,0.14624287,-0.018575443,0.33575854,5.363012,-7.920019,-0.29688102
5.7022467,4.677649,0.14624287,-0.018575443,0.33575854,5.363012,-7.920019,-0.29688102
5.7024875,4.677857,0.15050393,-0.015379649,0.36025962,5.3725886,-7.920019,-0.21547815
5.70273,4.678066,0.15050393,-0.015379649,0.36025962,5.3725886,-7.920019,-0.21547815
5.7030106,4.678297,0.15476498,-0.011118591,0.38689122,5.363012,-7.9248075,-0.18674773
5.7032905,4.678528,0.15476498,-0.011118591,0.38689122,5.363012,-7.9248075,-0.18674773
5.7036595,4.6788063,0.16115656,-0.0047270046,0.41565338,5.305551,-7.9631147,-0.12449849
5.704025,4.679083,0.16115656,-0.0047270046,0.41565338,5.305551,-7.9631147,-0.12449849
5.70444,4.6793766,0.16861342,0.0027298466,0.44974184,5.3103395,-7.967903,-0.033518825
5.704851,4.6796684,0.16861342,0.0027298466,0.44974184,5.3103395,-7.967903,-0.033518825
5.7053256,4.6799827,0.17926607,0.011251962,0.4891566,5.2528787,-7.9583263,0.07182605
5.705797,4.6802955,0.17926607,0.011251962,0.4891566,5.2528787,-7.9583263,0.07182605
5.706322,4.680631,0.1931145,0.021904606,0.53283244,5.2145715,-7.967903,0.05267244
5.7068434,4.680965,0.1931145,0.021904606,0.53283244,5.2145715,-7.967903,0.05267244
5.7074237,4.681327,0.20909347,0.03468778,0.58076936,5.1666875,-7.9487495,0.023942016
5.7079997,4.681687,0.20909347,0.03468778,0.58076936,5.1666875,-7.9487495,0.023942016
5.7086535,4.682073,0.22720297,0.047470953,0.6382936,5.0421886,-7.9152308,0.1436521
5.7093105,4.6824617,0.22720297,0.047470953,0.6382936,5.0421886,-7.9152308,0.1436521
5.71013,4.6828127,0.24531247,0.060254127,0.7011442,4.084508,-7.9008656,0.08140286
5.710954,4.6831656,0.24531247,0.060254127,0.7011442,4.084508,-7.9008656,0.08140286
5.711845,4.6835494,0.2623567,0.062384658,0.7735822,4.285621,-7.881712,0.08619126
5.711845,4.6835494,0.2623567,0.062384658,0.7735822,4.285621,-7.881712,0.08619126
5.713543,4.6842813,0.2623567,0.062384658,0.7735822,4.285621,-7.881712,0.08619126
5.7145348,4.684766,0.27940091,0.05918886,0.8630644,4.8362875,-8.020576,0.2825158
5.715495,4.685232,0.2953799,0.06877624,0.9600035,5.0996494,-8.135497,0.36391866
5.716462,4.6857014,0.2953799,0.06877624,0.9600035,5.0996494,-8.135497,0.36391866
5.717512,4.686199,0.31135887,0.08368994,1.0558773,5.2241483,-8.197746,0.33039984
5.718569,4.6867,0.31135887,0.08368994,1.0558773,5.2241483,-8.197746,0.33039984
5.7197366,4.687227,0.32946837,0.10179944,1.1528164,5.0996494,-8.264784,0.36870706
5.720898,4.6877513,0.32946837,0.10179944,1.1528164,5.0996494,-8.264784,0.36870706
5.722172,4.6883063,0.34757784,0.12203947,1.251886,4.999093,-8.269572,0.39743748
5.723445,4.688862,0.34757784,0.12203947,1.251886,4.999093,-8.269572,0.39743748
5.724836,4.689445,0.36568734,0.14441001,1.3520209,4.8219223,-8.317456,0.45968673
5.726184,4.69001,0.36568734,0.14441001,1.3520209,4.8219223,-8.317456,0.45968673
5.7277017,4.6906195,0.38699263,0.16784583,1.4596125,4.6016555,-8.389283,0.47884035
5.729281,4.6912537,0.38699263,0.16784583,1.4596125,4.6016555,-8.389283,0.47884035
5.730903,4.6919117,0.41149372,0.19234692,1.5746611,4.6495395,-8.441956,0.7038953
5.732517,4.692565,0.41149372,0.19234692,1.5746611,4.6495395,-8.441956,0.7038953
5.734257,4.693262,0.4391906,0.21897852,1.6971666,4.596867,-8.537724,0.7757214
5.7360053,4.693962,0.4391906,0.21897852,1.6971666,4.596867,-8.537724,0.7757214
5.7378726,4.6947074,0.47114852,0.24561015,1.8292593,4.6255975,-8.585608,0.8379706
5.7397404,4.6954517,0.47114852,0.24561015,1.8292593,4.6255975,-8.585608,0.8379706
5.741752,4.696249,0.50630224,0.27330703,1.9688089,4.5920787,-8.595184,0.8619126
5.743761,4.6970444,0.50630224,0.27330703,1.9688089,4.5920787,-8.595184,0.8619126
5.745915,4.6978946,0.5435865,0.3010039,2.1158154,4.5920787,-8.571242,0.90500826
5.748063,4.6987414,0.5435865,0.3010039,2.1158154,4.5920787,-8.571242,0.90500826
5.7503858,4.6996474,0.5830013,0.32976604,2.2734747,4.4580035,-8.537724,0.9864111
5.7526846,4.7005424,0.5830013,0.32976604,2.2734747,4.4580035,-8.537724,0.9864111
5.755173,4.7014923,0.6202856,0.3606587,2.4385905,4.189853,-8.403648,0.93373865
5.7576604,4.70244,0.6202856,0.3606587,2.4385905,4.189853,-8.403648,0.93373865
5.760347,4.7034273,0.6575698,0.39048612,2.6122286,3.6727054,-8.561666,1.0295067
5.763033,4.704412,0.6575698,0.39048612,2.6122286,3.6727054,-8.561666,1.0295067
5.7658944,4.70545,0.6948541,0.41498718,2.794389,3.9695864,-8.571242,0.8762778
5.7687554,4.7064853,0.6948541,0.41498718,2.794389,3.9695864,-8.571242,0.8762778
5.771768,4.707581,0.7310731,0.438423,2.9850712,4.548983,-8.537724,0.7086837
5.7747784,4.7086735,0.7310731,0.438423,2.9850712,4.548983,-8.537724,0.7086837
5.777936,4.7098093,0.76090044,0.4661199,3.1725578,4.783615,-8.384495,0.6703765
5.7811027,4.7109456,0.76090044,0.4661199,3.1725578,4.783615,-8.384495,0.6703765
5.784407,4.712108,0.78646684,0.4991431,3.3557832,4.831499,-8.1881695,0.7230489
5.7877216,4.71327,0.78646684,0.4991431,3.3557832,4.831499,-8.1881695,0.7230489
5.791151,4.714434,0.8077721,0.531101,3.5336823,4.9559975,-7.843405,0.41180268
5.7945814,4.7155914,0.8077721,0.531101,3.5336823,4.9559975,-7.843405,0.41180268
5.7981553,4.716705,0.82055527,0.563059,3.7083857,5.0757074,-7.565677,0.02873042
5.801727,4.7178106,0.82055527,0.563059,3.7083857,5.0757074,-7.565677,0.02873042
5.8054724,4.7189026,0.82481635,0.5907558,3.878828,4.9464207,-7.273585,-0.14844051
5.8092976,4.7200117,0.82481635,0.5907558,3.878828,4.9464207,-7.273585,-0.14844051
5.8131475,4.7210526,0.82055527,0.61419165,4.0492706,4.975151,-7.0245876,-0.4213795
5.8170724,4.72211,0.82055527,0.61419165,4.0492706,4.975151,-7.0245876,-0.4213795
5.8211775,4.7231565,0.81096786,0.63656217,4.2197127,4.9224787,-6.8761473,-0.5267244
5.825282,4.7241983,0.81096786,0.63656217,4.2197127,4.9224787,-6.8761473,-0.5267244
5.829568,4.725218,0.79498893,0.65893275,4.390155,4.9081135,-6.703765,-0.7613561
5.8338494,4.7262306,0.79498893,0.65893275,4.390155,4.9081135,-6.703765,-0.7613561
5.838309,4.727222,0.7715531,0.67704225,4.5616627,4.88896,-6.555324,-0.842759
5.842768,4.728208,0.7715531,0.67704225,4.5616627,4.88896,-6.555324,-0.842759
5.847408,4.729161,0.7406604,0.6919559,4.73317,4.9703627,-6.3685765,-1.0486604
5.8520565,4.73011,0.7406604,0.6919559,4.73317,4.9703627,-6.3685765,-1.0486604
5.856848,4.7310104,0.70124567,0.70367384,4.900417,4.951209,-6.339846,-1.1444284
5.861663,4.73191,0.70124567,0.70367384,4.900417,4.951209,-6.339846,-1.1444284
5.866613,4.7327633,0.654374,0.7090002,5.063402,5.2768207,-6.2345014,-1.13964
5.871568,4.733612,0.654374,0.7090002,5.063402,5.2768207,-6.2345014,-1.13964
5.87669,4.7344065,0.6043066,0.7185876,5.2168,5.391742,-6.1243677,-1.340753
5.87669,4.7344065,0.6043066,0.7185876,5.2168,5.391742,-6.1243677,-1.340753
5.882287,4.7352695,0.6043066,0.7185876,5.2168,5.391742,-6.1243677,-1.340753
5.882287,4.7352695,0.6043066,0.7185876,5.2168,5.391742,-6.1243677,-1.340753
5.882287,4.7352695,0.6043066,0.7185876,5.2168,5.391742,-6.1243677,-1.340753
5.882287,4.7352695,0.5467823,0.7292402,5.3638067,5.434838,-6.172252,-1.4030021
5.882287,4.7352695,0.5467823,0.7292402,5.3638067,5.434838,-6.172252,-1.4030021
5.882287,4.7352695,0.5467823,0.7292402,5.3638067,5.434838,-6.172252,-1.4030021
5.919108,4.740235,0.48286644,0.73989284,5.501226,5.6407394,-5.9998693,-1.5562311
5.92415,4.7406735,0.34544733,0.7569371,5.764346,5.386954,-5.9902925,-1.70946
5.926078,4.740841,0.34544733,0.7569371,5.764346,5.386954,-5.9902925,-1.70946
5.926078,4.740841,0.34544733,0.7569371,5.764346,5.386954,-5.9902925,-1.70946
5.941284,4.7420673,0.20696294,0.7590676,6.0146832,6.0956373,-5.731719,-1.7238252
5.9473667,4.742424,0.20696294,0.7590676,6.0146832,6.0956373,-5.731719,-1.7238252
5.9533606,4.742703,0.14198181,0.7707855,6.1393194,5.93762,-5.770026,-1.6328455
5.9593964,4.74298,0.14198181,0.7707855,6.1393194,5.93762,-5.770026,-1.6328455
5.9655375,4.7432013,0.07913121,0.7952866,6.2660856,5.971139,-5.6790466,-1.4652514
5.971697,4.7434196,0.07913121,0.7952866,6.2660856,5.971139,-5.6790466,-1.4652514
5.977996,4.7435856,0.020541664,0.83044034,6.391787,5.884948,-5.602432,-1.4508862
5.9842753,4.7437468,0.020541664,0.83044034,6.391787,5.884948,-5.602432,-1.4508862
5.990708,4.7438674,-0.032721557,0.8794425,6.5185533,5.707777,-5.683835,-1.292869
5.997102,4.743983,-0.032721557,0.8794425,6.5185533,5.707777,-5.683835,-1.292869
6.003644,4.744066,-0.0795932,0.93483627,6.6485157,5.8083334,-5.6407394,-1.1875241
6.0101867,4.7441454,-0.0795932,0.93483627,6.6485157,5.8083334,-5.6407394,-1.1875241
6.0168624,4.744195,-0.122203775,0.9987521,6.7806087,6.0285997,-5.6646814,-1.2018893
6.023531,4.74424,-0.122203775,0.9987521,6.7806087,6.0285997,-5.6646814,-1.2018893
6.030352,4.7442493,-0.16481435,1.0754511,6.9148316,5.6790466,-5.592855,-1.3024458
6.037166,4.744253,-0.16481435,1.0754511,6.9148316,5.6790466,-5.592855,-1.3024458
6.044118,4.7442284,-0.20422913,1.1564113,7.049055,5.559336,-5.4922986,-1.3694834
6.0510693,4.744197,-0.20422913,1.1564113,7.049055,5.559336,-5.4922986,-1.3694834
6.058154,4.744131,-0.24470918,1.232045,7.1779523,5.386954,-5.5497594,-1.4796166
6.0652313,4.744058,-0.24470918,1.232045,7.1779523,5.386954,-5.5497594,-1.4796166
6.072524,4.7439437,-0.2862545,1.3023524,7.3015227,5.2768207,-5.3342814,-1.6998832
6.079715,4.743823,-0.2862545,1.3023524,7.3015227,5.2768207,-5.3342814,-1.6998832
6.0869875,4.743666,-0.32993034,1.3673337,7.4197674,5.3199162,-5.233725,-1.6950948
6.094333,4.7434998,-0.32993034,1.3673337,7.4197674,5.3199162,-5.233725,-1.6950948
6.101869,4.743293,-0.3757367,1.4355105,7.534816,5.3678,-5.0517654,-1.6184803
6.1092253,4.743082,-0.3757367,1.4355105,7.534816,5.3678,-5.0517654,-1.6184803
6.116762,4.742816,-0.42473888,1.5004916,7.636016,4.7884035,-5.0757074,-1.6328455
6.124351,4.7425394,-0.42473888,1.5004916,7.636016,4.7884035,-5.0757074,-1.6328455
6.132203,4.742203,-0.47054526,1.558016,7.725498,4.2760444,-5.0996494,-1.5849615
6.139878,4.7418656,-0.47054526,1.558016,7.725498,4.2760444,-5.0996494,-1.5849615
6.147485,4.741491,-0.5131558,1.6048876,7.8117843,3.940856,-4.8506527,-1.4173675
6.1552377,4.7410984,-0.5131558,1.6048876,7.8117843,3.940856,-4.8506527,-1.4173675
6.163016,4.740661,-0.55470115,1.6453676,7.8970056,3.4859576,-4.8602295,-1.283292
6.1707697,4.740215,-0.55470115,1.6453676,7.8970056,3.4859576,-4.8602295,-1.283292
6.1787243,4.7397137,-0.59092015,1.6794561,7.983292,2.9161377,-4.8602295,-1.163582
6.1865745,4.7392087,-0.59092015,1.6794561,7.983292,2.9161377,-4.8602295,-1.163582
6.1946244,4.738659,-0.62926966,1.7050225,8.070643,2.8443117,-4.7740383,-0.89064306
6.202609,4.7381024,-0.62926966,1.7050225,8.070643,2.8443117,-4.7740383,-0.89064306
6.2106543,4.7375035,-0.6665539,1.7295235,8.15693,2.480393,-4.9464207,-0.6847417
6.2186737,4.736896,-0.6665539,1.7295235,8.15693,2.480393,-4.9464207,-0.6847417
6.2268133,4.7362313,-0.70170766,1.7497636,8.246412,1.9632454,-4.865018,-0.6799533
6.2349753,4.735553,-0.70170766,1.7497636,8.246412,1.9632454,-4.865018,-0.6799533
6.2432156,4.7348347,-0.7379266,1.7625468,8.329503,1.661576,-4.9224787,-0.4405331
6.2514534,4.7341046,-0.7379266,1.7625468,8.329503,1.661576,-4.9224787,-0.4405331
6.2597775,4.7333117,-0.7773414,1.7657425,8.407268,1.2066777,-5.12838,-0.41180268
6.268099,4.7325077,-0.7773414,1.7657425,8.407268,1.2066777,-5.12838,-0.41180268
6.27649,4.731655,-0.81569093,1.7540246,8.481835,1.0199299,-5.2241483,-0.30645782
0.0016936203,4.7307925,-0.81569093,1.7540246,8.481835,1.0199299,-5.2241483,-0.30645782
0.010167284,4.7298484,-0.856171,1.7305888,8.550013,0.49799395,-5.4300494,-0.35913026
0.018727401,4.7288837,-0.856171,1.7305888,8.550013,0.49799395,-5.4300494,-0.35913026
0.027445443,4.727861,-0.8945205,1.6922393,8.616059,0.521936,-5.722142,-0.33997664
0.035858743,4.7268634,-0.8945205,1.6922393,8.616059,0.521936,-5.722142,-0.33997664
0.044366878,4.725805,-0.9339353,1.6411066,8.676779,0.2681506,-5.9280434,-0.29209262
0.052936178,4.7247286,-0.9339353,1.6411066,8.676779,0.2681506,-5.9280434,-0.29209262
0.06167759,4.7235765,-0.96908903,1.5771908,8.727912,-0.047884032,-6.0285997,-0.30166942
0.07032012,4.7224274,-0.96908903,1.5771908,8.727912,-0.047884032,-6.0285997,-0.30166942
0.07908807,4.7212214,-0.9999817,1.5004916,8.772653,-0.24899697,-6.0142345,-0.31603462
0.08775448,4.720018,-0.9999817,1.5004916,8.772653,-0.24899697,-6.0142345,-0.31603462
0.09654534,4.718766,-1.0276786,1.4152706,8.808872,-0.45489833,-5.913678,-0.30645782
0.10508258,4.717538,-1.0276786,1.4152706,8.808872,-0.45489833,-5.913678,-0.30645782
0.11395651,4.7162447,-1.0511143,1.3236578,8.839765,-0.6799533,-6.0381765,-0.18195933
0.123086244,4.714896,-1.0511143,1.3236578,8.839765,-0.6799533,-6.0381765,-0.18195933
0.1320313,4.713626,-1.0670934,1.2235229,8.858939,-1.0630256,-6.009446,-0.12449849
0.14098781,4.712336,-1.0670934,1.2235229,8.858939,-1.0630256,-6.009446,-0.12449849
0.14998041,4.7110934,-1.0809418,1.1180618,8.871722,-1.6376339,-5.971139,0.0047884034
0.15903454,4.7098317,-1.0809418,1.1180618,8.871722,-1.6376339,-5.971139,0.0047884034
0.16802251,4.708595,-1.0915945,1.006209,8.875983,-2.2266076,-5.9041014,0.20111294
0.17702663,4.707346,-1.0915945,1.006209,8.875983,-2.2266076,-5.9041014,0.20111294
0.1860142,4.70612,-1.0990512,0.88689935,8.871722,-2.006341,-5.961562,0.31124622
0.19499835,4.704887,-1.0990512,0.88689935,8.871722,-2.006341,-5.961562,0.31124622
0.20396565,4.70366,-1.1065081,0.77398133,8.857874,-2.135628,-5.947197,0.36391866
0.2129293,4.702427,-1.1065081,0.77398133,8.857874,-2.135628,-5.947197,0.36391866
0.22187386,4.701191,-1.113965,0.6738465,8.833373,-2.27928,-5.9424086,0.32561144
0.23082405,4.699948,-1.113965,0.6738465,8.833373,-2.27928,-5.9424086,0.32561144
0.23971963,4.698715,-1.1214218,0.5811685,8.792893,-2.5139117,-5.932832,0.45968673
0.24860303,4.6974773,-1.1214218,0.5811685,8.792893,-2.5139117,-5.932832,0.45968673
0.25743073,4.696251,-1.1278135,0.49168622,8.732173,-2.3080103,-5.995081,0.36391866
0.2662624,4.6950183,-1.1278135,0.49168622,8.732173,-2.3080103,-5.995081,0.36391866
0.27500266,4.693794,-1.1331397,0.40966088,8.653343,-2.4133554,-6.0621185,0.33039984
0.28374672,4.692563,-1.1331397,0.40966088,8.653343,-2.4133554,-6.0621185,0.33039984
0.2924116,4.6913266,-1.1363355,0.33402708,8.555339,-2.5809495,-6.157887,0.19153613
0.30107236,4.690087,-1.1363355,0.33402708,8.555339,-2.5809495,-6.157887,0.19153613
0.30970067,4.688844,-1.1352702,0.26052386,8.437095,-2.5330653,-6.2584434,0.06703765
0.31825587,4.6876097,-1.1352702,0.26052386,8.437095,-2.5330653,-6.2584434,0.06703765
0.3266987,4.686375,-1.129944,0.18808587,8.301806,-2.7724855,-6.2871737,-0.0047884034
0.33508,4.6851463,-1.129944,0.18808587,8.301806,-2.7724855,-6.2871737,-0.0047884034
0.34333563,4.683917,-1.1214218,0.11564788,8.15693,-3.4859576,-6.2632318,-0.10055647
0.35163194,4.6826763,-1.1214218,0.11564788,8.15693,-3.4859576,-6.2632318,-0.10055647
0.35975933,4.6814804,-1.1065081,0.035753045,8.003532,-4.003105,-6.397307,-0.05746084
0.36789438,4.680278,-1.1065081,0.035753045,8.003532,-4.003105,-6.397307,-0.05746084
0.3758734,4.679136,-1.0873333,-0.048402846,7.850134,-4.256891,-6.493075,0.10534488
0.38384348,4.677992,-1.0873333,-0.048402846,7.850134,-4.256891,-6.493075,0.10534488
0.3916982,4.676895,-1.0649629,-0.1251019,7.6956706,-4.76925,-6.5122285,0.23463176
0.39952087,4.6758003,-1.0649629,-0.1251019,7.6956706,-4.76925,-6.5122285,0.23463176
0.40716094,4.674759,-1.0404618,-0.19008303,7.534816,-5.1906295,-6.6606693,0.30645782
0.4148156,4.6737127,-1.0404618,-0.19008303,7.534816,-5.1906295,-6.6606693,0.30645782
0.42235604,4.6727104,-1.0138301,-0.24654204,7.3654385,-5.2289367,-6.8522053,0.2681506
0.42979833,4.6717186,-1.0138301,-0.24654204,7.3654385,-5.2289367,-6.8522053,0.2681506
0.43712947,4.67076,-0.9882638,-0.2923484,7.18967,-5.60722,-7.0820484,0.20590134
0.44445258,4.6698008,-0.9882638,-0.2923484,7.18967,-5.60722,-7.0820484,0.20590134
0.45160788,4.668885,-0.9595016,-0.33069792,7.0117707,-6.0142345,-7.2592196,0.20111294
0.45874837,4.66797,-0.9595016,-0.33069792,7.0117707,-6.0142345,-7.2592196,0.20111294
0.46572304,4.6671066,-0.9307395,-0.3647864,6.826415,-5.961562,-7.6135616,0.22984336
0.47266904,4.666246,-0.9307395,-0.3647864,6.826415,-5.961562,-7.6135616,0.22984336
0.4794329,4.665429,-0.90197736,-0.39354852,6.6346674,-6.220136,-7.9726915,0.19153613
0.48620936,4.664611,-0.90197736,-0.39354852,6.6346674,-6.220136,-7.9726915,0.19153613
0.4927842,4.6638336,-0.8689542,-0.42018014,6.4333324,-6.622362,-8.197746,0.08140286
0.49934533,4.663059,-0.8689542,-0.42018014,6.4333324,-6.622362,-8.197746,0.08140286
0.5057276,4.6623397,-0.8316699,-0.45000756,6.2277365,-7.1155677,-8.480263,0.1388637
0.51209664,4.6616216,-0.8316699,-0.45000756,6.2277365,-7.1155677,-8.480263,0.1388637
0.5182448,4.6609735,-0.78905934,-0.47770444,6.021075,-7.5848308,-8.767567,0.2825158
0.5244168,4.6603246,-0.78905934,-0.47770444,6.021075,-7.5848308,-8.767567,0.2825158
0.53037024,4.6597457,-0.74325293,-0.50646657,5.8144135,-8.173804,-9.059659,0.39743748
0.53631103,4.659169,-0.74325293,-0.50646657,5.8144135,-8.173804,-9.059659,0.39743748
0.54206526,4.6586657,-0.69425076,-0.53096765,5.606687,-8.542512,-9.198523,0.5746084
0.54780734,4.6581645,-0.69425076,-0.53096765,5.606687,-8.542512,-9.198523,0.5746084
0.5533451,4.6577244,-0.6463139,-0.54268557,5.401091,-9.126697,-9.409213,0.6655881
0.558882,4.6572866,-0.6463139,-0.54268557,5.401091,-9.126697,-9.409213,0.6655881
0.5642097,4.656896,-0.6005075,-0.5384245,5.1891036,-9.715671,-9.715671,0.6464345
0.56953686,4.6565075,-0.6005075,-0.5384245,5.1891036,-9.715671,-9.715671,0.6464345
0.5746441,4.6561522,-0.56109273,-0.52244556,4.966463,-10.290278,-10.103531,0.5650316
0.57975066,4.655799,-0.56109273,-0.52244556,4.966463,-10.290278,-10.103531,0.5650316
0.5846305,4.655467,-0.52700424,-0.50327075,4.7342353,-10.97502,-10.491392,0.34955344
0.589515,4.6551356,-0.52700424,-0.50327075,4.7342353,-10.97502,-10.491392,0.34955344
0.594159,4.654827,-0.4961116,-0.48622653,4.4998775,-11.525687,-10.927136,0.16759412
0.59881645,4.6545196,-0.4961116,-0.48622653,4.4998775,-11.525687,-10.927136,0.16759412
0.6032215,4.654234,-0.46521893,-0.4755739,4.260193,-11.923124,-11.319786,-0.16280572
0.60767084,4.653947,-0.46521893,-0.4755739,4.260193,-11.923124,-11.319786,-0.16280572
0.6119188,4.6536803,-0.4364568,-0.4691823,4.023704,-12.339716,-11.798626,-0.45010993
0.6160664,4.653422,-0.4364568,-0.4691823,4.023704,-12.339716,-11.798626,-0.45010993
0.61998904,4.6531906,-0.40769464,-0.47024757,3.7904112,-12.559982,-12.186486,-0.7134721
0.62390405,4.652961,-0.40769464,-0.47024757,3.7904112,-12.559982,-12.186486,-0.7134721
0.6276529,4.6527753,-0.37467146,-0.47983494,3.5539224,-12.861651,-12.603078,-0.79966336
0.6313682,4.652592,-0.37467146,-0.47983494,3.5539224,-12.861651,-12.603078,-0.79966336
0.63483834,4.652467,-0.3341914,-0.4936834,3.3174338,-13.148955,-12.885593,-0.90500826
0.6382979,4.652343,-0.3341914,-0.4936834,3.3174338,-13.148955,-12.885593,-0.90500826
0.6415638,4.6523004,-0.2830587,-0.52138025,3.080945,-13.129802,-13.129802,-0.92895025
0.64480346,4.65226,-0.2830587,-0.52138025,3.080945,-13.129802,-13.129802,-0.92895025
0.6478188,4.6523256,-0.22020811,-0.5586645,2.8412604,-13.01488,-13.244724,-0.8762778
0.65115905,4.6524014,-0.22020811,-0.5586645,2.8412604,-13.01488,-13.244724,-0.8762778
0.6535841,4.6525745,-0.14031327,-0.60340565,2.597315,-12.885593,-13.306973,-0.8379706
0.6567898,4.6528063,-0.14031327,-0.60340565,2.597315,-12.885593,-13.306973,-0.8379706
0.65908045,4.6531234,-0.046569996,-0.6556036,2.351239,-12.607866,-13.239936,-0.80924016
0.66149724,4.65346,-0.046569996,-0.6556036,2.351239,-12.607866,-13.239936,-0.80924016
0.66149724,4.65346,-0.046569996,-0.6556036,2.351239,-12.607866,-13.239936,-0.80924016
0.66149724,4.65346,-0.046569996,-0.6556036,2.351239,-12.607866,-13.239936,-0.80924016
0.66149724,4.65346,-0.046569996,-0.6556036,2.351239,-12.607866,-13.239936,-0.80924016
0.6706876,4.655554,0.061021715,-0.7120626,2.1030324,-12.23437,-13.110648,-0.81402856
0.6723433,4.656117,0.18033133,-0.7685216,1.8516299,-11.750742,-12.861651,-0.8379706
0.67445517,4.6571627,0.31029359,-0.8249806,1.5949011,-11.271901,-12.5025215,-0.79487497
0.67445517,4.6571627,0.31029359,-0.8249806,1.5949011,-11.271901,-12.5025215,-0.79487497
0.67745835,4.6592765,0.44877797,-0.88250494,1.3307155,-10.67814,-12.186486,-0.79966336
0.6786637,4.660492,0.5915234,-0.9368334,1.0590731,-10.132261,-11.793838,-0.79008657
0.6798909,4.661731,0.5915234,-0.9368334,1.0590731,-10.132261,-11.793838,-0.79008657
0.680817,4.6631365,0.7385299,-0.9847703,0.7821043,-9.758766,-11.324574,-0.91937345
0.6817377,4.6645412,0.7385299,-0.9847703,0.7821043,-9.758766,-11.324574,-0.91937345
0.6823821,4.6661386,0.8823406,-1.0263156,0.50407034,-9.591172,-10.793061,-1.043872
0.6830217,4.6677337,0.8823406,-1.0263156,0.50407034,-9.591172,-10.793061,-1.043872
0.6833954,4.6695156,1.020825,-1.0657305,0.22923209,-9.581595,-10.376471,-1.1109096
0.6837665,4.6713023,1.020825,-1.0657305,0.22923209,-9.581595,-10.376471,-1.1109096
0.68387043,4.673259,1.149722,-1.10408,-0.036018763,-9.586384,-9.911995,-1.3311762
0.6839709,4.675215,1.149722,-1.10408,-0.036018763,-9.586384,-9.911995,-1.3311762
0.68383074,4.677322,1.2679664,-1.1424295,-0.28529066,-9.739613,-9.504981,-1.4173675
0.6836869,4.679432,1.2679664,-1.1424295,-0.28529066,-9.739613,-9.504981,-1.4173675
0.6833161,4.68169,1.3734275,-1.180779,-0.5153878,-9.600749,-9.251195,-1.3311762
0.682942,4.683946,1.3734275,-1.180779,-0.5153878,-9.600749,-9.251195,-1.3311762
0.68236536,4.6863313,1.4671708,-1.216998,-0.7188533,-9.461885,-9.021352,-1.2689269
0.6817851,4.688713,1.4671708,-1.216998,-0.7188533,-9.461885,-9.021352,-1.2689269
0.68102556,4.6912055,1.5481309,-1.2478906,-0.89994824,-9.26556,-8.686164,-1.1971009
0.6802619,4.693694,1.5481309,-1.2478906,-0.89994824,-9.26556,-8.686164,-1.1971009
0.6793424,4.696273,1.6173731,-1.2723917,-1.0554769,-9.136273,-8.42759,-1.163582
0.6784188,4.6988463,1.6173731,-1.2723917,-1.0554769,-9.136273,-8.42759,-1.163582
0.67737067,4.701494,1.673832,-1.2873054,-1.1833086,-8.954314,-8.1163435,-1.0151415
0.6763186,4.7041364,1.673832,-1.2873054,-1.1833086,-8.954314,-8.1163435,-1.0151415
0.6751636,4.7068334,1.717508,-1.293697,-1.2887697,-8.8777,-7.867347,-0.8762778
0.6740047,4.709524,1.717508,-1.293697,-1.2887697,-8.8777,-7.867347,-0.8762778
0.67276573,4.7122364,1.7494658,-1.2905012,-1.3697299,-8.762778,-7.551312,-0.8475474
0.6715204,4.7149487,1.7494658,-1.2905012,-1.3697299,-8.762778,-7.551312,-0.8475474
0.6702195,4.7176776,1.7697059,-1.2798486,-1.4272542,-8.676587,-7.3166804,-0.6751649
0.6689148,4.7204,1.7697059,-1.2798486,-1.4272542,-8.676587,-7.3166804,-0.6751649
0.667576,4.7231207,1.7792933,-1.261739,-1.4613426,-8.585608,-7.086837,-0.5410896
0.6662295,4.7258434,1.7792933,-1.261739,-1.4613426,-8.585608,-7.086837,-0.5410896
0.66487485,4.7285357,1.7792933,-1.2361727,-1.4719952,-8.494628,-6.8905125,-0.46926352
0.6635206,4.7312136,1.7792933,-1.2361727,-1.4719952,-8.494628,-6.8905125,-0.46926352
0.6621707,4.7338686,1.7697059,-1.2020843,-1.4634731,-8.461109,-6.71813,-0.31603462
0.66081643,4.736519,1.7697059,-1.2020843,-1.4634731,-8.461109,-6.71813,-0.31603462
0.6594964,4.739125,1.7526617,-1.1626694,-1.4315152,-8.39886,-6.5840545,-0.110133275
0.6581719,4.7417274,1.7526617,-1.1626694,-1.4315152,-8.39886,-6.5840545,-0.110133275
0.65689546,4.7442713,1.7260301,-1.1179284,-1.382513,-8.456321,-6.483498,0
0.6556162,4.746809,1.7260301,-1.1179284,-1.382513,-8.456321,-6.483498,0
0.65440094,4.7492757,1.6919416,-1.0710567,-1.317532,-8.350976,-6.3542113,0.038307227
0.6531831,4.7517366,1.6919416,-1.0710567,-1.317532,-8.350976,-6.3542113,0.038307227
0.6520435,4.754117,1.649331,-1.0220546,-1.2387023,-8.226477,-6.291962,0.07182605
0.6509016,4.7564926,1.649331,-1.0220546,-1.2387023,-8.226477,-6.291962,0.07182605
0.64984196,4.758787,1.597133,-0.9709219,-1.1524159,-8.082825,-6.2105594,0.12449849
0.64878845,4.7610593,1.597133,-0.9709219,-1.1524159,-8.082825,-6.2105594,0.12449849
0.6478252,4.7632413,1.536413,-0.9187239,-1.0586727,-8.010999,-6.2009826,0.15801731
0.64685994,4.76542,1.536413,-0.9187239,-1.0586727,-8.010999,-6.2009826,0.15801731
0.6459956,4.767491,1.4661056,-0.86652595,-0.95853776,-7.819463,-6.1770406,0.20111294
0.6451295,4.769559,1.4661056,-0.86652595,-0.95853776,-7.819463,-6.1770406,0.20111294
0.64436823,4.771516,1.3872759,-0.8111322,-0.85520715,-7.714118,-6.1243677,0.320823
0.64360553,4.7734694,1.3872759,-0.8111322,-0.85520715,-7.714118,-6.1243677,0.320823
0.6429429,4.775309,1.3020548,-0.75573844,-0.75613755,-7.6135616,-6.1387334,0.47405192
0.64227897,4.7771463,1.3020548,-0.75573844,-0.75613755,-7.6135616,-6.1387334,0.47405192
0.641713,4.778856,1.2104421,-0.7003447,-0.6602637,-7.551312,-6.143522,0.521936
0.64114404,4.780568,1.2104421,-0.7003447,-0.6602637,-7.551312,-6.143522,0.521936
0.64067227,4.7821455,1.1145682,-0.6449509,-0.5675857,-7.493851,-6.2009826,0.6368576
0.64019847,4.783725,1.1145682,-0.6449509,-0.5675857,-7.493851,-6.2009826,0.6368576
0.63981223,4.785169,1.0144334,-0.59168774,-0.48236457,-7.513005,-6.26802,0.6655881
0.63942534,4.786612,1.0144334,-0.59168774,-0.48236457,-7.513005,-6.26802,0.6655881
0.6391168,4.7879276,0.912168,-0.5384245,-0.40460026,-7.469909,-6.4068837,0.81881696
0.6388077,4.7892423,0.912168,-0.5384245,-0.40460026,-7.469909,-6.4068837,0.81881696
0.6385715,4.790431,0.81309843,-0.48622653,-0.3321623,-7.52737,-6.588843,0.94810385
0.63833493,4.7916183,0.81309843,-0.48622653,-0.3321623,-7.52737,-6.588843,0.94810385
0.6381639,4.7926908,0.7182899,-0.43828964,-0.26505062,-7.52737,-6.766014,1.0965444
0.63799304,4.7937613,0.7182899,-0.43828964,-0.26505062,-7.52737,-6.766014,1.0965444
0.63788134,4.7947264,0.63306874,-0.391418,-0.20326528,-7.5800424,-6.9527617,1.2545617
0.6377696,4.7956915,0.63306874,-0.391418,-0.20326528,-7.5800424,-6.9527617,1.2545617
0.6377164,4.796556,0.557435,-0.34987268,-0.145741,-7.675811,-7.120356,1.316811
0.6376633,4.79742,0.557435,-0.34987268,-0.145741,-7.675811,-7.120356,1.316811
0.6376678,4.798206,0.4956496,-0.31471896,-0.08821672,-7.728483,-7.4124484,1.3599066
0.6376722,4.798993,0.4956496,-0.31471896,-0.08821672,-7.728483,-7.4124484,1.3599066
0.63772726,4.799713,0.44558218,-0.2838263,-0.03282297,-7.800309,-7.6135616,1.508347
0.6377824,4.800434,0.44558218,-0.2838263,-0.03282297,-7.800309,-7.6135616,1.508347
0.6378925,4.801106,0.4061674,-0.25825995,0.022570781,-7.8865004,-7.785944,1.5658079
0.63800323,4.8017817,0.4061674,-0.25825995,0.022570781,-7.8865004,-7.785944,1.5658079
0.6381687,4.802419,0.3816663,-0.24121572,0.07796454,-7.9248075,-7.9008656,1.5801731
0.6383353,4.803062,0.3816663,-0.24121572,0.07796454,-7.9248075,-7.9008656,1.5801731
0.6385517,4.803698,0.36781788,-0.23056307,0.13016249,-7.9152308,-8.087613,1.6424223
0.63876456,4.804324,0.36781788,-0.23056307,0.13016249,-7.9152308,-8.087613,1.6424223
0.639027,4.804942,0.36036104,-0.22630201,0.18022992,-7.8146744,-8.12592,1.5897499
0.63928777,4.805556,0.36036104,-0.22630201,0.18022992,-7.8146744,-8.12592,1.5897499
0.6395943,4.8061786,0.35716522,-0.22843254,0.22497103,-7.752425,-8.169016,1.5705963
0.6398999,4.8068,0.35716522,-0.22843254,0.22497103,-7.752425,-8.169016,1.5705963
0.6402411,4.8074365,0.35609996,-0.2326936,0.26438582,-7.575254,-8.159439,1.5801731
0.640581,4.8080707,0.35609996,-0.2326936,0.26438582,-7.575254,-8.159439,1.5801731
0.64094573,4.808712,0.3582305,-0.23695466,0.29314795,-7.469909,-8.2169,1.532289
0.641315,4.8093615,0.3582305,-0.23695466,0.29314795,-7.469909,-8.2169,1.532289
0.64169514,4.8100142,0.35929576,-0.24121572,0.3123227,-7.3166804,-8.207323,1.508347
0.6420748,4.810667,0.35929576,-0.24121572,0.3123227,-7.3166804,-8.207323,1.508347
0.6424663,4.8113184,0.35716522,-0.24547677,0.32084483,-7.2783732,-8.178593,1.4508862
0.64285773,4.8119707,0.35716522,-0.24547677,0.32084483,-7.2783732,-8.178593,1.4508862
0.6432503,4.8126163,0.35396942,-0.24654204,0.31977957,-7.2831616,-8.207323,1.4077905
0.64364403,4.8132634,0.35396942,-0.24654204,0.31977957,-7.2831616,-8.207323,1.4077905
0.64402616,4.8139086,0.3465126,-0.24547677,0.3091269,-7.240066,-8.154651,1.436521
0.6444062,4.81455,0.3465126,-0.24547677,0.3091269,-7.240066,-8.154651,1.436521
0.64476705,4.815179,0.3369252,-0.24334624,0.2888869,-7.177817,-8.231265,1.3742718
0.6451283,4.8158083,0.3369252,-0.24334624,0.2888869,-7.177817,-8.231265,1.3742718
0.64546543,4.816416,0.32414204,-0.23801991,0.26225528,-7.1490865,-8.207323,1.340753
0.6458045,4.817026,0.32414204,-0.23801991,0.26225528,-7.1490865,-8.207323,1.340753
0.646118,4.817602,0.3070978,-0.23162833,0.22710156,-7.216124,-8.293514,1.2689269
0.64643127,4.8181777,0.3070978,-0.23162833,0.22710156,-7.216124,-8.293514,1.2689269
0.6467202,4.8187017,0.2889883,-0.22523674,0.18449098,-7.2592196,-8.379706,1.1109096
0.6470089,4.819224,0.2889883,-0.22523674,0.18449098,-7.2592196,-8.379706,1.1109096
0.64725864,4.8197045,0.26874828,-0.21777989,0.13761935,-7.2448545,-8.403648,1.043872
0.64750606,4.820181,0.26874828,-0.21777989,0.13761935,-7.2448545,-8.403648,1.043872
0.6477107,4.8206143,0.24850826,-0.21245357,0.088617176,-7.2448545,-8.461109,0.9816227
0.64791477,4.8210473,0.24850826,-0.21245357,0.088617176,-7.2448545,-8.461109,0.9816227
0.6480677,4.8214126,0.22720297,-0.20712726,0.03854975,-7.086837,-8.528147,0.8714894
0.64822,4.821776,0.22720297,-0.20712726,0.03854975,-7.086837,-8.528147,0.8714894
0.64829725,4.8220615,0.20696294,-0.20180093,-0.01151768,-7.015011,-8.504205,0.6991069
0.64837384,4.8223457,0.20696294,-0.20180093,-0.01151768,-7.015011,-8.504205,0.6991069
0.6483871,4.822591,0.18778819,-0.19753987,-0.064780906,-6.9719152,-8.451532,0.62728083
0.6483998,4.8228364,0.18778819,-0.19753987,-0.064780906,-6.9719152,-8.451532,0.62728083
0.64833814,4.823042,0.17180921,-0.19221355,-0.11910939,-6.8091097,-8.389283,0.5602432
0.6482761,4.823248,0.17180921,-0.19221355,-0.11910939,-6.8091097,-8.389283,0.5602432
0.6481571,4.82343,0.16009131,-0.18795249,-0.17343788,-6.766014,-8.298303,0.49320555
0.6480379,4.823612,0.16009131,-0.18795249,-0.17343788,-6.766014,-8.298303,0.49320555
0.6478631,4.8237724,0.15050393,-0.1815609,-0.22563584,-6.6606693,-8.178593,0.44532153
0.64768755,4.8239336,0.15050393,-0.1815609,-0.22563584,-6.6606693,-8.178593,0.44532153
0.6474526,4.8240743,0.1451776,-0.17516932,-0.27570325,-6.517017,-8.09719,0.4213795
0.6472177,4.824216,0.1451776,-0.17516932,-0.27570325,-6.517017,-8.09719,0.4213795
0.6469333,4.8243437,0.14411235,-0.16558194,-0.32470542,-6.397307,-7.9822683,0.4309563
0.646649,4.824472,0.14411235,-0.16558194,-0.32470542,-6.397307,-7.9822683,0.4309563
0.6463189,4.8245907,0.1451776,-0.15599456,-0.37157705,-6.3925185,-7.9152308,0.36391866
0.6459924,4.8247085,0.1451776,-0.15599456,-0.37157705,-6.3925185,-7.9152308,0.36391866
0.6456455,4.824826,0.14624287,-0.14427665,-0.41099185,-6.4020953,-7.795521,0.4357447
0.64529896,4.8249435,0.14624287,-0.14427665,-0.41099185,-6.4020953,-7.795521,0.4357447
0.6449281,4.82506,0.15050393,-0.13149348,-0.4482761,-6.3446345,-7.6614456,0.47884035
0.6445567,4.8251777,0.15050393,-0.13149348,-0.4482761,-6.3446345,-7.6614456,0.47884035
0.6441485,4.8252783,0.15369973,-0.11764504,-0.48023403,-6.291962,-7.608773,0.41180268
0.64374113,4.8253803,0.15369973,-0.11764504,-0.48023403,-6.291962,-7.608773,0.41180268
0.6433141,4.825472,0.15583025,-0.10060081,-0.5047351,-6.3111157,-7.603985,0.4261679
0.64288676,4.8255644,0.15583025,-0.10060081,-0.5047351,-6.3111157,-7.603985,0.4261679
0.6424453,4.825645,0.15583025,-0.08355658,-0.5271057,-6.2728086,-7.517793,0.4357447
0.6420039,4.8257256,0.15583025,-0.08355658,-0.5271057,-6.2728086,-7.517793,0.4357447
0.6415555,4.8257914,0.15050393,-0.06544708,-0.5409541,-6.26802,-7.536947,0.48841715
0.6411073,4.825857,0.15050393,-0.06544708,-0.5409541,-6.26802,-7.536947,0.48841715
0.640653,4.8258967,0.14091654,-0.043076526,-0.5505415,-6.277597,-7.551312,0.49320555
0.640653,4.8258967,0.14091654,-0.043076526,-0.5505415,-6.277597,-7.551312,0.49320555
0.63972485,4.825961,0.12813337,-0.015379649,-0.55799836,-6.315904,-7.6470804,0.47884035
0.63923633,4.8259625,0.12813337,-0.015379649,-0.55799836,-6.315904,-7.6470804,0.47884035
0.63879174,4.8259273,0.11002388,0.011251962,-0.5622594,-6.3925185,-7.7093296,0.45968673
0.63831085,4.82589,0.11002388,0.011251962,-0.5622594,-6.3925185,-7.7093296,0.45968673
0.63831085,4.82589,0.11002388,0.011251962,-0.5622594,-6.3925185,-7.7093296,0.45968673
0.63831085,4.82589,0.11002388,0.011251962,-0.5622594,-6.3925185,-7.7093296,0.45968673
0.6369275,4.8256464,0.06315224,0.06451519,-0.5750426,-6.493075,-7.896077,0.50757074
0.6364672,4.8255277,0.06315224,0.06451519,-0.5750426,-6.493075,-7.896077,0.50757074
0.6359973,4.82536,0.034390103,0.09221206,-0.58249944,-6.5984197,-7.9726915,0.50757074
0.6355312,4.8251944,0.034390103,0.09221206,-0.58249944,-6.5984197,-7.9726915,0.50757074
0.63506484,4.824991,0.005627962,0.116713144,-0.59315205,-6.703765,-7.9822683,0.5554548
0.63459975,4.8247895,0.005627962,0.116713144,-0.59315205,-6.703765,-7.9822683,0.5554548
0.63411665,4.824537,-0.022068914,0.1390837,-0.6080658,-6.751649,-8.130709,0.5554548
0.6336344,4.824286,-0.022068914,0.1390837,-0.6080658,-6.751649,-8.130709,0.5554548
0.6331365,4.823997,-0.048700526,0.1539974,-0.62724054,-6.766014,-8.192958,0.5746084
0.63263834,4.8237085,-0.048700526,0.1539974,-0.62724054,-6.766014,-8.192958,0.5746084
0.63212276,4.8233957,-0.07320161,0.16358478,-0.6528069,-6.8091097,-8.240842,0.63206923
0.63160855,4.823084,-0.07320161,0.16358478,-0.6528069,-6.8091097,-8.240842,0.63206923
0.63106376,4.822751,-0.092376366,0.16678058,-0.6847648,-6.766014,-8.274361,0.6703765
0.6305196,4.822419,-0.092376366,0.16678058,-0.6847648,-6.766014,-8.274361,0.6703765
0.62997615,4.822089,-0.092376366,0.16678058,-0.6847648,-6.766014,-8.274361,0.6703765
0.6294039,4.8217607,-0.104094274,0.16465004,-0.72204906,-6.6989765,-8.350976,0.7757214
0.6288314,4.8214335,-0.104094274,0.16465004,-0.72204906,-6.6989765,-8.350976,0.7757214
0.62822163,4.821135,-0.11155113,0.15932372,-0.7689207,-6.603208,-8.446744,0.90500826
0.62761533,4.820841,-0.11155113,0.15932372,-0.7689207,-6.603208,-8.446744,0.90500826
0.62692624,4.8206253,-0.11581218,0.15186687,-0.8253797,-6.555324,-8.470686,1.0773908
0.6262366,4.8204093,-0.11581218,0.15186687,-0.8253797,-6.555324,-8.470686,1.0773908
0.6254526,4.82022,-0.11581218,0.14334476,-0.8882303,-6.5936313,-8.528147,1.2066777
0.6246722,4.820031,-0.11581218,0.14334476,-0.8882303,-6.5936313,-8.528147,1.2066777
0.6238122,4.819849,-0.11155113,0.13695318,-0.9606683,-6.7468605,-8.5473,1.3599066
0.6229514,4.819667,-0.11155113,0.13695318,-0.9606683,-6.7468605,-8.5473,1.3599066
0.6220145,4.8194833,-0.10515954,0.13162684,-1.0448242,-6.9479733,-8.671799,1.3982137
0.6210801,4.8193,-0.10515954,0.13162684,-1.0448242,-6.9479733,-8.671799,1.3982137
0.620076,4.8190947,-0.09983322,0.12736578,-1.1385674,-7.3166804,-8.78672,1.3455414
0.61907315,4.81889,-0.09983322,0.12736578,-1.1385674,-7.3166804,-8.78672,1.3455414
0.6179856,4.81866,-0.09557216,0.12417,-1.2355065,-7.651869,-8.963891,1.2497733
0.61690557,4.8184314,-0.09557216,0.12417,-1.2355065,-7.651869,-8.963891,1.2497733
0.61569965,4.818146,-0.09663743,0.118843675,-1.3377719,-7.920019,-9.174581,0.9911995
0.6145276,4.8178706,-0.09663743,0.118843675,-1.3377719,-7.920019,-9.174581,0.9911995
0.6131629,4.817549,-0.10302901,0.10819103,-1.4453636,-8.197746,-9.481039,0.8810662
0.61195385,4.8172665,-0.10302901,0.10819103,-1.4453636,-8.197746,-9.481039,0.8810662
0.6105727,4.8169355,-0.11581218,0.09327733,-1.5572164,-8.480263,-9.768343,0.6799533
0.60916924,4.8166018,-0.11581218,0.09327733,-1.5572164,-8.480263,-9.768343,0.6799533
0.60764384,4.8162475,-0.1360522,0.07090677,-1.6711997,-8.647857,-9.983821,0.61291564
0.6061175,4.8158946,-0.1360522,0.07090677,-1.6711997,-8.647857,-9.983821,0.61291564
0.60445404,4.8155036,-0.15948802,0.047470953,-1.7894441,-8.66701,-10.295067,0.4165911
0.6027948,4.8151155,-0.15948802,0.047470953,-1.7894441,-8.66701,-10.295067,0.4165911
0.6009948,4.8146944,-0.18825017,0.020839343,-1.9119495,-8.724471,-10.5440645,0.22505496
0.59900916,4.8142333,-0.22127336,-0.005792269,-2.0408466,-8.690952,-10.6877165,0.18195933
0.5971041,4.813793,-0.22127336,-0.005792269,-2.0408466,-8.690952,-10.6877165,0.18195933
0.59517694,4.8133507,-0.22127336,-0.005792269,-2.0408466,-8.690952,-10.6877165,0.18195933
0.59309685,4.8128753,-0.25536183,-0.033489145,-2.1793308,-8.652645,-10.769119,0.0047884034
0.5910119,4.812401,-0.25536183,-0.033489145,-2.1793308,-8.652645,-10.769119,0.0047884034
0.58876127,4.8118944,-0.2894503,-0.060120758,-2.3231416,-8.571242,-10.821792,-0.06703765
0.58653015,4.8113947,-0.2894503,-0.060120758,-2.3231416,-8.571242,-10.821792,-0.06703765
0.5841374,4.8108687,-0.3256693,-0.08994816,-2.4754744,-8.480263,-10.802638,-0.04309563
0.5817533,4.8103466,-0.3256693,-0.08994816,-2.4754744,-8.480263,-10.802638,-0.04309563
0.5792046,4.809799,-0.360823,-0.1187103,-2.6363294,-8.322245,-10.702082,-0.0047884034
0.5766551,4.8092546,-0.360823,-0.1187103,-2.6363294,-8.322245,-10.702082,-0.0047884034
0.57393575,4.808685,-0.3938462,-0.14640717,-2.8035758,-8.154651,-10.630256,0.033518825
0.5712129,4.808118,-0.3938462,-0.14640717,-2.8035758,-8.154651,-10.630256,0.033518825
0.568334,4.807536,-0.42580414,-0.17623459,-2.9761486,-8.015787,-10.390836,0.10055647
0.56545126,4.806957,-0.42580414,-0.17623459,-2.9761486,-8.015787,-10.390836,0.10055647
0.56239593,4.806364,-0.4566968,-0.20499672,-3.155113,-7.728483,-10.25676,0.320823
0.55934274,4.805774,-0.4566968,-0.20499672,-3.155113,-7.728483,-10.25676,0.320823
0.55611765,4.8051825,-0.48332843,-0.2326936,-3.3383386,-7.603985,-10.180145,0.51714754
0.5528942,4.804595,-0.48332843,-0.2326936,-3.3383386,-7.603985,-10.180145,0.51714754
0.5494955,4.804018,-0.505699,-0.25825995,-3.5247598,-7.369353,-10.065224,0.7422025
0.54609406,4.803444,-0.505699,-0.25825995,-3.5247598,-7.369353,-10.065224,0.7422025
0.5425149,4.802892,-0.52700424,-0.28276104,-3.7122464,-7.249643,-9.9550905,0.9576807
0.5389319,4.802342,-0.52700424,-0.28276104,-3.7122464,-7.249643,-9.9550905,0.9576807
0.5351429,4.801823,-0.54511374,-0.30619684,-3.9018636,-7.1395097,-9.888053,1.2641385
0.5313543,4.801305,-0.54511374,-0.30619684,-3.9018636,-7.1395097,-9.888053,1.2641385
0.5273664,4.8007917,-0.5589622,-0.32750213,-4.088285,-7.053318,-9.830592,1.4173675
0.52337974,4.800278,-0.5589622,-0.32750213,-4.088285,-7.053318,-9.830592,1.4173675
0.51921165,4.799757,-0.57281065,-0.34454638,-4.2651186,-7.120356,-9.763555,1.5275006
0.5150448,4.7992353,-0.57281065,-0.34454638,-4.2651186,-7.120356,-9.763555,1.5275006
0.51071054,4.798705,-0.58452857,-0.35946006,-4.4302344,-7.1730285,-9.725247,1.6041151
0.5063772,4.7981744,-0.58452857,-0.35946006,-4.4302344,-7.1730285,-9.725247,1.6041151
0.50188667,4.7976413,-0.5919854,-0.37117797,-4.5825677,-7.1155677,-9.691729,1.685518
0.49739307,4.7971077,-0.5919854,-0.37117797,-4.5825677,-7.1155677,-9.691729,1.685518
0.49277255,4.79657,-0.59731174,-0.38076535,-4.717856,-7.0964136,-9.591172,1.7190368
0.4881485,4.796031,-0.59731174,-0.38076535,-4.717856,-7.0964136,-9.591172,1.7190368
0.48340076,4.795496,-0.6005075,-0.38715693,-4.83397,-7.005434,-9.543288,1.8674773
0.4786541,4.7949605,-0.6005075,-0.38715693,-4.83397,-7.005434,-9.543288,1.8674773
0.47380847,4.794423,-0.60157275,-0.38715693,-4.930909,-6.9048777,-9.442732,1.9153614
0.46895903,4.793885,-0.60157275,-0.38715693,-4.930909,-6.9048777,-9.442732,1.9153614
0.46403334,4.79335,-0.59944224,-0.38183063,-5.011869,-6.9000893,-9.409213,2.0925324
0.4591038,4.7928147,-0.59944224,-0.38183063,-5.011869,-6.9000893,-9.409213,2.0925324
0.45410323,4.792283,-0.5941159,-0.37224326,-5.07685,-6.7564373,-9.370906,2.2361844
0.4491038,4.7917523,-0.5941159,-0.37224326,-5.07685,-6.7564373,-9.370906,2.2361844
0.44404778,4.7912216,-0.5898549,-0.35626426,-5.127983,-6.694188,-9.399636,2.4229321
0.43899298,4.7906914,-0.5898549,-0.35626426,-5.127983,-6.694188,-9.399636,2.4229321
0.43390185,4.790159,-0.5855938,-0.3381548,-5.162071,-6.5696893,-9.476251,2.4708161
0.42881203,4.7896276,-0.5855938,-0.3381548,-5.162071,-6.5696893,-9.476251,2.4708161
0.4236972,4.7890944,-0.5802675,-0.31471896,-5.184442,-6.4643445,-9.68694,2.5139117
0.41858393,4.7885613,-0.5802675,-0.31471896,-5.184442,-6.4643445,-9.68694,2.5139117
0.4134555,4.788019,-0.578137,-0.28702208,-5.2025514,-6.4260373,-9.854534,2.456451
0.4083286,4.7874775,-0.578137,-0.28702208,-5.2025514,-6.4260373,-9.854534,2.456451
0.40319213,4.7869244,-0.57920223,-0.2593252,-5.214269,-6.4882865,-10.04607,2.4947581
0.39805707,4.786371,-0.57920223,-0.2593252,-5.214269,-6.4882865,-10.04607,2.4947581
0.39292243,4.785803,-0.582398,-0.23482412,-5.222791,-6.4787097,-10.19451,2.27928
0.38779414,4.785236,-0.582398,-0.23482412,-5.222791,-6.4787097,-10.19451,2.27928
0.38265502,4.7846527,-0.5877243,-0.2145841,-5.229183,-6.4020953,-10.271125,2.1308396
0.3775221,4.784072,-0.5877243,-0.2145841,-5.229183,-6.4020953,-10.271125,2.1308396
0.3723961,4.783471,-0.59518117,-0.19753987,-5.232379,-6.3350577,-10.357317,1.8722657
0.367271,4.7828717,-0.59518117,-0.19753987,-5.232379,-6.3350577,-10.357317,1.8722657
0.36215064,4.7822533,-0.6037033,-0.18582197,-5.23664,-6.157887,-10.453085,1.5993267
0.3570308,4.7816358,-0.6037033,-0.18582197,-5.23664,-6.157887,-10.453085,1.5993267
0.35191628,4.7809935,-0.6143559,-0.17943038,-5.2419662,-5.961562,-10.472239,1.283292
0.34680197,4.780353,-0.6143559,-0.17943038,-5.2419662,-5.961562,-10.472239,1.283292
0.34168953,4.779689,-0.6250086,-0.17943038,-5.2472925,-5.650316,-10.433931,1.0055647
0.33657694,4.779027,-0.6250086,-0.17943038,-5.2472925,-5.650316,-10.433931,1.0055647
0.33144894,4.778344,-0.63566124,-0.1815609,-5.2558146,-5.257667,-10.371682,0.81402856
0.3263463,4.777666,-0.63566124,-0.1815609,-5.2558146,-5.257667,-10.371682,0.81402856
0.32120845,4.7769604,-0.64737916,-0.1847567,-5.2717934,-4.8027687,-10.218452,0.62728083
0.31607568,4.7762585,-0.64737916,-0.1847567,-5.2717934,-4.8027687,-10.218452,0.62728083
0.31091532,4.7755365,-0.654836,-0.18688722,-5.29736,-4.429273,-10.103531,0.50757074
0.30575523,4.7748184,-0.654836,-0.18688722,-5.29736,-4.429273,-10.103531,0.50757074
0.30055428,4.7740746,-0.6612276,-0.19008303,-5.3303833,-4.146757,-9.974244,0.35434186
0.29535466,4.773335,-0.6612276,-0.19008303,-5.3303833,-4.146757,-9.974244,0.35434186
0.290108,4.772575,-0.670815,-0.19008303,-5.3697977,-3.8594532,-9.873688,0.29688102
0.28486362,4.77182,-0.670815,-0.19008303,-5.3697977,-3.8594532,-9.873688,0.29688102
0.2795428,4.7710304,-0.6793371,-0.19114828,-5.419865,-3.4476504,-9.763555,0.18674773
0.27422723,4.7702475,-0.6793371,-0.19114828,-5.419865,-3.4476504,-9.763555,0.18674773
0.26881933,4.76944,-0.6867939,-0.19327882,-5.482716,-3.1172507,-9.720459,0.15801731
0.26342002,4.7686386,-0.6867939,-0.19327882,-5.482716,-3.1172507,-9.720459,0.15801731
0.25789174,4.7678094,-0.6974466,-0.19647461,-5.550893,-2.7006595,-9.653421,0.16280572
0.25237757,4.7669845,-0.6974466,-0.19647461,-5.550893,-2.7006595,-9.653421,0.16280572
0.24669403,4.7661543,-0.70703393,-0.19647461,-5.626527,-2.3319526,-9.701305,0.25378537
0.24098131,4.765316,-0.70703393,-0.19647461,-5.626527,-2.3319526,-9.701305,0.25378537
0.23519048,4.764489,-0.7176866,-0.19221355,-5.7117476,-2.135628,-9.801862,0.25857377
0.22943442,4.7636623,-0.7176866,-0.19221355,-5.7117476,-2.135628,-9.801862,0.25857377
0.22356226,4.7628183,-0.727274,-0.18688722,-5.806556,-2.054225,-10.0029745,0.12928689
0.21767168,4.761968,-0.727274,-0.18688722,-5.806556,-2.054225,-10.0029745,0.12928689
0.21171956,4.761114,-0.7357961,-0.18369143,-5.9045606,-2.0015526,-10.127473,0.08619126
0.20579703,4.760262,-0.7357961,-0.18369143,-5.9045606,-2.0015526,-10.127473,0.08619126
0.19971241,4.75939,-0.7443182,-0.18262617,-6.0046954,-1.9871874,-10.328587,-0.038307227
0.1937897,4.758539,-0.7443182,-0.18262617,-6.0046954,-1.9871874,-10.328587,-0.038307227
0.18752953,4.7576604,-0.7517751,-0.19327882,-6.103765,-1.7238252,-10.409989,-0.110133275
0.18138303,4.7567954,-0.7517751,-0.19327882,-6.103765,-1.7238252,-10.409989,-0.110133275
0.17517257,4.755937,-0.7581667,-0.21032305,-6.2060304,-1.532289,-10.46745,-0.22505496
0.16894454,4.7550755,-0.7581667,-0.21032305,-6.2060304,-1.532289,-10.46745,-0.22505496
0.16255148,4.7542005,-0.7656235,-0.2326936,-6.310426,-1.4700398,-10.472239,-0.2873042
0.15621719,4.753332,-0.7656235,-0.2326936,-6.310426,-1.4700398,-10.472239,-0.2873042
0.1497377,4.752471,-0.77094984,-0.26358625,-6.4190836,-1.1540052,-10.309433,-0.25857377
0.14326528,4.7516074,-0.77094984,-0.26358625,-6.4190836,-1.1540052,-10.309433,-0.25857377
0.13664828,4.7507358,-0.7773414,-0.30087054,-6.5320015,-1.0965444,-10.218452,-0.37828386
0.12996638,4.749853,-0.7773414,-0.30087054,-6.5320015,-1.0965444,-10.218452,-0.37828386
0.12996638,4.749853,-0.7773414,-0.30087054,-6.5320015,-1.0965444,-10.218452,-0.37828386
0.12996638,4.749853,-0.7773414,-0.30087054,-6.5320015,-1.0965444,-10.218452,-0.37828386
0.11067066,4.7473774,-0.7943857,-0.3797001,-6.7578373,-0.8619126,-9.840169,-0.41180268
0.1026667,4.746343,-0.7943857,-0.3797001,-6.7578373,-0.8619126,-9.840169,-0.41180268
0.095595635,4.745446,-0.8050383,-0.42870227,-6.86756,-0.58418524,-9.634268,-0.36391866
0.08865031,4.744562,-0.8050383,-0.42870227,-6.86756,-0.58418524,-9.634268,-0.36391866
0.08169748,4.7436953,-0.81888676,-0.47770444,-6.9740863,-0.2777274,-9.471462,-0.2777274
0.08169748,4.7436953,-0.81888676,-0.47770444,-6.9740863,-0.2777274,-9.471462,-0.2777274
0.06764425,4.741971,-0.8327352,-0.5267066,-7.0752864,0.29209262,-9.260772,-0.11492168
0.060470678,4.7411113,-0.8327352,-0.5267066,-7.0752864,0.29209262,-9.260772,-0.11492168
0.053145513,4.740239,-0.84764886,-0.5629256,-7.1690297,0.5793968,-8.963891,-0.11971009
0.045858197,4.7393675,-0.84764886,-0.5629256,-7.1690297,0.5793968,-8.963891,-0.11971009
0.038453292,4.7384787,-0.8625626,-0.5831656,-7.255316,0.61770403,-8.772355,-0.090979666
0.03104973,4.737586,-0.8625626,-0.5831656,-7.255316,0.61770403,-8.772355,-0.090979666
0.023619028,4.7366867,-0.8785415,-0.5991446,-7.332015,0.5506664,-8.619126,-0.019153614
0.016047686,4.735765,-0.8785415,-0.5991446,-7.332015,0.5506664,-8.619126,-0.019153614
0.008429374,4.7348337,-0.8955858,-0.61831933,-7.396996,0.6655881,-8.456321,0.0047884034
0.0010232873,4.7339234,-0.8955858,-0.61831933,-7.396996,0.6655881,-8.456321,0.0047884034
6.2766385,4.732998,-0.9115647,-0.6470815,-7.450259,0.842759,-8.298303,0.076614454
6.2690306,4.732064,-0.9115647,-0.6470815,-7.450259,0.842759,-8.298303,0.076614454
6.2613835,4.7311125,-0.9275437,-0.68330044,-7.4960656,1.2545617,-8.049306,0.04309563
6.253737,4.730157,-0.9275437,-0.68330044,-7.4960656,1.2545617,-8.049306,0.04309563
6.2460604,4.7291737,-0.94458795,-0.7237805,-7.5269585,1.4891934,-7.776367,-0.033518825
6.2383685,4.7281837,-0.94458795,-0.7237805,-7.5269585,1.4891934,-7.776367,-0.033518825
6.2306767,4.72716,-0.96269745,-0.76745635,-7.537611,1.5849615,-7.6231384,-0.1340753
6.2229238,4.726123,-0.96269745,-0.76745635,-7.537611,1.5849615,-7.6231384,-0.1340753
6.215223,4.725069,-0.98719853,-0.8164585,-7.529089,1.7477672,-7.431602,-0.05746084
6.2076454,4.7240267,-0.98719853,-0.8164585,-7.529089,1.7477672,-7.431602,-0.05746084
6.1999984,4.7229433,-1.017026,-0.870787,-7.505653,2.0638018,-7.2687964,0.033518825
6.1923523,4.7218533,-1.017026,-0.870787,-7.505653,2.0638018,-7.2687964,0.033518825
6.184696,4.720706,-1.057506,-0.92085445,-7.4630427,1.958457,-7.1730285,0.047884032
6.1771173,4.719563,-1.057506,-0.92085445,-7.4630427,1.958457,-7.1730285,0.047884032
6.16958,4.7183757,-1.1033124,-0.9645303,-7.4023223,2.1164744,-6.981492,0.20590134
6.162029,4.717179,-1.1033124,-0.9645303,-7.4023223,2.1164744,-6.981492,0.20590134
6.1545815,4.715937,-1.1565756,-1.0060756,-7.3245583,2.2697031,-6.8761473,0.4357447
6.147106,4.7146835,-1.1565756,-1.0060756,-7.3245583,2.2697031,-6.8761473,0.4357447
6.139746,4.713355,-1.2162304,-1.0327072,-7.2286844,2.1547816,-6.847417,0.30645782
6.132411,4.712024,-1.2162304,-1.0327072,-7.2286844,2.1547816,-6.847417,0.30645782
6.125212,4.7106504,-1.2801462,-1.0486861,-7.107244,1.8531121,-6.823475,0.61291564
6.118019,4.7092705,-1.2801462,-1.0486861,-7.107244,1.8531121,-6.823475,0.61291564
6.1109867,4.7078238,-1.3429968,-1.0625346,-6.9623685,1.7429788,-6.789956,0.6368576
6.103968,4.7063713,-1.3429968,-1.0625346,-6.9623685,1.7429788,-6.789956,0.6368576
6.097078,4.704835,-1.4047822,-1.0785136,-6.792991,1.8579005,-6.6989765,0.80445176
6.0902624,4.7033057,-1.4047822,-1.0785136,-6.792991,1.8579005,-6.6989765,0.80445176
6.0835876,4.701692,-1.464437,-1.0912968,-6.6087003,2.0350714,-6.579266,0.79008657
6.0769386,4.700075,-1.464437,-1.0912968,-6.6087003,2.0350714,-6.579266,0.79008657
6.070483,4.6983895,-1.5219612,-1.092362,-6.4073653,2.006341,-6.6367273,0.8523358
6.06404,4.6966968,-1.5219612,-1.092362,-6.4073653,2.006341,-6.6367273,0.8523358
6.057827,4.6949444,-1.577355,-1.0849051,-6.195378,1.9536686,-6.751649,1.0007763
6.051619,4.693183,-1.577355,-1.0849051,-6.195378,1.9536686,-6.751649,1.0007763
6.0456295,4.6913614,-1.629553,-1.0731872,-5.973803,2.1021092,-6.8569937,0.9911995
6.039645,4.6895304,-1.629553,-1.0731872,-5.973803,2.1021092,-6.8569937,0.9911995
6.033907,4.6876497,-1.6764246,-1.0593388,-5.744771,2.0398598,-7.0964136,1.1109096
6.028174,4.6857595,-1.6764246,-1.0593388,-5.744771,2.0398598,-7.0964136,1.1109096
6.0226617,4.6838202,-1.7190351,-1.0433599,-5.5104127,2.2984335,-7.201759,0.9911995
6.017155,4.681872,-1.7190351,-1.0433599,-5.5104127,2.2984335,-7.201759,0.9911995
6.0118914,4.679886,-1.7552541,-1.0252503,-5.276055,2.2840683,-7.3406224,0.93852705
6.006633,4.677891,-1.7552541,-1.0252503,-5.276055,2.2840683,-7.3406224,0.93852705
6.001614,4.6758647,-1.7850816,-1.0060756,-5.043827,2.2697031,-7.445967,0.8619126
5.996601,4.6738296,-1.7850816,-1.0060756,-5.043827,2.2697031,-7.445967,0.8619126
5.991818,4.671774,-1.8042563,-0.9890314,-4.819056,2.3080103,-7.589619,0.81402856
5.9870405,4.66971,-1.8042563,-0.9890314,-4.819056,2.3080103,-7.589619,0.81402856
5.982484,4.6676307,-1.8181047,-0.97411764,-4.5985465,2.3702598,-7.627927,0.7661445
5.977933,4.6655426,-1.8181047,-0.97411764,-4.5985465,2.3702598,-7.627927,0.7661445
5.9735985,4.6634493,-1.8223659,-0.9602692,-4.3854938,2.3702598,-7.565677,0.7326257
5.969269,4.6613474,-1.8223659,-0.9602692,-4.3854938,2.3702598,-7.565677,0.7326257
5.965141,4.6592464,-1.8202354,-0.9485513,-4.1767015,2.504335,-7.536947,0.62728083
5.961018,4.6571383,-1.8202354,-0.9485513,-4.1767015,2.504335,-7.536947,0.62728083
5.9570847,4.655036,-1.8127785,-0.9368334,-3.9743013,2.6527755,-7.3789296,0.62728083
5.9531565,4.6529255,-1.8127785,-0.9368334,-3.9743013,2.6527755,-7.3789296,0.62728083
5.949412,4.6508284,-1.79893,-0.9261808,-3.7814887,2.719813,-7.2209125,0.45968673
5.945673,4.6487246,-1.79893,-0.9261808,-3.7814887,2.719813,-7.2209125,0.45968673
5.942107,4.6466384,-1.77869,-0.9176586,-3.598263,2.8203697,-7.129933,0.40222588
5.938547,4.644546,-1.77869,-0.9176586,-3.598263,2.8203697,-7.129933,0.40222588
5.935152,4.642478,-1.7531236,-0.9080713,-3.4267554,2.825158,-6.9000893,0.33997664
5.9317627,4.640404,-1.7531236,-0.9080713,-3.4267554,2.825158,-6.9000893,0.33997664
5.9285035,4.6383505,-1.7211658,-0.90061444,-3.26377,3.1316159,-6.7229185,0.25857377
5.925249,4.6362915,-1.7211658,-0.90061444,-3.26377,3.1316159,-6.7229185,0.25857377
5.9221287,4.6342587,-1.6838815,-0.89315754,-3.1093068,3.2848446,-6.564901,0.16759412
5.9190283,4.6322308,-1.6838815,-0.89315754,-3.1093068,3.2848446,-6.564901,0.16759412
5.916044,4.6302276,-1.6402056,-0.8814396,-2.9633656,3.5290532,-6.3925185,0.10534488
5.9130645,4.62822,-1.6402056,-0.8814396,-2.9633656,3.5290532,-6.3925185,0.10534488
5.9102106,4.62625,-1.5943992,-0.8654607,-2.824881,3.7588966,-6.2249246,0.04309563
5.9073606,4.6242757,-1.5943992,-0.8654607,-2.824881,3.7588966,-6.2249246,0.04309563
5.9046288,4.622345,-1.545397,-0.8473512,-2.6970494,3.9791632,-6.0716953,0.0047884034
5.901905,4.620414,-1.545397,-0.8473512,-2.6970494,3.9791632,-6.0716953,0.0047884034
5.8992815,4.6185255,-1.4931991,-0.8228501,-2.5777397,4.189853,-5.90889,-0.05746084
5.896673,4.616642,-1.4931991,-0.8228501,-2.5777397,4.189853,-5.90889,-0.05746084
5.894147,4.6147923,-1.4399359,-0.79515326,-2.4616258,4.367024,-5.81791,-0.16280572
5.8916354,4.6129484,-1.4399359,-0.79515326,-2.4616258,4.367024,-5.81791,-0.16280572
5.889074,4.611046,-1.387738,-0.7642606,-2.3519037,4.4675803,-5.6886234,-0.25857377
5.886832,4.609376,-1.387738,-0.7642606,-2.3519037,4.4675803,-5.6886234,-0.25857377
5.8845634,4.6076703,-1.3366053,-0.72697634,-2.244312,4.572925,-5.6215854,-0.33997664
5.882278,4.6059475,-1.3366053,-0.72697634,-2.244312,4.572925,-5.6215854,-0.33997664
5.8801003,4.6042924,-1.2844073,-0.689692,-2.1345897,4.5394063,-5.568913,-0.39743748
5.8779306,4.6026382,-1.2844073,-0.689692,-2.1345897,4.5394063,-5.568913,-0.39743748
5.875863,4.601046,-1.2322093,-0.65453833,-2.0238023,4.548983,-5.535394,-0.45968673
5.873789,4.5994444,-1.2322093,-0.65453833,-2.0238023,4.548983,-5.535394,-0.45968673
5.871818,4.597908,-1.1800114,-0.62044984,-1.9098189,4.5298295,-5.5401826,-0.4405331
5.869935,4.596437,-1.1800114,-0.62044984,-1.9098189,4.5298295,-5.5401826,-0.4405331
5.86802,4.59491,-1.1278135,-0.5906225,-1.7883788,4.525041,-5.5641246,-0.545878
5.866193,4.5934505,-1.1278135,-0.5906225,-1.7883788,4.525041,-5.5641246,-0.545878
5.8644767,4.592057,-1.0766808,-0.56399083,-1.6626776,4.510676,-5.6646814,-0.39743748
5.8627687,4.590668,-1.0766808,-0.56399083,-1.6626776,4.510676,-5.6646814,-0.39743748
5.861185,4.589348,-1.0266134,-0.5352287,-1.5295196,4.5537715,-5.741296,-0.272939
5.8596096,4.588032,-1.0266134,-0.5352287,-1.5295196,4.5537715,-5.741296,-0.272939
5.858166,4.586786,-0.98080695,-0.5022055,-1.394231,4.630386,-5.971139,-0.21068975
5.8567295,4.5855436,-0.98080695,-0.5022055,-1.394231,4.630386,-5.971139,-0.21068975
5.855421,4.5843706,-0.9413921,-0.46279073,-1.2621381,4.4963107,-6.2009826,-0.110133275
5.8541217,4.583203,-0.9413921,-0.46279073,-1.2621381,4.4963107,-6.2009826,-0.110133275
5.8529115,4.5820656,-0.91049945,-0.42231068,-1.1385674,4.4005427,-6.4739213,-0.23463176
5.8529115,4.5820656,-0.91049945,-0.42231068,-1.1385674,4.4005427,-6.4739213,-0.23463176
5.851594,4.5808244,-0.91049945,-0.42231068,-1.1385674,4.4005427,-6.4739213,-0.23463176
5.849532,4.5787764,-0.8891942,-0.38183063,-1.0245842,4.280833,-6.813898,-0.39743748
5.848572,4.577762,-0.87534577,-0.34241584,-0.9212535,4.1419687,-7.1347213,-0.7038953
5.8475904,4.5767255,-0.87534577,-0.34241584,-0.9212535,4.1419687,-7.1347213,-0.7038953
5.846677,4.575691,-0.87001944,-0.30619684,-0.8339018,4.027047,-7.4363904,-0.93373865
5.8457613,4.574655,-0.87001944,-0.30619684,-0.8339018,4.027047,-7.4363904,-0.93373865
5.84494,4.5735254,-0.87214994,-0.27636945,-0.76252913,3.9552212,-7.7189064,-1.2593501
5.8441195,4.572397,-0.87214994,-0.27636945,-0.76252913,3.9552212,-7.7189064,-1.2593501
5.843447,4.5712414,-0.876411,-0.25293362,-0.71139646,3.8498764,-8.034941,-1.6184803
5.842779,4.5700893,-0.876411,-0.25293362,-0.71139646,3.8498764,-8.034941,-1.6184803
5.842151,4.5689344,-0.8849331,-0.23695466,-0.6783732,3.8786068,-8.2169,-1.8531121
5.841527,4.5677834,-0.8849331,-0.23695466,-0.6783732,3.8786068,-8.2169,-1.8531121
5.8409147,4.566618,-0.89238995,-0.23162833,-0.66559005,3.9312792,-8.422802,-2.0015526
5.8403134,4.565469,-0.89238995,-0.23162833,-0.66559005,3.9312792,-8.422802,-2.0015526
5.8396997,4.5643053,-0.8977163,-0.23482412,-0.6698511,3.9983168,-8.461109,-2.1739352
5.8390856,4.563139,-0.8977163,-0.23482412,-0.6698511,3.9983168,-8.461109,-2.1739352
5.8384395,4.5619645,-0.8977163,-0.24334624,-0.69222164,4.1371803,-8.513782,-2.1021092
5.8377953,4.560791,-0.8977163,-0.24334624,-0.69222164,4.1371803,-8.513782,-2.1021092
5.8371015,4.559611,-0.89238995,-0.25719467,-0.73163646,4.223372,-8.42759,-2.1499932
5.8364077,4.558429,-0.89238995,-0.25719467,-0.73163646,4.223372,-8.42759,-2.1499932
5.835644,4.557244,-0.8796068,-0.27317366,-0.7817039,4.3287168,-8.307879,-2.054225
5.834889,4.5560703,-0.8796068,-0.27317366,-0.7817039,4.3287168,-8.307879,-2.054225
5.8340583,4.554904,-0.85723627,-0.29021788,-0.84135866,4.3957543,-8.178593,-1.9919758
5.8332276,4.5537357,-0.85723627,-0.29021788,-0.84135866,4.3957543,-8.178593,-1.9919758
5.832322,4.5525866,-0.8284741,-0.30726212,-0.9042093,4.4580035,-8.00621,-1.9632454
5.831417,4.5514364,-0.8284741,-0.30726212,-0.9042093,4.4580035,-8.00621,-1.9632454
5.830435,4.550314,-0.79332036,-0.32324108,-0.9702557,4.486734,-7.8290396,-1.8914193
5.829453,4.54919,-0.79332036,-0.32324108,-0.9702557,4.486734,-7.8290396,-1.8914193
5.828398,4.548095,-0.75284034,-0.33922005,-1.0373673,4.5537715,-7.656657,-1.910573
5.827345,4.5470004,-0.75284034,-0.33922005,-1.0373673,4.5537715,-7.656657,-1.910573
5.8262205,4.545945,-0.71022975,-0.35413375,-1.0991527,4.6495395,-7.536947,-1.8579005
5.825096,4.5448875,-0.71022975,-0.35413375,-1.0991527,4.6495395,-7.536947,-1.8579005
5.8239183,4.543863,-0.6665539,-0.36691692,-1.1524159,4.7261543,-7.369353,-1.9057846
5.8227415,4.5428367,-0.6665539,-0.36691692,-1.1524159,4.7261543,-7.369353,-1.9057846
5.821525,4.541842,-0.6239433,-0.37756956,-1.1950265,4.841076,-7.2831616,-2.0015526
5.820311,4.540847,-0.6239433,-0.37756956,-1.1950265,4.841076,-7.2831616,-2.0015526
5.8190646,4.5398808,-0.5855938,-0.38396114,-1.2269844,4.8745947,-7.225701,-2.0350714
5.81782,4.5389137,-0.5855938,-0.38396114,-1.2269844,4.8745947,-7.225701,-2.0350714
5.81782,4.5389137,-0.5855938,-0.38396114,-1.2269844,4.8745947,-7.225701,-2.0350714
5.81782,4.5389137,-0.5855938,-0.38396114,-1.2269844,4.8745947,-7.225701,-2.0350714
5.81782,4.5389137,-0.5855938,-0.38396114,-1.2269844,4.8745947,-7.225701,-2.0350714
5.812677,4.535274,-0.51635164,-0.39248326,-1.2663993,5.0182467,-7.0581064,-2.1164744
5.8113317,4.534342,-0.48758948,-0.39567906,-1.273856,5.0134583,-7.067683,-2.1883004
5.8100595,4.5334573,-0.48758948,-0.39567906,-1.273856,5.0134583,-7.067683,-2.1883004
5.8088026,4.532604,-0.4598926,-0.3967443,-1.2759866,4.9703627,-7.091625,-2.2170308
5.807507,4.5317216,-0.4598926,-0.3967443,-1.2759866,4.9703627,-7.091625,-2.2170308
5.8062534,4.530886,-0.43219572,-0.39567906,-1.2717255,4.927267,-7.086837,-2.2505496
5.8050146,4.5300584,-0.43219572,-0.39567906,-1.2717255,4.927267,-7.086837,-2.2505496
5.803764,4.529237,-0.40662938,-0.39567906,-1.2600076,4.975151,-7.0341644,-2.3223755
5.8025084,4.528411,-0.40662938,-0.39567906,-1.2600076,4.975151,-7.0341644,-2.3223755
5.801262,4.52761,-0.38319355,-0.39567906,-1.2418982,5.0182467,-6.9623384,-2.2697031
5.8000236,4.5268116,-0.38319355,-0.39567906,-1.2418982,5.0182467,-6.9623384,-2.2697031
5.7987905,4.52604,-0.3576272,-0.39567906,-1.2237886,5.1571107,-6.9527617,-2.255338
5.7975616,4.5252695,-0.3576272,-0.39567906,-1.2237886,5.1571107,-6.9527617,-2.255338
5.796353,4.5245237,-0.33206087,-0.39567906,-1.2003528,5.2528787,-6.847417,-2.3223755
5.7951474,4.523778,-0.33206087,-0.39567906,-1.2003528,5.2528787,-6.847417,-2.3223755
5.7939596,4.5230613,-0.3075598,-0.3946138,-1.1758517,5.401319,-6.7133417,-2.3415294
5.7927737,4.5223436,-0.3075598,-0.3946138,-1.1758517,5.401319,-6.7133417,-2.3415294
5.7916017,4.5216594,-0.28199345,-0.39354852,-1.1534811,5.497087,-6.631939,-2.2601264
5.79043,4.520973,-0.28199345,-0.39354852,-1.1534811,5.497087,-6.631939,-2.2601264
5.78928,4.520316,-0.25536183,-0.38928747,-1.1321759,5.5737014,-6.5696893,-2.3319526
5.788128,4.5196557,-0.25536183,-0.38928747,-1.1321759,5.5737014,-6.5696893,-2.3319526
5.787007,4.519027,-0.23086074,-0.38396114,-1.1087401,5.602432,-6.4882865,-2.3654714
5.785878,4.5183935,-0.23086074,-0.38396114,-1.1087401,5.602432,-6.4882865,-2.3654714
5.7847686,4.517791,-0.20742492,-0.37863484,-1.0853043,5.6982,-6.3925185,-2.3558946
5.7836633,4.5171876,-0.20742492,-0.37863484,-1.0853043,5.6982,-6.3925185,-2.3558946
5.782578,4.516609,-0.18611965,-0.36798218,-1.0639989,5.6646814,-6.3350577,-2.4037786
5.7814946,4.5160303,-0.18611965,-0.36798218,-1.0639989,5.6646814,-6.3350577,-2.4037786
5.7804265,4.51548,-0.16694488,-0.35413375,-1.0416284,5.674258,-6.3111157,-2.3702598
5.7793517,4.514925,-0.16694488,-0.35413375,-1.0416284,5.674258,-6.3111157,-2.3702598
5.7783084,4.5143976,-0.14883539,-0.3370895,-1.0192579,5.645528,-6.2728086,-2.456451
5.777274,4.513874,-0.14883539,-0.3370895,-1.0192579,5.645528,-6.2728086,-2.456451
5.7762547,4.5133734,-0.13179116,-0.3200453,-0.99262625,5.602432,-6.2823853,-2.4420857
5.77523,4.512869,-0.13179116,-0.3200453,-0.99262625,5.602432,-6.2823853,-2.4420857
5.7742386,4.512394,-0.11581218,-0.30300105,-0.9638641,5.57849,-6.3206925,-2.4516625
5.7732477,4.5119185,-0.11581218,-0.30300105,-0.9638641,5.57849,-6.3206925,-2.4516625
5.772277,4.511463,-0.10089848,-0.28489155,-0.9308409,5.583278,-6.3302693,-2.4899697
5.7713017,4.5110054,-0.10089848,-0.28489155,-0.9308409,5.583278,-6.3302693,-2.4899697
5.7703805,4.510583,-0.08598478,-0.26678208,-0.8946219,5.559336,-6.3685765,-2.504335
5.769465,4.5101624,-0.08598478,-0.26678208,-0.8946219,5.559336,-6.3685765,-2.504335
5.768582,4.5097666,-0.07000581,-0.25080308,-0.8530766,5.559336,-6.3685765,-2.5330653
5.767695,4.5093675,-0.07000581,-0.25080308,-0.8530766,5.559336,-6.3685765,-2.5330653
5.76685,4.5090003,-0.052961584,-0.23588939,-0.8072702,5.535394,-6.3302693,-2.4899697
5.7660074,4.508633,-0.052961584,-0.23588939,-0.8072702,5.535394,-6.3302693,-2.4899697
5.7652063,4.5082955,-0.033786822,-0.22204095,-0.7593333,5.5976434,-6.3111157,-2.552219
5.7644067,4.5079575,-0.033786822,-0.22204095,-0.7593333,5.5976434,-6.3111157,-2.552219
5.76365,4.5076485,-0.013546798,-0.2113883,-0.7071354,5.5737014,-6.196194,-2.552219
5.7629,4.5073414,-0.013546798,-0.2113883,-0.7071354,5.5737014,-6.196194,-2.552219
5.7621927,4.5070715,0.0066932263,-0.20180093,-0.6549374,5.544971,-6.1243677,-2.408567
5.761485,4.5068007,0.0066932263,-0.20180093,-0.6549374,5.544971,-6.1243677,-2.408567
5.760827,4.5065618,0.027998514,-0.19327882,-0.6016742,5.4922986,-6.066907,-2.3750482
5.7601686,4.5063224,0.027998514,-0.19327882,-0.6016742,5.4922986,-6.066907,-2.3750482
5.7595587,4.5061226,0.05036907,-0.1847567,-0.5452152,5.4444146,-6.0285997,-2.2361844
5.758945,4.5059204,0.05036907,-0.1847567,-0.5452152,5.4444146,-6.0285997,-2.2361844
5.758385,4.5057592,0.07167436,-0.17729984,-0.4908867,5.4683566,-6.0238113,-2.1404164
5.757821,4.5055957,0.07167436,-0.17729984,-0.4908867,5.4683566,-6.0238113,-2.1404164
5.7572985,4.505478,0.091914386,-0.16984299,-0.43975398,5.439626,-6.1195793,-1.9201498
5.7567773,4.50536,0.091914386,-0.16984299,-0.43975398,5.439626,-6.1195793,-1.9201498
5.756299,4.5052767,0.10789335,-0.15812509,-0.3886213,5.3103395,-6.315904,-1.8100165
5.7558208,4.5051928,0.10789335,-0.15812509,-0.3886213,5.3103395,-6.315904,-1.8100165
5.755388,4.505135,0.122807056,-0.14214613,-0.34174967,5.1571107,-6.5361705,-1.8004397
5.7549543,4.5050764,0.122807056,-0.14214613,-0.34174967,5.1571107,-6.5361705,-1.8004397
5.7545676,4.505037,0.13452496,-0.12616715,-0.29700854,5.046977,-6.8665705,-1.8195933
5.7541656,4.5049953,0.13452496,-0.12616715,-0.29700854,5.046977,-6.8665705,-1.8195933
5.7538176,4.504982,0.14730814,-0.108057655,-0.25759378,5.056554,-7.129933,-1.8243817
5.753473,4.504968,0.14730814,-0.108057655,-0.25759378,5.056554,-7.129933,-1.8243817
5.75316,4.504972,0.15902604,-0.09207869,-0.2235053,5.243302,-7.4028716,-1.9393034
5.7528467,4.504976,0.15902604,-0.09207869,-0.2235053,5.243302,-7.4028716,-1.9393034
5.7525654,4.504997,0.16967869,-0.07183866,-0.1936779,5.386954,-7.6375036,-2.0590134
5.7522836,4.5050173,0.16967869,-0.07183866,-0.1936779,5.386954,-7.6375036,-2.0590134
5.7520704,4.5050383,0.1813966,-0.048402846,-0.17024209,5.0757074,-7.7811556,-2.15957
5.7518578,4.5050592,0.1813966,-0.048402846,-0.17024209,5.0757074,-7.7811556,-2.15957
5.7516885,4.5050993,0.1931145,-0.029228088,-0.15213259,4.927267,-7.8050976,-2.2026656
5.7515173,4.50514,0.1931145,-0.029228088,-0.15213259,4.927267,-7.8050976,-2.2026656
5.7513847,4.505203,0.20696294,-0.014314385,-0.1372189,4.8219223,-7.8625584,-2.327164
5.7512517,4.505266,0.20696294,-0.014314385,-0.1372189,4.8219223,-7.8625584,-2.327164
5.751146,4.50535,0.21868086,-0.0047270046,-0.12656625,4.7022123,-7.8912888,-2.2744915
5.75104,4.5054345,0.21868086,-0.0047270046,-0.12656625,4.7022123,-7.8912888,-2.2744915
5.7509513,4.5055356,0.23146403,-0.0015312112,-0.11697886,4.6160207,-7.8625584,-2.336741
5.750862,4.505637,0.23146403,-0.0015312112,-0.11697886,4.6160207,-7.8625584,-2.336741
5.7507877,4.5057564,0.2442472,0.0005993177,-0.11165254,4.5202527,-7.824251,-2.2888567
5.7507133,4.5058746,0.2442472,0.0005993177,-0.11165254,4.5202527,-7.824251,-2.2888567
5.7506375,4.5060005,0.25489986,-0.0025964756,-0.10952201,4.5537715,-7.795521,-2.2457612
5.7505608,4.5061264,0.25489986,-0.0025964756,-0.10952201,4.5537715,-7.795521,-2.2457612
5.7504826,4.506258,0.26448724,-0.008988062,-0.108456746,4.5920787,-7.8050976,-2.231396
5.750405,4.5063896,0.26448724,-0.008988062,-0.108456746,4.5920787,-7.8050976,-2.231396
5.750317,4.506526,0.27513987,-0.016444914,-0.11165254,4.6255975,-7.7572136,-2.1547816
5.75023,4.5066614,0.27513987,-0.016444914,-0.11165254,4.6255975,-7.7572136,-2.1547816
5.750122,4.5067987,0.283662,-0.02496703,-0.120174654,4.697424,-7.7428484,-2.1212628
5.7500153,4.506936,0.283662,-0.02496703,-0.120174654,4.697424,-7.7428484,-2.1212628
5.749892,4.5070767,0.29111883,-0.029228088,-0.1276315,4.735731,-7.723695,-2.087744
5.749769,4.5072174,0.29111883,-0.029228088,-0.1276315,4.735731,-7.723695,-2.087744
5.749648,4.507366,0.29964095,-0.030293351,-0.1340231,4.7165775,-7.762002,-2.0829554
5.7495275,4.5075145,0.29964095,-0.030293351,-0.1340231,4.7165775,-7.762002,-2.0829554
5.7493887,4.507671,0.30922833,-0.030293351,-0.14361048,4.7500963,-7.7572136,-2.0159178
5.74925,4.5078278,0.30922833,-0.030293351,-0.14361048,4.7500963,-7.7572136,-2.0159178
5.7491074,4.507991,0.31668517,-0.031358615,-0.15106732,4.7165775,-7.728483,-1.982399
5.748965,4.5081534,0.31668517,-0.031358615,-0.15106732,4.7165775,-7.728483,-1.982399
5.7488136,4.5083237,0.32414204,-0.028162822,-0.15639365,4.735731,-7.714118,-2.0446482
5.748662,4.508495,0.32414204,-0.028162822,-0.15639365,4.735731,-7.714118,-2.0446482
5.748495,4.5086737,0.33159888,-0.026032293,-0.16171996,4.7740383,-7.675811,-2.0733786
5.7483287,4.5088525,0.33159888,-0.026032293,-0.16171996,4.7740383,-7.675811,-2.0733786
5.7481465,4.5090427,0.340121,-0.023901764,-0.16278523,4.8027687,-7.642292,-1.9967642
5.747965,4.509232,0.340121,-0.023901764,-0.16278523,4.8027687,-7.642292,-1.9967642
5.7477837,4.509429,0.3465126,-0.021771235,-0.16278523,4.7979803,-7.61835,-2.0159178
5.7476025,4.5096254,0.3465126,-0.021771235,-0.16278523,4.7979803,-7.61835,-2.0159178
5.7474003,4.50983,0.35077363,-0.021771235,-0.16278523,4.8698063,-7.5704656,-1.982399
5.747199,4.5100346,0.35077363,-0.021771235,-0.16278523,4.8698063,-7.5704656,-1.982399
5.746986,4.510248,0.35716522,-0.023901764,-0.16065471,4.927267,-7.52737,-1.9728222
5.7467737,4.5104613,0.35716522,-0.023901764,-0.16065471,4.927267,-7.52737,-1.9728222
5.7465563,4.5106826,0.36355683,-0.026032293,-0.15958944,4.9799395,-7.536947,-1.982399
5.74634,4.5109034,0.36355683,-0.026032293,-0.15958944,4.9799395,-7.536947,-1.982399
5.7461123,4.511131,0.36781788,-0.027097559,-0.16065471,5.0421886,-7.52737,-1.9728222
5.745885,4.511359,0.36781788,-0.027097559,-0.16065471,5.0421886,-7.52737,-1.9728222
5.7456555,4.5115924,0.36994842,-0.026032293,-0.15852417,4.9799395,-7.4986396,-1.8962077
5.745427,4.5118256,0.36994842,-0.026032293,-0.15852417,4.9799395,-7.4986396,-1.8962077
5.745189,4.5120687,0.3731442,-0.028162822,-0.15426312,5.0421886,-7.465121,-1.8722657
5.744952,4.512311,0.3731442,-0.028162822,-0.15426312,5.0421886,-7.465121,-1.8722657
5.7447357,4.512547,0.37420946,-0.029228088,-0.15000206,4.9559975,-7.4746976,-1.9009962
5.744523,4.512779,0.37420946,-0.029228088,-0.15000206,4.9559975,-7.4746976,-1.9009962
5.7442994,4.513023,0.37527472,-0.029228088,-0.14467573,5.00867,-7.431602,-1.8722657
5.7440777,4.513264,0.37527472,-0.029228088,-0.14467573,5.00867,-7.431602,-1.8722657
5.7438726,4.513503,0.37420946,-0.028162822,-0.1340231,4.984728,-7.4603324,-1.8770541
5.7436666,4.513743,0.37420946,-0.028162822,-0.1340231,4.984728,-7.4603324,-1.8770541
5.743468,4.513987,0.37207893,-0.023901764,-0.121239915,4.9655743,-7.455544,-1.8291701
5.74327,4.5142307,0.37207893,-0.023901764,-0.121239915,4.9655743,-7.455544,-1.8291701
5.74308,4.5144777,0.36888313,-0.021771235,-0.106326215,4.9895163,-7.4842744,-1.8100165
5.7428913,4.5147247,0.36888313,-0.021771235,-0.106326215,4.9895163,-7.4842744,-1.8100165
5.742723,4.514969,0.36355683,-0.017510178,-0.08928198,4.9559975,-7.479486,-1.8100165
5.742555,4.515213,0.36355683,-0.017510178,-0.08928198,4.9559975,-7.479486,-1.8100165
5.742447,4.515435,0.35609996,-0.012183856,-0.07223775,4.8267107,-7.5944076,-1.8148049
5.742337,4.5156603,0.35609996,-0.012183856,-0.07223775,4.8267107,-7.5944076,-1.8148049
5.742253,4.515882,0.34864312,-0.005792269,-0.05412826,4.8027687,-7.61835,-1.7956513
5.742168,4.516106,0.34864312,-0.005792269,-0.05412826,4.8027687,-7.61835,-1.7956513
5.7421165,4.516323,0.33799046,0.0016645822,-0.03282297,4.8219223,-7.699753,-1.8483237
5.7420654,4.516539,0.33799046,0.0016645822,-0.03282297,4.8219223,-7.699753,-1.8483237
5.7420635,4.5167556,0.32733783,0.009121433,-0.012582945,4.7740383,-7.800309,-1.8052281
5.7420607,4.516975,0.32733783,0.009121433,-0.012582945,4.7740383,-7.800309,-1.8052281
5.742125,4.517198,0.31455466,0.016578285,0.00765708,4.711789,-7.8912888,-1.7477672
5.742187,4.5174155,0.31455466,0.016578285,0.00765708,4.711789,-7.8912888,-1.7477672
5.7423034,4.517648,0.3017715,0.0251004,0.033223428,4.6495395,-7.967903,-1.7525556
5.7424207,4.5178843,0.3017715,0.0251004,0.033223428,4.6495395,-7.967903,-1.7525556
5.7425513,4.5181065,0.28792304,0.033622514,0.05772451,4.697424,-8.034941,-1.7908629
5.742681,4.5183277,0.28792304,0.033622514,0.05772451,4.697424,-8.034941,-1.7908629
5.742843,4.5185504,0.2740746,0.040014103,0.08009506,4.7070007,-8.121132,-1.7908629
5.743004,4.518772,0.2740746,0.040014103,0.08009506,4.7070007,-8.121132,-1.7908629
5.743207,4.5190063,0.2591609,0.04853622,0.102465615,4.697424,-8.169016,-1.7429788
5.7434072,4.519238,0.2591609,0.04853622,0.102465615,4.697424,-8.169016,-1.7429788
5.7436256,4.519464,0.24637774,0.05599307,0.12164038,4.6399627,-8.240842,-1.8339585
5.7436256,4.519464,0.24637774,0.05599307,0.12164038,4.6399627,-8.240842,-1.8339585
5.7436256,4.519464,0.24637774,0.05599307,0.12164038,4.6399627,-8.240842,-1.8339585
5.7443247,4.5201035,0.2325293,0.062384658,0.14188041,4.630386,-8.327033,-1.8626889
5.7443247,4.5201035,0.21974611,0.06664571,0.16105516,4.6686935,-8.389283,-1.9009962
5.7448273,4.5205126,0.21974611,0.06664571,0.16105516,4.6686935,-8.389283,-1.9009962
5.7448273,4.5205126,0.21974611,0.06664571,0.16105516,4.6686935,-8.389283,-1.9009962
5.7448273,4.5205126,0.21974611,0.06664571,0.16105516,4.6686935,-8.389283,-1.9009962
5.7456617,4.5210643,0.1931145,0.073037304,0.19194783,4.5920787,-8.456321,-1.9393034
5.7459335,4.5212436,0.1931145,0.073037304,0.19194783,4.5920787,-8.456321,-1.9393034
5.7462397,4.521438,0.18033133,0.07516783,0.20260048,4.5058875,-8.528147,-1.8722657
5.746547,4.521633,0.18033133,0.07516783,0.20260048,4.5058875,-8.528147,-1.8722657
5.746851,4.521804,0.16967869,0.07729836,0.21218786,4.55856,-8.585608,-1.9680338
5.7471566,4.5219755,0.16967869,0.07729836,0.21218786,4.55856,-8.585608,-1.9680338
5.747473,4.5221424,0.15796077,0.07729836,0.21857944,4.582502,-8.571242,-1.9009962
5.747791,4.52231,0.15796077,0.07729836,0.21857944,4.582502,-8.571242,-1.9009962
5.7481074,4.5224648,0.14730814,0.07729836,0.22177523,4.5777135,-8.63828,-1.9249382
5.748426,4.52262,0.14730814,0.07729836,0.22177523,4.5777135,-8.63828,-1.9249382
5.748744,4.5227623,0.13559023,0.0762331,0.22177523,4.5777135,-8.690952,-1.9536686
5.7490625,4.5229044,0.13559023,0.0762331,0.22177523,4.5777135,-8.690952,-1.9536686
5.749381,4.5230355,0.12387232,0.07729836,0.22177523,4.548983,-8.7053175,-1.9632454
5.7496996,4.5231667,0.12387232,0.07729836,0.22177523,4.548983,-8.7053175,-1.9632454
5.750025,4.5232964,0.11215441,0.07836362,0.22177523,4.5441947,-8.724471,-1.9057846
5.75035,4.523426,0.11215441,0.07836362,0.22177523,4.5441947,-8.724471,-1.9057846
5.7506785,4.5235586,0.102567025,0.07942889,0.21751417,4.5537715,-8.738836,-1.8387469
5.751006,4.52369,0.102567025,0.07942889,0.21751417,4.5537715,-8.738836,-1.8387469
5.7513285,4.5238094,0.09297965,0.08049415,0.21218786,4.5537715,-8.829816,-1.8866309
5.7516484,4.5239277,0.09297965,0.08049415,0.21218786,4.5537715,-8.829816,-1.8866309
5.7519646,4.524044,0.08445753,0.08262468,0.204731,4.548983,-8.825027,-1.8531121
5.7522793,4.5241594,0.08445753,0.08262468,0.204731,4.548983,-8.825027,-1.8531121
5.752584,4.5242677,0.074870154,0.08475521,0.19407836,4.5872903,-8.78672,-1.8148049
5.752889,4.5243764,0.074870154,0.08475521,0.19407836,4.5872903,-8.78672,-1.8148049
5.7531867,4.5244765,0.06528277,0.08475521,0.18342571,4.582502,-8.805874,-1.8100165
5.7534814,4.524576,0.06528277,0.08475521,0.18342571,4.582502,-8.805874,-1.8100165
5.753774,4.524685,0.055695392,0.085820474,0.17383833,4.5777135,-8.844181,-1.7381904
5.754067,4.5247936,0.055695392,0.085820474,0.17383833,4.5777135,-8.844181,-1.7381904
5.7543526,4.5249014,0.05036907,0.085820474,0.16425095,4.5537715,-8.853758,-1.7238252
5.754635,4.525007,0.05036907,0.085820474,0.16425095,4.5537715,-8.853758,-1.7238252
5.754905,4.525088,0.045042746,0.085820474,0.15572885,4.5777135,-8.796297,-1.7812861
5.7551756,4.5251684,0.045042746,0.085820474,0.15572885,4.5777135,-8.796297,-1.7812861
5.755444,4.525264,0.040781688,0.087951005,0.14933725,4.534618,-8.801085,-1.7142484
5.755713,4.525358,0.040781688,0.087951005,0.14933725,4.534618,-8.801085,-1.7142484
5.7559752,4.5254498,0.03865116,0.087951005,0.14294566,4.5298295,-8.791509,-1.7142484
5.7562366,4.52554,0.03865116,0.087951005,0.14294566,4.5298295,-8.791509,-1.7142484
5.7564907,4.5256166,0.03652063,0.089016266,0.13761935,4.55856,-8.738836,-1.7429788
5.7567444,4.525693,0.03652063,0.089016266,0.13761935,4.55856,-8.738836,-1.7429788
5.7569985,4.525793,0.034390103,0.090081535,0.13335828,4.5872903,-8.719683,-1.6472107
5.7572527,4.5258927,0.034390103,0.090081535,0.13335828,4.5872903,-8.719683,-1.6472107
5.7575054,4.525996,0.032259572,0.090081535,0.13229302,4.6112323,-8.710106,-1.6280571
5.7577586,4.526099,0.032259572,0.090081535,0.13229302,4.6112323,-8.710106,-1.6280571
5.7580104,4.5261927,0.032259572,0.090081535,0.13122776,4.5777135,-8.6574335,-1.6424223
5.758262,4.526286,0.032259572,0.090081535,0.13122776,4.5777135,-8.6574335,-1.6424223
5.758511,4.526369,0.031194309,0.0911468,0.13016249,4.5633483,-8.671799,-1.6759412
5.75876,4.5264516,0.031194309,0.0911468,0.13016249,4.5633483,-8.671799,-1.6759412
5.7590084,4.5265427,0.032259572,0.09327733,0.12909722,4.6160207,-8.643068,-1.6472107
5.759257,4.526633,0.032259572,0.09327733,0.12909722,4.6160207,-8.643068,-1.6472107
5.759508,4.5267324,0.033324838,0.09434259,0.13122776,4.582502,-8.595184,-1.6184803
5.759759,4.5268316,0.033324838,0.09434259,0.13122776,4.582502,-8.595184,-1.6184803
5.7600117,4.526928,0.034390103,0.09540785,0.13442355,4.6495395,-8.528147,-1.6136919
5.7602673,4.5270243,0.034390103,0.09540785,0.13442355,4.6495395,-8.528147,-1.6136919
5.760522,4.5271187,0.03545537,0.09753838,0.13761935,4.654328,-8.504205,-1.6136919
5.7607775,4.527213,0.03545537,0.09753838,0.13761935,4.654328,-8.504205,-1.6136919
5.761011,4.527256,0.03545537,0.09860365,0.14188041,4.663905,-8.475474,-1.7238252
5.761245,4.5272975,0.03545537,0.09860365,0.14188041,4.663905,-8.475474,-1.7238252
5.7615113,4.527399,0.034390103,0.100734174,0.148272,4.697424,-8.494628,-1.5993267
5.761777,4.5274997,0.034390103,0.100734174,0.148272,4.697424,-8.494628,-1.5993267
5.7620506,4.5276113,0.034390103,0.100734174,0.15466358,4.6782703,-8.480263,-1.5801731
5.7623234,4.527722,0.034390103,0.100734174,0.15466358,4.6782703,-8.480263,-1.5801731
5.7625985,4.5278044,0.03545537,0.09860365,0.16105516,4.6686935,-8.470686,-1.6232687
5.7628727,4.527886,0.03545537,0.09860365,0.16105516,4.6686935,-8.470686,-1.6232687
5.7631555,4.5280237,0.03545537,0.09647312,0.16744675,4.663905,-8.451532,-1.532289
5.763439,4.528162,0.03545537,0.09647312,0.16744675,4.663905,-8.451532,-1.532289
5.763736,4.5282865,0.03865116,0.09327733,0.17703412,4.6351743,-8.51857,-1.5610195
5.7640324,4.528411,0.03865116,0.09327733,0.17703412,4.6351743,-8.51857,-1.5610195
5.764323,4.5285816,0.04291222,0.089016266,0.1866215,4.5681367,-8.508993,-1.4508862
5.764614,4.528753,0.04291222,0.089016266,0.1866215,4.5681367,-8.508993,-1.4508862
5.7648983,4.5289497,0.049303804,0.08368994,0.19833942,4.596867,-8.523358,-1.388637
5.7651825,4.529147,0.049303804,0.08368994,0.19833942,4.596867,-8.523358,-1.388637
5.7654934,4.529342,0.05995645,0.07836362,0.21325313,4.620809,-8.48984,-1.4413095
5.7658043,4.529537,0.05995645,0.07836362,0.21325313,4.620809,-8.48984,-1.4413095
5.7661166,4.5297594,0.07273962,0.074102566,0.22923209,4.6112323,-8.456321,-1.3934253
5.76643,4.5299816,0.07273962,0.074102566,0.22923209,4.6112323,-8.456321,-1.3934253
5.766706,4.530246,0.08871859,0.071972035,0.2441458,4.6591167,-8.437167,-1.2354081
5.7669806,4.5305095,0.08871859,0.071972035,0.2441458,4.6591167,-8.437167,-1.2354081
5.767279,4.5307865,0.106828086,0.07090677,0.26012474,4.6495395,-8.413225,-1.292869
5.7675786,4.531066,0.106828086,0.07090677,0.26012474,4.6495395,-8.413225,-1.292869
5.7678947,4.5313663,0.12600285,0.069841504,0.27610373,4.644751,-8.461109,-1.2593501
5.76821,4.531666,0.12600285,0.069841504,0.27610373,4.644751,-8.461109,-1.2593501
5.768527,4.531993,0.14304708,0.069841504,0.28995216,4.697424,-8.451532,-1.2545617
5.7688417,4.5323176,0.14304708,0.069841504,0.28995216,4.697424,-8.451532,-1.2545617
5.769184,4.5326605,0.16009131,0.069841504,0.3038006,4.6591167,-8.465898,-1.2545617
5.769514,4.532992,0.16009131,0.069841504,0.3038006,4.6591167,-8.465898,-1.2545617
5.7698526,4.533345,0.17713554,0.07090677,0.31764904,4.6782703,-8.513782,-1.2114661
5.770193,4.5337005,0.17713554,0.07090677,0.31764904,4.6782703,-8.513782,-1.2114661
5.770552,4.534074,0.1931145,0.069841504,0.32617116,4.6830587,-8.552089,-1.2401965
5.77091,4.5344467,0.1931145,0.069841504,0.32617116,4.6830587,-8.552089,-1.2401965
5.771271,4.5348353,0.20589767,0.06664571,0.33256274,4.6782703,-8.552089,-1.1923125
5.771628,4.53522,0.20589767,0.06664571,0.33256274,4.6782703,-8.552089,-1.1923125
5.7719803,4.5356145,0.2144198,0.06558045,0.3368238,4.7309427,-8.576031,-1.2066777
5.7723365,4.5360136,0.2144198,0.06558045,0.3368238,4.7309427,-8.576031,-1.2066777
5.772713,4.5364056,0.22081138,0.06451519,0.33788908,4.6351743,-8.590396,-1.2162545
5.7730913,4.5368,0.22081138,0.06451519,0.33788908,4.6351743,-8.590396,-1.2162545
5.77345,4.537204,0.2261377,0.06344992,0.33469325,4.721366,-8.671799,-1.1731589
5.773808,4.537608,0.2261377,0.06344992,0.33469325,4.721366,-8.671799,-1.1731589
5.7741537,4.5380197,0.23146403,0.061319392,0.33149746,4.7788267,-8.724471,-1.1348516
5.7744946,4.5384264,0.23146403,0.061319392,0.33149746,4.7788267,-8.724471,-1.1348516
5.7748394,4.538841,0.23785561,0.062384658,0.32404062,4.7165775,-8.738836,-1.0869676
5.775183,4.539254,0.23785561,0.062384658,0.32404062,4.7165775,-8.738836,-1.0869676
5.7755523,4.539665,0.2442472,0.06664571,0.31764904,4.5633483,-8.676587,-1.1683705
5.7759233,4.5400786,0.2442472,0.06664571,0.31764904,4.5633483,-8.676587,-1.1683705
5.7762985,4.5404916,0.25170404,0.06558045,0.3101922,4.5441947,-8.6813755,-1.2114661
5.7766724,4.5409026,0.25170404,0.06558045,0.3101922,4.5441947,-8.6813755,-1.2114661
5.777011,4.5413294,0.25703037,0.060254127,0.30060482,4.6495395,-8.690952,-1.1683705
5.7773495,4.5417547,0.25703037,0.060254127,0.30060482,4.6495395,-8.690952,-1.1683705
5.7776732,4.5421853,0.26448724,0.054927804,0.28782162,4.6830587,-8.671799,-1.2114661
5.7779956,4.542614,0.26448724,0.054927804,0.28782162,4.6830587,-8.671799,-1.2114661
5.778279,4.5430512,0.27087882,0.05173201,0.27503845,4.7500963,-8.623915,-1.2114661
5.778561,4.5434875,0.27087882,0.05173201,0.27503845,4.7500963,-8.623915,-1.2114661
5.7788353,4.543928,0.2772704,0.047470953,0.26119003,4.7548847,-8.652645,-1.2258313
5.7791085,4.544368,0.2772704,0.047470953,0.26119003,4.7548847,-8.652645,-1.2258313
5.779378,4.5448093,0.283662,0.045340426,0.24734159,4.7022123,-8.614338,-1.2162545
5.779648,4.545253,0.283662,0.045340426,0.24734159,4.7022123,-8.614338,-1.2162545
5.7798934,4.545699,0.29005358,0.04107937,0.23242788,4.687847,-8.51857,-1.2354081
5.780139,4.5461464,0.29005358,0.04107937,0.23242788,4.687847,-8.51857,-1.2354081
5.7803845,4.546592,0.2953799,0.03681831,0.22070996,4.6782703,-8.542512,-1.2545617
5.78063,4.5470386,0.2953799,0.03681831,0.22070996,4.6782703,-8.542512,-1.2545617
5.780857,4.547485,0.2985757,0.031491987,0.20899206,4.6686935,-8.513782,-1.2258313
5.781083,4.547931,0.2985757,0.031491987,0.20899206,4.6686935,-8.513782,-1.2258313
5.7812967,4.548376,0.29964095,0.026165664,0.19727415,4.6782703,-8.494628,-1.2689269
5.7815094,4.5488205,0.29964095,0.026165664,0.19727415,4.6782703,-8.494628,-1.2689269
5.7816944,4.549262,0.29964095,0.021904606,0.1866215,4.7022123,-8.499416,-1.2401965
5.781878,4.5497026,0.29964095,0.021904606,0.1866215,4.7022123,-8.499416,-1.2401965
5.7820497,4.5501404,0.2985757,0.018708814,0.17596887,4.687847,-8.470686,-1.2258313
5.78222,4.5505776,0.2985757,0.018708814,0.17596887,4.687847,-8.470686,-1.2258313
5.7824497,4.5509987,0.29431462,0.01551302,0.16957727,4.630386,-8.465898,-1.3072342
5.7826796,4.5514193,0.29431462,0.01551302,0.16957727,4.630386,-8.465898,-1.3072342
5.7829423,4.551812,0.29005358,0.012317227,0.16531622,4.5777135,-8.494628,-1.3024458
5.783206,4.5522037,0.29005358,0.012317227,0.16531622,4.5777135,-8.494628,-1.3024458
5.7834196,4.552616,0.2857925,0.010186698,0.16105516,4.606444,-8.485051,-1.2545617
5.783633,4.5530267,0.2857925,0.010186698,0.16105516,4.606444,-8.485051,-1.2545617
5.783891,4.553405,0.2804662,0.008056169,0.1567941,4.572925,-8.485051,-1.2976574
5.78415,4.553781,0.2804662,0.008056169,0.1567941,4.572925,-8.485051,-1.2976574
5.784426,4.554123,0.27194408,0.0048603755,0.15359831,4.606444,-8.513782,-1.3311762
5.7847056,4.5544634,0.27194408,0.0048603755,0.15359831,4.606444,-8.513782,-1.3311762
5.784902,4.5548525,0.2655525,0.0016645822,0.148272,4.654328,-8.566454,-1.2641385
5.7850976,4.555239,0.2655525,0.0016645822,0.148272,4.654328,-8.566454,-1.2641385
5.7852945,4.555611,0.25703037,-0.0025964756,0.14081514,4.6399627,-8.585608,-1.2497733
5.7854915,4.555982,0.25703037,-0.0025964756,0.14081514,4.6399627,-8.585608,-1.2497733
5.7857385,4.556307,0.24531247,-0.005792269,0.13122776,4.6016555,-8.604761,-1.2976574
5.7859845,4.5566273,0.24531247,-0.005792269,0.13122776,4.6016555,-8.604761,-1.2976574
5.7862287,4.556931,0.23359455,-0.005792269,0.119509846,4.630386,-8.6813755,-1.3120226
5.7862287,4.556931,0.23359455,-0.005792269,0.119509846,4.630386,-8.6813755,-1.3120226
5.786663,4.557561,0.2229419,-0.0068575335,0.10566141,4.6351743,-8.78672,-1.1971009
5.7868395,4.5578814,0.2229419,-0.0068575335,0.10566141,4.6351743,-8.78672,-1.1971009
5.7868395,4.5578814,0.2144198,-0.0047270046,0.09287824,4.5777135,-8.75799,-1.2449849
5.7872453,4.558482,0.2144198,-0.0047270046,0.09287824,4.5777135,-8.75799,-1.2449849
5.7874727,4.5587316,0.20483242,-0.0015312112,0.08116033,4.5154643,-8.714894,-1.3120226
5.787676,4.558953,0.20483242,-0.0015312112,0.08116033,4.5154643,-8.714894,-1.3120226
5.787676,4.558953,0.20483242,-0.0015312112,0.08116033,4.5154643,-8.714894,-1.3120226
5.7880898,4.559359,0.1963103,-0.00046594674,0.06944242,4.453215,-8.710106,-1.340753
5.788285,4.5595694,0.18565765,0.0016645822,0.058789775,4.5537715,-8.772355,-1.3263878
5.78848,4.5597773,0.18565765,0.0016645822,0.058789775,4.5537715,-8.772355,-1.3263878
5.78867,4.559966,0.17607027,0.0016645822,0.05133292,4.620809,-8.724471,-1.3359646
5.7888603,4.5601525,0.17607027,0.0016645822,0.05133292,4.620809,-8.724471,-1.3359646
5.7889857,4.560417,0.1664829,0.0016645822,0.04387607,4.663905,-8.7771435,-1.2449849
5.7891126,4.560683,0.1664829,0.0016645822,0.04387607,4.663905,-8.7771435,-1.2449849
5.7892795,4.5608816,0.15796077,0.0016645822,0.03428869,4.7165775,-8.743625,-1.3263878
5.789449,4.5610766,0.15796077,0.0016645822,0.03428869,4.7165775,-8.743625,-1.3263878
5.7894945,4.561339,0.1483734,0.0016645822,0.023636047,4.7261543,-8.714894,-1.2737153
5.78954,4.561602,0.1483734,0.0016645822,0.023636047,4.7261543,-8.714894,-1.2737153
5.789624,4.5616474,0.13772075,0.0027298466,0.015113931,4.7022123,-8.7053175,-1.364695
5.7897067,4.5616913,0.13772075,0.0027298466,0.015113931,4.7022123,-8.7053175,-1.364695
5.7898417,4.561875,0.1270681,0.003795111,0.008722344,4.6591167,-8.6813755,-1.2976574
5.789977,4.562055,0.1270681,0.003795111,0.008722344,4.6591167,-8.6813755,-1.2976574
5.790027,4.5622807,0.1153502,0.003795111,0.0044612866,4.6782703,-8.700529,-1.2354081
5.790078,4.5625067,0.1153502,0.003795111,0.0044612866,4.6782703,-8.700529,-1.2354081
5.7901125,4.562726,0.105762824,0.00592564,0.00020022877,4.6782703,-8.719683,-1.1923125
5.7901473,4.562945,0.105762824,0.00592564,0.00020022877,4.6782703,-8.719683,-1.1923125
5.790222,4.5631437,0.09830597,0.008056169,-0.0019303001,4.6160207,-8.6813755,-1.2162545
5.790298,4.563342,0.09830597,0.008056169,-0.0019303001,4.6160207,-8.6813755,-1.2162545
5.7903514,4.563544,0.09084912,0.011251962,-0.0029955646,4.6351743,-8.6813755,-1.2018893
5.7904053,4.5637445,0.09084912,0.011251962,-0.0029955646,4.6351743,-8.6813755,-1.2018893
5.790475,4.563932,0.08339227,0.012317227,-0.0029955646,4.596867,-8.671799,-1.1923125
5.7905455,4.5641203,0.08339227,0.012317227,-0.0029955646,4.596867,-8.671799,-1.1923125
5.790583,4.5643125,0.075935416,0.012317227,0.0012654932,4.644751,-8.6334915,-1.2114661
5.79062,4.564497,0.075935416,0.012317227,0.0012654932,4.644751,-8.6334915,-1.2114661
5.790598,4.564685,0.07060909,0.012317227,0.0033960221,4.687847,-8.628703,-1.2545617
5.790575,4.564881,0.07060909,0.012317227,0.0033960221,4.687847,-8.628703,-1.2545617
5.790528,4.5650587,0.06528277,0.013382491,0.0033960221,4.7165775,-8.6334915,-1.2210429
5.7904806,4.565234,0.06528277,0.013382491,0.0033960221,4.7165775,-8.6334915,-1.2210429
5.7904096,4.565399,0.061021715,0.013382491,0.0065918155,4.7548847,-8.580819,-1.1683705
5.79034,4.5655584,0.061021715,0.013382491,0.0065918155,4.7548847,-8.580819,-1.1683705
5.7903194,4.56573,0.055695392,0.014447756,0.008722344,4.7261543,-8.652645,-1.1587936
5.790299,4.5659018,0.055695392,0.014447756,0.008722344,4.7261543,-8.652645,-1.1587936
5.7902884,4.5660744,0.051434334,0.016578285,0.014048667,4.697424,-8.614338,-1.1540052
5.790278,4.566245,0.051434334,0.016578285,0.014048667,4.697424,-8.614338,-1.1540052
5.7902045,4.5663896,0.04823854,0.018708814,0.016179197,4.697424,-8.5473,-1.2114661
5.7901306,4.566533,0.04823854,0.018708814,0.016179197,4.697424,-8.5473,-1.2114661
5.7901325,4.5667,0.043977484,0.018708814,0.01724446,4.654328,-8.556877,-1.1444284
5.7901344,4.5668697,0.043977484,0.018708814,0.01724446,4.654328,-8.556877,-1.1444284
5.7901077,4.567025,0.040781688,0.019774077,0.021505518,4.6686935,-8.485051,-1.115698
5.79008,4.5671835,0.040781688,0.019774077,0.021505518,4.6686935,-8.485051,-1.115698
5.790002,4.567308,0.03865116,0.019774077,0.024701312,4.7070007,-8.508993,-1.1923125
5.789922,4.5674334,0.03865116,0.019774077,0.024701312,4.7070007,-8.508993,-1.1923125
5.7898827,4.567578,0.033324838,0.019774077,0.023636047,4.721366,-8.504205,-1.0965444
5.7898426,4.5677223,0.033324838,0.019774077,0.023636047,4.721366,-8.504205,-1.0965444
5.7898164,4.567869,0.030129045,0.019774077,0.023636047,4.6926355,-8.475474,-1.0582372
5.78979,4.5680156,0.030129045,0.019774077,0.023636047,4.6926355,-8.475474,-1.0582372
5.7897625,4.568158,0.026933251,0.019774077,0.024701312,4.6782703,-8.480263,-1.1013328
5.7897344,4.5683017,0.026933251,0.019774077,0.024701312,4.6782703,-8.480263,-1.1013328
5.7897344,4.56845,0.024802722,0.021904606,0.024701312,4.6351743,-8.480263,-1.0726024
5.7897344,4.5685983,0.024802722,0.021904606,0.024701312,4.6351743,-8.480263,-1.0726024
5.789754,4.5687456,0.02160693,0.021904606,0.024701312,4.6016555,-8.480263,-1.1109096
5.7897735,4.5688934,0.02160693,0.021904606,0.024701312,4.6016555,-8.480263,-1.1109096
5.7898207,4.5690365,0.018411135,0.020839343,0.022570781,4.5633483,-8.508993,-1.0773908
5.789868,4.5691786,0.018411135,0.020839343,0.022570781,4.5633483,-8.508993,-1.0773908
5.7899017,4.56932,0.017345872,0.019774077,0.019374989,4.596867,-8.542512,-1.0726024
5.789935,4.569462,0.017345872,0.019774077,0.019374989,4.596867,-8.542512,-1.0726024
5.789986,4.5696,0.016280606,0.019774077,0.018309724,4.55856,-8.51857,-1.0869676
5.790037,4.5697384,0.016280606,0.019774077,0.018309724,4.55856,-8.51857,-1.0869676
5.790082,4.569875,0.0141500775,0.018708814,0.015113931,4.5633483,-8.523358,-1.0821792
5.790127,4.5700107,0.0141500775,0.018708814,0.015113931,4.5633483,-8.523358,-1.0821792
5.7901516,4.5701437,0.012019549,0.016578285,0.010852873,4.5777135,-8.556877,-0.9672575
5.790176,4.570277,0.012019549,0.016578285,0.010852873,4.5777135,-8.556877,-0.9672575
5.7901955,4.570409,0.010954284,0.01551302,0.0065918155,4.6112323,-8.580819,-1.043872
5.790215,4.570541,0.010954284,0.01551302,0.0065918155,4.6112323,-8.580819,-1.043872
5.790245,4.5706716,0.010954284,0.01551302,0.0023307577,4.5633483,-8.576031,-1.0103531
5.7902756,4.5708017,0.010954284,0.01551302,0.0023307577,4.5633483,-8.576031,-1.0103531
5.7903023,4.5709286,0.00988902,0.012317227,-0.0008650357,4.5633483,-8.552089,-1.0342951
5.7903295,4.571056,0.00988902,0.012317227,-0.0008650357,4.5633483,-8.552089,-1.0342951
5.7903485,4.571182,0.00988902,0.009121433,-0.0051260935,4.572925,-8.5473,-1.043872
5.790368,4.5713077,0.00988902,0.009121433,-0.0051260935,4.572925,-8.5473,-1.043872
5.790395,4.5714273,0.008823755,0.0048603755,-0.010452416,4.5298295,-8.51857,-1.0342951
5.7904215,4.5715475,0.008823755,0.0048603755,-0.010452416,4.5298295,-8.51857,-1.0342951
5.7904143,4.5716705,0.00988902,0.0027298466,-0.013648209,4.582502,-8.504205,-1.0103531
5.790407,4.571793,0.00988902,0.0027298466,-0.013648209,4.582502,-8.504205,-1.0103531
5.790398,4.571915,0.010954284,-0.00046594674,-0.015778739,4.5633483,-8.451532,-1.0582372
5.7903886,4.5720377,0.010954284,-0.00046594674,-0.015778739,4.5633483,-8.451532,-1.0582372
5.790412,4.5721545,0.010954284,-0.00366174,-0.015778739,4.5058875,-8.470686,-1.0295067
5.790436,4.572272,0.010954284,-0.00366174,-0.015778739,4.5058875,-8.470686,-1.0295067
5.7904215,4.57239,0.010954284,-0.0068575335,-0.016844003,4.55856,-8.432379,-1.0390835
5.790407,4.5725083,0.010954284,-0.0068575335,-0.016844003,4.55856,-8.432379,-1.0390835
5.790367,4.5726223,0.010954284,-0.010053327,-0.017909266,4.5681367,-8.355764,-0.9911995
5.7903275,4.5727367,0.010954284,-0.010053327,-0.017909266,4.5681367,-8.355764,-0.9911995
5.7903004,4.572852,0.012019549,-0.012183856,-0.014713474,4.548983,-8.360553,-1.0055647
5.7902737,4.5729685,0.012019549,-0.012183856,-0.014713474,4.548983,-8.360553,-1.0055647
5.79025,4.573084,0.012019549,-0.01324912,-0.012582945,4.5298295,-8.327033,-0.9959879
5.790226,4.5731983,0.012019549,-0.01324912,-0.012582945,4.5298295,-8.327033,-0.9959879
5.7901754,4.5733094,0.0141500775,-0.015379649,-0.010452416,4.5777135,-8.307879,-1.0007763
5.790125,4.57342,0.0141500775,-0.015379649,-0.010452416,4.5777135,-8.307879,-1.0007763
5.790007,4.5734906,0.0141500775,-0.014314385,-0.009387151,4.5633483,-8.269572,-1.1204864
5.789889,4.573561,0.0141500775,-0.014314385,-0.009387151,4.5633483,-8.269572,-1.1204864
5.789843,4.5736723,0.013084813,-0.01324912,-0.006191358,4.510676,-8.283937,-1.1252748
5.7897973,4.5737844,0.013084813,-0.01324912,-0.006191358,4.510676,-8.283937,-1.1252748
5.7896614,4.5738034,0.013084813,-0.014314385,0.00020022877,4.55856,-8.274361,-1.1492168
5.7895255,4.573822,0.013084813,-0.014314385,0.00020022877,4.55856,-8.274361,-1.1492168
5.7894015,4.573787,0.013084813,-0.01324912,0.0065918155,4.596867,-8.212111,-1.1779473
5.7892776,4.573752,0.013084813,-0.01324912,0.0065918155,4.596867,-8.212111,-1.1779473
5.7892237,4.573655,0.00988902,-0.010053327,0.011918138,4.582502,-8.236053,-1.2641385
5.7891693,4.5735583,0.00988902,-0.010053327,0.011918138,4.582502,-8.236053,-1.2641385
5.7891397,4.573454,0.0066932263,-0.0068575335,0.018309724,4.582502,-8.192958,-1.340753
5.78911,4.57335,0.0066932263,-0.0068575335,0.018309724,4.582502,-8.192958,-1.340753
5.789066,4.5732527,0.0045626974,-0.00366174,0.024701312,4.6399627,-8.183381,-1.3455414
5.7890215,4.573156,0.0045626974,-0.00366174,0.024701312,4.6399627,-8.183381,-1.3455414
5.7889805,4.5730553,-0.0007636249,-0.00046594674,0.02896237,4.6351743,-8.202535,-1.3311762
5.7889395,4.572955,-0.0007636249,-0.00046594674,0.02896237,4.6351743,-8.202535,-1.3311762
5.788911,4.572849,-0.0050246827,0.0016645822,0.03428869,4.663905,-8.207323,-1.388637
5.7888823,4.5727425,-0.0050246827,0.0016645822,0.03428869,4.663905,-8.207323,-1.388637
5.788864,4.5726295,-0.012481534,0.0048603755,0.039615013,4.630386,-8.2169,-1.364695
5.788846,4.572517,-0.012481534,0.0048603755,0.039615013,4.630386,-8.2169,-1.364695
5.788844,4.572393,-0.021003649,0.008056169,0.042810805,4.6399627,-8.255207,-1.4173675
5.788842,4.5722694,-0.021003649,0.008056169,0.042810805,4.6399627,-8.255207,-1.4173675
5.7888575,4.5721393,-0.027395237,0.011251962,0.047071867,4.596867,-8.279149,-1.3838485
5.7888722,4.5720096,-0.027395237,0.011251962,0.047071867,4.596867,-8.279149,-1.3838485
5.7888827,4.571876,-0.034852087,0.01551302,0.052398186,4.6495395,-8.274361,-1.4460979
5.7888927,4.5717425,-0.034852087,0.01551302,0.052398186,4.6495395,-8.274361,-1.4460979
5.788913,4.571603,-0.041243672,0.016578285,0.058789775,4.644751,-8.279149,-1.4556746
5.788933,4.57146,-0.041243672,0.016578285,0.058789775,4.644751,-8.279149,-1.4556746
5.7889757,4.5713162,-0.048700526,0.019774077,0.0641161,4.6112323,-8.341399,-1.4508862
5.789019,4.5711694,-0.048700526,0.019774077,0.0641161,4.6112323,-8.341399,-1.4508862
