Pitch,Roll,Gyro_X,Gyro_Y,Gyro_Z,Accel_X,Accel_Y,Accel_Z
0.45787033,4.752881,-0.06574476,-0.04946811,0.08329086,-4.4675803,-8.537724,0.2825158
0.45808297,4.752801,-0.06574476,-0.04946811,0.08329086,-4.4675803,-8.537724,0.2825158
0.4582766,4.752691,-0.06574476,-0.051598642,0.09074771,-4.5537715,-8.456321,0.12928689
0.4584711,4.752579,-0.06574476,-0.051598642,0.09074771,-4.5537715,-8.456321,0.12928689
0.45868367,4.752479,-0.06787529,-0.0558597,0.09926982,-4.5394063,-8.379706,0.16280572
0.45889658,4.7523785,-0.06787529,-0.0558597,0.09926982,-4.5394063,-8.379706,0.16280572
0.4591362,4.7523026,-0.07213634,-0.062251285,0.10992247,-4.534618,-8.322245,0.23942018
0.459376,4.752227,-0.07213634,-0.062251285,0.10992247,-4.534618,-8.322245,0.23942018
0.45962578,4.752157,-0.07852793,-0.06970814,0.11737932,-4.606444,-8.312668,0.24899697
0.45987576,4.752087,-0.07852793,-0.06970814,0.11737932,-4.606444,-8.312668,0.24899697
0.460132,4.752001,-0.08491952,-0.077164985,0.12590143,-4.6112323,-8.279149,0.20111294
0.46038368,4.751917,-0.08491952,-0.077164985,0.12590143,-4.6112323,-8.279149,0.20111294
0.46065208,4.7518277,-0.091311105,-0.0856871,0.13548881,-4.644751,-8.24563,0.18674773
0.4609089,4.751743,-0.091311105,-0.0856871,0.13548881,-4.644751,-8.24563,0.18674773
0.4611888,4.7516737,-0.09770269,-0.091013424,0.14720672,-4.6399627,-8.255207,0.2633622
0.46147,4.7516046,-0.09770269,-0.091013424,0.14720672,-4.6399627,-8.255207,0.2633622
0.46175963,4.7515216,-0.10515954,-0.09847028,0.15892464,-4.6686935,-8.303091,0.22984336
0.4620499,4.7514386,-0.10515954,-0.09847028,0.15892464,-4.6686935,-8.303091,0.22984336
0.4623532,4.751355,-0.11261639,-0.10486186,0.17170781,-4.630386,-8.403648,0.25857377
0.46266466,4.751269,-0.11261639,-0.10486186,0.17170781,-4.630386,-8.403648,0.25857377
0.46297428,4.751184,-0.11687745,-0.11231872,0.18768677,-4.55856,-8.341399,0.25378537
0.46329257,4.7510967,-0.11687745,-0.11231872,0.18768677,-4.55856,-8.341399,0.25378537
0.46359995,4.7509685,-0.12326904,-0.11764504,0.20260048,-4.43885,-8.418014,0.21068975
0.4639081,4.750839,-0.12326904,-0.11764504,0.20260048,-4.43885,-8.418014,0.21068975
0.46418336,4.7506776,-0.12966062,-0.122971356,0.21431838,-4.31914,-8.379706,0.17238252
0.46445742,4.750516,-0.12966062,-0.122971356,0.21431838,-4.31914,-8.379706,0.17238252
0.46467757,4.7503376,-0.13498695,-0.12829769,0.2228405,-4.209007,-8.394072,0.20590134
0.46489564,4.75016,-0.13498695,-0.12829769,0.2228405,-4.209007,-8.394072,0.20590134
0.4650418,4.750002,-0.13711748,-0.13255873,0.23136261,-4.132392,-8.461109,0.21547815
0.46518725,4.749844,-0.13711748,-0.13255873,0.23136261,-4.132392,-8.461109,0.21547815
0.46532133,4.7496953,-0.14137854,-0.1368198,0.2377542,-4.0557775,-8.494628,0.18195933
0.46545473,4.749547,-0.14137854,-0.1368198,0.2377542,-4.0557775,-8.494628,0.18195933
0.46557125,4.7494106,-0.1456396,-0.13788506,0.2377542,-3.9743748,-8.513782,0.18195933
0.46568766,4.7492743,-0.1456396,-0.13788506,0.2377542,-3.9743748,-8.513782,0.18195933
0.46579707,4.7491455,-0.14777012,-0.13468927,0.23881947,-3.940856,-8.561666,0.19153613
0.46590626,4.749017,-0.14777012,-0.13468927,0.23881947,-3.940856,-8.561666,0.19153613
0.46600807,4.7488947,-0.14990065,-0.12936294,0.2377542,-3.9312792,-8.63828,0.21068975
0.4661101,4.748772,-0.14990065,-0.12936294,0.2377542,-3.9312792,-8.63828,0.21068975
0.46629608,4.7485294,-0.15203118,-0.122971356,0.23242788,-3.8881836,-8.7053175,0.20111294
0.46629608,4.7485294,-0.15203118,-0.122971356,0.23242788,-3.8881836,-8.7053175,0.20111294
0.46637854,4.7484303,-0.15203118,-0.11551451,0.2228405,-3.8067808,-8.7532015,0.30166942
0.46645728,4.7483363,-0.15203118,-0.11551451,0.2228405,-3.8067808,-8.7532015,0.30166942
0.46652776,4.748237,-0.15096591,-0.105927125,0.21431838,-3.7828386,-8.7771435,0.29688102
0.46659794,4.748139,-0.15096591,-0.105927125,0.21431838,-3.7828386,-8.7771435,0.29688102
0.46665868,4.74803,-0.14883539,-0.09847028,0.20366573,-3.7349546,-8.825027,0.2633622
0.46671948,4.7479215,-0.14883539,-0.09847028,0.20366573,-3.7349546,-8.825027,0.2633622
0.46676978,4.747799,-0.14670485,-0.09207869,0.19088256,-3.7014358,-8.820239,0.20111294
0.46682018,4.747676,-0.14670485,-0.09207869,0.19088256,-3.7014358,-8.820239,0.20111294
0.46685538,4.7475843,-0.14350906,-0.08888289,0.1780994,-3.6487634,-8.853758,0.33039984
0.46689084,4.747493,-0.14350906,-0.08888289,0.1780994,-3.6487634,-8.853758,0.33039984
0.46690804,4.7474027,-0.139248,-0.08675237,0.1599899,-3.6296098,-8.901642,0.32561144
0.46692538,4.7473125,-0.139248,-0.08675237,0.1599899,-3.6296098,-8.901642,0.32561144
0.46692333,4.747225,-0.13285641,-0.08462184,0.14081514,-3.6104562,-8.954314,0.31603462
0.46692145,4.747138,-0.13285641,-0.08462184,0.14081514,-3.6104562,-8.954314,0.31603462
0.46690026,4.7470503,-0.1275301,-0.08249131,0.12164038,-3.5338416,-8.968679,0.29209262
0.46687916,4.746964,-0.1275301,-0.08249131,0.12164038,-3.5338416,-8.968679,0.29209262
0.46683934,4.746874,-0.122203775,-0.078230254,0.102465615,-3.4811692,-8.978256,0.25378537
0.46679926,4.7467833,-0.122203775,-0.078230254,0.102465615,-3.4811692,-8.978256,0.25378537
0.46673802,4.7467003,-0.11474692,-0.07183866,0.08116033,-3.4715924,-9.02614,0.272939
0.46667683,4.746617,-0.11474692,-0.07183866,0.08116033,-3.4715924,-9.02614,0.272939
0.4663051,4.7462597,-0.09983322,-0.05372917,0.044941336,-3.4955344,-9.045294,0.20590134
0.4663051,4.7462597,-0.09983322,-0.05372917,0.044941336,-3.4955344,-9.045294,0.20590134
0.4663051,4.7462597,-0.09983322,-0.05372917,0.044941336,-3.4955344,-9.045294,0.20590134
0.4663051,4.7462597,-0.09983322,-0.05372917,0.044941336,-3.4955344,-9.045294,0.20590134
0.46619374,4.746184,-0.092376366,-0.04201126,0.02683184,-3.5338416,-9.011775,0.2633622
0.46607962,4.746106,-0.092376366,-0.04201126,0.02683184,-3.5338416,-9.011775,0.2633622
0.465947,4.7460237,-0.08491952,-0.028162822,0.010852873,-3.6104562,-9.002198,0.24899697
0.46581614,4.745942,-0.08491952,-0.028162822,0.010852873,-3.6104562,-9.002198,0.24899697
0.46565363,4.74586,-0.077462666,-0.01324912,-0.0029955646,-3.6727054,-9.050082,0.29688102
0.46565363,4.74586,-0.077462666,-0.01324912,-0.0029955646,-3.6727054,-9.050082,0.29688102
0.46536034,4.7457123,-0.07213634,0.0005993177,-0.016844003,-3.7253778,-9.030929,0.2681506
0.46523514,4.7456484,-0.07213634,0.0005993177,-0.016844003,-3.7253778,-9.030929,0.2681506
0.46506774,4.7455635,-0.06574476,0.013382491,-0.028561912,-3.7972038,-9.006987,0.24899697
0.4649001,4.7454786,-0.06574476,0.013382491,-0.028561912,-3.7972038,-9.006987,0.24899697
0.46472216,4.745409,-0.05935317,0.026165664,-0.039214555,-3.8738184,-9.006987,0.31124622
0.46454453,4.74534,-0.05935317,0.026165664,-0.039214555,-3.8738184,-9.006987,0.31124622
0.46435708,4.7452717,-0.05402685,0.03681831,-0.048801936,-3.9552212,-8.944737,0.31124622
0.46417016,4.745204,-0.05402685,0.03681831,-0.048801936,-3.9552212,-8.944737,0.31124622
0.46394804,4.745117,-0.049765788,0.045340426,-0.05412826,-4.0414124,-8.90643,0.2873042
0.46378505,4.745054,-0.049765788,0.045340426,-0.05412826,-4.0414124,-8.90643,0.2873042
0.46359134,4.7449636,-0.045504734,0.052797277,-0.05732405,-4.0797195,-8.882488,0.25378537
0.46339625,4.7448735,-0.045504734,0.052797277,-0.05732405,-4.0797195,-8.882488,0.25378537
0.46320057,4.744782,-0.042308938,0.05918886,-0.059454583,-4.185065,-8.7771435,0.2633622
0.46300474,4.7446914,-0.042308938,0.05918886,-0.059454583,-4.185065,-8.7771435,0.2633622
0.46285108,4.7445383,-0.039113145,0.06451519,-0.058389317,-4.237737,-8.762778,0.19153613
0.46269748,4.7443852,-0.039113145,0.06451519,-0.058389317,-4.237737,-8.762778,0.19153613
0.4625826,4.7442136,-0.035917353,0.06877624,-0.056258786,-4.3287168,-8.743625,0.23463176
0.46246785,4.7440424,-0.035917353,0.06877624,-0.056258786,-4.3287168,-8.743625,0.23463176
0.46245313,4.743863,-0.034852087,0.071972035,-0.050932467,-4.3718123,-8.690952,0.17717093
0.4624389,4.743685,-0.034852087,0.071972035,-0.050932467,-4.3718123,-8.690952,0.17717093
0.4625046,4.743541,-0.034852087,0.0762331,-0.04454088,-4.4340615,-8.676587,0.21547815
0.46257097,4.7433977,-0.034852087,0.0762331,-0.04454088,-4.4340615,-8.676587,0.21547815
0.46266055,4.7432747,-0.034852087,0.08049415,-0.039214555,-4.453215,-8.66701,0.22984336
0.46275046,4.7431526,-0.034852087,0.08049415,-0.039214555,-4.453215,-8.66701,0.22984336
0.46282086,4.742999,-0.035917353,0.08262468,-0.033888236,-4.477157,-8.6574335,0.17238252
0.4628918,4.742846,-0.035917353,0.08262468,-0.033888236,-4.477157,-8.6574335,0.17238252
0.46297592,4.7426972,-0.03698262,0.08475521,-0.027496647,-4.4915223,-8.623915,0.16759412
0.46306035,4.742549,-0.03698262,0.08475521,-0.027496647,-4.4915223,-8.623915,0.16759412
0.46314427,4.7423935,-0.039113145,0.086885735,-0.024300855,-4.4963107,-8.647857,0.16280572
0.46322837,4.7422385,-0.039113145,0.086885735,-0.024300855,-4.4963107,-8.647857,0.16280572
0.46331966,4.7420855,-0.039113145,0.085820474,-0.018974531,-4.525041,-8.643068,0.14844051
0.46341103,4.7419324,-0.039113145,0.085820474,-0.018974531,-4.525041,-8.643068,0.14844051
0.46349987,4.7417765,-0.039113145,0.08368994,-0.016844003,-4.55856,-8.623915,0.110133275
0.463589,4.7416205,-0.039113145,0.08368994,-0.016844003,-4.55856,-8.623915,0.110133275
0.46369922,4.7414894,-0.04017841,0.08155942,-0.016844003,-4.5154643,-8.599973,0.18195933
0.4638097,4.741358,-0.04017841,0.08155942,-0.016844003,-4.5154643,-8.599973,0.18195933
0.4639257,4.7412376,-0.041243672,0.07729836,-0.016844003,-4.582502,-8.6095495,0.18195933
0.4640417,4.7411184,-0.041243672,0.07729836,-0.016844003,-4.582502,-8.6095495,0.18195933
0.46416703,4.7410426,-0.04017841,0.071972035,-0.016844003,-4.5681367,-8.6095495,0.24899697
0.46429226,4.7409678,-0.04017841,0.071972035,-0.016844003,-4.5681367,-8.6095495,0.24899697
0.46441367,4.7408743,-0.041243672,0.06558045,-0.018974531,-4.6016555,-8.614338,0.21547815
0.46453467,4.740782,-0.041243672,0.06558045,-0.018974531,-4.6016555,-8.614338,0.21547815
0.46463692,4.740652,-0.042308938,0.05599307,-0.022170324,-4.5920787,-8.643068,0.14844051
0.46473545,4.740528,-0.042308938,0.05599307,-0.022170324,-4.5920787,-8.643068,0.14844051
0.46482125,4.7403936,-0.042308938,0.046405688,-0.024300855,-4.5298295,-8.6574335,0.14844051
0.46490788,4.740259,-0.042308938,0.046405688,-0.024300855,-4.5298295,-8.6574335,0.14844051
0.46501985,4.740225,-0.042308938,0.035753045,-0.025366118,-4.4723687,-8.700529,0.25857377
0.46513167,4.7401905,-0.042308938,0.035753045,-0.025366118,-4.4723687,-8.700529,0.25857377
0.46514738,4.7400327,-0.04017841,0.0251004,-0.029627176,-4.43885,-8.75799,0.16280572
0.4651638,4.7398744,-0.04017841,0.0251004,-0.029627176,-4.43885,-8.75799,0.16280572
0.46506378,4.7397304,-0.03804788,0.016578285,-0.031757705,-4.381389,-8.844181,0.17717093
0.46496654,4.73959,-0.03804788,0.016578285,-0.031757705,-4.381389,-8.844181,0.17717093
0.4647961,4.7395773,-0.035917353,0.008056169,-0.036018763,-4.285621,-8.868123,0.2681506
0.46462044,4.739565,-0.035917353,0.008056169,-0.036018763,-4.285621,-8.868123,0.2681506
0.46443906,4.7395244,-0.033786822,0.0005993177,-0.041345086,-4.2281604,-8.944737,0.23463176
0.4642588,4.7394843,-0.033786822,0.0005993177,-0.041345086,-4.2281604,-8.944737,0.23463176
0.46407068,4.7394495,-0.031656295,-0.0068575335,-0.04773667,-4.209007,-9.002198,0.23463176
0.46388212,4.7394156,-0.031656295,-0.0068575335,-0.04773667,-4.209007,-9.002198,0.23463176
0.46369043,4.7394032,-0.0284605,-0.014314385,-0.05199773,-4.2042184,-9.050082,0.2633622
0.46349907,4.7393913,-0.0284605,-0.014314385,-0.05199773,-4.2042184,-9.050082,0.2633622
0.46330383,4.7393575,-0.024199443,-0.019640706,-0.056258786,-4.146757,-9.121908,0.20111294
0.4631078,4.739323,-0.024199443,-0.019640706,-0.056258786,-4.146757,-9.121908,0.20111294
0.4629054,4.7393103,-0.018873122,-0.023901764,-0.058389317,-4.1706996,-9.097966,0.23463176
0.4627108,4.739298,-0.018873122,-0.023901764,-0.058389317,-4.1706996,-9.097966,0.23463176
0.46251154,4.739302,-0.0114162695,-0.028162822,-0.05732405,-4.10845,-9.054871,0.24899697
0.46231386,4.7393064,-0.0114162695,-0.028162822,-0.05732405,-4.10845,-9.054871,0.24899697
0.4621243,4.7392783,-0.006089947,-0.031358615,-0.05732405,-4.0653543,-9.131485,0.1388637
0.46193266,4.7392507,-0.006089947,-0.031358615,-0.05732405,-4.0653543,-9.131485,0.1388637
0.46173587,4.7392673,0.00030163955,-0.031358615,-0.056258786,-4.0797195,-9.093178,0.24899697
0.4615389,4.7392845,0.00030163955,-0.031358615,-0.056258786,-4.0797195,-9.093178,0.24899697
0.46134633,4.7392826,0.0045626974,-0.027097559,-0.053062994,-4.084508,-9.083601,0.19632454
0.4611538,4.7392807,0.0045626974,-0.027097559,-0.053062994,-4.084508,-9.083601,0.19632454
0.46097115,4.739261,0.010954284,-0.018575443,-0.050932467,-4.0414124,-9.054871,0.1340753
0.46078786,4.739241,0.010954284,-0.018575443,-0.050932467,-4.0414124,-9.054871,0.1340753
0.46060273,4.7392373,0.017345872,-0.007922798,-0.04773667,-4.0701427,-9.045294,0.18195933
0.4604191,4.739233,0.017345872,-0.007922798,-0.04773667,-4.0701427,-9.045294,0.18195933
0.4602383,4.7392206,0.022672193,0.0048603755,-0.045606144,-4.122815,-9.064447,0.17238252
0.46005815,4.739208,0.022672193,0.0048603755,-0.045606144,-4.122815,-9.064447,0.17238252
0.45988107,4.739192,0.026933251,0.017643549,-0.043475613,-4.1611223,-9.050082,0.17717093
0.459704,4.739176,0.026933251,0.017643549,-0.043475613,-4.1611223,-9.050082,0.17717093
0.45952296,4.7391796,0.030129045,0.029361458,-0.04241035,-4.209007,-9.030929,0.22505496
0.45934185,4.7391834,0.030129045,0.029361458,-0.04241035,-4.209007,-9.030929,0.22505496
0.45918882,4.7391305,0.034390103,0.037883572,-0.04241035,-4.295198,-9.006987,0.16280572
0.4590361,4.739077,0.034390103,0.037883572,-0.04241035,-4.295198,-9.006987,0.16280572
0.45886016,4.739065,0.037585896,0.04214463,-0.041345086,-4.3478703,-9.050082,0.22026655
0.45868433,4.7390523,0.037585896,0.04214463,-0.041345086,-4.3478703,-9.050082,0.22026655
0.45852557,4.7390146,0.041846953,0.04427516,-0.039214555,-4.381389,-9.030929,0.21068975
0.45836726,4.738977,0.041846953,0.04427516,-0.039214555,-4.381389,-9.030929,0.21068975
0.45819163,4.7390065,0.045042746,0.043209895,-0.037084028,-4.390966,-8.959103,0.23942018
0.45801595,4.739035,0.045042746,0.043209895,-0.037084028,-4.390966,-8.959103,0.23942018
0.4581219,4.739079,0.04823854,0.038948838,-0.033888236,-4.4196963,-8.930372,0.23942018
0.4582283,4.73912,0.04823854,0.038948838,-0.033888236,-4.4196963,-8.930372,0.23942018
0.4582584,4.739056,0.0524996,0.032557253,-0.029627176,-4.3957543,-8.863335,0.20590134
0.45828885,4.738992,0.0524996,0.032557253,-0.029627176,-4.3957543,-8.863335,0.20590134
0.4584041,4.7390323,0.054630127,0.0251004,-0.025366118,-4.3718123,-8.825027,0.23463176
0.45851904,4.739068,0.054630127,0.0251004,-0.025366118,-4.3718123,-8.825027,0.23463176
0.4586289,4.739069,0.056760654,0.019774077,-0.017909266,-4.3766007,-8.767567,0.22026655
0.45873803,4.7390695,0.056760654,0.019774077,-0.017909266,-4.3766007,-8.767567,0.22026655
0.45886117,4.739085,0.058891185,0.014447756,-0.009387151,-4.343082,-8.719683,0.22505496
0.4589835,4.7390995,0.058891185,0.014447756,-0.009387151,-4.343082,-8.719683,0.22505496
0.45911476,4.739121,0.061021715,0.010186698,-0.0019303001,-4.3622355,-8.66701,0.21547815
0.45924336,4.739142,0.061021715,0.010186698,-0.0019303001,-4.3622355,-8.66701,0.21547815
0.45936814,4.739141,0.062086977,0.0069909045,0.0065918155,-4.405331,-8.595184,0.16759412
0.45949256,4.7391405,0.062086977,0.0069909045,0.0065918155,-4.405331,-8.595184,0.16759412
0.45964214,4.7391706,0.062086977,0.0027298466,0.015113931,-4.343082,-8.6095495,0.21547815
0.45979115,4.7392,0.062086977,0.0027298466,0.015113931,-4.343082,-8.6095495,0.21547815
0.45995182,4.739292,0.062086977,0.0005993177,0.025766576,-4.3287168,-8.580819,0.24420857
0.4601128,4.7393837,0.062086977,0.0005993177,0.025766576,-4.3287168,-8.580819,0.24420857
0.4601227,4.7395544,0.05995645,-0.0025964756,0.033223428,-4.2425256,-8.585608,0.2873042
0.46013218,4.7397275,0.05995645,-0.0025964756,0.033223428,-4.2425256,-8.585608,0.2873042
0.460096,4.7398825,0.05995645,-0.0047270046,0.039615013,-4.223372,-8.595184,0.272939
0.46005845,4.740037,0.05995645,-0.0047270046,0.039615013,-4.223372,-8.595184,0.272939
0.46000013,4.7401752,0.05782592,-0.0068575335,0.041745543,-4.175488,-8.571242,0.2825158
0.4599409,4.7403126,0.05782592,-0.0068575335,0.041745543,-4.175488,-8.571242,0.2825158
0.45991033,4.740468,0.055695392,-0.010053327,0.041745543,-4.1802764,-8.571242,0.31124622
0.45987922,4.7406235,0.055695392,-0.010053327,0.041745543,-4.1802764,-8.571242,0.31124622
0.45983964,4.7407746,0.05356486,-0.014314385,0.039615013,-4.1802764,-8.604761,0.320823
0.4597994,4.740926,0.05356486,-0.014314385,0.039615013,-4.1802764,-8.604761,0.320823
0.45969793,4.7409773,0.0524996,-0.018575443,0.03854975,-4.1659107,-8.643068,0.23942018
0.4595964,4.741028,0.0524996,-0.018575443,0.03854975,-4.1659107,-8.643068,0.23942018
0.45953488,4.7411695,0.051434334,-0.02496703,0.037484486,-4.1515455,-8.590396,0.31124622
0.45947257,4.741311,0.051434334,-0.02496703,0.037484486,-4.1515455,-8.590396,0.31124622
0.45940375,4.7414484,0.05036907,-0.031358615,0.037484486,-4.1132383,-8.6574335,0.34476504
0.4593348,4.7415853,0.05036907,-0.031358615,0.037484486,-4.1132383,-8.6574335,0.34476504
0.45929697,4.741745,0.049303804,-0.037750203,0.040680278,-4.122815,-8.590396,0.37349546
0.45925856,4.741905,0.049303804,-0.037750203,0.040680278,-4.122815,-8.590396,0.37349546
0.45923528,4.7420726,0.049303804,-0.04201126,0.042810805,-4.1371803,-8.561666,0.37349546
0.45921147,4.74224,0.049303804,-0.04201126,0.042810805,-4.1371803,-8.561666,0.37349546
0.45919994,4.7424135,0.05036907,-0.045207053,0.047071867,-4.156334,-8.580819,0.38307226
0.45918798,4.742586,0.05036907,-0.045207053,0.047071867,-4.156334,-8.580819,0.38307226
0.4592036,4.742766,0.05036907,-0.045207053,0.05346345,-4.1659107,-8.51857,0.37349546
0.45921868,4.7429457,0.05036907,-0.045207053,0.05346345,-4.1659107,-8.51857,0.37349546
0.45928186,4.743128,0.049303804,-0.044141788,0.0641161,-4.237737,-8.561666,0.36870706
0.45934463,4.74331,0.049303804,-0.044141788,0.0641161,-4.237737,-8.561666,0.36870706
0.45943385,4.74349,0.049303804,-0.040945996,0.075834006,-4.256891,-8.5473,0.41180268
0.4595228,4.7436705,0.049303804,-0.040945996,0.075834006,-4.256891,-8.5473,0.41180268
0.45964944,4.743843,0.047173277,-0.035619672,0.089682445,-4.2760444,-8.537724,0.37349546
0.45977536,4.7440157,0.047173277,-0.035619672,0.089682445,-4.2760444,-8.537724,0.37349546
0.45990732,4.744189,0.047173277,-0.030293351,0.10566141,-4.295198,-8.585608,0.40222588
0.4600377,4.744361,0.047173277,-0.030293351,0.10566141,-4.295198,-8.585608,0.40222588
0.4601783,4.7445283,0.04610801,-0.021771235,0.12164038,-4.271256,-8.580819,0.34476504
0.46035662,4.7447433,0.04610801,-0.021771235,0.12164038,-4.271256,-8.580819,0.34476504
0.46045423,4.744891,0.04291222,-0.010053327,0.13335828,-4.2425256,-8.604761,0.36391866
0.46054575,4.745031,0.04291222,-0.010053327,0.13335828,-4.2425256,-8.604761,0.36391866
0.46066153,4.7451754,0.040781688,0.0027298466,0.14614145,-4.247314,-8.619126,0.39264908
0.46079248,4.7453394,0.040781688,0.0027298466,0.14614145,-4.247314,-8.619126,0.39264908
0.46088198,4.7454576,0.03865116,0.014447756,0.15572885,-4.2425256,-8.690952,0.40222588
0.46100032,4.745615,0.03865116,0.014447756,0.15572885,-4.2425256,-8.690952,0.40222588
0.46113697,4.745732,0.037585896,0.0251004,0.16212043,-4.3287168,-8.710106,0.45489833
0.46129492,4.7458673,0.037585896,0.0251004,0.16212043,-4.3287168,-8.710106,0.45489833
0.46146256,4.7460017,0.037585896,0.032557253,0.16531622,-4.357447,-8.7532015,0.4213795
0.46166393,4.7461643,0.037585896,0.032557253,0.16531622,-4.357447,-8.7532015,0.4213795
0.4617793,4.7462654,0.03865116,0.035753045,0.16638148,-4.3622355,-8.810662,0.44532153
0.46193042,4.7463984,0.03865116,0.035753045,0.16638148,-4.3622355,-8.810662,0.44532153
0.46209946,4.7465334,0.039716423,0.035753045,0.16851202,-4.357447,-8.743625,0.45010993
0.4622673,4.7466683,0.039716423,0.035753045,0.16851202,-4.357447,-8.743625,0.45010993
0.46245188,4.7468057,0.039716423,0.030426722,0.16957727,-4.3766007,-8.762778,0.34476504
0.4626325,4.7469435,0.039716423,0.030426722,0.16957727,-4.3766007,-8.762778,0.34476504
0.46284875,4.7470818,0.041846953,0.024035135,0.16957727,-4.429273,-8.781932,0.3878607
0.46306205,4.747219,0.041846953,0.024035135,0.16957727,-4.429273,-8.781932,0.3878607
0.46325096,4.747368,0.043977484,0.016578285,0.17170781,-4.381389,-8.710106,0.45010993
0.46343845,4.747516,0.043977484,0.016578285,0.17170781,-4.381389,-8.710106,0.45010993
0.4636255,4.747671,0.04610801,0.008056169,0.1749036,-4.3861775,-8.724471,0.45968673
0.4638138,4.7478285,0.04610801,0.008056169,0.1749036,-4.3861775,-8.724471,0.45968673
0.46402422,4.747986,0.047173277,-0.00046594674,0.17916466,-4.4484267,-8.748413,0.48841715
0.4642335,4.748143,0.047173277,-0.00046594674,0.17916466,-4.4484267,-8.748413,0.48841715
0.46444649,4.748308,0.04823854,-0.008988062,0.18555625,-4.4244847,-8.7053175,0.49799395
0.46465832,4.7484727,0.04823854,-0.008988062,0.18555625,-4.4244847,-8.7053175,0.49799395
0.46490124,4.7486362,0.04823854,-0.016444914,0.19514363,-4.4196963,-8.6574335,0.4405331
0.46514297,4.7488008,0.04823854,-0.016444914,0.19514363,-4.4196963,-8.6574335,0.4405331
0.46537095,4.7489753,0.049303804,-0.023901764,0.20579627,-4.3622355,-8.6095495,0.45010993
0.4655975,4.7491493,0.049303804,-0.023901764,0.20579627,-4.3622355,-8.6095495,0.45010993
0.46583903,4.7493286,0.049303804,-0.033489145,0.21644892,-4.3382936,-8.576031,0.39743748
0.46607843,4.749508,0.049303804,-0.033489145,0.21644892,-4.3382936,-8.576031,0.39743748
0.46633753,4.7496886,0.049303804,-0.03988073,0.22710156,-4.367024,-8.513782,0.51235914
0.46659604,4.74987,0.049303804,-0.03988073,0.22710156,-4.367024,-8.513782,0.51235914
0.46689036,4.750046,0.04823854,-0.045207053,0.23668894,-4.4244847,-8.499416,0.50278234
0.46718368,4.7502213,0.04823854,-0.045207053,0.23668894,-4.4244847,-8.499416,0.50278234
0.467512,4.750388,0.045042746,-0.052663904,0.24840684,-4.453215,-8.494628,0.46447513
0.46783984,4.750555,0.045042746,-0.052663904,0.24840684,-4.453215,-8.494628,0.46447513
0.4682076,4.7507024,0.043977484,-0.05692496,0.26119003,-4.6112323,-8.556877,0.46926352
0.46857554,4.7508497,0.043977484,-0.05692496,0.26119003,-4.6112323,-8.556877,0.46926352
0.46896604,4.7509885,0.040781688,-0.060120758,0.277169,-4.721366,-8.556877,0.49320555
0.46935633,4.7511272,0.040781688,-0.060120758,0.277169,-4.721366,-8.556877,0.49320555
0.46978638,4.751235,0.03865116,-0.06331655,0.29847428,-4.879383,-8.528147,0.4309563
0.4702168,4.751343,0.03865116,-0.06331655,0.29847428,-4.879383,-8.528147,0.4309563
0.47067276,4.7514515,0.037585896,-0.066512346,0.32510588,-4.975151,-8.523358,0.45010993
0.47112915,4.75156,0.037585896,-0.066512346,0.32510588,-4.975151,-8.523358,0.45010993
0.4716214,4.751663,0.03545537,-0.06757761,0.35919434,-5.0134583,-8.599973,0.4309563
0.47211352,4.751766,0.03545537,-0.06757761,0.35919434,-5.0134583,-8.599973,0.4309563
0.47263715,4.7518787,0.033324838,-0.0707734,0.39434808,-5.070919,-8.6574335,0.47884035
0.4731605,4.751992,0.033324838,-0.0707734,0.39434808,-5.070919,-8.6574335,0.47884035
0.47372115,4.75211,0.031194309,-0.07396919,0.43376285,-5.1379566,-8.7292595,0.50757074
0.4742818,4.7522283,0.031194309,-0.07396919,0.43376285,-5.1379566,-8.7292595,0.50757074
0.47488502,4.752343,0.027998514,-0.077164985,0.47530818,-5.2241483,-8.7532015,0.51235914
0.47548825,4.752458,0.027998514,-0.077164985,0.47530818,-5.2241483,-8.7532015,0.51235914
0.47613087,4.7525826,0.026933251,-0.08036078,0.5200493,-5.305551,-9.021352,0.545878
0.4767758,4.7527075,0.026933251,-0.08036078,0.5200493,-5.305551,-9.021352,0.545878
0.477476,4.752826,0.026933251,-0.08462184,0.57224727,-5.5497594,-9.093178,0.5506664
0.4781746,4.752946,0.026933251,-0.08462184,0.57224727,-5.5497594,-9.093178,0.5506664
0.47893962,4.753043,0.025867987,-0.091013424,0.6287063,-5.6646814,-8.820239,0.4261679
0.47970325,4.7531404,0.025867987,-0.091013424,0.6287063,-5.6646814,-8.820239,0.4261679
0.48052916,4.7532353,0.02906378,-0.093143955,0.6904916,-5.755661,-8.748413,0.37349546
0.48135516,4.75333,0.02906378,-0.093143955,0.6904916,-5.755661,-8.748413,0.37349546
0.482242,4.753462,0.033324838,-0.09847028,0.7576032,-5.439626,-8.738836,0.51714754
0.48312607,4.7535944,0.033324838,-0.09847028,0.7576032,-5.439626,-8.738836,0.51714754
0.48407322,4.753749,0.037585896,-0.108057655,0.8204539,-5.363012,-8.590396,0.56982
0.48501664,4.753903,0.037585896,-0.108057655,0.8204539,-5.363012,-8.590396,0.56982
0.48602223,4.754061,0.040781688,-0.11551451,0.8790434,-5.6215854,-8.6334915,0.59376204
0.48702583,4.7542195,0.040781688,-0.11551451,0.8790434,-5.6215854,-8.6334915,0.59376204
0.48808923,4.754376,0.041846953,-0.1187103,0.93443716,-5.7843914,-8.7053175,0.5746084
0.48915157,4.754533,0.041846953,-0.1187103,0.93443716,-5.7843914,-8.7053175,0.5746084
0.4902735,4.7546926,0.040781688,-0.11977556,0.9962225,-5.985504,-8.781932,0.62249243
0.4913975,4.7548532,0.040781688,-0.11977556,0.9962225,-5.985504,-8.781932,0.62249243
0.49258444,4.7550106,0.03865116,-0.121906094,1.0590731,-6.191406,-8.872911,0.62249243
0.49502772,4.755328,0.03652063,-0.12616715,1.1272501,-6.3685765,-8.959103,0.6368576
0.49502772,4.755328,0.03652063,-0.12616715,1.1272501,-6.3685765,-8.959103,0.6368576
0.49628773,4.7554884,0.03652063,-0.12616715,1.1272501,-6.3685765,-8.959103,0.6368576
0.49894366,4.7558103,0.03652063,-0.13149348,1.2028838,-6.6750345,-8.978256,0.6464345
0.49894366,4.7558103,0.03652063,-0.13149348,1.2028838,-6.6750345,-8.978256,0.6464345
0.5003703,4.7559824,0.03865116,-0.13895033,1.2891703,-6.9623384,-9.088389,0.6943185
0.50177413,4.7561526,0.03865116,-0.13895033,1.2891703,-6.9623384,-9.088389,0.6943185
0.5032825,4.756339,0.04291222,-0.15066823,1.385044,-7.1251445,-9.23683,0.7278373
0.5047954,4.7565265,0.04291222,-0.15066823,1.385044,-7.1251445,-9.23683,0.7278373
0.5064105,4.7567267,0.049303804,-0.16451667,1.4883747,-7.345411,-9.3421755,0.7038953
0.50802547,4.756928,0.049303804,-0.16451667,1.4883747,-7.345411,-9.3421755,0.7038953
0.5097513,4.757152,0.056760654,-0.17943038,1.6012927,-7.5465236,-9.404425,0.7757214
0.5114773,4.7573767,0.056760654,-0.17943038,1.6012927,-7.5465236,-9.404425,0.7757214
0.5133217,4.75762,0.06315224,-0.19540934,1.7206023,-7.795521,-9.44752,0.79487497
0.51516604,4.757864,0.06315224,-0.19540934,1.7206023,-7.795521,-9.44752,0.79487497
0.5171339,4.7581244,0.06847856,-0.21351884,1.844173,-8.264784,-9.572019,0.79966336
0.5191018,4.7583857,0.06847856,-0.21351884,1.844173,-8.264784,-9.572019,0.79966336
0.52120286,4.7586613,0.07273962,-0.23162833,1.9794616,-8.887277,-9.739613,0.7757214
0.5233081,4.758938,0.07273962,-0.23162833,1.9794616,-8.887277,-9.739613,0.7757214
0.52557,4.759231,0.075935416,-0.25080308,2.1317945,-9.605537,-10.065224,0.7565677
0.5278228,4.7595243,0.075935416,-0.25080308,2.1317945,-9.605537,-10.065224,0.7565677
0.5302479,4.759839,0.07806595,-0.27104312,2.3011715,-10.462662,-10.46745,0.8379706
0.5326705,4.7601557,0.07806595,-0.27104312,2.3011715,-10.462662,-10.46745,0.8379706
0.53528464,4.760489,0.07913121,-0.2923484,2.4961147,-11.3964,-10.984597,0.81881696
0.5407483,4.7611847,0.08339227,-0.31578422,2.721951,-12.435484,-11.57836,0.81402856
0.5407483,4.7611847,0.08339227,-0.31578422,2.721951,-12.435484,-11.57836,0.81402856
0.5436066,4.7615495,0.08339227,-0.31578422,2.721951,-12.435484,-11.57836,0.81402856
0.5466582,4.761948,0.091914386,-0.3370895,2.979745,-13.254301,-12.253524,1.2066777
0.5497994,4.7623615,0.091914386,-0.3370895,2.979745,-13.254301,-12.253524,1.2066777
0.5531642,4.7627954,0.10789335,-0.35626426,3.2726927,-14.566323,-12.880805,0.9528923
0.556539,4.763233,0.10789335,-0.35626426,3.2726927,-14.566323,-12.880805,0.9528923
0.5602663,4.7637086,0.12813337,-0.3765043,3.600794,-15.820885,-13.43626,0.5363012
0.563986,4.764187,0.12813337,-0.3765043,3.600794,-15.820885,-13.43626,0.5363012
0.5680654,4.7647166,0.14730814,-0.40207064,3.9704409,-16.970102,-14.216769,0.60333884
0.57214856,4.765252,0.14730814,-0.40207064,3.9704409,-16.970102,-14.216769,0.60333884
0.5766363,4.7658525,0.16541763,-0.43402857,4.378437,-18.124107,-14.987702,0.9672575
0.5811192,4.7664585,0.16541763,-0.43402857,4.378437,-18.124107,-14.987702,0.9672575
0.58605194,4.7671432,0.18991871,-0.47770444,4.8226523,-19.220652,-15.59583,1.1300632
0.59097934,4.767835,0.18991871,-0.47770444,4.8226523,-19.220652,-15.59583,1.1300632
0.59637916,4.768615,0.22081138,-0.53309816,5.2988257,-20.355503,-16.189592,0.89064306
0.6017785,4.7694035,0.22081138,-0.53309816,5.2988257,-20.355503,-16.189592,0.89064306
0.6076772,4.770291,0.25383458,-0.5980793,5.8090873,-21.543026,-16.859968,0.545878
0.613587,4.7711916,0.25383458,-0.5980793,5.8090873,-21.543026,-16.859968,0.545878
0.6200277,4.7721987,0.2825967,-0.67264783,6.352372,-22.70661,-17.611748,0.110133275
0.62646055,4.773218,0.2825967,-0.67264783,6.352372,-22.70661,-17.611748,0.110133275
0.6334786,4.7743607,0.30603254,-0.7599995,6.9329414,-23.616405,-18.488026,-0.2633622
0.64048797,4.7755184,0.30603254,-0.7599995,6.9329414,-23.616405,-18.488026,-0.2633622
0.6480996,4.776809,0.32627258,-0.85693854,7.5465336,-24.353819,-19.445705,-0.62728083
0.65570885,4.778122,0.32627258,-0.85693854,7.5465336,-24.353819,-19.445705,-0.62728083
0.66394395,4.779584,0.34438205,-0.9645303,8.186758,-24.727316,-20.374657,-0.89543146
0.67217577,4.7810726,0.34438205,-0.9645303,8.186758,-24.727316,-20.374657,-0.89543146
0.68104136,4.7827206,0.36036104,-1.0827746,8.844026,-24.83266,-21.136013,-1.6136919
0.68989325,4.784401,0.36036104,-1.0827746,8.844026,-24.83266,-21.136013,-1.6136919
0.69940686,4.786268,0.37634,-1.2106063,9.517273,-24.851814,-21.787235,-2.3558946
0.70890373,4.7881765,0.37634,-1.2106063,9.517273,-24.851814,-21.787235,-2.3558946
0.72917324,4.7924676,0.38699263,-1.3490907,10.192651,-24.756046,-22.170307,-3.083732
0.72917324,4.7924676,0.38699263,-1.3490907,10.192651,-24.756046,-22.170307,-3.083732
0.7402502,4.7949533,0.38912317,-1.5056846,10.864833,-24.507048,-22.524649,-3.8402996
0.7506916,4.7973657,0.38912317,-1.5056846,10.864833,-24.507048,-22.524649,-3.8402996
0.7620877,4.800138,0.3848621,-1.6825185,11.527427,-23.922863,-22.850262,-4.4819455
0.7734708,4.802997,0.3848621,-1.6825185,11.527427,-23.922863,-22.850262,-4.4819455
0.78542846,4.8061876,0.37527472,-1.8838536,12.170847,-23.118412,-22.989124,-5.12838
0.7973829,4.8094897,0.37527472,-1.8838536,12.170847,-23.118412,-22.989124,-5.12838
0.8098855,4.813184,0.36355683,-2.107559,12.792961,-22.270864,-23.065739,-5.6646814
0.8223708,4.8170137,0.36355683,-2.107559,12.792961,-22.270864,-23.065739,-5.6646814
0.8354223,4.821312,0.34970838,-2.345113,13.388444,-21.35149,-23.142353,-6.0956373
0.84843993,4.825777,0.34970838,-2.345113,13.388444,-21.35149,-23.142353,-6.0956373
0.86196196,4.8307714,0.32946837,-2.5975807,13.955165,-20.326773,-23.15672,-6.3302693
0.8754586,4.835979,0.32946837,-2.5975807,13.955165,-20.326773,-23.15672,-6.3302693
0.88941824,4.8417964,0.3017715,-2.8670926,14.487797,-19.067423,-22.936453,-6.7612257
0.90347207,4.847936,0.3017715,-2.8670926,14.487797,-19.067423,-22.936453,-6.7612257
0.9179424,4.854783,0.26661775,-3.1461918,14.9820795,-17.769766,-22.515072,-6.9288197
0.9320017,4.861778,0.26661775,-3.1461918,14.9820795,-17.769766,-22.515072,-6.9288197
0.9466077,4.869658,0.2229419,-3.432748,15.439078,-16.280571,-22.012291,-7.0724716
0.96123827,4.877989,0.2229419,-3.432748,15.439078,-16.280571,-22.012291,-7.0724716
0.9976475,4.9015303,0.17180921,-3.723565,15.849205,-14.5567465,-21.308395,-7.1059904
0.9976475,4.9015303,0.17180921,-3.723565,15.849205,-14.5567465,-21.308395,-7.1059904
0.9976475,4.9015303,0.17180921,-3.723565,15.849205,-14.5567465,-21.308395,-7.1059904
1.0309037,4.9270153,0.040781688,-4.2924166,16.512865,-11.123461,-19.436129,-7.9966335
1.036,4.93134,0.040781688,-4.2924166,16.512865,-11.123461,-19.436129,-7.9966335
1.0515941,4.9451966,0.040781688,-4.2924166,16.512865,-11.123461,-19.436129,-7.9966335
1.0669961,4.960221,-0.04443947,-4.5661893,16.7632,-9.442732,-18.459295,-8.317456
1.0816374,4.975562,-0.04443947,-4.5661893,16.7632,-9.442732,-18.459295,-8.317456
1.0967889,4.9930277,-0.14457433,-4.8314404,16.960276,-7.8290396,-17.645266,-8.073248
1.110962,5.0106554,-0.14457433,-4.8314404,16.960276,-7.8290396,-17.645266,-8.073248
1.1256051,5.03076,-0.2564271,-5.0892344,17.107283,-6.1626754,-16.864758,-7.7572136
1.1400664,5.052335,-0.2564271,-5.0892344,17.107283,-6.1626754,-16.864758,-7.7572136
1.1400664,5.052335,-0.2564271,-5.0892344,17.107283,-6.1626754,-16.864758,-7.7572136
1.1739008,5.112206,-0.37680197,-5.334245,17.202091,-4.405331,-16.031574,-7.469909
1.1818377,5.1286325,-0.5014379,-5.560081,17.248962,-2.7868507,-15.227123,-7.015011
1.1951051,5.1583138,-0.5014379,-5.560081,17.248962,-2.7868507,-15.227123,-7.015011
1.2078986,5.190567,-0.6282044,-5.761416,17.250027,-1.2689269,-14.235924,-6.4308257
1.2203074,5.2253656,-0.6282044,-5.761416,17.250027,-1.2689269,-14.235924,-6.4308257
1.2320973,5.2630033,-0.7571014,-5.9393153,17.206352,0.2681506,-13.469779,-5.8562174
1.2432753,5.3031297,-0.7571014,-5.9393153,17.206352,0.2681506,-13.469779,-5.8562174
1.2536864,5.346166,-0.8849331,-6.090583,17.12113,2.078167,-12.751518,-5.257667
1.2634629,5.392258,-0.8849331,-6.090583,17.12113,2.078167,-12.751518,-5.257667
1.2723243,5.4412227,-1.0074385,-6.2098923,16.996494,3.7541082,-11.894394,-4.6495395
1.2803953,5.4931784,-1.0074385,-6.2098923,16.996494,3.7541082,-11.894394,-4.6495395
1.287432,5.5477624,-1.1235523,-6.2940483,16.83351,4.8985367,-11.200075,-4.122815
1.2935274,5.60489,-1.1235523,-6.2940483,16.83351,4.8985367,-11.200075,-4.122815
1.2984803,5.6639566,-1.2290136,-6.3473115,16.634304,6.3350577,-10.342952,-3.7301662
1.3024038,5.725031,-1.2290136,-6.3473115,16.634304,6.3350577,-10.342952,-3.7301662
1.3051195,5.786936,-1.3270179,-6.3707476,16.402077,7.350199,-9.32781,-3.2561142
1.3067513,5.849953,-1.3270179,-6.3707476,16.402077,7.350199,-9.32781,-3.2561142
1.3071842,5.912399,-1.4175653,-6.364356,16.135761,8.346188,-8.408437,-2.7964275
1.3065379,5.9748588,-1.4175653,-6.364356,16.135761,8.346188,-8.408437,-2.7964275
1.3047781,6.035643,-1.4985255,-6.3313327,15.8428135,9.313444,-7.3789296,-2.327164
1.3020017,6.0953784,-1.4985255,-6.3313327,15.8428135,9.313444,-7.3789296,-2.327164
1.298255,6.15245,-1.5698981,-6.2695475,15.521103,10.433931,-6.3925185,-1.6089035
1.2935996,6.2077456,-1.5698981,-6.2695475,15.521103,10.433931,-6.3925185,-1.6089035
1.2881613,6.259733,-1.629553,-6.1768694,15.16424,11.324574,-5.57849,-0.92416185
1.281944,0.026374517,-1.629553,-6.1768694,15.16424,11.324574,-5.57849,-0.92416185
1.2751445,0.07262638,-1.6753594,-6.0532985,14.770092,12.023681,-5.1571107,0.01436521
1.2677002,0.11663078,-1.6753594,-6.0532985,14.770092,12.023681,-5.1571107,0.01436521
1.2598698,0.15709612,-1.701991,-5.903096,14.3397255,12.368446,-5.109226,0.93373865
1.2515094,0.19546789,-1.701991,-5.903096,14.3397255,12.368446,-5.109226,0.93373865
1.2429442,0.23050195,-1.706252,-5.732654,13.880596,12.392388,-5.449203,1.8531121
1.2339633,0.26362908,-1.706252,-5.732654,13.880596,12.392388,-5.449203,1.8531121
1.2249072,0.29381132,-1.686012,-5.552624,13.405488,12.176909,-6.0477533,2.633622
1.2155322,0.32231906,-1.686012,-5.552624,13.405488,12.176909,-6.0477533,2.633622
1.2061639,0.34833083,-1.6402056,-5.37366,12.928249,11.923124,-6.603208,3.3375173
1.1965449,0.37292156,-1.6402056,-5.37366,12.928249,11.923124,-6.603208,3.3375173
1.1870183,0.3953437,-1.5709634,-5.2064133,12.461664,11.678916,-7.067683,3.916914
1.1772944,0.41657582,-1.4814812,-5.056211,12.014253,11.731588,-7.383718,4.3861775
1.1675967,0.4361954,-1.4814812,-5.056211,12.014253,11.731588,-7.383718,4.3861775
1.1578281,0.45463818,-1.4814812,-5.056211,12.014253,11.731588,-7.383718,4.3861775
1.1478751,0.4721353,-1.3696284,-4.9251833,11.589212,12.066776,-7.4842744,4.8506527
1.1388094,0.48710975,-1.3696284,-4.9251833,11.589212,12.066776,-7.4842744,4.8506527
1.1289057,0.50246805,-1.2364703,-4.8048086,11.179086,12.603078,-7.3885064,5.363012
1.119197,0.5166498,-1.2364703,-4.8048086,11.179086,12.603078,-7.3885064,5.363012
1.109813,0.52959806,-1.0830723,-4.684434,10.781742,13.239936,-7.2304893,5.746084
1.1002749,0.5420665,-1.0830723,-4.684434,10.781742,13.239936,-7.2304893,5.746084
1.0909295,0.55369294,-0.91049945,-4.5576673,10.384398,14.053964,-6.789956,6.081272
1.0815196,0.5648214,-0.91049945,-4.5576673,10.384398,14.053964,-6.789956,6.081272
1.0723778,0.5751894,-0.7240782,-4.4170523,9.976402,14.93503,-6.4164605,6.4404025
1.0631659,0.5851579,-0.7240782,-4.4170523,9.976402,14.93503,-6.4164605,6.4404025
1.0542798,0.59445333,-0.52700424,-4.2604585,9.551361,15.868769,-5.8466406,6.7564373
1.0453337,0.60341394,-0.52700424,-4.2604585,9.551361,15.868769,-5.8466406,6.7564373
1.0367522,0.6117821,-0.3224735,-4.08469,9.092233,16.754623,-5.070919,7.1730285
1.0281202,0.6198706,-0.3224735,-4.08469,9.092233,16.754623,-5.070919,7.1730285
1.0198798,0.62745345,-0.11581218,-3.883355,8.6000805,17.401058,-4.1515455,7.422025
1.0116369,0.63476664,-0.11581218,-3.883355,8.6000805,17.401058,-4.1515455,7.422025
1.003821,0.64165103,0.089783855,-3.6532578,8.080231,17.712305,-3.145981,7.479486
0.9959986,0.648316,0.089783855,-3.6532578,8.080231,17.712305,-3.145981,7.479486
0.98868424,0.65458274,0.29324937,-3.392268,7.5337505,17.626112,-1.9680338,7.4028716
0.9813232,0.6607044,0.29324937,-3.392268,7.5337505,17.626112,-1.9680338,7.4028716
0.9745343,0.6664635,0.48712748,-3.1003854,6.9702253,17.128119,-0.7517793,7.019799
0.96771777,0.67209524,0.48712748,-3.1003854,6.9702253,17.128119,-0.7517793,7.019799
0.96148777,0.6774357,0.6660919,-2.7776103,6.399244,16.381128,0.39743748,6.6271505
0.95550275,0.68244964,0.82481635,-2.430334,5.8271966,15.50485,1.5849615,6.0525417
0.9498664,0.6874369,0.82481635,-2.430334,5.8271966,15.50485,1.5849615,6.0525417
0.94396025,0.6925543,0.82481635,-2.430334,5.8271966,15.50485,1.5849615,6.0525417
0.93894565,0.6972264,0.96223545,-2.0649486,5.259411,14.84405,2.5713725,5.4922986
0.9339279,0.70181847,0.96223545,-2.0649486,5.259411,14.84405,2.5713725,5.4922986
0.9295224,0.70624775,1.0740882,-1.680388,4.699082,14.350845,3.1986535,5.48751
0.92509705,0.7106293,1.0740882,-1.680388,4.699082,14.350845,3.1986535,5.48751
0.9212338,0.7149646,1.1635704,-1.2670654,4.141948,13.9198885,3.6583402,5.884948
0.917608,0.7189802,1.1635704,-1.2670654,4.141948,13.9198885,3.6583402,5.884948
0.9145503,0.7230159,1.2328126,-0.8132627,3.5816193,13.048399,4.271256,5.8705826
0.9114869,0.7270141,1.2328126,-0.8132627,3.5816193,13.048399,4.271256,5.8705826
0.9091671,0.7309262,1.2850106,-0.30832738,3.0159638,11.535264,4.9559975,5.60722
0.9068391,0.73481417,1.2850106,-0.30832738,3.0159638,11.535264,4.9559975,5.60722
0.90528107,0.7386591,1.3159032,0.24028382,2.4556348,9.414001,5.4204726,5.267244
0.90371525,0.742488,1.3159032,0.24028382,2.4556348,9.414001,5.4204726,5.267244
0.90292287,0.74630916,1.3265558,0.809135,1.9091542,7.2687964,5.8083334,4.912902
0.90212464,0.75011504,1.3265558,0.809135,1.9091542,7.2687964,5.8083334,4.912902
0.9020683,0.75489014,1.3201643,1.3683989,1.3818482,5.085284,6.1387334,4.548983
0.9020299,0.75772476,1.3201643,1.3683989,1.3818482,5.085284,6.1387334,4.548983
0.902692,0.7615347,1.3041854,1.8957047,0.88010865,2.9831753,6.5840545,4.0318356
0.90334606,0.7653471,1.3041854,1.8957047,0.88010865,2.9831753,6.5840545,4.0318356
0.90465754,0.7691657,1.2818148,2.3761392,0.41032705,0.9768343,7.0820484,3.572149
0.9059676,0.77301586,1.2818148,2.3761392,0.41032705,0.9768343,7.0820484,3.572149
0.9078651,0.77686197,1.2573137,2.8033102,-0.014713474,-0.91458505,7.398083,3.4141316
0.90975475,0.7807267,1.2573137,2.8033102,-0.014713474,-0.91458505,7.398083,3.4141316
0.9121779,0.784623,1.2328126,3.1750875,-0.3950129,-2.7102363,7.6710224,3.083732
0.91458815,0.7885357,1.2328126,3.1750875,-0.3950129,-2.7102363,7.6710224,3.083732
0.91746736,0.7924783,1.206181,3.484014,-0.7273754,-4.3478703,7.896077,2.7150247
0.92032945,0.79643905,1.206181,3.484014,-0.7273754,-4.3478703,7.896077,2.7150247
0.9235922,0.80040324,1.1763536,3.7268944,-1.0139315,-5.995081,7.943961,2.3511062
0.9268388,0.8043941,1.1763536,3.7268944,-1.0139315,-5.995081,7.943961,2.3511062
0.9304145,0.8083577,1.1369388,3.911185,-1.2514855,-7.627927,8.001422,2.1547816
0.9339771,0.8123571,1.1369388,3.911185,-1.2514855,-7.627927,8.001422,2.1547816
0.93777454,0.8162889,1.0921977,4.0379515,-1.4421679,-8.935161,8.030152,2.030283
0.9415775,0.82027966,1.0921977,4.0379515,-1.4421679,-8.935161,8.030152,2.030283
0.94554085,0.82418,1.0442609,4.107194,-1.5934354,-10.022128,8.010999,2.0638018
0.94948643,0.8281173,1.0442609,4.107194,-1.5934354,-10.022128,8.010999,2.0638018
0.9535563,0.83196795,0.9952586,4.1263685,-1.7095492,-10.951078,7.9248075,1.9728222
0.9575281,0.8357797,0.9952586,4.1263685,-1.7095492,-10.951078,7.9248075,1.9728222
0.9616265,0.83955795,0.94412595,4.108259,-1.7873136,-11.60709,7.795521,1.8866309
0.9658152,0.8434768,0.94412595,4.108259,-1.7873136,-11.60709,7.795521,1.8866309
0.9699154,0.8472003,0.8951238,4.0603223,-1.8331199,-12.181698,7.632715,1.7142484
0.9739833,0.85094905,0.8951238,4.0603223,-1.8331199,-12.181698,7.632715,1.7142484
0.9780516,0.854625,0.84505635,3.995341,-1.8490989,-12.670115,7.469909,1.5131354
0.98212385,0.85835934,0.84505635,3.995341,-1.8490989,-12.670115,7.469909,1.5131354
0.9861247,0.86199796,0.7928584,3.9197073,-1.8331199,-13.249513,7.335834,1.2401965
0.99010944,0.8656759,0.7928584,3.9197073,-1.8331199,-13.249513,7.335834,1.2401965
0.99401104,0.86929,0.7406604,3.8398125,-1.7883788,-13.852851,7.153875,1.043872
0.9979127,0.87295824,0.7406604,3.8398125,-1.7883788,-13.852851,7.153875,1.043872
1.001702,0.8765726,0.6863319,3.753526,-1.7170061,-14.451402,6.9288197,0.81881696
1.0054877,0.8802368,0.6863319,3.753526,-1.7170061,-14.451402,6.9288197,0.81881696
1.0091598,0.88387555,0.62880766,3.6587174,-1.6221975,-15.116989,6.655881,0.62249243
1.0127988,0.88753444,0.62880766,3.6587174,-1.6221975,-15.116989,6.655881,0.62249243
1.0162872,0.8911677,0.57234865,3.5575173,-1.5060837,-15.629349,6.4068837,0.45010993
1.0197475,0.89482325,0.57234865,3.5575173,-1.5060837,-15.629349,6.4068837,0.45010993
1.0230471,0.8984656,0.51588964,3.4456646,-1.3739909,-16.036364,6.1866174,0.33997664
1.0263524,0.9021656,0.51588964,3.4456646,-1.3739909,-16.036364,6.1866174,0.33997664
1.0294578,0.90582544,0.4604959,3.3252897,-1.2301803,-16.275784,5.9424086,0.33039984
1.0325587,0.90952975,0.4604959,3.3252897,-1.2301803,-16.275784,5.9424086,0.33039984
1.0354571,0.91320634,0.40723267,3.1985233,-1.0778474,-16.515203,5.8083334,0.22984336
1.0383458,0.91691935,0.40723267,3.1985233,-1.0778474,-16.515203,5.8083334,0.22984336
1.0410328,0.92061126,0.35609996,3.0706916,-0.9212535,-16.716316,5.7029886,0.2777274
1.0437098,0.92433673,0.35609996,3.0706916,-0.9212535,-16.716316,5.7029886,0.2777274
1.0461764,0.92803633,0.30603254,2.9428596,-0.7614639,-16.85518,5.6790466,0.33997664
1.0486331,0.93176657,0.30603254,2.9428596,-0.7614639,-16.85518,5.6790466,0.33997664
1.0508852,0.935477,0.25809565,2.8171585,-0.60060894,-17.0946,5.60722,0.39264908
1.0531278,0.9392162,0.25809565,2.8171585,-0.60060894,-17.0946,5.60722,0.39264908
1.0551624,0.9429065,0.211224,2.690392,-0.44614556,-17.329231,5.482722,0.4261679
1.0571957,0.9466372,0.211224,2.690392,-0.44614556,-17.329231,5.482722,0.4261679
1.0590286,0.9503167,0.1664829,2.5625603,-0.29700854,-17.559074,5.3582234,0.44532153
1.0608487,0.9540114,0.1664829,2.5625603,-0.29700854,-17.559074,5.3582234,0.44532153
1.0624769,0.9576575,0.12600285,2.4304676,-0.15213259,-17.769766,5.2241483,0.4405331
1.0640948,0.9613203,0.12600285,2.4304676,-0.15213259,-17.769766,5.2241483,0.4405331
1.0655138,0.9648926,0.08658806,2.2941136,-0.012582945,-17.884687,5.0134583,0.50757074
1.0681542,0.9720029,0.04823854,2.153499,0.12164038,-17.985243,4.8458643,0.61770403
1.0705245,0.9790343,0.0141500775,2.0054271,0.25160265,-17.961302,4.6112323,0.7757214
1.0705245,0.9790343,0.0141500775,2.0054271,0.25160265,-17.961302,4.6112323,0.7757214
1.0716149,0.9826998,0.0141500775,2.0054271,0.25160265,-17.961302,4.6112323,0.7757214
1.0716149,0.9826998,0.0141500775,2.0054271,0.25160265,-17.961302,4.6112323,0.7757214
1.072552,0.9864283,-0.015677327,1.8488332,0.37517333,-17.84638,4.405331,0.9528923
1.0739795,0.9928366,-0.03698262,1.6847824,0.49661347,-17.53992,4.2664676,1.0247183
1.0739795,0.9928366,-0.03698262,1.6847824,0.49661347,-17.53992,4.2664676,1.0247183
1.0744771,0.99537134,-0.03698262,1.6847824,0.49661347,-17.53992,4.2664676,1.0247183
1.0749027,0.99836016,-0.048700526,1.5154054,0.6105968,-17.113754,4.1946416,1.1492168
1.0753357,1.0014403,-0.048700526,1.5154054,0.6105968,-17.113754,4.1946416,1.1492168
1.0758102,1.0071203,-0.050831053,1.3396367,0.71286213,-16.486473,4.060566,1.2976574
1.0758102,1.0071203,-0.050831053,1.3396367,0.71286213,-16.486473,4.060566,1.2976574
1.0758768,1.0101869,-0.049765788,1.1628028,0.80554014,-15.768212,3.9264908,1.3838485
1.0759172,1.0121729,-0.049765788,1.1628028,0.80554014,-15.768212,3.9264908,1.3838485
1.0758152,1.0146077,-0.043374203,0.99023,0.8790434,-14.96376,3.821146,1.484405
1.0757103,1.0170325,-0.043374203,0.99023,0.8790434,-14.96376,3.821146,1.484405
1.0754735,1.0192434,-0.032721557,0.825114,0.9333719,-14.149732,3.6248214,1.7238252
1.0752344,1.0214511,-0.032721557,0.825114,0.9333719,-14.149732,3.6248214,1.7238252
1.0748827,1.0234903,-0.018873122,0.675977,0.96746033,-13.417107,3.4332852,1.7860745
1.0745401,1.0254565,-0.018873122,0.675977,0.96746033,-13.417107,3.4332852,1.7860745
1.0741147,1.027249,-0.0018288894,0.5428189,0.97917825,-12.694057,3.217807,1.9632454
1.0736878,1.0290332,-0.0018288894,0.5428189,0.97917825,-12.694057,3.217807,1.9632454
1.0732126,1.0306209,0.018411135,0.42777038,0.96746033,-12.08593,3.098097,2.0973208
1.0727353,1.0322078,0.018411135,0.42777038,0.96746033,-12.08593,3.098097,2.0973208
1.0722353,1.0336133,0.045042746,0.32976604,0.9355024,-11.525687,3.0119057,2.183512
1.0717343,1.0350149,0.045042746,0.32976604,0.9355024,-11.525687,3.0119057,2.183512
1.071236,1.0362422,0.075935416,0.24774067,0.8822392,-11.027693,2.920926,2.27928
1.070737,1.0374666,0.075935416,0.24774067,0.8822392,-11.027693,2.920926,2.27928
1.0702642,1.0385205,0.11108914,0.17956375,0.80873597,-10.539276,2.7868507,2.3750482
1.0697905,1.0395715,0.11108914,0.17956375,0.80873597,-10.539276,2.7868507,2.3750482
1.0693606,1.0404537,0.14943866,0.11990894,0.7171232,-10.180145,2.7006595,2.4899697
1.0689301,1.0413338,0.14943866,0.11990894,0.7171232,-10.180145,2.7006595,2.4899697
1.0685389,1.0420839,0.18991871,0.06664571,0.6105968,-9.859323,2.6048915,2.5905263
1.0681852,1.0427599,0.18991871,0.06664571,0.6105968,-9.859323,2.6048915,2.5905263
1.0678825,1.0433135,0.23465982,0.01551302,0.49341768,-9.706094,2.585738,2.6719291
1.067581,1.0438645,0.23465982,0.01551302,0.49341768,-9.706094,2.585738,2.6719291
1.0673633,1.0442814,0.28153145,-0.030293351,0.36878175,-9.509769,2.5713725,2.6001031
1.0671455,1.0446985,0.28153145,-0.030293351,0.36878175,-9.509769,2.5713725,2.6001031
1.0670049,1.044959,0.33053362,-0.07609972,0.24308053,-9.3661175,2.6144683,2.7150247
1.0668644,1.0452201,0.33053362,-0.07609972,0.24308053,-9.3661175,2.6144683,2.7150247
1.0668013,1.0453262,0.3816663,-0.124036625,0.11524879,-9.040505,2.6767175,2.7389667
1.0667386,1.0454329,0.3816663,-0.124036625,0.11524879,-9.040505,2.6767175,2.7389667
1.066752,1.0453874,0.4359948,-0.17410405,-0.012582945,-8.78672,2.7629087,2.753332
1.0667651,1.0453416,0.4359948,-0.17410405,-0.012582945,-8.78672,2.7629087,2.753332
1.0668423,1.0451345,0.49032328,-0.22736728,-0.14041469,-8.48984,2.8874073,2.825158
1.0669193,1.044927,0.49032328,-0.22736728,-0.14041469,-8.48984,2.8874073,2.825158
1.0670646,1.0445672,0.54039073,-0.2774347,-0.2682464,-8.298303,3.0502129,2.825158
1.06721,1.0442073,0.54039073,-0.2774347,-0.2682464,-8.298303,3.0502129,2.825158
1.0674157,1.0437074,0.5893929,-0.32430634,-0.39075184,-8.1402855,3.1747115,2.882619
1.0676208,1.0432067,0.5893929,-0.32430634,-0.39075184,-8.1402855,3.1747115,2.882619
1.0678726,1.0425825,0.634134,-0.36798218,-0.5089962,-8.001422,3.4284968,2.9017725
1.0681238,1.0419568,0.634134,-0.36798218,-0.5089962,-8.001422,3.4284968,2.9017725
1.068423,1.0412287,0.674614,-0.40526643,-0.6219142,-7.8146744,3.6104562,2.8395233
1.068721,1.0405006,0.674614,-0.40526643,-0.6219142,-7.8146744,3.6104562,2.8395233
1.0690538,1.0397084,0.71189827,-0.4361591,-0.7252449,-7.632715,3.8402996,2.801216
1.0693862,1.0389152,0.71189827,-0.4361591,-0.7252449,-7.632715,3.8402996,2.801216
1.0697548,1.0381078,0.7449215,-0.45852965,-0.8253797,-7.469909,4.1659107,2.7102363
1.0701224,1.0372994,0.7449215,-0.45852965,-0.8253797,-7.469909,4.1659107,2.7102363
1.0705457,1.0364509,0.77261835,-0.47450864,-0.91379666,-7.40766,4.381389,2.695871
1.0709696,1.0356001,0.77261835,-0.47450864,-0.91379666,-7.40766,4.381389,2.695871
1.0714496,1.0347508,0.7939237,-0.48090023,-0.995822,-7.369353,4.7548847,2.585738
1.0719298,1.0338979,0.7939237,-0.48090023,-0.995822,-7.369353,4.7548847,2.585738
1.072475,1.033003,0.80883735,-0.47770444,-1.0714558,-7.28795,4.984728,2.6192567
1.07302,1.0321032,0.80883735,-0.47770444,-1.0714558,-7.28795,4.984728,2.6192567
1.0736287,1.031189,0.8162942,-0.46598652,-1.1396327,-7.2209125,5.2480903,2.552219
1.0742373,1.0302695,0.8162942,-0.46598652,-1.1396327,-7.2209125,5.2480903,2.552219
1.0749094,1.0293384,0.81842476,-0.44468123,-1.2024833,-7.302315,5.4683566,2.5330653
1.0755821,1.0284013,0.81842476,-0.44468123,-1.2024833,-7.302315,5.4683566,2.5330653
1.0763179,1.0274464,0.81522894,-0.4180496,-1.2600076,-7.374141,5.6551046,2.566584
1.0770508,1.0264902,0.81522894,-0.4180496,-1.2600076,-7.374141,5.6551046,2.566584
1.0778439,1.0255276,0.80670685,-0.38928747,-1.3122056,-7.465121,5.7748146,2.528277
1.0786335,1.0245614,0.80670685,-0.38928747,-1.3122056,-7.465121,5.7748146,2.528277
1.0794847,1.0236003,0.7939237,-0.35626426,-1.3569467,-7.6949644,5.9280434,2.456451
1.0803335,1.0226364,0.7939237,-0.35626426,-1.3569467,-7.6949644,5.9280434,2.456451
1.0812341,1.021685,0.7779447,-0.32324108,-1.394231,-7.905654,6.090849,2.3702598
1.0821322,1.0207303,0.7779447,-0.32324108,-1.394231,-7.905654,6.090849,2.3702598
1.083075,1.0197861,0.75557417,-0.28595683,-1.4229931,-8.111555,6.157887,2.360683
1.0840224,1.0188304,0.75557417,-0.28595683,-1.4229931,-8.111555,6.157887,2.360683
1.0850018,1.0178932,0.7289425,-0.2476073,-1.4400374,-8.197746,6.157887,2.3558946
1.0859795,1.0169508,0.7289425,-0.2476073,-1.4400374,-8.197746,6.157887,2.3558946
1.0869834,1.0160191,0.7001804,-0.21032305,-1.4506899,-8.279149,6.1195793,2.408567
1.0879867,1.0150814,0.7001804,-0.21032305,-1.4506899,-8.279149,6.1195793,2.408567
1.0890081,1.0141553,0.66928774,-0.17197353,-1.454951,-8.322245,6.1100025,2.5187001
1.0900327,1.013219,0.66928774,-0.17197353,-1.454951,-8.322245,6.1100025,2.5187001
1.0910738,1.0123144,0.6383951,-0.13149348,-1.4538858,-8.312668,6.0285997,2.5187001
1.0921159,1.0114022,0.6383951,-0.13149348,-1.4538858,-8.312668,6.0285997,2.5187001
1.0931737,1.0105128,0.6064371,-0.08888289,-1.4506899,-8.418014,5.9759274,2.6384103
1.0942309,1.0096172,0.6064371,-0.08888289,-1.4506899,-8.418014,5.9759274,2.6384103
1.0953053,1.008753,0.5755444,-0.04946811,-1.4485594,-8.365341,5.90889,2.6144683
1.0963813,1.007881,0.5755444,-0.04946811,-1.4485594,-8.365341,5.90889,2.6144683
1.0974755,1.0070227,0.5489128,-0.01324912,-1.4528205,-8.384495,5.722142,2.6671407
1.0985713,1.0061569,0.5489128,-0.01324912,-1.4528205,-8.384495,5.722142,2.6671407
1.0996897,1.0053035,0.5233465,0.020839343,-1.4645385,-8.5473,5.6551046,2.7102363
1.1008143,1.0044391,0.5233465,0.020839343,-1.4645385,-8.5473,5.6551046,2.7102363
1.1019659,1.0035781,0.5009759,0.04853622,-1.4847784,-8.422802,5.626374,2.6527755
1.1031195,1.0027096,0.5009759,0.04853622,-1.4847784,-8.422802,5.626374,2.6527755
1.1043062,1.001767,0.4807359,0.071972035,-1.5167364,-8.173804,5.33907,2.8778305
1.1054932,1.000817,0.4807359,0.071972035,-1.5167364,-8.173804,5.33907,2.8778305
1.1067243,0.999825,0.46369168,0.09860365,-1.5550859,-8.374918,5.0038815,2.906561
1.107954,0.99882597,0.46369168,0.09860365,-1.5550859,-8.374918,5.0038815,2.906561
1.1095438,0.9975457,0.4509085,0.12417,-1.6019576,-8.523358,4.7884035,2.8538885
1.1105772,0.9967066,0.4509085,0.12417,-1.6019576,-8.523358,4.7884035,2.8538885
1.1120869,0.99549353,0.4423864,0.14441001,-1.6573513,-8.542512,4.6830587,2.7820623
1.1132332,0.9945647,0.4423864,0.14441001,-1.6573513,-8.542512,4.6830587,2.7820623
1.1146002,0.9934303,0.43173376,0.16251951,-1.7191366,-8.647857,4.534618,2.8107927
1.1159991,0.992259,0.43173376,0.16251951,-1.7191366,-8.647857,4.534618,2.8107927
1.1174731,0.99096704,0.4242769,0.18169427,-1.785183,-8.676587,4.309563,2.9113493
1.1189455,0.98966724,0.4242769,0.18169427,-1.785183,-8.676587,4.309563,2.9113493
1.1205059,0.9882289,0.42214635,0.1987385,-1.8554904,-8.604761,4.0653543,3.098097
1.1220634,0.9867806,0.42214635,0.1987385,-1.8554904,-8.604761,4.0653543,3.098097
1.1237069,0.98521715,0.42534214,0.21152169,-1.9332547,-8.5473,3.8642416,3.1986535
1.1253483,0.9836432,0.42534214,0.21152169,-1.9332547,-8.5473,3.8642416,3.1986535
1.1270756,0.9819564,0.432799,0.22110906,-2.018476,-8.456321,3.6727054,3.1747115
1.1287968,0.98026055,0.432799,0.22110906,-2.018476,-8.456321,3.6727054,3.1747115
1.1306043,0.97845393,0.44558218,0.22963117,-2.1068928,-8.389283,3.5242648,3.1794999
1.1324105,0.97663105,0.44558218,0.22963117,-2.1068928,-8.389283,3.5242648,3.1794999
1.1343051,0.9746923,0.46156114,0.2381533,-2.199571,-8.207323,3.289633,3.2848446
1.1361961,0.97273606,0.46156114,0.2381533,-2.199571,-8.207323,3.289633,3.2848446
1.1382389,0.9706102,0.48180118,0.25200173,-2.2997057,-8.058883,2.9879637,3.2944214
1.1402159,0.96852857,0.48180118,0.25200173,-2.2997057,-8.058883,2.9879637,3.2944214
1.1423141,0.96632636,0.5073675,0.27224174,-2.4051669,-7.833828,2.6144683,3.3566709
1.1444123,0.9640963,0.5073675,0.27224174,-2.4051669,-7.833828,2.6144683,3.3566709
1.1466308,0.9617716,0.5393255,0.30206916,-2.518085,-7.52737,2.2218192,3.4476504
1.1488452,0.9594197,0.5393255,0.30206916,-2.518085,-7.52737,2.2218192,3.4476504
1.1511893,0.95699286,0.5798055,0.34467974,-2.6405904,-7.3789296,1.9680338,3.4332852
1.1535287,0.95453507,0.5798055,0.34467974,-2.6405904,-7.3789296,1.9680338,3.4332852
1.1560503,0.95196354,0.6224161,0.3968777,-2.775879,-7.144298,1.5945383,3.5434184
1.1584979,0.94942874,0.6224161,0.3968777,-2.775879,-7.144298,1.5945383,3.5434184
1.1611288,0.9467771,0.6682224,0.45333672,-2.9271464,-6.9719152,1.3455414,3.6248214
1.1637564,0.9440828,0.6682224,0.45333672,-2.9271464,-6.9719152,1.3455414,3.6248214
1.1665533,0.94126993,0.7182899,0.5087305,-3.0933278,-6.8426285,1.1923125,3.7253778
1.1693423,0.9384148,0.7182899,0.5087305,-3.0933278,-6.8426285,1.1923125,3.7253778
1.1723793,0.93532586,0.7747489,0.5566674,-3.2733574,-6.703765,1.115698,3.8498764
1.1752489,0.9323525,0.7747489,0.5566674,-3.2733574,-6.703765,1.115698,3.8498764
1.1783731,0.9291045,0.8407953,0.5950169,-3.4661703,-6.411672,1.1540052,3.9264908
1.1814748,0.92581284,0.8407953,0.5950169,-3.4661703,-6.411672,1.1540052,3.9264908
1.1847562,0.92227393,0.912168,0.6216485,-3.6728315,-6.066907,1.2449849,3.9743748
1.1880238,0.9186729,0.912168,0.6216485,-3.6728315,-6.066907,1.2449849,3.9743748
1.1914617,0.91477555,0.98673654,0.6354969,-3.892276,-5.8083334,1.3215994,3.9456444
1.1948909,0.9107963,0.98673654,0.6354969,-3.892276,-5.8083334,1.3215994,3.9456444
1.1984943,0.9064607,1.061305,0.6418885,-4.1276994,-5.5976434,1.4796166,3.8546648
1.2020874,0.90202874,1.061305,0.6418885,-4.1276994,-5.5976434,1.4796166,3.8546648
1.205856,0.8971754,1.133743,0.639758,-4.3748407,-5.3007627,1.5993267,3.7253778
1.2096124,0.89220726,1.133743,0.639758,-4.3748407,-5.3007627,1.5993267,3.7253778
1.2135473,0.8867496,1.2019199,0.63230115,-4.630504,-5.00867,1.6184803,3.6583402
1.217468,0.8811551,1.2019199,0.63230115,-4.630504,-5.00867,1.6184803,3.6583402
1.2215652,0.87500757,1.2647705,0.62271374,-4.890429,-5.0134583,1.661576,3.7445314
1.2256455,0.86869735,1.2647705,0.62271374,-4.890429,-5.0134583,1.661576,3.7445314
1.2298894,0.8618044,1.3233601,0.6131264,-5.143962,-4.879383,1.7860745,3.715801
1.2341124,0.854719,1.3233601,0.6131264,-5.143962,-4.879383,1.7860745,3.715801
1.2384851,0.84702814,1.3798192,0.60566956,-5.390038,-4.5777135,1.982399,3.5003228
1.2473443,0.83055484,1.4320171,0.6067348,-5.627592,-4.429273,2.207454,3.2704794
1.2473443,0.83055484,1.4320171,0.6067348,-5.627592,-4.429273,2.207454,3.2704794
1.2519244,0.8215073,1.4320171,0.6067348,-5.627592,-4.429273,2.207454,3.2704794
1.2564409,0.8122205,1.4756929,0.62271374,-5.857689,-4.2904096,2.4037786,3.0502129
1.2564409,0.8122205,1.4756929,0.62271374,-5.857689,-4.2904096,2.4037786,3.0502129
1.2564409,0.8122205,1.4756929,0.62271374,-5.857689,-4.2904096,2.4037786,3.0502129
1.2741922,0.77200234,1.5310867,0.69515175,-6.292317,-4.1611223,2.7629087,2.5905263
1.2754046,0.76904094,1.5310867,0.69515175,-6.292317,-4.1611223,2.7629087,2.5905263
1.2798312,0.7579332,1.5310867,0.69515175,-6.292317,-4.1611223,2.7629087,2.5905263
1.2841887,0.74665976,1.5406741,0.752676,-6.4968476,-4.223372,2.9496565,2.4851813
1.2889967,0.733646,1.5406741,0.752676,-6.4968476,-4.223372,2.9496565,2.4851813
1.2939413,0.7197833,1.5406741,0.82085294,-6.6928563,-4.3239284,3.0693667,2.3319526
1.2988131,0.705415,1.5406741,0.82085294,-6.6928563,-4.3239284,3.0693667,2.3319526
1.3038275,0.69010556,1.5321519,0.9007478,-6.877147,-4.548983,3.193865,2.1308396
1.3087542,0.6742256,1.5321519,0.9007478,-6.877147,-4.548983,3.193865,2.1308396
1.3137844,0.65738046,1.5129771,0.9870342,-7.0518503,-4.8267107,3.1986535,1.9680338
1.3187253,0.63984776,1.5129771,0.9870342,-7.0518503,-4.8267107,3.1986535,1.9680338
1.3237559,0.62125605,1.4820845,1.0807775,-7.2159014,-5.2049947,3.1651347,1.8339585
1.3286928,0.6018394,1.4820845,1.0807775,-7.2159014,-5.2049947,3.1651347,1.8339585
1.3336835,0.581355,1.4416045,1.1787817,-7.362908,-5.6407394,3.0454245,1.6089035
1.3385472,0.5600245,1.4416045,1.1787817,-7.362908,-5.6407394,3.0454245,1.6089035
1.3434665,0.5374687,1.3926023,1.2810472,-7.49287,-6.129156,2.944868,1.3599066
1.3482589,0.5138613,1.3926023,1.2810472,-7.49287,-6.129156,2.944868,1.3599066
1.353079,0.48902196,1.3361433,1.3865083,-7.6068535,-6.8569937,2.719813,0.9959879
1.3577611,0.46295393,1.3361433,1.3865083,-7.6068535,-6.8569937,2.719813,0.9959879
1.3624413,0.43544722,1.2743579,1.4930348,-7.699531,-7.551312,2.3654714,0.866701
1.3669306,0.40675196,1.2743579,1.4930348,-7.699531,-7.551312,2.3654714,0.866701
1.371412,0.37636325,1.2115073,1.6006266,-7.7719693,-8.255207,2.1547816,0.5410896
1.3756826,0.3446133,1.2115073,1.6006266,-7.7719693,-8.255207,2.1547816,0.5410896
1.3798684,0.31126043,1.1475915,1.707153,-7.8262978,-8.796297,1.9488802,0.2681506
1.3838147,0.27646983,1.1475915,1.707153,-7.8262978,-8.796297,1.9488802,0.2681506
1.3876523,0.23983264,1.0858061,1.811549,-7.866778,-9.255983,1.6663644,-0.033518825
1.3912202,0.20166937,1.0858061,1.811549,-7.866778,-9.255983,1.6663644,-0.033518825
1.3946152,0.16179594,1.0240208,1.9116838,-7.8987355,-9.624691,1.3215994,-0.095768064
1.3977119,0.12033665,1.0240208,1.9116838,-7.8987355,-9.624691,1.3215994,-0.095768064
1.4005817,0.07722949,0.9633007,2.0032966,-7.927498,-9.892841,0.79008657,-0.05746084
1.4031177,0.032645218,0.9633007,2.0032966,-7.927498,-9.892841,0.79008657,-0.05746084
1.405385,6.2696095,0.90577644,2.0874524,-7.953064,-9.945514,0.21068975,0.023942016
1.4072766,6.2222724,0.90577644,2.0874524,-7.953064,-9.945514,0.21068975,0.023942016
1.4088476,6.173354,0.85357845,2.1609557,-7.983957,-10.007763,-0.4309563,0.18195933
1.4100169,6.123622,0.85357845,2.1609557,-7.983957,-10.007763,-0.4309563,0.18195933
1.4108063,6.072726,0.80883735,2.2195451,-8.020176,-10.189722,-1.0630256,0.22505496
1.4111704,6.0214806,0.80883735,2.2195451,-8.020176,-10.189722,-1.0630256,0.22505496
1.4111062,5.969647,0.7715531,2.2600253,-8.062786,-10.34774,-1.685518,0.35434186
1.4106054,5.9178576,0.7715531,2.2600253,-8.062786,-10.34774,-1.685518,0.35434186
1.4096465,5.866244,0.74279094,2.2802653,-8.1107235,-10.500969,-2.3223755,0.4213795
1.4082564,5.8153906,0.74279094,2.2802653,-8.1107235,-10.500969,-2.3223755,0.4213795
1.4063966,5.765139,0.7246815,2.2770696,-8.159725,-10.486604,-2.743755,0.5315128
1.4013922,5.6684933,0.7129636,2.2515032,-8.208728,-10.419566,-3.1842883,0.5746084
1.4013922,5.6684933,0.7129636,2.2515032,-8.208728,-10.419566,-3.1842883,0.5746084
1.3982635,5.622245,0.7129636,2.2515032,-8.208728,-10.419566,-3.1842883,0.5746084
1.3944944,5.57533,0.70763725,2.206762,-8.256664,-10.228029,-3.5434184,0.51235914
1.3907856,5.534971,0.70763725,2.206762,-8.256664,-10.228029,-3.5434184,0.51235914
1.386591,5.4953165,0.7055067,2.1481724,-8.301406,-9.821015,-3.892972,0.48362875
1.3820047,5.4566445,0.7055067,2.1481724,-8.301406,-9.821015,-3.892972,0.48362875
1.3770874,5.4201665,0.7044414,2.0842566,-8.347212,-9.208099,-4.2521024,0.33518824
1.3719018,5.385467,0.7044414,2.0842566,-8.347212,-9.208099,-4.2521024,0.33518824
1.3664219,5.352847,0.7001804,2.0235364,-8.394084,-8.456321,-4.673482,0.33997664
1.3606818,5.321753,0.7001804,2.0235364,-8.394084,-8.456321,-4.673482,0.33997664
1.3547127,5.292633,0.68952775,1.9777302,-8.452673,-7.704541,-5.3103395,0.24420857
1.3485149,5.2649183,0.68952775,1.9777302,-8.452673,-7.704541,-5.3103395,0.24420857
1.3420928,5.238857,0.6756793,1.9510986,-8.528307,-6.9862804,-5.9663506,0.45010993
1.335506,5.214218,0.6756793,1.9510986,-8.528307,-6.9862804,-5.9663506,0.45010993
1.3287278,5.1910267,0.66289616,1.9425764,-8.620985,-6.4308257,-6.7612257,1.043872
1.321743,5.1689086,0.66289616,1.9425764,-8.620985,-6.4308257,-6.7612257,1.043872
1.3146043,5.1480412,0.6671572,1.9521638,-8.733903,-6.167464,-7.479486,1.3742718
1.3073615,5.1283665,0.6671572,1.9521638,-8.733903,-6.167464,-7.479486,1.3742718
1.2998288,5.109345,0.7001804,1.9734691,-8.857473,-6.3206925,-8.0445175,1.0965444
1.292282,5.0915833,0.7001804,1.9734691,-8.857473,-6.3206925,-8.0445175,1.0965444
1.2845362,5.0745955,0.7587699,1.9958396,-8.9757185,-6.6510925,-8.470686,0.7469909
1.2766832,5.0584946,0.7587699,1.9958396,-8.9757185,-6.6510925,-8.470686,0.7469909
1.268656,5.0432,0.8301427,2.0011659,-9.080114,-6.727707,-8.762778,0.5363012
1.2605555,5.028736,0.8301427,2.0011659,-9.080114,-6.727707,-8.762778,0.5363012
1.2523001,5.0150943,0.89938486,1.9819912,-9.1664,-6.397307,-8.834604,0.50278234
1.2439747,5.0021677,0.89938486,1.9819912,-9.1664,-6.397307,-8.834604,0.50278234
1.2355311,4.9900603,0.96223545,1.9447069,-9.236708,-5.9519854,-8.643068,0.51714754
1.2270267,4.9785757,0.96223545,1.9447069,-9.236708,-5.9519854,-8.643068,0.51714754
1.2184007,4.967805,1.0186944,1.9052922,-9.301689,-5.4444146,-8.307879,0.5363012
1.2097305,4.9575872,1.0186944,1.9052922,-9.301689,-5.4444146,-8.307879,0.5363012
1.2009469,4.947977,1.0645008,1.8733343,-9.368801,-5.0517654,-7.9583263,0.5506664
1.1921242,4.9388533,1.0645008,1.8733343,-9.368801,-5.0517654,-7.9583263,0.5506664
1.1828947,4.9299326,1.0996546,1.8573552,-9.444434,-4.793192,-7.723695,0.44532153
1.1742225,4.9219966,1.1198946,1.8626816,-9.527525,-4.817134,-7.5848308,0.21068975
1.1650441,4.9140534,1.1198946,1.8626816,-9.527525,-4.817134,-7.5848308,0.21068975
1.1560454,4.906669,1.1198946,1.8626816,-9.527525,-4.817134,-7.5848308,0.21068975
1.1468505,4.8994617,1.1284167,1.888248,-9.6138115,-5.0757074,-7.680599,-0.08140286
1.1376196,4.8925915,1.1284167,1.888248,-9.6138115,-5.0757074,-7.680599,-0.08140286
1.1282736,4.8858857,1.1252209,1.9351196,-9.696902,-5.544971,-7.896077,-0.2873042
1.1189228,4.879506,1.1252209,1.9351196,-9.696902,-5.544971,-7.896077,-0.2873042
1.1094933,4.8732414,1.113503,1.9990355,-9.76721,-6.3063273,-8.12592,-0.51714754
1.1000136,4.8672457,1.113503,1.9990355,-9.76721,-6.3063273,-8.12592,-0.51714754
1.0904956,4.8613415,1.0943283,2.0693429,-9.821538,-7.1873937,-8.350976,-0.80924016
1.0809667,4.855707,1.0943283,2.0693429,-9.821538,-7.1873937,-8.350976,-0.80924016
1.0713861,4.8501306,1.0655661,2.1375198,-9.853496,-8.121132,-8.513782,-1.0295067
1.0618063,4.8448067,1.0655661,2.1375198,-9.853496,-8.121132,-8.513782,-1.0295067
1.0522177,4.8395557,1.0357387,2.195044,-9.856691,-9.064447,-8.595184,-1.292869
1.0426126,4.834526,1.0357387,2.195044,-9.856691,-9.064447,-8.595184,-1.292869
1.0330378,4.8295965,1.0016502,2.2355242,-9.83006,-9.988609,-8.599973,-1.4077905
1.0234494,4.8248687,1.0016502,2.2355242,-9.83006,-9.988609,-8.599973,-1.4077905
1.0139264,4.8202653,0.9664965,2.254699,-9.773602,-10.850522,-8.432379,-1.4317327
1.0043917,4.8158455,0.9664965,2.254699,-9.773602,-10.850522,-8.432379,-1.4317327
0.9949558,4.81158,0.9292123,2.247242,-9.68625,-11.386824,-8.178593,-1.4987702
0.9855111,4.80748,0.9292123,2.247242,-9.68625,-11.386824,-8.178593,-1.4987702
0.9760848,4.803521,0.8887322,2.2131536,-9.572267,-11.669339,-7.867347,-1.340753
0.966849,4.7997904,0.8887322,2.2131536,-9.572267,-11.669339,-7.867347,-1.340753
0.95766634,4.7962203,0.8439911,2.15776,-9.440173,-11.750742,-7.608773,-1.1252748
0.9484614,4.792775,0.8439911,2.15776,-9.440173,-11.750742,-7.608773,-1.1252748
0.9394243,4.7895365,0.79711944,2.0863872,-9.295298,-11.69807,-7.297527,-1.043872
0.9303753,4.7864113,0.79711944,2.0863872,-9.295298,-11.69807,-7.297527,-1.043872
0.92147505,4.783472,0.7449215,2.0054271,-9.14403,-11.573571,-6.9862804,-1.115698
0.9125631,4.7806344,0.7449215,2.0054271,-9.14403,-11.573571,-6.9862804,-1.115698
0.9038043,4.777964,0.6884625,1.9212711,-8.993828,-11.3964,-6.7133417,-1.1731589
0.8950517,4.775388,0.6884625,1.9212711,-8.993828,-11.3964,-6.7133417,-1.1731589
0.8864294,4.7729473,0.62348133,1.8381805,-8.848951,-11.3964,-6.6367273,-1.1683705
0.87779635,4.7705855,0.62348133,1.8381805,-8.848951,-11.3964,-6.6367273,-1.1683705
0.86930907,4.768338,0.55210865,1.7572204,-8.704076,-11.482592,-6.5840545,-1.2689269
0.8608193,4.766163,0.55210865,1.7572204,-8.704076,-11.482592,-6.5840545,-1.2689269
0.85246885,4.7640834,0.47647485,1.6773256,-8.559199,-11.798626,-6.7947445,-1.2593501
0.84400773,4.762042,0.47647485,1.6773256,-8.559199,-11.798626,-6.7947445,-1.2593501
0.835915,4.7601376,0.3976453,1.5995612,-8.4047365,-12.306197,-6.9479733,-1.1827357
0.82771397,4.758265,0.3976453,1.5995612,-8.4047365,-12.306197,-6.9479733,-1.1827357
0.8196789,4.756469,0.3188157,1.5207317,-8.236424,-12.904747,-7.1873937,-1.0965444
0.81164193,4.754723,0.3188157,1.5207317,-8.236424,-12.904747,-7.1873937,-1.0965444
0.8037948,4.7530527,0.24318193,1.4365758,-8.043612,-13.508086,-7.4507556,-1.0151415
0.7959454,4.751427,0.24318193,1.4365758,-8.043612,-13.508086,-7.4507556,-1.0151415
0.78831583,4.7498846,0.17180921,1.3449631,-7.8209715,-13.953407,-7.651869,-0.81402856
0.779906,4.748229,0.17180921,1.3449631,-7.8209715,-13.953407,-7.651869,-0.81402856
0.7729851,4.7469,0.10363229,1.2448282,-7.5716996,-14.226347,-7.785944,-0.6560113
0.7658333,4.7455583,0.10363229,1.2448282,-7.5716996,-14.226347,-7.785944,-0.6560113
0.75873774,4.7442627,0.041846953,1.135106,-7.295796,-14.302961,-7.7907324,-0.5506664
0.7516192,4.742992,0.041846953,1.135106,-7.295796,-14.302961,-7.7907324,-0.5506664
0.74479765,4.741812,-0.01674259,1.014731,-7.0007176,-14.15452,-7.7572136,-0.49320555
0.7379883,4.740659,-0.01674259,1.014731,-7.0007176,-14.15452,-7.7572136,-0.49320555
0.7314465,4.7395926,-0.07107108,0.8879646,-6.694987,-13.8480625,-7.6853876,-0.4165911
0.7249099,4.7385473,-0.07107108,0.8879646,-6.694987,-13.8480625,-7.6853876,-0.4165911
0.7186878,4.7375937,-0.12539956,0.75587183,-6.3828645,-13.421895,-7.675811,-0.30645782
0.7124709,4.7366567,-0.12539956,0.75587183,-6.3828645,-13.421895,-7.675811,-0.30645782
0.7065467,4.7358046,-0.17866279,0.619518,-6.073938,-12.943054,-7.6470804,-0.24899697
0.70058054,4.734959,-0.17866279,0.619518,-6.073938,-12.943054,-7.6470804,-0.24899697
0.6949863,4.73421,-0.22873022,0.48209885,-5.7682066,-12.378023,-7.714118,-0.11971009
0.6893969,4.7334714,-0.22873022,0.48209885,-5.7682066,-12.378023,-7.714118,-0.11971009
0.68406624,4.7328076,-0.27560186,0.345745,-5.4731283,-11.741165,-7.809886,-0.08140286
0.67872983,4.732151,-0.27560186,0.345745,-5.4731283,-11.741165,-7.809886,-0.08140286
0.67368853,4.731572,-0.3214082,0.21258694,-5.1908336,-11.051635,-8.034941,0.033518825
0.66865194,4.7309995,-0.3214082,0.21258694,-5.1908336,-11.051635,-8.034941,0.033518825
0.6638677,4.7304964,-0.36295354,0.08262468,-4.9213214,-10.371682,-8.255207,0.090979666
0.6590786,4.7299957,-0.36295354,0.08262468,-4.9213214,-10.371682,-8.255207,0.090979666
0.6545534,4.7295637,-0.39810726,-0.036684938,-4.6645927,-9.68694,-8.542512,0.15322891
0.65003735,4.7291346,-0.39810726,-0.036684938,-4.6645927,-9.68694,-8.542512,0.15322891
0.6457429,4.728761,-0.4268694,-0.14108086,-4.423843,-9.006987,-8.949526,0.18195933
0.63978946,4.7282457,-0.4268694,-0.14108086,-4.423843,-9.006987,-8.949526,0.18195933
0.6371955,4.7280545,-0.45030522,-0.23588939,-4.1990724,-8.303091,-9.3182335,0.30645782
0.63233286,4.7276955,-0.45030522,-0.23588939,-4.1990724,-8.303091,-9.3182335,0.30645782
0.62924427,4.7274923,-0.4662842,-0.3136537,-3.992411,-7.6853876,-9.706094,0.22505496
0.62538797,4.7272367,-0.4662842,-0.3136537,-3.992411,-7.6853876,-9.706094,0.22505496
0.6215495,4.727105,-0.47267577,-0.37756956,-3.8038592,-7.101202,-10.041282,0.33039984
0.61638856,4.7269344,-0.47267577,-0.37756956,-3.8038592,-7.101202,-10.041282,0.33039984
0.6139046,4.7268343,-0.47267577,-0.42976752,-3.633417,-6.694188,-10.323798,0.33039984
0.61000025,4.726677,-0.47267577,-0.42976752,-3.633417,-6.694188,-10.323798,0.33039984
0.6038082,4.726454,-0.46415368,-0.4723781,-3.477888,-6.2488666,-10.5440645,0.38307226
0.60018086,4.7263236,-0.46415368,-0.4723781,-3.477888,-6.2488666,-10.5440645,0.38307226
0.59938335,4.726304,-0.4481747,-0.5117929,-3.3330123,-5.865794,-10.778696,0.51235914
0.5959128,4.7262177,-0.4481747,-0.5117929,-3.3330123,-5.865794,-10.778696,0.51235914
0.59258455,4.7261825,-0.42473888,-0.55120766,-3.198789,-5.4683566,-10.907983,0.6464345
0.5892635,4.726146,-0.42473888,-0.55120766,-3.198789,-5.4683566,-10.907983,0.6464345
0.58604765,4.726158,-0.39597675,-0.5895572,-3.0752182,-5.023035,-11.051635,0.7134721
0.57990175,4.7261744,-0.39597675,-0.5895572,-3.0752182,-5.023035,-11.051635,0.7134721
0.5791165,4.7261906,-0.3618883,-0.6247109,-2.9569738,-4.6016555,-11.066,0.79008657
0.5765078,4.726243,-0.3618883,-0.6247109,-2.9569738,-4.6016555,-11.066,0.79008657
0.57354397,4.7263575,-0.32353875,-0.65986466,-2.8472517,-4.223372,-11.113884,0.7613561
0.57055926,4.7264705,-0.32353875,-0.65986466,-2.8472517,-4.223372,-11.113884,0.7613561
0.5676965,4.7266364,-0.2862545,-0.689692,-2.7428558,-3.821146,-11.200075,0.8475474
0.56481636,4.726801,-0.2862545,-0.689692,-2.7428558,-3.821146,-11.200075,0.8475474
0.5620359,4.7270126,-0.24790499,-0.7141931,-2.6416557,-3.2609026,-11.247959,0.8714894
0.5592555,4.7272215,-0.24790499,-0.7141931,-2.6416557,-3.2609026,-11.247959,0.8714894
0.55656755,4.727481,-0.20635967,-0.7323026,-2.5489776,-2.8203697,-11.295844,0.93852705
0.5538795,4.727737,-0.20635967,-0.7323026,-2.5489776,-2.8203697,-11.295844,0.93852705
0.55127203,4.728032,-0.16587962,-0.7397595,-2.4669523,-2.4516625,-11.262324,0.89064306
0.5486643,4.728324,-0.16587962,-0.7397595,-2.4669523,-2.4516625,-11.262324,0.89064306
0.5461323,4.7286477,-0.124334306,-0.7323026,-2.3902533,-1.9680338,-11.123461,0.8523358
0.54360026,4.728968,-0.124334306,-0.7323026,-2.3902533,-1.9680338,-11.123461,0.8523358
0.54120034,4.7292986,-0.08172372,-0.7099321,-2.3220763,-1.70946,-11.027693,0.6464345
0.53866696,4.7296443,-0.08172372,-0.7099321,-2.3220763,-1.70946,-11.027693,0.6464345
0.5362543,4.729994,-0.04017841,-0.6715826,-2.2624214,-1.4796166,-10.970232,0.5315128
0.53384125,4.730341,-0.04017841,-0.6715826,-2.2624214,-1.4796166,-10.970232,0.5315128
0.53148645,4.730694,0.00030163955,-0.6193846,-2.212354,-1.2401965,-10.831368,0.5315128
0.5291314,4.731045,0.00030163955,-0.6193846,-2.212354,-1.2401965,-10.831368,0.5315128
0.52681494,4.731397,0.03865116,-0.556534,-2.1729393,-1.13964,-10.778696,0.5793968
0.52449584,4.7317476,0.03865116,-0.556534,-2.1729393,-1.13964,-10.778696,0.5793968
0.5222089,4.7320952,0.074870154,-0.4872918,-2.1452425,-1.0965444,-10.70687,0.6607997
0.5199219,4.732441,0.074870154,-0.4872918,-2.1452425,-1.0965444,-10.70687,0.6607997
0.5176546,4.7327824,0.10895862,-0.4191149,-2.127133,-1.1492168,-10.673351,0.7182605
0.51538736,4.7331223,0.10895862,-0.4191149,-2.127133,-1.1492168,-10.673351,0.7182605
0.51313007,4.733459,0.14198181,-0.355199,-2.1186109,-1.2497733,-10.548853,0.7422025
0.5108771,4.7337937,0.14198181,-0.355199,-2.1186109,-1.2497733,-10.548853,0.7422025
0.50861996,4.734132,0.175005,-0.29767472,-2.115415,-1.484405,-10.362105,0.7613561
0.5063669,4.734468,0.175005,-0.29767472,-2.115415,-1.484405,-10.362105,0.7613561
0.5041233,4.7348037,0.20589767,-0.24654204,-2.1058276,-1.7860745,-10.156203,0.6560113
0.50187933,4.735139,0.20589767,-0.24654204,-2.1058276,-1.7860745,-10.156203,0.6560113
0.49964973,4.7354803,0.23359455,-0.20499672,-2.0930445,-2.087744,-9.921572,0.6607997
0.49741974,4.7358217,0.23359455,-0.20499672,-2.0930445,-2.087744,-9.921572,0.6607997
0.49521327,4.736172,0.25489986,-0.17197353,-2.0728045,-2.3798366,-9.715671,0.7374141
0.49300677,4.7365227,0.25489986,-0.17197353,-2.0728045,-2.3798366,-9.715671,0.7374141
0.49083316,4.736879,0.2740746,-0.14321138,-2.0408466,-2.753332,-9.485827,0.6847417
0.4886596,4.737235,0.2740746,-0.14321138,-2.0408466,-2.753332,-9.485827,0.6847417
0.4865276,4.7375937,0.29005358,-0.12084083,-1.998236,-3.0885203,-9.136273,0.5554548
0.48439553,4.737952,0.29005358,-0.12084083,-1.998236,-3.0885203,-9.136273,0.5554548
0.48232183,4.7383213,0.29964095,-0.106992394,-1.9439074,-3.3518825,-8.767567,0.5363012
0.4802481,4.7386913,0.29964095,-0.106992394,-1.9439074,-3.3518825,-8.767567,0.5363012
0.47825247,4.7390757,0.303902,-0.09740501,-1.8757305,-3.5194764,-8.523358,0.56982
0.4762572,4.73946,0.303902,-0.09740501,-1.8757305,-3.5194764,-8.523358,0.56982
0.47434595,4.739847,0.30283675,-0.08994816,-1.7969009,-3.7301662,-8.346188,0.48362875
0.4724373,4.7402344,0.30283675,-0.08994816,-1.7969009,-3.7301662,-8.346188,0.48362875
0.47060823,4.7406073,0.2953799,-0.08142605,-1.7095492,-3.845088,-8.1881695,0.36870706
0.46878204,4.7409806,0.2953799,-0.08142605,-1.7095492,-3.845088,-8.1881695,0.36870706
0.4670347,4.741317,0.2825967,-0.0707734,-1.6168712,-3.9743748,-8.121132,0.2681506
0.46528828,4.7416544,0.2825967,-0.0707734,-1.6168712,-3.9743748,-8.121132,0.2681506
0.4637841,4.7418175,0.26661775,-0.057990227,-1.5135405,-4.060566,-8.0684595,0.15801731
0.46229774,4.7419815,0.26661775,-0.057990227,-1.5135405,-4.060566,-8.0684595,0.15801731
0.46101636,4.742178,0.24318193,-0.045207053,-1.4048836,-4.1802764,-8.054094,0.18674773
0.4597372,4.742376,0.24318193,-0.045207053,-1.4048836,-4.1802764,-8.054094,0.18674773
0.45857152,4.7425423,0.21548507,-0.031358615,-1.2930309,-4.2521024,-8.1163435,0.17717093
0.45740643,4.74271,0.21548507,-0.031358615,-1.2930309,-4.2521024,-8.1163435,0.17717093
0.45637044,4.7428923,0.18565765,-0.018575443,-1.1758517,-4.3957543,-8.183381,0.25857377
0.45533454,4.7430735,0.18565765,-0.018575443,-1.1758517,-4.3957543,-8.183381,0.25857377
0.4544171,4.7432,0.15476498,-0.005792269,-1.0565422,-4.4915223,-8.212111,0.21068975
0.45349964,4.743326,0.15476498,-0.005792269,-1.0565422,-4.4915223,-8.212111,0.21068975
0.4527062,4.743424,0.122807056,0.008056169,-0.9340367,-4.735731,-8.236053,0.22505496
0.45191252,4.7435217,0.122807056,0.008056169,-0.9340367,-4.735731,-8.236053,0.22505496
0.4512486,4.743575,0.091914386,0.022969872,-0.8040744,-5.0661306,-8.298303,0.16759412
0.45058468,4.7436285,0.091914386,0.022969872,-0.8040744,-5.0661306,-8.298303,0.16759412
0.45005697,4.7436337,0.061021715,0.03681831,-0.66559005,-5.329493,-8.418014,0.05267244
0.44952923,4.743639,0.061021715,0.03681831,-0.66559005,-5.329493,-8.418014,0.05267244
0.4491501,4.7436185,0.030129045,0.049601484,-0.51964885,-5.674258,-8.441956,0.08619126
0.44877085,4.743598,0.030129045,0.049601484,-0.51964885,-5.674258,-8.441956,0.08619126
0.44854164,4.7435446,0.001366904,0.057058334,-0.36944655,-5.9663506,-8.542512,0.02873042
0.44831237,4.743491,0.001366904,0.057058334,-0.36944655,-5.9663506,-8.542512,0.02873042
0.4482404,4.743414,-0.024199443,0.057058334,-0.2117874,-6.042965,-8.552089,0.0047884034
0.44816864,4.7433357,-0.024199443,0.057058334,-0.2117874,-6.042965,-8.552089,0.0047884034
0.4482571,4.7432327,-0.04763526,0.053862542,-0.0498672,-6.0238113,-8.552089,-0.062249243
0.4483455,4.74313,-0.04763526,0.053862542,-0.0498672,-6.0238113,-8.552089,-0.062249243
0.44859445,4.7430124,-0.07000581,0.049601484,0.10992247,-6.0764837,-8.6574335,-0.019153614
0.4488433,4.742895,-0.07000581,0.049601484,0.10992247,-6.0764837,-8.6574335,-0.019153614
0.44924527,4.742763,-0.089180574,0.04427516,0.26332054,-6.0477533,-8.748413,-0.009576807
0.44964722,4.742631,-0.089180574,0.04427516,0.26332054,-6.0477533,-8.748413,-0.009576807
0.45018783,4.742481,-0.107290074,0.035753045,0.40393546,-5.913678,-8.767567,-0.047884032
0.4507284,4.7423315,-0.107290074,0.035753045,0.40393546,-5.913678,-8.767567,-0.047884032
0.45139787,4.7421703,-0.124334306,0.024035135,0.5338977,-5.9424086,-8.815451,-0.06703765
0.45206746,4.742009,-0.14031327,0.003795111,0.64788103,-5.8226986,-8.872911,-0.12449849
0.45285282,4.7418337,-0.14031327,0.003795111,0.64788103,-5.8226986,-8.872911,-0.12449849
0.4536336,4.7416587,-0.1541617,-0.0228365,0.7480159,-5.6215854,-8.892065,-0.047884032
0.4545032,4.741489,-0.1541617,-0.0228365,0.7480159,-5.6215854,-8.892065,-0.047884032
0.4554011,4.741314,-0.1541617,-0.0228365,0.7480159,-5.6215854,-8.892065,-0.047884032
0.45634943,4.741144,-0.16374908,-0.054794434,0.83749807,-5.5258174,-8.992621,-0.07182605
0.45732176,4.7409706,-0.16374908,-0.054794434,0.83749807,-5.5258174,-8.992621,-0.07182605
0.45835167,4.740807,-0.17120594,-0.08888289,0.91845816,-5.4922986,-8.992621,-0.090979666
0.45939183,4.7406416,-0.17120594,-0.08888289,0.91845816,-5.4922986,-8.992621,-0.090979666
0.46049607,4.740478,-0.17759752,-0.124036625,0.98876566,-5.4061074,-9.064447,-0.12928689
0.46159673,4.7403145,-0.17759752,-0.124036625,0.98876566,-5.4061074,-9.064447,-0.12928689
0.46277,4.7401724,-0.17972806,-0.16132088,1.0558773,-5.2624555,-9.188946,-0.0047884034
0.46393797,4.740031,-0.17972806,-0.16132088,1.0558773,-5.2624555,-9.188946,-0.0047884034
0.46516004,4.739895,-0.18079332,-0.20073566,1.1155322,-5.1379566,-9.26556,-0.0047884034
0.46637627,4.739759,-0.18079332,-0.20073566,1.1155322,-5.1379566,-9.26556,-0.0047884034
0.46761617,4.739626,-0.17972806,-0.24121572,1.1645343,-4.9176903,-9.260772,0.023942016
0.468847,4.7394924,-0.17972806,-0.24121572,1.1645343,-4.9176903,-9.260772,0.023942016
0.47003612,4.7393627,-0.17653225,-0.27849996,1.2124711,-4.673482,-9.323022,0.04309563
0.47121364,4.7392344,-0.17653225,-0.27849996,1.2124711,-4.673482,-9.323022,0.04309563
0.47235906,4.7391567,-0.17120594,-0.3136537,1.2497554,-4.414908,-9.308656,0.023942016
0.47350118,4.739082,-0.17120594,-0.3136537,1.2497554,-4.414908,-9.308656,0.023942016
0.47464997,4.739054,-0.16374908,-0.34241584,1.2785176,-4.19943,-9.375694,0.02873042
0.4757935,4.7390285,-0.16374908,-0.34241584,1.2785176,-4.19943,-9.375694,0.02873042
0.4769539,4.7390375,-0.15309644,-0.36904746,1.2976923,-4.060566,-9.332599,0.038307227
0.47811058,4.7390475,-0.15309644,-0.36904746,1.2976923,-4.060566,-9.332599,0.038307227
0.4792688,4.739106,-0.14244379,-0.3946138,1.3062145,-3.8738184,-9.390059,0.12449849
0.48042473,4.7391653,-0.14244379,-0.3946138,1.3062145,-3.8738184,-9.390059,0.12449849
0.48158112,4.739258,-0.12966062,-0.42231068,1.3062145,-3.6870706,-9.414001,0.1388637
0.48273304,4.7393503,-0.12966062,-0.42231068,1.3062145,-3.6870706,-9.414001,0.1388637
0.48388645,4.739496,-0.11261639,-0.44894227,1.3019534,-3.5194764,-9.452309,0.2873042
0.4850354,4.739642,-0.11261639,-0.44894227,1.3019534,-3.5194764,-9.452309,0.2873042
0.4861733,4.7398205,-0.09663743,-0.47450864,1.2902355,-3.3423057,-9.495404,0.31603462
0.48730892,4.739999,-0.09663743,-0.47450864,1.2902355,-3.3423057,-9.495404,0.31603462
0.488456,4.740216,-0.0795932,-0.50114024,1.2699955,-3.1794999,-9.476251,0.32561144
0.48954704,4.740423,-0.0795932,-0.50114024,1.2699955,-3.1794999,-9.476251,0.32561144
0.4906346,4.740659,-0.062548965,-0.5267066,1.2454944,-3.0550013,-9.41879,0.2633622
0.49173078,4.740898,-0.062548965,-0.5267066,1.2454944,-3.0550013,-9.41879,0.2633622
0.49279037,4.741167,-0.046569996,-0.54907715,1.2177975,-2.8634653,-9.380483,0.30645782
0.49385622,4.741438,-0.046569996,-0.54907715,1.2177975,-2.8634653,-9.380483,0.30645782
0.49488744,4.741737,-0.03059103,-0.56931716,1.1869048,-2.6862943,-9.299079,0.320823
0.4959185,4.7420363,-0.03059103,-0.56931716,1.1869048,-2.6862943,-9.299079,0.320823
0.49691337,4.742359,-0.013546798,-0.58742666,1.1528164,-2.456451,-9.150639,0.272939
0.49791017,4.7426834,-0.013546798,-0.58742666,1.1528164,-2.456451,-9.150639,0.272939
0.49886748,4.743027,0.0024321685,-0.5991446,1.1187279,-2.1978772,-9.093178,0.24899697
0.49983227,4.7433743,0.0024321685,-0.5991446,1.1187279,-2.1978772,-9.093178,0.24899697
0.5007557,4.7437344,0.016280606,-0.60340565,1.0835742,-2.111686,-9.045294,0.22505496
0.5016827,4.744097,0.016280606,-0.60340565,1.0835742,-2.111686,-9.045294,0.22505496
0.502567,4.7444696,0.027998514,-0.60020983,1.0452247,-1.9536686,-8.944737,0.25378537
0.5034566,4.7448454,0.027998514,-0.60020983,1.0452247,-1.9536686,-8.944737,0.25378537
0.50429976,4.745229,0.03865116,-0.5884919,1.0015488,-1.8722657,-8.858546,0.33039984
0.5051451,4.745614,0.03865116,-0.5884919,1.0015488,-1.8722657,-8.858546,0.33039984
0.50682145,4.746413,0.04610801,-0.5703824,0.95680773,-1.8531121,-8.719683,0.31124622
0.50682145,4.746413,0.04610801,-0.5703824,0.95680773,-1.8531121,-8.719683,0.31124622
0.5075162,4.7467566,0.0524996,-0.5448161,0.9131319,-1.8387469,-8.652645,0.31603462
0.5075162,4.7467566,0.0524996,-0.5448161,0.9131319,-1.8387469,-8.652645,0.31603462
0.5097113,4.7478485,0.056760654,-0.5160539,0.8705213,-1.910573,-8.499416,0.272939
0.5097113,4.7478485,0.061021715,-0.48303074,0.8300412,-1.982399,-8.384495,0.31124622
0.51043314,4.748222,0.061021715,-0.48303074,0.8300412,-1.982399,-8.384495,0.31124622
0.51175916,4.74891,0.06315224,-0.44787702,0.7916917,-2.111686,-8.283937,0.30645782
0.51175916,4.74891,0.06315224,-0.44787702,0.7916917,-2.111686,-8.283937,0.30645782
0.51299363,4.749541,0.062086977,-0.41165802,0.7554727,-2.2744915,-8.173804,0.19632454
0.51299363,4.749541,0.062086977,-0.41165802,0.7554727,-2.2744915,-8.173804,0.19632454
0.51396734,4.7500296,0.062086977,-0.41165802,0.7554727,-2.2744915,-8.173804,0.19632454
0.5141568,4.750124,0.061021715,-0.37224326,0.72458005,-2.384625,-8.087613,0.272939
0.5147271,4.7504077,0.061021715,-0.37224326,0.72458005,-2.384625,-8.087613,0.272939
0.5152728,4.7506657,0.056760654,-0.33176318,0.69794846,-2.4851813,-7.9726915,0.2873042
0.5158189,4.750924,0.056760654,-0.33176318,0.69794846,-2.4851813,-7.9726915,0.2873042
0.51633763,4.751155,0.049303804,-0.29128313,0.67131686,-2.5953147,-7.9487495,0.33039984
0.5168599,4.751387,0.049303804,-0.29128313,0.67131686,-2.5953147,-7.9487495,0.33039984
0.5173587,4.7515864,0.03865116,-0.25186837,0.64788103,-2.6767175,-7.9152308,0.33997664
0.5178598,4.7517867,0.03865116,-0.25186837,0.64788103,-2.6767175,-7.9152308,0.33997664
0.5183352,4.7519464,0.02906378,-0.2145841,0.62337995,-2.743755,-7.8529816,0.25378537
0.5188026,4.7521033,0.02906378,-0.2145841,0.62337995,-2.743755,-7.8529816,0.25378537
0.519254,4.752225,0.017345872,-0.17623459,0.5999441,-2.7868507,-7.8146744,0.22505496
0.51971406,4.752349,0.017345872,-0.17623459,0.5999441,-2.7868507,-7.8146744,0.22505496
0.5201418,4.752444,0.0045626974,-0.13895033,0.5733125,-2.9113493,-7.785944,0.29209262
0.5205679,4.752538,0.0045626974,-0.13895033,0.5733125,-2.9113493,-7.785944,0.29209262
0.5209704,4.75259,-0.008220476,-0.10273133,0.5456156,-2.992752,-7.8146744,0.22026655
0.52137196,4.7526417,-0.008220476,-0.10273133,0.5456156,-2.992752,-7.8146744,0.22026655
0.5217448,4.7526636,-0.021003649,-0.066512346,0.5168535,-3.1411927,-7.8529816,0.2633622
0.52212,4.7526855,-0.021003649,-0.066512346,0.5168535,-3.1411927,-7.8529816,0.2633622
0.522465,4.7526655,-0.033786822,-0.031358615,0.4859608,-3.2465374,-7.929596,0.21068975
0.5228088,4.752646,-0.033786822,-0.031358615,0.4859608,-3.2465374,-7.929596,0.21068975
0.5231227,4.7525835,-0.048700526,0.0027298466,0.45187235,-3.4332852,-7.97748,0.17717093
0.52343607,4.752521,-0.048700526,0.0027298466,0.45187235,-3.4332852,-7.97748,0.17717093
0.52371496,4.7524323,-0.060418434,0.03468778,0.4177839,-3.643975,-8.049306,0.22505496
0.5239955,4.752343,-0.060418434,0.03468778,0.4177839,-3.643975,-8.049306,0.22505496
0.5242453,4.7522135,-0.07107108,0.062384658,0.38369542,-3.845088,-8.130709,0.17717093
0.52449405,4.7520847,-0.07107108,0.062384658,0.38369542,-3.845088,-8.130709,0.17717093
0.52471626,4.7519207,-0.08172372,0.090081535,0.3517375,-4.0462008,-8.207323,0.17717093
0.5249373,4.7517576,-0.08172372,0.090081535,0.3517375,-4.0462008,-8.207323,0.17717093
0.52512807,4.7515726,-0.09024584,0.11245208,0.32084483,-4.237737,-8.255207,0.21068975
0.5253197,4.751387,-0.09024584,0.11245208,0.32084483,-4.237737,-8.255207,0.21068975
0.5254922,4.7511635,-0.09770269,0.13056158,0.2910174,-4.4196963,-8.312668,0.18674773
0.5256635,4.7509413,-0.09770269,0.13056158,0.2910174,-4.4196963,-8.312668,0.18674773
0.5258358,4.750677,-0.10302901,0.14334476,0.26545107,-4.596867,-8.331821,0.17238252
0.5260066,4.750415,-0.10302901,0.14334476,0.26545107,-4.596867,-8.331821,0.17238252
0.5262124,4.7501135,-0.108355336,0.15506266,0.24521105,-4.831499,-8.441956,0.19153613
0.5264174,4.74981,-0.108355336,0.15506266,0.24521105,-4.831499,-8.441956,0.19153613
0.52674556,4.749524,-0.11368166,0.16465004,0.22497103,-5.0517654,-8.441956,0.22505496
0.5270727,4.7492385,-0.11368166,0.16465004,0.22497103,-5.0517654,-8.441956,0.22505496
0.52750593,4.748929,-0.11581218,0.17317216,0.21218786,-5.281609,-8.48984,0.23942018
0.5277776,4.748735,-0.11581218,0.17317216,0.21218786,-5.281609,-8.48984,0.23942018
0.5281215,4.748478,-0.11687745,0.17743322,0.20686153,-5.473145,-8.528147,0.19153613
0.52846813,4.748219,-0.11687745,0.17743322,0.20686153,-5.473145,-8.528147,0.19153613
0.52881205,4.747983,-0.120073244,0.17849848,0.204731,-5.6982,-8.51857,0.22984336
0.5291601,4.7477446,-0.120073244,0.17849848,0.204731,-5.6982,-8.51857,0.22984336
0.52950877,4.7474947,-0.12326904,0.17530268,0.20686153,-5.884948,-8.552089,0.16280572
0.52985764,4.7472444,-0.12326904,0.17530268,0.20686153,-5.995081,-8.6095495,0.17717093
0.5302197,4.7469983,-0.12539956,0.16997637,0.21644892,-5.995081,-8.6095495,0.17717093
0.5305778,4.7467556,-0.12539956,0.16997637,0.21644892,-5.995081,-8.6095495,0.17717093
0.5309517,4.74653,-0.12859535,0.16038899,0.22710156,-6.133945,-8.652645,0.2633622
0.5313232,4.7463064,-0.12859535,0.16038899,0.22710156,-6.133945,-8.652645,0.2633622
0.5317075,4.746081,-0.13072589,0.1476058,0.23988473,-6.205771,-8.7053175,0.22026655
0.53209126,4.745856,-0.13072589,0.1476058,0.23988473,-6.205771,-8.7053175,0.22026655
0.5324906,4.7456446,-0.13072589,0.13162684,0.25479844,-6.253655,-8.743625,0.24899697
0.5328884,4.7454348,-0.13072589,0.13162684,0.25479844,-6.253655,-8.743625,0.24899697
0.5333053,4.7452326,-0.13179116,0.11245208,0.27290794,-6.2871737,-8.8777,0.24420857
0.5337215,4.7450314,-0.13179116,0.11245208,0.27290794,-6.2871737,-8.8777,0.24420857
0.53415745,4.744848,-0.13179116,0.090081535,0.29314795,-6.3350577,-8.911219,0.2681506
0.5345932,4.7446647,-0.13179116,0.090081535,0.29314795,-6.3350577,-8.911219,0.2681506
0.53504723,4.744507,-0.12966062,0.06664571,0.3123227,-6.3781533,-8.99741,0.320823
0.5355002,4.7443495,-0.12966062,0.06664571,0.3123227,-6.3781533,-8.99741,0.320823
0.53597754,4.7442036,-0.1275301,0.04107937,0.33469325,-6.38773,-9.126697,0.29209262
0.5364529,4.7440586,-0.1275301,0.04107937,0.33469325,-6.38773,-9.126697,0.29209262
0.53695285,4.743935,-0.122203775,0.013382491,0.35919434,-6.339846,-9.165004,0.29209262
0.53745174,4.7438126,-0.122203775,0.013382491,0.35919434,-6.339846,-9.165004,0.29209262
0.5379744,4.743723,-0.11687745,-0.014314385,0.38369542,-6.220136,-9.260772,0.33518824
0.53849494,4.743634,-0.11687745,-0.014314385,0.38369542,-6.220136,-9.260772,0.33518824
0.5390469,4.743568,-0.1094206,-0.04201126,0.4124576,-6.1100025,-9.275137,0.320823
0.5395961,4.743502,-0.1094206,-0.04201126,0.4124576,-6.1100025,-9.275137,0.320823
0.5401724,4.7434597,-0.10089848,-0.06757761,0.43802392,-5.971139,-9.260772,0.31124622
0.5407464,4.7434187,-0.10089848,-0.06757761,0.43802392,-5.971139,-9.260772,0.31124622
0.54135966,4.743398,-0.091311105,-0.09207869,0.45932922,-5.7987566,-9.294291,0.29688102
0.54193896,4.743379,-0.091311105,-0.09207869,0.45932922,-5.7987566,-9.294291,0.29688102
0.5425289,4.743443,-0.08065846,-0.11231872,0.4806345,-5.741296,-9.299079,0.34955344
0.54311633,4.7435093,-0.08065846,-0.11231872,0.4806345,-5.741296,-9.299079,0.34955344
0.54370695,4.743614,-0.06894055,-0.13042821,0.5019398,-5.6215854,-9.222465,0.320823
0.5442945,4.743725,-0.06894055,-0.13042821,0.5019398,-5.6215854,-9.222465,0.320823
0.54469824,4.7438393,-0.05509211,-0.14747244,0.51791877,-5.45878,-9.222465,0.34955344
0.5450996,4.743952,-0.05509211,-0.14747244,0.51791877,-5.45878,-9.222465,0.34955344
0.54549944,4.7440634,-0.045504734,-0.1634514,0.5317672,-5.377377,-9.212888,0.34955344
0.54589844,4.7441735,-0.045504734,-0.1634514,0.5317672,-5.377377,-9.212888,0.34955344
0.5462973,4.744259,-0.034852087,-0.17516932,0.54455036,-5.2145715,-9.255983,0.30166942
0.5466962,4.744344,-0.034852087,-0.17516932,0.54455036,-5.2145715,-9.255983,0.30166942
0.54710436,4.7444634,-0.02313418,-0.18582197,0.5520072,-5.0900726,-9.208099,0.34476504
0.54751253,4.7445817,-0.02313418,-0.18582197,0.5520072,-5.0900726,-9.208099,0.34476504
0.54792583,4.744731,-0.013546798,-0.19327882,0.55307245,-4.975151,-9.198523,0.4165911
0.5483407,4.74488,-0.013546798,-0.19327882,0.55307245,-4.975151,-9.198523,0.4165911
0.54874516,4.744997,-0.0050246827,-0.19860514,0.55094194,-4.8745947,-9.179369,0.25857377
0.5491495,4.7451143,-0.0050246827,-0.19860514,0.55094194,-4.8745947,-9.179369,0.25857377
0.54955703,4.7452793,0.0045626974,-0.19860514,0.54881144,-4.8123455,-9.198523,0.4261679
0.5499644,4.7454443,0.0045626974,-0.19860514,0.54881144,-4.8123455,-9.198523,0.4261679
0.55036366,4.7456126,0.0141500775,-0.1996704,0.54241985,-4.759673,-9.227253,0.40701428
0.55076283,4.7457814,0.0141500775,-0.1996704,0.54241985,-4.759673,-9.227253,0.40701428
0.5511532,4.7459617,0.023737457,-0.20073566,0.5338977,-4.7070007,-9.251195,0.4261679
0.55154437,4.746142,0.023737457,-0.20073566,0.5338977,-4.7070007,-9.251195,0.4261679
0.5519239,4.746336,0.034390103,-0.20393145,0.5232451,-4.654328,-9.279925,0.45010993
0.55230486,4.746531,0.034390103,-0.20393145,0.5232451,-4.654328,-9.279925,0.45010993
0.55267936,4.7467537,0.04610801,-0.20925778,0.51259243,-4.6495395,-9.246407,0.5315128
0.553054,4.746976,0.04610801,-0.20925778,0.51259243,-4.6495395,-9.246407,0.5315128
0.55341315,4.7472134,0.05995645,-0.21991043,0.5008745,-4.5394063,-9.246407,0.521936
0.553774,4.7474513,0.05995645,-0.21991043,0.5008745,-4.5394063,-9.246407,0.521936
0.554122,4.747716,0.07167436,-0.2326936,0.4859608,-4.429273,-9.193734,0.59376204
0.5544697,4.74798,0.07167436,-0.2326936,0.4859608,-4.429273,-9.193734,0.59376204
0.55480266,4.748261,0.08445753,-0.24547677,0.47317764,-4.2999864,-9.112331,0.5746084
0.55513656,4.748543,0.08445753,-0.24547677,0.47317764,-4.2999864,-9.112331,0.5746084
0.5554533,4.7488422,0.09617544,-0.2593252,0.45932922,-4.185065,-9.035717,0.59376204
0.5557752,4.749147,0.09617544,-0.2593252,0.45932922,-4.185065,-9.035717,0.59376204
0.55607486,4.7494617,0.106828086,-0.27104312,0.4444155,-4.0653543,-8.968679,0.60333884
0.55637693,4.7497797,0.106828086,-0.27104312,0.4444155,-4.0653543,-8.968679,0.60333884
0.5566598,4.750105,0.11641546,-0.28276104,0.4295018,-3.9456444,-8.887277,0.5363012
0.55694413,4.7504315,0.11641546,-0.28276104,0.4295018,-3.9456444,-8.887277,0.5363012
0.5572134,4.7507744,0.12600285,-0.29128313,0.4145881,-3.7732618,-8.863335,0.5793968
0.5574827,4.7511168,0.12600285,-0.29128313,0.4145881,-3.7732618,-8.863335,0.5793968
0.55773044,4.7514553,0.13559023,-0.29341367,0.39754388,-3.6487634,-8.75799,0.4357447
0.5579783,4.7517934,0.13559023,-0.29341367,0.39754388,-3.6487634,-8.75799,0.4357447
0.5582083,4.752139,0.14198181,-0.29021788,0.37943438,-3.5673606,-8.695741,0.48362875
0.55843925,4.752486,0.14198181,-0.29021788,0.37943438,-3.5673606,-8.695741,0.48362875
0.55864817,4.752827,0.14730814,-0.27849996,0.35812908,-3.5098996,-8.676587,0.45010993
0.55885696,4.7531676,0.14730814,-0.27849996,0.35812908,-3.5098996,-8.676587,0.45010993
0.5590431,4.7535014,0.15050393,-0.26145574,0.33469325,-3.5577838,-8.628703,0.46447513
0.55922914,4.753835,0.15050393,-0.26145574,0.33469325,-3.5577838,-8.628703,0.46447513
0.5593924,4.7541695,0.15263446,-0.24015045,0.30806166,-3.5817258,-8.63828,0.58418524
0.55955553,4.754503,0.15263446,-0.24015045,0.30806166,-3.5817258,-8.63828,0.58418524
0.55969214,4.754822,0.15583025,-0.21564937,0.28143004,-3.6391866,-8.6574335,0.56982
0.5598291,4.755142,0.15583025,-0.21564937,0.28143004,-3.6391866,-8.6574335,0.56982
0.55993485,4.7554426,0.15796077,-0.18901776,0.25053737,-3.7924154,-8.590396,0.51235914
0.56004035,4.7557425,0.15796077,-0.18901776,0.25053737,-3.7924154,-8.590396,0.51235914
0.5601153,4.7560215,0.16009131,-0.16558194,0.22070996,-3.940856,-8.604761,0.44532153
0.5601903,4.756301,0.16009131,-0.16558194,0.22070996,-3.940856,-8.604761,0.44532153
0.5602329,4.756563,0.16115656,-0.14747244,0.18875204,-4.132392,-8.595184,0.40222588
0.560276,4.756826,0.16115656,-0.14747244,0.18875204,-4.132392,-8.595184,0.40222588
0.56028676,4.757076,0.16222183,-0.13575453,0.1567941,-4.2042184,-8.542512,0.36870706
0.56029755,4.757325,0.16222183,-0.13575453,0.1567941,-4.2042184,-8.542512,0.36870706
0.56028366,4.75758,0.16222183,-0.13149348,0.13122776,-4.3478703,-8.51857,0.4165911
0.5602695,4.7578344,0.16222183,-0.13149348,0.13122776,-4.3478703,-8.51857,0.4165911
0.5602401,4.758108,0.16222183,-0.13149348,0.11098773,-4.3526587,-8.470686,0.521936
0.56021005,4.7583823,0.16222183,-0.13149348,0.11098773,-4.3526587,-8.470686,0.521936
0.56016016,4.75866,0.16222183,-0.13575453,0.09074771,-4.357447,-8.39886,0.521936
0.5601101,4.758937,0.16222183,-0.13575453,0.09074771,-4.357447,-8.39886,0.521936
0.5600419,4.7592154,0.1632871,-0.14321138,0.07476874,-4.31914,-8.264784,0.48841715
0.5599673,4.759519,0.1632871,-0.14321138,0.07476874,-4.31914,-8.264784,0.48841715
0.5598808,4.7598357,0.16115656,-0.15066823,0.06305083,-4.3478703,-8.149862,0.50278234
0.5598058,4.760109,0.16115656,-0.15066823,0.06305083,-4.3478703,-8.149862,0.50278234
0.5597263,4.7603517,0.15689552,-0.15705982,0.05026766,-4.3478703,-8.073248,0.48362875
0.55963004,4.7606444,0.15689552,-0.15705982,0.05026766,-4.3478703,-8.073248,0.48362875
0.55950904,4.7609644,0.15263446,-0.16132088,0.040680278,-4.31914,-7.9966335,0.45968673
0.55942285,4.7611914,0.15263446,-0.16132088,0.040680278,-4.31914,-7.9966335,0.45968673
0.5593089,4.7614517,0.1451776,-0.16132088,0.032158162,-4.285621,-7.9391727,0.4357447
0.5591947,4.7617116,0.1451776,-0.16132088,0.032158162,-4.285621,-7.9391727,0.4357447
0.55906576,4.7619734,0.13772075,-0.15812509,0.027897105,-4.261679,-7.9008656,0.40701428
0.55884284,4.7624235,0.13772075,-0.15812509,0.027897105,-4.261679,-7.9008656,0.40701428
0.5588142,4.7624826,0.12919864,-0.15279876,0.023636047,-4.280833,-7.872135,0.46926352
0.5587222,4.7626715,0.12919864,-0.15279876,0.023636047,-4.280833,-7.872135,0.46926352
0.5585998,4.762908,0.11748073,-0.14640717,0.019374989,-4.2760444,-7.943961,0.50278234
0.5584774,4.763144,0.11748073,-0.14640717,0.019374989,-4.2760444,-7.943961,0.50278234
0.5583594,4.7633786,0.105762824,-0.14001559,0.018309724,-4.2281604,-7.881712,0.5602432
0.5582415,4.763612,0.105762824,-0.14001559,0.018309724,-4.2281604,-7.881712,0.5602432
0.558119,4.7638245,0.09617544,-0.13042821,0.016179197,-4.256891,-7.9104424,0.5363012
0.5579962,4.764037,0.09617544,-0.13042821,0.016179197,-4.256891,-7.9104424,0.5363012
0.55787396,4.764231,0.08552279,-0.11977556,0.016179197,-4.2664676,-7.9343843,0.5363012
0.5577519,4.7644243,0.08552279,-0.11977556,0.016179197,-4.2664676,-7.9343843,0.5363012
0.5576312,4.7646217,0.075935416,-0.109122925,0.014048667,-4.4196963,-7.9104424,0.5554548
0.5575155,4.76481,0.075935416,-0.109122925,0.014048667,-4.4196963,-7.9104424,0.5554548
0.5573877,4.7649617,0.06634804,-0.09847028,0.011918138,-4.4101195,-7.9343843,0.48841715
0.55724937,4.7651253,0.06634804,-0.09847028,0.011918138,-4.4101195,-7.9343843,0.48841715
0.5571302,4.765253,0.056760654,-0.08675237,0.010852873,-4.5298295,-7.9966335,0.48841715
0.5570016,4.7653904,0.056760654,-0.08675237,0.010852873,-4.5298295,-7.9966335,0.48841715
0.5568735,4.765504,0.04823854,-0.07396919,0.012983402,-4.6016555,-7.9248075,0.45489833
0.5567452,4.7656174,0.04823854,-0.07396919,0.012983402,-4.6016555,-7.9248075,0.45489833
0.5566238,4.7657228,0.040781688,-0.06118602,0.01724446,-4.663905,-7.953538,0.46447513
0.556502,4.7658277,0.040781688,-0.06118602,0.01724446,-4.663905,-7.953538,0.46447513
0.5563792,4.7659,0.034390103,-0.047337584,0.022570781,-4.7884035,-8.025364,0.4357447
0.5562623,4.7659683,0.034390103,-0.047337584,0.022570781,-4.7884035,-8.025364,0.4357447
0.5561519,4.7660275,0.027998514,-0.031358615,0.030027634,-4.8362875,-8.039729,0.4405331
0.5560411,4.7660856,0.027998514,-0.031358615,0.030027634,-4.8362875,-8.039729,0.4405331
0.55594784,4.76616,0.02160693,-0.017510178,0.037484486,-4.8937483,-8.101978,0.46926352
0.5558544,4.766234,0.02160693,-0.017510178,0.037484486,-4.8937483,-8.101978,0.46926352
0.55577576,4.766305,0.015215342,-0.0047270046,0.0460066,-4.951209,-8.12592,0.46926352
0.55569696,4.7663755,0.015215342,-0.0047270046,0.0460066,-4.951209,-8.12592,0.46926352
0.55564326,4.766458,0.012019549,0.00592564,0.05346345,-4.9703627,-8.1881695,0.50278234
0.5555892,4.7665405,0.012019549,0.00592564,0.05346345,-4.9703627,-8.1881695,0.50278234
0.55552506,4.7665973,0.00988902,0.01551302,0.056659244,-4.975151,-8.250419,0.49799395
0.5554602,4.766654,0.00988902,0.01551302,0.056659244,-4.975151,-8.250419,0.49799395
0.5553935,4.766699,0.0077584907,0.019774077,0.058789775,-4.9799395,-8.293514,0.49799395
0.5553266,4.7667437,0.0077584907,0.019774077,0.058789775,-4.9799395,-8.293514,0.49799395
0.55526567,4.7667933,0.0066932263,0.022969872,0.058789775,-5.0278234,-8.346188,0.50757074
0.5552044,4.766844,0.0066932263,0.022969872,0.058789775,-5.0278234,-8.346188,0.50757074
0.5551842,4.7669344,0.0077584907,0.021904606,0.05772451,-5.0517654,-8.42759,0.62249243
0.5551641,4.767024,0.0077584907,0.021904606,0.05772451,-5.0517654,-8.42759,0.62249243
0.5550936,4.7670736,0.00988902,0.018708814,0.05346345,-4.9895163,-8.446744,0.5363012
0.55502284,4.767123,0.012019549,0.012317227,0.047071867,-4.9703627,-8.39886,0.5363012
0.554945,4.767184,0.012019549,0.012317227,0.047071867,-4.9703627,-8.39886,0.5363012
0.55487144,4.76724,0.012019549,0.012317227,0.047071867,-4.9703627,-8.39886,0.5363012
0.55479616,4.7673154,0.016280606,0.00592564,0.040680278,-4.9655743,-8.408437,0.5602432
0.5547204,4.767391,0.016280606,0.00592564,0.040680278,-4.9655743,-8.408437,0.5602432
0.5546377,4.767476,0.019476399,-0.0025964756,0.033223428,-4.9559975,-8.465898,0.58418524
0.55455494,4.7675605,0.019476399,-0.0025964756,0.033223428,-4.9559975,-8.465898,0.58418524
0.55447507,4.7676625,0.022672193,-0.012183856,0.02896237,-4.999093,-8.355764,0.5506664
0.55439454,4.767765,0.022672193,-0.012183856,0.02896237,-4.999093,-8.355764,0.5506664
0.5543089,4.7678714,0.025867987,-0.020705972,0.027897105,-4.9703627,-8.341399,0.5506664
0.5542228,4.7679777,0.025867987,-0.020705972,0.027897105,-4.9703627,-8.341399,0.5506664
0.5541512,4.7681093,0.030129045,-0.028162822,0.024701312,-4.9703627,-8.360553,0.60333884
0.55407923,4.768241,0.030129045,-0.028162822,0.024701312,-4.9703627,-8.360553,0.60333884
0.5539979,4.768373,0.032259572,-0.035619672,0.022570781,-4.9081135,-8.307879,0.59855044
0.5539162,4.768505,0.032259572,-0.035619672,0.022570781,-4.9081135,-8.307879,0.59855044
0.5538318,4.768638,0.034390103,-0.040945996,0.024701312,-4.8745947,-8.322245,0.60812724
0.5537472,4.7687707,0.034390103,-0.040945996,0.024701312,-4.8745947,-8.322245,0.60812724
0.5536506,4.7688875,0.034390103,-0.040945996,0.025766576,-4.865018,-8.379706,0.58418524
0.5535532,4.7690043,0.034390103,-0.040945996,0.025766576,-4.865018,-8.379706,0.58418524
0.5534481,4.769109,0.03652063,-0.037750203,0.024701312,-4.817134,-8.365341,0.5650316
0.5533426,4.7692137,0.03652063,-0.037750203,0.024701312,-4.817134,-8.365341,0.5650316
0.5532468,4.769332,0.03652063,-0.03455441,0.023636047,-4.865018,-8.37013,0.59376204
0.55315065,4.7694507,0.03652063,-0.03455441,0.023636047,-4.865018,-8.37013,0.59376204
0.55307454,4.7695904,0.037585896,-0.03242388,0.021505518,-4.9081135,-8.365341,0.6464345
0.5529979,4.7697315,0.037585896,-0.03242388,0.021505518,-4.9081135,-8.365341,0.6464345
0.5529225,4.7698755,0.039716423,-0.030293351,0.018309724,-4.9655743,-8.365341,0.62249243
0.5528468,4.77002,0.039716423,-0.030293351,0.018309724,-4.9655743,-8.365341,0.62249243
0.55275774,4.7701545,0.039716423,-0.030293351,0.016179197,-4.9655743,-8.403648,0.60812724
0.5526684,4.770289,0.039716423,-0.030293351,0.016179197,-4.9655743,-8.403648,0.60812724
0.55262125,4.7704535,0.041846953,-0.033489145,0.018309724,-5.023035,-8.365341,0.6607997
0.55257344,4.770619,0.041846953,-0.033489145,0.018309724,-5.023035,-8.365341,0.6607997
0.5525417,4.7707977,0.045042746,-0.040945996,0.019374989,-5.0182467,-8.336611,0.7086837
0.5525096,4.770976,0.045042746,-0.040945996,0.019374989,-5.0182467,-8.336611,0.7086837
0.5524594,4.7711554,0.047173277,-0.050533377,0.019374989,-4.960786,-8.293514,0.6703765
0.5524088,4.7713346,0.047173277,-0.050533377,0.019374989,-4.960786,-8.293514,0.6703765
0.55236447,4.7715216,0.04823854,-0.06118602,0.024701312,-4.9176903,-8.283937,0.7182605
0.5523196,4.7717094,0.04823854,-0.06118602,0.024701312,-4.9176903,-8.283937,0.7182605
0.55225813,4.771892,0.04823854,-0.07183866,0.02896237,-4.8698063,-8.327033,0.7038953
0.5521961,4.772075,0.04823854,-0.07183866,0.02896237,-4.8698063,-8.327033,0.7038953
0.5521258,4.772256,0.047173277,-0.08462184,0.032158162,-4.7884035,-8.293514,0.6991069
0.55205566,4.772436,0.047173277,-0.08462184,0.032158162,-4.7884035,-8.293514,0.6991069
0.55199385,4.772626,0.04610801,-0.09420922,0.03641922,-4.807557,-8.212111,0.6703765
0.5519313,4.7728167,0.04610801,-0.09420922,0.03641922,-4.807557,-8.212111,0.6703765
0.5518754,4.7730074,0.043977484,-0.10166607,0.044941336,-4.7070007,-8.154651,0.7038953
0.5518194,4.7731977,0.043977484,-0.10166607,0.044941336,-4.7070007,-8.154651,0.7038953
0.55175775,4.7733765,0.040781688,-0.106992394,0.05346345,-4.572925,-8.0445175,0.6751649
0.5516958,4.773555,0.040781688,-0.106992394,0.05346345,-4.572925,-8.0445175,0.6751649
0.551634,4.7737284,0.037585896,-0.11125345,0.056659244,-4.4101195,-8.030152,0.7278373
0.5515696,4.7739086,0.037585896,-0.11125345,0.056659244,-4.4101195,-8.030152,0.7278373
0.5515115,4.7740736,0.034390103,-0.11231872,0.059855036,-4.3861775,-8.010999,0.7278373
0.5514486,4.7742524,0.034390103,-0.11231872,0.059855036,-4.3861775,-8.010999,0.7278373
0.5513804,4.7743974,0.02906378,-0.11231872,0.059855036,-4.357447,-7.9966335,0.6655881
0.55130875,4.774549,0.02906378,-0.11231872,0.059855036,-4.357447,-7.9966335,0.6655881
0.5512373,4.774684,0.020541664,-0.110188186,0.05772451,-4.3287168,-7.9966335,0.6703765
0.551164,4.774822,0.020541664,-0.110188186,0.05772451,-4.3287168,-7.9966335,0.6703765
0.55107725,4.774928,0.012019549,-0.106992394,0.055593982,-4.3478703,-7.967903,0.5746084
0.5509909,4.7750325,0.012019549,-0.106992394,0.055593982,-4.3478703,-7.967903,0.5746084
0.5509255,4.7751656,0.005627962,-0.1037966,0.056659244,-4.3526587,-7.953538,0.7134721
0.55086005,4.7752986,0.005627962,-0.1037966,0.056659244,-4.3526587,-7.953538,0.7134721
0.55078554,4.7754035,-0.0028941538,-0.09953554,0.058789775,-4.309563,-7.953538,0.6512229
0.5507109,4.775508,-0.0028941538,-0.09953554,0.058789775,-4.309563,-7.953538,0.6512229
0.5506357,4.775592,-0.012481534,-0.095274486,0.061985567,-4.271256,-7.953538,0.62728083
0.5505605,4.775676,-0.012481534,-0.095274486,0.061985567,-4.271256,-7.953538,0.62728083
0.5504852,4.775742,-0.019938385,-0.08781763,0.0641161,-4.2760444,-7.920019,0.59855044
0.5504102,4.7758074,-0.019938385,-0.08781763,0.0641161,-4.2760444,-7.920019,0.59855044
0.55034125,4.775865,-0.0284605,-0.077164985,0.06731189,-4.3047748,-7.9248075,0.61770403
0.55027264,4.7759223,-0.0284605,-0.077164985,0.06731189,-4.3047748,-7.9248075,0.61770403
0.5502093,4.775963,-0.03698262,-0.06757761,0.073703475,-4.280833,-7.9583263,0.61770403
0.5501466,4.7760024,-0.03698262,-0.06757761,0.073703475,-4.280833,-7.9583263,0.61770403
0.5500856,4.7760086,-0.045504734,-0.05692496,0.08116033,-4.333505,-7.9822683,0.5506664
0.55002505,4.7760153,-0.045504734,-0.05692496,0.08116033,-4.333505,-7.9822683,0.5506664
0.54996955,4.7760057,-0.05509211,-0.044141788,0.08542138,-4.4196963,-7.9631147,0.545878
0.54991424,4.7759967,-0.05509211,-0.044141788,0.08542138,-4.4196963,-7.9631147,0.545878
0.54987586,4.775998,-0.06361423,-0.031358615,0.09181297,-4.4484267,-7.9726915,0.61770403
0.5498373,4.7760005,-0.06361423,-0.031358615,0.09181297,-4.4484267,-7.9726915,0.61770403
0.5498059,4.775983,-0.07213634,-0.017510178,0.09926982,-4.367024,-7.9966335,0.63206923
0.5497468,4.775925,-0.08065846,-0.0068575335,0.104596145,-4.280833,-7.9822683,0.61770403
0.5497468,4.775925,-0.08065846,-0.0068575335,0.104596145,-4.280833,-7.9822683,0.61770403
0.54971707,4.775883,-0.08065846,-0.0068575335,0.104596145,-4.280833,-7.9822683,0.61770403
0.5496862,4.775823,-0.08811531,0.0005993177,0.104596145,-4.232949,-8.034941,0.60333884
0.54965574,4.7757635,-0.08811531,0.0005993177,0.104596145,-4.232949,-8.034941,0.60333884
0.5496169,4.7756853,-0.09557216,0.0069909045,0.09820456,-4.232949,-8.087613,0.58897364
0.54957867,4.775609,-0.09557216,0.0069909045,0.09820456,-4.232949,-8.087613,0.58897364
0.5495328,4.7755213,-0.10089848,0.011251962,0.09074771,-4.2664676,-8.12592,0.5746084
0.5494865,4.775433,-0.10089848,0.011251962,0.09074771,-4.2664676,-8.12592,0.5746084
0.5494329,4.7753286,-0.106224805,0.01551302,0.08435612,-4.3239284,-8.2169,0.5506664
0.549379,4.775225,-0.106224805,0.01551302,0.08435612,-4.3239284,-8.2169,0.5506664
0.5493206,4.7751064,-0.1094206,0.020839343,0.08009506,-4.3239284,-8.269572,0.521936
0.5492622,4.774988,-0.1094206,0.020839343,0.08009506,-4.3239284,-8.269572,0.521936
0.5491978,4.7748585,-0.11155113,0.029361458,0.073703475,-4.3622355,-8.379706,0.51235914
0.54913354,4.774729,-0.11155113,0.029361458,0.073703475,-4.3622355,-8.379706,0.51235914
0.5490647,4.7745824,-0.11261639,0.04427516,0.06837715,-4.3526587,-8.494628,0.48841715
0.548996,4.774436,-0.11261639,0.04427516,0.06837715,-4.3526587,-8.494628,0.48841715
0.5489215,4.774268,-0.11368166,0.062384658,0.0609203,-4.43885,-8.595184,0.45489833
0.5488471,4.774101,-0.11368166,0.062384658,0.0609203,-4.43885,-8.595184,0.45489833
0.54876375,4.7739296,-0.11155113,0.08368994,0.05133292,-4.5058875,-8.695741,0.49320555
0.5486804,4.773759,-0.11155113,0.08368994,0.05133292,-4.5058875,-8.695741,0.49320555
0.5485874,4.773594,-0.11048587,0.104995236,0.039615013,-4.5633483,-8.810662,0.5746084
0.5484946,4.773429,-0.11048587,0.104995236,0.039615013,-4.5633483,-8.810662,0.5746084
0.5483893,4.7732353,-0.107290074,0.12417,0.02683184,-4.6686935,-8.920795,0.49799395
0.5483893,4.7732353,-0.107290074,0.12417,0.02683184,-4.6686935,-8.920795,0.49799395
0.5483893,4.7732353,-0.107290074,0.12417,0.02683184,-4.6686935,-8.920795,0.49799395
0.54798156,4.7725773,-0.09557216,0.14973634,0.00020022877,-4.9320555,-9.030929,0.56982
0.5478862,4.772446,-0.09557216,0.14973634,0.00020022877,-4.9320555,-9.030929,0.56982
0.5477749,4.7722936,-0.09557216,0.14973634,0.00020022877,-4.9320555,-9.030929,0.56982
0.5476445,4.772153,-0.08598478,0.15293214,-0.01151768,-4.903325,-8.992621,0.6560113
0.54750866,4.772007,-0.08598478,0.15293214,-0.01151768,-4.903325,-8.992621,0.6560113
0.5473701,4.771879,-0.075332135,0.15293214,-0.02323559,-4.951209,-9.102755,0.6607997
0.5472249,4.771745,-0.075332135,0.15293214,-0.02323559,-4.951209,-9.102755,0.6607997
0.54706424,4.77162,-0.062548965,0.14973634,-0.036018763,-4.8698063,-9.136273,0.6560113
0.54690355,4.771494,-0.062548965,0.14973634,-0.036018763,-4.8698063,-9.136273,0.6560113
0.54672575,4.7713737,-0.050831053,0.14547528,-0.0498672,-4.8985367,-9.160215,0.61770403
0.546548,4.771253,-0.050831053,0.14547528,-0.0498672,-4.8985367,-9.160215,0.61770403
0.54635227,4.77113,-0.039113145,0.14334476,-0.064780906,-4.9320555,-9.198523,0.5602432
0.54615676,4.771007,-0.039113145,0.14334476,-0.064780906,-4.9320555,-9.198523,0.5602432
0.54594266,4.7708964,-0.027395237,0.14014897,-0.08182514,-5.046977,-9.255983,0.5602432
0.5457306,4.7707877,-0.027395237,0.14014897,-0.08182514,-5.046977,-9.255983,0.5602432
0.5455036,4.7706866,-0.014612063,0.13801843,-0.095673576,-5.142745,-9.23683,0.5410896
0.5452762,4.770586,-0.014612063,0.13801843,-0.095673576,-5.142745,-9.23683,0.5410896
0.5450402,4.770479,-0.0028941538,0.13695318,-0.10526095,-5.2241483,-9.203311,0.50278234
0.5448039,4.7703724,-0.0028941538,0.13695318,-0.10526095,-5.2241483,-9.203311,0.50278234
0.5445647,4.7703285,0.0077584907,0.13269211,-0.11378307,-5.3342814,-9.174581,0.5746084
0.544326,4.770285,0.0077584907,0.13269211,-0.11378307,-5.3342814,-9.174581,0.5746084
0.54408735,4.770275,0.019476399,0.12630053,-0.122305185,-5.329493,-9.136273,0.59376204
0.543849,4.7702656,0.019476399,0.12630053,-0.122305185,-5.329493,-9.136273,0.59376204
0.5436286,4.7703366,0.02906378,0.117778406,-0.124435715,-5.410896,-9.021352,0.59376204
0.5434941,4.7703815,0.02906378,0.117778406,-0.124435715,-5.410896,-9.021352,0.59376204
0.5433186,4.770459,0.039716423,0.10712577,-0.12656625,-5.386954,-8.99741,0.61291564
0.54311657,4.77055,0.039716423,0.10712577,-0.12656625,-5.386954,-8.99741,0.61291564
0.54301804,4.770647,0.049303804,0.09221206,-0.12656625,-5.425261,-8.944737,0.59855044
0.5429064,4.770758,0.049303804,0.09221206,-0.12656625,-5.425261,-8.944737,0.59855044
0.54278386,4.7708564,0.056760654,0.0762331,-0.123370446,-5.353435,-8.901642,0.60333884
0.54263777,4.7709746,0.056760654,0.0762331,-0.123370446,-5.353435,-8.901642,0.60333884
0.5424993,4.7711105,0.06421751,0.0581236,-0.120174654,-5.3199162,-8.839393,0.59376204
0.5423598,4.771249,0.06421751,0.0581236,-0.120174654,-5.3199162,-8.839393,0.59376204
0.5422707,4.771404,0.06954383,0.040014103,-0.11697886,-5.315128,-8.7532015,0.60812724
0.5421826,4.771559,0.06954383,0.040014103,-0.11697886,-5.315128,-8.7532015,0.60812724
0.5421255,4.7717237,0.074870154,0.021904606,-0.11378307,-5.267244,-8.671799,0.5602432
0.5420708,4.7718873,0.074870154,0.021904606,-0.11378307,-5.267244,-8.671799,0.5602432
0.5420738,4.772032,0.07806595,0.0048603755,-0.107391484,-5.2528787,-8.6095495,0.5410896
0.54207873,4.772175,0.07806595,0.0048603755,-0.107391484,-5.2528787,-8.6095495,0.5410896
0.54210603,4.772219,0.08126174,-0.010053327,-0.10313042,-5.2528787,-8.537724,0.48841715
0.54213285,4.772263,0.08019647,-0.0228365,-0.09460831,-5.2241483,-8.418014,0.51235914
0.5421767,4.772363,0.08019647,-0.0228365,-0.09460831,-5.2241483,-8.418014,0.51235914
0.5422207,4.772463,0.08019647,-0.0228365,-0.09460831,-5.2241483,-8.418014,0.51235914
0.5422574,4.7725067,0.07806595,-0.03242388,-0.08608619,-5.243302,-8.350976,0.4405331
0.54229414,4.772549,0.07806595,-0.03242388,-0.08608619,-5.243302,-8.350976,0.4405331
0.54233444,4.7725844,0.074870154,-0.03988073,-0.075433545,-5.2959743,-8.24563,0.37349546
0.54244494,4.7726884,0.07167436,-0.045207053,-0.062650375,-5.3007627,-8.2169,0.44532153
0.54244494,4.7726884,0.07167436,-0.045207053,-0.062650375,-5.3007627,-8.2169,0.44532153
0.5425158,4.7727585,0.07167436,-0.045207053,-0.062650375,-5.3007627,-8.2169,0.44532153
0.5426053,4.7728357,0.06634804,-0.050533377,-0.046671405,-5.3342814,-8.173804,0.45489833
0.5426928,4.7729115,0.06634804,-0.050533377,-0.046671405,-5.3342814,-8.173804,0.45489833
0.542792,4.7729707,0.058891185,-0.052663904,-0.031757705,-5.377377,-8.159439,0.4213795
0.5428923,4.7730303,0.058891185,-0.052663904,-0.031757705,-5.377377,-8.159439,0.4213795
0.5430114,4.773104,0.049303804,-0.05692496,-0.016844003,-5.3725886,-8.101978,0.46926352
0.54313034,4.7731776,0.049303804,-0.05692496,-0.016844003,-5.3725886,-8.101978,0.46926352
0.5432603,4.773286,0.039716423,-0.06331655,-0.0019303001,-5.329493,-8.058883,0.5650316
0.54339015,4.7733936,0.039716423,-0.06331655,-0.0019303001,-5.329493,-8.058883,0.5650316
0.5435388,4.7734575,0.030129045,-0.07183866,0.014048667,-5.257667,-8.0924015,0.47405192
0.54368764,4.7735205,0.030129045,-0.07183866,0.014048667,-5.257667,-8.0924015,0.47405192
0.5438521,4.773587,0.02160693,-0.08462184,0.030027634,-5.1906295,-8.073248,0.48362875
0.54401654,4.773654,0.02160693,-0.08462184,0.030027634,-5.1906295,-8.073248,0.48362875
0.54419434,4.773753,0.012019549,-0.09740501,0.047071867,-5.094861,-8.1402855,0.521936
0.5443725,4.7738514,0.012019549,-0.09740501,0.047071867,-5.094861,-8.1402855,0.521936
0.5444557,4.7740374,0.0024321685,-0.11125345,0.061985567,-4.975151,-8.154651,0.5793968
0.5445384,4.7742233,0.0024321685,-0.11125345,0.061985567,-4.975151,-8.154651,0.5793968
0.5444693,4.7742805,-0.008220476,-0.1251019,0.07796454,-4.841076,-8.159439,0.49799395
0.5443998,4.774338,-0.008220476,-0.1251019,0.07796454,-4.841076,-8.159439,0.49799395
0.54437286,4.774475,-0.01674259,-0.13788506,0.09287824,-4.7309427,-8.197746,0.61770403
0.5443454,4.774612,-0.01674259,-0.13788506,0.09287824,-4.7309427,-8.197746,0.61770403
0.54432034,4.774732,-0.024199443,-0.14747244,0.10779194,-4.5681367,-8.226477,0.641646
0.5442953,4.774852,-0.024199443,-0.14747244,0.10779194,-4.5681367,-8.226477,0.641646
0.54426855,4.774936,-0.03059103,-0.1549293,0.120575115,-4.4484267,-8.317456,0.5746084
0.5442418,4.7750206,-0.03059103,-0.1549293,0.120575115,-4.4484267,-8.317456,0.5746084
0.5442274,4.7750487,-0.039113145,-0.15919036,0.13122776,-4.5202527,-8.317456,0.4261679
0.5442132,4.775077,-0.039113145,-0.15919036,0.13122776,-4.5202527,-8.317456,0.4261679
0.54421103,4.7751555,-0.04763526,-0.15812509,0.14294566,-4.4484267,-8.269572,0.59855044
0.5442085,4.7752347,-0.04763526,-0.15812509,0.14294566,-4.4484267,-8.269572,0.59855044
0.54421663,4.775303,-0.05402685,-0.1549293,0.15359831,-4.209007,-8.240842,0.61770403
0.5442245,4.7753716,-0.05402685,-0.1549293,0.15359831,-4.209007,-8.240842,0.61770403
0.54423904,4.775419,-0.05935317,-0.14747244,0.16212043,-4.084508,-8.240842,0.5793968
0.54425335,4.775468,-0.05935317,-0.14747244,0.16212043,-4.084508,-8.240842,0.5793968
0.5442706,4.7755,-0.06361423,-0.14001559,0.16531622,-3.9264908,-8.255207,0.5506664
0.5442875,4.7755322,-0.06361423,-0.14001559,0.16531622,-3.9264908,-8.255207,0.5506664
0.5443029,4.7755613,-0.06787529,-0.13149348,0.16212043,-3.9217024,-8.322245,0.59376204
0.5443183,4.7755904,-0.06787529,-0.13149348,0.16212043,-3.9217024,-8.322245,0.59376204
0.5443293,4.775611,-0.07213634,-0.121906094,0.1567941,-3.9791632,-8.39886,0.60812724
0.54434025,4.775631,-0.07213634,-0.121906094,0.1567941,-3.9791632,-8.39886,0.60812724
0.5443425,4.775637,-0.075332135,-0.11125345,0.148272,-4.0653543,-8.456321,0.58418524
0.54434496,4.7756433,-0.075332135,-0.11125345,0.148272,-4.0653543,-8.456321,0.58418524
0.5443408,4.775621,-0.07852793,-0.09953554,0.14188041,-4.1276035,-8.51857,0.48362875
0.54433626,4.7755976,-0.07852793,-0.09953554,0.14188041,-4.1276035,-8.51857,0.48362875
0.5443275,4.7755756,-0.0795932,-0.08781763,0.13655408,-3.9935284,-8.5473,0.5363012
0.5443187,4.7755537,-0.0795932,-0.08781763,0.13655408,-3.9935284,-8.5473,0.5363012
0.54430115,4.7755246,-0.0795932,-0.07609972,0.1269667,-3.9312792,-8.576031,0.5410896
0.5442836,4.7754955,-0.0795932,-0.07609972,0.1269667,-3.9312792,-8.576031,0.5410896
0.54425514,4.77546,-0.07852793,-0.06331655,0.11524879,-3.8307228,-8.643068,0.545878
0.5442269,4.775424,-0.07852793,-0.06331655,0.11524879,-3.8307228,-8.643068,0.545878
0.54418474,4.77538,-0.076397404,-0.047337584,0.10033509,-3.8498764,-8.676587,0.5506664
0.5441425,4.7753367,-0.076397404,-0.047337584,0.10033509,-3.8498764,-8.676587,0.5506664
0.54408336,4.7752886,-0.07426687,-0.033489145,0.08222559,-3.9312792,-8.710106,0.56982
0.5440241,4.775241,-0.07426687,-0.033489145,0.08222559,-3.9312792,-8.710106,0.56982
0.54394823,4.775193,-0.07107108,-0.021771235,0.0641161,-3.9839516,-8.724471,0.60812724
0.54387236,4.7751465,-0.07107108,-0.021771235,0.0641161,-3.9839516,-8.724471,0.60812724
0.54377776,4.7750835,-0.06894055,-0.01324912,0.0460066,-4.050989,-8.7292595,0.5267244
0.54368305,4.7750216,-0.06894055,-0.01324912,0.0460066,-4.050989,-8.7292595,0.5267244
0.54357195,4.7749586,-0.06361423,-0.0068575335,0.02896237,-4.0557775,-8.690952,0.51714754
0.5434605,4.7748957,-0.06361423,-0.0068575335,0.02896237,-4.0557775,-8.690952,0.51714754
0.54333603,4.7748356,-0.05935317,-0.0015312112,0.015113931,-4.0701427,-8.719683,0.5315128
0.54321146,4.774776,-0.05935317,-0.0015312112,0.015113931,-4.0701427,-8.719683,0.5315128
0.5430742,4.7747087,-0.05509211,0.00592564,0.0023307577,-4.0940847,-8.695741,0.49320555
0.54293716,4.774642,-0.05509211,0.00592564,0.0023307577,-4.0940847,-8.695741,0.49320555
0.542788,4.774576,-0.050831053,0.01551302,-0.010452416,-4.175488,-8.695741,0.51235914
0.5426386,4.7745104,-0.050831053,0.01551302,-0.010452416,-4.175488,-8.695741,0.51235914
0.54247844,4.774439,-0.046569996,0.026165664,-0.022170324,-4.1706996,-8.714894,0.49320555
0.5423184,4.7743673,-0.046569996,0.026165664,-0.022170324,-4.1706996,-8.714894,0.49320555
0.54214925,4.774287,-0.041243672,0.04107937,-0.031757705,-4.256891,-8.743625,0.47405192
0.54198074,4.774208,-0.041243672,0.04107937,-0.031757705,-4.256891,-8.743625,0.47405192
0.5418034,4.7741265,-0.03698262,0.0581236,-0.041345086,-4.3622355,-8.805874,0.50757074
0.54162574,4.774046,-0.03698262,0.0581236,-0.041345086,-4.3622355,-8.805874,0.50757074
0.54144067,4.7739587,-0.033786822,0.07516783,-0.0498672,-4.462792,-8.825027,0.51714754
0.5412557,4.7738724,-0.033786822,0.07516783,-0.0498672,-4.462792,-8.825027,0.51714754
0.5410665,4.77378,-0.03059103,0.09221206,-0.05519352,-4.5202527,-8.772355,0.521936
0.54087675,4.7736874,-0.03059103,0.09221206,-0.05519352,-4.5202527,-8.772355,0.521936
0.5406852,4.7735696,-0.026329972,0.1060605,-0.060519844,-4.6351743,-8.801085,0.45010993
0.54049456,4.7734528,-0.026329972,0.1060605,-0.060519844,-4.6351743,-8.801085,0.45010993
0.5402951,4.7733555,-0.021003649,0.11564788,-0.06691143,-4.7740383,-8.825027,0.5267244
0.5400943,4.7732577,-0.021003649,0.11564788,-0.06691143,-4.7740383,-8.825027,0.5267244
0.5398893,4.773172,-0.015677327,0.12203947,-0.07330302,-4.8123455,-8.868123,0.5554548
0.5396845,4.7730865,-0.015677327,0.12203947,-0.07330302,-4.8123455,-8.868123,0.5554548
0.5394721,4.7729983,-0.0114162695,0.12417,-0.07969461,-4.8745947,-8.815451,0.5363012
0.53926045,4.77291,-0.0114162695,0.12417,-0.07969461,-4.8745947,-8.815451,0.5363012
0.539049,4.7728233,-0.0114162695,0.12417,-0.07969461,-4.8745947,-8.815451,0.5363012
0.5388471,4.7726917,-0.0050246827,0.12310473,-0.08075987,-4.927267,-8.839393,0.4309563
0.5386455,4.7725616,-0.0050246827,0.12310473,-0.08075987,-4.927267,-8.839393,0.4309563
0.53843004,4.7724876,0.001366904,0.118843675,-0.0828904,-4.9655743,-8.78672,0.5267244
0.53821343,4.7724133,0.001366904,0.118843675,-0.0828904,-4.9655743,-8.78672,0.5267244
0.5380244,4.7722807,0.0066932263,0.11351735,-0.08182514,-5.0278234,-8.7292595,0.4405331
0.53783476,4.772149,0.0066932263,0.11351735,-0.08182514,-5.0278234,-8.7292595,0.4405331
0.5376203,4.772101,0.012019549,0.10819103,-0.08182514,-5.0038815,-8.6813755,0.5267244
0.53740597,4.7720537,0.012019549,0.10819103,-0.08182514,-5.0038815,-8.6813755,0.5267244
0.5371914,4.772002,0.015215342,0.09966891,-0.08075987,-4.9559975,-8.662222,0.51235914
0.53697675,4.7719517,0.015215342,0.09966891,-0.08075987,-4.9559975,-8.662222,0.51235914
0.53676283,4.771905,0.019476399,0.090081535,-0.07969461,-4.9895163,-8.6574335,0.50757074
0.5365489,4.771859,0.019476399,0.090081535,-0.07969461,-4.9895163,-8.6574335,0.50757074
0.5363513,4.771778,0.022672193,0.08049415,-0.076498814,-4.975151,-8.614338,0.46447513
0.53615385,4.771698,0.022672193,0.08049415,-0.076498814,-4.975151,-8.614338,0.46447513
0.53599787,4.7715836,0.024802722,0.073037304,-0.07436828,-5.0374002,-8.604761,0.44532153
0.5358417,4.771469,0.024802722,0.073037304,-0.07436828,-5.0374002,-8.604761,0.44532153
