Pitch,Roll,Gyro_X,Gyro_Y,Gyro_Z,Accel_X,Accel_Y,Accel_Z
6.2543545,4.905402,0.020541664,-0.0047270046,0.023636047,0.25857377,-9.595961,1.7860745
6.2542973,4.9053392,0.022672193,-0.0025964756,0.025766576,0.34955344,-9.5385,1.7908629
6.254245,4.9052825,0.022672193,-0.0025964756,0.025766576,0.34955344,-9.5385,1.7908629
6.2542253,4.905211,0.023737457,-0.0025964756,0.024701312,0.29688102,-9.543288,1.8291701
6.254205,4.9051394,0.023737457,-0.0025964756,0.024701312,0.29688102,-9.543288,1.8291701
6.254205,4.9050655,0.024802722,-0.0015312112,0.023636047,0.30645782,-9.543288,1.7525556
6.254205,4.904991,0.024802722,-0.0015312112,0.023636047,0.30645782,-9.543288,1.7525556
6.2541795,4.9049215,0.024802722,-0.0015312112,0.020440254,0.320823,-9.595961,1.7908629
6.2541537,4.9048514,0.024802722,-0.0015312112,0.020440254,0.320823,-9.595961,1.7908629
6.2541437,4.904778,0.024802722,-0.00366174,0.018309724,0.30166942,-9.56723,1.7956513
6.254133,4.9047046,0.024802722,-0.00366174,0.018309724,0.30166942,-9.56723,1.7956513
6.2540994,4.9046354,0.023737457,-0.0047270046,0.019374989,0.35434186,-9.591172,1.7381904
6.2540655,4.904566,0.023737457,-0.0047270046,0.019374989,0.35434186,-9.591172,1.7381904
6.254068,4.9044895,0.023737457,-0.0068575335,0.01724446,0.29209262,-9.591172,1.8052281
6.2540703,4.904413,0.023737457,-0.0068575335,0.01724446,0.29209262,-9.591172,1.8052281
6.2540975,4.904337,0.023737457,-0.007922798,0.015113931,0.272939,-9.615114,1.7812861
6.254124,4.9042606,0.023737457,-0.007922798,0.015113931,0.272939,-9.615114,1.7812861
6.2541547,4.904186,0.024802722,-0.008988062,0.014048667,0.2633622,-9.56723,1.7525556
6.254185,4.904111,0.024802722,-0.008988062,0.014048667,0.2633622,-9.56723,1.7525556
6.2542415,4.9040413,0.025867987,-0.011118591,0.014048667,0.23942018,-9.619903,1.7717092
6.2542977,4.9039717,0.025867987,-0.011118591,0.014048667,0.23942018,-9.619903,1.7717092
6.254339,4.9039016,0.027998514,-0.014314385,0.011918138,0.23942018,-9.581595,1.7286136
6.2543797,4.9038315,0.027998514,-0.014314385,0.011918138,0.23942018,-9.581595,1.7286136
6.254468,4.903777,0.02906378,-0.017510178,0.012983402,0.23463176,-9.629479,1.8148049
6.254555,4.903722,0.02906378,-0.017510178,0.012983402,0.23463176,-9.629479,1.8148049
6.2545877,4.9036536,0.031194309,-0.019640706,0.014048667,0.25857377,-9.610326,1.7669208
6.25462,4.9035854,0.031194309,-0.019640706,0.014048667,0.25857377,-9.610326,1.7669208
6.2546945,4.9035287,0.033324838,-0.02496703,0.014048667,0.22026655,-9.56723,1.7717092
6.2547684,4.9034724,0.033324838,-0.02496703,0.014048667,0.22026655,-9.56723,1.7717092
6.2548504,4.903421,0.03545537,-0.029228088,0.016179197,0.21068975,-9.605537,1.7764976
6.2549324,4.9033694,0.03545537,-0.029228088,0.016179197,0.21068975,-9.605537,1.7764976
6.254987,4.903311,0.037585896,-0.03455441,0.01724446,0.23942018,-9.5385,1.7669208
6.25504,4.9032516,0.037585896,-0.03455441,0.01724446,0.23942018,-9.5385,1.7669208
6.255087,4.903194,0.040781688,-0.03988073,0.020440254,0.22984336,-9.548077,1.7190368
6.255131,4.903139,0.040781688,-0.03988073,0.020440254,0.22984336,-9.548077,1.7190368
6.2552047,4.9030905,0.04291222,-0.044141788,0.021505518,0.23942018,-9.528923,1.7908629
6.2552814,4.903039,0.04291222,-0.044141788,0.021505518,0.23942018,-9.528923,1.7908629
6.2553,4.9029813,0.043977484,-0.048402846,0.02683184,0.2681506,-9.543288,1.6472107
6.255318,4.9029236,0.043977484,-0.048402846,0.02683184,0.2681506,-9.543288,1.6472107
6.2553577,4.90287,0.047173277,-0.050533377,0.030027634,0.24899697,-9.495404,1.7286136
6.255397,4.9028163,0.047173277,-0.050533377,0.030027634,0.24899697,-9.495404,1.7286136
6.255401,4.9027653,0.049303804,-0.052663904,0.033223428,0.2873042,-9.471462,1.7190368
6.255405,4.902714,0.049303804,-0.052663904,0.033223428,0.2873042,-9.471462,1.7190368
6.255396,4.902667,0.051434334,-0.054794434,0.03854975,0.30645782,-9.485827,1.7238252
6.2553864,4.90262,0.051434334,-0.054794434,0.03854975,0.30645782,-9.485827,1.7238252
6.2553487,4.902585,0.05356486,-0.0558597,0.04387607,0.35434186,-9.485827,1.7190368
6.2553105,4.9025507,0.05356486,-0.0558597,0.04387607,0.35434186,-9.485827,1.7190368
6.2552724,4.90252,0.055695392,-0.05692496,0.049202394,0.35434186,-9.461885,1.7238252
6.2552342,4.90249,0.055695392,-0.05692496,0.049202394,0.35434186,-9.461885,1.7238252
6.255212,4.902457,0.056760654,-0.05692496,0.056659244,0.35913026,-9.457097,1.6998832
6.2551894,4.9024243,0.056760654,-0.05692496,0.056659244,0.35913026,-9.457097,1.6998832
6.255179,4.9023905,0.05782592,-0.054794434,0.061985567,0.34955344,-9.423578,1.6903064
6.255168,4.902356,0.05782592,-0.054794434,0.061985567,0.34955344,-9.423578,1.6903064
6.255086,4.9024086,0.058891185,-0.051598642,0.06837715,0.35434186,-9.428367,1.8100165
6.2550035,4.90246,0.058891185,-0.051598642,0.06837715,0.35434186,-9.428367,1.8100165
6.2549257,4.902512,0.05995645,-0.048402846,0.07263821,0.4165911,-9.41879,1.8052281
6.2548485,4.902563,0.05995645,-0.048402846,0.07263821,0.4165911,-9.41879,1.8052281
6.2547765,4.9026294,0.062086977,-0.04627232,0.07796454,0.40701428,-9.44752,1.8243817
6.2547045,4.9026947,0.062086977,-0.04627232,0.07796454,0.40701428,-9.44752,1.8243817
6.2546577,4.9027076,0.06421751,-0.043076526,0.08435612,0.40701428,-9.485827,1.7717092
6.2546115,4.9027195,0.06421751,-0.043076526,0.08435612,0.40701428,-9.485827,1.7717092
6.2545786,4.902729,0.06634804,-0.03881547,0.09287824,0.39264908,-9.41879,1.757344
6.2545786,4.902729,0.06634804,-0.03881547,0.09287824,0.39264908,-9.41879,1.757344
6.2545786,4.902729,0.06634804,-0.03881547,0.09287824,0.39264908,-9.41879,1.757344
6.2545786,4.902729,0.06847856,-0.026032293,0.104596145,0.47884035,-9.457097,1.7717092
6.2545786,4.902729,0.06847856,-0.026032293,0.104596145,0.47884035,-9.457097,1.7717092
6.2545786,4.902729,0.06847856,-0.026032293,0.104596145,0.47884035,-9.457097,1.7717092
6.2543635,4.9029465,0.07060909,-0.021771235,0.10992247,0.521936,-9.485827,1.8387469
6.2543335,4.9030085,0.07060909,-0.021771235,0.10992247,0.521936,-9.485827,1.8387469
6.254307,4.903094,0.07167436,-0.014314385,0.11631405,0.49320555,-9.528923,1.8626889
6.25428,4.903178,0.07167436,-0.014314385,0.11631405,0.49320555,-9.528923,1.8626889
6.2542396,4.9033427,0.07273962,-0.007922798,0.12270564,0.49799395,-9.533711,1.8579005
6.2542396,4.9033427,0.07273962,-0.007922798,0.12270564,0.49799395,-9.533711,1.8579005
6.254227,4.903431,0.07273962,-0.00046594674,0.12803197,0.5267244,-9.557653,1.8770541
6.2542143,4.903519,0.07273962,-0.00046594674,0.12803197,0.5267244,-9.557653,1.8770541
6.254211,4.9036236,0.07273962,0.0069909045,0.13016249,0.44532153,-9.543288,1.8866309
6.254207,4.9037266,0.07273962,0.0069909045,0.13016249,0.44532153,-9.543288,1.8866309
6.2542143,4.9038467,0.074870154,0.014447756,0.13122776,0.45968673,-9.572019,1.9201498
6.254221,4.9039664,0.074870154,0.014447756,0.13122776,0.45968673,-9.572019,1.9201498
6.254217,4.9040413,0.07700068,0.020839343,0.13442355,0.45489833,-9.56723,1.8531121
6.254213,4.9041157,0.07700068,0.020839343,0.13442355,0.45489833,-9.56723,1.8531121
6.25422,4.9042273,0.07913121,0.026165664,0.13655408,0.49320555,-9.56723,1.910573
6.2542267,4.904339,0.07913121,0.026165664,0.13655408,0.49320555,-9.56723,1.910573
6.2542276,4.9044228,0.08126174,0.031491987,0.13761935,0.4261679,-9.572019,1.8626889
6.254229,4.9045057,0.08126174,0.031491987,0.13761935,0.4261679,-9.572019,1.8626889
6.2542405,4.9046245,0.08445753,0.03681831,0.1386846,0.46447513,-9.524135,1.9009962
6.254252,4.9047422,0.08445753,0.03681831,0.1386846,0.46447513,-9.524135,1.9009962
6.2542586,4.9048347,0.08552279,0.043209895,0.14081514,0.4261679,-9.557653,1.8674773
6.2542653,4.9049253,0.08552279,0.043209895,0.14081514,0.4261679,-9.557653,1.8674773
6.254282,4.9050474,0.08339227,0.04853622,0.13974987,0.39264908,-9.557653,1.8962077
6.254298,4.9051676,0.08339227,0.04853622,0.13974987,0.39264908,-9.557653,1.8962077
6.2543135,4.905284,0.082327,0.053862542,0.13974987,0.38307226,-9.481039,1.8770541
6.2543283,4.9053984,0.082327,0.053862542,0.13974987,0.38307226,-9.481039,1.8770541
6.2543397,4.905463,0.082327,0.057058334,0.14081514,0.320823,-9.485827,1.8483237
6.2543516,4.9055266,0.082327,0.057058334,0.14081514,0.320823,-9.485827,1.8483237
6.254616,4.9056845,0.08126174,0.062384658,0.14294566,0.24899697,-9.490616,1.8770541
6.2548594,4.9058304,0.08126174,0.062384658,0.14294566,0.24899697,-9.490616,1.8770541
6.25512,4.9059706,0.07913121,0.06558045,0.14401093,0.22984336,-9.524135,1.8914193
6.255384,4.906112,0.07913121,0.06558045,0.14401093,0.22984336,-9.524135,1.8914193
6.2555976,4.9062786,0.075935416,0.069841504,0.14401093,0.21068975,-9.495404,1.9536686
6.255811,4.9064465,0.075935416,0.069841504,0.14401093,0.21068975,-9.495404,1.9536686
6.256078,4.906581,0.073804885,0.073037304,0.14294566,0.17717093,-9.504981,1.9153614
6.2563443,4.906715,0.073804885,0.073037304,0.14294566,0.17717093,-9.504981,1.9153614
6.256636,4.9067974,0.06954383,0.07516783,0.14081514,0.1388637,-9.485827,1.8770541
6.256928,4.9068785,0.06954383,0.07516783,0.14081514,0.1388637,-9.485827,1.8770541
6.2572155,4.906968,0.06634804,0.07729836,0.1386846,0.1436521,-9.509769,1.8914193
6.2575026,4.9070573,0.06634804,0.07729836,0.1386846,0.1436521,-9.509769,1.8914193
6.257792,4.907112,0.06421751,0.0762331,0.13761935,0.08619126,-9.533711,1.8674773
6.258081,4.9071674,0.06421751,0.0762331,0.13761935,0.08619126,-9.533711,1.8674773
6.258361,4.9072638,0.062086977,0.074102566,0.13655408,0.08140286,-9.543288,1.9249382
6.2586403,4.90736,0.062086977,0.074102566,0.13655408,0.08140286,-9.543288,1.9249382
6.2589126,4.9074616,0.061021715,0.07090677,0.13229302,0.06703765,-9.595961,1.9488802
6.259185,4.9075627,0.061021715,0.07090677,0.13229302,0.06703765,-9.595961,1.9488802
6.2594533,4.9075837,0.058891185,0.06664571,0.12909722,0.076614454,-9.56723,1.8435353
6.2597227,4.907604,0.058891185,0.06664571,0.12909722,0.076614454,-9.56723,1.8435353
6.2599874,4.907625,0.056760654,0.061319392,0.12483617,0.038307227,-9.600749,1.8435353
6.260252,4.9076457,0.056760654,0.061319392,0.12483617,0.038307227,-9.600749,1.8435353
6.2605157,4.907675,0.055695392,0.054927804,0.120575115,0.076614454,-9.572019,1.8626889
6.2607794,4.9077024,0.055695392,0.054927804,0.120575115,0.076614454,-9.572019,1.8626889
6.2610435,4.907744,0.05356486,0.046405688,0.118444584,0.095768064,-9.619903,1.8914193
6.2613077,4.9077845,0.05356486,0.046405688,0.118444584,0.095768064,-9.619903,1.8914193
6.261567,4.907834,0.05036907,0.038948838,0.11418352,0.05746084,-9.65821,1.910573
6.261827,4.9078836,0.05036907,0.038948838,0.11418352,0.05746084,-9.65821,1.910573
6.262077,4.907925,0.049303804,0.030426722,0.106726676,0.095768064,-9.682152,1.910573
6.262327,4.9079657,0.049303804,0.030426722,0.106726676,0.095768064,-9.682152,1.910573
6.262567,4.9080334,0.05036907,0.019774077,0.10033509,0.090979666,-9.667787,1.9297266
6.2628074,4.9081,0.05036907,0.019774077,0.10033509,0.090979666,-9.667787,1.9297266
6.2630424,4.908151,0.05036907,0.011251962,0.09500877,0.08619126,-9.65821,1.9153614
6.263278,4.9082017,0.05036907,0.011251962,0.09500877,0.08619126,-9.65821,1.9153614
6.2635064,4.908248,0.05356486,0.0016645822,0.089682445,0.095768064,-9.706094,1.9201498
6.2637343,4.9082937,0.05356486,0.0016645822,0.089682445,0.095768064,-9.706094,1.9201498
6.2639422,4.9083905,0.055695392,-0.007922798,0.08435612,0.04309563,-9.710882,1.9776106
6.26415,4.9084873,0.055695392,-0.007922798,0.08435612,0.04309563,-9.710882,1.9776106
6.2643194,4.90862,0.05782592,-0.016444914,0.08222559,0.062249243,-9.715671,2.0350714
6.264492,4.9087543,0.05782592,-0.016444914,0.08222559,0.062249243,-9.715671,2.0350714
6.264711,4.9088235,0.062086977,-0.023901764,0.08222559,0.047884032,-9.739613,1.9440918
6.2649198,4.9088883,0.062086977,-0.023901764,0.08222559,0.047884032,-9.739613,1.9440918
6.2651343,4.9089584,0.0674133,-0.031358615,0.08329086,0.009576807,-9.720459,1.9393034
6.26535,4.9090276,0.0674133,-0.031358615,0.08329086,0.009576807,-9.720459,1.9393034
6.2655425,4.909046,0.07273962,-0.036684938,0.08222559,0.01436521,-9.768343,1.8722657
6.265735,4.909065,0.07273962,-0.036684938,0.08222559,0.01436521,-9.768343,1.8722657
6.2659354,4.909098,0.07806595,-0.043076526,0.08435612,0,-9.801862,1.8914193
6.2661357,4.9091306,0.07806595,-0.043076526,0.08435612,0,-9.801862,1.8914193
6.266342,4.909177,0.08445753,-0.047337584,0.087551914,-0.0047884034,-9.744401,1.8914193
6.2665486,4.909222,0.08445753,-0.047337584,0.087551914,-0.0047884034,-9.744401,1.8914193
6.2667637,4.9092855,0.091914386,-0.052663904,0.09181297,-0.047884032,-9.801862,1.910573
6.2669783,4.9093485,0.091914386,-0.052663904,0.09181297,-0.047884032,-9.801862,1.910573
6.2671857,4.909398,0.09830597,-0.059055492,0.09713929,-0.0047884034,-9.77792,1.8866309
6.2673926,4.909447,0.09830597,-0.059055492,0.09713929,-0.0047884034,-9.77792,1.8866309
6.267621,4.9095283,0.104697555,-0.064381815,0.106726676,0.033518825,-9.744401,1.9249382
6.2678504,4.9096084,0.104697555,-0.064381815,0.106726676,0.033518825,-9.744401,1.9249382
6.2680593,4.909785,0.1153502,-0.0707734,0.11631405,0.07182605,-9.801862,2.006341
6.2682686,4.9099603,0.1153502,-0.0707734,0.11631405,0.07182605,-9.801862,2.006341
6.268516,4.9100814,0.1270681,-0.07503446,0.12483617,0.12449849,-9.811439,1.9632454
6.2687626,4.9101944,0.1270681,-0.07503446,0.12483617,0.12449849,-9.811439,1.9632454
6.2689347,4.910239,0.1366555,-0.079295516,0.13016249,0.10055647,-9.792285,1.8962077
6.269105,4.910283,0.1366555,-0.079295516,0.13016249,0.10055647,-9.792285,1.8962077
6.2691402,4.910346,0.1451776,-0.08142605,0.13655408,0.21547815,-9.739613,1.8770541
6.269176,4.9104085,0.1451776,-0.08142605,0.13655408,0.21547815,-9.739613,1.8770541
6.2692,4.9104853,0.15263446,-0.08355658,0.13761935,0.24899697,-9.744401,1.8674773
6.269224,4.9105625,0.15263446,-0.08355658,0.13761935,0.24899697,-9.744401,1.8674773
6.2692776,4.910632,0.15902604,-0.08462184,0.13974987,0.22505496,-9.715671,1.8339585
6.2693315,4.9107013,0.15902604,-0.08462184,0.13974987,0.22505496,-9.715671,1.8339585
6.269319,4.910835,0.16435237,-0.08355658,0.14081514,0.272939,-9.682152,1.9153614
6.269307,4.9109674,0.16435237,-0.08355658,0.14081514,0.272939,-9.682152,1.9153614
6.2692876,4.911135,0.16861342,-0.08249131,0.13974987,0.30645782,-9.677363,1.9488802
6.2692676,4.9113097,0.16861342,-0.08249131,0.13974987,0.30645782,-9.677363,1.9488802
6.2692666,4.91151,0.17074396,-0.08249131,0.13974987,0.25857377,-9.610326,1.9871874
6.2692637,4.911727,0.17074396,-0.08249131,0.13974987,0.25857377,-9.610326,1.9871874
6.2693014,4.911981,0.175005,-0.08142605,0.13761935,0.18674773,-9.581595,1.9871874
6.2693357,4.9122353,0.175005,-0.08142605,0.13761935,0.18674773,-9.581595,1.9871874
6.2693486,4.9123445,0.17820081,-0.08142605,0.13548881,0.16759412,-9.562442,1.9153614
6.269364,4.912452,0.17820081,-0.08142605,0.13548881,0.16759412,-9.562442,1.9153614
6.2693954,4.912551,0.1813966,-0.08142605,0.13229302,0.16280572,-9.495404,1.8962077
6.269428,4.9126496,0.1813966,-0.08142605,0.13229302,0.16280572,-9.495404,1.8962077
6.2695518,4.9127316,0.18352713,-0.08249131,0.13229302,0.12928689,-9.509769,1.8914193
6.2696724,4.912814,0.18352713,-0.08249131,0.13229302,0.12928689,-9.509769,1.8914193
6.269824,4.9129024,0.18672292,-0.08462184,0.13335828,0.090979666,-9.461885,1.8195933
6.2699738,4.912991,0.18672292,-0.08462184,0.13335828,0.090979666,-9.461885,1.8195933
6.270089,4.9130793,0.18991871,-0.08462184,0.13122776,0.12449849,-9.461885,1.8387469
6.270203,4.9131675,0.18991871,-0.08462184,0.13122776,0.12449849,-9.461885,1.8387469
6.2703238,4.913257,0.19098398,-0.08355658,0.13229302,0.110133275,-9.404425,1.7381904
6.2704444,4.9133463,0.19098398,-0.08355658,0.13229302,0.110133275,-9.404425,1.7381904
6.270583,4.913437,0.19098398,-0.08142605,0.13548881,0.08140286,-9.394848,1.733402
6.2707214,4.9135275,0.19098398,-0.08142605,0.13548881,0.08140286,-9.394848,1.733402
6.2708573,4.913617,0.19098398,-0.079295516,0.13655408,0.090979666,-9.3421755,1.7477672
6.2709923,4.9137077,0.19098398,-0.079295516,0.13655408,0.090979666,-9.3421755,1.7477672
6.2711167,4.913797,0.19098398,-0.077164985,0.13655408,0.10534488,-9.323022,1.7381904
6.271241,4.913886,0.19098398,-0.077164985,0.13655408,0.10534488,-9.323022,1.7381904
6.27138,4.9139757,0.18991871,-0.07609972,0.1386846,0.095768064,-9.323022,1.8100165
6.2715187,4.914065,0.18991871,-0.07609972,0.1386846,0.095768064,-9.323022,1.8100165
6.2716136,4.914154,0.18885344,-0.07609972,0.1386846,0.1436521,-9.337387,1.7812861
6.2717075,4.914243,0.18885344,-0.07609972,0.1386846,0.1436521,-9.337387,1.7812861
6.2717843,4.914336,0.18885344,-0.07396919,0.1386846,0.15322891,-9.294291,1.8052281
6.27186,4.9144287,0.18885344,-0.07396919,0.1386846,0.15322891,-9.294291,1.8052281
6.271921,4.9145226,0.18565765,-0.07290393,0.13761935,0.19632454,-9.303867,1.7669208
6.271983,4.9146185,0.18565765,-0.07290393,0.13761935,0.19632454,-9.303867,1.7669208
6.2720213,4.9147167,0.18352713,-0.0707734,0.13548881,0.22984336,-9.303867,1.7764976
6.27206,4.9148154,0.18352713,-0.0707734,0.13548881,0.22984336,-9.303867,1.7764976
6.272079,4.9149256,0.18246186,-0.06864287,0.13442355,0.2873042,-9.260772,1.7669208
6.272098,4.9150357,0.18246186,-0.06864287,0.13442355,0.2873042,-9.260772,1.7669208
6.272097,4.9151616,0.1813966,-0.066512346,0.13335828,0.30166942,-9.279925,1.8148049
6.2720966,4.915288,0.1813966,-0.066512346,0.13335828,0.30166942,-9.279925,1.8148049
6.2720857,4.9154215,0.18033133,-0.06331655,0.12909722,0.29688102,-9.308656,1.8435353
6.2720747,4.9155545,0.18033133,-0.06331655,0.12909722,0.29688102,-9.308656,1.8435353
6.2720532,4.915699,0.17820081,-0.060120758,0.12590143,0.30166942,-9.32781,1.8722657
6.2720323,4.915843,0.17820081,-0.060120758,0.12590143,0.30166942,-9.32781,1.8722657
6.27201,4.9159913,0.17713554,-0.0558597,0.12590143,0.2777274,-9.3182335,1.8866309
6.2719874,4.9161396,0.17713554,-0.0558597,0.12590143,0.2777274,-9.3182335,1.8866309
6.271967,4.91628,0.175005,-0.051598642,0.12483617,0.25378537,-9.337387,1.8914193
6.2719474,4.91642,0.175005,-0.051598642,0.12483617,0.25378537,-9.337387,1.8914193
6.271973,4.916513,0.17393975,-0.04627232,0.12270564,0.18674773,-9.32781,1.8531121
6.271973,4.916513,0.17393975,-0.04627232,0.12270564,0.18674773,-9.32781,1.8531121
6.271973,4.916513,0.17287448,-0.03988073,0.12377091,0.21068975,-9.332599,1.8531121
6.2720227,4.9168243,0.17287448,-0.03988073,0.12377091,0.21068975,-9.332599,1.8531121
6.272066,4.916912,0.17180921,-0.03455441,0.1269667,0.17717093,-9.289502,1.8435353
6.272066,4.916912,0.17180921,-0.03455441,0.1269667,0.17717093,-9.289502,1.8435353
6.272171,4.9171047,0.17180921,-0.028162822,0.12909722,0.18195933,-9.303867,1.757344
6.2722316,4.917164,0.17180921,-0.028162822,0.12909722,0.18195933,-9.303867,1.757344
6.2722874,4.917241,0.17180921,-0.020705972,0.13229302,0.16759412,-9.279925,1.8387469
6.272343,4.917318,0.17180921,-0.020705972,0.13229302,0.16759412,-9.279925,1.8387469
6.27242,4.9173956,0.17074396,-0.01324912,0.13655408,0.17238252,-9.294291,1.8100165
6.2724967,4.9174733,0.17074396,-0.01324912,0.13655408,0.17238252,-9.294291,1.8100165
6.2726007,4.9175453,0.16967869,-0.005792269,0.14294566,0.16280572,-9.337387,1.7669208
6.272704,4.9176173,0.16967869,-0.005792269,0.14294566,0.16280572,-9.337387,1.7669208
6.272768,4.917706,0.16967869,0.0016645822,0.14933725,0.24899697,-9.3421755,1.7956513
6.2728314,4.917794,0.16967869,0.0016645822,0.14933725,0.24899697,-9.3421755,1.7956513
6.272897,4.9178853,0.17074396,0.009121433,0.15253304,0.2633622,-9.409213,1.8052281
6.272962,4.9179764,0.17074396,0.009121433,0.15253304,0.2633622,-9.409213,1.8052281
6.273017,4.918076,0.17180921,0.017643549,0.15253304,0.30645782,-9.44752,1.8148049
6.273072,4.9181757,0.17180921,0.017643549,0.15253304,0.30645782,-9.44752,1.8148049
6.2731113,4.918292,0.17393975,0.0251004,0.15253304,0.34955344,-9.471462,1.8483237
6.273151,4.918408,0.17393975,0.0251004,0.15253304,0.34955344,-9.471462,1.8483237
6.27319,4.918529,0.17607027,0.031491987,0.15359831,0.38307226,-9.476251,1.8435353
6.2732296,4.9186497,0.17607027,0.031491987,0.15359831,0.38307226,-9.476251,1.8435353
6.273275,4.918765,0.17713554,0.038948838,0.15146779,0.41180268,-9.490616,1.8052281
6.2733207,4.91888,0.17713554,0.038948838,0.15146779,0.41180268,-9.490616,1.8052281
6.2733536,4.919009,0.18033133,0.047470953,0.14720672,0.35434186,-9.5385,1.8866309
6.273387,4.9191384,0.18033133,0.047470953,0.14720672,0.35434186,-9.5385,1.8866309
6.2734666,4.919236,0.18352713,0.053862542,0.14401093,0.23463176,-9.552865,1.8339585
6.273546,4.9193335,0.18352713,0.053862542,0.14401093,0.23463176,-9.552865,1.8339585
6.273679,4.919422,0.18778819,0.061319392,0.14081514,0.110133275,-9.557653,1.9153614
6.27381,4.9195113,0.18778819,0.061319392,0.14081514,0.110133275,-9.557653,1.9153614
6.2740903,4.9196634,0.1931145,0.06664571,0.14188041,0.062249243,-9.548077,1.9967642
6.274364,4.919807,0.1931145,0.06664571,0.14188041,0.062249243,-9.548077,1.9967642
6.274575,4.919913,0.19844083,0.069841504,0.14720672,0.05746084,-9.524135,1.9536686
6.2747827,4.9200172,0.19844083,0.069841504,0.14720672,0.05746084,-9.524135,1.9536686
6.274987,4.920127,0.20483242,0.071972035,0.15359831,0.062249243,-9.476251,1.9488802
6.2751803,4.920231,0.20483242,0.071972035,0.15359831,0.062249243,-9.476251,1.9488802
6.27543,4.920357,0.20909347,0.07516783,0.1599899,0.047884032,-9.437943,1.958457
6.2756824,4.9204845,0.20909347,0.07516783,0.1599899,0.047884032,-9.437943,1.958457
6.275899,4.920602,0.21335453,0.08049415,0.16638148,0.047884032,-9.399636,1.9201498
6.2761116,4.9207177,0.21335453,0.08049415,0.16638148,0.047884032,-9.399636,1.9201498
6.2763224,4.9208374,0.21761559,0.08475521,0.17277306,0.05267244,-9.375694,1.9201498
6.276529,4.920955,0.21761559,0.08475521,0.17277306,0.05267244,-9.375694,1.9201498
6.276676,4.9210806,0.22081138,0.086885735,0.1749036,0.10534488,-9.375694,1.8866309
6.2768226,4.921206,0.22081138,0.086885735,0.1749036,0.10534488,-9.375694,1.8866309
6.2769737,4.921331,0.22081138,0.089016266,0.17596887,0.10055647,-9.433155,1.9009962
6.277124,4.9214563,0.22081138,0.089016266,0.17596887,0.10055647,-9.433155,1.9009962
6.277243,4.921592,0.22081138,0.09327733,0.1780994,0.12449849,-9.370906,1.910573
6.2773623,4.9217286,0.22081138,0.09327733,0.1780994,0.12449849,-9.370906,1.910573
6.2774467,4.9218884,0.2229419,0.09647312,0.17703412,0.1340753,-9.303867,1.9297266
6.277532,4.922047,0.2229419,0.09647312,0.17703412,0.1340753,-9.303867,1.9297266
6.2775817,4.922266,0.2229419,0.09860365,0.17277306,0.1436521,-9.351752,1.9871874
6.2776318,4.922482,0.2229419,0.09860365,0.17277306,0.1436521,-9.351752,1.9871874
6.2776856,4.922667,0.2229419,0.09966891,0.16638148,0.1388637,-9.32781,1.9632454
6.277741,4.92285,0.2229419,0.09966891,0.16638148,0.1388637,-9.32781,1.9632454
6.2778516,4.92316,0.22187665,0.100734174,0.16105516,0.11492168,-9.3661175,2.0829554
6.277959,4.923468,0.22187665,0.100734174,0.16105516,0.11492168,-9.3661175,2.0829554
6.2780647,4.9237766,0.21974611,0.100734174,0.15253304,0.12449849,-9.346964,2.1068976
6.2781677,4.9240847,0.21974611,0.100734174,0.15253304,0.12449849,-9.346964,2.1068976
6.278285,4.9243965,0.21655032,0.09966891,0.14188041,0.090979666,-9.394848,2.1164744
6.2783995,4.924708,0.21655032,0.09966891,0.14188041,0.090979666,-9.394848,2.1164744
6.2785053,4.9250174,0.2144198,0.09966891,0.13229302,0.110133275,-9.423578,2.1691468
6.2786098,4.9253283,0.2144198,0.09966891,0.13229302,0.110133275,-9.423578,2.1691468
6.2787476,4.925641,0.21228927,0.09860365,0.12377091,0.047884032,-9.433155,2.1260512
6.278883,4.9259534,0.21228927,0.09860365,0.12377091,0.047884032,-9.433155,2.1260512
6.278973,4.92626,0.211224,0.09753838,0.11524879,0.07182605,-9.44752,2.1164744
6.27906,4.9265656,0.211224,0.09753838,0.11524879,0.07182605,-9.44752,2.1164744
6.279207,4.9268775,0.21228927,0.09540785,0.10992247,0.019153614,-9.437943,2.15957
6.279354,4.927189,0.21228927,0.09540785,0.10992247,0.019153614,-9.437943,2.15957
6.2794704,4.9275002,0.211224,0.09221206,0.103530884,0.04309563,-9.461885,2.2026656
6.279586,4.927811,0.211224,0.09221206,0.103530884,0.04309563,-9.461885,2.2026656
6.279686,4.9281244,0.21335453,0.089016266,0.09287824,0.047884032,-9.476251,2.207454
6.279785,4.9284377,0.21335453,0.089016266,0.09287824,0.047884032,-9.476251,2.207454
6.279849,4.9287524,0.21761559,0.08475521,0.08222559,0.06703765,-9.481039,2.1787236
6.2799115,4.9290667,0.21761559,0.08475521,0.08222559,0.06703765,-9.481039,2.1787236
6.279978,4.9293895,0.22400717,0.08049415,0.07263821,0.07182605,-9.385271,2.2505496
6.2800436,4.9297123,0.22400717,0.08049415,0.07263821,0.07182605,-9.385271,2.2505496
6.280139,4.930047,0.23572509,0.07729836,0.061985567,0.009576807,-9.433155,2.1978772
6.2802343,4.930382,0.23572509,0.07729836,0.061985567,0.009576807,-9.433155,2.1978772
6.280367,4.93072,0.25063878,0.073037304,0.05026766,-0.10534488,-9.452309,2.2697031
6.2805004,4.931058,0.25063878,0.073037304,0.05026766,-0.10534488,-9.452309,2.2697031
6.2806497,4.9313974,0.26874828,0.069841504,0.03641922,-0.15801731,-9.476251,2.2409728
6.2808,4.931736,0.26874828,0.069841504,0.03641922,-0.15801731,-9.476251,2.2409728
6.2809334,4.932097,0.29005358,0.06558045,0.021505518,-0.21547815,-9.519346,2.2984335
6.2810683,4.93246,0.29005358,0.06558045,0.021505518,-0.21547815,-9.519346,2.2984335
6.281192,4.932861,0.31135887,0.0581236,0.008722344,-0.20590134,-9.485827,2.2936451
6.2813067,4.933229,0.31135887,0.0581236,0.008722344,-0.20590134,-9.485827,2.2936451
6.281435,4.933606,0.33372942,0.047470953,-0.0029955646,-0.20111294,-9.485827,2.2170308
6.281566,4.933986,0.33372942,0.047470953,-0.0029955646,-0.20111294,-9.485827,2.2170308
6.2816873,4.9343724,0.35290417,0.03468778,-0.017909266,-0.17238252,-9.490616,2.1883004
6.2818103,4.9347577,0.35290417,0.03468778,-0.017909266,-0.17238252,-9.490616,2.1883004
6.281886,4.935193,0.36888313,0.020839343,-0.033888236,-0.15322891,-9.471462,2.2505496
6.2819633,4.935627,0.36888313,0.020839343,-0.033888236,-0.15322891,-9.471462,2.2505496
6.281932,4.9361076,0.3816663,0.003795111,-0.0498672,-0.009576807,-9.533711,2.2984335
6.2819014,4.9365892,0.3816663,0.003795111,-0.0498672,-0.009576807,-9.533711,2.2984335
6.281818,4.9370804,0.39231896,-0.011118591,-0.06904196,0.04309563,-9.428367,2.3798366
6.281735,4.937572,0.39231896,-0.011118591,-0.06904196,0.04309563,-9.428367,2.3798366
6.2815866,4.938063,0.4008411,-0.023901764,-0.08928198,0.15801731,-9.404425,2.3942018
6.281437,4.9385567,0.4008411,-0.023901764,-0.08928198,0.15801731,-9.404425,2.3942018
6.2812676,4.9390574,0.40829793,-0.03455441,-0.11378307,0.17717093,-9.313444,2.4420857
6.2810974,4.9395585,0.40829793,-0.03455441,-0.11378307,0.17717093,-9.313444,2.4420857
6.280907,4.94007,0.41682005,-0.040945996,-0.14361048,0.18195933,-9.284714,2.528277
6.2807164,4.9405828,0.41682005,-0.040945996,-0.14361048,0.18195933,-9.284714,2.528277
6.2804875,4.9410987,0.4242769,-0.04627232,-0.1755684,0.22505496,-9.361329,2.5761611
6.2802577,4.941617,0.4242769,-0.04627232,-0.1755684,0.22505496,-9.361329,2.5761611
6.279973,4.9421372,0.432799,-0.054794434,-0.21072213,0.29209262,-9.414001,2.5474305
6.279688,4.942657,0.432799,-0.054794434,-0.21072213,0.29209262,-9.414001,2.5474305
6.2793446,4.943182,0.44558218,-0.06331655,-0.2512022,0.2873042,-9.490616,2.4708161
6.279001,4.943707,0.44558218,-0.06331655,-0.2512022,0.2873042,-9.490616,2.4708161
6.278637,4.944254,0.45943063,-0.0707734,-0.2927475,0.20111294,-9.524135,2.4708161
6.2782702,4.9448037,0.45943063,-0.0707734,-0.2927475,0.20111294,-9.524135,2.4708161
6.277857,4.9453607,0.47114852,-0.08036078,-0.3342928,0.22505496,-9.5385,2.480393
6.2774425,4.945918,0.47114852,-0.08036078,-0.3342928,0.22505496,-9.5385,2.480393
6.276984,4.9464836,0.48286644,-0.09420922,-0.37264234,0.33518824,-9.576807,2.6001031
6.2765174,4.94706,0.48286644,-0.09420922,-0.37264234,0.33518824,-9.576807,2.6001031
6.276006,4.947621,0.49351907,-0.108057655,-0.41418764,0.50757074,-9.68694,2.6910827
6.275487,4.9481893,0.49351907,-0.108057655,-0.41418764,0.50757074,-9.68694,2.6910827
6.274928,4.948773,0.5041717,-0.12084083,-0.46212456,0.62249243,-9.854534,2.9113493
6.2743664,4.9493585,0.5041717,-0.12084083,-0.46212456,0.62249243,-9.854534,2.9113493
6.2737565,4.949961,0.5201507,-0.12936294,-0.5143225,0.6895301,-9.950302,3.040636
6.2731414,4.9505687,0.5201507,-0.12936294,-0.5143225,0.6895301,-9.950302,3.040636
6.272486,4.9511933,0.54571706,-0.13468927,-0.5675857,0.7038953,-10.0508585,3.107674
6.2718267,4.951822,0.54571706,-0.13468927,-0.5675857,0.7038953,-10.0508585,3.107674
6.271103,4.9524784,0.5798055,-0.13575453,-0.6240447,0.7565677,-10.16578,3.074155
6.27038,4.9531355,0.5798055,-0.13575453,-0.6240447,0.7565677,-10.16578,3.074155
6.269582,4.953826,0.62348133,-0.13042821,-0.6826343,0.8858546,-10.208876,2.9975405
6.268785,4.9545145,0.62348133,-0.13042821,-0.6826343,0.8858546,-10.208876,2.9975405
6.2679186,4.955247,0.67354876,-0.11977556,-0.7454849,1.0007763,-10.333375,2.992752
6.2670507,4.9559803,0.67354876,-0.11977556,-0.7454849,1.0007763,-10.333375,2.992752
6.266113,4.956762,0.72574675,-0.105927125,-0.81898814,1.0726024,-10.390836,3.0071173
6.2651777,4.957541,0.72574675,-0.105927125,-0.81898814,1.0726024,-10.390836,3.0071173
6.2641597,4.9583693,0.783271,-0.095274486,-0.89781773,1.1061212,-10.529699,2.9592333
6.26314,4.9591975,0.783271,-0.095274486,-0.89781773,1.1061212,-10.529699,2.9592333
6.262054,4.960104,0.8439911,-0.08994816,-0.98303884,1.1300632,-10.635044,3.1794999
6.2609677,4.9610105,0.8439911,-0.08994816,-0.98303884,1.1300632,-10.635044,3.1794999
6.259799,4.9619823,0.9036459,-0.091013424,-1.0735863,1.0342951,-10.802638,3.2321723
6.25863,4.9629545,0.9036459,-0.091013424,-1.0735863,1.0342951,-10.802638,3.2321723
6.257377,4.96399,0.96010494,-0.09847028,-1.1673297,1.0007763,-10.874464,3.323152
6.256123,4.965027,0.96010494,-0.09847028,-1.1673297,1.0007763,-10.874464,3.323152
6.2547927,4.9661217,1.0101724,-0.11338398,-1.2610729,0.94810385,-10.951078,3.466804
6.2534614,4.967218,1.0101724,-0.11338398,-1.2610729,0.94810385,-10.951078,3.466804
6.252052,4.9683685,1.0559788,-0.13788506,-1.3548162,0.89543146,-10.874464,3.620033
6.250643,4.9695196,1.0559788,-0.13788506,-1.3548162,0.89543146,-10.874464,3.620033
6.249141,4.9707127,1.0953935,-0.17090826,-1.4485594,0.8379706,-10.984597,3.643975
6.2476406,4.9719057,1.0953935,-0.17090826,-1.4485594,0.8379706,-10.984597,3.643975
6.2460337,4.973127,1.1273514,-0.20499672,-1.5359111,0.866701,-11.051635,3.514688
6.2444263,4.97435,1.1273514,-0.20499672,-1.5359111,0.866701,-11.051635,3.514688
6.2427287,4.975605,1.153983,-0.24121572,-1.6190017,0.91937345,-10.927136,3.6008794
6.2410493,4.9768476,1.153983,-0.24121572,-1.6190017,0.91937345,-10.927136,3.6008794
6.2392716,4.9781165,1.1742231,-0.27636945,-1.7020924,1.0869676,-10.91756,3.8019924
6.237443,4.979423,1.1742231,-0.27636945,-1.7020924,1.0869676,-10.91756,3.8019924
6.2353396,4.9808445,1.190202,-0.31152317,-1.7862482,1.2401965,-11.200075,3.739743
6.233069,4.9823813,1.190202,-0.31152317,-1.7862482,1.2401965,-11.200075,3.739743
6.2297335,4.984519,1.2072463,-0.34241584,-1.8736,1.5562311,-11.147403,3.7253778
6.2297335,4.984519,1.2072463,-0.34241584,-1.8736,1.5562311,-11.147403,3.7253778
6.2274113,4.9859467,1.2285515,-0.36691692,-1.970539,1.6807296,-11.204864,3.691859
6.2246337,4.9876556,1.2562485,-0.3797001,-2.0728045,1.7477672,-11.305421,3.6104562
6.2230124,4.9886155,1.2562485,-0.3797001,-2.0728045,1.7477672,-11.305421,3.6104562
6.221016,4.989798,1.2562485,-0.3797001,-2.0728045,1.7477672,-11.305421,3.6104562
6.218788,4.991081,1.2903368,-0.38609168,-2.1814613,1.6567876,-11.382035,3.5242648
6.218788,4.991081,1.2903368,-0.38609168,-2.1814613,1.6567876,-11.382035,3.5242648
6.213327,4.994219,1.3318822,-0.39248326,-2.29651,1.4508862,-11.377247,3.4284968
6.211698,4.9951353,1.3318822,-0.39248326,-2.29651,1.4508862,-11.377247,3.4284968
6.209148,4.996588,1.3787539,-0.40420118,-2.4136891,1.1683705,-11.401189,3.4572272
6.2065997,4.9980392,1.3787539,-0.40420118,-2.4136891,1.1683705,-11.401189,3.4572272
6.20404,4.9995923,1.4288213,-0.42657173,-2.522346,0.94331545,-11.386824,3.5003228
6.2015014,5.0011473,1.4288213,-0.42657173,-2.522346,0.94331545,-11.386824,3.5003228
6.1989675,5.00271,1.4778235,-0.4606602,-2.6256766,0.6560113,-11.300632,3.5529952
6.1964364,5.0042696,1.4778235,-0.4606602,-2.6256766,0.6560113,-11.300632,3.5529952
6.1938057,5.0058737,1.5236298,-0.50646657,-2.7172894,0.545878,-11.21444,3.6104562
6.191178,5.0074754,1.5236298,-0.50646657,-2.7172894,0.545878,-11.21444,3.6104562
6.1884503,5.009123,1.5651752,-0.5629256,-2.7982495,0.36870706,-11.118672,3.7493198
6.1857266,5.010768,1.5651752,-0.5629256,-2.7982495,0.36870706,-11.118672,3.7493198
6.1828985,5.0124583,1.5992635,-0.6247109,-2.868557,0.4309563,-10.998962,3.739743
6.1800995,5.01413,1.5992635,-0.6247109,-2.868557,0.4309563,-10.998962,3.739743
6.177203,5.0158463,1.6280258,-0.685431,-2.9314075,0.5793968,-10.836157,3.8259344
6.174303,5.017565,1.6280258,-0.685431,-2.9314075,0.5793968,-10.836157,3.8259344
6.171304,5.019325,1.6557226,-0.7450858,-2.9899971,0.80924016,-10.6877165,3.8498764
6.168309,5.0210843,1.6557226,-0.7450858,-2.9899971,0.80924016,-10.6877165,3.8498764
6.165175,5.022887,1.6823542,-0.7962185,-3.050717,1.2354081,-10.577583,3.8115692
6.162048,5.024692,1.6823542,-0.7962185,-3.050717,1.2354081,-10.577583,3.8115692
6.1587696,5.0265217,1.7121816,-0.8356333,-3.1178288,1.5514427,-10.491392,3.763685
6.1555667,5.0283165,1.7121816,-0.8356333,-3.1178288,1.5514427,-10.491392,3.763685
6.152159,5.030159,1.7473353,-0.85693854,-3.1977236,1.7860745,-10.477027,3.6870706
6.148692,5.0320373,1.7473353,-0.85693854,-3.1977236,1.7860745,-10.477027,3.6870706
6.14515,5.0338573,1.7878155,-0.86652595,-3.2893364,1.8243817,-10.448297,3.4572272
6.141628,5.0356607,1.7878155,-0.86652595,-3.2893364,1.8243817,-10.448297,3.4572272
6.137741,5.0376115,1.830426,-0.8718523,-3.3905365,1.685518,-10.596737,3.1555579
6.1345243,5.0392313,1.830426,-0.8718523,-3.3905365,1.685518,-10.596737,3.1555579
6.1310263,5.0410185,1.8698407,-0.8793091,-3.4981282,1.4077905,-10.773908,3.0262709
6.127487,5.0428324,1.8698407,-0.8793091,-3.4981282,1.4077905,-10.773908,3.0262709
6.1238904,5.044712,1.9060597,-0.8984839,-3.5993283,1.043872,-10.845734,3.1364043
6.120299,5.046593,1.9060597,-0.8984839,-3.5993283,1.043872,-10.845734,3.1364043
6.116629,5.0485272,1.9348218,-0.92937654,-3.6856148,0.6512229,-11.03727,3.2130187
6.1129637,5.0504613,1.9348218,-0.92937654,-3.6856148,0.6512229,-11.03727,3.2130187
6.1092305,5.052423,1.9529314,-0.9709219,-3.7516613,0.4309563,-11.257536,3.3327289
6.1054974,5.054387,1.9529314,-0.9709219,-3.7516613,0.4309563,-11.257536,3.3327289
6.1017084,5.0563574,1.9614536,-1.019924,-3.795337,0.20590134,-11.420342,3.3183637
6.09792,5.0583296,1.9614536,-1.019924,-3.795337,0.20590134,-11.420342,3.3183637
6.094096,5.0603,1.9625188,-1.0710567,-3.8166423,0.19632454,-11.664551,3.4284968
6.0902762,5.0622706,1.9625188,-1.0710567,-3.8166423,0.19632454,-11.664551,3.4284968
6.0864377,5.0642357,1.9582577,-1.1211241,-3.8166423,0.21547815,-11.880029,3.5625722
6.082599,5.066202,1.9582577,-1.1211241,-3.8166423,0.21547815,-11.880029,3.5625722
6.0787673,5.068154,1.9497356,-1.1637347,-3.795337,0.29209262,-12.176909,3.7014358
6.0749354,5.0701075,1.9497356,-1.1637347,-3.795337,0.29209262,-12.176909,3.7014358
6.071123,5.0720425,1.939083,-1.1978232,-3.7612486,0.48841715,-12.449849,3.8259344
6.067311,5.0739794,1.939083,-1.1978232,-3.7612486,0.48841715,-12.449849,3.8259344
6.0635333,5.0759106,1.9294956,-1.2191285,-3.7207685,0.6895301,-12.603078,4.122815
6.0597563,5.077843,1.9294956,-1.2191285,-3.7207685,0.6895301,-12.603078,4.122815
6.05602,5.079776,1.9252346,-1.2329769,-3.674962,0.94331545,-12.861651,4.429273
6.052284,5.0817094,1.9252346,-1.2329769,-3.674962,0.94331545,-12.861651,4.429273
6.048586,5.083702,1.9337566,-1.2372379,-3.6259599,1.0199299,-12.612655,5.2049947
6.0448966,5.0856915,1.9337566,-1.2372379,-3.6259599,1.0199299,-12.612655,5.2049947
6.041231,5.08776,1.9635841,-1.216998,-3.5705662,1.0965444,-12.837709,6.493075
6.037568,5.0898294,1.9635841,-1.216998,-3.5705662,1.0965444,-12.837709,6.493075
6.0339994,5.0919495,2.0115209,-1.1594737,-3.4991934,0.8475474,-12.804191,6.4020953
6.030433,5.09407,2.0115209,-1.1594737,-3.4991934,0.8475474,-12.804191,6.4020953
6.0269685,5.0962477,2.0701106,-1.1030147,-3.4224944,1.2306197,-12.952631,6.0285997
6.023495,5.0984325,2.0701106,-1.1030147,-3.4224944,1.2306197,-12.952631,6.0285997
6.020113,5.1006517,2.1255043,-1.0785136,-3.3564482,1.7477672,-13.192051,5.707777
6.016732,5.102872,2.1255043,-1.0785136,-3.3564482,1.7477672,-13.192051,5.707777
6.013418,5.105097,2.1745064,-1.0838399,-3.291467,1.9680338,-13.369223,5.2624555
6.010102,5.1073256,2.1745064,-1.0838399,-3.291467,1.9680338,-13.369223,5.2624555
6.006828,5.1095576,2.2160518,-1.1136672,-3.2254205,2.0398598,-13.488933,4.9416323
6.003551,5.1117935,2.2160518,-1.1136672,-3.2254205,2.0398598,-13.488933,4.9416323
6.0003166,5.1140323,2.2512054,-1.1530821,-3.1572437,1.6280571,-13.642161,4.5154643
5.9970827,5.1162734,2.2512054,-1.1530821,-3.1572437,1.6280571,-13.642161,4.5154643
5.9938984,5.118526,2.2831633,-1.1924969,-3.0837405,1.2689269,-13.8241205,4.2760444
5.990714,5.1207805,2.2831633,-1.1924969,-3.0837405,1.2689269,-13.8241205,4.2760444
5.9875913,5.1230507,2.3151214,-1.2340422,-3.001715,1.2066777,-13.800179,4.3382936
5.984468,5.1253233,2.3151214,-1.2340422,-3.001715,1.2066777,-13.800179,4.3382936
5.981416,5.1276183,2.3513403,-1.2702612,-2.9122329,1.2976574,-13.814544,4.5633483
5.978364,5.129915,2.3513403,-1.2702612,-2.9122329,1.2976574,-13.814544,4.5633483
5.9753904,5.132246,2.3971467,-1.3000885,-2.8174243,1.5514427,-13.804967,4.8937483
5.9724164,5.1345787,2.3971467,-1.3000885,-2.8174243,1.5514427,-13.804967,4.8937483
5.969525,5.1369553,2.454671,-1.3277855,-2.7172894,1.934515,-13.800179,5.1906295
5.9666357,5.139331,2.454671,-1.3277855,-2.7172894,1.934515,-13.800179,5.1906295
5.963833,5.141763,2.5249784,-1.3501561,-2.6107628,2.1739352,-13.67568,5.33907
5.961029,5.1441965,2.5249784,-1.3501561,-2.6107628,2.1739352,-13.67568,5.33907
5.958313,5.146679,2.6027427,-1.3682655,-2.4999754,2.4756045,-13.474567,5.2049947
5.9555964,5.1491623,2.6027427,-1.3682655,-2.4999754,2.4756045,-13.474567,5.2049947
5.9529614,5.151698,2.6837027,-1.3831792,-2.389188,2.8634653,-13.163321,5.0421886
5.9503284,5.154232,2.6837027,-1.3831792,-2.389188,2.8634653,-13.163321,5.0421886
5.9477773,5.1568193,2.7667935,-1.3906361,-2.284792,3.1890767,-12.794614,4.9081135
5.94522,5.1594133,2.7667935,-1.3906361,-2.284792,3.1890767,-12.794614,4.9081135
5.9427276,5.162052,2.8466883,-1.3885056,-2.1899836,3.514688,-12.378023,4.6016555
5.9402323,5.1646957,2.8466883,-1.3885056,-2.1899836,3.514688,-12.378023,4.6016555
5.937792,5.1673956,2.9191263,-1.3757224,-2.1090233,3.7732618,-11.918336,4.4436383
5.93533,5.170122,2.9191263,-1.3757224,-2.1090233,3.7732618,-11.918336,4.4436383
5.9329567,5.1728663,2.9841075,-1.3522866,-2.039781,3.8786068,-11.434708,4.2281604
5.930575,5.175623,2.9841075,-1.3522866,-2.039781,3.8786068,-11.434708,4.2281604
5.9282465,5.178442,3.0395012,-1.3181981,-1.9790611,3.916914,-11.061212,4.122815
5.9259214,5.18126,3.0395012,-1.3181981,-1.9790611,3.916914,-11.061212,4.122815
5.923652,5.1841326,3.0842423,-1.2798486,-1.922602,3.9025488,-10.682928,4.0222588
5.921386,5.187004,3.0842423,-1.2798486,-1.922602,3.9025488,-10.682928,4.0222588
5.9191713,5.1899157,3.1183307,-1.2372379,-1.8704041,4.0462008,-10.491392,4.012682
5.91696,5.1928263,3.1183307,-1.2372379,-1.8704041,4.0462008,-10.491392,4.012682
5.9148026,5.195774,3.1407013,-1.1893011,-1.8192714,4.0940847,-10.28549,3.9360676
5.9126506,5.198718,3.1407013,-1.1893011,-1.8192714,4.0940847,-10.28549,3.9360676
5.910552,5.2016897,3.152419,-1.1381683,-1.7670735,4.213795,-10.156203,3.8546648
5.908455,5.2046638,3.152419,-1.1381683,-1.7670735,4.213795,-10.156203,3.8546648
5.9064307,5.207646,3.1556149,-1.0827746,-1.7138103,4.2425256,-10.041282,3.8115692
5.904406,5.210633,3.1556149,-1.0827746,-1.7138103,4.2425256,-10.041282,3.8115692
5.902453,5.2136226,3.1502886,-1.0220546,-1.6626776,4.280833,-9.873688,3.7780502
5.9004974,5.2166204,3.1502886,-1.0220546,-1.6626776,4.280833,-9.873688,3.7780502
5.8986244,5.219624,3.1407013,-0.9528124,-1.6083491,4.2281604,-9.691729,3.8546648
5.8967524,5.2226295,3.1407013,-0.9528124,-1.6083491,4.2281604,-9.691729,3.8546648
5.894963,5.225641,3.1289833,-0.8793091,-1.5508248,4.2425256,-9.504981,3.940856
5.893175,5.228654,3.1289833,-0.8793091,-1.5508248,4.2425256,-9.504981,3.940856
5.89147,5.231674,3.1172655,-0.80047953,-1.4890394,4.256891,-9.188946,3.9217024
5.889768,5.2346935,3.1172655,-0.80047953,-1.4890394,4.256891,-9.188946,3.9217024
5.8881507,5.2377267,3.1044822,-0.7173889,-1.4261888,4.261679,-8.916007,3.9743748
5.886537,5.2407584,3.1044822,-0.7173889,-1.4261888,4.261679,-8.916007,3.9743748
5.8849993,5.243806,3.0938296,-0.63216776,-1.3633382,4.31914,-8.523358,3.9983168
5.883466,5.2468514,3.0938296,-0.63216776,-1.3633382,4.31914,-8.523358,3.9983168
5.8819823,5.2499714,3.0821116,-0.5437508,-1.3026181,4.3622355,-8.178593,4.0078936
5.880482,5.2531343,3.0821116,-0.5437508,-1.3026181,4.3622355,-8.178593,4.0078936
5.8791614,5.256091,3.0693285,-0.45320335,-1.2472245,4.3478703,-7.7572136,3.9264908
5.87779,5.2591686,3.0693285,-0.45320335,-1.2472245,4.3478703,-7.7572136,3.9264908
5.8764915,5.2622786,3.05548,-0.3615906,-1.1960918,4.309563,-7.4028716,3.8498764
5.875197,5.265389,3.05548,-0.3615906,-1.1960918,4.309563,-7.4028716,3.8498764
5.8739676,5.268525,3.0395012,-0.2742389,-1.1524159,4.256891,-7.067683,3.8881836
5.8727436,5.271657,3.0181959,-0.19008303,-1.1140664,4.0414124,-6.7947445,3.7445314
5.871601,5.274792,3.0181959,-0.19008303,-1.1140664,4.0414124,-6.7947445,3.7445314
5.870459,5.27794,3.0181959,-0.19008303,-1.1140664,4.0414124,-6.7947445,3.7445314
5.8693895,5.281067,2.9958253,-0.11231872,-1.079978,3.916914,-6.5457473,3.7445314
5.8683124,5.284231,2.9958253,-0.11231872,-1.079978,3.916914,-6.5457473,3.7445314
5.867247,5.287516,2.9691937,-0.043076526,-1.04802,3.763685,-6.157887,3.7588966
5.86625,5.2906017,2.9691937,-0.043076526,-1.04802,3.763685,-6.157887,3.7588966
5.865303,5.2937045,2.9372358,0.017643549,-1.016062,3.715801,-5.961562,3.6487634
5.8643527,5.2968307,2.9372358,0.017643549,-1.016062,3.715801,-5.961562,3.6487634
5.8634443,5.2999654,2.897821,0.07090677,-0.98410416,3.6822822,-5.6886234,3.6104562
5.862538,5.3031034,2.897821,0.07090677,-0.98410416,3.6822822,-5.6886234,3.6104562
5.8616843,5.306207,2.8477535,0.1209742,-0.9532115,3.6487634,-5.535394,3.6008794
5.860834,5.3093114,2.8477535,0.1209742,-0.9532115,3.6487634,-5.535394,3.6008794
5.8600287,5.3123984,2.7923598,0.16784583,-0.9233841,3.5051112,-5.386954,3.6391866
5.859229,5.3154716,2.7923598,0.16784583,-0.9233841,3.5051112,-5.386954,3.6391866
5.8584757,5.318515,2.7305744,0.21152169,-0.8946219,3.2609026,-5.2720323,3.6248214
5.8577275,5.321544,2.7305744,0.21152169,-0.8946219,3.2609026,-5.2720323,3.6248214
5.857022,5.3245387,2.6645281,0.24774067,-0.86692506,3.1794999,-5.080496,3.5769374
5.8561873,5.3280845,2.6645281,0.24774067,-0.86692506,3.1794999,-5.080496,3.5769374
5.855623,5.3306546,2.595286,0.27650282,-0.8381629,3.265691,-4.9416323,3.6966474
5.8548865,5.334004,2.595286,0.27650282,-0.8381629,3.265691,-4.9416323,3.6966474
5.854346,5.336628,2.5239131,0.29887336,-0.8136618,3.323152,-4.76925,3.7828386
5.8537297,5.3396177,2.5239131,0.29887336,-0.8136618,3.323152,-4.76925,3.7828386
5.852697,5.3449507,2.454671,0.32017866,-0.7998134,3.4093432,-4.6112323,3.9456444
5.8524942,5.345994,2.454671,0.32017866,-0.7998134,3.4093432,-4.6112323,3.9456444
5.8520737,5.3481827,2.386494,0.34148395,-0.8040744,3.4284968,-4.4963107,3.9839516
5.8515735,5.350793,2.386494,0.34148395,-0.8040744,3.4284968,-4.4963107,3.9839516
5.8510575,5.3535714,2.321513,0.35852817,-0.8200534,3.2561142,-4.256891,4.0318356
5.850461,5.356794,2.321513,0.35852817,-0.8200534,3.2561142,-4.256891,4.0318356
5.849919,5.359545,2.257597,0.36278924,-0.8541419,3.5673606,-4.261679,4.357447
5.8494225,5.3620706,2.257597,0.36278924,-0.8541419,3.5673606,-4.261679,4.357447
5.8488584,5.364967,2.192616,0.36811554,-0.8892956,3.1364043,-4.027047,4.3526587
5.8484163,5.3672466,2.192616,0.36811554,-0.8892956,3.1364043,-4.027047,4.3526587
5.847918,5.369895,2.1223085,0.37024608,-0.9244493,2.6048915,-3.9743748,4.453215
5.8473864,5.37274,2.1223085,0.37024608,-0.9244493,2.6048915,-3.9743748,4.453215
5.846913,5.3750978,2.0466747,0.35000607,-0.96599466,2.3702598,-4.0174704,4.6016555
5.8464026,5.377656,2.0466747,0.35000607,-0.96599466,2.3702598,-4.0174704,4.6016555
5.8458195,5.3801365,1.9678451,0.3073955,-1.0149968,2.542642,-4.0557775,4.606444
5.8452373,5.382629,1.9678451,0.3073955,-1.0149968,2.542642,-4.0557775,4.606444
5.844583,5.385026,1.8804934,0.25413227,-1.0671947,2.633622,-4.1611223,4.7405195
5.843931,5.387427,1.8804934,0.25413227,-1.0671947,2.633622,-4.1611223,4.7405195
5.843223,5.3897243,1.7878155,0.19767325,-1.1193928,2.4037786,-4.175488,4.8267107
5.8425183,5.3920236,1.7878155,0.19767325,-1.1193928,2.4037786,-4.175488,4.8267107
5.8417544,5.394213,1.6930069,0.13695318,-1.1705254,2.2361844,-4.3047748,4.8267107
5.840994,5.396402,1.6930069,0.13695318,-1.1705254,2.2361844,-4.3047748,4.8267107
5.8401656,5.3984823,1.5960678,0.07090677,-1.2195276,2.0350714,-4.3622355,4.9416323
5.8393407,5.4005623,1.5960678,0.07090677,-1.2195276,2.0350714,-4.3622355,4.9416323
5.8384337,5.4025364,1.5012592,-0.0015312112,-1.2674645,2.1787236,-4.453215,4.9703627
5.8375254,5.40452,1.5012592,-0.0015312112,-1.2674645,2.1787236,-4.453215,4.9703627
5.8365536,5.4063835,1.4107118,-0.07503446,-1.310075,2.0590134,-4.525041,4.8937483
5.8355856,5.4082465,1.4107118,-0.07503446,-1.310075,2.0590134,-4.525041,4.8937483
5.8345466,5.4100013,1.3254906,-0.1549293,-1.3494898,1.6567876,-4.4580035,4.879383
5.8335085,5.411759,1.3254906,-0.1549293,-1.3494898,1.6567876,-4.4580035,4.879383
5.8323817,5.4134145,1.2424,-0.24547677,-1.38997,1.661576,-4.510676,5.0517654
5.831257,5.4150715,1.2424,-0.24547677,-1.38997,1.661576,-4.510676,5.0517654
5.830027,5.4166374,1.1646357,-0.34561163,-1.434711,2.006341,-4.644751,5.195418
5.8287992,5.4182043,1.1646357,-0.34561163,-1.434711,2.006341,-4.644751,5.195418
5.827462,5.4196906,1.097524,-0.44894227,-1.4794521,2.2649148,-4.6830587,5.3199162
5.8261266,5.421178,1.097524,-0.44894227,-1.4794521,2.2649148,-4.6830587,5.3199162
5.8246875,5.422588,1.0399997,-0.55120766,-1.5305848,2.3750482,-4.759673,5.2959743
5.82325,5.423999,1.0399997,-0.55120766,-1.5305848,2.3750482,-4.759673,5.2959743
5.8217072,5.4253426,0.9909976,-0.65027726,-1.588109,2.3415294,-4.8123455,5.391742
5.820166,5.4266877,0.9909976,-0.65027726,-1.588109,2.3415294,-4.8123455,5.391742
5.818508,5.4279733,0.94625646,-0.7536079,-1.652025,2.2888567,-4.8362875,5.6120086
5.8168535,5.4292583,0.94625646,-0.7536079,-1.652025,2.2888567,-4.8362875,5.6120086
5.8150816,5.4304886,0.90790695,-0.8590691,-1.7138103,2.1212628,-4.9081135,5.7604494
5.813308,5.431722,0.90790695,-0.8590691,-1.7138103,2.1212628,-4.9081135,5.7604494
5.811435,5.4328923,0.8770143,-0.9698566,-1.769204,2.1212628,-5.032612,5.93762
5.809554,5.43407,0.8770143,-0.9698566,-1.769204,2.1212628,-5.032612,5.93762
5.8075757,5.4351892,0.85144794,-1.0817094,-1.8128799,2.1643584,-5.1762643,5.93762
5.8056016,5.4363074,0.85144794,-1.0817094,-1.8128799,2.1643584,-5.1762643,5.93762
5.803531,5.437376,0.8301427,-1.1903664,-1.8395115,2.2122424,-5.195418,5.913678
5.8014636,5.4384446,0.8301427,-1.1903664,-1.8395115,2.2122424,-5.195418,5.913678
5.799322,5.439457,0.8099026,-1.2958275,-1.8522947,2.3175871,-5.161899,5.861006
5.7971706,5.4404755,0.8099026,-1.2958275,-1.8522947,2.3175871,-5.161899,5.861006
5.7949553,5.441442,0.7939237,-1.3959624,-1.8501642,2.5570073,-5.12838,5.746084
5.792741,5.442409,0.7939237,-1.3959624,-1.8501642,2.5570073,-5.12838,5.746084
5.790476,5.443325,0.77900994,-1.4843793,-1.8384463,2.6719291,-5.133168,5.7125654
5.788209,5.4442425,0.77900994,-1.4843793,-1.8384463,2.6719291,-5.133168,5.7125654
5.7859106,5.445112,0.76409626,-1.560013,-1.8160757,2.930503,-5.109226,5.6790466
5.7836018,5.4459867,0.76409626,-1.560013,-1.8160757,2.930503,-5.109226,5.6790466
5.781283,5.4468107,0.7513131,-1.6196679,-1.7841177,2.9879637,-5.094861,5.568913
5.778965,5.4476347,0.7513131,-1.6196679,-1.7841177,2.9879637,-5.094861,5.568913
5.776629,5.4484296,0.7406604,-1.6665395,-1.7436377,3.2225955,-5.0374002,5.6790466
5.7742963,5.449223,0.7406604,-1.6665395,-1.7436377,3.2225955,-5.0374002,5.6790466
5.771968,5.4499893,0.73426884,-1.700628,-1.6978313,3.4045548,-4.912902,5.60722
5.769627,5.450759,0.73426884,-1.700628,-1.6978313,3.4045548,-4.912902,5.60722
5.7672963,5.4515104,0.7332036,-1.7219334,-1.6456333,3.6487634,-4.8123455,5.521029
5.7649727,5.4522605,0.7332036,-1.7219334,-1.6456333,3.6487634,-4.8123455,5.521029
5.762665,5.4529996,0.73639935,-1.7272596,-1.588109,3.7828386,-4.7261543,5.4444146
5.7603593,5.453738,0.73639935,-1.7272596,-1.588109,3.7828386,-4.7261543,5.4444146
5.758095,5.454465,0.7417257,-1.7219334,-1.5284543,3.9025488,-4.673482,5.329493
5.755819,5.4551954,0.7417257,-1.7219334,-1.5284543,3.9025488,-4.673482,5.329493
5.753591,5.45592,0.75237834,-1.7070196,-1.4634731,4.003105,-4.582502,5.2720323
5.7513657,5.456645,0.75237834,-1.7070196,-1.4634731,4.003105,-4.582502,5.2720323
5.7491703,5.4573655,0.763031,-1.6867796,-1.3952962,4.31914,-4.462792,5.3342814
5.746972,5.4580874,0.763031,-1.6867796,-1.3952962,4.31914,-4.462792,5.3342814
5.7448335,5.4588,0.7736836,-1.6590827,-1.3249887,4.4723687,-4.405331,5.2720323
5.742683,5.459517,0.7736836,-1.6590827,-1.3249887,4.4723687,-4.405331,5.2720323
5.740585,5.4602203,0.78433627,-1.6249943,-1.249355,4.7548847,-4.4005427,5.233725
5.7384944,5.4609222,0.78433627,-1.6249943,-1.249355,4.7548847,-4.4005427,5.233725
5.7364626,5.46161,0.7917931,-1.5866448,-1.176917,4.975151,-4.3526587,5.195418
5.734433,5.4622974,0.7917931,-1.5866448,-1.176917,4.975151,-4.3526587,5.195418
5.732455,5.4629846,0.7981847,-1.5440341,-1.1066096,5.1571107,-4.256891,5.21936
5.730492,5.4636664,0.7981847,-1.5440341,-1.1066096,5.1571107,-4.256891,5.21936
5.7286367,5.464325,0.8013805,-1.495032,-1.0384326,5.305551,-4.1659107,5.142745
5.726735,5.465,0.8013805,-1.495032,-1.0384326,5.305551,-4.1659107,5.142745
5.724953,5.4656487,0.79925,-1.4407035,-0.9670599,5.3725886,-4.10845,5.056554
5.7231517,5.4663043,0.79925,-1.4407035,-0.9670599,5.3725886,-4.10845,5.056554
5.721438,5.466939,0.7917931,-1.3853097,-0.89781773,5.592855,-4.1036615,5.080496
5.7197194,5.4675765,0.7917931,-1.3853097,-0.89781773,5.592855,-4.1036615,5.080496
5.718087,5.4681964,0.78220576,-1.325655,-0.8339018,5.837064,-4.0318356,5.085284
5.716453,5.4688168,0.78220576,-1.325655,-0.8339018,5.837064,-4.0318356,5.085284
5.714902,5.4694104,0.77048784,-1.2606738,-0.7731818,6.2105594,-4.1132383,5.0278234
5.713344,5.4700065,0.77048784,-1.2606738,-0.7731818,6.2105594,-4.1132383,5.0278234
5.711873,5.4705896,0.75450885,-1.1861053,-0.7241796,6.5218053,-4.1419687,5.0182467
5.7103996,5.471173,0.75450885,-1.1861053,-0.7241796,6.5218053,-4.1419687,5.0182467
5.7090116,5.4717474,0.73639935,-1.1019495,-0.6868954,6.9958572,-4.232949,5.0374002
5.7076216,5.4723234,0.73639935,-1.1019495,-0.6868954,6.9958572,-4.232949,5.0374002
5.7063093,5.472909,0.71615934,-1.0092714,-0.66878587,7.144298,-4.185065,4.960786
5.704991,5.473497,0.71615934,-1.0092714,-0.66878587,7.144298,-4.185065,4.960786
5.7037473,5.4741154,0.6937888,-0.9102018,-0.66772056,7.177817,-4.0557775,5.0421886
5.7025013,5.474735,0.6937888,-0.9102018,-0.66772056,7.177817,-4.0557775,5.0421886
5.701317,5.4753914,0.6660919,-0.81539327,-0.69009113,7.2065473,-4.0462008,5.329493
5.700122,5.4760537,0.6660919,-0.81539327,-0.69009113,7.2065473,-4.0462008,5.329493
5.698967,5.476743,0.6298729,-0.72697634,-0.72844064,7.273585,-4.122815,5.521029
5.6978126,5.4774337,0.6298729,-0.72697634,-0.72844064,7.273585,-4.122815,5.521029
5.696689,5.4781547,0.58832765,-0.6470815,-0.77637756,7.2065473,-4.2281604,5.841852
5.6955605,5.4788804,0.58832765,-0.6470815,-0.77637756,7.2065473,-4.2281604,5.841852
5.694454,5.4796233,0.53826016,-0.57357824,-0.82751024,6.9288197,-4.2185836,5.884948
5.6933475,5.480368,0.53826016,-0.57357824,-0.82751024,6.9288197,-4.2185836,5.884948
5.6922584,5.481121,0.48286644,-0.51072764,-0.88183874,6.4882865,-4.31914,5.861006
5.6911645,5.481879,0.48286644,-0.51072764,-0.88183874,6.4882865,-4.31914,5.861006
5.690085,5.482632,0.4178853,-0.4606602,-0.9329714,6.0956373,-4.5154643,5.8801594
5.689006,5.483386,0.4178853,-0.4606602,-0.9329714,6.0956373,-4.5154643,5.8801594
5.687952,5.4841237,0.34864312,-0.42657173,-0.98090833,5.765238,-4.7740383,6.0381765
5.6868925,5.484867,0.34864312,-0.42657173,-0.98090833,5.765238,-4.7740383,6.0381765
5.6858625,5.485575,0.2825967,-0.40739697,-1.0245842,5.48751,-5.085284,6.105214
5.684828,5.4862885,0.2825967,-0.40739697,-1.0245842,5.48751,-5.085284,6.105214
5.6838264,5.486945,0.2229419,-0.3999401,-1.0586727,5.305551,-5.3678,6.157887
5.682815,5.48761,0.2229419,-0.3999401,-1.0586727,5.305551,-5.3678,6.157887
5.681826,5.4882097,0.17287448,-0.3999401,-1.0863695,4.9799395,-5.45878,6.14831
5.680813,5.488825,0.17287448,-0.3999401,-1.0863695,4.9799395,-5.45878,6.14831
5.6798444,5.4893603,0.13452496,-0.40739697,-1.1098053,4.7165775,-5.5497594,6.14831
5.6788864,5.48989,0.13452496,-0.40739697,-1.1098053,4.7165775,-5.5497594,6.14831
5.6779094,5.490377,0.105762824,-0.4212454,-1.1236538,4.582502,-5.7508726,6.157887
5.676927,5.4908667,0.105762824,-0.4212454,-1.1236538,4.582502,-5.7508726,6.157887
5.675933,5.491324,0.08658806,-0.4361591,-1.1300454,4.2904096,-5.717354,6.0525417
5.674944,5.4917793,0.08658806,-0.4361591,-1.1300454,4.2904096,-5.717354,6.0525417
5.673928,5.492218,0.07700068,-0.45533386,-1.1268495,4.0318356,-5.6886234,6.0238113
5.672933,5.492648,0.07700068,-0.45533386,-1.1268495,4.0318356,-5.6886234,6.0238113
5.6719265,5.4930563,0.074870154,-0.47983494,-1.1172622,3.8738184,-5.66947,5.93762
5.6709175,5.4934654,0.074870154,-0.47983494,-1.1172622,3.8738184,-5.66947,5.93762
5.669894,5.493858,0.07913121,-0.51285815,-1.1002179,3.7972038,-5.60722,5.9184666
5.6688786,5.4942484,0.07913121,-0.51285815,-1.1002179,3.7972038,-5.60722,5.9184666
5.667843,5.49463,0.08871859,-0.5501424,-1.0725211,3.7732618,-5.4444146,5.9041014
5.6668153,5.495009,0.08871859,-0.5501424,-1.0725211,3.7732618,-5.4444146,5.9041014
5.6657686,5.4953766,0.102567025,-0.592753,-1.0426936,3.8833952,-5.363012,5.923255
5.664726,5.4957438,0.102567025,-0.592753,-1.0426936,3.8833952,-5.363012,5.923255
5.663671,5.496099,0.11748073,-0.63642883,-1.0107358,4.050989,-5.1762643,5.8226986
5.6626134,5.4964566,0.11748073,-0.63642883,-1.0107358,4.050989,-5.1762643,5.8226986
5.661548,5.4967904,0.13132916,-0.6801047,-0.97664726,4.237737,-5.1475334,5.7125654
5.6604867,5.4971237,0.13132916,-0.6801047,-0.97664726,4.237737,-5.1475334,5.7125654
5.659423,5.497414,0.14411235,-0.72271526,-0.9436241,4.3287168,-5.257667,5.559336
5.6583667,5.497702,0.14411235,-0.72271526,-0.9436241,4.3287168,-5.257667,5.559336
5.65728,5.4980016,0.15689552,-0.7631953,-0.9106009,4.5202527,-5.0421886,5.5976434
5.6561975,5.4982996,0.15689552,-0.7631953,-0.9106009,4.5202527,-5.0421886,5.5976434
5.6550927,5.4985957,0.1664829,-0.80047953,-0.8765124,4.6399627,-4.8602295,5.616797
5.6537805,5.498948,0.1664829,-0.80047953,-0.8765124,4.6399627,-4.8602295,5.616797
5.6527824,5.499198,0.17607027,-0.8313722,-0.84135866,4.7309427,-4.817134,5.463568
5.650673,5.499714,0.18246186,-0.85800385,-0.8072702,4.76925,-4.7548847,5.3486466
5.6495104,5.4999843,0.18246186,-0.85800385,-0.8072702,4.76925,-4.7548847,5.3486466
5.648403,5.5002236,0.18565765,-0.8793091,-0.769986,4.8362875,-4.711789,5.3199162
5.6473284,5.500456,0.18565765,-0.8793091,-0.769986,4.8362875,-4.711789,5.3199162
5.6473284,5.500456,0.18565765,-0.8793091,-0.769986,4.8362875,-4.711789,5.3199162
5.645208,5.5008616,0.18672292,-0.8952881,-0.7295059,4.879383,-4.7405195,5.2385135
5.645208,5.5008616,0.18672292,-0.8952881,-0.7295059,4.879383,-4.7405195,5.2385135
5.6441426,5.5010495,0.18778819,-0.9059407,-0.68369955,4.8745947,-4.6351743,5.2145715
5.643074,5.501237,0.18778819,-0.9059407,-0.68369955,4.8745947,-4.6351743,5.2145715
5.642009,5.5014095,0.18565765,-0.9123323,-0.6336321,4.9559975,-4.534618,5.1666875
5.6409473,5.5015807,0.18565765,-0.9123323,-0.6336321,4.9559975,-4.534618,5.1666875
5.6398926,5.501728,0.18246186,-0.9155281,-0.57610786,4.984728,-4.3622355,5.0613422
5.6388397,5.5018754,0.18246186,-0.9155281,-0.57610786,4.984728,-4.3622355,5.0613422
5.6378164,5.501989,0.17926607,-0.91446286,-0.51219195,5.00867,-4.2760444,5.0182467
5.636791,5.502102,0.17926607,-0.91446286,-0.51219195,5.00867,-4.2760444,5.0182467
5.6357884,5.502177,0.17393975,-0.9102018,-0.4482761,5.104438,-4.1659107,4.903325
5.6347775,5.5022516,0.17393975,-0.9102018,-0.4482761,5.104438,-4.1659107,4.903325
5.6338024,5.502281,0.16435237,-0.90061444,-0.38222972,5.1523223,-4.0653543,4.8267107
5.6328416,5.50231,0.16435237,-0.90061444,-0.38222972,5.1523223,-4.0653543,4.8267107
5.631905,5.502285,0.15369973,-0.88676596,-0.31192225,5.21936,-3.9073372,4.7022123
5.630951,5.50226,0.15369973,-0.88676596,-0.31192225,5.21936,-3.9073372,4.7022123
5.6300597,5.5021777,0.13878602,-0.8718523,-0.2416148,5.3103395,-3.7205894,4.596867
5.6291747,5.502096,0.13878602,-0.8718523,-0.2416148,5.3103395,-3.7205894,4.596867
5.6283417,5.50196,0.120676525,-0.85054696,-0.17130736,5.4204726,-3.5242648,4.510676
5.627504,5.5018225,0.120676525,-0.85054696,-0.17130736,5.4204726,-3.5242648,4.510676
5.626729,5.5016265,0.09937123,-0.82817644,-0.10206516,5.521029,-3.4237084,4.4005427
5.625953,5.5014305,0.09937123,-0.82817644,-0.10206516,5.521029,-3.4237084,4.4005427
5.625234,5.5011854,0.073804885,-0.8047406,-0.036018763,5.650316,-3.1794999,4.4101195
5.6245217,5.5009418,0.073804885,-0.8047406,-0.036018763,5.650316,-3.1794999,4.4101195
5.6238813,5.5006423,0.04291222,-0.77917427,0.027897105,5.755661,-2.954445,4.237737
5.6232295,5.5003376,0.04291222,-0.77917427,0.027897105,5.755661,-2.954445,4.237737
5.6226435,5.499978,0.0077584907,-0.7504121,0.09074771,5.8801594,-2.7389667,4.1946416
5.6220574,5.4996176,0.0077584907,-0.7504121,0.09074771,5.8801594,-2.7389667,4.1946416
5.621521,5.4991865,-0.029525764,-0.7205847,0.15146779,6.0238113,-2.5905263,4.0701427
5.620987,5.498756,-0.029525764,-0.7205847,0.15146779,6.0238113,-2.5905263,4.0701427
5.6205063,5.498256,-0.07107108,-0.6875615,0.21005733,6.220136,-2.3558946,4.060566
5.6200795,5.4978113,-0.07107108,-0.6875615,0.21005733,6.220136,-2.3558946,4.060566
5.619684,5.4972744,-0.11581218,-0.6513425,0.26438582,6.4787097,-2.2026656,3.9791632
5.619287,5.4967346,-0.11581218,-0.6513425,0.26438582,6.4787097,-2.2026656,3.9791632
5.61895,5.496142,-0.16374908,-0.6108625,0.3091269,6.8186865,-2.030283,4.003105
5.6186132,5.4955497,-0.16374908,-0.6108625,0.3091269,6.8186865,-2.030283,4.003105
5.6183352,5.4949102,-0.21168599,-0.5618603,0.3453459,7.1107793,-1.9967642,3.9552212
5.6180573,5.4942703,-0.21168599,-0.5618603,0.3453459,7.1107793,-1.9967642,3.9552212
5.6178393,5.493603,-0.25855762,-0.50327075,0.37091225,7.345411,-1.9871874,4.027047
5.617621,5.492932,-0.25855762,-0.50327075,0.37091225,7.345411,-1.9871874,4.027047
5.617461,5.492241,-0.30649453,-0.4372244,0.38689122,7.5225816,-2.0638018,4.1036615
5.617301,5.49155,-0.30649453,-0.4372244,0.38689122,7.5225816,-2.0638018,4.1036615
5.617199,5.490848,-0.35336617,-0.3647864,0.39541334,7.5321584,-2.2266076,4.1706996
5.617097,5.4901457,-0.35336617,-0.3647864,0.39541334,7.5321584,-2.2266076,4.1706996
5.6170473,5.4894366,-0.39917254,-0.28808734,0.39541334,7.5321584,-2.4277205,4.1802764
5.6169987,5.488724,-0.39917254,-0.28808734,0.39541334,7.5321584,-2.4277205,4.1802764
5.6170025,5.4880147,-0.44604418,-0.21032305,0.39221755,7.441179,-2.5761611,4.2425256
5.6170063,5.487304,-0.44604418,-0.21032305,0.39221755,7.441179,-2.5761611,4.2425256
5.6170597,5.486591,-0.4929158,-0.13255873,0.38582596,7.321469,-2.825158,4.2664676
5.6171136,5.4858785,-0.4929158,-0.13255873,0.38582596,7.321469,-2.825158,4.2664676
5.617213,5.4851594,-0.5397874,-0.059055492,0.37943438,7.2592196,-3.0358477,4.2521024
5.6173124,5.4844375,-0.5397874,-0.059055492,0.37943438,7.2592196,-3.0358477,4.2521024
5.6174545,5.483718,-0.58452857,0.008056169,0.37197754,7.1395097,-3.2082303,4.3766007
5.617596,5.4830027,-0.58452857,0.008056169,0.37197754,7.1395097,-3.2082303,4.3766007
5.617776,5.4822745,-0.62926966,0.073037304,0.36239013,7.053318,-3.3901896,4.3622355
5.617957,5.4815426,-0.62926966,0.073037304,0.36239013,7.053318,-3.3901896,4.3622355
5.618165,5.4808054,-0.675076,0.12843105,0.3485417,6.9479733,-3.620033,4.4005427
5.618372,5.480072,-0.675076,0.12843105,0.3485417,6.9479733,-3.620033,4.4005427
5.6186028,5.4793215,-0.71875185,0.17849848,0.333628,6.823475,-3.892972,4.4436383
5.6188354,5.478565,-0.71875185,0.17849848,0.333628,6.823475,-3.892972,4.4436383
5.6190867,5.4778066,-0.7592319,0.22323959,0.31764904,6.766014,-4.0414124,4.5058875
5.6193366,5.4770503,-0.7592319,0.22323959,0.31764904,6.766014,-4.0414124,4.5058875
5.619601,5.4762945,-0.79758143,0.2615891,0.29634374,6.679823,-4.175488,4.673482
5.619864,5.475544,-0.79758143,0.2615891,0.29634374,6.679823,-4.175488,4.673482
5.6201344,5.474786,-0.83380044,0.29461232,0.2739732,6.5696893,-4.31914,4.721366
5.6204042,5.474029,-0.83380044,0.29461232,0.2739732,6.5696893,-4.31914,4.721366
5.620675,5.4732575,-0.86788887,0.3223092,0.24947211,6.483498,-4.534618,4.759673
5.620946,5.472489,-0.86788887,0.3223092,0.24947211,6.483498,-4.534618,4.759673
5.621214,5.4717197,-0.8977163,0.3425492,0.22497103,6.3206925,-4.7070007,4.865018
5.621482,5.4709535,-0.8977163,0.3425492,0.22497103,6.3206925,-4.7070007,4.865018
5.62175,5.4702125,-0.92434794,0.35639766,0.19833942,6.14831,-4.88896,5.056554
5.622017,5.4694757,-0.92434794,0.35639766,0.19833942,6.14831,-4.88896,5.056554
5.62228,5.468745,-0.94671845,0.36278924,0.17277306,5.913678,-5.0996494,5.0757074
5.6225443,5.4680176,-0.94671845,0.36278924,0.17277306,5.913678,-5.0996494,5.0757074
5.6229486,5.4673014,-0.96269745,0.36172396,0.15253304,5.7125654,-5.33907,5.142745
5.6233463,5.4665895,-0.96269745,0.36172396,0.15253304,5.7125654,-5.33907,5.142745
5.6238117,5.465751,-0.97335005,0.35000607,0.13655408,5.5401826,-5.559336,5.2480903
5.624275,5.464918,-0.97335005,0.35000607,0.13655408,5.5401826,-5.559336,5.2480903
5.624724,5.4640074,-0.97974163,0.32976604,0.12483617,5.3247046,-5.851429,5.233725
5.6251717,5.4631,-0.97974163,0.32976604,0.12483617,5.3247046,-5.851429,5.233725
5.625597,5.4621596,-0.98293746,0.3041997,0.12164038,5.1571107,-6.0142345,5.185841
5.626022,5.4612203,-0.98293746,0.3041997,0.12164038,5.1571107,-6.0142345,5.185841
5.6264296,5.460268,-0.9840027,0.27330703,0.12377091,4.975151,-6.090849,5.209783
5.6268363,5.4593177,-0.9840027,0.27330703,0.12377091,4.975151,-6.090849,5.209783
5.627224,5.4583445,-0.98080695,0.2381533,0.13122776,4.9464207,-6.2345014,5.2528787
5.6276116,5.4573727,-0.98080695,0.2381533,0.13122776,4.9464207,-6.2345014,5.2528787
5.627989,5.456378,-0.97441536,0.2019343,0.14933725,4.8458643,-6.315904,5.2863975
5.628366,5.4553857,-0.97441536,0.2019343,0.14933725,4.8458643,-6.315904,5.2863975
5.6287403,5.454385,-0.9637627,0.16784583,0.17596887,4.7500963,-6.3589997,5.3965306
5.629116,5.4533825,-0.9637627,0.16784583,0.17596887,4.7500963,-6.3589997,5.3965306
5.6294923,5.4523597,-0.9520448,0.13375737,0.20899206,4.6686935,-6.349423,5.386954
5.6298685,5.451339,-0.9520448,0.13375737,0.20899206,4.6686935,-6.349423,5.386954
5.6302543,5.4503,-0.93819636,0.10392997,0.24947211,4.644751,-6.325481,5.415684
5.630638,5.4492702,-0.93819636,0.10392997,0.24947211,4.644751,-6.325481,5.415684
5.6310396,5.448217,-0.9211521,0.074102566,0.297409,4.6351743,-6.2728086,5.4539914
5.631445,5.4471545,-0.9211521,0.074102566,0.297409,4.6351743,-6.2728086,5.4539914
5.631866,5.446081,-0.90197736,0.04427516,0.35067225,4.6112323,-6.220136,5.415684
5.632285,5.445013,-0.90197736,0.04427516,0.35067225,4.6112323,-6.220136,5.415684
5.632727,5.443909,-0.88067204,0.01551302,0.40393546,4.711789,-6.220136,5.3247046
5.633173,5.442799,-0.88067204,0.01551302,0.40393546,4.711789,-6.220136,5.3247046
5.633641,5.441691,-0.85723627,-0.010053327,0.46145973,4.7788267,-6.090849,5.353435
5.634109,5.440585,-0.85723627,-0.010053327,0.46145973,4.7788267,-6.090849,5.353435
5.6346016,5.4394817,-0.8348657,-0.03242388,0.5211145,4.6782703,-5.90889,5.3821654
5.635095,5.438379,-0.8348657,-0.03242388,0.5211145,4.6782703,-5.90889,5.3821654
5.63562,5.4372625,-0.8135604,-0.05372917,0.5860957,4.5777135,-5.731719,5.281609
5.6361485,5.436142,-0.8135604,-0.05372917,0.5860957,4.5777135,-5.731719,5.281609
5.6367126,5.435007,-0.7943857,-0.07396919,0.6585337,4.4340615,-5.568913,5.195418
5.637273,5.4338813,-0.7943857,-0.07396919,0.6585337,4.4340615,-5.568913,5.195418
5.637884,5.4327183,-0.7784067,-0.091013424,0.73629797,4.309563,-5.4204726,5.0613422
5.6384954,5.4315577,-0.7784067,-0.091013424,0.73629797,4.309563,-5.4204726,5.0613422
5.6391673,5.430355,-0.7656235,-0.10273133,0.8225844,4.10845,-5.291186,4.88896
5.6398387,5.429156,-0.7656235,-0.10273133,0.8225844,4.10845,-5.291186,4.88896
5.6406074,5.427873,-0.7571014,-0.108057655,0.91845816,3.7301662,-4.9655743,4.7644615
5.641327,5.426674,-0.7571014,-0.108057655,0.91845816,3.7301662,-4.9655743,4.7644615
5.642141,5.4254084,-0.7560361,-0.106992394,1.0281805,3.2561142,-4.6830587,4.5920787
5.6429596,5.424137,-0.7560361,-0.106992394,1.0281805,3.2561142,-4.6830587,4.5920787
5.643877,5.4228096,-0.7624277,-0.09953554,1.1549469,2.791639,-4.390966,4.501099
5.6447973,5.42148,-0.7624277,-0.09953554,1.1549469,2.791639,-4.390966,4.501099
5.6458335,5.420078,-0.7741456,-0.09207869,1.3030187,2.3463178,-4.050989,4.2760444
5.6468716,5.418677,-0.7741456,-0.09207869,1.3030187,2.3463178,-4.050989,4.2760444
5.6480446,5.417172,-0.79332036,-0.08781763,1.4681346,1.8770541,-3.9025488,4.050989
5.649225,5.4156637,-0.79332036,-0.08781763,1.4681346,1.8770541,-3.9025488,4.050989
5.650533,5.4140635,-0.8167562,-0.08994816,1.6524254,1.5227122,-3.6008794,3.8977604
5.6518426,5.412467,-0.8167562,-0.08994816,1.6524254,1.5227122,-3.6008794,3.8977604
5.653306,5.4107404,-0.84551835,-0.09953554,1.8548256,1.3742718,-3.4141316,3.6535518
5.6547747,5.4090157,-0.84551835,-0.09953554,1.8548256,1.3742718,-3.4141316,3.6535518
5.6563888,5.4071674,-0.8774763,-0.11764504,2.070009,1.2593501,-3.1555579,3.6631286
5.6580057,5.405326,-0.8774763,-0.11764504,2.070009,1.2593501,-3.1555579,3.6631286
5.6600947,5.4029922,-0.9115647,-0.14214613,2.2947798,1.1971009,-2.825158,3.4524388
5.661608,5.401311,-0.9115647,-0.14214613,2.2947798,1.1971009,-2.825158,3.4524388
5.663478,5.399262,-0.9477837,-0.17197353,2.5238118,1.2018893,-2.528277,3.4955344
5.6655126,5.397045,-0.9477837,-0.17197353,2.5238118,1.2018893,-2.528277,3.4955344
5.667485,5.394918,-0.98293746,-0.20606199,2.7549741,1.3263878,-2.1499932,3.5482068
5.669538,5.392717,-0.98293746,-0.20606199,2.7549741,1.3263878,-2.1499932,3.5482068
5.671754,5.3903637,-1.0138301,-0.24228097,2.9861364,1.5705963,-1.8674773,3.7445314
5.6739693,5.388026,-1.0138301,-0.24228097,2.9861364,1.5705963,-1.8674773,3.7445314
5.676328,5.3855653,-1.0425923,-0.27104312,3.217299,1.8818425,-1.460463,3.7349546
5.678701,5.383106,-1.0425923,-0.27104312,3.217299,1.8818425,-1.460463,3.7349546
5.681222,5.3805275,-1.0692239,-0.29021788,3.443135,2.3175871,-1.0726024,3.6535518
5.683738,5.3779716,-1.0692239,-0.29021788,3.443135,2.3175871,-1.0726024,3.6535518
5.686402,5.3752956,-1.1011819,-0.30087054,3.6604488,2.7150247,-0.6847417,3.371036
5.689066,5.3726387,-1.1011819,-0.30087054,3.6604488,2.7150247,-0.6847417,3.371036
5.6918764,5.3698626,-1.1384661,-0.30300105,3.870306,3.0119057,-0.4213795,2.896984
5.6978416,5.3640423,-1.1842724,-0.29660946,4.0705757,3.6104562,-0.2633622,2.542642
5.6978416,5.3640423,-1.1842724,-0.29660946,4.0705757,3.6104562,-0.2633622,2.542642
5.700636,5.361342,-1.1842724,-0.29660946,4.0705757,3.6104562,-0.2633622,2.542642
5.703753,5.358353,-1.242862,-0.28276104,4.2633886,4.0797195,-0.12928689,2.2840683
5.703753,5.358353,-1.242862,-0.28276104,4.2633886,4.0797195,-0.12928689,2.2840683
5.703753,5.358353,-1.242862,-0.28276104,4.2633886,4.0797195,-0.12928689,2.2840683
5.7163095,5.3465757,-1.3142347,-0.25399888,4.4423532,4.582502,-0.10055647,2.0398598
5.7182636,5.344785,-1.3951948,-0.20819251,4.6085343,5.0613422,-0.18674773,1.910573
5.7203035,5.342926,-1.3951948,-0.20819251,4.6085343,5.0613422,-0.18674773,1.910573
5.7239122,5.339687,-1.4825464,-0.14534192,4.759802,5.3582234,-0.2777274,1.8818425
5.727552,5.3364506,-1.4825464,-0.14534192,4.759802,5.3582234,-0.2777274,1.8818425
5.731355,5.3331294,-1.5762898,-0.06331655,4.8940253,5.506664,-0.38307226,1.7956513
5.7351723,5.3298287,-1.5762898,-0.06331655,4.8940253,5.506664,-0.38307226,1.7956513
5.7391505,5.3264503,-1.6732289,0.032557253,5.0154653,5.6120086,-0.6464345,1.685518
5.74313,5.323103,-1.6732289,0.032557253,5.0154653,5.6120086,-0.6464345,1.685518
5.7472878,5.319677,-1.7712332,0.13801843,5.128383,5.6790466,-0.93373865,1.70946
5.7514467,5.3162813,-1.7712332,0.13801843,5.128383,5.6790466,-0.93373865,1.70946
5.7557964,5.312805,-1.8671069,0.25626278,5.232779,5.755661,-1.2258313,1.6424223
5.760091,5.3094053,-1.8671069,0.25626278,5.232779,5.755661,-1.2258313,1.6424223
5.764596,5.305921,-1.9629807,0.38835558,5.329718,5.779603,-1.6136919,1.6711528
5.7690926,5.3024764,-1.9629807,0.38835558,5.329718,5.779603,-1.6136919,1.6711528
5.773753,5.298997,-2.0556588,0.531101,5.4160047,6.1387334,-2.0590134,1.8722657
5.778409,5.295553,-2.0556588,0.531101,5.4160047,6.1387334,-2.0590134,1.8722657
5.783251,5.292074,-2.1387494,0.6844991,5.493769,6.1004257,-2.2840683,1.9153614
5.788082,5.2886343,-2.1387494,0.6844991,5.493769,6.1004257,-2.2840683,1.9153614
5.7930717,5.2851872,-2.2122526,0.8464193,5.561946,5.7987566,-2.6431987,1.8866309
5.7980585,5.2817717,-2.2122526,0.8464193,5.561946,5.7987566,-2.6431987,1.8866309
5.803219,5.278336,-2.2793643,1.0115353,5.6205354,5.386954,-2.96881,1.6663644
5.8083606,5.2749414,-2.2793643,1.0115353,5.6205354,5.386954,-2.96881,1.6663644
5.8136826,5.2715225,-2.3422148,1.1798471,5.679125,5.0278234,-3.3518825,1.3215994
5.8189735,5.2681503,-2.3422148,1.1798471,5.679125,5.0278234,-3.3518825,1.3215994
5.824459,5.264755,-2.4050655,1.3502893,5.7398453,4.984728,-3.9791632,1.340753
5.8299284,5.2613955,-2.4050655,1.3502893,5.7398453,4.984728,-3.9791632,1.340753
5.8355684,5.258033,-2.4657855,1.5271233,5.7941737,4.88896,-4.4005427,1.2641385
5.841191,5.254706,-2.4657855,1.5271233,5.7941737,4.88896,-4.4005427,1.2641385
5.846994,5.2513742,-2.5222447,1.7082182,5.8421106,4.7500963,-4.7788267,1.0773908
5.8527718,5.2480793,-2.5222447,1.7082182,5.8421106,4.7500963,-4.7788267,1.0773908
5.858704,5.244797,-2.5755079,1.8914437,5.8793945,4.572925,-5.1235914,0.94810385
5.864645,5.2415314,-2.5755079,1.8914437,5.8793945,4.572925,-5.1235914,0.94810385
5.8707056,5.238296,-2.6255753,2.0714734,5.908157,4.510676,-5.473145,1.1109096
5.876774,5.235076,-2.6255753,2.0714734,5.908157,4.510676,-5.473145,1.1109096
5.882951,5.231885,-2.6713817,2.2451115,5.9273314,4.2999864,-5.645528,1.0965444
5.8891234,5.228714,-2.6713817,2.2451115,5.9273314,4.2999864,-5.645528,1.0965444
5.8953824,5.2255735,-2.7118616,2.4027708,5.9390497,4.2042184,-5.78918,1.2114661
5.90168,5.22243,-2.7118616,2.4027708,5.9390497,4.2042184,-5.78918,1.2114661
5.9080057,5.2193427,-2.744885,2.548712,5.9454412,4.237737,-5.961562,1.3024458
5.9143763,5.2162476,-2.744885,2.548712,5.9454412,4.237737,-5.961562,1.3024458
5.9207807,5.2132006,-2.7715166,2.6840005,5.944376,4.4675803,-6.114791,1.4413095
5.9271913,5.2101636,-2.7715166,2.6840005,5.944376,4.4675803,-6.114791,1.4413095
5.9336476,5.2071652,-2.7917564,2.8097017,5.9305277,4.7309427,-6.0764837,1.532289
5.9400907,5.204184,-2.7917564,2.8097017,5.9305277,4.7309427,-6.0764837,1.532289
5.946561,5.2012463,-2.8024092,2.9268808,5.8975043,4.9320555,-5.9663506,1.5035586
5.95303,5.198318,-2.8024092,2.9268808,5.8975043,4.9320555,-5.9663506,1.5035586
5.959502,5.1954317,-2.8119965,3.0376682,5.8453064,5.070919,-5.78918,1.3551182
5.9659734,5.1925535,-2.8119965,3.0376682,5.8453064,5.070919,-5.78918,1.3551182
5.972424,5.1897182,-2.8226492,3.1409988,5.7749987,5.2049947,-5.6359506,1.4269443
5.9788733,5.186889,-2.8226492,3.1409988,5.7749987,5.2049947,-5.6359506,1.4269443
5.985286,5.184091,-2.8375628,3.2358074,5.6887126,5.1666875,-5.5737014,1.4796166
5.991698,5.1812983,-2.8375628,3.2358074,5.6887126,5.1666875,-5.5737014,1.4796166
5.998045,5.1785364,-2.8535419,3.3210287,5.5907083,5.0996494,-5.425261,1.460463
6.004416,5.175766,-2.8535419,3.3210287,5.5907083,5.0996494,-5.425261,1.460463
6.010713,5.173014,-2.8759124,3.3998582,5.485247,4.927267,-5.3342814,1.436521
6.017008,5.1702642,-2.8759124,3.3998582,5.485247,4.927267,-5.3342814,1.436521
6.023239,5.167518,-2.9014788,3.4765573,5.377655,4.687847,-4.903325,1.1540052
6.029468,5.164773,-2.9014788,3.4765573,5.377655,4.687847,-4.903325,1.1540052
6.035638,5.162023,-2.934502,3.5585825,5.2743244,4.975151,-5.5401826,1.3551182
6.041805,5.1592727,-2.934502,3.5585825,5.2743244,4.975151,-5.5401826,1.3551182
6.0479445,5.1564856,-2.9728515,3.6501954,5.1784506,3.3135753,-5.032612,0.90500826
6.0540805,5.153697,-2.9728515,3.6501954,5.1784506,3.3135753,-5.032612,0.90500826
6.0601864,5.1508794,-3.0133314,3.7418082,5.0857725,2.8203697,-5.1906295,0.80445176
6.0662932,5.1480565,-3.0133314,3.7418082,5.0857725,2.8203697,-5.1906295,0.80445176
6.0723157,5.1452293,-3.0538116,3.8153114,4.9920297,3.4284968,-5.9519854,1.2449849
6.0783443,5.1423926,-3.0538116,3.8153114,4.9920297,3.4284968,-5.9519854,1.2449849
6.0842957,5.139556,-3.0868347,3.8973367,4.905743,4.2425256,-6.517017,1.1779473
6.090271,5.1367006,-3.0868347,3.8973367,4.905743,4.2425256,-6.517017,1.1779473
6.0962143,5.1338344,-3.1177275,4.019842,4.825848,4.477157,-6.967127,0.8762778
6.1021514,5.130962,-3.1177275,4.019842,4.825848,4.477157,-6.967127,0.8762778
6.108085,5.128076,-3.144359,4.172175,4.747019,4.223372,-7.240066,0.5410896
6.1140127,5.125183,-3.144359,4.172175,4.747019,4.223372,-7.240066,0.5410896
6.119922,5.1222725,-3.1741865,4.3277035,4.6490145,3.6583402,-7.541735,0.4309563
6.1258245,5.1193523,-3.1741865,4.3277035,4.6490145,3.6583402,-7.541735,0.4309563
6.131674,5.116408,-3.213601,4.471514,4.5286393,3.5482068,-8.298303,0.5746084
6.137521,5.1134496,-3.213601,4.471514,4.5286393,3.5482068,-8.298303,0.5746084
6.143276,5.110468,-3.257277,4.6046724,4.39122,3.1555579,-9.23683,0.89064306
6.149051,5.1074605,-3.257277,4.6046724,4.39122,3.1555579,-9.23683,0.89064306
6.1547675,5.1044073,-3.2988224,4.7303734,4.2463446,2.657564,-10.184934,1.2593501
6.160473,5.101341,-3.2988224,4.7303734,4.2463446,2.657564,-10.184934,1.2593501
6.1662035,5.098181,-3.3318455,4.8432918,4.0940113,2.087744,-10.850522,1.4269443
6.171638,5.0951643,-3.3318455,4.8432918,4.0940113,2.087744,-10.850522,1.4269443
6.1770825,5.092064,-3.3563466,4.9402304,3.9448745,1.6903064,-11.348516,1.4556746
6.182526,5.088943,-3.3563466,4.9402304,3.9448745,1.6903064,-11.348516,1.4556746
6.1879206,5.0857773,-3.3723257,5.027582,3.8053248,1.2497733,-11.60709,1.6376339
6.193275,5.082611,-3.3723257,5.027582,3.8053248,1.2497733,-11.60709,1.6376339
6.198551,5.079418,-3.3808477,5.102151,3.668971,0.92416185,-11.765107,1.7142484
6.203798,5.076218,-3.3808477,5.102151,3.668971,0.92416185,-11.765107,1.7142484
6.2089553,5.073004,-3.3808477,5.163936,3.5336823,0.51235914,-11.923124,1.8722657
6.214093,5.069776,-3.3808477,5.163936,3.5336823,0.51235914,-11.923124,1.8722657
6.2191234,5.0665455,-3.3701952,5.2086773,3.3941329,0.20590134,-12.181698,2.1739352
6.224129,5.063304,-3.3701952,5.2086773,3.3941329,0.20590134,-12.181698,2.1739352
6.229002,5.060072,-3.349955,5.23957,3.2418,-0.0047884034,-12.392388,2.4516625
6.2338595,5.0568223,-3.349955,5.23957,3.2418,-0.0047884034,-12.392388,2.4516625
6.238574,5.053588,-3.3158667,5.252353,3.0756187,-0.16759412,-12.607866,2.7724855
6.2432737,5.050336,-3.3158667,5.252353,3.0756187,-0.16759412,-12.607866,2.7724855
6.247789,5.047119,-3.268995,5.2544837,2.895589,-0.25857377,-12.923901,2.834735
6.252289,5.043885,-3.268995,5.2544837,2.895589,-0.25857377,-12.923901,2.834735
6.2566214,5.040703,-3.2104053,5.2459617,2.705972,-0.6655881,-13.096283,3.1172507
6.260931,5.037509,-3.2104053,5.2459617,2.705972,-0.6655881,-13.096283,3.1172507
6.2650356,5.0343413,-3.144359,5.2342434,2.5120938,-0.41180268,-13.115437,2.834735
6.269108,5.031169,-3.144359,5.2342434,2.5120938,-0.41180268,-13.115437,2.834735
6.272939,5.0280294,-3.0815084,5.19909,2.295845,-0.7278373,-11.717223,-0.18674773
6.276748,5.02488,-3.0815084,5.19909,2.295845,-0.7278373,-11.717223,-0.18674773
6.280377,5.0217443,-3.0591378,5.1532836,2.081727,-1.6807296,-13.172897,1.6663644
0.00079927064,5.018599,-3.0591378,5.1532836,2.081727,-1.6807296,-13.172897,1.6663644
0.0042760917,5.015503,-3.0506158,5.1202602,1.8953058,-1.5562311,-14.211981,4.074931
0.0077336663,5.012401,-3.0506158,5.1202602,1.8953058,-1.5562311,-14.211981,4.074931
0.01100093,5.009365,-3.02718,5.087237,1.7120802,-1.910573,-14.652514,5.085284
0.014246097,5.006324,-3.02718,5.087237,1.7120802,-1.910573,-14.652514,5.085284
0.017272176,5.003336,-2.9845693,5.051018,1.5320505,-2.0398598,-14.733917,5.674258
0.020294031,5.000325,-2.9845693,5.051018,1.5320505,-2.0398598,-14.733917,5.674258
0.023088781,4.997385,-2.9259799,4.997755,1.3498904,-2.4899697,-14.78659,5.765238
0.025896007,4.9944043,-2.9259799,4.997755,1.3498904,-2.4899697,-14.78659,5.765238
0.028479815,4.991487,-2.8588681,4.913599,1.163469,-2.7629087,-14.800955,5.9280434
0.031033196,4.9885774,-2.8588681,4.913599,1.163469,-2.7629087,-14.800955,5.9280434
0.033387393,4.985707,-2.7832344,4.8070726,0.9738519,-3.3327289,-14.901511,5.9567738
0.035720233,4.9828362,-2.7832344,4.8070726,0.9738519,-3.3327289,-14.901511,5.9567738
0.037824713,4.9800277,-2.7044048,4.6792407,0.7757127,-4.189853,-15.011644,5.971139
0.03991574,4.9772115,-2.7044048,4.6792407,0.7757127,-4.189853,-15.011644,5.971139
0.041768998,4.9744654,-2.6213143,4.5258427,0.5765083,-4.984728,-15.016433,5.8945246
0.043609638,4.9717126,-2.6213143,4.5258427,0.5765083,-4.984728,-15.016433,5.8945246
0.045217205,4.969036,-2.5350277,4.349009,0.3879565,-5.535394,-14.930242,5.631162
0.04680983,4.966359,-2.5350277,4.349009,0.3879565,-5.535394,-14.930242,5.631162
0.048182763,4.9637485,-2.4519372,4.1487393,0.21325313,-5.8083334,-14.982914,5.3438582
0.049542032,4.9611387,-2.4519372,4.1487393,0.21325313,-5.8083334,-14.982914,5.3438582
0.050678667,4.9586043,-2.3720424,3.9378169,0.042810805,-5.971139,-14.982914,4.9655743
0.051805105,4.956066,-2.3720424,3.9378169,0.042810805,-5.971139,-14.982914,4.9655743
0.05271432,4.9535956,-2.2996044,3.7236986,-0.122305185,-6.703765,-15.2367,4.6782703
0.053613286,4.951125,-2.2996044,3.7236986,-0.122305185,-6.703765,-15.2367,4.6782703
0.054307595,4.948719,-2.2324927,3.4978626,-0.27250746,-6.5505357,-15.500062,4.4723687
0.054990567,4.9463215,-2.2324927,3.4978626,-0.27250746,-6.5505357,-15.500062,4.4723687
0.055483148,4.9439764,-2.169642,3.2603085,-0.4088613,-6.349423,-15.907076,4.280833
0.05596633,4.941637,-2.169642,3.2603085,-0.4088613,-6.349423,-15.907076,4.280833
0.056259844,4.9393682,-2.1067915,3.0248852,-0.54201937,-6.7085533,-16.429012,4.185065
0.056546517,4.9370975,-2.1067915,3.0248852,-0.54201937,-6.7085533,-16.429012,4.185065
0.056647956,4.9348993,-2.040745,2.7894616,-0.67198163,-7.302315,-16.749836,4.084508
0.05674275,4.932704,-2.040745,2.7894616,-0.67198163,-7.302315,-16.749836,4.084508
0.056665223,4.9305897,-1.9651113,2.5423203,-0.7870302,-7.8529816,-17.085024,4.1132383
0.056582022,4.9284787,-1.9651113,2.5423203,-0.7870302,-7.8529816,-17.085024,4.1132383
0.056349337,4.92647,-1.8798901,2.2802653,-0.87757766,-8.202535,-17.3005,4.0797195
0.056111664,4.924462,-1.8798901,2.2802653,-0.87757766,-8.202535,-17.3005,4.0797195
0.055747982,4.9225545,-1.7818857,2.0032966,-0.94042826,-8.39886,-17.472883,4.012682
0.055224247,4.9198484,-1.7818857,2.0032966,-0.94042826,-8.39886,-17.472883,4.012682
0.05493599,4.9187527,-1.6710982,1.7156751,-0.97664726,-8.652645,-17.458519,3.9312792
0.054476958,4.917019,-1.6710982,1.7156751,-0.97664726,-8.652645,-17.458519,3.9312792
0.05393513,4.9153757,-1.5507234,1.4195316,-0.98410416,-8.552089,-17.219099,3.7828386
0.05393513,4.9153757,-1.5507234,1.4195316,-0.98410416,-8.552089,-17.219099,3.7828386
0.05393513,4.9153757,-1.5507234,1.4195316,-0.98410416,-8.552089,-17.219099,3.7828386
0.052132286,4.909974,-1.4228916,1.1212575,-0.9713209,-8.250419,-17.00841,3.5529952
0.05150256,4.908532,-1.2886684,0.83044034,-0.94468933,-8.135497,-16.649279,3.3279405
0.051112056,4.9076977,-1.2886684,0.83044034,-0.94468933,-8.135497,-16.649279,3.3279405
0.050467744,4.9065046,-1.1512493,0.55134106,-0.9063398,-7.97748,-16.25184,2.9975405
0.04982511,4.9053173,-1.1512493,0.55134106,-0.9063398,-7.97748,-16.25184,2.9975405
0.049175743,4.9042745,-1.0138301,0.27756807,-0.85733765,-7.771579,-15.8783455,2.719813
0.04852526,4.9032307,-1.0138301,0.27756807,-0.85733765,-7.771579,-15.8783455,2.719813
0.047884587,4.9023333,-0.8785415,0.010186698,-0.7955523,-7.3549876,-15.600618,2.4995465
0.0472431,4.901435,-0.8785415,0.010186698,-0.7955523,-7.3549876,-15.600618,2.4995465
0.046619114,4.9006844,-0.74644876,-0.24973783,-0.7305712,-7.1395097,-15.14572,2.408567
0.045993254,4.899932,-0.74644876,-0.24973783,-0.7305712,-7.1395097,-15.14572,2.408567
0.04538915,4.8993206,-0.61968225,-0.5022055,-0.661329,-6.789956,-14.561535,2.3654714
0.044783514,4.8987074,-0.61968225,-0.5022055,-0.661329,-6.789956,-14.561535,2.3654714
0.0442121,4.8982267,-0.4993074,-0.7482816,-0.58462995,-6.325481,-14.025233,2.1930888
0.04363352,4.89774,-0.4993074,-0.7482816,-0.58462995,-6.325481,-14.025233,2.1930888
0.043070715,4.8973627,-0.38745463,-0.98157454,-0.50580037,-5.7508726,-13.55597,2.1260512
0.042563695,4.897023,-0.38745463,-0.98157454,-0.50580037,-5.7508726,-13.55597,2.1260512
0.042063594,4.896769,-0.2862545,-1.2020843,-0.4269708,-5.133168,-13.062764,1.9536686
0.04156327,4.896515,-0.2862545,-1.2020843,-0.4269708,-5.133168,-13.062764,1.9536686
0.041097913,4.8963575,-0.19464175,-1.4055498,-0.35346758,-4.620809,-12.660539,1.8339585
0.040644906,4.8962035,-0.19464175,-1.4055498,-0.35346758,-4.620809,-12.660539,1.8339585
0.040211525,4.8961296,-0.11474692,-1.5898405,-0.28529066,-4.036624,-12.263102,1.7669208
0.039767005,4.896054,-0.11474692,-1.5898405,-0.28529066,-4.036624,-12.263102,1.7669208
0.039366204,4.8960533,-0.043374203,-1.7560217,-0.22137478,-3.4859576,-12.014104,1.7046716
0.03896741,4.8960524,-0.043374203,-1.7560217,-0.22137478,-3.4859576,-12.014104,1.7046716
0.038599476,4.8961143,0.019476399,-1.9008977,-0.15852417,-3.0597897,-11.769896,1.6232687
0.038230732,4.8961754,0.019476399,-1.9008977,-0.15852417,-3.0597897,-11.769896,1.6232687
0.03789212,4.8962917,0.07700068,-2.026599,-0.10313042,-2.5474305,-11.563994,1.5753847
0.037553214,4.896407,0.07700068,-2.026599,-0.10313042,-2.5474305,-11.563994,1.5753847
0.03723297,4.8965664,0.1270681,-2.1341906,-0.05732405,-2.087744,-11.243171,1.4796166
0.036912017,4.896725,0.1270681,-2.1341906,-0.05732405,-2.087744,-11.243171,1.4796166
0.03660012,4.8969135,0.16861342,-2.2215424,-0.016844003,-1.6472107,-11.032481,1.3790601
0.036294967,4.897097,0.16861342,-2.2215424,-0.016844003,-1.6472107,-11.032481,1.3790601
0.035983548,4.8973083,0.20057136,-2.2865236,0.020440254,-1.3311762,-10.802638,1.2641385
0.035678662,4.897514,0.20057136,-2.2865236,0.020440254,-1.3311762,-10.802638,1.2641385
0.035378233,4.897731,0.2229419,-2.3301992,0.054528717,-0.9864111,-10.6398325,1.2689269
0.035077427,4.897947,0.2229419,-2.3301992,0.054528717,-0.9864111,-10.6398325,1.2689269
0.03476319,4.898169,0.23892088,-2.3568308,0.08542138,-0.6655881,-10.419566,1.1492168
0.034448396,4.898391,0.23892088,-2.3568308,0.08542138,-0.6655881,-10.419566,1.1492168
0.03411352,4.8986163,0.24637774,-2.3664184,0.11098773,-0.30166942,-10.242394,1.0869676
0.03377818,4.898841,0.24637774,-2.3664184,0.11098773,-0.30166942,-10.242394,1.0869676
0.033412818,4.8990726,0.24637774,-2.361092,0.13122776,0.1340753,-10.141838,1.1013328
0.033048104,4.8993025,0.24637774,-2.361092,0.13122776,0.1340753,-10.141838,1.1013328
0.032663297,4.899538,0.23785561,-2.3429825,0.1450762,0.521936,-10.0029745,1.1492168
0.03227794,4.8997736,0.23785561,-2.3429825,0.1450762,0.521936,-10.0029745,1.1492168
0.031877324,4.9000144,0.22507244,-2.3131552,0.15146779,1.0007763,-9.892841,1.2210429
0.03147641,4.9002547,0.22507244,-2.3131552,0.15146779,1.0007763,-9.892841,1.2210429
0.031063577,4.9004993,0.20802821,-2.2716098,0.148272,1.4413095,-9.77792,1.4077905
0.030650245,4.900743,0.20802821,-2.2716098,0.148272,1.4413095,-9.77792,1.4077905
0.030229006,4.900996,0.18991871,-2.216216,0.13548881,2.1260512,-9.811439,1.8100165
0.029806757,4.901249,0.18991871,-2.216216,0.13548881,2.1260512,-9.811439,1.8100165
0.029378206,4.9014983,0.16967869,-2.1469738,0.112053,2.8060043,-9.873688,2.2744915
0.028949924,4.9017467,0.16967869,-2.1469738,0.112053,2.8060043,-9.873688,2.2744915
0.028499544,4.901966,0.15369973,-2.0574915,0.075834006,2.9783869,-9.643845,2.0254946
0.028048689,4.9021845,0.15369973,-2.0574915,0.075834006,2.9783869,-9.643845,2.0254946
0.027575312,4.902382,0.1366555,-1.9509652,0.033223428,3.0358477,-9.490616,1.9967642
0.027101934,4.902578,0.1366555,-1.9509652,0.033223428,3.0358477,-9.490616,1.9967642
0.026608078,4.902746,0.11321967,-1.8359166,-0.009387151,3.098097,-9.509769,1.9919758
0.026113931,4.902913,0.11321967,-1.8359166,-0.009387151,3.098097,-9.509769,1.9919758
0.025605729,4.9030495,0.08445753,-1.7155417,-0.04773667,3.241749,-9.524135,2.054225
0.02509574,4.903185,0.08445753,-1.7155417,-0.04773667,3.241749,-9.524135,2.054225
0.024578495,4.903285,0.05356486,-1.5855795,-0.08182514,3.3614593,-9.586384,2.087744
0.024060044,4.903385,0.05356486,-1.5855795,-0.08182514,3.3614593,-9.586384,2.087744
0.023532504,4.9034433,0.019476399,-1.4502909,-0.11697886,3.4859576,-9.648633,2.0207062
0.023005355,4.903501,0.019476399,-1.4502909,-0.11697886,3.4859576,-9.648633,2.0207062
0.022471221,4.903516,-0.015677327,-1.3096759,-0.15213259,3.442862,-9.715671,1.9297266
0.021934895,4.90353,-0.015677327,-1.3096759,-0.15213259,3.442862,-9.715671,1.9297266
0.0213924,4.9035053,-0.05189632,-1.1690611,-0.18515578,3.2369606,-9.811439,1.9871874
0.020850463,4.903481,-0.05189632,-1.1690611,-0.18515578,3.2369606,-9.811439,1.9871874
0.020307282,4.9034157,-0.08705004,-1.0252503,-0.21391793,3.1124623,-9.931149,1.9728222
0.01976472,4.90335,-0.08705004,-1.0252503,-0.21391793,3.1124623,-9.931149,1.9728222
0.019223511,4.9032536,-0.11687745,-0.8835702,-0.23948428,2.815581,-10.089166,2.0398598
0.018682372,4.9031563,-0.11687745,-0.8835702,-0.23948428,2.815581,-10.089166,2.0398598
0.018143643,4.903025,-0.14350906,-0.7461511,-0.26185483,2.5809495,-10.228029,1.9776106
0.017606042,4.902894,-0.14350906,-0.7461511,-0.26185483,2.5809495,-10.228029,1.9776106
0.017080246,4.9027367,-0.16374908,-0.612993,-0.27570325,2.2697031,-10.366894,1.934515
0.016554495,4.9025784,-0.16374908,-0.612993,-0.27570325,2.2697031,-10.366894,1.934515
0.016042603,4.9024034,-0.17972806,-0.4872918,-0.28529066,1.9440918,-10.429143,1.9728222
0.015530773,4.9022284,-0.17972806,-0.4872918,-0.28529066,1.9440918,-10.429143,1.9728222
0.015041422,4.902032,-0.19038069,-0.36904746,-0.28529066,1.7046716,-10.55843,1.8818425
0.0145521145,4.9018354,-0.19038069,-0.36904746,-0.28529066,1.7046716,-10.55843,1.8818425
0.014091879,4.9016237,-0.19570702,-0.26039046,-0.2778338,1.4508862,-10.6877165,1.8243817
0.0136316335,4.9014115,-0.19570702,-0.26039046,-0.2778338,1.4508862,-10.6877165,1.8243817
0.013201723,4.9011936,-0.19464175,-0.1634514,-0.26718116,1.2449849,-10.802638,1.8100165
0.0127717815,4.900976,-0.19464175,-0.1634514,-0.26718116,1.2449849,-10.802638,1.8100165
0.01237648,4.9007545,-0.18825017,-0.07609972,-0.25226745,1.0582372,-10.951078,1.7812861
0.011981093,4.900533,-0.18825017,-0.07609972,-0.25226745,1.0582372,-10.951078,1.7812861
0.011625558,4.900312,-0.17653225,-0.00046594674,-0.23202743,0.89543146,-11.075577,1.7477672
0.011269924,4.900091,-0.17653225,-0.00046594674,-0.23202743,0.89543146,-11.075577,1.7477672
0.0109511055,4.899883,-0.15948802,0.06344992,-0.20965686,0.7517793,-11.15698,1.7764976
0.010632197,4.8996744,-0.15948802,0.06344992,-0.20965686,0.7517793,-11.15698,1.7764976
0.010362671,4.899471,-0.1360522,0.116713144,-0.18728632,0.60333884,-11.243171,1.6759412
0.010093069,4.899267,-0.1360522,0.116713144,-0.18728632,0.60333884,-11.243171,1.6759412
0.009875366,4.899079,-0.107290074,0.15932372,-0.16171996,0.4261679,-11.319786,1.6472107
0.009657703,4.8988905,-0.107290074,0.15932372,-0.16171996,0.4261679,-11.319786,1.6472107
0.009496354,4.898723,-0.076397404,0.19021639,-0.13295783,0.23942018,-11.415554,1.6711528
0.009335027,4.8985553,-0.076397404,0.19021639,-0.13295783,0.23942018,-11.415554,1.6711528
0.009225868,4.8984184,-0.04017841,0.21152169,-0.10206516,0.12928689,-11.429919,1.6759412
0.009116805,4.898281,-0.04017841,0.21152169,-0.10206516,0.12928689,-11.429919,1.6759412
0.00907658,4.898178,-0.0007636249,0.22430485,-0.06584617,-0.0047884034,-11.3964,1.541866
0.009036367,4.898075,-0.0007636249,0.22430485,-0.06584617,-0.0047884034,-11.3964,1.541866
0.009048863,4.898015,0.04291222,0.23069644,-0.026431382,-0.08140286,-11.377247,1.5801731
0.0090613365,4.897955,0.04291222,0.23069644,-0.026431382,-0.08140286,-11.377247,1.5801731
0.009123392,4.8979406,0.08871859,0.23389223,0.015113931,-0.12928689,-11.324574,1.4652514
0.009185337,4.8979263,0.08871859,0.23389223,0.015113931,-0.12928689,-11.324574,1.4652514
0.009296752,4.8979607,0.1366555,0.23176171,0.056659244,-0.19153613,-11.281479,1.4269443
0.009407929,4.8979945,0.1366555,0.23176171,0.056659244,-0.19153613,-11.281479,1.4269443
0.009562012,4.898075,0.18352713,0.22537012,0.102465615,-0.18195933,-11.209652,1.4460979
0.009715809,4.898156,0.18352713,0.22537012,0.102465615,-0.18195933,-11.209652,1.4460979
0.009919087,4.8982835,0.22933349,0.216848,0.14720672,-0.23942018,-11.042058,1.3503298
0.010121983,4.898411,0.22933349,0.216848,0.14720672,-0.23942018,-11.042058,1.3503298
0.010364533,4.898581,0.27300933,0.2051301,0.19088256,-0.23942018,-10.903194,1.2785037
0.010606687,4.8987517,0.27300933,0.2051301,0.19088256,-0.23942018,-10.903194,1.2785037
0.010891857,4.8989673,0.31775045,0.19234692,0.23562367,-0.2633622,-10.70687,1.1683705
0.01117667,4.899183,0.31775045,0.19234692,0.23562367,-0.2633622,-10.70687,1.1683705
0.011487937,4.8994384,0.3582305,0.17743322,0.277169,-0.16759412,-10.539276,1.13964
0.011798822,4.8996935,0.3582305,0.17743322,0.277169,-0.16759412,-10.539276,1.13964
0.012131734,4.8999853,0.3944495,0.16145425,0.3123227,-0.090979666,-10.352529,1.1540052
0.012464239,4.900277,0.3944495,0.16145425,0.3123227,-0.090979666,-10.352529,1.1540052
0.012808698,4.9006042,0.42853796,0.14654055,0.34321538,0.02873042,-10.170568,1.13964
0.0131532205,4.900932,0.42853796,0.14654055,0.34321538,0.02873042,-10.170568,1.13964
0.013508182,4.90129,0.4573001,0.13269211,0.369847,0.1388637,-9.998186,1.0965444
0.013862154,4.901647,0.4573001,0.13269211,0.369847,0.1388637,-9.998186,1.0965444
0.014224455,4.902033,0.48286644,0.118843675,0.39541334,0.25857377,-9.89763,1.091756
0.014586936,4.9024196,0.48286644,0.118843675,0.39541334,0.25857377,-9.89763,1.091756
0.014952629,4.9028325,0.505237,0.10819103,0.4145881,0.40701428,-9.77792,1.0486604
0.015318283,4.903245,0.505237,0.10819103,0.4145881,0.40701428,-9.77792,1.0486604
0.015670808,4.9036865,0.5222812,0.10179944,0.42843655,0.56982,-9.581595,1.1779473
0.016023435,4.904128,0.5222812,0.10179944,0.42843655,0.56982,-9.581595,1.1779473
0.016377725,4.904583,0.53399915,0.09860365,0.43482813,0.7038953,-9.495404,1.091756
0.016732134,4.905038,0.53399915,0.09860365,0.43482813,0.7038953,-9.495404,1.091756
0.017076112,4.90551,0.541456,0.100734174,0.43695867,0.7613561,-9.32781,1.1971009
0.01742986,4.9059954,0.541456,0.100734174,0.43695867,0.7613561,-9.32781,1.1971009
0.01776199,4.9064717,0.54571706,0.10819103,0.43376285,0.770933,-9.241618,1.2641385
0.018091917,4.9069448,0.54571706,0.10819103,0.43376285,0.770933,-9.241618,1.2641385
0.018410716,4.9074326,0.5435865,0.11990894,0.426306,0.7613561,-9.165004,1.3934253
0.018730476,4.907922,0.5435865,0.11990894,0.426306,0.7613561,-9.165004,1.3934253
0.019052586,4.9083977,0.5371949,0.13375737,0.41671863,0.6943185,-9.002198,1.3072342
0.019373644,4.908872,0.5371949,0.13375737,0.41671863,0.6943185,-9.002198,1.3072342
0.01968697,4.9093375,0.52760756,0.1508016,0.406066,0.6703765,-8.90643,1.316811
0.020000307,4.9098024,0.52760756,0.1508016,0.406066,0.6703765,-8.90643,1.316811
0.020305417,4.9102535,0.51375914,0.16997637,0.3932828,0.6703765,-8.882488,1.3120226
0.020610781,4.910704,0.51375914,0.16997637,0.3932828,0.6703765,-8.882488,1.3120226
0.020914271,4.911133,0.4967149,0.19341218,0.38156492,0.51714754,-8.863335,1.3503298
0.021489603,4.911945,0.4967149,0.19341218,0.38156492,0.51714754,-8.863335,1.3503298
0.02153858,4.9120092,0.47647485,0.216848,0.36771646,0.4309563,-8.839393,1.3215994
0.022777926,4.9135113,0.43386427,0.26371965,0.34215012,0.21547815,-8.825027,1.4173675
0.022777926,4.9135113,0.43386427,0.26371965,0.34215012,0.21547815,-8.825027,1.4173675
0.022777926,4.9135113,0.43386427,0.26371965,0.34215012,0.21547815,-8.825027,1.4173675
0.022777926,4.9135113,0.43386427,0.26371965,0.34215012,0.21547815,-8.825027,1.4173675
0.023105158,4.9138947,0.43386427,0.26371965,0.34215012,0.21547815,-8.825027,1.4173675
0.02339051,4.9141746,0.41149372,0.2828944,0.32936695,0.08140286,-8.853758,1.3503298
0.023698851,4.9144773,0.41149372,0.2828944,0.32936695,0.08140286,-8.853758,1.3503298
0.02402013,4.9147663,0.39018843,0.3010039,0.31764904,0.019153614,-8.848969,1.3599066
0.024342135,4.9150558,0.39018843,0.3010039,0.31764904,0.019153614,-8.848969,1.3599066
0.024651363,4.9153256,0.36994842,0.3159176,0.3038006,-0.009576807,-8.805874,1.4269443
0.025014345,4.9156427,0.36994842,0.3159176,0.3038006,-0.009576807,-8.805874,1.4269443
0.025238752,4.9158545,0.34864312,0.3308313,0.28675637,0,-8.762778,1.5514427
0.02551073,4.916112,0.34864312,0.3308313,0.28675637,0,-8.762778,1.5514427
0.025789794,4.916339,0.3284031,0.34361446,0.26545107,-0.11492168,-8.6574335,1.5801731
0.026068328,4.916566,0.3284031,0.34361446,0.26545107,-0.11492168,-8.6574335,1.5801731
0.0263663,4.9167643,0.3070978,0.35533237,0.24201526,-0.21068975,-8.542512,1.6089035
0.026663702,4.9169636,0.3070978,0.35533237,0.24201526,-0.21068975,-8.542512,1.6089035
0.026982024,4.917142,0.283662,0.36278924,0.21431838,-0.30166942,-8.451532,1.541866
0.027298963,4.9173193,0.283662,0.36278924,0.21431838,-0.30166942,-8.451532,1.541866
0.02764003,4.917487,0.25489986,0.36598504,0.18342571,-0.38307226,-8.384495,1.6041151
0.027978491,4.9176526,0.25489986,0.36598504,0.18342571,-0.38307226,-8.384495,1.6041151
0.028319309,4.9178123,0.22400717,0.36811554,0.15040252,-0.5363012,-8.298303,1.5801731
0.02866895,4.9179754,0.22400717,0.36811554,0.15040252,-0.5363012,-8.298303,1.5801731
0.028984334,4.9181147,0.1931145,0.36598504,0.118444584,-0.6943185,-8.24563,1.5658079
0.029294666,4.918252,0.1931145,0.36598504,0.118444584,-0.6943185,-8.24563,1.5658079
0.029576695,4.9183593,0.16115656,0.35959345,0.08435612,-0.7661445,-8.240842,1.5370775
0.029859344,4.918466,0.16115656,0.35959345,0.08435612,-0.7661445,-8.240842,1.5370775
0.030106254,4.9185395,0.12919864,0.3489408,0.05133292,-0.8475474,-8.303091,1.5131354
0.030353304,4.9186125,0.12919864,0.3489408,0.05133292,-0.8475474,-8.303091,1.5131354
0.030574096,4.9186606,0.09617544,0.33722287,0.022570781,-0.94331545,-8.322245,1.5370775
0.03079613,4.918709,0.09617544,0.33722287,0.022570781,-0.94331545,-8.322245,1.5370775
0.030986506,4.9187307,0.06634804,0.3212439,-0.008321887,-1.0199299,-8.360553,1.5466543
0.031176247,4.918752,0.06634804,0.3212439,-0.008321887,-1.0199299,-8.360553,1.5466543
0.03133029,4.9187384,0.037585896,0.3031344,-0.037084028,-1.043872,-8.408437,1.4987702
0.031484276,4.918724,0.037585896,0.3031344,-0.037084028,-1.043872,-8.408437,1.4987702
0.031610515,4.9186907,0.012019549,0.28182915,-0.064780906,-1.1109096,-8.499416,1.5466543
0.031736743,4.9186583,0.012019549,0.28182915,-0.064780906,-1.1109096,-8.499416,1.5466543
0.031838987,4.918618,-0.012481534,0.25839332,-0.09034725,-1.1587936,-8.614338,1.6807296
0.03194186,4.918578,-0.012481534,0.25839332,-0.09034725,-1.1587936,-8.614338,1.6807296
0.032015923,4.918518,-0.034852087,0.2349575,-0.11484833,-1.2258313,-8.710106,1.6998832
0.032089975,4.9184575,-0.034852087,0.2349575,-0.11484833,-1.2258313,-8.710106,1.6998832
0.032135643,4.918371,-0.052961584,0.20939115,-0.13615362,-1.2401965,-8.892065,1.6759412
0.032181304,4.9182854,-0.052961584,0.20939115,-0.13615362,-1.2401965,-8.892065,1.6759412
0.03220854,4.918201,-0.06894055,0.1838248,-0.15319785,-1.2641385,-9.054871,1.8291701
0.032235917,4.9181166,-0.06894055,0.1838248,-0.15319785,-1.2641385,-9.054871,1.8291701
0.032243825,4.918015,-0.08172372,0.15825845,-0.1670463,-1.412579,-9.275137,1.8243817
0.032251734,4.9179134,-0.08172372,0.15825845,-0.1670463,-1.412579,-9.275137,1.8243817
0.03224142,4.9177957,-0.092376366,0.13162684,-0.1787642,-1.4269443,-9.414001,1.7956513
0.032231104,4.917678,-0.092376366,0.13162684,-0.1787642,-1.4269443,-9.414001,1.7956513
0.032220855,4.917561,-0.092376366,0.13162684,-0.1787642,-1.4269443,-9.414001,1.7956513
0.032199614,4.917433,-0.10089848,0.10712577,-0.18409052,-1.4796166,-9.629479,1.8100165
0.032178506,4.917305,-0.10089848,0.10712577,-0.18409052,-1.4796166,-9.629479,1.8100165
0.03215525,4.917173,-0.107290074,0.08475521,-0.18195999,-1.4987702,-9.816227,1.8579005
0.032132067,4.9170413,-0.107290074,0.08475521,-0.18195999,-1.4987702,-9.816227,1.8579005
0.03210834,4.9169087,-0.108355336,0.062384658,-0.17769894,-1.5753847,-9.974244,1.8770541
0.032084696,4.9167767,-0.108355336,0.062384658,-0.17769894,-1.5753847,-9.974244,1.8770541
0.032065324,4.9166517,-0.107290074,0.04107937,-0.17024209,-1.6136919,-10.113108,1.958457
0.032045923,4.9165277,-0.107290074,0.04107937,-0.17024209,-1.6136919,-10.113108,1.958457
0.032032195,4.9164085,-0.10196375,0.018708814,-0.15958944,-1.532289,-10.108319,1.9536686
0.0320186,4.91629,-0.10196375,0.018708814,-0.15958944,-1.532289,-10.108319,1.9536686
0.032012507,4.916177,-0.0945069,-0.00366174,-0.14680627,-1.532289,-10.28549,1.9728222
0.032006446,4.9160643,-0.0945069,-0.00366174,-0.14680627,-1.532289,-10.28549,1.9728222
0.032010447,4.9159694,-0.08598478,-0.027097559,-0.13295783,-1.5275006,-10.338163,2.0590134
0.032014467,4.915875,-0.08598478,-0.027097559,-0.13295783,-1.5275006,-10.338163,2.0590134
0.032026302,4.9157877,-0.07320161,-0.051598642,-0.11910939,-1.4652514,-10.43872,2.030283
0.032038078,4.9157,-0.07320161,-0.051598642,-0.11910939,-1.4652514,-10.43872,2.030283
0.03205921,4.915627,-0.058287904,-0.07609972,-0.104195684,-1.4269443,-10.448297,2.0207062
0.03208035,4.915554,-0.058287904,-0.07609972,-0.104195684,-1.4269443,-10.448297,2.0207062
0.032112345,4.9155087,-0.04017841,-0.10060081,-0.08928198,-1.3311762,-10.491392,2.1068976
0.03214428,4.915464,-0.04017841,-0.10060081,-0.08928198,-1.3311762,-10.491392,2.1068976
0.032186795,4.9154396,-0.02313418,-0.122971356,-0.07436828,-1.292869,-10.443508,2.1212628
0.032229118,4.915416,-0.02313418,-0.122971356,-0.07436828,-1.292869,-10.443508,2.1212628
0.032283388,4.9154053,-0.0039594183,-0.14321138,-0.05732405,-1.1827357,-10.424355,2.078167
0.032337554,4.9153943,-0.0039594183,-0.14321138,-0.05732405,-1.1827357,-10.424355,2.078167
0.032402977,4.9154024,0.015215342,-0.16132088,-0.04241035,-1.1444284,-10.357317,2.0638018
0.03246855,4.915411,0.015215342,-0.16132088,-0.04241035,-1.1444284,-10.357317,2.0638018
0.032546997,4.915437,0.034390103,-0.17836511,-0.024300855,-1.067814,-10.314221,2.0494366
0.03262603,4.915463,0.034390103,-0.17836511,-0.024300855,-1.067814,-10.314221,2.0494366
0.032714248,4.9154906,0.051434334,-0.19221355,-0.0072566224,-0.9672575,-10.228029,1.9632454
0.032802407,4.9155183,0.051434334,-0.19221355,-0.0072566224,-0.9672575,-10.228029,1.9632454
0.032905232,4.9155645,0.0674133,-0.20180093,0.008722344,-0.90979666,-10.180145,1.9776106
0.033007946,4.915611,0.0674133,-0.20180093,0.008722344,-0.90979666,-10.180145,1.9776106
0.033129822,4.9156804,0.08126174,-0.20925778,0.02683184,-0.842759,-10.13705,2.0207062
0.033251625,4.91575,0.08126174,-0.20925778,0.02683184,-0.842759,-10.13705,2.0207062
0.03337421,4.9158087,0.09404491,-0.2145841,0.039615013,-0.80924016,-10.132261,1.9297266
0.033496663,4.9158673,0.09404491,-0.2145841,0.039615013,-0.80924016,-10.132261,1.9297266
0.03362829,4.9159317,0.10363229,-0.21884516,0.052398186,-0.7086837,-10.060435,1.934515
0.033762798,4.915997,0.10363229,-0.21884516,0.052398186,-0.7086837,-10.060435,1.934515
0.033898972,4.9160595,0.11215441,-0.21991043,0.06837715,-0.61770403,-10.01734,1.9297266
0.03403346,4.9161205,0.11215441,-0.21991043,0.06837715,-0.61770403,-10.01734,1.9297266
0.034205712,4.916221,0.11748073,-0.21777989,0.08222559,-0.61770403,-10.022128,2.0207062
0.034377374,4.916321,0.11748073,-0.21777989,0.08222559,-0.61770403,-10.022128,2.0207062
0.034528576,4.9163857,0.122807056,-0.21351884,0.09074771,-0.5267244,-9.969456,1.9488802
0.03467905,4.91645,0.122807056,-0.21351884,0.09074771,-0.5267244,-9.969456,1.9488802
0.03479333,4.916495,0.12813337,-0.20819251,0.10033509,-0.40222588,-9.945514,1.9776106
0.034906145,4.916539,0.12813337,-0.20819251,0.10033509,-0.40222588,-9.945514,1.9776106
0.034983713,4.9165783,0.13132916,-0.20073566,0.11098773,-0.36391866,-9.916783,1.934515
0.035060536,4.9166174,0.13132916,-0.20073566,0.11098773,-0.36391866,-9.916783,1.934515
0.035119694,4.916661,0.13559023,-0.19221355,0.12164038,-0.32561144,-9.911995,1.9153614
0.035178516,4.9167047,0.13559023,-0.19221355,0.12164038,-0.32561144,-9.911995,1.9153614
0.035206623,4.9167624,0.13985129,-0.18262617,0.13229302,-0.25378537,-9.854534,1.9009962
0.035234787,4.91682,0.13985129,-0.18262617,0.13229302,-0.25378537,-9.854534,1.9009962
0.035273794,4.91688,0.14198181,-0.17090826,0.14294566,-0.25378537,-9.849746,1.9057846
0.03531284,4.91694,0.14198181,-0.17090826,0.14294566,-0.25378537,-9.849746,1.9057846
0.035315923,4.9170313,0.14411235,-0.15812509,0.15146779,-0.19632454,-9.878476,1.9632454
0.035319388,4.9171214,0.14411235,-0.15812509,0.15146779,-0.19632454,-9.878476,1.9632454
0.035335116,4.917211,0.14624287,-0.14640717,0.15892464,-0.095768064,-9.859323,1.8962077
0.035351057,4.9173,0.14624287,-0.14640717,0.15892464,-0.095768064,-9.859323,1.8962077
0.03535759,4.9174128,0.14624287,-0.13255873,0.16638148,-0.04309563,-9.844957,1.9488802
0.035364337,4.9175253,0.14624287,-0.13255873,0.16638148,-0.04309563,-9.844957,1.9488802
0.035372246,4.9176483,0.14730814,-0.12084083,0.17064254,-0.033518825,-9.844957,1.9776106
0.035380356,4.9177723,0.14730814,-0.12084083,0.17064254,-0.033518825,-9.844957,1.9776106
0.03539201,4.9178953,0.14943866,-0.108057655,0.17064254,0,-9.864111,1.9680338
0.035403814,4.9180174,0.14943866,-0.108057655,0.17064254,0,-9.864111,1.9680338
0.03542088,4.9181337,0.15050393,-0.095274486,0.17064254,0.01436521,-9.821015,1.9393034
0.0354382,4.9182506,0.15050393,-0.095274486,0.17064254,0.01436521,-9.821015,1.9393034
0.035458915,4.918364,0.14943866,-0.08355658,0.16957727,-0.023942016,-9.830592,1.9440918
0.03547948,4.918475,0.14943866,-0.08355658,0.16957727,-0.023942016,-9.830592,1.9440918
0.035492945,4.918598,0.1483734,-0.07290393,0.16638148,-0.02873042,-9.758766,1.9680338
0.035506584,4.9187202,0.1483734,-0.07290393,0.16638148,-0.02873042,-9.758766,1.9680338
0.035516087,4.918844,0.1483734,-0.064381815,0.16105516,-0.033518825,-9.725247,1.9680338
0.035525795,4.9189672,0.1483734,-0.064381815,0.16105516,-0.033518825,-9.725247,1.9680338
0.03553745,4.9190817,0.14730814,-0.05692496,0.15785937,-0.076614454,-9.667787,1.9488802
0.03554933,4.919195,0.14730814,-0.05692496,0.15785937,-0.076614454,-9.667787,1.9488802
0.035549056,4.9193335,0.1483734,-0.051598642,0.15253304,-0.08140286,-9.667787,2.0015526
0.035548914,4.9194703,0.1483734,-0.051598642,0.15253304,-0.08140286,-9.667787,2.0015526
0.035552345,4.9195895,0.14624287,-0.04627232,0.15040252,-0.07182605,-9.643845,1.9632454
0.03555603,4.9197083,0.14624287,-0.04627232,0.15040252,-0.07182605,-9.643845,1.9632454
0.035597064,4.919783,0.1451776,-0.03988073,0.14933725,-0.22026655,-9.648633,1.9297266
0.035638258,4.919857,0.1451776,-0.03988073,0.14933725,-0.22026655,-9.648633,1.9297266
0.03568887,4.9199257,0.1451776,-0.03455441,0.14720672,-0.24899697,-9.643845,1.934515
0.035739563,4.9199934,0.1451776,-0.03455441,0.14720672,-0.24899697,-9.643845,1.934515
0.035798006,4.9200535,0.14198181,-0.030293351,0.14614145,-0.22026655,-9.605537,1.8818425
0.035856344,4.920114,0.14198181,-0.030293351,0.14614145,-0.22026655,-9.605537,1.8818425
0.035935573,4.920163,0.13878602,-0.027097559,0.14614145,-0.23463176,-9.581595,1.8339585
0.03601473,4.9202127,0.13878602,-0.027097559,0.14614145,-0.23463176,-9.581595,1.8339585
0.036110234,4.920253,0.13452496,-0.023901764,0.1450762,-0.29209262,-9.600749,1.8818425
0.036205277,4.920294,0.13452496,-0.023901764,0.1450762,-0.29209262,-9.600749,1.8818425
0.03632347,4.9203267,0.13132916,-0.021771235,0.1450762,-0.320823,-9.591172,1.8483237
0.03644131,4.9203606,0.13132916,-0.021771235,0.1450762,-0.320823,-9.591172,1.8483237
0.03647475,4.9204226,0.12813337,-0.019640706,0.14401093,-0.2777274,-9.576807,1.9680338
0.03650848,4.920484,0.12813337,-0.019640706,0.14401093,-0.2777274,-9.576807,1.9680338
0.03658806,4.92052,0.12600285,-0.017510178,0.14294566,-0.31603462,-9.572019,1.9536686
0.036666904,4.920556,0.12600285,-0.017510178,0.14294566,-0.31603462,-9.572019,1.9536686
0.03682943,4.920582,0.122807056,-0.016444914,0.14401093,-0.37349546,-9.524135,1.9440918
0.036989853,4.920607,0.122807056,-0.016444914,0.14401093,-0.37349546,-9.524135,1.9440918
0.037075806,4.9206343,0.119611256,-0.017510178,0.14188041,-0.33997664,-9.485827,1.9680338
0.037160095,4.9206624,0.119611256,-0.017510178,0.14188041,-0.33997664,-9.485827,1.9680338
0.0371488,4.920829,0.11641546,-0.018575443,0.1386846,-0.31603462,-9.490616,2.0015526
0.037145644,4.9208813,0.11641546,-0.018575443,0.1386846,-0.31603462,-9.490616,2.0015526
0.03714349,4.921317,0.10789335,-0.0228365,0.12483617,-0.22505496,-9.466674,2.054225
0.03714349,4.921317,0.10789335,-0.0228365,0.12483617,-0.22505496,-9.466674,2.054225
0.03714349,4.921317,0.10789335,-0.0228365,0.12483617,-0.22505496,-9.466674,2.054225
0.03714349,4.921317,0.10789335,-0.0228365,0.12483617,-0.22505496,-9.466674,2.054225
0.03711629,4.921445,0.10363229,-0.02496703,0.11418352,-0.21547815,-9.461885,2.0350714
0.0370418,4.921662,0.09937123,-0.026032293,0.102465615,-0.17238252,-9.500193,2.0446482
0.037030153,4.921695,0.09937123,-0.026032293,0.102465615,-0.17238252,-9.500193,2.0446482
0.03699195,4.9218035,0.09937123,-0.026032293,0.102465615,-0.17238252,-9.500193,2.0446482
0.0369527,4.921945,0.09297965,-0.027097559,0.09074771,-0.17238252,-9.476251,2.087744
0.036912862,4.9220862,0.09297965,-0.027097559,0.09074771,-0.17238252,-9.476251,2.087744
0.036853023,4.92221,0.087653324,-0.026032293,0.07796454,-0.1340753,-9.457097,2.0733786
0.036792893,4.9223337,0.087653324,-0.026032293,0.07796454,-0.1340753,-9.457097,2.0733786
0.03674811,4.9224844,0.082327,-0.026032293,0.06624663,-0.23463176,-9.509769,2.1068976
0.03670273,4.9226336,0.082327,-0.026032293,0.06624663,-0.23463176,-9.509769,2.1068976
0.036641043,4.922772,0.07700068,-0.0228365,0.055593982,-0.22026655,-9.5385,2.111686
0.036578305,4.9229107,0.07700068,-0.0228365,0.055593982,-0.22026655,-9.5385,2.111686
0.036485337,4.92295,0.07060909,-0.016444914,0.04387607,-0.23463176,-9.600749,2.0207062
0.03639226,4.922988,0.07060909,-0.016444914,0.04387607,-0.23463176,-9.600749,2.0207062
0.036360353,4.9231415,0.06421751,-0.010053327,0.035353955,-0.320823,-9.610326,2.1068976
0.03632735,4.9232945,0.06421751,-0.010053327,0.035353955,-0.320823,-9.610326,2.1068976
0.03637052,4.9234543,0.05995645,-0.0025964756,0.02896237,-0.37349546,-9.648633,2.15957
0.03641339,4.923614,0.05995645,-0.0025964756,0.02896237,-0.37349546,-9.648633,2.15957
0.036505163,4.9237576,0.055695392,0.0027298466,0.023636047,-0.4261679,-9.701305,2.1643584
0.03659708,4.9239006,0.055695392,0.0027298466,0.023636047,-0.4261679,-9.701305,2.1643584
0.036673434,4.9240456,0.0524996,0.008056169,0.021505518,-0.44532153,-9.677363,2.2218192
0.036749955,4.9241905,0.0524996,0.008056169,0.021505518,-0.44532153,-9.677363,2.2218192
0.03684138,4.924327,0.05036907,0.013382491,0.018309724,-0.48362875,-9.662998,2.2266076
0.03693272,4.9244633,0.05036907,0.013382491,0.018309724,-0.48362875,-9.662998,2.2266076
0.0370302,4.924596,0.049303804,0.017643549,0.018309724,-0.51235914,-9.691729,2.2505496
0.037127644,4.9247284,0.049303804,0.017643549,0.018309724,-0.51235914,-9.691729,2.2505496
0.037244577,4.9248514,0.04823854,0.021904606,0.019374989,-0.521936,-9.682152,2.2122424
0.03736176,4.924973,0.04823854,0.021904606,0.019374989,-0.521936,-9.682152,2.2122424
0.03746883,4.925103,0.05036907,0.022969872,0.019374989,-0.51714754,-9.696517,2.2361844
0.037575874,4.9252334,0.05036907,0.022969872,0.019374989,-0.51714754,-9.696517,2.2361844
0.037719004,4.9253354,0.051434334,0.022969872,0.018309724,-0.58897364,-9.715671,2.1930888
0.037861988,4.925437,0.051434334,0.022969872,0.018309724,-0.58897364,-9.715671,2.1930888
0.037974272,4.925565,0.05356486,0.022969872,0.015113931,-0.5650316,-9.65821,2.2457612
0.038086757,4.925692,0.05356486,0.022969872,0.015113931,-0.5650316,-9.65821,2.2457612
0.038223162,4.925804,0.05356486,0.019774077,0.014048667,-0.5650316,-9.648633,2.183512
0.038404744,4.925952,0.05356486,0.019774077,0.014048667,-0.5650316,-9.648633,2.183512
0.038488716,4.926061,0.054630127,0.01551302,0.012983402,-0.545878,-9.591172,2.2361844
0.038571447,4.9261684,0.054630127,0.01551302,0.012983402,-0.545878,-9.591172,2.2361844
0.03868048,4.926294,0.054630127,0.010186698,0.010852873,-0.545878,-9.586384,2.207454
0.038790375,4.92642,0.054630127,0.010186698,0.010852873,-0.545878,-9.586384,2.207454
0.038866807,4.9265623,0.054630127,0.0069909045,0.00765708,-0.46447513,-9.552865,2.1883004
0.03894344,4.9267044,0.054630127,0.0069909045,0.00765708,-0.46447513,-9.552865,2.1883004
0.038991224,4.9268537,0.054630127,0.0027298466,0.0023307577,-0.45968673,-9.514558,2.2409728
0.039039038,4.927003,0.054630127,0.0027298466,0.0023307577,-0.45968673,-9.514558,2.2409728
0.039066523,4.9271545,0.05356486,-0.00046594674,-0.0029955646,-0.4309563,-9.524135,2.2361844
0.039093975,4.927305,0.05356486,-0.00046594674,-0.0029955646,-0.4309563,-9.524135,2.2361844
0.039111145,4.927454,0.05036907,-0.00366174,-0.010452416,-0.4261679,-9.495404,2.231396
0.03912849,4.927602,0.05036907,-0.00366174,-0.010452416,-0.4261679,-9.495404,2.231396
0.03911821,4.927749,0.047173277,-0.00366174,-0.016844003,-0.39743748,-9.552865,2.27928
0.039108057,4.927896,0.047173277,-0.00366174,-0.016844003,-0.39743748,-9.552865,2.27928
0.03909656,4.9280405,0.045042746,-0.0025964756,-0.02323559,-0.40222588,-9.543288,2.2505496
0.03908523,4.928185,0.045042746,-0.0025964756,-0.02323559,-0.40222588,-9.543288,2.2505496
0.039073102,4.9283257,0.041846953,-0.0015312112,-0.029627176,-0.41180268,-9.548077,2.2601264
0.039061125,4.928467,0.041846953,-0.0015312112,-0.029627176,-0.41180268,-9.548077,2.2601264
0.039058316,4.9286013,0.037585896,-0.00046594674,-0.036018763,-0.4405331,-9.586384,2.2744915
0.03905575,4.928736,0.037585896,-0.00046594674,-0.036018763,-0.4405331,-9.586384,2.2744915
0.03911576,4.9288445,0.03545537,0.0027298466,-0.037084028,-0.48362875,-9.629479,2.1930888
0.03917613,4.9289527,0.03545537,0.0027298466,-0.037084028,-0.48362875,-9.629479,2.1930888
0.03919944,4.929078,0.034390103,0.008056169,-0.039214555,-0.5315128,-9.639056,2.3415294
0.03922268,4.929201,0.034390103,0.008056169,-0.039214555,-0.5315128,-9.639056,2.3415294
0.03926344,4.929317,0.033324838,0.012317227,-0.039214555,-0.56982,-9.648633,2.327164
0.039304465,4.929433,0.033324838,0.012317227,-0.039214555,-0.56982,-9.648633,2.327164
0.039378736,4.929531,0.033324838,0.01551302,-0.036018763,-0.59855044,-9.653421,2.2601264
0.03945315,4.9296284,0.033324838,0.01551302,-0.036018763,-0.59855044,-9.653421,2.2601264
0.039548807,4.9297123,0.034390103,0.018708814,-0.029627176,-0.6703765,-9.701305,2.2601264
0.039644506,4.929796,0.034390103,0.018708814,-0.029627176,-0.6703765,-9.701305,2.2601264
0.039747585,4.9298816,0.03652063,0.020839343,-0.02323559,-0.7086837,-9.677363,2.2697031
0.0398506,4.9299664,0.03652063,0.020839343,-0.02323559,-0.7086837,-9.677363,2.2697031
0.039965637,4.9300466,0.03865116,0.022969872,-0.016844003,-0.7422025,-9.706094,2.2649148
0.040080626,4.930127,0.03865116,0.022969872,-0.016844003,-0.7422025,-9.706094,2.2649148
0.04019053,4.9302254,0.04291222,0.021904606,-0.010452416,-0.79487497,-9.643845,2.3319526
0.0403003,4.9303236,0.04291222,0.021904606,-0.010452416,-0.79487497,-9.643845,2.3319526
0.040436473,4.930401,0.04823854,0.019774077,-0.0019303001,-0.79487497,-9.648633,2.2266076
0.04057218,4.9304776,0.04823854,0.019774077,-0.0019303001,-0.79487497,-9.648633,2.2266076
0.04070936,4.9305716,0.05356486,0.017643549,0.0065918155,-0.78050977,-9.629479,2.2601264
0.040846795,4.930666,0.05356486,0.017643549,0.0065918155,-0.78050977,-9.629479,2.2601264
0.04098049,4.9307785,0.058891185,0.012317227,0.014048667,-0.80924016,-9.533711,2.3080103
0.041113876,4.930891,0.058891185,0.012317227,0.014048667,-0.80924016,-9.533711,2.3080103
0.041264944,4.930994,0.06315224,0.00592564,0.021505518,-0.81402856,-9.557653,2.2505496
0.04141577,4.931096,0.06315224,0.00592564,0.021505518,-0.81402856,-9.557653,2.2505496
0.041566543,4.93121,0.0674133,-0.00046594674,0.027897105,-0.770933,-9.471462,2.2457612
0.04171742,4.931324,0.0674133,-0.00046594674,0.027897105,-0.770933,-9.471462,2.2457612
0.041881543,4.931427,0.06954383,-0.007922798,0.03428869,-0.7613561,-9.471462,2.1978772
0.0420453,4.9315295,0.06954383,-0.007922798,0.03428869,-0.7613561,-9.471462,2.1978772
0.042209204,4.9316435,0.07167436,-0.014314385,0.040680278,-0.7278373,-9.457097,2.2122424
0.042373266,4.931757,0.07167436,-0.014314385,0.040680278,-0.7278373,-9.457097,2.2122424
0.042540368,4.931873,0.073804885,-0.020705972,0.044941336,-0.6847417,-9.3661175,2.1787236
0.042707633,4.9319887,0.073804885,-0.020705972,0.044941336,-0.6847417,-9.3661175,2.1787236
0.04286829,4.9321184,0.074870154,-0.027097559,0.049202394,-0.6512229,-9.375694,2.2026656
0.043028962,4.9322476,0.074870154,-0.027097559,0.049202394,-0.6512229,-9.375694,2.2026656
0.04315369,4.932408,0.07700068,-0.03455441,0.052398186,-0.5793968,-9.32781,2.255338
0.043278813,4.9325686,0.07700068,-0.03455441,0.052398186,-0.5793968,-9.32781,2.255338
0.043403238,4.9327283,0.075935416,-0.03881547,0.052398186,-0.5602432,-9.332599,2.2361844
0.04352694,4.9328866,0.075935416,-0.03881547,0.052398186,-0.5602432,-9.332599,2.2361844
0.043687128,4.9330187,0.073804885,-0.045207053,0.054528717,-0.5506664,-9.275137,2.1452048
0.043847412,4.9331503,0.073804885,-0.045207053,0.054528717,-0.5506664,-9.275137,2.1452048
0.043932818,4.9333196,0.07167436,-0.04946811,0.05346345,-0.48841715,-9.203311,2.2266076
0.04401858,4.93349,0.07167436,-0.04946811,0.05346345,-0.48841715,-9.203311,2.2266076
0.044136565,4.933644,0.06954383,-0.05372917,0.05026766,-0.49799395,-9.131485,2.1404164
0.044255093,4.9337983,0.06954383,-0.05372917,0.05026766,-0.49799395,-9.131485,2.1404164
0.044282354,4.9339657,0.06421751,-0.05692496,0.04387607,-0.41180268,-9.107543,2.1308396
0.044309232,4.9341326,0.06421751,-0.05692496,0.04387607,-0.41180268,-9.107543,2.1308396
0.04432064,4.9342937,0.05782592,-0.06118602,0.035353955,-0.40222588,-9.040505,2.1404164
0.044331774,4.934455,0.05782592,-0.06118602,0.035353955,-0.40222588,-9.040505,2.1404164
0.044326715,4.9346066,0.05036907,-0.066512346,0.025766576,-0.3878607,-8.959103,2.15957
0.04432152,4.934759,0.05036907,-0.066512346,0.025766576,-0.3878607,-8.959103,2.15957
0.04430539,4.934905,0.04291222,-0.06970814,0.014048667,-0.39264908,-8.973468,2.1452048
0.044289205,4.935051,0.04291222,-0.06970814,0.014048667,-0.39264908,-8.973468,2.1452048
0.044306897,4.935183,0.031194309,-0.07290393,0.0023307577,-0.4309563,-8.90643,2.0973208
0.044324864,4.935315,0.031194309,-0.07290393,0.0023307577,-0.4309563,-8.90643,2.0973208
0.044225033,4.9354243,0.02160693,-0.077164985,-0.008321887,-0.33997664,-8.896853,2.0925324
0.044123694,4.9355354,0.02160693,-0.077164985,-0.008321887,-0.33997664,-8.896853,2.0925324
0.044035815,4.9356422,0.010954284,-0.08249131,-0.018974531,-0.35913026,-8.882488,2.0973208
0.04394912,4.9357486,0.010954284,-0.08249131,-0.018974531,-0.35913026,-8.882488,2.0973208
0.04380761,4.935826,0.00030163955,-0.08462184,-0.029627176,-0.34476504,-8.868123,2.0590134
0.04366678,4.9359035,0.00030163955,-0.08462184,-0.029627176,-0.34476504,-8.868123,2.0590134
0.043468907,4.935889,-0.0114162695,-0.08675237,-0.039214555,-0.31124622,-8.992621,2.0398598
0.043267496,4.935874,-0.0114162695,-0.08675237,-0.039214555,-0.31124622,-8.992621,2.0398598
0.043068845,4.9358797,-0.021003649,-0.08781763,-0.048801936,-0.30645782,-8.987833,2.0590134
0.042866014,4.9358854,-0.021003649,-0.08781763,-0.048801936,-0.30645782,-8.987833,2.0590134
0.042652722,4.9358563,-0.031656295,-0.08888289,-0.05519352,-0.29209262,-8.99741,2.0446482
0.04243925,4.9358277,-0.031656295,-0.08888289,-0.05519352,-0.29209262,-8.99741,2.0446482
0.042220082,4.935767,-0.041243672,-0.091013424,-0.06371564,-0.2681506,-9.050082,2.0350714
0.04200127,4.935706,-0.041243672,-0.091013424,-0.06371564,-0.2681506,-9.050082,2.0350714
0.04179237,4.935609,-0.049765788,-0.091013424,-0.06904196,-0.25857377,-9.107543,2.0111294
0.041583877,4.9355116,-0.049765788,-0.091013424,-0.06904196,-0.25857377,-9.107543,2.0111294
0.041354433,4.9354687,-0.057222642,-0.08888289,-0.07223775,-0.23463176,-9.121908,2.0829554
0.041123692,4.935426,-0.057222642,-0.08888289,-0.07223775,-0.23463176,-9.121908,2.0829554
0.04089337,4.9353437,-0.062548965,-0.08781763,-0.077564076,-0.22505496,-9.179369,2.054225
0.04066203,4.9352617,-0.062548965,-0.08781763,-0.077564076,-0.22505496,-9.179369,2.054225
0.040423013,4.9352055,-0.07000581,-0.08675237,-0.0828904,-0.22984336,-9.241618,2.1068976
0.040184088,4.935149,-0.07000581,-0.08675237,-0.0828904,-0.22984336,-9.241618,2.1068976
0.039940484,4.9350686,-0.075332135,-0.0856871,-0.08715145,-0.19153613,-9.26556,2.087744
0.03969732,4.9349885,-0.075332135,-0.0856871,-0.08715145,-0.19153613,-9.26556,2.087744
0.039452743,4.934906,-0.0795932,-0.08249131,-0.08821672,-0.19632454,-9.299079,2.0973208
0.03920787,4.934823,-0.0795932,-0.08249131,-0.08821672,-0.19632454,-9.299079,2.0973208
0.038971096,4.9346895,-0.08172372,-0.079295516,-0.09034725,-0.25857377,-9.337387,2.0638018
0.038746838,4.934563,-0.08172372,-0.079295516,-0.09034725,-0.25857377,-9.337387,2.0638018
0.038509637,4.93446,-0.08278899,-0.077164985,-0.09034725,-0.20590134,-9.332599,2.078167
0.038269367,4.934356,-0.08278899,-0.077164985,-0.09034725,-0.20590134,-9.332599,2.078167
0.038045745,4.9342194,-0.08491952,-0.07503446,-0.09034725,-0.22026655,-9.452309,2.0638018
0.037822172,4.934083,-0.08491952,-0.07503446,-0.09034725,-0.22026655,-9.452309,2.0638018
0.037578158,4.934005,-0.08385425,-0.07290393,-0.09034725,-0.21068975,-9.437943,2.1308396
0.037333895,4.933926,-0.08385425,-0.07290393,-0.09034725,-0.21068975,-9.437943,2.1308396
0.03699035,4.933827,-0.08385425,-0.06864287,-0.08928198,-0.22505496,-9.44752,2.1404164
0.03684303,4.9337854,-0.08385425,-0.06864287,-0.08928198,-0.22505496,-9.44752,2.1404164
0.036575135,4.9337006,-0.08065846,-0.06331655,-0.08608619,-0.20590134,-9.490616,2.1404164
0.036575135,4.9337006,-0.08065846,-0.06331655,-0.08608619,-0.20590134,-9.490616,2.1404164
0.036575135,4.9337006,-0.08065846,-0.06331655,-0.08608619,-0.20590134,-9.490616,2.1404164
0.035750404,4.933469,-0.07426687,-0.051598642,-0.078629345,-0.2633622,-9.5385,2.1930888
0.035700258,4.933466,-0.07426687,-0.051598642,-0.078629345,-0.2633622,-9.5385,2.1930888
0.035465665,4.9334517,-0.07426687,-0.051598642,-0.078629345,-0.2633622,-9.5385,2.1930888
0.035276838,4.933394,-0.07107108,-0.045207053,-0.075433545,-0.20111294,-9.5385,2.1452048
0.035055183,4.9333267,-0.07107108,-0.045207053,-0.075433545,-0.20111294,-9.5385,2.1452048
0.03484106,4.9332585,-0.06681002,-0.037750203,-0.0679767,-0.21068975,-9.581595,2.1499932
0.034627337,4.9331913,-0.06681002,-0.037750203,-0.0679767,-0.21068975,-9.581595,2.1499932
0.034434423,4.933172,-0.062548965,-0.03242388,-0.060519844,-0.21547815,-9.576807,2.1930888
0.034243286,4.9331536,-0.062548965,-0.03242388,-0.060519844,-0.21547815,-9.576807,2.1930888
0.03405031,4.9331284,-0.058287904,-0.02496703,-0.056258786,-0.21547815,-9.634268,2.1930888
0.033858262,4.9331036,-0.058287904,-0.02496703,-0.056258786,-0.21547815,-9.634268,2.1930888
0.0336799,4.9330983,-0.05189632,-0.018575443,-0.05199773,-0.16280572,-9.610326,2.2218192
