Pitch,Roll,Gyro_X,Gyro_Y,Gyro_Z,Accel_X,Accel_Y,Accel_Z
0.6128546,4.3470774,0.057836488,0.09228889,0.41321397,-0.4357447,-9.734824,1.5945383
0.61316717,4.347056,0.057836488,0.09228889,0.41321397,-0.4357447,-9.734824,1.5945383
0.61345357,4.3470407,0.06103228,0.09122362,0.41108343,-0.45010993,-9.739613,1.6472107
0.6137161,4.347026,0.06103228,0.09122362,0.41108343,-0.45010993,-9.739613,1.6472107
0.6139981,4.3470154,0.06529334,0.09122362,0.41001818,-0.51235914,-9.710882,1.5945383
0.614282,4.347005,0.06529334,0.09122362,0.41001818,-0.51235914,-9.710882,1.5945383
0.61456704,4.3469977,0.069554396,0.09228889,0.41108343,-0.5410896,-9.720459,1.5993267
0.6148566,4.3469896,0.069554396,0.09228889,0.41108343,-0.5410896,-9.720459,1.5993267
0.6151466,4.346986,0.07381546,0.09335415,0.41214868,-0.545878,-9.68694,1.6184803
0.61543,4.3469815,0.07381546,0.09335415,0.41214868,-0.545878,-9.68694,1.6184803
0.6157188,4.3469806,0.07807651,0.09335415,0.41427922,-0.60333884,-9.619903,1.5179238
0.6160077,4.34698,0.07807651,0.09335415,0.41427922,-0.60333884,-9.619903,1.5179238
0.6163047,4.346981,0.081272304,0.09441942,0.41747501,-0.60812724,-9.576807,1.5705963
0.6165935,4.3469825,0.081272304,0.09441942,0.41747501,-0.60812724,-9.576807,1.5705963
0.61688685,4.346983,0.08233757,0.09548468,0.4206708,-0.6464345,-9.634268,1.508347
0.61718076,4.3469834,0.08233757,0.09548468,0.4206708,-0.6464345,-9.634268,1.508347
0.61747986,4.346984,0.083402835,0.09548468,0.42493185,-0.61770403,-9.610326,1.5945383
0.61777836,4.346984,0.083402835,0.09548468,0.42493185,-0.61770403,-9.610326,1.5945383
0.61808085,4.346984,0.083402835,0.09548468,0.4270624,-0.6368576,-9.629479,1.5514427
0.6183809,4.346983,0.083402835,0.09548468,0.4270624,-0.6368576,-9.629479,1.5514427
0.6186837,4.346983,0.0844681,0.09548468,0.42919293,-0.59376204,-9.648633,1.6041151
0.6189869,4.3469825,0.0844681,0.09548468,0.42919293,-0.59376204,-9.648633,1.6041151
0.61929095,4.346984,0.085533366,0.09441942,0.43025818,-0.59376204,-9.581595,1.6280571
0.619596,4.346985,0.085533366,0.09441942,0.43025818,-0.59376204,-9.581595,1.6280571
0.6199014,4.346988,0.0876639,0.09335415,0.43132347,-0.58897364,-9.610326,1.5849615
0.62020606,4.3469915,0.0876639,0.09335415,0.43132347,-0.58897364,-9.610326,1.5849615
0.6205149,4.3469987,0.08979442,0.09015836,0.43238872,-0.5793968,-9.610326,1.661576
0.6208244,4.3470063,0.08979442,0.09015836,0.43238872,-0.5793968,-9.610326,1.661576
0.6211349,4.3470173,0.09192495,0.086962566,0.43345398,-0.61291564,-9.629479,1.6184803
0.621444,4.3470287,0.09192495,0.086962566,0.43345398,-0.61291564,-9.629479,1.6184803
0.62175536,4.347042,0.09299022,0.084832035,0.43451926,-0.63206923,-9.605537,1.6184803
0.62207425,4.3470554,0.09299022,0.084832035,0.43451926,-0.63206923,-9.605537,1.6184803
0.62238085,4.3470716,0.09512074,0.082701504,0.43558452,-0.6368576,-9.605537,1.5945383
0.6226943,4.347088,0.09512074,0.082701504,0.43558452,-0.6368576,-9.605537,1.5945383
0.62300783,4.347106,0.09618601,0.08057098,0.43558452,-0.63206923,-9.552865,1.5275006
0.6233215,4.347124,0.09618601,0.08057098,0.43558452,-0.63206923,-9.552865,1.5275006
0.6236371,4.347143,0.09512074,0.07844045,0.43664977,-0.6464345,-9.466674,1.6089035
0.6239543,4.347162,0.09512074,0.07844045,0.43664977,-0.6464345,-9.466674,1.6089035
0.6242706,4.3471813,0.09618601,0.07844045,0.43771505,-0.6655881,-9.481039,1.5514427
0.6245878,4.3472004,0.09618601,0.07844045,0.43771505,-0.6655881,-9.481039,1.5514427
0.6249086,4.347221,0.09725127,0.07737519,0.44091085,-0.6943185,-9.44752,1.6328455
0.62523013,4.3472414,0.09725127,0.07737519,0.44091085,-0.6943185,-9.44752,1.6328455
0.6255526,4.3472614,0.09618601,0.07524466,0.4419761,-0.6607997,-9.41879,1.6136919
0.6258763,4.347282,0.09618601,0.07524466,0.4419761,-0.6607997,-9.41879,1.6136919
0.62619865,4.3472986,0.09299022,0.07524466,0.4419761,-0.6751649,-9.399636,1.5897499
0.6265205,4.347316,0.09299022,0.07524466,0.4419761,-0.6751649,-9.399636,1.5897499
0.62684447,4.3473268,0.08872916,0.07524466,0.44304135,-0.62249243,-9.323022,1.5466543
0.6271672,4.3473387,0.08872916,0.07524466,0.44304135,-0.62249243,-9.323022,1.5466543
0.6274879,4.3473463,0.0844681,0.07630992,0.43984556,-0.6464345,-9.3661175,1.6328455
0.62781,4.347354,0.0844681,0.07630992,0.43984556,-0.6464345,-9.3661175,1.6328455
0.6281292,4.34736,0.08020704,0.07311413,0.43771505,-0.6847417,-9.337387,1.6136919
0.628448,4.3473663,0.08020704,0.07311413,0.43771505,-0.6847417,-9.337387,1.6136919
0.628762,4.3473673,0.07381546,0.072048865,0.43238872,-0.63206923,-9.299079,1.541866
0.6290758,4.3473687,0.07381546,0.072048865,0.43238872,-0.63206923,-9.299079,1.541866
0.6293826,4.3473673,0.067423865,0.069918334,0.4238666,-0.62249243,-9.232041,1.5801731
0.6296903,4.347365,0.067423865,0.069918334,0.4238666,-0.62249243,-9.232041,1.5801731
0.6299921,4.3473577,0.05996702,0.069918334,0.41747501,-0.641646,-9.217676,1.6136919
0.6302941,4.3473506,0.05996702,0.069918334,0.41747501,-0.641646,-9.217676,1.6136919
0.63058865,4.347337,0.052510165,0.070983596,0.41001818,-0.6607997,-9.14585,1.5705963
0.630883,4.347323,0.052510165,0.070983596,0.41001818,-0.6607997,-9.14585,1.5705963
0.63116944,4.347301,0.042922787,0.070983596,0.4025613,-0.6751649,-9.169792,1.5179238
0.6314571,4.3472795,0.042922787,0.070983596,0.4025613,-0.6751649,-9.169792,1.5179238
0.63173604,4.3472533,0.03440067,0.06885307,0.3940392,-0.7038953,-9.14585,1.5514427
0.6320175,4.3472266,0.03440067,0.06885307,0.3940392,-0.7038953,-9.14585,1.5514427
0.63228977,4.347196,0.025878556,0.06565727,0.3855171,-0.6847417,-9.160215,1.5753847
0.63256335,4.347165,0.025878556,0.06565727,0.3855171,-0.6847417,-9.160215,1.5753847
0.63282895,4.347131,0.016291175,0.06139622,0.3759297,-0.7134721,-9.184157,1.5705963
0.63309515,4.3470955,0.016291175,0.06139622,0.3759297,-0.7134721,-9.184157,1.5705963
0.6333504,4.347056,0.0056385305,0.05713516,0.3642118,-0.6895301,-9.193734,1.5131354
0.63360614,4.3470154,0.0056385305,0.05713516,0.3642118,-0.6895301,-9.193734,1.5131354
0.63385385,4.3469715,-0.0028835852,0.05393937,0.35568967,-0.7134721,-9.188946,1.4460979
0.6341846,4.3469124,-0.0028835852,0.05393937,0.35568967,-0.7134721,-9.188946,1.4460979
0.63434815,4.346879,-0.012470965,0.04967831,0.34716755,-0.7086837,-9.222465,1.5035586
0.63459164,4.34683,-0.012470965,0.04967831,0.34716755,-0.7086837,-9.222465,1.5035586
0.63482267,4.346779,-0.022058345,0.044351988,0.33651492,-0.7278373,-9.227253,1.4748282
0.6350556,4.346727,-0.022058345,0.044351988,0.33651492,-0.7278373,-9.227253,1.4748282
0.6352839,4.346672,-0.030580461,0.04009093,0.3279928,-0.7469909,-9.232041,1.532289
0.6355121,4.3466167,-0.030580461,0.04009093,0.3279928,-0.7469909,-9.232041,1.532289
0.63573486,4.3465595,-0.03803731,0.034764607,0.32053596,-0.7230489,-9.275137,1.5227122
0.6359572,4.3465023,-0.03803731,0.034764607,0.32053596,-0.7230489,-9.275137,1.5227122
0.63617676,4.346442,-0.04549416,0.029438285,0.31520963,-0.6655881,-9.246407,1.532289
0.63639605,4.3463817,-0.04549416,0.029438285,0.31520963,-0.6655881,-9.246407,1.532289
0.636611,4.34632,-0.052951016,0.023046698,0.30881804,-0.6607997,-9.23683,1.4700398
0.6368259,4.3462577,-0.052951016,0.023046698,0.30881804,-0.6607997,-9.23683,1.4700398
0.6370326,4.3461924,-0.060407866,0.019850904,0.30029592,-0.6464345,-9.289502,1.3934253
0.63723916,4.346127,-0.060407866,0.019850904,0.30029592,-0.6464345,-9.289502,1.3934253
0.63744235,4.346059,-0.06999525,0.013459318,0.29283908,-0.59855044,-9.299079,1.5131354
0.63764584,4.3459897,-0.06999525,0.013459318,0.29283908,-0.59855044,-9.299079,1.5131354
0.637843,4.3459196,-0.07638683,0.0091982605,0.2853822,-0.61291564,-9.32781,1.4556746
0.6380398,4.3458495,-0.07638683,0.0091982605,0.2853822,-0.61291564,-9.32781,1.4556746
0.63823307,4.3457756,-0.08490895,0.0049372027,0.27899063,-0.59855044,-9.332599,1.5275006
0.63842666,4.345701,-0.08490895,0.0049372027,0.27899063,-0.59855044,-9.332599,1.5275006
0.63842666,4.345701,-0.09130053,0.0006761446,0.2715338,-0.56982,-9.394848,1.5658079
0.6388016,4.3455505,-0.09130053,0.0006761446,0.2715338,-0.56982,-9.394848,1.5658079
0.63907826,4.3454366,-0.094496325,-0.0035849132,0.2651422,-0.47884035,-9.394848,1.532289
0.63917726,4.3453956,-0.094496325,-0.0035849132,0.2651422,-0.47884035,-9.394848,1.532289
0.6393505,4.3453226,-0.098757386,-0.0067807063,0.25981587,-0.48841715,-9.375694,1.5753847
0.63952786,4.345248,-0.098757386,-0.0067807063,0.25981587,-0.48841715,-9.375694,1.5753847
0.63970053,4.3451734,-0.10088792,-0.008911235,0.2534243,-0.45968673,-9.481039,1.532289
0.6398735,4.345099,-0.10088792,-0.008911235,0.2534243,-0.45968673,-9.481039,1.532289
0.6401,4.344992,-0.10514897,-0.008911235,0.2470327,-0.4165911,-9.495404,1.4796166
0.6402119,4.3449397,-0.10514897,-0.008911235,0.2470327,-0.4165911,-9.495404,1.4796166
0.64037347,4.3448596,-0.1072795,-0.007845971,0.24277164,-0.40701428,-9.533711,1.4748282
0.64037347,4.3448596,-0.1072795,-0.007845971,0.24277164,-0.40701428,-9.533711,1.4748282
0.6407526,4.3446717,-0.10621424,-0.0067807063,0.23957585,-0.40222588,-9.624691,1.5227122
0.64094067,4.3445735,-0.10621424,-0.0046501774,0.2353148,-0.33518824,-9.634268,1.4508862
0.6410053,4.3445396,-0.10621424,-0.0046501774,0.2353148,-0.33518824,-9.634268,1.4508862
0.6411591,4.344459,-0.10621424,-0.0046501774,0.2353148,-0.33518824,-9.634268,1.4508862
0.641381,4.344337,-0.10621424,-0.0014543843,0.232119,-0.29688102,-9.749189,1.5131354
0.64145494,4.3442965,-0.10621424,-0.0014543843,0.232119,-0.29688102,-9.749189,1.5131354
0.641595,4.3442163,-0.10514897,0.0017414091,0.22785795,-0.24899697,-9.80665,1.4891934
0.6417353,4.3441353,-0.10514897,0.0017414091,0.22785795,-0.24899697,-9.80665,1.4891934
0.6418692,4.344056,-0.10195318,0.006002467,0.22146636,-0.21547815,-9.907207,1.5035586
0.6418692,4.344056,-0.10195318,0.006002467,0.22146636,-0.21547815,-9.907207,1.5035586
0.64213926,4.3438954,-0.096626855,0.010263525,0.21507478,-0.18674773,-9.974244,1.5897499
0.64229393,4.343804,-0.096626855,0.010263525,0.21507478,-0.18674773,-9.974244,1.5897499
0.64248335,4.343684,-0.0923658,0.015589847,0.20548739,-0.1436521,-10.04607,1.5705963
0.64251256,4.343666,-0.0923658,0.015589847,0.20548739,-0.1436521,-10.04607,1.5705963
0.64260954,4.3436055,-0.08490895,0.019850904,0.19483474,-0.15801731,-10.146626,1.6280571
0.64271545,4.343539,-0.08490895,0.019850904,0.19483474,-0.15801731,-10.146626,1.6280571
0.64271545,4.343539,-0.08490895,0.019850904,0.19483474,-0.15801731,-10.146626,1.6280571
0.6429359,4.3434086,-0.07638683,0.023046698,0.1873779,-0.12449849,-10.218452,1.6424223
0.64301085,4.3433676,-0.065734185,0.02837302,0.17992105,-0.14844051,-10.204087,1.6328455
0.64309764,4.34332,-0.065734185,0.02837302,0.17992105,-0.14844051,-10.204087,1.6328455
0.6432043,4.34327,-0.054016277,0.03263408,0.17459472,-0.20590134,-10.247183,1.6089035
0.64326185,4.343243,-0.054016277,0.03263408,0.17459472,-0.20590134,-10.247183,1.6089035
0.64334387,4.3432155,-0.041233107,0.036895137,0.17033367,-0.31124622,-10.199299,1.6998832
0.643421,4.3431892,-0.041233107,0.036895137,0.17033367,-0.31124622,-10.199299,1.6998832
0.643421,4.3431892,-0.029515196,0.043286722,0.17139892,-0.37828386,-10.19451,1.6759412
0.6435721,4.3431516,-0.029515196,0.043286722,0.17139892,-0.37828386,-10.19451,1.6759412
0.64365536,4.3431387,-0.017797288,0.04967831,0.17672525,-0.49320555,-10.132261,1.661576
0.64365536,4.3431387,-0.017797288,0.04967831,0.17672525,-0.49320555,-10.132261,1.661576
0.6438265,4.3431134,-0.0039488496,0.05713516,0.1841821,-0.60812724,-10.113108,1.5705963
0.6439007,4.3431087,-0.0039488496,0.05713516,0.1841821,-0.60812724,-10.113108,1.5705963
0.6439909,4.3431087,0.009899588,0.06459201,0.19590001,-0.6751649,-9.974244,1.4987702
0.64408183,4.3431087,0.009899588,0.06459201,0.19590001,-0.6751649,-9.974244,1.4987702
0.64426374,4.343121,0.023748025,0.06885307,0.21187897,-0.7182605,-9.907207,1.5658079
0.64428896,4.3431225,0.023748025,0.06885307,0.21187897,-0.7182605,-9.907207,1.5658079
0.6444175,4.3431344,0.035465933,0.07311413,0.2289232,-0.7613561,-9.883265,1.5897499
0.64465237,4.343159,0.047183845,0.07950571,0.2470327,-0.80445176,-9.80665,1.5658079
0.6446929,4.343163,0.047183845,0.07950571,0.2470327,-0.80445176,-9.80665,1.5658079
0.64482796,4.343177,0.047183845,0.07950571,0.2470327,-0.80445176,-9.80665,1.5658079
0.64498174,4.343193,0.057836488,0.084832035,0.26620746,-0.8475474,-9.744401,1.5945383
0.64513505,4.3432093,0.057836488,0.084832035,0.26620746,-0.8475474,-9.744401,1.5945383
0.64530736,4.343227,0.067423865,0.09015836,0.2853822,-0.8571242,-9.720459,1.661576
0.64530736,4.343227,0.067423865,0.09015836,0.2853822,-0.8571242,-9.720459,1.661576
0.64580536,4.3432784,0.07701125,0.09441942,0.30242646,-0.91458505,-9.691729,1.5801731
0.6460588,4.3433046,0.0844681,0.09654994,0.31840542,-0.8858546,-9.653421,1.6472107
0.646257,4.3433256,0.0844681,0.09654994,0.31840542,-0.8858546,-9.653421,1.6472107
0.646257,4.3433256,0.0844681,0.09654994,0.31840542,-0.8858546,-9.653421,1.6472107
0.6465119,4.3433533,0.09192495,0.09761521,0.33331913,-0.91458505,-9.667787,1.6089035
0.6466897,4.343373,0.09192495,0.09761521,0.33331913,-0.91458505,-9.667787,1.6089035
0.6469116,4.3433957,0.098316535,0.099745736,0.35036334,-0.94810385,-9.639056,1.6663644
0.6471386,4.3434196,0.098316535,0.099745736,0.35036334,-0.94810385,-9.639056,1.6663644
0.64738184,4.3434443,0.10364286,0.099745736,0.36634234,-1.0199299,-9.667787,1.6519991
0.64762515,4.3434696,0.10364286,0.099745736,0.36634234,-1.0199299,-9.667787,1.6519991
0.64788306,4.343496,0.11109971,0.10187627,0.3823213,-1.0247183,-9.672575,1.6424223
0.64814067,4.3435225,0.11109971,0.10187627,0.3823213,-1.0247183,-9.672575,1.6424223
0.64841396,4.3435516,0.11855656,0.102941535,0.397235,-1.067814,-9.653421,1.6950948
0.64868593,4.343581,0.11855656,0.102941535,0.397235,-1.067814,-9.653421,1.6950948
0.64897317,4.3436136,0.12494815,0.10187627,0.41321397,-1.1300632,-9.619903,1.6472107
0.64926016,4.343646,0.12494815,0.10187627,0.41321397,-1.1300632,-9.619903,1.6472107
0.6495609,4.3436813,0.132405,0.10187627,0.42812765,-1.1300632,-9.610326,1.6184803
0.6498619,4.3437166,0.132405,0.10187627,0.42812765,-1.1300632,-9.610326,1.6184803
0.65017974,4.3437533,0.13773133,0.100811005,0.4451719,-1.13964,-9.576807,1.6519991
0.6504977,4.34379,0.13773133,0.100811005,0.4451719,-1.13964,-9.576807,1.6519991
0.6508319,4.343829,0.14305764,0.09761521,0.46221614,-1.0773908,-9.548077,1.6424223
0.65116626,4.3438683,0.14305764,0.09761521,0.46221614,-1.0773908,-9.548077,1.6424223
0.6515155,4.34391,0.1473187,0.09335415,0.47712982,-1.0007763,-9.528923,1.661576
0.6518652,4.3439517,0.1473187,0.09335415,0.47712982,-1.0007763,-9.528923,1.661576
0.6522269,4.3439965,0.1505145,0.08802783,0.48884773,-0.93852705,-9.514558,1.6328455
0.6525885,4.344041,0.1505145,0.08802783,0.48884773,-0.93852705,-9.514558,1.6328455
0.65296197,4.344086,0.1505145,0.082701504,0.4995004,-0.8571242,-9.485827,1.6903064
0.6533357,4.344131,0.1505145,0.082701504,0.4995004,-0.8571242,-9.485827,1.6903064
0.65371704,4.3441753,0.14944923,0.07844045,0.50695723,-0.79008657,-9.5385,1.6807296
0.6540984,4.344219,0.14944923,0.07844045,0.50695723,-0.79008657,-9.5385,1.6807296
0.6544838,4.3442636,0.14944923,0.07524466,0.5112183,-0.7374141,-9.543288,1.6472107
0.65487015,4.344308,0.14944923,0.07524466,0.5112183,-0.7374141,-9.543288,1.6472107
0.65525955,4.3443527,0.14944923,0.07311413,0.5144141,-0.6703765,-9.591172,1.6903064
0.6556484,4.344397,0.14944923,0.07311413,0.5144141,-0.6703765,-9.591172,1.6903064
0.65603924,4.3444395,0.14838398,0.07311413,0.51654464,-0.6607997,-9.557653,1.6519991
0.6564299,4.3444815,0.14838398,0.07311413,0.51654464,-0.6607997,-9.557653,1.6519991
0.65682137,4.3445215,0.1473187,0.07417939,0.5176099,-0.61291564,-9.600749,1.6663644
0.6572125,4.344561,0.1473187,0.07417939,0.5176099,-0.61291564,-9.600749,1.6663644
0.65760386,4.3445973,0.1473187,0.07737519,0.5197404,-0.5650316,-9.543288,1.6232687
0.6579951,4.344633,0.1473187,0.07737519,0.5197404,-0.5650316,-9.543288,1.6232687
0.65838593,4.3446665,0.1473187,0.08163624,0.5197404,-0.6464345,-9.533711,1.6711528
0.6587768,4.3447003,0.1473187,0.08163624,0.5197404,-0.6464345,-9.533711,1.6711528
0.6591663,4.344727,0.14518817,0.086962566,0.52080566,-0.62728083,-9.481039,1.6663644
0.65955603,4.3447537,0.14518817,0.086962566,0.52080566,-0.62728083,-9.481039,1.6663644
0.6599458,4.344775,0.14305764,0.09122362,0.5218709,-0.7134721,-9.437943,1.6519991
0.660336,4.3447967,0.14305764,0.09122362,0.5218709,-0.7134721,-9.437943,1.6519991
0.66072774,4.34481,0.13879658,0.09548468,0.52506673,-0.7230489,-9.399636,1.7142484
0.66127455,4.3448286,0.13879658,0.09548468,0.52506673,-0.7230489,-9.399636,1.7142484
0.6615271,4.3448334,0.13560079,0.098680474,0.52506673,-0.7469909,-9.356541,1.6376339
0.6619165,4.3448405,0.13560079,0.098680474,0.52506673,-0.7469909,-9.356541,1.6376339
0.66229385,4.344841,0.13027447,0.100811005,0.526132,-0.80445176,-9.370906,1.6328455
0.6626822,4.344841,0.13027447,0.100811005,0.526132,-0.80445176,-9.370906,1.6328455
0.66307396,4.344835,0.12388288,0.100811005,0.52719724,-0.8762778,-9.394848,1.6424223
0.66346693,4.3448286,0.12388288,0.100811005,0.52719724,-0.8762778,-9.394848,1.6424223
0.66385746,4.344817,0.1174913,0.098680474,0.526132,-0.8523358,-9.370906,1.5705963
0.66424775,4.3448057,0.1174913,0.098680474,0.526132,-0.8523358,-9.370906,1.5705963
0.66463834,4.34479,0.11109971,0.09548468,0.52506673,-0.81881696,-9.380483,1.5993267
0.66502947,4.344774,0.11109971,0.09548468,0.52506673,-0.81881696,-9.380483,1.5993267
0.66541874,4.344754,0.10470813,0.09122362,0.5240015,-0.7469909,-9.351752,1.5179238
0.66580874,4.344734,0.10470813,0.09122362,0.5240015,-0.7469909,-9.351752,1.5179238
0.6661981,4.3447094,0.099381804,0.09015836,0.5229362,-0.7134721,-9.356541,1.5275006
0.6665877,4.344685,0.099381804,0.09015836,0.5229362,-0.7134721,-9.356541,1.5275006
0.6669762,4.3446546,0.09192495,0.08802783,0.52080566,-0.6943185,-9.356541,1.5514427
0.66735834,4.3446245,0.09192495,0.08802783,0.52080566,-0.6943185,-9.356541,1.5514427
0.66774505,4.3445897,0.0844681,0.084832035,0.5176099,-0.6560113,-9.385271,1.5466543
0.66813624,4.344554,0.0844681,0.084832035,0.5176099,-0.6560113,-9.385271,1.5466543
0.66851574,4.3445134,0.07594599,0.082701504,0.510153,-0.61291564,-9.399636,1.5562311
0.66889495,4.3444724,0.07594599,0.082701504,0.510153,-0.61291564,-9.399636,1.5562311
0.6692668,4.344429,0.069554396,0.08057098,0.5016309,-0.60333884,-9.461885,1.5562311
0.669639,4.3443856,0.069554396,0.08057098,0.5016309,-0.60333884,-9.461885,1.5562311
0.67000234,4.34434,0.062097546,0.07737519,0.489913,-0.5506664,-9.519346,1.6567876
0.6703649,4.3442945,0.062097546,0.07737519,0.489913,-0.5506664,-9.519346,1.6567876
0.67071533,4.344245,0.054640695,0.07630992,0.47712982,-0.5267244,-9.524135,1.5801731
0.6710657,4.3441954,0.054640695,0.07630992,0.47712982,-0.5267244,-9.524135,1.5801731
0.6714061,4.3441463,0.04824911,0.07311413,0.46434665,-0.59376204,-9.562442,1.6376339
0.6717465,4.344097,0.04824911,0.07311413,0.46434665,-0.59376204,-9.562442,1.6376339
0.67207366,4.3440447,0.041857522,0.07311413,0.45049822,-0.5793968,-9.572019,1.6041151
0.67240053,4.343992,0.041857522,0.07311413,0.45049822,-0.5793968,-9.572019,1.6041151
0.6727146,4.343936,0.035465933,0.07524466,0.43771505,-0.63206923,-9.605537,1.5801731
0.6730288,4.3438787,0.035465933,0.07524466,0.43771505,-0.63206923,-9.605537,1.5801731
0.6733338,4.3438177,0.029074349,0.07630992,0.42812765,-0.63206923,-9.595961,1.5945383
0.67363876,4.343756,0.029074349,0.07630992,0.42812765,-0.63206923,-9.595961,1.5945383
0.6739366,4.3436923,0.022682762,0.07524466,0.41960555,-0.6751649,-9.605537,1.6184803
0.6742344,4.343628,0.022682762,0.07524466,0.41960555,-0.6751649,-9.605537,1.6184803
0.6745267,4.343562,0.01735644,0.07311413,0.41214868,-0.7038953,-9.576807,1.6424223
0.6748186,4.3434963,0.01735644,0.07311413,0.41214868,-0.7038953,-9.576807,1.6424223
0.6751061,4.3434277,0.013095382,0.07311413,0.40682238,-0.6847417,-9.548077,1.6424223
0.67539316,4.343359,0.013095382,0.07311413,0.40682238,-0.6847417,-9.548077,1.6424223
0.675675,4.343289,0.010964853,0.07311413,0.4025613,-0.6991069,-9.56723,1.5610195
0.6759575,4.343219,0.010964853,0.07311413,0.4025613,-0.6991069,-9.56723,1.5610195
0.6762358,4.3431463,0.0077690594,0.072048865,0.3993655,-0.6607997,-9.543288,1.5131354
0.6765148,4.343074,0.0077690594,0.072048865,0.3993655,-0.6607997,-9.543288,1.5131354
0.6767911,4.3430023,0.0056385305,0.069918334,0.39616972,-0.6607997,-9.481039,1.508347
0.67706776,4.3429303,0.0056385305,0.069918334,0.39616972,-0.6607997,-9.481039,1.508347
0.6773417,4.342858,0.004573266,0.069918334,0.39297393,-0.6703765,-9.476251,1.5370775
0.6776155,4.342786,0.004573266,0.069918334,0.39297393,-0.6703765,-9.476251,1.5370775
0.677886,4.3427124,0.0013774727,0.06885307,0.38871288,-0.6655881,-9.533711,1.5658079
0.6781566,4.3426385,0.0013774727,0.06885307,0.38871288,-0.6655881,-9.533711,1.5658079
0.67842096,4.3425617,-0.0018183207,0.069918334,0.38338655,-0.59376204,-9.495404,1.5275006
0.6786852,4.342485,-0.0018183207,0.069918334,0.38338655,-0.59376204,-9.495404,1.5275006
0.67894256,4.342407,-0.005014114,0.069918334,0.3759297,-0.58897364,-9.533711,1.5466543
0.6791998,4.342329,-0.005014114,0.069918334,0.3759297,-0.58897364,-9.533711,1.5466543
0.6794509,4.3422503,-0.009275172,0.0677878,0.36847284,-0.5650316,-9.485827,1.5610195
0.6799637,4.3420877,-0.01353623,0.06459201,0.35888547,-0.5363012,-9.533711,1.5897499
0.6799637,4.3420877,-0.01353623,0.06459201,0.35888547,-0.5363012,-9.533711,1.5897499
0.68020153,4.3420115,-0.01353623,0.06459201,0.35888547,-0.5363012,-9.533711,1.5897499
0.68045473,4.3419275,-0.017797288,0.062461484,0.34716755,-0.50757074,-9.624691,1.6184803
0.68045473,4.3419275,-0.017797288,0.062461484,0.34716755,-0.50757074,-9.624691,1.6184803
0.6808883,4.3417754,-0.022058345,0.06139622,0.33651492,-0.47405192,-9.653421,1.5897499
0.6811152,4.3416953,-0.022058345,0.06139622,0.33651492,-0.47405192,-9.653421,1.5897499
0.68153256,4.341539,-0.025254138,0.062461484,0.3258623,-0.48362875,-9.710882,1.5705963
0.68153256,4.341539,-0.025254138,0.062461484,0.3258623,-0.48362875,-9.710882,1.5705963
0.68186945,4.3414106,-0.027384669,0.062461484,0.31627488,-0.51235914,-9.696517,1.6759412
0.6819373,4.3413844,-0.027384669,0.062461484,0.31627488,-0.51235914,-9.696517,1.6759412
0.6821305,4.3413086,-0.028449932,0.062461484,0.3077528,-0.5315128,-9.758766,1.6232687
0.6823796,4.3412104,-0.028449932,0.062461484,0.3077528,-0.5315128,-9.758766,1.6232687
0.68256813,4.3411317,-0.027384669,0.070983596,0.3013612,-0.5746084,-9.797073,1.6041151
0.68256813,4.3411317,-0.027384669,0.070983596,0.3013612,-0.5746084,-9.797073,1.6041151
0.68256813,4.3411317,-0.027384669,0.070983596,0.3013612,-0.5746084,-9.797073,1.6041151
0.68315774,4.340877,-0.027384669,0.070983596,0.3013612,-0.5746084,-9.797073,1.6041151
0.68328166,4.3408227,-0.026319403,0.07417939,0.3013612,-0.60333884,-9.782708,1.6567876
0.68347216,4.3407393,-0.026319403,0.07417939,0.3013612,-0.60333884,-9.782708,1.6567876
0.68365294,4.340658,-0.024188874,0.07737519,0.30242646,-0.60812724,-9.749189,1.5514427
0.6838356,4.340576,-0.024188874,0.07737519,0.30242646,-0.60812724,-9.749189,1.5514427
0.6840259,4.3404875,-0.02312361,0.082701504,0.304557,-0.59855044,-9.80665,1.5849615
0.6842148,4.3403993,-0.02312361,0.082701504,0.304557,-0.59855044,-9.80665,1.5849615
0.6844006,4.340313,-0.019927816,0.085897304,0.30881804,-0.61291564,-9.792285,1.5658079
0.6845874,4.3402267,-0.019927816,0.085897304,0.30881804,-0.61291564,-9.792285,1.5658079
0.68476987,4.3401427,-0.016732022,0.08802783,0.31094858,-0.56982,-9.830592,1.5514427
0.6849568,4.340057,-0.016732022,0.08802783,0.31094858,-0.56982,-9.830592,1.5514427
0.68514454,4.339971,-0.012470965,0.09228889,0.31414437,-0.5554548,-9.854534,1.5753847
0.6853348,4.3398843,-0.012470965,0.09228889,0.31414437,-0.5554548,-9.854534,1.5753847
0.6855232,4.3398,-0.009275172,0.09441942,0.31627488,-0.5410896,-9.840169,1.5993267
0.6857142,4.339714,-0.009275172,0.09441942,0.31627488,-0.5410896,-9.840169,1.5993267
0.6859017,4.3396316,-0.005014114,0.09761521,0.31840542,-0.5602432,-9.825804,1.6184803
0.6860921,4.3395476,-0.005014114,0.09761521,0.31840542,-0.5602432,-9.825804,1.6184803
0.6862865,4.339464,-0.0018183207,0.098680474,0.32053596,-0.5410896,-9.854534,1.6232687
0.68648213,4.3393803,-0.0018183207,0.098680474,0.32053596,-0.5410896,-9.854534,1.6232687
0.6866769,4.339299,0.002442737,0.099745736,0.3216012,-0.50278234,-9.888053,1.5801731
0.6868703,4.3392186,0.002442737,0.099745736,0.3216012,-0.50278234,-9.888053,1.5801731
0.6870632,4.3391423,0.006703795,0.099745736,0.32053596,-0.50757074,-9.873688,1.5705963
0.6872577,4.3390656,0.006703795,0.099745736,0.32053596,-0.50757074,-9.873688,1.5705963
0.6874502,4.3389945,0.013095382,0.100811005,0.31947067,-0.47884035,-9.883265,1.6041151
0.6874502,4.3389945,0.013095382,0.100811005,0.31947067,-0.47884035,-9.883265,1.6041151
0.6878296,4.3388658,0.019486967,0.10187627,0.32053596,-0.5267244,-9.873688,1.5945383
0.6880477,4.338792,0.019486967,0.10187627,0.32053596,-0.5267244,-9.873688,1.5945383
0.68823016,4.3387346,0.025878556,0.102941535,0.32266647,-0.521936,-9.878476,1.5514427
0.68823016,4.3387346,0.025878556,0.102941535,0.32266647,-0.521936,-9.878476,1.5514427
0.6888456,4.338544,0.03227014,0.10720259,0.3279928,-0.58418524,-9.864111,1.5227122
0.6888456,4.338544,0.03227014,0.10720259,0.3279928,-0.58418524,-9.864111,1.5227122
0.68907183,4.3384824,0.039726995,0.10933312,0.33438438,-0.5746084,-9.849746,1.5945383
0.68928653,4.338424,0.039726995,0.10933312,0.33438438,-0.5746084,-9.849746,1.5945383
0.689427,4.3383884,0.047183845,0.113594174,0.34397176,-0.59376204,-9.854534,1.6089035
0.6898557,4.3382816,0.054640695,0.1189205,0.35249388,-0.62249243,-9.835381,1.6041151
0.6898557,4.3382816,0.054640695,0.1189205,0.35249388,-0.62249243,-9.835381,1.6041151
0.6901293,4.3382144,0.054640695,0.1189205,0.35249388,-0.62249243,-9.835381,1.6041151
0.69029665,4.3381734,0.06103228,0.12531209,0.36314654,-0.6464345,-9.821015,1.5993267
0.69052076,4.3381186,0.06103228,0.12531209,0.36314654,-0.6464345,-9.821015,1.5993267
0.69075096,4.338064,0.067423865,0.12957314,0.37379918,-0.6655881,-9.720459,1.5705963
0.69098395,4.3380094,0.067423865,0.12957314,0.37379918,-0.6655881,-9.720459,1.5705963
0.6912282,4.337952,0.07275019,0.1338342,0.3844518,-0.6991069,-9.68694,1.541866
0.69146883,4.3378963,0.07275019,0.1338342,0.3844518,-0.6991069,-9.68694,1.541866
0.69171715,4.337838,0.07807651,0.14022578,0.3940392,-0.7326257,-9.615114,1.5945383
0.69196594,4.3377795,0.07807651,0.14022578,0.3940392,-0.7326257,-9.615114,1.5945383
0.69222116,4.337721,0.0844681,0.14555211,0.4025613,-0.7134721,-9.600749,1.6519991
0.6924813,4.337661,0.0844681,0.14555211,0.4025613,-0.7134721,-9.600749,1.6519991
0.69273746,4.337601,0.08872916,0.14981318,0.41108343,-0.7134721,-9.562442,1.6089035
0.69299823,4.33754,0.08872916,0.14981318,0.41108343,-0.7134721,-9.562442,1.6089035
0.69326395,4.3374805,0.09299022,0.1519437,0.41640976,-0.7565677,-9.524135,1.6232687
0.6935296,4.337421,0.09299022,0.1519437,0.41640976,-0.7565677,-9.524135,1.6232687
0.69379634,4.3373604,0.09405548,0.15300897,0.41854027,-0.7469909,-9.509769,1.5801731
0.694063,4.3372993,0.09405548,0.15300897,0.41854027,-0.7469909,-9.509769,1.5801731
0.6943275,4.3372374,0.09299022,0.15407422,0.41640976,-0.7422025,-9.423578,1.5849615
0.6945918,4.3371754,0.09299022,0.15407422,0.41640976,-0.7422025,-9.423578,1.5849615
0.6948532,4.3371105,0.08979442,0.15513949,0.41214868,-0.7086837,-9.337387,1.6711528
0.69511443,4.3370457,0.08979442,0.15513949,0.41214868,-0.7086837,-9.337387,1.6711528
0.695371,4.336978,0.085533366,0.15513949,0.40788764,-0.7086837,-9.289502,1.6328455
0.6956281,4.3369093,0.085533366,0.15513949,0.40788764,-0.7086837,-9.289502,1.6328455
0.69587845,4.33684,0.08020704,0.15300897,0.4004308,-0.7182605,-9.241618,1.6567876
0.6961299,4.3367705,0.08020704,0.15300897,0.4004308,-0.7182605,-9.241618,1.6567876
0.6963725,4.336697,0.07381546,0.1519437,0.39190868,-0.6799533,-9.270349,1.5849615
0.6966147,4.3366237,0.07381546,0.1519437,0.39190868,-0.6799533,-9.270349,1.5849615
0.6968452,4.3365464,0.06529334,0.15087843,0.3791255,-0.6991069,-9.208099,1.5514427
0.6970745,4.3364697,0.06529334,0.15087843,0.3791255,-0.6991069,-9.208099,1.5514427
0.69729537,4.3363895,0.056771226,0.1487479,0.36634234,-0.7230489,-9.141062,1.6376339
0.6975178,4.336309,0.056771226,0.1487479,0.36634234,-0.7230489,-9.141062,1.6376339
0.6977229,4.336223,0.04611858,0.1487479,0.35036334,-0.6751649,-9.160215,1.6089035
0.6979275,4.336137,0.04611858,0.1487479,0.35036334,-0.6751649,-9.160215,1.6089035
0.69811755,4.3360424,0.033335406,0.14981318,0.33331913,-0.7230489,-9.165004,1.6759412
0.6983087,4.3359475,0.033335406,0.14981318,0.33331913,-0.7230489,-9.165004,1.6759412
0.69848186,4.3358464,0.022682762,0.1519437,0.31627488,-0.7469909,-9.14585,1.6663644
0.6986554,4.335745,0.022682762,0.1519437,0.31627488,-0.7469909,-9.14585,1.6663644
0.6988101,4.3356385,0.010964853,0.15087843,0.29603487,-0.7230489,-9.150639,1.6519991
0.69896483,4.335532,0.010964853,0.15087843,0.29603487,-0.7230489,-9.150639,1.6519991
0.6991006,4.33542,-0.0018183207,0.14981318,0.27579483,-0.7613561,-9.165004,1.6184803
0.6992366,4.335308,-0.0018183207,0.14981318,0.27579483,-0.7613561,-9.165004,1.6184803
0.69935405,4.3351893,-0.014601494,0.14981318,0.25555483,-0.79008657,-9.179369,1.6376339
0.6994716,4.335071,-0.014601494,0.14981318,0.25555483,-0.79008657,-9.179369,1.6376339
0.6995719,4.334946,-0.027384669,0.1487479,0.23744532,-0.78050977,-9.203311,1.6041151
0.69967216,4.3348207,-0.027384669,0.1487479,0.23744532,-0.78050977,-9.203311,1.6041151
0.6997559,4.3346906,-0.041233107,0.14555211,0.2172053,-0.7134721,-9.198523,1.7046716
0.69983983,4.33456,-0.041233107,0.14555211,0.2172053,-0.7134721,-9.198523,1.7046716
0.6999075,4.3344245,-0.054016277,0.14342158,0.1990958,-0.7374141,-9.294291,1.7381904
0.69997525,4.3342886,-0.054016277,0.14342158,0.1990958,-0.7374141,-9.294291,1.7381904
0.7000264,4.3341446,-0.066799454,0.14448684,0.18205157,-0.7757214,-9.323022,1.6807296
0.7000773,4.3340006,-0.066799454,0.14448684,0.18205157,-0.7757214,-9.323022,1.6807296
0.7001145,4.3338475,-0.07745209,0.14661737,0.16820313,-0.6799533,-9.356541,1.70946
0.7001515,4.333695,-0.07745209,0.14661737,0.16820313,-0.6799533,-9.356541,1.70946
0.7001742,4.3335314,-0.08917001,0.15087843,0.15541996,-0.6512229,-9.375694,1.685518
0.70019746,4.333367,-0.08917001,0.15087843,0.15541996,-0.6512229,-9.375694,1.685518
0.70020396,4.333189,-0.10195318,0.15620476,0.14157152,-0.59376204,-9.346964,1.5705963
0.7002104,4.3330116,-0.10195318,0.15620476,0.14157152,-0.59376204,-9.346964,1.5705963
0.7002027,4.332818,-0.114736356,0.1636616,0.1298536,-0.48841715,-9.346964,1.5753847
0.7001949,4.332625,-0.114736356,0.1636616,0.1298536,-0.48841715,-9.346964,1.5753847
0.7001709,4.3324165,-0.12645426,0.17218372,0.116005175,-0.32561144,-9.390059,1.6328455
0.7001468,4.332208,-0.12645426,0.17218372,0.116005175,-0.32561144,-9.390059,1.6328455
0.7001037,4.331979,-0.13923743,0.18070583,0.100026205,-0.23463176,-9.299079,1.6711528
0.7000613,4.3317523,-0.13923743,0.18070583,0.100026205,-0.23463176,-9.299079,1.6711528
0.69999856,4.331523,-0.1520206,0.19242375,0.07978618,-0.23463176,-9.351752,1.6472107
0.69993335,4.331285,-0.1520206,0.19242375,0.07978618,-0.23463176,-9.351752,1.6472107
0.6998444,4.331032,-0.16373852,0.20520692,0.059546158,-0.15801731,-9.394848,1.6711528
0.69975936,4.3307886,-0.16373852,0.20520692,0.059546158,-0.15801731,-9.394848,1.6711528
0.6996453,4.330516,-0.17545643,0.2211859,0.038240872,-0.10534488,-9.414001,1.7908629
0.6995259,4.3302307,-0.17545643,0.2211859,0.038240872,-0.10534488,-9.414001,1.7908629
0.6993882,4.329941,-0.18610907,0.23929538,0.01906611,-0.090979666,-9.437943,1.8531121
0.69925123,4.329652,-0.18610907,0.23929538,0.01906611,-0.090979666,-9.437943,1.8531121
0.6990889,4.32934,-0.19676171,0.26166594,0.0009566145,-0.11971009,-9.509769,1.8818425
0.6989244,4.3290243,-0.19676171,0.26166594,0.0009566145,-0.11971009,-9.509769,1.8818425
0.6987386,4.328689,-0.20528384,0.28616703,-0.012891823,-0.17717093,-9.509769,1.7717092
0.6985532,4.328354,-0.20528384,0.28616703,-0.012891823,-0.17717093,-9.509769,1.7717092
0.6983474,4.3279934,-0.21487121,0.31173337,-0.024609733,-0.19153613,-9.581595,1.8148049
0.6981414,4.3276324,-0.21487121,0.31173337,-0.024609733,-0.19153613,-9.581595,1.8148049
0.69791657,4.3272414,-0.22552386,0.3404955,-0.03313185,-0.15801731,-9.701305,1.8531121
0.69769204,4.326851,-0.22552386,0.3404955,-0.03313185,-0.15801731,-9.701305,1.8531121
0.6974499,4.326427,-0.23404597,0.37245345,-0.0405887,0.36870706,-9.710882,2.1978772
0.69720745,4.3260036,-0.23404597,0.37245345,-0.0405887,0.36870706,-9.710882,2.1978772
0.6969436,4.325555,-0.22765438,0.4161293,-0.046980284,0.45010993,-9.490616,2.2409728
0.69667923,4.3251057,-0.22765438,0.4161293,-0.046980284,0.45010993,-9.490616,2.2409728
0.6963828,4.32463,-0.21913227,0.46619672,-0.058698196,0.4261679,-9.423578,2.0207062
0.6960863,4.3241544,-0.21913227,0.46619672,-0.058698196,0.4261679,-9.423578,2.0207062
0.69575167,4.323651,-0.21487121,0.51626414,-0.077872954,0.31603462,-9.390059,1.9009962
0.6954178,4.3231483,-0.21487121,0.51626414,-0.077872954,0.31603462,-9.390059,1.9009962
0.6950472,4.322614,-0.218067,0.56100523,-0.09704772,0.38307226,-9.466674,1.8100165
0.6946757,4.322078,-0.218067,0.56100523,-0.09704772,0.38307226,-9.466674,1.8100165
0.69427246,4.3215075,-0.22871965,0.6036158,-0.11409195,0.320823,-9.682152,1.7956513
0.69386876,4.3209357,-0.22871965,0.6036158,-0.11409195,0.320823,-9.682152,1.7956513
0.6934341,4.320323,-0.24150282,0.6483569,-0.12900566,0.29688102,-9.758766,1.8195933
0.692531,4.3190536,-0.2510902,0.69629383,-0.1428541,0.16759412,-9.859323,1.8387469
0.692531,4.3190536,-0.2510902,0.69629383,-0.1428541,0.16759412,-9.859323,1.8387469
0.6920644,4.318401,-0.2510902,0.69629383,-0.1428541,0.16759412,-9.859323,1.8387469
0.69140166,4.317482,-0.25961232,0.74636126,-0.15883306,0.11971009,-9.854534,1.8962077
0.69102424,4.31696,-0.25961232,0.74636126,-0.15883306,0.11971009,-9.854534,1.8962077
0.69050443,4.316254,-0.2660039,0.7964287,-0.17907308,0.090979666,-9.715671,1.9440918
0.6899765,4.3155394,-0.2660039,0.7964287,-0.17907308,0.090979666,-9.715671,1.9440918
0.6881962,4.313214,-0.28304812,0.89762884,-0.23127104,-0.02873042,-9.495404,1.9057846
0.6881962,4.313214,-0.28304812,0.89762884,-0.23127104,-0.02873042,-9.495404,1.9057846
0.6881962,4.313214,-0.28304812,0.89762884,-0.23127104,-0.02873042,-9.495404,1.9057846
0.68748695,4.3123074,-0.28304812,0.89762884,-0.23127104,-0.02873042,-9.495404,1.9057846
0.6869162,4.3116016,-0.29476604,0.9434352,-0.2653595,-0.019153614,-9.332599,1.9440918
0.6861793,4.310693,-0.29476604,0.9434352,-0.2653595,-0.019153614,-9.332599,1.9440918
0.68550193,4.309892,-0.3086145,0.9860458,-0.30797008,-0.22026655,-9.217676,2.054225
0.6846868,4.308931,-0.3086145,0.9860458,-0.30797008,-0.22026655,-9.217676,2.054225
0.68379676,4.3079348,-0.32246292,1.02333,-0.35697225,-0.4357447,-9.23683,1.9776106
0.68317395,4.3072395,-0.32246292,1.02333,-0.35697225,-0.4357447,-9.23683,1.9776106
0.68317395,4.3072395,-0.33418083,1.0510269,-0.4091702,-1.2114661,-8.844181,1.4508862
0.68118834,4.3051586,-0.33418083,1.0510269,-0.4091702,-1.2114661,-8.844181,1.4508862
0.6806268,4.3046083,-0.34483346,1.0563532,-0.46349868,-1.3359646,-8.6334915,1.3599066
0.6797327,4.303734,-0.34483346,1.0563532,-0.46349868,-1.3359646,-8.6334915,1.3599066
0.67879915,4.3028865,-0.36400825,1.0318521,-0.52954507,-0.6895301,-8.542512,1.8435353
0.6778498,4.3020267,-0.36400825,1.0318521,-0.52954507,-0.6895301,-8.542512,1.8435353
0.6778498,4.3020267,-0.36400825,1.0318521,-0.52954507,-0.4165911,-8.7532015,2.1739352
0.67541486,4.299994,-0.39170513,1.00309,-0.60517883,-0.4165911,-8.7532015,2.1739352
0.67434955,4.2991734,-0.41727147,0.9935026,-0.6850737,-0.8714894,-8.887277,2.1212628
0.67370564,4.298678,-0.41727147,0.9935026,-0.6850737,-0.8714894,-8.887277,2.1212628
0.67370564,4.298678,-0.41727147,0.9935026,-0.6850737,-0.8714894,-8.887277,2.1212628
0.671244,4.296923,-0.43538097,0.9913721,-0.7585769,-1.4700398,-9.308656,1.8291701
0.6701027,4.2961726,-0.4492294,0.9775236,-0.8299497,-1.8435353,-9.548077,1.6136919
0.66839975,4.2950563,-0.4492294,0.9775236,-0.8299497,-1.8435353,-9.548077,1.6136919
0.66770005,4.294633,-0.45881677,0.9498268,-0.8938655,-1.7764976,-9.562442,1.6903064
0.6656857,4.293417,-0.45881677,0.9498268,-0.8938655,-1.7764976,-9.562442,1.6903064
0.66515994,4.2931223,-0.47053468,0.9157383,-0.95245504,-1.4413095,-9.481039,1.7717092
0.6638604,4.2923956,-0.47053468,0.9157383,-0.95245504,-1.4413095,-9.481039,1.7717092
0.6625191,4.2916985,-0.4790568,0.88378036,-1.0110446,-1.292869,-9.131485,2.4995465
0.661167,4.290997,-0.4790568,0.88378036,-1.0110446,-1.292869,-9.131485,2.4995465
0.65974295,4.290325,-0.48012206,0.8507572,-1.07283,-1.1971009,-9.495404,2.9257145
0.65846014,4.2897205,-0.48012206,0.8507572,-1.07283,-1.1971009,-9.495404,2.9257145
0.65693927,4.2890816,-0.475861,0.81879926,-1.1356806,-1.2114661,-9.634268,2.4181437
0.6554965,4.2884755,-0.475861,0.81879926,-1.1356806,-1.2114661,-9.634268,2.4181437
0.65392196,4.28788,-0.47159994,0.7932329,-1.1932049,-1.2593501,-9.572019,2.1021092
0.65255094,4.287362,-0.47159994,0.7932329,-1.1932049,-1.2593501,-9.572019,2.1021092
0.64673126,4.2854624,-0.47159994,0.7389044,-1.2976007,-0.9624691,-9.576807,1.7764976
0.64673126,4.2854624,-0.47159994,0.7389044,-1.2976007,-0.9624691,-9.576807,1.7764976
0.64673126,4.2854624,-0.47159994,0.7389044,-1.2976007,-0.9624691,-9.576807,1.7764976
0.64673126,4.2854624,-0.47159994,0.7389044,-1.2976007,-0.9624691,-9.576807,1.7764976
0.64514846,4.2850018,-0.475861,0.7218602,-1.3434072,-0.78529817,-9.490616,1.6903064
0.6435802,4.2845464,-0.475861,0.7218602,-1.3434072,-0.78529817,-9.490616,1.6903064
0.64196086,4.284099,-0.48331785,0.7133381,-1.3902788,-0.31124622,-9.32781,1.6041151
0.64034194,4.283653,-0.48331785,0.7133381,-1.3902788,-0.31124622,-9.32781,1.6041151
0.6386664,4.283204,-0.49823156,0.7133381,-1.4424767,-0.08619126,-9.174581,1.6184803
0.63699096,4.282757,-0.49823156,0.7133381,-1.4424767,-0.08619126,-9.174581,1.6184803
0.63465,4.2821307,-0.5237979,0.72612125,-1.5021316,0.16280572,-9.088389,1.5610195
0.63465,4.2821307,-0.5237979,0.72612125,-1.5021316,0.16280572,-9.088389,1.5610195
0.63164073,4.2813244,-0.55575585,0.7495571,-1.5660474,0.21547815,-9.11712,1.6376339
0.62991714,4.2808557,-0.55575585,0.7495571,-1.5660474,0.21547815,-9.11712,1.6376339
0.6281309,4.280355,-0.59090954,0.78044975,-1.633159,0.29688102,-9.11712,1.7046716
0.62626225,4.279833,-0.59090954,0.78044975,-1.633159,0.29688102,-9.11712,1.7046716
0.62431896,4.2792754,-0.62499803,0.8124077,-1.7002708,0.4405331,-9.179369,1.7381904
0.6211543,4.278369,-0.62499803,0.8124077,-1.7002708,0.4405331,-9.179369,1.7381904
0.6204005,4.278147,-0.6580212,0.8496919,-1.7663171,0.81881696,-9.059659,1.8579005
0.61837566,4.277551,-0.6580212,0.8496919,-1.7663171,0.81881696,-9.059659,1.8579005
0.6162679,4.276919,-0.6878486,0.89123726,-1.8366246,1.0151415,-9.011775,1.8052281
0.6141667,4.276289,-0.6878486,0.89123726,-1.8366246,1.0151415,-9.011775,1.8052281
0.61197525,4.2756248,-0.7144802,0.9391741,-1.9122584,1.1252748,-8.954314,1.9009962
0.6097838,4.274962,-0.7144802,0.9391741,-1.9122584,1.1252748,-8.954314,1.9009962
0.6074987,4.2742634,-0.7421771,0.9903068,-1.9932184,1.2354081,-9.050082,1.8531121
0.6052914,4.27359,-0.7421771,0.9903068,-1.9932184,1.2354081,-9.050082,1.8531121
0.6028998,4.2728567,-0.769874,1.0425048,-2.0784397,1.3120226,-9.030929,1.8579005
0.6004271,4.2720995,-0.769874,1.0425048,-2.0784397,1.3120226,-9.030929,1.8579005
0.5979381,4.2713323,-0.79863614,1.0978985,-2.1657913,1.436521,-8.987833,1.7046716
0.5954617,4.2705703,-0.79863614,1.0978985,-2.1657913,1.436521,-8.987833,1.7046716
0.59286743,4.269765,-0.83059406,1.1543576,-2.2552736,1.5179238,-9.016563,1.6711528
0.5902522,4.2689543,-0.83059406,1.1543576,-2.2552736,1.5179238,-9.016563,1.6711528
0.58754665,4.2681084,-0.86468256,1.2108166,-2.3468862,1.6280571,-9.11712,1.5610195
0.584841,4.2672644,-0.86468256,1.2108166,-2.3468862,1.6280571,-9.11712,1.5610195
0.58203137,4.266381,-0.89983624,1.2694061,-2.438499,1.3072342,-9.270349,1.532289
0.5792247,4.2655005,-0.89983624,1.2694061,-2.438499,1.3072342,-9.270349,1.532289
0.57630163,4.264579,-0.9307289,1.3237346,-2.5258508,1.3838485,-9.227253,1.3072342
0.5733872,4.2636623,-0.9307289,1.3237346,-2.5258508,1.3838485,-9.227253,1.3072342
0.5703706,4.2627115,-0.9605563,1.3716716,-2.6110718,1.532289,-9.44752,1.2114661
0.5673541,4.2617636,-0.9605563,1.3716716,-2.6110718,1.532289,-9.44752,1.2114661
0.56424075,4.260783,-0.9871879,1.4185431,-2.6909666,1.7286136,-9.543288,1.1492168
0.5611336,4.259808,-0.9871879,1.4185431,-2.6909666,1.7286136,-9.543288,1.1492168
0.5579285,4.258807,-1.0063627,1.4718064,-2.7708614,1.685518,-9.586384,1.1540052
0.5547235,4.2578087,-1.0063627,1.4718064,-2.7708614,1.685518,-9.586384,1.1540052
0.55141807,4.2567854,-1.0202111,1.5303959,-2.8518217,1.9440918,-9.399636,1.0486604
0.54811263,4.2557654,-1.0202111,1.5303959,-2.8518217,1.9440918,-9.399636,1.0486604
0.5447066,4.2547293,-1.0287333,1.5932465,-2.9349122,1.6328455,-9.423578,1.067814
0.54130065,4.2536964,-1.0287333,1.5932465,-2.9349122,1.6328455,-9.423578,1.067814
0.5377959,4.252652,-1.0340595,1.656097,-3.019068,1.2880806,-9.394848,1.0007763
0.53428096,4.2516074,-1.0340595,1.656097,-3.019068,1.2880806,-9.394848,1.0007763
0.5306806,4.25056,-1.0351249,1.7136214,-3.098963,1.0773908,-9.390059,1.0007763
0.52707326,4.249513,-1.0351249,1.7136214,-3.098963,1.0773908,-9.390059,1.0007763
0.5233839,4.2484694,-1.0329943,1.760493,-3.175662,1.0965444,-9.294291,1.0247183
0.5196911,4.247427,-1.0329943,1.760493,-3.175662,1.0965444,-9.294291,1.0247183
0.51591516,4.246386,-1.031929,1.800973,-3.2502306,1.364695,-9.270349,0.9720459
0.5121282,4.245345,-1.031929,1.800973,-3.2502306,1.364695,-9.270349,0.9720459
0.5082638,4.244311,-1.0351249,1.8361268,-3.3322558,1.2737153,-9.404425,0.9624691
0.5043959,4.243278,-1.0351249,1.8361268,-3.3322558,1.2737153,-9.404425,0.9624691
0.49643308,4.2412186,-1.0415164,1.8670194,-3.4228034,0.82360536,-9.725247,0.9672575
0.49643308,4.2412186,-1.0415164,1.8670194,-3.4228034,0.82360536,-9.725247,0.9672575
0.492346,4.240196,-1.0457774,1.8861942,-3.5154815,1.3215994,-9.610326,0.8858546
0.48829973,4.2391863,-1.0457774,1.8861942,-3.5154815,1.3215994,-9.610326,0.8858546
0.48420826,4.2382054,-1.0511038,1.8936511,-3.6134856,1.316811,-9.988609,0.8331822
0.4800757,4.237216,-1.0511038,1.8936511,-3.6134856,1.316811,-9.988609,0.8331822
0.4758344,4.2362556,-1.0500386,1.8957816,-3.7253385,1.0869676,-10.16578,0.6895301
0.47169113,4.2353187,-1.0500386,1.8957816,-3.7253385,1.0869676,-10.16578,0.6895301
0.4673427,4.234391,-1.0457774,1.8861942,-3.8382566,1.6136919,-10.031705,0.6560113
0.46289468,4.233444,-1.0457774,1.8861942,-3.8382566,1.6136919,-10.031705,0.6560113
0.4584562,4.232563,-1.0372554,1.86915,-3.953305,1.5993267,-10.189722,0.5650316
0.45404047,4.231687,-1.0372554,1.86915,-3.953305,1.5993267,-10.189722,0.5650316
0.4495097,4.230853,-1.0266027,1.8467795,-4.0726147,1.9967642,-10.031705,0.5506664
0.4449477,4.2300134,-1.0266027,1.8467795,-4.0726147,1.9967642,-10.031705,0.5506664
0.4403104,4.229226,-1.0170153,1.8222784,-4.197251,1.9632454,-10.0269165,0.59376204
0.43564597,4.228434,-1.0170153,1.8222784,-4.197251,1.9632454,-10.0269165,0.59376204
0.43087828,4.2276917,-1.0074279,1.7924509,-4.3250823,1.7812861,-10.127473,0.5746084
0.42615843,4.2269564,-1.0074279,1.7924509,-4.3250823,1.7812861,-10.127473,0.5746084
0.42134616,4.226272,-0.9967753,1.756232,-4.4550447,1.910573,-10.160992,0.62728083
0.4165057,4.225582,-0.9967753,1.756232,-4.4550447,1.910573,-10.160992,0.62728083
0.41158795,4.2249465,-0.98399216,1.7136214,-4.5807457,2.15957,-10.055647,0.6512229
0.4066661,4.2243075,-0.98399216,1.7136214,-4.5807457,2.15957,-10.055647,0.6512229
0.40166253,4.2237225,-0.97014374,1.6688802,-4.7075124,2.3558946,-10.070012,0.6368576
0.39665976,4.2231345,-0.97014374,1.6688802,-4.7075124,2.3558946,-10.070012,0.6368576
0.3915613,4.2225947,-0.95736057,1.6241392,-4.8289523,2.3894134,-9.9550905,0.63206923
0.38648888,4.222054,-0.95736057,1.6241392,-4.8289523,2.3894134,-9.9550905,0.63206923
0.38129577,4.221551,-0.94457734,1.5783328,-4.944001,3.217807,-9.552865,0.51714754
0.37611896,4.221044,-0.94457734,1.5783328,-4.944001,3.217807,-9.552865,0.51714754
0.37086028,4.220581,-0.9328595,1.5410485,-5.0633106,3.083732,-9.672575,0.4309563
0.3655602,4.220109,-0.9328595,1.5410485,-5.0633106,3.083732,-9.672575,0.4309563
0.36026597,4.219676,-0.9264679,1.5133517,-5.185816,3.1890767,-9.504981,0.37828386
0.35495633,4.219237,-0.9264679,1.5133517,-5.185816,3.1890767,-9.504981,0.37828386
0.34949973,4.2188177,-0.919011,1.4899158,-5.30193,3.6966474,-9.217676,0.33518824
0.34404913,4.2183933,-0.919011,1.4899158,-5.30193,3.6966474,-9.217676,0.33518824
0.3384945,4.2179956,-0.9126194,1.4739369,-5.4308267,3.6391866,-9.179369,0.41180268
0.33294058,4.2175913,-0.9126194,1.4739369,-5.4308267,3.6391866,-9.179369,0.41180268
0.32727328,4.2172146,-0.9040973,1.462219,-5.5671806,3.3662477,-9.246407,0.32561144
0.3216067,4.216831,-0.9040973,1.462219,-5.5671806,3.3662477,-9.246407,0.32561144
0.31583396,4.2164764,-0.8923794,1.4473053,-5.7024693,3.3614593,-9.097966,0.2681506
0.31005043,4.2161126,-0.8923794,1.4473053,-5.7024693,3.3614593,-9.097966,0.2681506
0.30414906,4.2157826,-0.8742699,1.426,-5.837758,3.4332852,-8.90643,0
0.29827204,4.2154446,-0.8742699,1.426,-5.837758,3.4332852,-8.90643,0
0.2922773,4.215145,-0.8508341,1.3951073,-5.971981,3.5769374,-8.7053175,-0.19632454
0.28628328,4.214836,-0.8508341,1.3951073,-5.971981,3.5769374,-8.7053175,-0.19632454
0.28019384,4.2145677,-0.826333,1.3588883,-6.1051393,3.667917,-8.619126,-0.35913026
0.27409893,4.214288,-0.826333,1.3588883,-6.1051393,3.667917,-8.619126,-0.35913026
0.26790616,4.2140436,-0.80715823,1.3205388,-6.237232,3.691859,-8.508993,-0.40222588
0.26181313,4.213791,-0.80715823,1.3205388,-6.237232,3.691859,-8.508993,-0.40222588
0.25552106,4.213568,-0.79011405,1.2736672,-6.37039,3.6391866,-8.451532,-0.39743748
0.24912912,4.2133284,-0.79011405,1.2736672,-6.37039,3.6391866,-8.451532,-0.39743748
0.24275304,4.213126,-0.77413505,1.2172081,-6.5056787,3.4093432,-8.437167,-0.46926352
0.23642226,4.2129126,-0.77413505,1.2172081,-6.5056787,3.4093432,-8.437167,-0.46926352
0.22993837,4.2127256,-0.7592214,1.1532923,-6.639902,3.3758245,-8.413225,-0.6703765
0.22344232,4.2125244,-0.7592214,1.1532923,-6.639902,3.3758245,-8.413225,-0.6703765
0.216905,4.212348,-0.74643815,1.0808543,-6.769864,3.6391866,-8.475474,-0.7038953
0.20225777,4.21194,-0.7389813,1.0041553,-6.8913045,3.763685,-8.432379,-0.8858546
0.20225777,4.21194,-0.7389813,1.0041553,-6.8913045,3.763685,-8.432379,-0.8858546
0.19685368,4.211782,-0.7389813,1.0041553,-6.8913045,3.763685,-8.432379,-0.8858546
0.18853557,4.2115483,-0.7368508,0.9285215,-7.006353,4.1419687,-8.418014,-0.9672575
0.18244319,4.21136,-0.7368508,0.9285215,-7.006353,4.1419687,-8.418014,-0.9672575
0.1736936,4.2110915,-0.7411119,0.8592793,-7.1182055,4.060566,-8.408437,-0.7182605
0.16977781,4.210962,-0.7411119,0.8592793,-7.1182055,4.060566,-8.408437,-0.7182605
0.16296504,4.210738,-0.7453729,0.7942982,-7.2247324,3.9073372,-8.288726,-0.5793968
0.15632993,4.2105026,-0.7453729,0.7942982,-7.2247324,3.9073372,-8.288726,-0.5793968
0.14963536,4.2102647,-0.74643815,0.729317,-7.3163447,3.6535518,-8.2169,-0.58418524
0.13980725,4.209881,-0.74643815,0.729317,-7.3163447,3.6535518,-8.2169,-0.58418524
0.13610855,4.2097354,-0.74643815,0.66007483,-7.3951745,3.3327289,-8.236053,-0.51235914
0.12675978,4.2093415,-0.74643815,0.66007483,-7.3951745,3.3327289,-8.236053,-0.51235914
0.12675978,4.2093415,-0.74643815,0.66007483,-7.3951745,3.3327289,-8.236053,-0.51235914
0.11437555,4.2087927,-0.7432424,0.58124524,-7.4526987,3.1124623,-8.154651,-0.58897364
0.09496973,4.207855,-0.7283287,0.39695454,-7.5006356,3.0885203,-7.991845,-0.7038953
0.09496973,4.207855,-0.7283287,0.39695454,-7.5006356,3.0885203,-7.991845,-0.7038953
0.09496973,4.207855,-0.7283287,0.39695454,-7.5006356,3.0885203,-7.991845,-0.7038953
0.09496973,4.207855,-0.7283287,0.39695454,-7.5006356,3.0885203,-7.991845,-0.7038953
0.08008815,4.207071,-0.7187413,0.29468915,-7.501701,2.9975405,-8.025364,-0.7517793
0.08008815,4.207071,-0.7187413,0.29468915,-7.501701,2.9975405,-8.025364,-0.7517793
0.06734921,4.2063155,-0.71341497,0.18816268,-7.489983,2.944868,-8.09719,-0.7326257
0.06734921,4.2063155,-0.71341497,0.18816268,-7.489983,2.944868,-8.09719,-0.7326257
0.05276175,4.20538,-0.7091539,0.07844045,-7.4633512,2.6384103,-8.178593,-0.89543146
0.047232654,4.204996,-0.7091539,0.07844045,-7.4633512,2.6384103,-8.178593,-0.89543146
0.040875748,4.2045383,-0.69956654,-0.039803904,-7.429263,2.9161377,-7.9008656,-0.9768343
0.03433793,4.2040443,-0.69956654,-0.039803904,-7.429263,2.9161377,-7.9008656,-0.9768343
0.028004464,4.203549,-0.68997914,-0.16976617,-7.385587,2.8299465,-8.025364,-0.842759
0.020715024,4.2029505,-0.68997914,-0.16976617,-7.385587,2.8299465,-8.025364,-0.842759
0.014771479,4.20244,-0.68145704,-0.29759791,-7.323802,2.96881,-8.279149,-0.45968673
0.008716979,4.201898,-0.68145704,-0.29759791,-7.323802,2.96881,-8.279149,-0.45968673
0.0014812046,4.2012167,-0.6697391,-0.41477698,-7.2375154,3.442862,-8.106767,-0.14844051
6.2796497,4.200725,-0.6697391,-0.41477698,-7.2375154,3.442862,-8.106767,-0.14844051
6.2737994,4.200134,-0.6516296,-0.51597714,-7.134185,3.5051112,-7.8290396,-0.20111294
6.2678733,4.199512,-0.6516296,-0.51597714,-7.134185,3.5051112,-7.8290396,-0.20111294
6.2620287,4.198883,-0.6281938,-0.6065246,-7.0233974,3.5577838,-7.6375036,-0.19632454
6.2557163,4.1981773,-0.6281938,-0.6065246,-7.0233974,3.5577838,-7.6375036,-0.19632454
6.250535,4.197581,-0.6058233,-0.6992026,-6.9083486,3.6104562,-7.422025,-0.35434186
6.2436423,4.1967583,-0.6058233,-0.6992026,-6.9083486,3.6104562,-7.422025,-0.35434186
6.2390995,4.196197,-0.58558327,-0.79720694,-6.7826476,3.5673606,-7.240066,-0.34955344
6.2335563,4.1954923,-0.58558327,-0.79720694,-6.7826476,3.5673606,-7.240066,-0.34955344
6.227399,4.194669,-0.57066953,-0.8952113,-6.6452284,3.86903,-6.9623384,-0.45489833
6.227399,4.194669,-0.57066953,-0.8952113,-6.6452284,3.86903,-6.9623384,-0.45489833
6.2146244,4.1928244,-0.5589516,-0.9985419,-6.4971566,4.1132383,-6.8043213,-0.5363012
6.2100267,4.1921287,-0.5589516,-0.9985419,-6.4971566,4.1132383,-6.8043213,-0.5363012
6.207405,4.1917105,-0.5514948,-1.1040031,-6.341628,4.582502,-6.5984197,-0.48841715
6.2023144,4.1908813,-0.5514948,-1.1040031,-6.341628,4.582502,-6.5984197,-0.48841715
6.1961856,4.1898108,-0.5472337,-1.2041379,-6.1797075,5.195418,-6.4499793,-0.58897364
6.1913342,4.18894,-0.5472337,-1.2041379,-6.1797075,5.195418,-6.4499793,-0.58897364
6.187644,4.188236,-0.5451032,-1.2957507,-6.0220485,5.7365074,-6.4164605,-0.5602432
6.183092,4.1873493,-0.5451032,-1.2957507,-6.0220485,5.7365074,-6.4164605,-0.5602432
6.1787024,4.1864395,-0.54616845,-1.3767108,-5.8739767,6.1866174,-6.3446345,-0.61291564
6.174334,4.185515,-0.54616845,-1.3767108,-5.8739767,6.1866174,-6.3446345,-0.61291564
6.170017,4.184542,-0.54936427,-1.4438225,-5.7322965,6.871359,-6.1195793,-0.59855044
6.165721,4.183555,-0.54936427,-1.4438225,-5.7322965,6.871359,-6.1195793,-0.59855044
6.1615496,4.182539,-0.55575585,-1.4970857,-5.6033998,7.3549876,-6.090849,-0.59855044
6.1573863,4.181507,-0.55575585,-1.4970857,-5.6033998,7.3549876,-6.090849,-0.59855044
6.153356,4.1804514,-0.5653432,-1.53437,-5.487286,7.9104424,-6.0477533,-0.39743748
6.1492734,4.1793637,-0.5653432,-1.53437,-5.487286,7.9104424,-6.0477533,-0.39743748
6.145364,4.178266,-0.57599586,-1.5535446,-5.3807592,8.528147,-5.4061074,-0.35434186
6.141435,4.1771445,-0.57599586,-1.5535446,-5.3807592,8.528147,-5.4061074,-0.35434186
6.1376057,4.176015,-0.58558327,-1.5610015,-5.2859507,8.025364,-6.7947445,-0.5363012
6.133789,4.174871,-0.58558327,-1.5610015,-5.2859507,8.025364,-6.7947445,-0.5363012
6.1300187,4.1736956,-0.5973011,-1.5471531,-5.2124476,8.552089,-5.5162406,-0.04309563
6.1262193,4.1724935,-0.5973011,-1.5471531,-5.2124476,8.552089,-5.5162406,-0.04309563
6.1225553,4.171297,-0.6111496,-1.522652,-5.1229653,8.274361,-6.1866174,-0.25857377
6.118856,4.1700726,-0.6111496,-1.522652,-5.1229653,8.274361,-6.1866174,-0.25857377
6.1152253,4.1688204,-0.6345854,-1.4832373,-5.0398746,8.700529,-5.3438582,-0.20590134
6.111593,4.167551,-0.6345854,-1.4832373,-5.0398746,8.700529,-5.3438582,-0.20590134
6.108017,4.166259,-0.65908647,-1.4480835,-4.95998,8.743625,-6.05733,-0.11971009
6.1044497,4.1649537,-0.65908647,-1.4480835,-4.95998,8.743625,-6.05733,-0.11971009
6.1009283,4.1636267,-0.67719597,-1.4161255,-4.8811502,8.322245,-6.2632318,-0.16280572
6.0974226,4.1622896,-0.67719597,-1.4161255,-4.8811502,8.322245,-6.2632318,-0.16280572
6.0939775,4.1609335,-0.69317496,-1.3916245,-4.7959294,8.192958,-6.3063273,-0.30166942
6.0905066,4.1595507,-0.69317496,-1.3916245,-4.7959294,8.192958,-6.3063273,-0.30166942
6.0871716,4.158175,-0.70808864,-1.373515,-4.7032514,8.643068,-6.277597,-0.22984336
6.0838146,4.156775,-0.70808864,-1.373515,-4.7032514,8.643068,-6.277597,-0.22984336
6.0805264,4.155358,-0.7230024,-1.3617971,-4.6148343,8.7292595,-6.6510925,-0.14844051
6.077247,4.1539288,-0.7230024,-1.3617971,-4.6148343,8.7292595,-6.6510925,-0.14844051
6.074032,4.1524863,-0.73152447,-1.353275,-4.5360045,8.983045,-6.6415157,-0.10055647
6.0708284,4.1510344,-0.73152447,-1.353275,-4.5360045,8.983045,-6.6415157,-0.10055647
6.0676856,4.1495795,-0.73152447,-1.3458182,-4.4656973,9.121908,-6.8761473,-0.11492168
6.064539,4.148108,-0.73152447,-1.3458182,-4.4656973,9.121908,-6.8761473,-0.11492168
6.061458,4.1466417,-0.7272634,-1.3362308,-4.4060426,9.624691,-6.5936313,-0.009576807
6.056539,4.144271,-0.7272634,-1.3362308,-4.4060426,9.624691,-6.5936313,-0.009576807
6.055224,4.143631,-0.7219371,-1.3223823,-4.3655624,9.299079,-6.775591,-0.08140286
6.052189,4.1421447,-0.7219371,-1.3223823,-4.3655624,9.299079,-6.775591,-0.08140286
6.049143,4.140643,-0.71341497,-1.3117297,-4.3485184,9.89763,-6.339846,0.090979666
6.0461016,4.1391296,-0.71341497,-1.3117297,-4.3485184,9.89763,-6.339846,0.090979666
6.0430665,4.1376185,-0.7048929,-1.3074687,-4.3570404,9.768343,-6.483498,0.1388637
6.0385675,4.135351,-0.7048929,-1.3074687,-4.3570404,9.768343,-6.483498,0.1388637
6.037062,4.134594,-0.69530547,-1.2989465,-4.3826065,10.204087,-6.090849,0.19153613
6.0340433,4.133065,-0.69530547,-1.2989465,-4.3826065,10.204087,-6.090849,0.19153613
6.0309706,4.1315236,-0.68465286,-1.2872286,-4.420956,9.662998,-6.3206925,0.110133275
6.0278945,4.129965,-0.68465286,-1.2872286,-4.420956,9.662998,-6.3206925,0.110133275
6.0247965,4.12841,-0.6697391,-1.2765759,-4.467828,9.758766,-5.78918,0.1436521
6.021698,4.1268396,-0.6697391,-1.2765759,-4.467828,9.758766,-5.78918,0.1436521
6.018555,4.125268,-0.6516296,-1.2723149,-4.521091,9.184157,-5.9519854,0.019153614
6.015415,4.1236815,-0.6516296,-1.2723149,-4.521091,9.184157,-5.9519854,0.019153614
6.0122294,4.122085,-0.63671595,-1.2733802,-4.5764847,8.978256,-5.78918,0.062249243
6.009056,4.120478,-0.63671595,-1.2733802,-4.5764847,8.978256,-5.78918,0.062249243
6.0058613,4.1188717,-0.62073696,-1.2776412,-4.6244216,8.566454,-5.8083334,0.01436521
6.002653,4.1172414,-0.62073696,-1.2776412,-4.6244216,8.566454,-5.8083334,0.01436521
5.9994464,4.1156235,-0.60049695,-1.2829676,-4.65851,7.9870567,-5.9902925,-0.08619126
5.9962397,4.113989,-0.60049695,-1.2829676,-4.65851,7.9870567,-5.9902925,-0.08619126
5.993021,4.112351,-0.57599586,-1.296816,-4.6723585,7.747637,-5.6982,-0.15801731
5.9898214,4.1107054,-0.57599586,-1.296816,-4.6723585,7.747637,-5.6982,-0.15801731
5.986635,4.10906,-0.5536253,-1.3149254,-4.6712933,7.9391727,-5.568913,-0.15801731
5.9834585,4.107402,-0.5536253,-1.3149254,-4.6712933,7.9391727,-5.568913,-0.15801731
5.9802814,4.1057324,-0.5301895,-1.3351655,-4.649988,8.039729,-5.674258,-0.31124622
5.977161,4.1040754,-0.5301895,-1.3351655,-4.649988,8.039729,-5.674258,-0.31124622
5.974075,4.1024194,-0.5088842,-1.3564708,-4.616965,7.7428484,-5.377377,-0.4405331
5.9709797,4.1007404,-0.5088842,-1.3564708,-4.616965,7.7428484,-5.377377,-0.4405331
5.9679494,4.09907,-0.4907747,-1.3799065,-4.5764847,8.259995,-5.070919,-0.5506664
5.9649105,4.097377,-0.4907747,-1.3799065,-4.5764847,8.259995,-5.070919,-0.5506664
5.9619308,4.0956907,-0.47692627,-1.3990813,-4.529613,7.795521,-5.161899,-0.6703765
5.958957,4.0939913,-0.47692627,-1.3990813,-4.529613,7.795521,-5.161899,-0.6703765
5.956041,4.09229,-0.4673389,-1.413995,-4.473154,7.9726915,-4.9176903,-0.6751649
5.9531164,4.090566,-0.4673389,-1.413995,-4.473154,7.9726915,-4.9176903,-0.6751649
5.950276,4.0888543,-0.46307784,-1.4289087,-4.4145646,7.785944,-5.0661306,-0.9528923
5.9474425,4.0871296,-0.46307784,-1.4289087,-4.4145646,7.785944,-5.0661306,-0.9528923
5.9446344,4.085374,-0.46201256,-1.4438225,-4.351714,7.728483,-4.76925,-1.0007763
5.9419107,4.083654,-0.46201256,-1.4438225,-4.351714,7.728483,-4.76925,-1.0007763
5.9392304,4.081914,-0.4609473,-1.461932,-4.284602,7.6470804,-4.7261543,-0.9911995
5.9365296,4.0801435,-0.4609473,-1.461932,-4.284602,7.6470804,-4.7261543,-0.9911995
5.9339356,4.078389,-0.45881677,-1.4832373,-4.2079034,7.536947,-4.606444,-1.0726024
5.931335,4.0766134,-0.45881677,-1.4832373,-4.2079034,7.536947,-4.606444,-1.0726024
5.9288216,4.07484,-0.45562097,-1.5045426,-4.122682,7.704541,-4.572925,-1.1013328
5.92631,4.0730515,-0.45562097,-1.5045426,-4.122682,7.704541,-4.572925,-1.1013328
5.9238915,4.07127,-0.45242518,-1.5237173,-4.0363955,7.896077,-4.462792,-1.1731589
5.921485,4.069481,-0.45242518,-1.5237173,-4.0363955,7.896077,-4.462792,-1.1731589
5.9191556,4.0676913,-0.45029464,-1.5375657,-3.9479787,8.226477,-4.429273,-1.2354081
5.9168305,4.0658884,-0.45029464,-1.5375657,-3.9479787,8.226477,-4.429273,-1.2354081
5.9145923,4.0640936,-0.4492294,-1.5471531,-3.8574312,8.580819,-4.2425256,-1.1587936
5.9123454,4.062276,-0.4492294,-1.5471531,-3.8574312,8.580819,-4.2425256,-1.1587936
5.9102364,4.060523,-0.4460336,-1.5460879,-3.7690144,8.6574335,-4.3047748,-1.2593501
5.9080524,4.0586925,-0.4460336,-1.5460879,-3.7690144,8.6574335,-4.3047748,-1.2593501
5.90597,4.0569043,-0.4428378,-1.5365005,-3.6848583,8.887277,-4.0174704,-1.2018893
5.9038935,4.055106,-0.4428378,-1.5365005,-3.6848583,8.887277,-4.0174704,-1.2018893
5.901874,4.053325,-0.43644622,-1.522652,-3.6049635,8.882488,-3.98874,-1.2449849
5.8998685,4.0515413,-0.43644622,-1.522652,-3.6049635,8.882488,-3.98874,-1.2449849
5.8979115,4.049779,-0.43005463,-1.5034772,-3.530395,8.7771435,-4.367024,-1.4317327
5.8959627,4.0480094,-0.43005463,-1.5034772,-3.530395,8.7771435,-4.367024,-1.4317327
5.8940544,4.046254,-0.4215325,-1.4853678,-3.462218,8.935161,-4.232949,-1.3455414
5.892149,4.044487,-0.4215325,-1.4853678,-3.462218,8.935161,-4.232949,-1.3455414
5.8903065,4.0427575,-0.41194513,-1.4704541,-3.401498,8.901642,-3.9983168,-1.4748282
5.8884625,4.041013,-0.41194513,-1.4704541,-3.401498,8.901642,-3.9983168,-1.4748282
5.886567,4.039194,-0.403423,-1.4608667,-3.3503654,9.102755,-3.6296098,-1.4413095
5.8847594,4.037445,-0.403423,-1.4608667,-3.3503654,9.102755,-3.6296098,-1.4413095
5.883005,4.0357227,-0.39703143,-1.4576709,-3.304559,9.006987,-3.6296098,-1.3934253
5.8812814,4.0340166,-0.39703143,-1.4576709,-3.304559,9.006987,-3.6296098,-1.3934253
5.878593,4.031294,-0.39383563,-1.4629972,-3.260883,8.892065,-3.7253778,-1.3838485
5.8773,4.0299726,-0.39383563,-1.4629972,-3.260883,8.892065,-3.7253778,-1.3838485
5.876174,4.0287976,-0.3895746,-1.4736499,-3.2267947,9.126697,-3.490746,-1.2689269
5.876174,4.0287976,-0.3895746,-1.4736499,-3.2267947,9.126697,-3.490746,-1.2689269
5.872728,4.025156,-0.38424826,-1.4896288,-3.2044241,9.193734,-3.6152446,-1.3311762
5.87099,4.0232778,-0.38424826,-1.4896288,-3.2044241,9.193734,-3.6152446,-1.3311762
5.8695235,4.0216603,-0.37892193,-1.5066731,-3.1873798,9.308656,-3.5769374,-1.2641385
5.8678985,4.019855,-0.37892193,-1.5066731,-3.1873798,9.308656,-3.5769374,-1.2641385
5.866397,4.018155,-0.37359563,-1.5237173,-3.1777925,9.457097,-3.4524388,-1.3742718
5.866397,4.018155,-0.37359563,-1.5237173,-3.1777925,9.457097,-3.4524388,-1.3742718
5.863083,4.0143256,-0.36613876,-1.5375657,-3.1703358,9.629479,-3.0597897,-1.4173675
5.8618903,4.0129323,-0.36613876,-1.5375657,-3.1703358,9.629479,-3.0597897,-1.4173675
5.86011,4.010833,-0.35761666,-1.5471531,-3.1703358,9.466674,-2.9496565,-1.4891934
5.8582916,4.0086694,-0.35761666,-1.5471531,-3.1703358,9.466674,-2.9496565,-1.4891934
5.856862,4.0069523,-0.35122505,-1.5535446,-3.1692705,9.227253,-2.882619,-1.6376339
5.8556175,4.005448,-0.35122505,-1.5535446,-3.1692705,9.227253,-2.882619,-1.6376339
5.8539877,4.003461,-0.34270296,-1.5556753,-3.1660745,9.270349,-2.3223755,-1.6903064
5.852279,4.00136,-0.34270296,-1.5556753,-3.1660745,9.270349,-2.3223755,-1.6903064
5.851238,4.0000744,-0.33950716,-1.5535446,-3.163944,9.193734,-2.6001031,-1.8770541
5.849641,3.9980898,-0.33950716,-1.5535446,-3.163944,9.193734,-2.6001031,-1.8770541
5.847882,3.995881,-0.34057242,-1.5503489,-3.1618135,9.212888,-2.2744915,-2.0494366
5.846846,3.9945707,-0.34057242,-1.5503489,-3.1618135,9.212888,-2.2744915,-2.0494366
5.8449326,3.9921236,-0.346964,-1.5460879,-3.1586177,8.90643,-2.0733786,-2.0446482
5.8439107,3.9908068,-0.346964,-1.5460879,-3.1586177,8.90643,-2.0733786,-2.0446482
5.8420095,3.988309,-0.35548612,-1.5492836,-3.151161,9.595961,-1.7525556,-1.958457
5.8409405,3.9868927,-0.35548612,-1.5492836,-3.151161,9.595961,-1.7525556,-1.958457
5.8391757,3.9845095,-0.36720404,-1.5535446,-3.1447694,9.3182335,-1.8243817,-2.231396
5.838224,3.9832146,-0.36720404,-1.5535446,-3.1447694,9.3182335,-1.8243817,-2.231396
5.8361897,3.9804182,-0.38850933,-1.5428921,-3.1362472,7.991845,-2.4995465,-2.3558946
5.8354535,3.9793983,-0.38850933,-1.5428921,-3.1362472,7.991845,-2.4995465,-2.3558946
5.8341093,3.9774504,-0.40874934,-1.5524794,-3.091506,9.227253,-1.7669208,-2.0925324
5.8327713,3.9754963,-0.40874934,-1.5524794,-3.091506,9.227253,-1.7669208,-2.0925324
5.83145,3.9734793,-0.4247283,-1.5759152,-3.0574176,9.600749,-2.1452048,-2.0398598
5.8301806,3.9715261,-0.4247283,-1.5759152,-3.0574176,9.600749,-2.1452048,-2.0398598
5.828244,3.9684575,-0.43005463,-1.5908289,-3.0488956,10.414778,-1.7908629,-1.9249382
5.827651,3.9675097,-0.43005463,-1.5908289,-3.0488956,10.414778,-1.7908629,-1.9249382
5.826383,3.9654827,-0.43218517,-1.5823069,-3.046765,10.175357,-1.9919758,-1.9967642
5.824627,3.962646,-0.43218517,-1.5823069,-3.046765,10.175357,-1.9919758,-1.9967642
5.822828,3.9597328,-0.43751147,-1.5556753,-3.039308,10.778696,-1.1827357,-1.9440918
5.822098,3.9585412,-0.43751147,-1.5556753,-3.039308,10.778696,-1.1827357,-1.9440918
5.820711,3.9563103,-0.44709885,-1.518391,-3.0339818,10.089166,-1.4891934,-2.2409728
5.819995,3.9551504,-0.44709885,-1.518391,-3.0339818,10.089166,-1.4891934,-2.2409728
5.8188133,3.953264,-0.45668626,-1.4843025,-3.0403733,10.309433,-1.1109096,-2.1930888
5.816905,3.950186,-0.45668626,-1.4843025,-3.0403733,10.309433,-1.1109096,-2.1930888
5.816257,3.949149,-0.4673389,-1.4598014,-3.046765,10.199299,-1.1683705,-2.1930888
5.814968,3.947072,-0.4673389,-1.4598014,-3.046765,10.199299,-1.1683705,-2.1930888
5.8136663,3.944982,-0.48012206,-1.4353004,-3.051026,10.43872,-0.90979666,-2.1260512
5.8117504,3.941874,-0.48012206,-1.4353004,-3.051026,10.43872,-0.90979666,-2.1260512
5.8110795,3.9407916,-0.49503577,-1.405473,-3.0488956,10.213664,-1.0103531,-2.2888567
5.809803,3.9387205,-0.49503577,-1.405473,-3.0488956,10.213664,-1.0103531,-2.2888567
5.8084836,3.936588,-0.50994945,-1.3756455,-3.0456998,10.070012,-0.90021986,-2.2936451
5.807154,3.9344215,-0.50994945,-1.3756455,-3.0456998,10.070012,-0.90021986,-2.2936451
5.805436,3.9316144,-0.52592844,-1.353275,-3.039308,10.0269165,-0.9720459,-2.2266076
5.8045597,3.93017,-0.52592844,-1.353275,-3.039308,10.0269165,-0.9720459,-2.2266076
5.8032618,3.9280205,-0.53764635,-1.3394265,-3.0275903,9.782708,-1.2354081,-2.2266076
5.801951,3.9258318,-0.53764635,-1.3394265,-3.0275903,9.782708,-1.2354081,-2.2266076
5.800671,3.9236712,-0.5451032,-1.3298391,-3.0084155,9.56723,-1.4317327,-2.3080103
5.799399,3.921507,-0.5451032,-1.3298391,-3.0084155,9.56723,-1.4317327,-2.3080103
5.798149,3.91934,-0.5472337,-1.3287739,-2.9807186,9.476251,-1.532289,-2.4229321
5.7969093,3.9171731,-0.5472337,-1.3287739,-2.9807186,9.476251,-1.532289,-2.4229321
5.7957015,3.9150076,-0.5451032,-1.3362308,-2.9466302,9.41879,-1.6519991,-2.408567
5.7944946,3.9128256,-0.5451032,-1.3362308,-2.9466302,9.41879,-1.6519991,-2.408567
5.793347,3.9106767,-0.53977686,-1.353275,-2.9072154,9.284714,-1.7764976,-2.432509
5.7922053,3.9085221,-0.53977686,-1.353275,-2.9072154,9.284714,-1.7764976,-2.432509
5.7911077,3.9063578,-0.53232,-1.377776,-2.8646047,9.337387,-1.8195933,-2.4708161
5.790012,3.904179,-0.53232,-1.377776,-2.8646047,9.337387,-1.8195933,-2.4708161
5.7889967,3.9020483,-0.5227326,-1.4107993,-2.817733,9.284714,-1.8818425,-2.4756045
5.787982,3.8998997,-0.5227326,-1.4107993,-2.817733,9.284714,-1.8818425,-2.4756045
5.7870307,3.8977482,-0.51314527,-1.4491488,-2.7687309,9.466674,-1.7860745,-2.360683
5.7860875,3.8955967,-0.51314527,-1.4491488,-2.7687309,9.466674,-1.7860745,-2.360683
5.785217,3.893458,-0.5024926,-1.4917593,-2.720794,9.677363,-1.8483237,-2.3175871
5.784327,3.891253,-0.5024926,-1.4917593,-2.720794,9.677363,-1.8483237,-2.3175871
5.783549,3.8891659,-0.49503577,-1.5311742,-2.6717918,9.797073,-1.8818425,-2.3127987
5.7827654,3.8870432,-0.49503577,-1.5311742,-2.6717918,9.797073,-1.8818425,-2.3127987
5.7820435,3.8849177,-0.4875789,-1.5652626,-2.620659,10.041282,-1.7908629,-2.3702598
5.781326,3.8827844,-0.4875789,-1.5652626,-2.620659,10.041282,-1.7908629,-2.3702598
5.7806745,3.8806715,-0.48012206,-1.59509,-2.5684612,10.213664,-1.8722657,-2.327164
5.7800283,3.878553,-0.48012206,-1.59509,-2.5684612,10.213664,-1.8722657,-2.327164
5.7794414,3.8764522,-0.47053468,-1.6185259,-2.515198,10.443508,-1.8626889,-2.3175871
5.778859,3.8743427,-0.47053468,-1.6185259,-2.515198,10.443508,-1.8626889,-2.3175871
5.7783346,3.8722706,-0.4609473,-1.6334395,-2.4608696,10.620679,-1.8100165,-2.360683
5.777815,3.870192,-0.4609473,-1.6334395,-2.4608696,10.620679,-1.8100165,-2.360683
5.777342,3.8681407,-0.45135993,-1.6366353,-2.4044106,11.022904,-1.685518,-2.2505496
5.7768764,3.8660953,-0.45135993,-1.6366353,-2.4044106,11.022904,-1.685518,-2.2505496
5.776444,3.8640728,-0.44070727,-1.6249174,-2.345821,11.583148,-1.7286136,-2.3558946
5.7760186,3.8620543,-0.44070727,-1.6249174,-2.345821,11.583148,-1.7286136,-2.3558946
5.7756143,3.8600845,-0.42685884,-1.5940248,-2.2861662,10.951078,-1.733402,-2.5234885
5.775214,3.8581088,-0.42685884,-1.5940248,-2.2861662,10.951078,-1.733402,-2.5234885
5.7748322,3.8561773,-0.41514093,-1.558871,-2.228642,11.75553,-1.2114661,-2.6048915
5.774456,3.854248,-0.41514093,-1.558871,-2.228642,11.75553,-1.2114661,-2.6048915
5.774086,3.8523521,-0.40874934,-1.5162604,-2.1743133,11.592725,-1.3503298,-2.566584
5.773729,3.8504944,-0.40874934,-1.5162604,-2.1743133,11.592725,-1.3503298,-2.566584
5.7733684,3.8486564,-0.4044883,-1.461932,-2.116789,11.765107,-1.3263878,-2.4277205
5.7730045,3.8467784,-0.4044883,-1.461932,-2.116789,11.765107,-1.3263878,-2.4277205
5.7726407,3.8449793,-0.4012925,-1.4012119,-2.0613954,11.453861,-1.4700398,-2.5139117
5.7722845,3.8431935,-0.4012925,-1.4012119,-2.0613954,11.453861,-1.4700398,-2.5139117
5.771913,3.8414402,-0.39170513,-1.3351655,-2.007067,11.75553,-1.3359646,-2.360683
5.7715387,3.839649,-0.39170513,-1.3351655,-2.007067,11.75553,-1.3359646,-2.360683
5.771176,3.8380327,-0.37892193,-1.2669885,-1.9516732,11.654974,-1.388637,-2.4947581
5.7707987,3.8363314,-0.37892193,-1.2669885,-1.9516732,11.654974,-1.388637,-2.4947581
5.770401,3.834689,-0.3650735,-1.1945506,-1.9005405,11.449073,-1.364695,-2.5139117
5.7700124,3.8330662,-0.3650735,-1.1945506,-1.9005405,11.449073,-1.364695,-2.5139117
5.769559,3.8313198,-0.35229033,-1.1210474,-1.8451467,11.765107,-1.0965444,-2.504335
5.769194,3.8299012,-0.35229033,-1.1210474,-1.8451467,11.765107,-1.0965444,-2.504335
5.7687736,3.8284242,-0.34163767,-1.043283,-1.7950792,11.209652,-1.4173675,-2.4899697
5.7683496,3.8269246,-0.34163767,-1.043283,-1.7950792,11.209652,-1.4173675,-2.4899697
5.7679014,3.82548,-0.33098504,-0.96445346,-1.7407508,11.252748,-1.2497733,-2.4851813
5.7674546,3.8240297,-0.33098504,-0.96445346,-1.7407508,11.252748,-1.2497733,-2.4851813
5.766985,3.8226442,-0.3203324,-0.8866891,-1.685357,10.7356,-1.4460979,-2.5617957
5.766518,3.8212593,-0.3203324,-0.8866891,-1.685357,10.7356,-1.4460979,-2.5617957
5.766029,3.81993,-0.3086145,-0.81105536,-1.6310285,11.042058,-1.163582,-2.4037786
5.7655435,3.8186023,-0.3086145,-0.81105536,-1.6310285,11.042058,-1.163582,-2.4037786
5.7650385,3.8173382,-0.29796183,-0.73861736,-1.5745695,10.429143,-1.4508862,-2.528277
5.7645335,3.816068,-0.29796183,-0.73861736,-1.5745695,10.429143,-1.4508862,-2.528277
5.764011,3.8148568,-0.28624392,-0.6661794,-1.5191758,10.79785,-1.0342951,-2.5234885
5.763486,3.8136358,-0.28624392,-0.6661794,-1.5191758,10.79785,-1.0342951,-2.5234885
5.762946,3.8124847,-0.27665654,-0.5948067,-1.4637821,10.390836,-1.1492168,-2.5617957
5.762404,3.811324,-0.27665654,-0.5948067,-1.4637821,10.390836,-1.1492168,-2.5617957
5.761845,3.810223,-0.27026495,-0.523434,-1.4105188,10.6158905,-0.91937345,-2.6623523
5.761283,3.8091125,-0.27026495,-0.523434,-1.4105188,10.6158905,-0.91937345,-2.6623523
5.7607007,3.8080647,-0.26387337,-0.45099598,-1.3615166,10.323798,-1.0055647,-2.6001031
5.7601156,3.807008,-0.26387337,-0.45099598,-1.3615166,10.323798,-1.0055647,-2.6001031
5.759507,3.8060012,-0.25961232,-0.3817538,-1.3167756,10.25676,-0.8619126,-2.6623523
5.758868,3.8049407,-0.25961232,-0.3817538,-1.3167756,10.25676,-0.8619126,-2.6623523
5.758265,3.8040247,-0.25641653,-0.31357688,-1.2805566,10.079589,-0.7565677,-2.7341783
5.757611,3.8030286,-0.25641653,-0.31357688,-1.2805566,10.079589,-0.7565677,-2.7341783
5.7569714,3.8021297,-0.25535128,-0.25179154,-1.2443376,9.969456,-0.7517793,-2.705448
5.7562966,3.801178,-0.25535128,-0.25179154,-1.2443376,9.969456,-0.7517793,-2.705448
5.7556076,3.800276,-0.25641653,-0.19213672,-1.2102491,9.68694,-0.6991069,-2.6671407
5.754945,3.799406,-0.25641653,-0.19213672,-1.2102491,9.68694,-0.6991069,-2.6671407
5.754237,3.7985349,-0.254286,-0.14100403,-1.1761606,9.548077,-0.5650316,-2.6767175
5.753524,3.797654,-0.254286,-0.14100403,-1.1761606,9.548077,-0.5650316,-2.6767175
5.752812,3.7968223,-0.25322074,-0.09839345,-1.1473985,9.232041,-0.6368576,-2.6862943
5.7520943,3.7959824,-0.25322074,-0.09839345,-1.1473985,9.232041,-0.6368576,-2.6862943
5.751371,3.7951686,-0.2510902,-0.065370254,-1.1143752,9.02614,-0.60333884,-2.72939
5.750642,3.7943463,-0.2510902,-0.065370254,-1.1143752,9.02614,-0.60333884,-2.72939
5.7499266,3.7935631,-0.24682915,-0.041934434,-1.0792215,8.939949,-0.5650316,-2.695871
5.749205,3.7927716,-0.24682915,-0.041934434,-1.0792215,8.939949,-0.5650316,-2.695871
5.7484894,3.7919993,-0.24150282,-0.028085995,-1.0440679,8.734048,-0.5650316,-2.7150247
5.747781,3.791233,-0.24150282,-0.028085995,-1.0440679,8.734048,-0.5650316,-2.7150247
5.7470865,3.7904878,-0.23404597,-0.021694409,-1.0089141,8.590396,-0.50278234,-2.705448
5.746404,3.7897544,-0.23404597,-0.021694409,-1.0089141,8.590396,-0.50278234,-2.705448
5.7457337,3.7890334,-0.22658911,-0.021694409,-0.9726951,8.485051,-0.50757074,-2.6862943
5.7450647,3.788312,-0.22658911,-0.021694409,-0.9726951,8.485051,-0.50757074,-2.6862943
5.744425,3.7876143,-0.218067,-0.028085995,-0.93754137,8.341399,-0.48362875,-2.719813
5.743784,3.7869136,-0.218067,-0.028085995,-0.93754137,8.341399,-0.48362875,-2.719813
5.7431736,3.7862284,-0.21061015,-0.041934434,-0.9045182,8.231265,-0.41180268,-2.72939
5.7425632,3.7855413,-0.21061015,-0.041934434,-0.9045182,8.231265,-0.41180268,-2.72939
5.741992,3.7848754,-0.2031533,-0.06004393,-0.86510336,8.054094,-0.47884035,-2.681506
5.741418,3.7842042,-0.2031533,-0.06004393,-0.86510336,8.054094,-0.47884035,-2.681506
5.741418,3.7842042,-0.2031533,-0.06004393,-0.86510336,8.054094,-0.47884035,-2.681506
5.7400513,3.7825222,-0.19569646,-0.08134922,-0.8235581,7.991845,-0.44532153,-2.7724855
5.7398095,3.782204,-0.18717434,-0.10798083,-0.77881694,8.039729,-0.3878607,-2.7102363
5.739256,3.781474,-0.18717434,-0.10798083,-0.77881694,8.039729,-0.3878607,-2.7102363
5.738896,3.7809644,-0.17758696,-0.13461244,-0.7362064,7.9583263,-0.4357447,-2.767697
5.738896,3.7809644,-0.17758696,-0.13461244,-0.7362064,7.9583263,-0.4357447,-2.767697
5.7380133,3.7796986,-0.16586904,-0.16230932,-0.69572634,7.848193,-0.37349546,-2.767697
5.737006,3.7780392,-0.15308587,-0.19213672,-0.65311575,7.833828,-0.39264908,-2.7485435
5.737006,3.7780392,-0.15308587,-0.19213672,-0.65311575,7.833828,-0.39264908,-2.7485435
5.737006,3.7780392,-0.15308587,-0.19213672,-0.65311575,7.833828,-0.39264908,-2.7485435
5.737006,3.7780392,-0.15308587,-0.19213672,-0.65311575,7.699753,-0.39743748,-2.719813
5.7363763,3.776805,-0.1403027,-0.22515991,-0.60624415,7.699753,-0.39743748,-2.719813
5.736148,3.776269,-0.12645426,-0.25818312,-0.5561767,7.843405,-0.35913026,-2.6910827
5.735973,3.7758582,-0.12645426,-0.25818312,-0.5561767,7.843405,-0.35913026,-2.6910827
5.735777,3.775263,-0.112605825,-0.29440212,-0.505044,7.704541,-0.47405192,-2.695871
5.7356477,3.774869,-0.112605825,-0.29440212,-0.505044,7.704541,-0.47405192,-2.695871
5.73552,3.77428,-0.10088792,-0.3306211,-0.4539113,7.9248075,-0.4213795,-2.7102363
5.7354145,3.7737904,-0.10088792,-0.3306211,-0.4539113,7.9248075,-0.4213795,-2.7102363
5.7353735,3.7733567,-0.08703948,-0.36577484,-0.4006481,8.173804,-0.49320555,-2.7102363
5.7353454,3.7730498,-0.08703948,-0.36577484,-0.4006481,8.173804,-0.49320555,-2.7102363
5.735359,3.7726226,-0.07745209,-0.39453697,-0.34951538,8.48984,-0.40222588,-2.7150247
5.735377,3.7720718,-0.07745209,-0.39453697,-0.34951538,8.48984,-0.40222588,-2.7150247
5.7354155,3.771813,-0.066799454,-0.41584226,-0.30477428,8.714894,-0.3878607,-2.705448
5.735474,3.7714195,-0.066799454,-0.41584226,-0.30477428,8.714894,-0.3878607,-2.705448
5.7356005,3.7709243,-0.05827734,-0.43075597,-0.2653595,8.916007,-0.38307226,-2.7246015
5.7356596,3.7706938,-0.05827734,-0.43075597,-0.2653595,8.916007,-0.38307226,-2.7246015
5.7357764,3.7703574,-0.049755223,-0.4382128,-0.2323363,8.983045,-0.37828386,-2.719813
5.735959,3.769833,-0.049755223,-0.4382128,-0.2323363,8.983045,-0.37828386,-2.719813
5.7360177,3.769695,-0.041233107,-0.44247386,-0.20676996,9.232041,-0.22984336,-2.695871
5.7361574,3.7693696,-0.041233107,-0.44247386,-0.20676996,9.232041,-0.22984336,-2.695871
5.736309,3.7690637,-0.033776253,-0.44247386,-0.18546467,9.184157,-0.2873042,-2.7150247
5.736309,3.7690637,-0.033776253,-0.44247386,-0.18546467,9.184157,-0.2873042,-2.7150247
5.736723,3.7682462,-0.027384669,-0.43927807,-0.16522464,9.385271,-0.1388637,-2.6910827
5.7367954,3.7681177,-0.027384669,-0.43927807,-0.16522464,9.385271,-0.1388637,-2.6910827
5.737002,3.7677855,-0.02099308,-0.43288648,-0.14604989,9.380483,-0.20590134,-2.695871
5.737108,3.7676144,-0.02099308,-0.43288648,-0.14604989,9.380483,-0.20590134,-2.695871
5.7372775,3.7673638,-0.015666759,-0.42223385,-0.12900566,9.433155,-0.21547815,-2.6431987
5.7374473,3.7671125,-0.015666759,-0.42223385,-0.12900566,9.433155,-0.21547815,-2.6431987
5.737616,3.7668753,-0.012470965,-0.4083854,-0.11302668,9.533711,-0.11971009,-2.6671407
5.7377863,3.7666368,-0.012470965,-0.4083854,-0.11302668,9.533711,-0.11971009,-2.6671407
5.7379494,3.7664206,-0.008209907,-0.39027593,-0.09598245,9.562442,-0.12449849,-2.6719291
5.738114,3.766203,-0.008209907,-0.39027593,-0.09598245,9.562442,-0.12449849,-2.6719291
5.738272,3.7660046,-0.0039488496,-0.36897063,-0.077872954,9.653421,-0.14844051,-2.7629087
5.73843,3.7658074,-0.0039488496,-0.36897063,-0.077872954,9.653421,-0.14844051,-2.7629087
5.7385783,3.7656298,0.0003122082,-0.34446955,-0.060828723,9.840169,-0.12449849,-2.8395233
5.7387238,3.7654564,0.0003122082,-0.34446955,-0.060828723,9.840169,-0.12449849,-2.8395233
5.738867,3.7652893,0.002442737,-0.31677267,-0.045915022,9.911995,-0.05267244,-2.7964275
5.739011,3.7651215,0.002442737,-0.31677267,-0.045915022,9.911995,-0.05267244,-2.7964275
5.739118,3.7649918,0.004573266,-0.28588,-0.03632764,10.007763,0.038307227,-2.7820623
5.7392244,3.764863,0.004573266,-0.28588,-0.03632764,10.007763,0.038307227,-2.7820623
5.7393155,3.76474,0.006703795,-0.2528568,-0.032066584,9.859323,0.05267244,-2.7102363
5.739407,3.7646163,0.006703795,-0.2528568,-0.032066584,9.859323,0.05267244,-2.7102363
5.739474,3.764505,0.006703795,-0.22089887,-0.028870791,9.787497,0.05746084,-2.7724855
5.739541,3.7643924,0.006703795,-0.22089887,-0.028870791,9.787497,0.05746084,-2.7724855
5.7395844,3.7642944,0.006703795,-0.1900062,-0.025674997,9.753978,0.12449849,-2.72939
5.7396283,3.764196,0.006703795,-0.1900062,-0.025674997,9.753978,0.12449849,-2.72939
5.739651,3.7641087,0.0077690594,-0.16230932,-0.022479203,9.576807,0.11492168,-2.7581203
5.739674,3.7640212,0.0077690594,-0.16230932,-0.022479203,9.576807,0.11492168,-2.7581203
5.739683,3.7639463,0.010964853,-0.13993876,-0.015022352,9.490616,0.20590134,-2.825158
5.7396917,3.7638714,0.010964853,-0.13993876,-0.015022352,9.490616,0.20590134,-2.825158
5.739691,3.7638078,0.010964853,-0.120764,-0.004369708,9.375694,0.19153613,-2.8538885
5.7396903,3.7637448,0.010964853,-0.120764,-0.004369708,9.375694,0.19153613,-2.8538885
5.7396827,3.7636929,0.010964853,-0.10265451,0.00947873,9.375694,0.2681506,-2.9017725
5.7396755,3.763641,0.010964853,-0.10265451,0.00947873,9.375694,0.2681506,-2.9017725
5.7396674,3.7636023,0.010964853,-0.08880607,0.028653491,9.313444,0.24899697,-3.0071173
5.7396593,3.7635634,0.010964853,-0.08880607,0.028653491,9.313444,0.24899697,-3.0071173
5.739652,3.7635386,0.010964853,-0.07495763,0.048893515,9.303867,0.272939,-3.040636
5.7396445,3.7635138,0.010964853,-0.07495763,0.048893515,9.303867,0.272939,-3.040636
5.739639,3.763503,0.009899588,-0.062174458,0.06913354,9.313444,0.29209262,-2.992752
5.739633,3.763492,0.009899588,-0.062174458,0.06913354,9.313444,0.29209262,-2.992752
5.739628,3.763496,0.008834324,-0.047260758,0.09043883,9.375694,0.29688102,-2.9975405
5.739622,3.7635,0.008834324,-0.047260758,0.09043883,9.375694,0.29688102,-2.9975405
5.739618,3.7635176,0.0056385305,-0.031281788,0.11493991,9.442732,0.31124622,-3.0597897
5.7396135,3.7635355,0.0056385305,-0.031281788,0.11493991,9.442732,0.31124622,-3.0597897
5.739609,3.7635674,0.002442737,-0.014237558,0.13731046,9.385271,0.31603462,-2.9879637
5.739604,3.7635994,0.002442737,-0.014237558,0.13731046,9.385271,0.31603462,-2.9879637
5.7395973,3.7636447,-0.00075305626,0.0028066735,0.15861575,9.303867,0.33039984,-2.96881
5.739591,3.7636895,-0.00075305626,0.0028066735,0.15861575,9.303867,0.33039984,-2.96881
5.739583,3.7637491,-0.0039488496,0.02091617,0.18098632,9.294291,0.30645782,-2.96881
5.739575,3.7638097,-0.0039488496,0.02091617,0.18098632,9.294291,0.30645782,-2.96881
5.7395663,3.763881,-0.008209907,0.039025664,0.20442213,9.232041,0.35913026,-2.9496565
5.7395573,3.7639532,-0.008209907,0.039025664,0.20442213,9.232041,0.35913026,-2.9496565
5.739546,3.7640388,-0.012470965,0.05713516,0.22572741,9.165004,0.30166942,-2.906561
5.739535,3.764125,-0.012470965,0.05713516,0.22572741,9.165004,0.30166942,-2.906561
5.739523,3.7642243,-0.015666759,0.07417939,0.24809797,9.02614,0.320823,-2.8538885
5.739511,3.7643237,-0.015666759,0.07417939,0.24809797,9.02614,0.320823,-2.8538885
5.739499,3.7644234,-0.015666759,0.07417939,0.24809797,9.02614,0.320823,-2.8538885
5.739488,3.7645357,-0.019927816,0.09015836,0.27259904,8.896853,0.2873042,-2.882619
5.739477,3.764648,-0.019927816,0.09015836,0.27259904,8.896853,0.2873042,-2.882619
5.7394667,3.7647753,-0.02312361,0.10720259,0.29710013,8.78672,0.21547815,-2.8874073
5.7394557,3.7649026,-0.02312361,0.10720259,0.29710013,8.78672,0.21547815,-2.8874073
5.7394495,3.7650452,-0.026319403,0.12105103,0.324797,8.66701,0.1388637,-2.9352913
5.739443,3.7651873,-0.026319403,0.12105103,0.324797,8.66701,0.1388637,-2.9352913
5.739445,3.765346,-0.027384669,0.13170367,0.35462442,8.585608,0.11971009,-2.9783869
5.7394476,3.765505,-0.027384669,0.13170367,0.35462442,8.585608,0.11971009,-2.9783869
5.7394595,3.7656803,-0.028449932,0.14129105,0.3855171,8.504205,0.11971009,-3.0119057
5.739472,3.7658582,-0.028449932,0.14129105,0.3855171,8.504205,0.11971009,-3.0119057
5.739499,3.7660494,-0.029515196,0.14768264,0.41960555,8.461109,0.11971009,-2.9592333
5.7395263,3.7662427,-0.029515196,0.14768264,0.41960555,8.461109,0.11971009,-2.9592333
5.7395706,3.76645,-0.031645726,0.15087843,0.45369402,8.365341,0.12928689,-3.064578
5.739615,3.7666569,-0.031645726,0.15087843,0.45369402,8.365341,0.12928689,-3.064578
5.739681,3.7668777,-0.03484152,0.15087843,0.489913,8.327033,0.15801731,-3.0933087
5.7397466,3.7670977,-0.03484152,0.15087843,0.489913,8.327033,0.15801731,-3.0933087
5.739837,3.767331,-0.036972046,0.14555211,0.52506673,8.413225,0.18195933,-3.122039
5.7399282,3.767564,-0.036972046,0.14555211,0.52506673,8.413225,0.18195933,-3.122039
5.7400475,3.7678087,-0.03803731,0.13489947,0.55702466,8.552089,0.23942018,-3.074155
5.7401657,3.768052,-0.03803731,0.13489947,0.55702466,8.552089,0.23942018,-3.074155
5.7403135,3.7683063,-0.041233107,0.12318156,0.5889826,8.767567,0.20590134,-3.083732
5.7404623,3.7685626,-0.041233107,0.12318156,0.5889826,8.767567,0.20590134,-3.083732
5.7406344,3.7688231,-0.043363634,0.11146365,0.61348367,9.030929,0.2825158,-3.0454245
5.740806,3.7690816,-0.043363634,0.11146365,0.61348367,9.030929,0.2825158,-3.0454245
5.740997,3.7693472,-0.0444289,0.102941535,0.6305279,9.217676,0.36391866,-3.016694
5.741188,3.7696137,-0.0444289,0.102941535,0.6305279,9.217676,0.36391866,-3.016694
5.7413883,3.7698784,-0.046559427,0.09761521,0.63905,9.323022,0.37828386,-3.0214825
5.741588,3.770143,-0.046559427,0.09761521,0.63905,9.323022,0.37828386,-3.0214825
5.74179,3.7704065,-0.048689958,0.09761521,0.64011526,9.3661175,0.4405331,-2.9496565
5.7419915,3.77067,-0.048689958,0.09761521,0.64011526,9.3661175,0.4405331,-2.9496565
5.742188,3.7709284,-0.05188575,0.100811005,0.63585424,9.323022,0.45489833,-2.9400797
5.742385,3.7711868,-0.05188575,0.100811005,0.63585424,9.323022,0.45489833,-2.9400797
5.7425747,3.771441,-0.054016277,0.10507206,0.6273321,9.260772,0.48841715,-2.9640217
5.7427626,3.7716928,-0.054016277,0.10507206,0.6273321,9.260772,0.48841715,-2.9640217
5.7429414,3.771942,-0.055081543,0.11146365,0.61987525,9.155427,0.46926352,-2.9592333
5.7431207,3.7721913,-0.055081543,0.11146365,0.61987525,9.155427,0.46926352,-2.9592333
5.74329,3.7724361,-0.057212073,0.117855236,0.6124184,9.030929,0.46447513,-2.944868
5.7434597,3.772681,-0.057212073,0.117855236,0.6124184,9.030929,0.46447513,-2.944868
5.743622,3.7729216,-0.060407866,0.12318156,0.6070921,8.978256,0.47884035,-2.9831753
5.7437844,3.7731612,-0.060407866,0.12318156,0.6070921,8.978256,0.47884035,-2.9831753
5.743944,3.7733986,-0.06466892,0.12744261,0.60815734,8.920795,0.45968673,-3.0119057
5.7441034,3.7736354,-0.06466892,0.12744261,0.60815734,8.920795,0.45968673,-3.0119057
5.744264,3.77387,-0.068929985,0.12850788,0.61135316,8.767567,0.39264908,-3.0023289
5.744425,3.7741044,-0.068929985,0.12850788,0.61135316,8.767567,0.39264908,-3.0023289
5.7445865,3.7743382,-0.07319104,0.13170367,0.61774474,8.75799,0.37828386,-3.0262709
5.7447486,3.7745721,-0.07319104,0.13170367,0.61774474,8.75799,0.37828386,-3.0262709
5.744916,3.7748072,-0.07638683,0.1338342,0.62946266,8.676587,0.4165911,-3.0789435
5.745083,3.7750423,-0.07638683,0.1338342,0.62946266,8.676587,0.4165911,-3.0789435
5.7452593,3.77528,-0.08064789,0.13276894,0.6433111,8.619126,0.34476504,-3.040636
5.7454357,3.775518,-0.08064789,0.13276894,0.6433111,8.619126,0.34476504,-3.040636
5.7456236,3.7757587,-0.08597422,0.13170367,0.6614206,8.556877,0.29688102,-3.0262709
5.745812,3.7759995,-0.08597422,0.13170367,0.6614206,8.556877,0.29688102,-3.0262709
5.746014,3.776246,-0.09023527,0.1306384,0.68379116,8.475474,0.23942018,-3.064578
5.746217,3.7764926,-0.09023527,0.1306384,0.68379116,8.475474,0.23942018,-3.064578
5.746435,3.7767467,-0.09343106,0.12850788,0.7093575,8.451532,0.23463176,-3.016694
5.7466545,3.7770011,-0.09343106,0.12850788,0.7093575,8.451532,0.23463176,-3.016694
5.74689,3.7772644,-0.096626855,0.12744261,0.73492384,8.461109,0.18674773,-3.0454245
5.7471256,3.7775273,-0.096626855,0.12744261,0.73492384,8.461109,0.18674773,-3.0454245
5.747377,3.7778034,-0.097692125,0.12744261,0.76155543,8.561666,0.090979666,-3.0214825
5.747628,3.7780795,-0.097692125,0.12744261,0.76155543,8.561666,0.090979666,-3.0214825
5.7480536,3.778542,-0.09982265,0.1306384,0.788187,8.604761,0.05746084,-2.9975405
5.748239,3.7787433,-0.09982265,0.1306384,0.788187,8.604761,0.05746084,-2.9975405
5.7484345,3.7789567,-0.10088792,0.13489947,0.8148187,8.6095495,-0.023942016,-2.906561
5.7484345,3.7789567,-0.098757386,0.14022578,0.83931977,8.652645,-0.047884032,-2.882619
5.7490196,3.7796035,-0.098757386,0.14022578,0.83931977,8.652645,-0.047884032,-2.882619
5.749373,3.7799988,-0.098757386,0.14768264,0.86382085,8.599973,-0.08140286,-2.8778305
5.7497206,3.7803867,-0.098757386,0.14768264,0.86382085,8.599973,-0.08140286,-2.8778305
5.750004,3.780702,-0.098757386,0.14768264,0.86382085,8.599973,-0.08140286,-2.8778305
5.750231,3.7809608,-0.096626855,0.15513949,0.8851261,8.576031,-0.11971009,-2.8634653
5.7505345,3.7813063,-0.096626855,0.15513949,0.8851261,8.576031,-0.11971009,-2.8634653
5.7505345,3.7813063,-0.096626855,0.15513949,0.8851261,8.576031,-0.11971009,-2.8634653
5.7513475,3.782272,-0.08917001,0.16898793,0.9298672,8.465898,-0.23463176,-2.801216
5.7515545,3.782517,-0.08917001,0.16898793,0.9298672,8.465898,-0.23463176,-2.801216
5.751877,3.7828977,-0.08917001,0.16898793,0.9298672,8.465898,-0.23463176,-2.801216
5.7522106,3.7832987,-0.08597422,0.17644478,0.9543683,8.39886,-0.2633622,-2.801216
5.752506,3.7836528,-0.08597422,0.17644478,0.9543683,8.39886,-0.2633622,-2.801216
5.7528334,3.7840528,-0.08064789,0.18283637,0.97993463,8.379706,-0.33518824,-2.7629087
5.7535214,3.7848978,-0.07319104,0.18709743,1.0065663,8.446744,-0.48362875,-2.7820623
5.7535214,3.7848978,-0.07319104,0.18709743,1.0065663,8.446744,-0.48362875,-2.7820623
5.7538824,3.7853441,-0.07319104,0.18709743,1.0065663,8.446744,-0.48362875,-2.7820623
5.754243,3.7857902,-0.06466892,0.18922795,1.0331979,8.145074,-0.37349546,-2.873042
5.754617,3.786252,-0.06466892,0.18922795,1.0331979,8.145074,-0.37349546,-2.873042
5.755002,3.7867265,-0.057212073,0.18816268,1.0608947,8.288726,-0.49799395,-2.8682537
5.7553873,3.7872005,-0.057212073,0.18816268,1.0608947,8.288726,-0.49799395,-2.8682537
5.7562084,3.7882009,-0.048689958,0.18283637,1.0885916,8.499416,-0.641646,-2.825158
5.7562084,3.7882009,-0.048689958,0.18283637,1.0885916,8.499416,-0.641646,-2.825158
5.756633,3.7887216,-0.039102577,0.18390164,1.1173538,8.532935,-0.7757214,-2.719813
5.7570744,3.7892623,-0.039102577,0.18390164,1.1173538,8.532935,-0.7757214,-2.719813
5.7570744,3.7892623,-0.039102577,0.18390164,1.1173538,8.532935,-0.7757214,-2.719813
5.7582035,3.7906654,-0.009275172,0.18603216,1.1865959,8.317456,-0.9768343,-2.7581203
5.7583838,3.7908902,-0.009275172,0.18603216,1.1865959,8.317456,-0.9768343,-2.7581203
5.7589827,3.7916362,-0.009275172,0.18603216,1.1865959,8.317456,-0.9768343,-2.7581203
5.759542,3.7923334,0.0077690594,0.18070583,1.2217497,8.250419,-1.0582372,-2.6623523
5.760053,3.792957,0.02694382,0.1668574,1.2600992,8.274361,-1.0342951,-2.6767175
5.760519,3.7935238,0.02694382,0.1668574,1.2600992,8.274361,-1.0342951,-2.6767175
5.760952,3.7940495,0.02694382,0.1668574,1.2600992,8.274361,-1.0342951,-2.6767175
5.76149,3.7946925,0.04824911,0.1519437,1.3016446,8.384495,-1.067814,-2.6623523
5.76206,3.795372,0.04824911,0.1519437,1.3016446,8.384495,-1.067814,-2.6623523
5.76267,3.7960877,0.067423865,0.13916053,1.3453203,8.394072,-1.0582372,-2.6479871
5.763279,3.7967997,0.067423865,0.13916053,1.3453203,8.394072,-1.0582372,-2.6479871
5.7639236,3.797542,0.085533366,0.12637734,1.3900615,8.37013,-1.1109096,-2.6719291
5.764572,3.798286,0.085533366,0.12637734,1.3900615,8.37013,-1.1109096,-2.6719291
5.7652717,3.7990766,0.10470813,0.113594174,1.4401289,8.418014,-1.1061212,-2.791639
5.765958,3.7998486,0.10470813,0.113594174,1.4401289,8.418014,-1.1061212,-2.791639
5.7666903,3.800662,0.12494815,0.100811005,1.4944574,8.403648,-1.1204864,-2.8538885
5.767433,3.8014839,0.12494815,0.100811005,1.4944574,8.403648,-1.1204864,-2.8538885
5.768201,3.8023229,0.14305764,0.09015836,1.5477206,8.5473,-1.091756,-2.8921957
5.768988,3.8031807,0.14305764,0.09015836,1.5477206,8.5473,-1.091756,-2.8921957
5.769796,3.8040528,0.16116714,0.082701504,1.6031144,8.7053175,-1.043872,-2.9592333
5.7706146,3.8049338,0.16116714,0.082701504,1.6031144,8.7053175,-1.043872,-2.9592333
5.771469,3.8058527,0.1771461,0.08163624,1.6574428,8.772355,-1.0247183,-2.9352913
5.7723255,3.8067706,0.1771461,0.08163624,1.6574428,8.772355,-1.0247183,-2.9352913
5.7732162,3.8077257,0.19099455,0.08376677,1.7107061,8.829816,-0.9864111,-2.954445
5.7741055,3.8086758,0.19099455,0.08376677,1.7107061,8.829816,-0.9864111,-2.954445
5.775034,3.8096645,0.20271246,0.084832035,1.762904,8.844181,-0.9576807,-2.896984
5.775958,3.8106453,0.20271246,0.084832035,1.762904,8.844181,-0.9576807,-2.896984
5.7769156,3.8116596,0.21443036,0.085897304,1.8119062,8.920795,-0.90979666,-2.8299465
5.777874,3.8126714,0.21443036,0.085897304,1.8119062,8.920795,-0.90979666,-2.8299465
5.77886,3.8137126,0.22614828,0.0890931,1.8577125,8.925584,-0.8762778,-2.7820623
5.779848,3.814752,0.22614828,0.0890931,1.8577125,8.925584,-0.8762778,-2.7820623
5.780864,3.8158205,0.23999672,0.09122362,1.9024537,8.959103,-0.79008657,-2.8921957
5.7818813,3.816886,0.23999672,0.09122362,1.9024537,8.959103,-0.79008657,-2.8921957
5.782927,3.8179805,0.25277987,0.09228889,1.9461296,8.949526,-0.78529817,-2.906561
5.783976,3.8190742,0.25277987,0.09228889,1.9461296,8.949526,-0.78529817,-2.906561
5.785049,3.820192,0.26343253,0.09654994,1.9898053,8.939949,-0.7182605,-2.96881
5.7861223,3.8213055,0.26343253,0.09654994,1.9898053,8.939949,-0.7182605,-2.96881
5.787223,3.8224468,0.27408516,0.100811005,2.0356116,8.892065,-0.7278373,-3.0119057
5.7883263,3.8235862,0.27408516,0.100811005,2.0356116,8.892065,-0.7278373,-3.0119057
5.7894588,3.824747,0.2826073,0.102941535,2.081418,8.925584,-0.60812724,-3.1986535
5.7905927,3.8259044,0.2826073,0.102941535,2.081418,8.925584,-0.60812724,-3.1986535
5.7917576,3.8270855,0.28793362,0.10507206,2.1304202,9.040505,-0.6464345,-3.2561142
5.792926,3.8282638,0.28793362,0.10507206,2.1304202,9.040505,-0.6464345,-3.2561142
5.794124,3.8294604,0.29006413,0.10720259,2.1783571,9.299079,-0.641646,-3.347094
5.795323,3.830652,0.29006413,0.10720259,2.1783571,9.299079,-0.641646,-3.347094
5.7965546,3.8318708,0.29325992,0.113594174,2.2209678,9.610326,-0.5410896,-3.3183637
5.797778,3.833076,0.29325992,0.113594174,2.2209678,9.610326,-0.5410896,-3.3183637
5.7990212,3.834299,0.29219466,0.12531209,2.2550561,9.835381,-0.50278234,-3.2465374
5.8002653,3.8355174,0.29219466,0.12531209,2.2550561,9.835381,-0.50278234,-3.2465374
5.801514,3.8367465,0.28793362,0.14342158,2.2774267,10.041282,-0.50757074,-3.0885203
5.802764,3.8379707,0.28793362,0.14342158,2.2774267,10.041282,-0.50757074,-3.0885203
5.804007,3.8391986,0.2826073,0.16579214,2.2880795,10.117896,-0.50757074,-3.122039
5.8052526,3.8404224,0.2826073,0.16579214,2.2880795,10.117896,-0.50757074,-3.122039
5.806484,3.841651,0.2794115,0.19029322,2.29021,10.1226845,-0.5506664,-3.0550013
5.807717,3.8428743,0.2794115,0.19029322,2.29021,10.1226845,-0.5506664,-3.0550013
5.8089275,3.8440983,0.27728096,0.2179901,2.2870142,10.0508585,-0.545878,-3.0358477
5.8101416,3.84532,0.27728096,0.2179901,2.2870142,10.0508585,-0.545878,-3.0358477
5.811332,3.8465405,0.27408516,0.24462171,2.278492,9.969456,-0.51235914,-2.9831753
5.8125267,3.8477583,0.27408516,0.24462171,2.278492,9.969456,-0.51235914,-2.9831753
5.813697,3.8489742,0.2730199,0.26912278,2.2710352,9.92636,-0.5506664,-3.0071173
5.814871,3.8501878,0.2730199,0.26912278,2.2710352,9.92636,-0.5506664,-3.0071173
5.8160233,3.8514059,0.27408516,0.29468915,2.2635784,9.701305,-0.6560113,-3.016694
5.817176,3.852618,0.27408516,0.29468915,2.2635784,9.701305,-0.6560113,-3.016694
5.818315,3.8538344,0.27515045,0.31492916,2.261448,9.667787,-0.641646,-3.0310593
5.8194575,3.8550484,0.27515045,0.31492916,2.261448,9.667787,-0.641646,-3.0310593
5.820586,3.8562658,0.27728096,0.33303866,2.261448,9.519346,-0.81402856,-3.0454245
5.821717,3.8574796,0.27728096,0.33303866,2.261448,9.519346,-0.81402856,-3.0454245
5.822841,3.8587031,0.28154203,0.34901762,2.2635784,9.275137,-0.93852705,-3.145981
5.8239646,3.8599195,0.28154203,0.34901762,2.2635784,9.275137,-0.93852705,-3.145981
5.8250914,3.8611455,0.28367254,0.36286607,2.2795572,9.155427,-0.93852705,-3.1842883
5.8262916,3.8624446,0.28367254,0.36286607,2.2795572,9.155427,-0.93852705,-3.1842883
5.8262916,3.8624446,0.28367254,0.36286607,2.2795572,9.155427,-0.93852705,-3.1842883
5.8285327,3.8648655,0.28367254,0.37564924,2.3051236,9.112331,-0.9816227,-3.1028855
5.829688,3.8661058,0.28473783,0.38630188,2.3402774,9.097966,-1.0534488,-3.1364043
5.830816,3.8673105,0.28473783,0.38630188,2.3402774,9.097966,-1.0534488,-3.1364043
5.831991,3.8685598,0.28473783,0.39695454,2.3818226,9.02614,-1.2066777,-3.1507695
5.8331766,3.8698127,0.28473783,0.39695454,2.3818226,9.02614,-1.2066777,-3.1507695
5.8343883,3.8710852,0.28686833,0.4065419,2.4308248,8.959103,-1.3982137,-3.1794999
5.835605,3.872356,0.28686833,0.4065419,2.4308248,8.959103,-1.3982137,-3.1794999
5.836851,3.8736503,0.29219466,0.4161293,2.4830227,9.02614,-1.484405,-3.1507695
5.8380995,3.8749404,0.29219466,0.4161293,2.4830227,9.02614,-1.484405,-3.1507695
5.839383,3.8762574,0.29965153,0.42252088,2.5405471,8.901642,-1.6807296,-3.1172507
5.840671,3.8775713,0.29965153,0.42252088,2.5405471,8.901642,-1.6807296,-3.1172507
5.841999,3.8789172,0.30817363,0.42997772,2.6033976,8.872911,-1.8100165,-2.9592333
5.8433304,3.8802586,0.30817363,0.42997772,2.6033976,8.872911,-1.8100165,-2.9592333
5.8447037,3.8816333,0.3209568,0.43530405,2.6715746,8.872911,-1.9871874,-2.920926
5.8460855,3.8830087,0.3209568,0.43530405,2.6715746,8.872911,-1.9871874,-2.920926
5.8475156,3.884425,0.3369358,0.44169563,2.746143,8.853758,-2.1643584,-2.8395233
5.848952,3.8858387,0.3369358,0.44169563,2.746143,8.853758,-2.1643584,-2.8395233
5.850431,3.8872938,0.35824105,0.45021775,2.8228421,8.8777,-2.3750482,-2.8778305
5.8519106,3.8887408,0.35824105,0.45021775,2.8228421,8.8777,-2.3750482,-2.8778305
5.8534527,3.8902454,0.38274214,0.45554405,2.905933,8.930372,-2.5953147,-2.8107927
5.8549957,3.8917418,0.38274214,0.45554405,2.905933,8.930372,-2.5953147,-2.8107927
5.8566027,3.8932922,0.40937376,0.45660934,2.9922192,9.11712,-2.791639,-2.753332
5.858212,3.8948348,0.40937376,0.45660934,2.9922192,9.11712,-2.791639,-2.753332
5.859899,3.8964405,0.44026643,0.45234826,3.0806363,9.184157,-2.8491,-2.7341783
5.861575,3.898025,0.44026643,0.45234826,3.0806363,9.184157,-2.8491,-2.7341783
5.863324,3.8996706,0.47222435,0.45021775,3.1711836,9.212888,-3.0310593,-2.753332
5.865081,3.9013124,0.47222435,0.45021775,3.1711836,9.212888,-3.0310593,-2.753332
5.86691,3.90301,0.5041823,0.44702196,3.2659922,9.303867,-3.1651347,-2.7820623
5.8687377,3.9046946,0.5041823,0.44702196,3.2659922,9.303867,-3.1651347,-2.7820623
5.8706474,3.9064426,0.5372055,0.44702196,3.3671923,9.404425,-3.1603463,-2.882619
5.8725557,3.9081776,0.5372055,0.44702196,3.3671923,9.404425,-3.1603463,-2.882619
5.8745403,3.9099722,0.5670329,0.451283,3.4705229,9.524135,-3.3662477,-2.8491
5.8765297,3.9117584,0.5670329,0.451283,3.4705229,9.524135,-3.3662477,-2.8491
5.8785925,3.9136012,0.59579504,0.45980513,3.5759842,9.734824,-3.4237084,-2.7964275
5.880658,3.915433,0.59579504,0.45980513,3.5759842,9.734824,-3.4237084,-2.7964275
5.8827977,3.9173276,0.6266877,0.47365355,3.6814454,9.816227,-3.5434184,-2.791639
5.884913,3.9191868,0.6266877,0.47365355,3.6814454,9.816227,-3.5434184,-2.791639
5.887121,3.9211302,0.6575804,0.49495885,3.7869065,9.9790325,-3.5242648,-2.681506
5.889335,3.9230635,0.6575804,0.49495885,3.7869065,9.9790325,-3.5242648,-2.681506
5.8916078,3.9250531,0.6852772,0.5226557,3.8891718,10.041282,-3.572149,-2.7102363
5.893886,3.927032,0.6852772,0.5226557,3.8891718,10.041282,-3.572149,-2.7102363
5.8962193,3.9290702,0.71297413,0.5588747,3.9914372,10.132261,-3.6296098,-2.5570073
5.8985586,3.9310973,0.71297413,0.5588747,3.9914372,10.132261,-3.6296098,-2.5570073
5.900947,3.9331818,0.7417363,0.59935474,4.0915723,10.251971,-3.6296098,-2.566584
5.9033422,3.935255,0.7417363,0.59935474,4.0915723,10.251971,-3.6296098,-2.566584
5.905783,3.9373868,0.7704984,0.64516115,4.190642,10.251971,-3.6870706,-2.5905263
5.9082313,3.939506,0.7704984,0.64516115,4.190642,10.251971,-3.6870706,-2.5905263
5.910721,3.9416842,0.79926056,0.6952286,4.2865157,10.266336,-3.7301662,-2.4851813
5.913238,3.9438672,0.79926056,0.6952286,4.2865157,10.266336,-3.7301662,-2.4851813
5.915759,3.9460773,0.8280227,0.7495571,4.3823895,10.146626,-3.7684734,-2.4516625
5.918303,3.9482882,0.8280227,0.7495571,4.3823895,10.146626,-3.7684734,-2.4516625
5.920876,3.950548,0.8546543,0.8060161,4.4729366,9.911995,-3.8259344,-2.5091233
5.925147,3.9543223,0.88022065,0.8624751,4.5656147,9.753978,-3.8977604,-2.4899697
5.9262185,3.95526,0.88022065,0.8624751,4.5656147,9.753978,-3.8977604,-2.4899697
5.928811,3.9575148,0.88022065,0.8624751,4.5656147,9.753978,-3.8977604,-2.4899697
5.93202,3.9603233,0.90472174,0.91786885,4.6572275,9.634268,-3.9264908,-2.5139117
5.935644,3.9635022,0.9270923,0.97219735,4.7499056,9.490616,-3.9504328,-2.456451
5.937116,3.9647818,0.9270923,0.97219735,4.7499056,9.490616,-3.9504328,-2.456451
5.940511,3.967708,0.9270923,0.97219735,4.7499056,9.490616,-3.9504328,-2.456451
5.9425435,3.969467,0.94946283,1.0254606,4.840453,9.275137,-3.9121256,-2.4420857
5.9460444,3.9724667,0.94946283,1.0254606,4.840453,9.275137,-3.9121256,-2.4420857
5.9481363,3.974266,0.9739639,1.0765933,4.9299355,9.131485,-3.964798,-2.4277205
5.9519567,3.977518,0.9739639,1.0765933,4.9299355,9.131485,-3.964798,-2.4277205
5.954122,3.9793649,0.99739975,1.1255955,5.0162215,8.935161,-3.9695864,-2.327164
5.954122,3.9793649,1.0176398,1.172467,5.101443,8.623915,-4.0557775,-2.4133554
5.959372,3.9838305,1.0176398,1.172467,5.101443,8.623915,-4.0557775,-2.4133554
5.9634657,3.9872618,1.0389451,1.2108166,5.1834683,8.48984,-4.0892963,-2.3894134
5.965668,3.9890985,1.0389451,1.2108166,5.1834683,8.48984,-4.0892963,-2.3894134
5.9686995,3.9916043,1.0389451,1.2108166,5.1834683,8.48984,-4.0892963,-2.3894134
5.9716396,3.9940217,1.059185,1.240644,5.2622976,8.494628,-4.271256,-2.3894134
5.9747057,3.996517,1.059185,1.240644,5.2622976,8.494628,-4.271256,-2.3894134
5.977824,3.9990437,1.0826209,1.2672756,5.3379316,8.508993,-4.5202527,-2.2984335
5.9809723,4.001567,1.0826209,1.2672756,5.3379316,8.508993,-4.5202527,-2.2984335
5.9841437,4.004097,1.1081872,1.2896461,5.408239,8.580819,-4.7165775,-2.2697031
5.9882536,4.0073576,1.1358842,1.3088208,5.4732203,8.432379,-4.807557,-2.1499932
5.990551,4.009161,1.1358842,1.3088208,5.4732203,8.432379,-4.807557,-2.1499932
5.993798,4.0116854,1.1358842,1.3088208,5.4732203,8.432379,-4.807557,-2.1499932
5.9970474,4.0142016,1.1646463,1.3237346,5.5339403,8.121132,-4.9895163,-2.1068976
6.0003448,4.0167274,1.1646463,1.3237346,5.5339403,8.121132,-4.9895163,-2.1068976
6.0037394,4.019315,1.1976695,1.3322567,5.5946603,8.049306,-4.9655743,-1.9680338
6.0037394,4.019315,1.1976695,1.3322567,5.5946603,8.049306,-4.9655743,-1.9680338
6.0037394,4.019315,1.1976695,1.3322567,5.5946603,8.049306,-4.9655743,-1.9680338
6.015911,4.0284405,1.2711728,1.3279957,5.7278185,7.1969705,-5.3103395,-1.7908629
6.019164,4.0308194,1.2711728,1.3279957,5.7278185,7.1969705,-5.3103395,-1.7908629
6.0228176,4.033464,1.3105875,1.3162777,5.8045173,6.8665705,-5.4300494,-1.8052281
6.028673,4.0376425,1.3105875,1.3162777,5.8045173,6.8665705,-5.4300494,-1.8052281
6.028673,4.0376425,1.3105875,1.3162777,5.8045173,6.8665705,-5.4300494,-1.8052281
6.031848,4.039873,1.3510675,1.2949724,5.8897386,6.4882865,-5.6407394,-1.8052281
6.035441,4.0423717,1.3510675,1.2949724,5.8897386,6.4882865,-5.6407394,-1.8052281
6.03925,4.044982,1.3936781,1.2672756,5.9813514,6.301539,-5.6886234,-1.8148049
6.0430975,4.0475883,1.3936781,1.2672756,5.9813514,6.301539,-5.6886234,-1.8148049
6.047051,4.0502205,1.4352235,1.2353177,6.0825515,6.244078,-5.865794,-1.7908629
6.0510006,4.0528193,1.4352235,1.2353177,6.0825515,6.244078,-5.865794,-1.7908629
6.0550976,4.055471,1.4788992,1.204425,6.1880126,6.220136,-6.033388,-1.8387469
6.059154,4.0580654,1.4788992,1.204425,6.1880126,6.220136,-6.033388,-1.8387469
6.0633464,4.0607023,1.5204446,1.1788586,6.2988,6.172252,-6.1195793,-1.8770541
6.0675592,4.063321,1.5204446,1.1788586,6.2988,6.172252,-6.1195793,-1.8770541
6.072344,4.066244,1.5619899,1.1532923,6.4095874,6.1770406,-6.220136,-1.8722657
6.0762477,4.0686,1.5619899,1.1532923,6.4095874,6.1770406,-6.220136,-1.8722657
6.080898,4.0713634,1.606731,1.1245302,6.5182447,6.3446345,-6.2823853,-1.8770541
6.085275,4.0739326,1.606731,1.1245302,6.5182447,6.3446345,-6.2823853,-1.8770541
6.089675,4.076477,1.6504068,1.0936375,6.62051,6.397307,-6.4308257,-1.9776106
6.094261,4.079097,1.6504068,1.0936375,6.62051,6.397307,-6.4308257,-1.9776106
6.098958,4.081736,1.6919521,1.0574185,6.717449,6.603208,-6.4260373,-2.0015526
6.103677,4.0843544,1.6919521,1.0574185,6.717449,6.603208,-6.4260373,-2.0015526
6.1084943,4.0869827,1.7324322,1.019069,6.810127,6.9144545,-6.435614,-2.0829554
6.113329,4.089587,1.7324322,1.019069,6.810127,6.9144545,-6.435614,-2.0829554
6.118266,4.092204,1.7697165,0.9775236,6.8921523,7.086837,-6.4882865,-2.1308396
6.1232157,4.094794,1.7697165,0.9775236,6.8921523,7.086837,-6.4882865,-2.1308396
6.1282597,4.09739,1.8027396,0.9349131,6.9635253,7.1730285,-6.5696893,-2.231396
6.1333203,4.0999613,1.8027396,0.9349131,6.9635253,7.1730285,-6.5696893,-2.231396
6.138462,4.102534,1.8357629,0.88804144,7.0210495,7.40766,-6.5936313,-2.2170308
6.143616,4.105079,1.8357629,0.88804144,7.0210495,7.40766,-6.5936313,-2.2170308
6.148856,4.1076307,1.8698514,0.83371294,7.066856,7.7667904,-6.670246,-2.1978772
6.1541023,4.1101522,1.8698514,0.83371294,7.066856,7.7667904,-6.670246,-2.1978772
6.1594195,4.112676,1.9028745,0.7783192,7.099879,7.9248075,-6.7324953,-2.15957
6.1647425,4.1151705,1.9028745,0.7783192,7.099879,7.9248075,-6.7324953,-2.15957
6.1701317,4.117669,1.936963,0.7218602,7.1211843,8.178593,-6.751649,-2.1691468
6.1755376,4.120143,1.936963,0.7218602,7.1211843,8.178593,-6.751649,-2.1691468
6.1809874,4.122613,1.9699862,0.66540116,7.136098,8.446744,-6.7372837,-2.1787236
6.186465,4.125064,1.9699862,0.66540116,7.136098,8.446744,-6.7372837,-2.1787236
6.19197,4.1275077,2.0030093,0.60894215,7.14462,8.714894,-6.813898,-2.1308396
6.197497,4.1299295,2.0030093,0.60894215,7.14462,8.714894,-6.813898,-2.1308396
6.2030654,4.1323557,2.0381632,0.55035263,7.1435547,8.968679,-6.83784,-2.1452048
6.208645,4.1347556,2.0381632,0.55035263,7.1435547,8.968679,-6.83784,-2.1452048
6.214258,4.1371613,2.0733168,0.4938936,7.1350327,9.112331,-6.9719152,-2.1787236
6.2198925,4.1395464,2.0733168,0.4938936,7.1350327,9.112331,-6.9719152,-2.1787236
6.22554,4.1419296,2.10634,0.43849984,7.1211843,9.275137,-7.038953,-2.0590134
6.2311974,4.144288,2.10634,0.43849984,7.1211843,9.275137,-7.038953,-2.0590134
6.236888,4.146658,2.1414938,0.38097554,7.1030746,9.509769,-7.1730285,-1.7860745
6.242588,4.1490035,2.1414938,0.38097554,7.1030746,9.509769,-7.1730285,-1.7860745
6.248311,4.151362,2.1809084,0.32345128,7.0817695,9.734824,-7.2927384,-1.7525556
6.254038,4.153694,2.1809084,0.32345128,7.0817695,9.734824,-7.2927384,-1.7525556
6.2597756,4.156039,2.223519,0.27018806,7.0583334,10.213664,-7.249643,-1.8866309
6.265534,4.1583657,2.223519,0.27018806,7.0583334,10.213664,-7.249643,-1.8866309
6.271301,4.1607084,2.2661297,0.22331642,7.030637,10.323798,-7.2687964,-2.1499932
6.2770767,4.1630287,2.2661297,0.22331642,7.030637,10.323798,-7.2687964,-2.1499932
6.282852,4.165361,2.3012834,0.18496689,6.9976134,10.395624,-7.297527,-2.27928
0.0054513286,4.1676702,2.3012834,0.18496689,6.9976134,10.395624,-7.297527,-2.27928
0.011234066,4.169987,2.3300455,0.1519437,6.965656,10.371682,-7.359776,-2.2936451
0.017025346,4.172282,2.3300455,0.1519437,6.965656,10.371682,-7.359776,-2.2936451
0.022814587,4.1745863,2.3566773,0.12637734,6.931567,10.251971,-7.441179,-2.303222
0.028600529,4.176865,2.3566773,0.12637734,6.931567,10.251971,-7.441179,-2.303222
0.034387723,4.1791534,2.3843741,0.102941535,6.902805,10.271125,-7.441179,-2.3080103
0.040183038,4.1814213,2.3843741,0.102941535,6.902805,10.271125,-7.441179,-2.3080103
0.04597683,4.183697,2.412071,0.08376677,6.8804345,10.199299,-7.3645644,-2.2888567
0.05177856,4.185953,2.412071,0.08376677,6.8804345,10.199299,-7.3645644,-2.2888567
0.057579063,4.188217,2.4397678,0.070983596,6.8633904,10.070012,-7.321469,-2.384625
0.063387364,4.1904616,2.4397678,0.070983596,6.8633904,10.070012,-7.321469,-2.384625
0.069198266,4.1927114,2.4663994,0.06459201,6.854868,9.993398,-7.101202,-2.5091233
0.07501695,4.1949415,2.4663994,0.06459201,6.854868,9.993398,-7.101202,-2.5091233
0.08083735,4.1971784,2.48877,0.06565727,6.8495417,9.097966,-7.3071036,-2.408567
0.08666534,4.199396,2.48877,0.06565727,6.8495417,9.097966,-7.3071036,-2.408567
0.092507325,4.2016115,2.50901,0.0677878,6.859129,9.184157,-7.0581064,-2.5378537
0.098362684,4.2038097,2.50901,0.0677878,6.859129,9.184157,-7.0581064,-2.5378537
0.10423175,4.206002,2.5292501,0.07311413,6.8836303,8.987833,-6.885724,-2.5953147
0.1101141,4.2081785,2.5292501,0.07311413,6.8836303,8.987833,-6.885724,-2.5953147
0.11602282,4.210347,2.5462942,0.086962566,6.9155884,8.695741,-6.861782,-2.825158
0.12193893,4.2124968,2.5462942,0.086962566,6.9155884,8.695741,-6.861782,-2.825158
0.12789051,4.214635,2.5601428,0.10720259,6.9603295,8.374918,-6.7229185,-2.906561
0.13384938,4.216754,2.5601428,0.10720259,6.9603295,8.374918,-6.7229185,-2.906561
0.13984327,4.218859,2.5707953,0.13596474,7.0093317,7.848193,-6.8522053,-2.9352913
0.14584439,4.2209444,2.5707953,0.13596474,7.0093317,7.848193,-6.8522053,-2.9352913
0.15188904,4.22301,2.5803828,0.16898793,7.0689864,7.6470804,-6.564901,-2.9400797
0.15794086,4.2250557,2.5803828,0.16898793,7.0689864,7.6470804,-6.564901,-2.9400797
0.16405106,4.227083,2.5921006,0.20307639,7.145685,7.417237,-6.5984197,-2.9161377
0.17016841,4.2290907,2.5921006,0.20307639,7.145685,7.417237,-6.5984197,-2.9161377
0.17634933,4.231077,2.6059492,0.24249117,7.2319717,7.1730285,-6.5744777,-3.0214825
0.18253732,4.2330427,2.6059492,0.24249117,7.2319717,7.1730285,-6.5744777,-3.0214825
0.18879269,4.2349896,2.621928,0.28616703,7.3225193,7.0341644,-6.5505357,-2.944868
0.19505501,4.2369156,2.621928,0.28616703,7.3225193,7.0341644,-6.5505357,-2.944868
0.20138834,4.2388206,2.6400375,0.3372997,7.4205236,6.9862804,-6.579266,-2.896984
0.20772865,4.240703,2.6400375,0.3372997,7.4205236,6.9862804,-6.579266,-2.896984
0.21413526,4.242566,2.662408,0.3980198,7.518528,6.9048777,-6.7085533,-2.906561
0.22054888,4.244406,2.662408,0.3980198,7.518528,6.9048777,-6.7085533,-2.906561
0.22701976,4.24623,2.6922355,0.46619672,7.6090755,6.909666,-6.6415157,-2.882619
0.23350406,4.2480316,2.6922355,0.46619672,7.6090755,6.909666,-6.6415157,-2.882619
0.24002765,4.249816,2.7263238,0.5450263,7.693231,6.7564373,-6.751649,-2.96881
0.24655165,4.251574,2.7263238,0.5450263,7.693231,6.7564373,-6.751649,-2.96881
0.25311387,4.25332,2.7646735,0.62918216,7.764604,6.2728086,-6.7947445,-2.992752
0.25968298,4.255042,2.7646735,0.62918216,7.764604,6.2728086,-6.7947445,-2.992752
0.26627827,4.256752,2.8051536,0.709077,7.8263893,5.803545,-6.6175733,-2.9017725
0.2728805,4.258436,2.8051536,0.709077,7.8263893,5.803545,-6.6175733,-2.9017725
0.27951843,4.2601175,2.8466988,0.77299285,7.8881745,5.554548,-6.8043213,-2.6384103
0.2861634,4.2617717,2.8466988,0.77299285,7.8881745,5.554548,-6.8043213,-2.6384103
0.29285395,4.263424,2.8893094,0.82092977,7.953156,5.449203,-6.933608,-2.4756045
0.29955813,4.26505,2.8893094,0.82092977,7.953156,5.449203,-6.933608,-2.4756045
0.30630755,4.266672,2.93192,0.8592793,8.019202,5.626374,-7.029376,-2.3127987
0.31305698,4.268265,2.93192,0.8592793,8.019202,5.626374,-7.029376,-2.3127987
0.31986037,4.2698555,2.9734652,0.8923025,8.078857,5.7029886,-7.2783732,-2.2744915
0.3266704,4.271418,2.9734652,0.8923025,8.078857,5.7029886,-7.2783732,-2.2744915
0.33352482,4.2729816,3.0160758,0.92426044,8.127859,5.377377,-7.5465236,-2.183512
0.340379,4.2745147,3.0160758,0.92426044,8.127859,5.377377,-7.5465236,-2.183512
0.34725907,4.2760463,3.0576212,0.95408785,8.168339,5.3821654,-7.8050976,-1.982399
0.3541525,4.2775493,3.0576212,0.95408785,8.168339,5.3821654,-7.8050976,-1.982399
0.36107245,4.2790494,3.097036,0.9796542,8.201363,5.257667,-7.800309,-1.8674773
0.3679988,4.2805195,3.097036,0.9796542,8.201363,5.257667,-7.800309,-1.8674773
0.37495267,4.2819843,3.1343203,1.0041553,8.23332,5.5401826,-8.1881695,-1.6998832
0.37495267,4.2819843,3.1343203,1.0041553,8.23332,5.5401826,-8.1881695,-1.6998832
0.39122316,4.2853017,3.1726696,1.0254606,8.256756,5.8083334,-8.537724,-1.5849615
0.39604464,4.2862635,3.1726696,1.0254606,8.256756,5.8083334,-8.537724,-1.5849615
0.40291193,4.28763,3.2067583,1.0531574,8.268474,5.554548,-8.6813755,-1.4269443
0.40291193,4.28763,3.2067583,1.0531574,8.268474,5.554548,-8.6813755,-1.4269443
0.40291193,4.28763,3.2067583,1.0531574,8.268474,5.554548,-8.6813755,-1.4269443
0.40291193,4.28763,3.2067583,1.0531574,8.268474,5.554548,-8.6813755,-1.4269443
0.43175557,4.2931523,3.2589562,1.1351827,8.262082,5.6359506,-8.973468,-0.9720459
0.43175557,4.2931523,3.2589562,1.1351827,8.262082,5.6359506,-8.973468,-0.9720459
0.44887087,4.296154,3.278131,1.1873808,8.242908,5.923255,-9.394848,-1.0869676
0.45599148,4.29735,3.2941098,1.2374482,8.206689,4.7740383,-7.97748,-1.1827357
0.4612912,4.29822,3.2941098,1.2374482,8.206689,4.7740383,-7.97748,-1.1827357
0.46658686,4.299069,3.2941098,1.2374482,8.206689,4.7740383,-7.97748,-1.1827357
0.47301555,4.300066,3.2898488,1.2875156,8.145968,7.776367,-8.619126,-0.34476504
0.4798944,4.3010974,3.2898488,1.2875156,8.145968,7.776367,-8.619126,-0.34476504
0.48633566,4.302006,3.278131,1.38552,8.077792,6.6271505,-8.585608,-0.4165911
0.48633566,4.302006,3.278131,1.38552,8.077792,6.6271505,-8.585608,-0.4165911
0.48633566,4.302006,3.278131,1.38552,8.077792,6.6271505,-8.585608,-0.4165911
0.5083462,4.3048434,3.2610867,1.5943117,7.8306503,7.302315,-9.136273,0.6895301
0.5133638,4.3054185,3.2610867,1.5943117,7.8306503,7.302315,-9.136273,0.6895301
0.5133638,4.3054185,3.2610867,1.5943117,7.8306503,7.302315,-9.136273,0.6895301
0.5283252,4.3070025,3.2546952,1.6667497,7.627185,7.929596,-6.847417,0.49320555
0.5324951,4.3074174,3.2546952,1.6667497,7.627185,7.929596,-6.847417,0.49320555
0.5324951,4.3074174,3.2546952,1.6667497,7.627185,7.929596,-6.847417,0.49320555
0.5480403,4.3089437,3.222737,1.8286699,7.0700517,3.98874,-7.101202,0.14844051
0.5504153,4.3091693,3.222737,1.8286699,7.0700517,3.98874,-7.101202,0.14844051
0.5561752,4.3096914,3.222737,1.8286699,7.0700517,3.98874,-7.101202,0.14844051
0.5615458,4.31014,3.162017,1.8872595,6.8186493,3.1507695,-7.374141,-0.11971009
0.5670706,4.3105693,3.162017,1.8872595,6.8186493,3.1507695,-7.374141,-0.11971009
0.5723889,4.310912,3.0736,1.925609,6.5938783,3.6343982,-7.359776,0.37828386
0.57744694,4.3112087,3.0736,1.925609,6.5938783,3.6343982,-7.359776,0.37828386
0.5824505,4.311418,2.963878,1.9522406,6.3733687,4.213795,-7.359776,1.3024458
0.5874549,4.3115973,2.963878,1.9522406,6.3733687,4.213795,-7.359776,1.3024458
0.5874549,4.3115973,2.963878,1.9522406,6.3733687,4.213795,-7.359776,1.3024458
0.59924465,4.3117313,2.8456335,1.9841986,6.1400757,4.5298295,-7.374141,2.0254946
0.60329485,4.3116713,2.7284546,2.0289397,5.8886733,4.132392,-7.369353,2.5139117
0.6076827,4.3115807,2.7284546,2.0289397,5.8886733,4.132392,-7.369353,2.5139117
0.6120788,4.311388,2.6155365,2.077942,5.6223574,3.5194764,-7.273585,2.834735
0.6120788,4.311388,2.6155365,2.077942,5.6223574,3.5194764,-7.273585,2.834735
0.61902404,4.3109007,2.501553,2.1205523,5.352845,2.3511062,-7.517793,3.040636
0.62267107,4.3106146,2.501553,2.1205523,5.352845,2.3511062,-7.517793,3.040636
0.6264719,4.3102207,2.391831,2.1535757,5.093986,1.3263878,-7.6231384,2.8682537
0.63025993,4.309804,2.391831,2.1535757,5.093986,1.3263878,-7.6231384,2.8682537
0.63382435,4.3093185,2.2885003,2.174881,4.8543015,0.6847417,-7.091625,3.0023289
0.6373865,4.3088107,2.2885003,2.174881,4.8543015,0.6847417,-7.091625,3.0023289
0.6407536,4.3082457,2.186235,2.1738157,4.6252694,0.34476504,-6.6654577,2.9496565
0.6441015,4.3076625,2.186235,2.1738157,4.6252694,0.34476504,-6.6654577,2.9496565
0.6472535,4.3070183,2.0733168,2.1620977,4.397303,0.40222588,-6.181829,2.9161377
0.6504029,4.3063545,2.0733168,2.1620977,4.397303,0.40222588,-6.181829,2.9161377
0.6533287,4.3056393,1.9518766,2.1535757,4.151227,-0.6895301,-5.9759274,2.6623523
0.656252,4.304905,1.9518766,2.1535757,4.151227,-0.6895301,-5.9759274,2.6623523
0.6590054,4.304115,1.8208492,2.1248136,3.9030204,-1.9440918,-6.0142345,2.3702598
0.66168535,4.303328,1.8208492,2.1248136,3.9030204,-1.9440918,-6.0142345,2.3702598
0.66421044,4.302494,1.6770384,2.063028,3.6665316,-2.8443117,-6.133945,2.2601264
0.6667351,4.3016434,1.6770384,2.063028,3.6665316,-2.8443117,-6.133945,2.2601264
0.6690913,4.3007607,1.5215099,1.9682196,3.4406955,-2.825158,-6.4787097,2.2888567
0.67144024,4.2998652,1.5215099,1.9682196,3.4406955,-2.825158,-6.4787097,2.2888567
0.67362964,4.2989483,1.360655,1.8563669,3.221251,-2.9400797,-6.5265937,2.4181437
0.6758184,4.2980185,1.360655,1.8563669,3.221251,-2.9400797,-6.5265937,2.4181437
0.67785066,4.2970786,1.2072568,1.7413182,3.0007412,-2.9735985,-6.4308257,2.5091233
0.6798821,4.2961273,1.2072568,1.7413182,3.0007412,-2.9735985,-6.4308257,2.5091233
0.68176085,4.295177,1.0570545,1.6209434,2.7791662,-3.2465374,-6.4787097,2.6671407
0.6836332,4.294219,1.0570545,1.6209434,2.7791662,-3.2465374,-6.4787097,2.6671407
0.6853584,4.29327,0.91004807,1.4952421,2.559722,-3.5098996,-6.5601125,2.767697
0.6870815,4.2923136,0.91004807,1.4952421,2.559722,-3.5098996,-6.5601125,2.767697
0.6886666,4.29138,0.77262896,1.3642147,2.3487995,-3.7062242,-6.6079965,2.7724855
0.69024336,4.2904425,0.77262896,1.3642147,2.3487995,-3.7062242,-6.6079965,2.7724855
0.69170177,4.289535,0.64373195,1.2278608,2.1485298,-3.7972038,-6.5840545,2.858677
0.6931816,4.2886066,0.64373195,1.2278608,2.1485298,-3.7972038,-6.5840545,2.858677
0.6944939,4.28775,0.51803076,1.087246,1.9557168,-3.7780502,-6.6079965,2.9496565
0.6958221,4.2868767,0.51803076,1.087246,1.9557168,-3.7780502,-6.6079965,2.9496565
0.69704074,4.2860456,0.39446005,0.94663095,1.7724915,-3.8881836,-6.6415157,2.8682537
0.6982592,4.28521,0.39446005,0.94663095,1.7724915,-3.8881836,-6.6415157,2.8682537
0.69937503,4.284417,0.2762157,0.80921185,1.5967227,-3.9312792,-6.7372837,2.8299465
0.70048755,4.2836227,0.2762157,0.80921185,1.5967227,-3.9312792,-6.7372837,2.8299465
0.70150596,4.282873,0.1622324,0.672858,1.4305415,-3.9983168,-6.8665705,2.7485435
0.7025224,4.2821217,0.1622324,0.672858,1.4305415,-3.9983168,-6.8665705,2.7485435
0.7034531,4.2814164,0.047183845,0.53437364,1.2707518,-4.1659107,-6.7372837,2.657564
0.7043878,4.280705,0.047183845,0.53437364,1.2707518,-4.1659107,-6.7372837,2.657564
0.7052187,4.2800403,-0.068929985,0.39908504,1.118419,-3.7205894,-8.00621,3.1124623
0.7060529,4.279371,-0.068929985,0.39908504,1.118419,-3.7205894,-8.00621,3.1124623
0.7068166,4.27875,-0.17226063,0.26912278,0.9724778,-4.807557,-8.590396,3.0262709
0.70757663,4.2781305,-0.17226063,0.26912278,0.9724778,-4.807557,-8.590396,3.0262709
0.7082734,4.277609,-0.24895968,0.10720259,0.8222755,-4.8506527,-8.781932,2.9735985
0.7089608,4.277093,-0.24895968,0.10720259,0.8222755,-4.8506527,-8.781932,2.9735985
0.70959336,4.276695,-0.3139408,-0.06750078,0.68059534,-4.3382936,-8.700529,2.9400797
0.7102245,4.2762966,-0.3139408,-0.06750078,0.68059534,-4.3382936,-8.700529,2.9400797
0.7108095,4.2760158,-0.37785667,-0.23900835,0.5527636,-4.3766007,-8.887277,2.954445
0.7113995,4.275732,-0.37785667,-0.23900835,0.5527636,-4.3766007,-8.887277,2.954445
0.7119443,4.2755604,-0.43751147,-0.4051896,0.43664977,-3.6487634,-9.102755,3.1124623
0.7124898,4.2753882,-0.43751147,-0.4051896,0.43664977,-3.6487634,-9.102755,3.1124623
0.71300423,4.275313,-0.49183998,-0.55113083,0.33651492,-3.5817258,-9.490616,3.2321723
0.7135187,4.2752376,-0.49183998,-0.55113083,0.33651492,-3.5817258,-9.490616,3.2321723
0.7140061,4.2752504,-0.53977686,-0.6842889,0.24916324,-3.1747115,-9.619903,3.2082303
0.71449375,4.2752633,-0.53977686,-0.6842889,0.24916324,-3.1747115,-9.619903,3.2082303
0.7149603,4.275353,-0.58025694,-0.8004027,0.17672525,-2.743755,-9.677363,3.1172507
0.71542674,4.2754436,-0.58025694,-0.8004027,0.17672525,-2.743755,-9.677363,3.1172507
0.71587825,4.2755914,-0.6175412,-0.894146,0.11920097,-2.6431987,-9.720459,3.0502129
0.7163311,4.27574,-0.6175412,-0.894146,0.11920097,-2.6431987,-9.720459,3.0502129
0.71677375,4.2759237,-0.65482545,-0.9676492,0.07765566,-2.0350714,-9.821015,3.1890767
0.7172151,4.276108,-0.65482545,-0.9676492,0.07765566,-2.0350714,-9.821015,3.1890767
0.7176862,4.2763166,-0.6921097,-1.0187819,0.052089307,-1.5993267,-9.643845,3.4332852
0.7181232,4.276511,-0.6921097,-1.0187819,0.052089307,-1.5993267,-9.643845,3.4332852
0.7185239,4.2766876,-0.7304592,-1.0486094,0.02652296,-0.05267244,-10.184934,3.4237084
0.71893686,4.2768703,-0.7304592,-1.0486094,0.02652296,-0.05267244,-10.184934,3.4237084
0.7193335,4.2770467,-0.76561296,-1.0656536,-0.0033044433,-0.45010993,-10.419566,3.2561142
0.71973026,4.2772236,-0.76561296,-1.0656536,-0.0033044433,-0.45010993,-10.419566,3.2561142
0.7201017,4.277393,-0.78585297,-1.0677841,-0.029936055,-0.39264908,-10.457873,2.9879637
0.72047347,4.277563,-0.78585297,-1.0677841,-0.029936055,-0.39264908,-10.457873,2.9879637
0.72082615,4.277711,-0.8018319,-1.0571314,-0.041653965,0.009576807,-10.67814,2.873042
0.7211782,4.2778597,-0.8018319,-1.0571314,-0.041653965,0.009576807,-10.67814,2.873042
0.72151774,4.2779636,-0.8156804,-1.023043,-0.037392907,0.61770403,-10.754754,2.8634653
0.72185695,4.2780676,-0.8156804,-1.023043,-0.037392907,0.61770403,-10.754754,2.8634653
0.7221804,4.2781067,-0.8273983,-0.96445346,-0.025674997,1.2354081,-10.759542,2.944868
0.7225038,4.2781463,-0.8273983,-0.96445346,-0.025674997,1.2354081,-10.759542,2.944868
0.7228025,4.278119,-0.8327246,-0.8909502,-0.01928341,1.3599066,-11.070788,3.098097
0.7231012,4.278093,-0.8327246,-0.8909502,-0.01928341,1.3599066,-11.070788,3.098097
0.72337097,4.278006,-0.8295288,-0.8121206,-0.016087618,1.3790601,-11.405977,3.3566709
0.7236414,4.27792,-0.8295288,-0.8121206,-0.016087618,1.3790601,-11.405977,3.3566709
0.7238847,4.2777834,-0.8156804,-0.7354216,-0.008630766,1.3790601,-11.75553,3.3854012
0.72412866,4.2776475,-0.8156804,-0.7354216,-0.008630766,1.3790601,-11.75553,3.3854012
0.72435534,4.2774734,-0.7869182,-0.6587226,0.008413466,1.2401965,-12.047623,3.323152
0.72458214,4.277299,-0.7869182,-0.6587226,0.008413466,1.2401965,-12.047623,3.323152
0.7248042,4.2770944,-0.74750346,-0.58415407,0.038240872,1.0726024,-12.287044,3.289633
0.7250271,4.2768893,-0.74750346,-0.58415407,0.038240872,1.0726024,-12.287044,3.289633
0.7252563,4.276664,-0.6963707,-0.5127813,0.07978618,0.80445176,-12.5264635,3.1172507
0.7254857,4.2764387,-0.6963707,-0.5127813,0.07978618,0.80445176,-12.5264635,3.1172507
0.7257377,4.2761974,-0.6377812,-0.4446044,0.13731046,0.51714754,-12.722788,3.040636
0.72600186,4.275945,-0.6377812,-0.4446044,0.13731046,0.51714754,-12.722788,3.040636
0.72628826,4.2756944,-0.57280004,-0.38068852,0.20974845,0.35913026,-12.885593,2.9113493
0.72657293,4.275445,-0.57280004,-0.38068852,0.20974845,0.35913026,-12.885593,2.9113493
0.7269129,4.275182,-0.5024926,-0.31890318,0.29496962,0.15801731,-13.067553,2.8778305
0.72725487,4.2749166,-0.5024926,-0.31890318,0.29496962,0.15801731,-13.067553,2.8778305
0.7276606,4.2746487,-0.42366305,-0.2613789,0.39297393,-0.05267244,-13.081918,2.8395233
0.7280674,4.2743797,-0.42366305,-0.2613789,0.39297393,-0.05267244,-13.081918,2.8395233
0.72854924,4.2741103,-0.34270296,-0.21024622,0.50056565,-0.12928689,-13.283031,2.8107927
0.7290318,4.2738404,-0.34270296,-0.21024622,0.50056565,-0.12928689,-13.283031,2.8107927
0.729599,4.273573,-0.25748178,-0.16230932,0.6166795,-0.08140286,-13.321339,2.8634653
0.73016626,4.273305,-0.25748178,-0.16230932,0.6166795,-0.08140286,-13.321339,2.8634653
0.73082453,4.2730446,-0.16267325,-0.113307156,0.7402502,-0.11971009,-12.919112,2.6767175
0.7314808,4.2727847,-0.16267325,-0.113307156,0.7402502,-0.11971009,-12.919112,2.6767175
0.73223084,4.2725406,-0.065734185,-0.07176184,0.86275554,-0.33039984,-12.751518,2.4229321
