Pitch,Roll,Gyro_X,Gyro_Y,Gyro_Z,Accel_X,Accel_Y,Accel_Z
0.10987622,4.66994,-0.06787529,0.046405688,-0.06584617,-1.13964,-9.80665,-0.60812724
0.109768964,4.6695952,-0.06894055,0.046405688,-0.06691143,-1.0821792,-9.782708,-0.56982
0.109768964,4.6695952,-0.06894055,0.046405688,-0.06691143,-1.0821792,-9.782708,-0.56982
0.109644905,4.669244,-0.07320161,0.04853622,-0.064780906,-1.1061212,-9.821015,-0.61770403
0.10959001,4.6690664,-0.07320161,0.04853622,-0.064780906,-1.1061212,-9.821015,-0.61770403
0.10951008,4.668888,-0.07426687,0.050666746,-0.064780906,-1.0582372,-9.768343,-0.5554548
0.1094292,4.668708,-0.07426687,0.050666746,-0.064780906,-1.0582372,-9.768343,-0.5554548
0.10935234,4.668528,-0.075332135,0.050666746,-0.062650375,-1.0534488,-9.710882,-0.545878
0.10927593,4.6683483,-0.075332135,0.050666746,-0.062650375,-1.0534488,-9.710882,-0.545878
0.109194174,4.668168,-0.076397404,0.05173201,-0.062650375,-1.0486604,-9.696517,-0.521936
0.10911273,4.667988,-0.076397404,0.05173201,-0.062650375,-1.0486604,-9.696517,-0.521936
0.109016865,4.667805,-0.077462666,0.052797277,-0.060519844,-1.0103531,-9.701305,-0.59376204
0.10892288,4.6676264,-0.077462666,0.052797277,-0.060519844,-1.0103531,-9.701305,-0.59376204
0.108822875,4.6674447,-0.0795932,0.052797277,-0.060519844,-1.0055647,-9.682152,-0.5746084
0.10872303,4.6672635,-0.0795932,0.052797277,-0.060519844,-1.0055647,-9.682152,-0.5746084
0.108652025,4.667079,-0.0795932,0.05173201,-0.059454583,-1.0390835,-9.672575,-0.6368576
0.10858078,4.6668925,-0.0795932,0.05173201,-0.059454583,-1.0390835,-9.672575,-0.6368576
0.108505435,4.666707,-0.08172372,0.050666746,-0.059454583,-1.0199299,-9.591172,-0.63206923
0.10843034,4.666521,-0.08172372,0.050666746,-0.059454583,-1.0199299,-9.591172,-0.63206923
0.10835491,4.6663322,-0.08385425,0.050666746,-0.058389317,-1.0199299,-9.600749,-0.62249243
0.108279735,4.6661434,-0.08385425,0.050666746,-0.058389317,-1.0199299,-9.600749,-0.62249243
0.10821376,4.6659546,-0.08385425,0.050666746,-0.05732405,-1.0247183,-9.548077,-0.6799533
0.10814764,4.6657643,-0.08385425,0.050666746,-0.05732405,-1.0247183,-9.548077,-0.6799533
0.108048595,4.665579,-0.08385425,0.049601484,-0.05732405,-0.9576807,-9.528923,-0.6368576
0.107950315,4.6653943,-0.08385425,0.049601484,-0.05732405,-0.9576807,-9.528923,-0.6368576
0.10784311,4.6652083,-0.08491952,0.049601484,-0.05732405,-0.93852705,-9.552865,-0.6464345
0.10773736,4.665025,-0.08491952,0.049601484,-0.05732405,-0.93852705,-9.552865,-0.6464345
0.10759926,4.664851,-0.08598478,0.04853622,-0.058389317,-0.89543146,-9.509769,-0.59376204
0.10746076,4.664677,-0.08598478,0.04853622,-0.058389317,-0.89543146,-9.509769,-0.59376204
0.10732294,4.6645026,-0.08491952,0.047470953,-0.06158511,-0.90500826,-9.514558,-0.59376204
0.10718486,4.6643286,-0.08491952,0.047470953,-0.06158511,-0.90500826,-9.514558,-0.59376204
0.10703605,4.664159,-0.08385425,0.047470953,-0.064780906,-0.93373865,-9.442732,-0.5363012
0.10688706,4.663989,-0.08385425,0.047470953,-0.064780906,-0.93373865,-9.442732,-0.5363012
0.106746584,4.6638155,-0.08385425,0.047470953,-0.06584617,-0.94331545,-9.471462,-0.545878
0.10660608,4.6636415,-0.08385425,0.047470953,-0.06584617,-0.94331545,-9.471462,-0.545878
0.10649012,4.6634603,-0.08278899,0.046405688,-0.064780906,-0.9528923,-9.485827,-0.58418524
0.10637441,4.663279,-0.08278899,0.046405688,-0.064780906,-0.9528923,-9.485827,-0.58418524
0.10637441,4.663279,-0.08278899,0.046405688,-0.064780906,-0.9528923,-9.485827,-0.58418524
0.10623436,4.663035,-0.08065846,0.045340426,-0.064780906,-0.9768343,-9.433155,-0.545878
0.10614816,4.662884,-0.08065846,0.045340426,-0.064780906,-0.9768343,-9.433155,-0.545878
0.10604196,4.662709,-0.07852793,0.045340426,-0.060519844,-0.9720459,-9.457097,-0.545878
0.10574671,4.662448,-0.075332135,0.045340426,-0.056258786,-0.94331545,-9.490616,-0.47884035
0.10555943,4.662363,-0.075332135,0.045340426,-0.056258786,-0.94331545,-9.490616,-0.47884035
0.105386786,4.6622324,-0.07107108,0.046405688,-0.05519352,-0.9672575,-9.481039,-0.49320555
0.105386786,4.6622324,-0.07107108,0.046405688,-0.05519352,-0.9672575,-9.481039,-0.49320555
0.10520944,4.662099,-0.07107108,0.046405688,-0.05519352,-0.9672575,-9.481039,-0.49320555
0.10500945,4.6617765,-0.06681002,0.046405688,-0.05412826,-0.9720459,-9.471462,-0.5363012
0.1048712,4.6616282,-0.06361423,0.04853622,-0.05412826,-0.90979666,-9.457097,-0.5650316
0.104732856,4.66148,-0.06361423,0.04853622,-0.05412826,-0.90979666,-9.457097,-0.5650316
0.10458082,4.6613436,-0.05935317,0.04853622,-0.053062994,-0.89543146,-9.485827,-0.5602432
0.10442913,4.6612067,-0.05935317,0.04853622,-0.053062994,-0.89543146,-9.485827,-0.5602432
0.10427726,4.661075,-0.05509211,0.047470953,-0.053062994,-0.89064306,-9.457097,-0.5602432
0.10412436,4.6609426,-0.05509211,0.047470953,-0.053062994,-0.89064306,-9.457097,-0.5602432
0.104005836,4.6607966,-0.05189632,0.047470953,-0.053062994,-0.90979666,-9.452309,-0.59855044
0.10388751,4.660651,-0.05189632,0.047470953,-0.053062994,-0.90979666,-9.452309,-0.59855044
0.103747375,4.6605167,-0.050831053,0.045340426,-0.053062994,-0.8714894,-9.433155,-0.59376204
0.10360708,4.6603823,-0.050831053,0.045340426,-0.053062994,-0.8714894,-9.433155,-0.59376204
0.10348496,4.6602407,-0.048700526,0.045340426,-0.053062994,-0.8571242,-9.409213,-0.6512229
0.103362955,4.6601,-0.048700526,0.045340426,-0.053062994,-0.8571242,-9.409213,-0.6512229
0.10322494,4.659969,-0.046569996,0.04427516,-0.05199773,-0.8571242,-9.385271,-0.60333884
0.103087105,4.6598377,-0.046569996,0.04427516,-0.05199773,-0.8571242,-9.385271,-0.60333884
0.10295265,4.659707,-0.04443947,0.043209895,-0.05199773,-0.866701,-9.428367,-0.60812724
0.10281841,4.6595764,-0.04443947,0.043209895,-0.05199773,-0.866701,-9.428367,-0.60812724
0.102671005,4.6594563,-0.042308938,0.04214463,-0.05199773,-0.8523358,-9.41879,-0.59376204
0.102523446,4.659335,-0.042308938,0.04214463,-0.05199773,-0.8523358,-9.41879,-0.59376204
0.10236755,4.659223,-0.04017841,0.040014103,-0.05199773,-0.8331822,-9.356541,-0.58418524
0.10221117,4.65911,-0.04017841,0.040014103,-0.05199773,-0.8331822,-9.356541,-0.58418524
0.10204914,4.659007,-0.03698262,0.037883572,-0.05199773,-0.82360536,-9.404425,-0.58418524
0.10188663,4.6589026,-0.03698262,0.037883572,-0.05199773,-0.82360536,-9.404425,-0.58418524
0.10172882,4.658799,-0.033786822,0.035753045,-0.05199773,-0.8331822,-9.346964,-0.5793968
0.10157053,4.6586947,-0.033786822,0.035753045,-0.05199773,-0.8331822,-9.346964,-0.5793968
0.101390645,4.658621,-0.029525764,0.035753045,-0.0498672,-0.81402856,-9.332599,-0.545878
0.1012105,4.6585464,-0.029525764,0.035753045,-0.0498672,-0.81402856,-9.332599,-0.545878
0.10103634,4.6584773,-0.025264706,0.033622514,-0.045606144,-0.82360536,-9.361329,-0.545878
0.10086197,4.6584077,-0.025264706,0.033622514,-0.045606144,-0.82360536,-9.361329,-0.545878
0.100687124,4.658351,-0.021003649,0.031491987,-0.041345086,-0.79008657,-9.370906,-0.545878
0.100510806,4.6582937,-0.021003649,0.031491987,-0.041345086,-0.79008657,-9.370906,-0.545878
0.10033726,4.6582923,-0.017807856,0.029361458,-0.034953497,-0.842759,-9.370906,-0.49320555
0.100164294,4.6582913,-0.017807856,0.029361458,-0.034953497,-0.842759,-9.370906,-0.49320555
0.10001556,4.6582203,-0.013546798,0.028296193,-0.029627176,-0.8619126,-9.332599,-0.5410896
0.09986736,4.6581497,-0.013546798,0.028296193,-0.029627176,-0.8619126,-9.332599,-0.5410896
0.09970895,4.6581035,-0.010351005,0.0251004,-0.025366118,-0.8523358,-9.375694,-0.5315128
0.09955049,4.6580567,-0.010351005,0.0251004,-0.025366118,-0.8523358,-9.375694,-0.5315128
0.09955049,4.6580567,-0.010351005,0.0251004,-0.025366118,-0.8523358,-9.375694,-0.5315128
0.09940888,4.658114,-0.010351005,0.022969872,-0.018974531,-0.8523358,-9.375694,-0.45968673
0.099263676,4.6581726,-0.010351005,0.022969872,-0.018974531,-0.8523358,-9.375694,-0.45968673
0.09914905,4.658206,-0.009285741,0.021904606,-0.01151768,-0.8858546,-9.3661175,-0.48841715
0.09897684,4.658325,-0.0050246827,0.017643549,-0.0029955646,-0.90979666,-9.385271,-0.45010993
0.09893484,4.658414,-0.0050246827,0.017643549,-0.0029955646,-0.90979666,-9.385271,-0.45010993
0.098799944,4.6584044,-0.0018288894,0.01551302,0.005526551,-0.89543146,-9.44752,-0.51235914
0.098665744,4.658395,-0.0018288894,0.01551302,0.005526551,-0.89543146,-9.44752,-0.51235914
0.09858069,4.6584635,-0.0007636249,0.011251962,0.014048667,-0.89064306,-9.394848,-0.47884035
0.098495916,4.6585326,-0.0007636249,0.011251962,0.014048667,-0.89064306,-9.394848,-0.47884035
0.098509155,4.6586323,0.00030163955,0.008056169,0.021505518,-0.92416185,-9.409213,-0.4261679
0.09852192,4.6587296,0.00030163955,0.008056169,0.021505518,-0.92416185,-9.409213,-0.4261679
0.09854748,4.6588297,0.001366904,0.0069909045,0.027897105,-0.92895025,-9.394848,-0.46447513
0.09857236,4.6589293,0.001366904,0.0069909045,0.027897105,-0.92895025,-9.394848,-0.46447513
0.09856469,4.659027,0.003497433,0.003795111,0.035353955,-0.92895025,-9.404425,-0.49799395
0.0985502,4.6591244,0.003497433,0.003795111,0.035353955,-0.92895025,-9.404425,-0.49799395
0.09869006,4.6591997,0.0066932263,0.0016645822,0.041745543,-0.93852705,-9.41879,-0.49799395
0.09882797,4.6592784,0.0066932263,0.0016645822,0.041745543,-0.93852705,-9.41879,-0.49799395
0.098807834,4.659373,0.0077584907,0.0005993177,0.047071867,-0.90500826,-9.385271,-0.46447513
0.09878667,4.6594677,0.0077584907,0.0005993177,0.047071867,-0.90500826,-9.385271,-0.46447513
0.098827824,4.6595764,0.00988902,-0.0025964756,0.05133292,-0.91937345,-9.394848,-0.37828386
0.09886864,4.6596856,0.00988902,-0.0025964756,0.05133292,-0.91937345,-9.394848,-0.37828386
0.09899981,4.659612,0.010954284,-0.00366174,0.055593982,-0.94331545,-9.380483,-0.50757074
0.09912759,4.6595383,0.010954284,-0.00366174,0.055593982,-0.94331545,-9.380483,-0.50757074
0.09930307,4.6594944,0.012019549,-0.005792269,0.058789775,-0.94810385,-9.380483,-0.50278234
0.09947617,4.659449,0.012019549,-0.005792269,0.058789775,-0.94810385,-9.380483,-0.50278234
0.09942047,4.6595154,0.012019549,-0.008988062,0.061985567,-0.92895025,-9.380483,-0.49320555
0.09936117,4.6595774,0.012019549,-0.008988062,0.061985567,-0.92895025,-9.380483,-0.49320555
0.099434905,4.6596904,0.013084813,-0.012183856,0.06305083,-0.94331545,-9.394848,-0.4405331
0.09950733,4.6598034,0.013084813,-0.012183856,0.06305083,-0.94331545,-9.394848,-0.4405331
0.0996502,4.6598988,0.012019549,-0.014314385,0.0641161,-0.9528923,-9.356541,-0.47405192
0.099791296,4.659995,0.012019549,-0.014314385,0.0641161,-0.9528923,-9.356541,-0.47405192
0.09991851,4.660096,0.012019549,-0.015379649,0.061985567,-1.0007763,-9.3661175,-0.40701428
0.10004532,4.6601977,0.012019549,-0.015379649,0.061985567,-1.0007763,-9.3661175,-0.40701428
0.10012525,4.66031,0.012019549,-0.017510178,0.061985567,-0.9528923,-9.409213,-0.45010993
0.100203976,4.660422,0.012019549,-0.017510178,0.061985567,-0.9528923,-9.409213,-0.45010993
0.1002325,4.6605325,0.012019549,-0.019640706,0.0609203,-0.92895025,-9.375694,-0.44532153
0.100259595,4.660642,0.012019549,-0.019640706,0.0609203,-0.92895025,-9.375694,-0.44532153
0.10039305,4.6607423,0.012019549,-0.020705972,0.06305083,-1.0007763,-9.461885,-0.4309563
0.1005258,4.6608424,0.012019549,-0.020705972,0.06305083,-1.0007763,-9.461885,-0.4309563
0.10063574,4.660951,0.012019549,-0.021771235,0.06518136,-0.9911995,-9.433155,-0.40222588
0.100744784,4.66106,0.012019549,-0.021771235,0.06518136,-0.9911995,-9.433155,-0.40222588
0.100817315,4.661173,0.012019549,-0.023901764,0.06624663,-0.9624691,-9.485827,-0.4405331
0.10088853,4.6612864,0.012019549,-0.023901764,0.06624663,-0.9624691,-9.485827,-0.4405331
0.10098754,4.661397,0.010954284,-0.02496703,0.06837715,-0.9816227,-9.519346,-0.4309563
0.101085156,4.661507,0.010954284,-0.02496703,0.06837715,-0.9816227,-9.519346,-0.4309563
0.1012491,4.6615953,0.010954284,-0.023901764,0.07263821,-1.0247183,-9.509769,-0.4357447
0.10141322,4.661684,0.010954284,-0.023901764,0.07263821,-1.0247183,-9.509769,-0.4357447
0.1015734,4.6617775,0.013084813,-0.0228365,0.07476874,-1.0342951,-9.504981,-0.4213795
0.10173357,4.6618714,0.013084813,-0.0228365,0.07476874,-1.0342951,-9.504981,-0.4213795
0.101907775,4.6619577,0.012019549,-0.021771235,0.075834006,-1.0342951,-9.519346,-0.4357447
0.102080084,4.6620436,0.012019549,-0.021771235,0.075834006,-1.0342951,-9.519346,-0.4357447
0.10229644,4.6620426,0.012019549,-0.021771235,0.07796454,-1.0726024,-9.595961,-0.49320555
0.1025136,4.6620407,0.012019549,-0.021771235,0.07796454,-1.0726024,-9.595961,-0.49320555
0.10273185,4.662075,0.010954284,-0.019640706,0.08116033,-1.0821792,-9.610326,-0.46926352
0.102950074,4.6621103,0.010954284,-0.019640706,0.08116033,-1.0821792,-9.610326,-0.46926352
0.10315449,4.6621695,0.00988902,-0.018575443,0.08116033,-1.0773908,-9.648633,-0.45489833
0.10335873,4.6622286,0.00988902,-0.018575443,0.08116033,-1.0773908,-9.648633,-0.45489833
0.10356744,4.662196,0.0077584907,-0.016444914,0.08009506,-1.1348516,-9.643845,-0.5267244
0.10377617,4.6621637,0.0077584907,-0.016444914,0.08009506,-1.1348516,-9.643845,-0.5267244
0.10399114,4.6621447,0.0066932263,-0.01324912,0.0790298,-1.13964,-9.706094,-0.51235914
0.10420623,4.662126,0.0066932263,-0.01324912,0.0790298,-1.13964,-9.706094,-0.51235914
0.10434958,4.6620426,0.003497433,-0.008988062,0.075834006,-1.1109096,-9.725247,-0.60812724
0.10449246,4.6619587,0.003497433,-0.008988062,0.075834006,-1.1109096,-9.725247,-0.60812724
0.10470505,4.6619444,0.001366904,-0.005792269,0.073703475,-1.1109096,-9.77792,-0.50278234
0.104917385,4.6619306,0.001366904,-0.005792269,0.073703475,-1.1109096,-9.77792,-0.50278234
0.105048835,4.661841,0.00030163955,-0.0025964756,0.06944242,-1.1492168,-9.739613,-0.6655881
0.105180666,4.661751,0.00030163955,-0.0025964756,0.06944242,-1.1492168,-9.739613,-0.6655881
0.10530214,4.6616573,-0.0018288894,-0.00046594674,0.06305083,-1.1109096,-9.749189,-0.61770403
0.10542282,4.661564,-0.0018288894,-0.00046594674,0.06305083,-1.1109096,-9.749189,-0.61770403
0.105521195,4.6614666,-0.0018288894,-0.00046594674,0.056659244,-1.091756,-9.792285,-0.61770403
0.105620146,4.6613693,-0.0018288894,-0.00046594674,0.056659244,-1.091756,-9.792285,-0.61770403
0.10572759,4.661276,-0.0018288894,0.0016645822,0.04813713,-1.1109096,-9.782708,-0.60812724
0.10583459,4.6611834,-0.0018288894,0.0016645822,0.04813713,-1.1109096,-9.782708,-0.60812724
0.105907634,4.6610837,-0.0018288894,0.0027298466,0.03854975,-1.0726024,-9.782708,-0.58897364
0.10597996,4.6609845,-0.0018288894,0.0027298466,0.03854975,-1.0726024,-9.782708,-0.58897364
0.106073245,4.6608944,-0.0007636249,0.0027298466,0.02896237,-1.091756,-9.792285,-0.56982
0.106166154,4.6608043,-0.0007636249,0.0027298466,0.02896237,-1.091756,-9.792285,-0.56982
0.106268525,4.660724,0.001366904,0.0027298466,0.020440254,-1.1061212,-9.792285,-0.5650316
0.10637084,4.660644,0.001366904,0.0027298466,0.020440254,-1.1061212,-9.792285,-0.5650316
0.10648819,4.6605816,0.0045626974,0.003795111,0.011918138,-1.163582,-9.787497,-0.5793968
0.10660526,4.6605196,0.0045626974,0.003795111,0.011918138,-1.163582,-9.787497,-0.5793968
0.106714636,4.660458,0.0066932263,0.0048603755,0.005526551,-1.1444284,-9.753978,-0.56982
0.10682369,4.6603966,0.0066932263,0.0048603755,0.005526551,-1.1444284,-9.753978,-0.56982
0.10690756,4.660485,0.00988902,0.0048603755,-0.0008650357,-1.091756,-9.739613,-0.46447513
0.10699153,4.660573,0.00988902,0.0048603755,-0.0008650357,-1.091756,-9.739613,-0.46447513
0.10703041,4.660491,0.015215342,0.0048603755,-0.0051260935,-1.1013328,-9.753978,-0.61770403
0.10706823,4.660412,0.015215342,0.0048603755,-0.0051260935,-1.1013328,-9.753978,-0.61770403
0.10719724,4.660451,0.018411135,0.00592564,-0.006191358,-1.1444284,-9.763555,-0.49320555
0.10732866,4.6604905,0.018411135,0.00592564,-0.006191358,-1.1444284,-9.763555,-0.49320555
0.10744013,4.66046,0.02160693,0.00592564,-0.008321887,-1.1109096,-9.749189,-0.5315128
0.107551016,4.660429,0.02160693,0.00592564,-0.008321887,-1.1109096,-9.749189,-0.5315128
0.10766087,4.660401,0.023737457,0.003795111,-0.010452416,-1.1683705,-9.77792,-0.5554548
0.10777027,4.6603727,0.023737457,0.003795111,-0.010452416,-1.1683705,-9.77792,-0.5554548
0.10789596,4.660426,0.026933251,0.003795111,-0.009387151,-1.1109096,-9.763555,-0.49799395
0.10802129,4.660478,0.026933251,0.003795111,-0.009387151,-1.1109096,-9.763555,-0.49799395
0.108114555,4.660575,0.02906378,0.003795111,-0.009387151,-1.1109096,-9.763555,-0.47405192
0.108207695,4.6606708,0.02906378,0.003795111,-0.009387151,-1.1109096,-9.763555,-0.47405192
0.10829337,4.6606293,0.032259572,0.0027298466,-0.008321887,-1.0821792,-9.730036,-0.521936
0.108378805,4.6605873,0.032259572,0.0027298466,-0.008321887,-1.0821792,-9.730036,-0.521936
0.108378805,4.6605873,0.032259572,0.0027298466,-0.008321887,-1.0821792,-9.730036,-0.521936
0.10862319,4.660568,0.034390103,0.0016645822,-0.004060829,-1.1109096,-9.744401,-0.521936
0.10862319,4.660568,0.034390103,0.0016645822,-0.004060829,-1.1109096,-9.744401,-0.521936
0.1088622,4.6607404,0.03545537,-0.00046594674,0.00020022877,-1.0869676,-9.720459,-0.49320555
0.1088622,4.6607404,0.03652063,-0.00046594674,0.0012654932,-1.0582372,-9.739613,-0.521936
0.10879107,4.6606317,0.03652063,-0.00046594674,0.0012654932,-1.0582372,-9.739613,-0.521936
0.10877425,4.6606045,0.03652063,-0.00046594674,0.0012654932,-1.0582372,-9.739613,-0.521936
0.10872596,4.6607018,0.037585896,-0.00046594674,0.0023307577,-1.0534488,-9.749189,-0.48841715
0.10866382,4.660825,0.037585896,-0.00046594674,0.0023307577,-1.0534488,-9.749189,-0.48841715
0.10857305,4.6609483,0.037585896,-0.0015312112,0.0033960221,-1.0247183,-9.725247,-0.46926352
0.10849082,4.6610584,0.037585896,-0.0015312112,0.0033960221,-1.0247183,-9.725247,-0.46926352
0.1083728,4.661043,0.03865116,-0.0015312112,0.0044612866,-1.0199299,-9.715671,-0.51714754
0.10825871,4.6610274,0.03865116,-0.0015312112,0.0065918155,-1.0007763,-9.710882,-0.5650316
0.10813664,4.6609406,0.03865116,-0.0015312112,0.0065918155,-1.0007763,-9.710882,-0.5650316
0.10813664,4.6609406,0.03865116,-0.0015312112,0.0065918155,-1.0007763,-9.710882,-0.5650316
0.108012006,4.660845,0.03865116,-0.0025964756,0.0065918155,-1.0007763,-9.691729,-0.5650316
0.10796999,4.6607924,0.039716423,-0.0047270046,0.008722344,-0.9959879,-9.706094,-0.62249243
0.10793406,4.660738,0.039716423,-0.0047270046,0.008722344,-0.9959879,-9.706094,-0.62249243
0.10789764,4.660685,0.040781688,-0.0047270046,0.009787609,-0.9864111,-9.68694,-0.63206923
0.10786136,4.660632,0.040781688,-0.0047270046,0.009787609,-0.9864111,-9.68694,-0.63206923
0.10782157,4.6605797,0.040781688,-0.0047270046,0.009787609,-0.9911995,-9.68694,-0.61291564
0.107781775,4.660527,0.040781688,-0.0047270046,0.009787609,-0.9911995,-9.68694,-0.61291564
0.10775328,4.660474,0.041846953,-0.00366174,0.009787609,-0.9959879,-9.68694,-0.6368576
0.107724726,4.6604195,0.041846953,-0.00366174,0.009787609,-0.9959879,-9.68694,-0.6368576
0.10769463,4.660365,0.040781688,-0.00366174,0.009787609,-1.0007763,-9.682152,-0.61770403
0.10766437,4.6603103,0.040781688,-0.00366174,0.009787609,-1.0007763,-9.682152,-0.61770403
0.10764352,4.6602545,0.040781688,-0.00366174,0.009787609,-1.0295067,-9.662998,-0.5554548
0.10762263,4.660198,0.040781688,-0.00366174,0.009787609,-1.0295067,-9.662998,-0.5554548
0.10758153,4.6601458,0.039716423,-0.0025964756,0.010852873,-0.9959879,-9.648633,-0.58897364
0.10754034,4.660093,0.039716423,-0.0025964756,0.010852873,-0.9959879,-9.648633,-0.58897364
0.10751846,4.6600337,0.037585896,-0.00046594674,0.011918138,-1.0151415,-9.65821,-0.58897364
0.1074966,4.6599746,0.037585896,-0.00046594674,0.011918138,-1.0151415,-9.65821,-0.58897364
0.10744247,4.6599197,0.033324838,0.0005993177,0.011918138,-1.0103531,-9.730036,-0.5650316
0.1073886,4.659865,0.033324838,0.0005993177,0.011918138,-1.0103531,-9.730036,-0.5650316
0.107388645,4.659794,0.030129045,0.003795111,0.012983402,-1.0295067,-9.677363,-0.63206923
0.10738865,4.659725,0.030129045,0.003795111,0.012983402,-1.0295067,-9.677363,-0.63206923
0.10739126,4.6596527,0.027998514,0.0069909045,0.014048667,-1.043872,-9.744401,-0.58897364
0.10739365,4.6595807,0.027998514,0.0069909045,0.014048667,-1.043872,-9.744401,-0.58897364
0.10742319,4.6595063,0.025867987,0.008056169,0.015113931,-1.0630256,-9.753978,-0.5793968
0.10745239,4.659432,0.025867987,0.008056169,0.015113931,-1.0630256,-9.753978,-0.5793968
0.10748434,4.659356,0.024802722,0.009121433,0.01724446,-1.0726024,-9.782708,-0.61770403
0.107516035,4.659281,0.024802722,0.009121433,0.01724446,-1.0726024,-9.782708,-0.61770403
0.107611045,4.6592183,0.022672193,0.011251962,0.019374989,-1.115698,-9.840169,-0.5793968
0.10770603,4.659155,0.022672193,0.011251962,0.019374989,-1.115698,-9.840169,-0.5793968
0.10784189,4.6591206,0.02160693,0.014447756,0.019374989,-1.091756,-9.80665,-0.5363012
0.1079774,4.6590853,0.02160693,0.014447756,0.019374989,-1.091756,-9.80665,-0.5363012
0.1081294,4.6591353,0.019476399,0.018708814,0.021505518,-1.1348516,-9.830592,-0.50757074
0.10828165,4.6591854,0.019476399,0.018708814,0.021505518,-1.1348516,-9.830592,-0.50757074
0.10842854,4.6591587,0.018411135,0.019774077,0.021505518,-1.1492168,-9.854534,-0.5506664
0.108575225,4.659131,0.018411135,0.019774077,0.021505518,-1.1492168,-9.854534,-0.5506664
0.10869672,4.6590786,0.018411135,0.019774077,0.020440254,-1.1204864,-9.830592,-0.5554548
0.10881787,4.6590257,0.018411135,0.019774077,0.020440254,-1.1204864,-9.830592,-0.5554548
0.10889322,4.658951,0.017345872,0.019774077,0.016179197,-1.1013328,-9.811439,-0.5650316
0.1089682,4.6588755,0.017345872,0.019774077,0.016179197,-1.1013328,-9.811439,-0.5650316
0.109057456,4.658807,0.016280606,0.020839343,0.010852873,-1.1252748,-9.768343,-0.5793968
0.10914653,4.658738,0.016280606,0.020839343,0.010852873,-1.1252748,-9.768343,-0.5793968
0.109231584,4.6586695,0.016280606,0.021904606,0.0065918155,-1.1252748,-9.758766,-0.5793968
0.10931643,4.658601,0.016280606,0.021904606,0.0065918155,-1.1252748,-9.758766,-0.5793968
0.10945605,4.6586165,0.016280606,0.021904606,0.0012654932,-1.1109096,-9.792285,-0.5267244
0.10959679,4.6586323,0.016280606,0.021904606,0.0012654932,-1.1109096,-9.792285,-0.5267244
0.109617904,4.658744,0.017345872,0.022969872,-0.0051260935,-1.0821792,-9.720459,-0.48362875
0.10963935,4.6588564,0.017345872,0.022969872,-0.0051260935,-1.0821792,-9.720459,-0.48362875
0.10964654,4.658971,0.018411135,0.021904606,-0.012582945,-1.0869676,-9.725247,-0.45010993
0.10965394,4.6590853,0.018411135,0.021904606,-0.012582945,-1.0869676,-9.725247,-0.45010993
0.10962086,4.6592007,0.018411135,0.019774077,-0.02110506,-1.067814,-9.744401,-0.46447513
0.10962086,4.6592007,0.018411135,0.019774077,-0.02110506,-1.067814,-9.744401,-0.46447513
0.10962356,4.659424,0.019476399,0.019774077,-0.026431382,-1.1109096,-9.706094,-0.45968673
0.10966153,4.6595287,0.019476399,0.019774077,-0.026431382,-1.1109096,-9.706094,-0.45968673
0.10973789,4.6596074,0.020541664,0.018708814,-0.031757705,-1.1444284,-9.634268,-0.46447513
0.1098162,4.6596875,0.020541664,0.018708814,-0.031757705,-1.1444284,-9.634268,-0.46447513
0.10984862,4.6597967,0.023737457,0.017643549,-0.033888236,-1.1204864,-9.662998,-0.4405331
0.1098815,4.6599054,0.023737457,0.017643549,-0.033888236,-1.1204864,-9.662998,-0.4405331
0.1098815,4.6599054,0.024802722,0.01551302,-0.037084028,-1.1252748,-9.691729,-0.4165911
0.10991387,4.660134,0.024802722,0.01551302,-0.037084028,-1.1252748,-9.691729,-0.4165911
0.10991387,4.660134,0.026933251,0.016578285,-0.039214555,-1.13964,-9.715671,-0.36870706
0.10991843,4.660256,0.026933251,0.016578285,-0.039214555,-1.13964,-9.715671,-0.36870706
0.10992307,4.6603723,0.026933251,0.01551302,-0.03814929,-1.1252748,-9.662998,-0.38307226
0.10992923,4.6604943,0.026933251,0.01551302,-0.03814929,-1.1252748,-9.662998,-0.38307226
0.10993562,4.660614,0.02906378,0.012317227,-0.037084028,-1.1492168,-9.634268,-0.34955344
0.10996363,4.6608505,0.02906378,0.012317227,-0.037084028,-1.1492168,-9.634268,-0.34955344
0.10996363,4.6608505,0.030129045,0.012317227,-0.037084028,-1.1300632,-9.68694,-0.33518824
0.10996056,4.6609783,0.030129045,0.012317227,-0.037084028,-1.1300632,-9.68694,-0.33518824
0.10995781,4.6611032,0.030129045,0.010186698,-0.034953497,-1.1444284,-9.634268,-0.41180268
0.11004294,4.661323,0.030129045,0.010186698,-0.034953497,-1.1444284,-9.634268,-0.41180268
0.11004294,4.661323,0.031194309,0.010186698,-0.03069244,-1.1348516,-9.581595,-0.37828386
0.11007243,4.6614456,0.031194309,0.010186698,-0.03069244,-1.1348516,-9.581595,-0.37828386
0.11010148,4.661565,0.030129045,0.011251962,-0.028561912,-1.1300632,-9.586384,-0.35913026
0.11014242,4.661805,0.030129045,0.011251962,-0.028561912,-1.1300632,-9.586384,-0.35913026
0.11014242,4.661805,0.030129045,0.012317227,-0.025366118,-1.1348516,-9.624691,-0.41180268
0.11019355,4.6619205,0.030129045,0.012317227,-0.025366118,-1.1348516,-9.624691,-0.41180268
0.110230595,4.662159,0.030129045,0.012317227,-0.022170324,-1.0773908,-9.643845,-0.36870706
0.110230595,4.662159,0.030129045,0.012317227,-0.022170324,-1.0773908,-9.643845,-0.36870706
0.11021591,4.662285,0.030129045,0.011251962,-0.022170324,-1.0773908,-9.548077,-0.45010993
0.110292606,4.662522,0.030129045,0.011251962,-0.022170324,-1.0773908,-9.548077,-0.45010993
0.110292606,4.662522,0.026933251,0.012317227,-0.02323559,-1.0630256,-9.581595,-0.4309563
0.11027006,4.66265,0.026933251,0.012317227,-0.02323559,-1.0630256,-9.581595,-0.4309563
0.110248595,4.6627755,0.025867987,0.011251962,-0.022170324,-1.0295067,-9.543288,-0.34955344
0.1101614,4.663018,0.025867987,0.011251962,-0.022170324,-1.0295067,-9.543288,-0.34955344
0.1101614,4.663018,0.022672193,0.010186698,-0.020039797,-1.0151415,-9.562442,-0.4357447
0.11004826,4.663119,0.022672193,0.010186698,-0.020039797,-1.0151415,-9.562442,-0.4357447
0.10993781,4.663217,0.022672193,0.010186698,-0.020039797,-1.0342951,-9.552865,-0.45489833
0.109700926,4.663395,0.019476399,0.010186698,-0.020039797,-1.0342951,-9.552865,-0.45489833
0.109700926,4.663395,0.019476399,0.010186698,-0.020039797,-1.0342951,-9.552865,-0.45489833
0.10954191,4.663374,0.017345872,0.011251962,-0.022170324,-1.0055647,-9.457097,-0.47405192
0.10939412,4.6633534,0.0141500775,0.012317227,-0.02323559,-1.0199299,-9.500193,-0.48841715
0.10928421,4.6632886,0.0141500775,0.012317227,-0.02323559,-1.0199299,-9.500193,-0.48841715
0.109045684,4.6632996,0.012019549,0.012317227,-0.025366118,-1.0151415,-9.509769,-0.45010993
0.10891509,4.6633773,0.012019549,0.012317227,-0.025366118,-1.0151415,-9.509769,-0.45010993
0.10875927,4.663348,0.008823755,0.013382491,-0.025366118,-0.9911995,-9.490616,-0.47884035
0.1086038,4.6633186,0.008823755,0.013382491,-0.025366118,-0.9911995,-9.490616,-0.47884035
0.10847125,4.663383,0.003497433,0.013382491,-0.02323559,-1.0247183,-9.490616,-0.45968673
0.10833752,4.6634493,0.003497433,0.013382491,-0.02323559,-1.0247183,-9.490616,-0.45968673
0.10826218,4.6635437,0.0024321685,0.014447756,-0.024300855,-1.0151415,-9.495404,-0.4309563
0.1081879,4.6636367,0.0024321685,0.014447756,-0.024300855,-1.0151415,-9.495404,-0.4309563
0.10809183,4.6637225,0.00030163955,0.017643549,-0.024300855,-0.9911995,-9.457097,-0.4165911
0.10799739,4.6638064,0.00030163955,0.017643549,-0.024300855,-0.9911995,-9.457097,-0.4165911
0.10783565,4.663817,-0.0028941538,0.018708814,-0.022170324,-0.9816227,-9.452309,-0.45489833
0.107674465,4.663827,-0.0028941538,0.018708814,-0.022170324,-0.9816227,-9.452309,-0.45489833
0.1075866,4.663907,-0.006089947,0.020839343,-0.022170324,-0.9720459,-9.485827,-0.3878607
0.10749907,4.663987,-0.006089947,0.020839343,-0.022170324,-0.9720459,-9.485827,-0.3878607
0.10736616,4.6640387,-0.008220476,0.021904606,-0.022170324,-0.94810385,-9.500193,-0.4165911
0.1072336,4.66409,-0.008220476,0.021904606,-0.022170324,-0.94810385,-9.500193,-0.4165911
0.10707339,4.664063,-0.012481534,0.022969872,-0.020039797,-0.94810385,-9.476251,-0.46447513
0.10691379,4.6640363,-0.012481534,0.022969872,-0.020039797,-0.94810385,-9.476251,-0.46447513
0.10675479,4.6640058,-0.014612063,0.0251004,-0.018974531,-0.9624691,-9.485827,-0.46447513
0.106596015,4.6639752,-0.014612063,0.0251004,-0.018974531,-0.9624691,-9.485827,-0.46447513
0.106555045,4.6638565,-0.017807856,0.026165664,-0.016844003,-1.0151415,-9.504981,-0.47405192
0.10651516,4.663738,-0.017807856,0.026165664,-0.016844003,-1.0151415,-9.504981,-0.47405192
0.1064344,4.663803,-0.019938385,0.02723093,-0.014713474,-0.9959879,-9.485827,-0.4357447
0.10635472,4.663869,-0.019938385,0.02723093,-0.014713474,-0.9959879,-9.485827,-0.4357447
0.10634758,4.663944,-0.022068914,0.028296193,-0.010452416,-1.0103531,-9.44752,-0.44532153
0.106341265,4.664018,-0.022068914,0.028296193,-0.010452416,-1.0103531,-9.44752,-0.44532153
0.10630437,4.664089,-0.02313418,0.029361458,-0.006191358,-1.0103531,-9.495404,-0.44532153
0.106268674,4.6641607,-0.02313418,0.029361458,-0.006191358,-1.0103531,-9.495404,-0.44532153
0.106125645,4.664115,-0.024199443,0.029361458,-0.004060829,-0.9672575,-9.495404,-0.46447513
0.105982125,4.66407,-0.024199443,0.029361458,-0.004060829,-0.9672575,-9.495404,-0.46447513
0.10589713,4.664123,-0.024199443,0.029361458,-0.0019303001,-0.9720459,-9.490616,-0.4213795
0.105811775,4.664177,-0.024199443,0.029361458,-0.0019303001,-0.9720459,-9.490616,-0.4213795
0.10576736,4.6642447,-0.024199443,0.02723093,0.0012654932,-0.9816227,-9.481039,-0.40222588
0.1057232,4.6643114,-0.024199443,0.02723093,0.0012654932,-0.9816227,-9.481039,-0.40222588
0.105592094,4.6643157,-0.022068914,0.02723093,0.0044612866,-0.9816227,-9.457097,-0.45010993
0.105461806,4.664321,-0.022068914,0.02723093,0.0044612866,-0.9816227,-9.457097,-0.45010993
0.105416745,4.6643867,-0.024199443,0.02723093,0.0065918155,-0.9720459,-9.476251,-0.39743748
0.10537198,4.6644526,-0.024199443,0.02723093,0.0065918155,-0.9720459,-9.476251,-0.39743748
0.10540381,4.664522,-0.025264706,0.026165664,0.008722344,-1.0103531,-9.485827,-0.4309563
0.10543512,4.6645923,-0.025264706,0.026165664,0.008722344,-1.0103531,-9.485827,-0.4309563
0.105381705,4.6646523,-0.026329972,0.0251004,0.010852873,-0.9720459,-9.495404,-0.40701428
0.10532874,4.664712,-0.026329972,0.0251004,0.010852873,-0.9720459,-9.495404,-0.40701428
0.105328724,4.6647825,-0.026329972,0.024035135,0.011918138,-0.9959879,-9.524135,-0.34955344
0.10532864,4.664852,-0.026329972,0.024035135,0.011918138,-0.9959879,-9.524135,-0.34955344
0.105478875,4.664845,-0.025264706,0.020839343,0.014048667,-1.0390835,-9.471462,-0.44532153
0.10562853,4.6648383,-0.025264706,0.020839343,0.014048667,-1.0390835,-9.471462,-0.44532153
0.10578259,4.6647983,-0.025264706,0.018708814,0.016179197,-1.0295067,-9.524135,-0.45489833
0.10593728,4.6647606,-0.025264706,0.018708814,0.016179197,-1.0295067,-9.524135,-0.45489833
0.10593728,4.6647606,-0.025264706,0.018708814,0.016179197,-1.0295067,-9.524135,-0.45489833
0.10601745,4.6648498,-0.024199443,0.016578285,0.016179197,-1.0630256,-9.514558,-0.34955344
0.106062174,4.6649,-0.024199443,0.016578285,0.016179197,-1.0630256,-9.514558,-0.34955344
0.10616908,4.6649504,-0.02313418,0.01551302,0.015113931,-1.0773908,-9.524135,-0.40222588
0.106279574,4.665003,-0.02313418,0.01551302,0.015113931,-1.0773908,-9.524135,-0.40222588
0.1063656,4.665083,-0.02313418,0.012317227,0.01724446,-1.0486604,-9.557653,-0.40701428
0.10642076,4.665135,-0.02313418,0.012317227,0.01724446,-1.0486604,-9.557653,-0.40701428
0.1065815,4.665115,-0.02313418,0.010186698,0.019374989,-1.0869676,-9.562442,-0.45010993
0.10679186,4.665089,-0.02313418,0.010186698,0.019374989,-1.0821792,-9.543288,-0.49799395
0.106967695,4.664933,-0.02313418,0.008056169,0.019374989,-1.0821792,-9.543288,-0.49799395
0.10712243,4.6648927,-0.022068914,0.003795111,0.016179197,-1.0773908,-9.5385,-0.45968673
0.10712243,4.6648927,-0.022068914,0.003795111,0.016179197,-1.0773908,-9.5385,-0.45968673
0.107283935,4.664851,-0.022068914,0.003795111,0.016179197,-1.0773908,-9.5385,-0.45968673
0.10755063,4.6647053,-0.022068914,0.0027298466,0.018309724,-1.1300632,-9.562442,-0.49799395
0.10755063,4.6647053,-0.022068914,0.0027298466,0.018309724,-1.1300632,-9.562442,-0.49799395
0.10781604,4.6645465,-0.021003649,0.0016645822,0.018309724,-1.0965444,-9.500193,-0.48841715
0.107956715,4.66448,-0.018873122,-0.00046594674,0.01724446,-1.091756,-9.572019,-0.47884035
0.10809796,4.6644144,-0.018873122,-0.00046594674,0.01724446,-1.091756,-9.572019,-0.47884035
0.10818324,4.6643105,-0.017807856,-0.0015312112,0.015113931,-1.067814,-9.572019,-0.49320555
0.10826884,4.664206,-0.017807856,-0.0015312112,0.015113931,-1.067814,-9.572019,-0.49320555
0.108397715,4.664133,-0.01674259,-0.00366174,0.014048667,-1.0965444,-9.595961,-0.48841715
0.10852671,4.6640596,-0.01674259,-0.00366174,0.014048667,-1.0965444,-9.595961,-0.48841715
0.10860786,4.663957,-0.014612063,-0.005792269,0.015113931,-1.091756,-9.562442,-0.5267244
0.10868897,4.663854,-0.014612063,-0.005792269,0.015113931,-1.091756,-9.562442,-0.5267244
0.10882599,4.6637936,-0.0114162695,-0.005792269,0.015113931,-1.115698,-9.552865,-0.49320555
0.108962916,4.663733,-0.0114162695,-0.005792269,0.015113931,-1.115698,-9.552865,-0.49320555
0.109035596,4.6636314,-0.010351005,-0.0047270046,0.015113931,-1.091756,-9.552865,-0.5363012
0.10910808,4.6635303,-0.010351005,-0.0047270046,0.015113931,-1.091756,-9.552865,-0.5363012
0.10919248,4.6634355,-0.008220476,-0.005792269,0.015113931,-1.115698,-9.562442,-0.5506664
0.10927682,4.6633406,-0.008220476,-0.005792269,0.015113931,-1.115698,-9.562442,-0.5506664
0.10934043,4.66324,-0.008220476,-0.0068575335,0.011918138,-1.0869676,-9.581595,-0.5315128
0.1094039,4.6631393,-0.008220476,-0.0068575335,0.011918138,-1.0869676,-9.581595,-0.5315128
0.10952589,4.663064,-0.0071552116,-0.007922798,0.010852873,-1.0965444,-9.610326,-0.49799395
0.10963804,4.662995,-0.0071552116,-0.007922798,0.010852873,-1.0965444,-9.610326,-0.49799395
0.10971748,4.662903,-0.0050246827,-0.007922798,0.010852873,-1.1300632,-9.610326,-0.5650316
0.10979613,4.6628113,-0.0050246827,-0.007922798,0.010852873,-1.1300632,-9.610326,-0.5650316
0.10989834,4.662732,-0.0039594183,-0.007922798,0.008722344,-1.13964,-9.595961,-0.5410896
0.10999905,4.6626534,-0.0039594183,-0.007922798,0.008722344,-1.13964,-9.595961,-0.5410896
0.110116094,4.662587,-0.0028941538,-0.0068575335,0.008722344,-1.0965444,-9.619903,-0.49799395
0.11023364,4.662521,-0.0028941538,-0.0068575335,0.008722344,-1.0965444,-9.619903,-0.49799395
0.11024013,4.662417,-0.0039594183,-0.005792269,0.008722344,-1.0630256,-9.615114,-0.60333884
0.1102465,4.6623135,-0.0039594183,-0.005792269,0.008722344,-1.0630256,-9.615114,-0.60333884
0.11018447,4.6622243,-0.0039594183,-0.005792269,0.008722344,-1.0486604,-9.643845,-0.50757074
0.11012279,4.6621366,-0.0039594183,-0.005792269,0.008722344,-1.0486604,-9.643845,-0.50757074
0.11011493,4.6620336,-0.0039594183,-0.005792269,0.00765708,-1.0582372,-9.643845,-0.545878
0.110107064,4.661932,-0.0039594183,-0.005792269,0.00765708,-1.0582372,-9.643845,-0.545878
0.11008896,4.661831,-0.0028941538,-0.005792269,0.00765708,-1.043872,-9.65821,-0.58418524
0.11008896,4.661831,-0.0028941538,-0.005792269,0.00765708,-1.043872,-9.65821,-0.58418524
0.110066086,4.661704,-0.0028941538,-0.005792269,0.00765708,-1.043872,-9.65821,-0.58418524
0.109959856,4.661554,-0.0007636249,-0.005792269,0.009787609,-1.0007763,-9.672575,-0.5746084
0.10988037,4.66148,0.001366904,-0.005792269,0.010852873,-0.9864111,-9.634268,-0.5554548
0.10980133,4.661407,0.001366904,-0.005792269,0.010852873,-0.9864111,-9.634268,-0.5554548
0.10974115,4.6613226,0.001366904,-0.005792269,0.008722344,-1.0055647,-9.615114,-0.5602432
0.109680526,4.6612372,0.001366904,-0.005792269,0.008722344,-1.0055647,-9.615114,-0.5602432
0.10956164,4.661196,0.001366904,-0.005792269,0.0065918155,-0.9720459,-9.615114,-0.521936
0.10944241,4.6611557,0.001366904,-0.005792269,0.0065918155,-0.9720459,-9.615114,-0.521936
0.10937288,4.661076,0.003497433,-0.0047270046,0.00765708,-0.9959879,-9.591172,-0.5554548
0.1093037,4.660997,0.003497433,-0.0047270046,0.00765708,-0.9959879,-9.591172,-0.5554548
0.10923905,4.6609163,0.0045626974,-0.00366174,0.00765708,-0.9816227,-9.595961,-0.5793968
0.10917428,4.6608353,0.0045626974,-0.00366174,0.00765708,-0.9816227,-9.595961,-0.5793968
0.109127015,4.6607494,0.005627962,-0.00366174,0.0065918155,-0.9864111,-9.615114,-0.61291564
0.10907978,4.660664,0.005627962,-0.00366174,0.0065918155,-0.9864111,-9.615114,-0.61291564
0.10903606,4.660578,0.0066932263,-0.00366174,0.0065918155,-0.9720459,-9.619903,-0.6512229
0.10899166,4.66049,0.0066932263,-0.00366174,0.0065918155,-0.9720459,-9.619903,-0.6512229
0.10892639,4.6604075,0.0045626974,-0.0025964756,0.00765708,-0.9576807,-9.610326,-0.61291564
0.10886259,4.6603265,0.0045626974,-0.0025964756,0.00765708,-0.9576807,-9.610326,-0.61291564
0.108781934,4.6602564,0.003497433,-0.00046594674,0.00765708,-1.0151415,-9.643845,-0.5363012
0.10869968,4.660184,0.003497433,-0.00046594674,0.00765708,-1.0151415,-9.643845,-0.5363012
0.10861818,4.6601086,0.0024321685,0.0005993177,0.00765708,-0.9864111,-9.662998,-0.5650316
0.10853701,4.6600337,0.0024321685,0.0005993177,0.00765708,-0.9864111,-9.662998,-0.5650316
0.10848236,4.6599474,0.0024321685,0.0016645822,0.008722344,-0.9816227,-9.662998,-0.60812724
0.10842764,4.659861,0.0024321685,0.0016645822,0.008722344,-0.9816227,-9.662998,-0.60812724
0.108380795,4.6597714,0.0024321685,0.0027298466,0.009787609,-1.0055647,-9.65821,-0.58418524
0.108334236,4.6596828,0.0024321685,0.0027298466,0.009787609,-1.0055647,-9.65821,-0.58418524
0.10821969,4.659642,0.001366904,0.0027298466,0.012983402,-1.0055647,-9.682152,-0.5267244
0.108105935,4.659601,0.001366904,0.0027298466,0.012983402,-1.0055647,-9.682152,-0.5267244
0.10805522,4.6595125,0.00030163955,0.0016645822,0.015113931,-1.0055647,-9.65821,-0.56982
0.10800494,4.659425,0.00030163955,0.0016645822,0.015113931,-1.0055647,-9.65821,-0.56982
0.1079651,4.659334,0.00030163955,0.0016645822,0.01724446,-1.0247183,-9.682152,-0.5554548
0.10792486,4.6592436,0.00030163955,0.0016645822,0.01724446,-1.0247183,-9.682152,-0.5554548
0.10794868,4.6591415,-0.0007636249,0.0027298466,0.020440254,-1.0486604,-9.653421,-0.545878
0.10797154,4.6590414,-0.0007636249,0.0027298466,0.020440254,-1.0486604,-9.653421,-0.545878
0.108132035,4.659049,-0.0007636249,0.0027298466,0.021505518,-1.0821792,-9.639056,-0.51235914
0.10829266,4.6590576,-0.0007636249,0.0027298466,0.021505518,-1.0821792,-9.639056,-0.51235914
0.10823263,4.6589746,-0.0007636249,0.0016645822,0.020440254,-1.0151415,-9.677363,-0.5554548
0.10817177,4.6588917,-0.0007636249,0.0016645822,0.020440254,-1.0151415,-9.677363,-0.5554548
0.108260036,4.658804,-0.0007636249,0.0005993177,0.020440254,-1.0821792,-9.677363,-0.5554548
0.10834851,4.658716,-0.0007636249,0.0005993177,0.020440254,-1.0821792,-9.677363,-0.5554548
0.108400166,4.6588125,-0.0007636249,-0.0015312112,0.019374989,-1.0726024,-9.691729,-0.46926352
0.10845089,4.658908,-0.0007636249,-0.0015312112,0.019374989,-1.0726024,-9.691729,-0.46926352
0.1084824,4.6590075,0.00030163955,-0.00366174,0.020440254,-1.0630256,-9.696517,-0.46447513
0.1085136,4.659107,0.00030163955,-0.00366174,0.020440254,-1.0630256,-9.696517,-0.46447513
0.10852241,4.65901,0.0024321685,-0.00366174,0.020440254,-1.0534488,-9.701305,-0.5602432
0.108530626,4.6589136,0.0024321685,-0.00366174,0.020440254,-1.0534488,-9.701305,-0.5602432
0.10854079,4.6590185,0.0045626974,-0.0047270046,0.01724446,-1.0534488,-9.672575,-0.49320555
0.1085502,4.659123,0.0045626974,-0.0047270046,0.01724446,-1.0534488,-9.672575,-0.49320555
0.10867751,4.659187,0.0045626974,-0.0068575335,0.015113931,-1.0773908,-9.701305,-0.50757074
0.108805485,4.659251,0.0045626974,-0.0068575335,0.015113931,-1.0773908,-9.701305,-0.50757074
0.10895665,4.659234,0.0066932263,-0.010053327,0.014048667,-1.1013328,-9.667787,-0.521936
0.10910691,4.6592174,0.0066932263,-0.010053327,0.014048667,-1.1013328,-9.667787,-0.521936
0.10911655,4.6593256,0.0077584907,-0.010053327,0.014048667,-1.0582372,-9.677363,-0.45489833
0.10912597,4.6594334,0.0077584907,-0.010053327,0.014048667,-1.0582372,-9.677363,-0.45489833
0.109170705,4.6593466,0.008823755,-0.011118591,0.012983402,-1.0630256,-9.624691,-0.5315128
0.1092148,4.659259,0.008823755,-0.011118591,0.012983402,-1.0630256,-9.624691,-0.5315128
0.109168895,4.6591787,0.00988902,-0.012183856,0.010852873,-1.043872,-9.662998,-0.5410896
0.10912267,4.6590986,0.00988902,-0.012183856,0.010852873,-1.043872,-9.662998,-0.5410896
0.10907655,4.6590195,0.00988902,-0.012183856,0.010852873,-1.043872,-9.662998,-0.5410896
0.10908313,4.6589327,0.010954284,-0.014314385,0.00765708,-1.0582372,-9.65821,-0.59376204
0.109089635,4.658845,0.010954284,-0.014314385,0.00765708,-1.0582372,-9.65821,-0.59376204
0.10901994,4.6589417,0.012019549,-0.015379649,0.0065918155,-1.0247183,-9.615114,-0.48362875
0.10894978,4.6590385,0.012019549,-0.015379649,0.0065918155,-1.0247183,-9.615114,-0.48362875
0.10896536,4.6589527,0.012019549,-0.015379649,0.0033960221,-1.0630256,-9.643845,-0.56982
0.10898089,4.658867,0.012019549,-0.015379649,0.0033960221,-1.0630256,-9.643845,-0.56982
0.10901075,4.658783,0.012019549,-0.016444914,0.0012654932,-1.0582372,-9.643845,-0.521936
0.10903951,4.6586986,0.012019549,-0.016444914,0.0012654932,-1.0582372,-9.643845,-0.521936
0.108968444,4.658627,0.013084813,-0.016444914,-0.0029955646,-1.0247183,-9.624691,-0.5554548
0.10889796,4.658555,0.013084813,-0.016444914,-0.0029955646,-1.0247183,-9.624691,-0.5554548
0.10891209,4.658472,0.0141500775,-0.016444914,-0.004060829,-1.0630256,-9.615114,-0.5746084
0.10892617,4.6583886,0.0141500775,-0.016444914,-0.004060829,-1.0630256,-9.615114,-0.5746084
0.10895914,4.658308,0.0141500775,-0.015379649,-0.004060829,-1.0773908,-9.610326,-0.58418524
0.10899197,4.6582274,0.0141500775,-0.015379649,-0.004060829,-1.0773908,-9.610326,-0.58418524
0.10907517,4.658165,0.015215342,-0.01324912,-0.004060829,-1.0773908,-9.648633,-0.5410896
0.10915766,4.658103,0.015215342,-0.01324912,-0.004060829,-1.0773908,-9.648633,-0.5410896
0.109154955,4.6580205,0.016280606,-0.01324912,-0.0051260935,-1.0582372,-9.619903,-0.62728083
0.10915231,4.6579385,0.016280606,-0.01324912,-0.0051260935,-1.0582372,-9.619903,-0.62728083
0.10914974,4.657859,0.018411135,-0.012183856,-0.0072566224,-1.0630256,-9.682152,-0.5363012
0.10914795,4.6577787,0.018411135,-0.012183856,-0.0072566224,-1.0630256,-9.682152,-0.5363012
0.10909053,4.6578927,0.019476399,-0.011118591,-0.0072566224,-1.0390835,-9.605537,-0.49799395
0.10903319,4.6580057,0.019476399,-0.011118591,-0.0072566224,-1.0390835,-9.605537,-0.49799395
0.10907301,4.6579328,0.020541664,-0.010053327,-0.006191358,-1.0726024,-9.648633,-0.5554548
0.10911259,4.65786,0.020541664,-0.010053327,-0.006191358,-1.0726024,-9.648633,-0.5554548
0.109040484,4.6579704,0.02160693,-0.008988062,-0.006191358,-1.043872,-9.648633,-0.50757074
0.10896818,4.6580806,0.02160693,-0.008988062,-0.006191358,-1.043872,-9.648633,-0.50757074
0.10896572,4.658003,0.02160693,-0.0068575335,-0.006191358,-1.0582372,-9.643845,-0.5650316
0.10896339,4.6579256,0.02160693,-0.0068575335,-0.006191358,-1.0582372,-9.643845,-0.5650316
0.109026276,4.6578608,0.02160693,-0.0047270046,-0.0072566224,-1.0821792,-9.662998,-0.5554548
0.10908866,4.6577964,0.02160693,-0.0047270046,-0.0072566224,-1.0821792,-9.662998,-0.5554548
0.10901254,4.6577306,0.020541664,-0.0015312112,-0.0072566224,-1.0342951,-9.662998,-0.5602432
0.10893687,4.6576643,0.020541664,-0.0015312112,-0.0072566224,-1.0342951,-9.662998,-0.5602432
0.10902453,4.657755,0.018411135,0.0005993177,-0.008321887,-1.0773908,-9.677363,-0.51714754
0.10911337,4.6578445,0.018411135,0.0005993177,-0.008321887,-1.0773908,-9.677363,-0.51714754
0.10907776,4.657764,0.017345872,0.0027298466,-0.009387151,-1.0534488,-9.65821,-0.5506664
0.10904255,4.657683,0.017345872,0.0027298466,-0.009387151,-1.0534488,-9.65821,-0.5506664
0.10909589,4.657611,0.016280606,0.0048603755,-0.013648209,-1.1204864,-9.710882,-0.60333884
0.10914931,4.657539,0.016280606,0.0048603755,-0.013648209,-1.1204864,-9.710882,-0.60333884
0.10925902,4.657509,0.0141500775,0.0069909045,-0.015778739,-1.1300632,-9.725247,-0.5554548
0.10936988,4.657478,0.0141500775,0.0069909045,-0.015778739,-1.1300632,-9.725247,-0.5554548
0.10936988,4.657478,0.0141500775,0.0069909045,-0.015778739,-1.1300632,-9.725247,-0.5554548
0.109595574,4.6575723,0.012019549,0.009121433,-0.018974531,-1.1923125,-9.739613,-0.50278234
0.10970274,4.6576147,0.00988902,0.010186698,-0.022170324,-1.1971009,-9.744401,-0.50278234
0.10970274,4.6576147,0.008823755,0.011251962,-0.024300855,-1.2210429,-9.749189,-0.49320555
0.10982342,4.6576667,0.008823755,0.011251962,-0.024300855,-1.2210429,-9.749189,-0.49320555
0.11002601,4.657753,0.008823755,0.011251962,-0.024300855,-1.2210429,-9.749189,-0.49320555
0.110128574,4.657792,0.0077584907,0.014447756,-0.025366118,-1.2593501,-9.763555,-0.48841715
0.110128574,4.657792,0.0077584907,0.014447756,-0.025366118,-1.2593501,-9.763555,-0.48841715
0.11025581,4.6578403,0.0077584907,0.014447756,-0.025366118,-1.2593501,-9.763555,-0.48841715
0.11037121,4.657851,0.005627962,0.01551302,-0.026431382,-1.2354081,-9.77792,-0.5267244
0.11045411,4.6578593,0.005627962,0.01551302,-0.026431382,-1.2354081,-9.77792,-0.5267244
0.11067261,4.6578727,0.0045626974,0.017643549,-0.026431382,-1.2785037,-9.753978,-0.5267244
0.11078288,4.657893,0.0024321685,0.019774077,-0.025366118,-1.2641385,-9.773131,-0.50757074
0.11078288,4.657893,0.0024321685,0.019774077,-0.025366118,-1.2641385,-9.773131,-0.50757074
0.11091612,4.657918,0.0024321685,0.019774077,-0.025366118,-1.2641385,-9.773131,-0.50757074
0.111097015,4.657989,0.00030163955,0.021904606,-0.024300855,-1.2449849,-9.787497,-0.48362875
0.11121192,4.657981,-0.0007636249,0.024035135,-0.02323559,-1.2689269,-9.825804,-0.5410896
0.11132774,4.6579723,-0.0007636249,0.024035135,-0.02323559,-1.2689269,-9.825804,-0.5410896
0.11143617,4.6579986,-0.0018288894,0.026165664,-0.02323559,-1.2641385,-9.830592,-0.49799395
0.11154429,4.658025,-0.0018288894,0.026165664,-0.02323559,-1.2641385,-9.830592,-0.49799395
0.11163943,4.6580667,-0.0028941538,0.028296193,-0.025366118,-1.2162545,-9.758766,-0.48362875
0.111734636,4.6581087,-0.0028941538,0.028296193,-0.025366118,-1.2162545,-9.758766,-0.48362875
0.11183037,4.658149,-0.0028941538,0.028296193,-0.026431382,-1.2258313,-9.768343,-0.48362875
0.11192601,4.658189,-0.0028941538,0.028296193,-0.026431382,-1.2258313,-9.768343,-0.48362875
0.112008266,4.6582427,-0.0018288894,0.029361458,-0.027496647,-1.2306197,-9.758766,-0.45968673
0.11209077,4.6582975,-0.0018288894,0.029361458,-0.027496647,-1.2306197,-9.758766,-0.45968673
0.11213147,4.6583757,-0.0018288894,0.029361458,-0.033888236,-1.1875241,-9.744401,-0.4309563
0.112172395,4.6584535,-0.0018288894,0.029361458,-0.033888236,-1.1875241,-9.744401,-0.4309563
0.112227835,4.6585207,-0.0028941538,0.029361458,-0.037084028,-1.1923125,-9.715671,-0.45010993
0.112283446,4.658588,-0.0028941538,0.029361458,-0.037084028,-1.1923125,-9.715671,-0.45010993
0.1123591,4.658634,-0.0028941538,0.029361458,-0.041345086,-1.1971009,-9.662998,-0.47405192
0.11243496,4.6586804,-0.0028941538,0.029361458,-0.041345086,-1.1971009,-9.662998,-0.47405192
0.11250346,4.6587305,-0.0018288894,0.030426722,-0.045606144,-1.2018893,-9.677363,-0.46926352
0.112572215,4.658781,-0.0018288894,0.030426722,-0.045606144,-1.2018893,-9.677363,-0.46926352
0.1126475,4.6587343,-0.0018288894,0.029361458,-0.050932467,-1.1779473,-9.68694,-0.545878
0.112722956,4.6586885,-0.0018288894,0.029361458,-0.050932467,-1.1779473,-9.68694,-0.545878
0.11276411,4.658755,-0.0018288894,0.030426722,-0.05412826,-1.1731589,-9.677363,-0.46447513
0.11280566,4.658821,-0.0018288894,0.030426722,-0.05412826,-1.1731589,-9.677363,-0.46447513
0.11280116,4.6589108,0.001366904,0.031491987,-0.056258786,-1.1540052,-9.672575,-0.4213795
0.11279712,4.6590004,0.001366904,0.031491987,-0.056258786,-1.1540052,-9.672575,-0.4213795
0.11281331,4.659083,0.003497433,0.032557253,-0.059454583,-1.1923125,-9.648633,-0.41180268
0.112829775,4.659166,0.003497433,0.032557253,-0.059454583,-1.1923125,-9.648633,-0.41180268
0.11287102,4.6592326,0.0045626974,0.033622514,-0.06158511,-1.1540052,-9.624691,-0.47405192
0.11291131,4.659297,0.0045626974,0.033622514,-0.06158511,-1.1540052,-9.624691,-0.47405192
0.11291943,4.659389,0.0066932263,0.032557253,-0.060519844,-1.13964,-9.677363,-0.46447513
0.11292812,4.659478,0.0066932263,0.032557253,-0.060519844,-1.13964,-9.677363,-0.46447513
0.1129043,4.6595783,0.0077584907,0.033622514,-0.058389317,-1.1252748,-9.643845,-0.4309563
0.11288118,4.6596785,0.0077584907,0.033622514,-0.058389317,-1.1252748,-9.643845,-0.4309563
0.11286714,4.6597776,0.008823755,0.032557253,-0.059454583,-1.115698,-9.634268,-0.46447513
0.11285429,4.6598763,0.008823755,0.032557253,-0.059454583,-1.115698,-9.634268,-0.46447513
0.112790085,4.6599827,0.00988902,0.033622514,-0.058389317,-1.0869676,-9.615114,-0.4165911
0.11272651,4.6600885,0.00988902,0.033622514,-0.058389317,-1.0869676,-9.615114,-0.4165911
0.11261444,4.660188,0.010954284,0.033622514,-0.05732405,-1.0630256,-9.634268,-0.45489833
0.11250293,4.660288,0.010954284,0.033622514,-0.05732405,-1.0630256,-9.634268,-0.45489833
0.11230664,4.660311,0.0141500775,0.033622514,-0.056258786,-1.0630256,-9.586384,-0.49799395
0.1121097,4.6603346,0.0141500775,0.033622514,-0.056258786,-1.0630256,-9.586384,-0.49799395
0.11192437,4.6603074,0.016280606,0.033622514,-0.05519352,-1.0199299,-9.576807,-0.51714754
0.11173936,4.66028,0.016280606,0.033622514,-0.05519352,-1.0199299,-9.576807,-0.51714754
0.11154576,4.660309,0.019476399,0.033622514,-0.053062994,-1.0103531,-9.56723,-0.49320555
0.11135207,4.6603374,0.019476399,0.033622514,-0.053062994,-1.0103531,-9.56723,-0.49320555
0.11116763,4.660388,0.020541664,0.032557253,-0.050932467,-0.9768343,-9.5385,-0.47405192
0.1109832,4.6604385,0.020541664,0.032557253,-0.050932467,-0.9768343,-9.5385,-0.47405192
0.110803,4.6604977,0.022672193,0.030426722,-0.0498672,-0.9768343,-9.514558,-0.46926352
0.11062279,4.660556,0.022672193,0.030426722,-0.0498672,-0.9768343,-9.514558,-0.46926352
0.1104618,4.660639,0.023737457,0.028296193,-0.0498672,-0.92895025,-9.56723,-0.4213795
0.11030087,4.660722,0.023737457,0.028296193,-0.0498672,-0.92895025,-9.56723,-0.4213795
0.11019989,4.6608367,0.024802722,0.02723093,-0.050932467,-0.9959879,-9.562442,-0.37349546
0.1100994,4.660952,0.024802722,0.02723093,-0.050932467,-0.9959879,-9.562442,-0.37349546
0.109968975,4.6610584,0.025867987,0.026165664,-0.0498672,-0.9672575,-9.500193,-0.40222588
0.10983733,4.6611657,0.025867987,0.026165664,-0.0498672,-0.9672575,-9.500193,-0.40222588
0.10971468,4.661272,0.026933251,0.021904606,-0.04773667,-0.93852705,-9.485827,-0.36870706
0.1095905,4.66138,0.026933251,0.021904606,-0.04773667,-0.93852705,-9.485827,-0.36870706
0.10944012,4.6614733,0.026933251,0.020839343,-0.04773667,-0.91458505,-9.504981,-0.39743748
0.10928979,4.6615663,0.026933251,0.020839343,-0.04773667,-0.91458505,-9.504981,-0.39743748
0.109140195,4.6616592,0.026933251,0.019774077,-0.046671405,-0.91458505,-9.5385,-0.39743748
0.10899068,4.661752,0.026933251,0.019774077,-0.046671405,-0.91458505,-9.5385,-0.39743748
0.10886815,4.6618614,0.026933251,0.017643549,-0.046671405,-0.92416185,-9.552865,-0.34955344
0.10874575,4.6619706,0.026933251,0.017643549,-0.046671405,-0.92416185,-9.552865,-0.34955344
0.10861673,4.662075,0.025867987,0.014447756,-0.045606144,-0.9528923,-9.504981,-0.39743748
0.108487815,4.66218,0.025867987,0.014447756,-0.045606144,-0.9528923,-9.504981,-0.39743748
0.10835344,4.6622815,0.025867987,0.013382491,-0.04454088,-0.92416185,-9.495404,-0.38307226
0.10821913,4.6623826,0.025867987,0.013382491,-0.04454088,-0.92416185,-9.495404,-0.38307226
0.10809511,4.6624904,0.025867987,0.009121433,-0.045606144,-0.90500826,-9.533711,-0.33997664
0.10797116,4.6625977,0.025867987,0.009121433,-0.045606144,-0.90500826,-9.533711,-0.33997664
0.10781534,4.6626816,0.024802722,0.0048603755,-0.043475613,-0.8762778,-9.490616,-0.39264908
0.10765955,4.6627655,0.024802722,0.0048603755,-0.043475613,-0.8762778,-9.490616,-0.39264908
0.10751023,4.662855,0.024802722,0.003795111,-0.043475613,-0.8810662,-9.471462,-0.38307226
0.10736095,4.662945,0.024802722,0.003795111,-0.043475613,-0.8810662,-9.471462,-0.38307226
0.10720612,4.6630287,0.024802722,0.0027298466,-0.041345086,-0.8571242,-9.466674,-0.38307226
0.107052326,4.6631126,0.024802722,0.0027298466,-0.041345086,-0.8571242,-9.466674,-0.38307226
0.10689956,4.663194,0.024802722,0.0005993177,-0.03814929,-0.89543146,-9.514558,-0.40701428
0.106746614,4.6632752,0.024802722,0.0005993177,-0.03814929,-0.89543146,-9.514558,-0.40701428
0.106613636,4.663371,0.024802722,-0.0025964756,-0.034953497,-0.8858546,-9.461885,-0.37349546
0.10647744,4.6634693,0.024802722,-0.0025964756,-0.034953497,-0.8858546,-9.461885,-0.37349546
0.10633101,4.6635504,0.024802722,-0.0047270046,-0.03282297,-0.8762778,-9.452309,-0.39743748
0.106183894,4.6636314,0.024802722,-0.0047270046,-0.03282297,-0.8762778,-9.452309,-0.39743748
0.10604745,4.6637206,0.022672193,-0.005792269,-0.03069244,-0.8331822,-9.442732,-0.35434186
0.105912104,4.663809,0.022672193,-0.005792269,-0.03069244,-0.8331822,-9.442732,-0.35434186
0.10575991,4.663881,0.023737457,-0.0068575335,-0.029627176,-0.842759,-9.457097,-0.39743748
0.10560645,4.663954,0.023737457,-0.0068575335,-0.029627176,-0.842759,-9.457097,-0.39743748
0.10545927,4.664031,0.022672193,-0.007922798,-0.027496647,-0.8331822,-9.394848,-0.38307226
0.10545927,4.664031,0.022672193,-0.007922798,-0.027496647,-0.8331822,-9.394848,-0.38307226
0.10515203,4.664125,0.020541664,-0.007922798,-0.024300855,-0.8331822,-9.409213,-0.45968673
0.10498972,4.6641417,0.020541664,-0.007922798,-0.024300855,-0.8331822,-9.409213,-0.45968673
0.10483648,4.664131,0.019476399,-0.0068575335,-0.020039797,-0.8379706,-9.457097,-0.49320555
0.104684204,4.6641207,0.019476399,-0.0068575335,-0.020039797,-0.8379706,-9.457097,-0.49320555
0.10453016,4.664161,0.017345872,-0.0068575335,-0.016844003,-0.8379706,-9.442732,-0.4309563
0.10437818,4.6642013,0.017345872,-0.0068575335,-0.016844003,-0.8379706,-9.442732,-0.4309563
0.104227506,4.664213,0.015215342,-0.005792269,-0.01151768,-0.8571242,-9.44752,-0.45968673
0.10407641,4.664224,0.015215342,-0.005792269,-0.01151768,-0.8571242,-9.44752,-0.45968673
0.103978045,4.6641626,0.013084813,-0.0047270046,-0.0072566224,-0.8858546,-9.423578,-0.5363012
0.10387952,4.6641,0.013084813,-0.0047270046,-0.0072566224,-0.8858546,-9.423578,-0.5363012
0.103811786,4.6640224,0.010954284,-0.00366174,-0.004060829,-0.92416185,-9.414001,-0.5363012
0.10374482,4.663945,0.010954284,-0.00366174,-0.004060829,-0.92416185,-9.414001,-0.5363012
0.10365074,4.6638794,0.0077584907,-0.0015312112,-0.0008650357,-0.90979666,-9.409213,-0.51235914
0.10355656,4.6638126,0.0077584907,-0.0015312112,-0.0008650357,-0.90979666,-9.409213,-0.51235914
0.10353044,4.663721,0.005627962,-0.00046594674,0.0033960221,-0.9624691,-9.433155,-0.521936
0.10350432,4.6636295,0.005627962,-0.00046594674,0.0033960221,-0.9624691,-9.433155,-0.521936
0.10345633,4.6635394,0.0024321685,0.0005993177,0.005526551,-0.9528923,-9.490616,-0.521936
0.10340821,4.6634493,0.0024321685,0.0005993177,0.005526551,-0.9528923,-9.490616,-0.521936
0.10340151,4.6633496,-0.0007636249,0.0005993177,0.008722344,-0.9672575,-9.41879,-0.5363012
0.10339464,4.6632495,-0.0007636249,0.0005993177,0.008722344,-0.9672575,-9.41879,-0.5363012
0.10338056,4.6631484,-0.0028941538,0.0027298466,0.011918138,-0.9672575,-9.485827,-0.5363012
0.10336632,4.663047,-0.0028941538,0.0027298466,0.011918138,-0.9672575,-9.485827,-0.5363012
0.10339155,4.6629405,-0.006089947,0.00592564,0.014048667,-1.0007763,-9.519346,-0.56982
0.10341659,4.662834,-0.006089947,0.00592564,0.014048667,-1.0007763,-9.519346,-0.56982
0.10341681,4.6627254,-0.009285741,0.008056169,0.016179197,-0.9768343,-9.509769,-0.545878
0.10341681,4.662616,-0.009285741,0.008056169,0.016179197,-0.9768343,-9.509769,-0.545878
0.103481874,4.662509,-0.010351005,0.010186698,0.021505518,-1.0247183,-9.509769,-0.5506664
0.10354665,4.662403,-0.010351005,0.010186698,0.021505518,-1.0247183,-9.509769,-0.5506664
0.10362487,4.662298,-0.0114162695,0.012317227,0.024701312,-1.0342951,-9.548077,-0.545878
0.10370301,4.662193,-0.0114162695,0.012317227,0.024701312,-1.0342951,-9.548077,-0.545878
0.10380144,4.6620927,-0.012481534,0.014447756,0.02683184,-1.0726024,-9.552865,-0.56982
0.10389996,4.6619925,-0.012481534,0.014447756,0.02683184,-1.0726024,-9.552865,-0.56982
0.10404717,4.6619234,-0.014612063,0.01551302,0.02896237,-1.0773908,-9.581595,-0.51714754
0.10419425,4.6618543,-0.014612063,0.01551302,0.02896237,-1.0773908,-9.581595,-0.51714754
0.10435754,4.661814,-0.014612063,0.017643549,0.027897105,-1.0773908,-9.605537,-0.49799395
0.10452119,4.6617746,-0.014612063,0.017643549,0.027897105,-1.0773908,-9.605537,-0.49799395
0.10468511,4.6617365,-0.015677327,0.018708814,0.027897105,-1.0869676,-9.610326,-0.49799395
0.10484958,4.6616993,-0.015677327,0.018708814,0.027897105,-1.0869676,-9.610326,-0.49799395
0.10499606,4.661626,-0.015677327,0.018708814,0.02896237,-1.0869676,-9.615114,-0.521936
0.105140574,4.6615534,-0.015677327,0.018708814,0.02896237,-1.0869676,-9.615114,-0.521936
0.1052899,4.661484,-0.017807856,0.017643549,0.027897105,-1.0965444,-9.639056,-0.521936
0.10544097,4.661413,-0.017807856,0.017643549,0.027897105,-1.0965444,-9.639056,-0.521936
0.10560349,4.6614046,-0.017807856,0.018708814,0.02683184,-1.091756,-9.677363,-0.48841715
0.105768606,4.6613965,-0.017807856,0.018708814,0.02683184,-1.091756,-9.677363,-0.48841715
0.105931625,4.6613846,-0.01674259,0.018708814,0.025766576,-1.115698,-9.65821,-0.48841715
0.106095776,4.661373,-0.01674259,0.018708814,0.025766576,-1.115698,-9.65821,-0.48841715
0.106251046,4.661324,-0.014612063,0.017643549,0.023636047,-1.1683705,-9.643845,-0.5267244
0.10640653,4.6612744,-0.014612063,0.017643549,0.023636047,-1.1683705,-9.643845,-0.5267244
0.10655562,4.6613007,-0.013546798,0.016578285,0.022570781,-1.1492168,-9.696517,-0.45968673
0.106703386,4.6613264,-0.013546798,0.016578285,0.022570781,-1.1492168,-9.696517,-0.45968673
0.1068503,4.661353,-0.012481534,0.014447756,0.020440254,-1.1923125,-9.730036,-0.45010993
0.10700195,4.661381,-0.012481534,0.014447756,0.020440254,-1.1923125,-9.730036,-0.45010993
0.10700195,4.661381,-0.012481534,0.014447756,0.020440254,-1.1923125,-9.730036,-0.45010993
0.10700195,4.661381,-0.012481534,0.014447756,0.020440254,-1.1923125,-9.730036,-0.45010993
0.107397296,4.6615114,-0.0071552116,0.012317227,0.015113931,-1.1731589,-9.725247,-0.4405331
0.10753242,4.6615567,-0.0071552116,0.012317227,0.015113931,-1.1731589,-9.725247,-0.4405331
0.10753242,4.6615567,-0.0028941538,0.011251962,0.015113931,-1.13964,-9.730036,-0.4165911
0.10763478,4.661631,-0.0028941538,0.011251962,0.015113931,-1.13964,-9.730036,-0.4165911
0.10763478,4.661631,-0.0028941538,0.011251962,0.015113931,-1.13964,-9.730036,-0.4165911
0.10795498,4.661835,-0.0007636249,0.010186698,0.014048667,-1.1683705,-9.739613,-0.4309563
0.10805837,4.661912,0.0024321685,0.0069909045,0.014048667,-1.1300632,-9.768343,-0.4357447
0.10816415,4.661991,0.0024321685,0.0069909045,0.014048667,-1.1300632,-9.768343,-0.4357447
0.10829023,4.6620502,0.005627962,0.00592564,0.012983402,-1.1540052,-9.730036,-0.44532153
0.10841722,4.6621094,0.005627962,0.00592564,0.012983402,-1.1540052,-9.730036,-0.44532153
0.10855692,4.662156,0.0077584907,0.0048603755,0.011918138,-1.1779473,-9.744401,-0.45489833
0.10869677,4.662203,0.0077584907,0.0048603755,0.011918138,-1.1779473,-9.744401,-0.45489833
0.10884598,4.662233,0.010954284,0.0016645822,0.011918138,-1.13964,-9.744401,-0.47884035
0.1089949,4.6622634,0.010954284,0.0016645822,0.011918138,-1.13964,-9.744401,-0.47884035
0.10907912,4.66219,0.012019549,0.0005993177,0.010852873,-1.1540052,-9.725247,-0.58897364
0.10916327,4.662116,0.012019549,0.0005993177,0.010852873,-1.1540052,-9.725247,-0.58897364
0.10920948,4.662034,0.0141500775,0.0005993177,0.00765708,-1.115698,-9.744401,-0.60333884
0.10925553,4.661952,0.0141500775,0.0005993177,0.00765708,-1.115698,-9.744401,-0.60333884
0.10928194,4.661866,0.013084813,0.0005993177,0.0044612866,-1.0869676,-9.720459,-0.5746084
0.10930828,4.6617804,0.013084813,0.0005993177,0.0044612866,-1.0869676,-9.720459,-0.5746084
0.10934817,4.6616945,0.010954284,-0.00046594674,0.0033960221,-1.1109096,-9.677363,-0.61291564
0.109388016,4.661609,0.010954284,-0.00046594674,0.0033960221,-1.1109096,-9.677363,-0.61291564
0.109406516,4.6615205,0.010954284,-0.00046594674,0.0012654932,-1.0965444,-9.643845,-0.6895301
0.10942503,4.6614323,0.010954284,-0.00046594674,0.0012654932,-1.0965444,-9.643845,-0.6895301
0.109457485,4.661344,0.008823755,0.0005993177,-0.0029955646,-1.1204864,-9.739613,-0.62728083
0.10949001,4.661256,0.008823755,0.0005993177,-0.0029955646,-1.1204864,-9.739613,-0.62728083
0.10954013,4.661171,0.0066932263,0.0016645822,-0.006191358,-1.1109096,-9.662998,-0.56982
0.109590285,4.6610856,0.0066932263,0.0016645822,-0.006191358,-1.1109096,-9.662998,-0.56982
0.10966445,4.6610103,0.005627962,0.003795111,-0.008321887,-1.13964,-9.725247,-0.5650316
0.10973864,4.6609344,0.005627962,0.003795111,-0.008321887,-1.13964,-9.725247,-0.5650316
0.10977872,4.6608467,0.005627962,0.0048603755,-0.010452416,-1.1109096,-9.720459,-0.56982
0.10981885,4.660758,0.005627962,0.0048603755,-0.010452416,-1.1109096,-9.720459,-0.56982
0.10985541,4.66067,0.005627962,0.0069909045,-0.013648209,-1.1252748,-9.706094,-0.59855044
0.10989212,4.660581,0.005627962,0.0069909045,-0.013648209,-1.1252748,-9.706094,-0.59855044
0.10989994,4.6604877,0.005627962,0.008056169,-0.015778739,-1.0965444,-9.720459,-0.59376204
0.10990788,4.660394,0.005627962,0.008056169,-0.015778739,-1.0965444,-9.720459,-0.59376204
0.110004075,4.6603403,0.005627962,0.011251962,-0.017909266,-1.1444284,-9.715671,-0.5410896
0.1101,4.660287,0.005627962,0.011251962,-0.017909266,-1.1444284,-9.715671,-0.5410896
0.11021398,4.660262,0.008823755,0.013382491,-0.017909266,-1.13964,-9.710882,-0.521936
0.110328145,4.6602373,0.008823755,0.013382491,-0.017909266,-1.13964,-9.710882,-0.521936
0.11044875,4.660261,0.010954284,0.016578285,-0.016844003,-1.1492168,-9.691729,-0.49799395
0.11056938,4.660285,0.010954284,0.016578285,-0.016844003,-1.1492168,-9.691729,-0.49799395
0.11067968,4.660336,0.013084813,0.017643549,-0.016844003,-1.1252748,-9.720459,-0.49320555
0.110790975,4.660387,0.013084813,0.017643549,-0.016844003,-1.1252748,-9.720459,-0.49320555
0.110790975,4.660387,0.013084813,0.017643549,-0.016844003,-1.1252748,-9.720459,-0.49320555
0.11100087,4.660509,0.016280606,0.017643549,-0.018974531,-1.1444284,-9.725247,-0.48362875
0.11108799,4.6604614,0.017345872,0.018708814,-0.020039797,-1.13964,-9.715671,-0.5363012
0.11117461,4.6604137,0.017345872,0.018708814,-0.020039797,-1.13964,-9.715671,-0.5363012
0.11125138,4.660359,0.019476399,0.018708814,-0.020039797,-1.1540052,-9.696517,-0.5554548
0.11132732,4.660305,0.019476399,0.018708814,-0.020039797,-1.1540052,-9.696517,-0.5554548
0.111440465,4.6603465,0.020541664,0.020839343,-0.02110506,-1.1444284,-9.734824,-0.49799395
0.11155456,4.6603885,0.020541664,0.020839343,-0.02110506,-1.1444284,-9.734824,-0.49799395
0.11166976,4.6603928,0.02160693,0.019774077,-0.022170324,-1.163582,-9.682152,-0.51235914
0.11178599,4.6603966,0.02160693,0.019774077,-0.022170324,-1.163582,-9.682152,-0.51235914
0.11186651,4.6604815,0.02160693,0.019774077,-0.022170324,-1.115698,-9.696517,-0.48841715
0.11194865,4.6605663,0.02160693,0.019774077,-0.022170324,-1.115698,-9.696517,-0.48841715
0.11198461,4.6606765,0.022672193,0.020839343,-0.02323559,-1.1013328,-9.696517,-0.48841715
0.11202288,4.6607866,0.022672193,0.020839343,-0.02323559,-1.1013328,-9.696517,-0.48841715
0.111986555,4.6609063,0.022672193,0.020839343,-0.024300855,-1.091756,-9.710882,-0.48362875
0.111951575,4.661026,0.022672193,0.020839343,-0.024300855,-1.091756,-9.710882,-0.48362875
0.111896425,4.6609497,0.023737457,0.020839343,-0.027496647,-1.0773908,-9.624691,-0.51714754
0.111842185,4.660873,0.023737457,0.020839343,-0.027496647,-1.0773908,-9.624691,-0.51714754
0.11170432,4.66083,0.022672193,0.019774077,-0.029627176,-1.0534488,-9.65821,-0.51714754
0.11156705,4.6607866,0.022672193,0.019774077,-0.029627176,-1.0534488,-9.65821,-0.51714754
0.1113924,4.660813,0.023737457,0.018708814,-0.033888236,-1.0295067,-9.677363,-0.49799395
0.11121771,4.660839,0.023737457,0.018708814,-0.033888236,-1.0295067,-9.677363,-0.49799395
0.11113133,4.6607676,0.023737457,0.019774077,-0.036018763,-1.0630256,-9.662998,-0.5315128
0.11104563,4.660696,0.023737457,0.019774077,-0.036018763,-1.0630256,-9.662998,-0.5315128
0.11089494,4.6607747,0.02160693,0.018708814,-0.037084028,-1.0103531,-9.65821,-0.46447513
0.11074426,4.6608534,0.02160693,0.018708814,-0.037084028,-1.0103531,-9.65821,-0.46447513
0.110641964,4.6607857,0.022672193,0.017643549,-0.03814929,-1.0630256,-9.619903,-0.50757074
0.1105432,4.6607165,0.022672193,0.017643549,-0.03814929,-1.0630256,-9.619903,-0.50757074
0.11036349,4.6607275,0.023737457,0.017643549,-0.04027982,-1.0199299,-9.643845,-0.50278234
0.11018277,4.660738,0.023737457,0.017643549,-0.04027982,-1.0199299,-9.643845,-0.50278234
0.110017926,4.660811,0.024802722,0.017643549,-0.04241035,-1.0199299,-9.610326,-0.47884035
0.10985299,4.6608834,0.024802722,0.017643549,-0.04241035,-1.0199299,-9.610326,-0.47884035
0.10980747,4.661006,0.024802722,0.01551302,-0.043475613,-1.0582372,-9.595961,-0.4165911
0.10976226,4.661129,0.024802722,0.01551302,-0.043475613,-1.0582372,-9.595961,-0.4165911
0.109629035,4.661228,0.023737457,0.01551302,-0.043475613,-0.9959879,-9.557653,-0.4405331
0.109495714,4.6613274,0.023737457,0.01551302,-0.043475613,-0.9959879,-9.557653,-0.4405331
0.10934207,4.6614113,0.024802722,0.01551302,-0.04241035,-0.9816227,-9.586384,-0.45010993
0.10918752,4.6614957,0.024802722,0.01551302,-0.04241035,-0.9816227,-9.586384,-0.45010993
0.10905036,4.6614456,0.023737457,0.01551302,-0.041345086,-1.0055647,-9.572019,-0.521936
0.10891376,4.661394,0.023737457,0.01551302,-0.041345086,-1.0055647,-9.572019,-0.521936
0.10873087,4.6614146,0.022672193,0.014447756,-0.04241035,-0.9816227,-9.562442,-0.48841715
0.10854764,4.6614347,0.022672193,0.014447756,-0.04241035,-0.9816227,-9.562442,-0.48841715
0.10838013,4.6615005,0.022672193,0.014447756,-0.041345086,-0.9624691,-9.576807,-0.45968673
0.1082127,4.661566,0.022672193,0.014447756,-0.041345086,-0.9624691,-9.576807,-0.45968673
0.108038776,4.6615615,0.020541664,0.016578285,-0.037084028,-0.9768343,-9.504981,-0.49320555
0.10785949,4.6615562,0.020541664,0.016578285,-0.037084028,-0.9768343,-9.504981,-0.49320555
0.10769679,4.6615405,0.019476399,0.016578285,-0.034953497,-0.9624691,-9.528923,-0.50278234
0.107529774,4.6615243,0.019476399,0.016578285,-0.034953497,-0.9624691,-9.528923,-0.50278234
0.1073753,4.6615915,0.017345872,0.016578285,-0.033888236,-1.0151415,-9.528923,-0.47884035
0.10722046,4.661659,0.017345872,0.016578285,-0.033888236,-1.0151415,-9.528923,-0.47884035
0.10704802,4.661677,0.015215342,0.017643549,-0.031757705,-0.9959879,-9.548077,-0.48362875
0.106876045,4.661695,0.015215342,0.017643549,-0.031757705,-0.9959879,-9.548077,-0.48362875
0.10670781,4.6616826,0.012019549,0.016578285,-0.03069244,-1.0055647,-9.557653,-0.48841715
0.1065406,4.6616697,0.012019549,0.016578285,-0.03069244,-1.0055647,-9.557653,-0.48841715
0.106437154,4.6615925,0.00988902,0.018708814,-0.028561912,-0.9959879,-9.533711,-0.51235914
0.10633457,4.661516,0.00988902,0.018708814,-0.028561912,-0.9959879,-9.533711,-0.51235914
0.10623596,4.6616063,0.0066932263,0.019774077,-0.025366118,-1.0103531,-9.552865,-0.47405192
0.10613884,4.6616964,0.0066932263,0.019774077,-0.025366118,-1.0103531,-9.552865,-0.47405192
0.10613334,4.6617985,0.0045626974,0.018708814,-0.02110506,-1.0247183,-9.552865,-0.45010993
0.10612847,4.6619,0.0045626974,0.018708814,-0.02110506,-1.0247183,-9.552865,-0.45010993
0.10605631,4.661992,0.0024321685,0.018708814,-0.017909266,-0.9816227,-9.5385,-0.4213795
0.10598438,4.662085,0.0024321685,0.018708814,-0.017909266,-0.9816227,-9.5385,-0.4213795
0.10592157,4.662177,-0.0007636249,0.018708814,-0.018974531,-0.9816227,-9.586384,-0.39743748
0.10585913,4.662269,-0.0007636249,0.018708814,-0.018974531,-0.9816227,-9.586384,-0.39743748
0.105770536,4.6623526,-0.0007636249,0.019774077,-0.016844003,-0.9576807,-9.576807,-0.40701428
0.10568245,4.6624355,-0.0007636249,0.019774077,-0.016844003,-0.9576807,-9.576807,-0.40701428
0.1056622,4.6625314,-0.0018288894,0.019774077,-0.016844003,-1.0103531,-9.524135,-0.4357447
0.10564244,4.6626267,-0.0018288894,0.019774077,-0.016844003,-1.0103531,-9.524135,-0.4357447
0.105609216,4.6627207,-0.0028941538,0.018708814,-0.013648209,-1.0007763,-9.552865,-0.40701428
0.105576344,4.662814,-0.0028941538,0.018708814,-0.013648209,-1.0007763,-9.552865,-0.40701428
0.1054393,4.6628537,-0.0050246827,0.017643549,-0.01151768,-1.0007763,-9.548077,-0.46926352
0.10530353,4.662893,-0.0050246827,0.017643549,-0.01151768,-1.0007763,-9.548077,-0.46926352
0.1054002,4.6629467,-0.0050246827,0.016578285,-0.013648209,-1.0390835,-9.524135,-0.45489833
0.10549661,4.6630006,-0.0050246827,0.016578285,-0.013648209,-1.0390835,-9.524135,-0.45489833
0.10546379,4.6630926,-0.0050246827,0.01551302,-0.013648209,-0.9959879,-9.500193,-0.41180268
0.10543129,4.6631846,-0.0050246827,0.01551302,-0.013648209,-0.9959879,-9.500193,-0.41180268
0.105558194,4.6631746,-0.0039594183,0.01551302,-0.012582945,-1.043872,-9.504981,-0.46926352
0.10568474,4.6631646,-0.0039594183,0.01551302,-0.012582945,-1.043872,-9.504981,-0.46926352
0.10569034,4.6632576,-0.0039594183,0.014447756,-0.013648209,-1.0247183,-9.572019,-0.4309563
0.1056962,4.66335,-0.0039594183,0.014447756,-0.013648209,-1.0247183,-9.572019,-0.4309563
0.10564116,4.66344,-0.0039594183,0.014447756,-0.013648209,-0.9864111,-9.562442,-0.40222588
0.105586484,4.66353,-0.0039594183,0.014447756,-0.013648209,-0.9864111,-9.562442,-0.40222588
0.10559721,4.6636233,-0.0028941538,0.014447756,-0.012582945,-1.0247183,-9.543288,-0.4165911
0.10560811,4.663717,-0.0028941538,0.014447756,-0.012582945,-1.0247183,-9.543288,-0.4165911
0.10556436,4.663811,-0.0018288894,0.013382491,-0.01151768,-1.0103531,-9.552865,-0.45489833
0.10552187,4.663905,-0.0018288894,0.013382491,-0.01151768,-1.0103531,-9.552865,-0.45489833
0.10549871,4.663802,-0.0028941538,0.012317227,-0.010452416,-1.0103531,-9.591172,-0.521936
0.105475605,4.663698,-0.0028941538,0.012317227,-0.010452416,-1.0103531,-9.591172,-0.521936
0.105327204,4.663707,-0.0028941538,0.012317227,-0.009387151,-0.9768343,-9.610326,-0.46447513
0.105179,4.6637154,-0.0028941538,0.012317227,-0.009387151,-0.9768343,-9.610326,-0.46447513
0.10502997,4.663711,-0.0007636249,0.013382491,-0.0072566224,-0.92416185,-9.600749,-0.46926352
0.10488242,4.663707,-0.0007636249,0.013382491,-0.0072566224,-0.92416185,-9.600749,-0.46926352
0.104828596,4.6636114,0.00030163955,0.012317227,-0.008321887,-0.9720459,-9.581595,-0.545878
0.104774565,4.663516,0.00030163955,0.012317227,-0.008321887,-0.9720459,-9.581595,-0.545878
0.104634814,4.663484,0.00030163955,0.012317227,-0.006191358,-0.90021986,-9.572019,-0.49320555
0.104495205,4.663452,0.00030163955,0.012317227,-0.006191358,-0.90021986,-9.572019,-0.49320555
0.10435941,4.663417,0.001366904,0.013382491,-0.004060829,-0.94331545,-9.552865,-0.48362875
0.10422391,4.6633825,0.001366904,0.013382491,-0.004060829,-0.94331545,-9.552865,-0.48362875
0.104183,4.6632867,0.0024321685,0.013382491,-0.0029955646,-0.9720459,-9.548077,-0.5410896
0.1041423,4.663191,0.0024321685,0.013382491,-0.0029955646,-0.9720459,-9.548077,-0.5410896
0.10406802,4.663104,0.0045626974,0.013382491,-0.0029955646,-0.93373865,-9.557653,-0.5554548
0.10399757,4.663021,0.0045626974,0.013382491,-0.0029955646,-0.93373865,-9.557653,-0.5554548
0.103895046,4.662956,0.0045626974,0.013382491,-0.0029955646,-0.9672575,-9.552865,-0.49320555
0.103895046,4.662956,0.0045626974,0.013382491,-0.0029955646,-0.9672575,-9.552865,-0.49320555
0.103741236,4.6628833,0.005627962,0.014447756,-0.0019303001,-0.9624691,-9.576807,-0.49320555
0.103658706,4.6628437,0.005627962,0.014447756,-0.0019303001,-0.9624691,-9.576807,-0.49320555
0.10343778,4.662734,0.0066932263,0.014447756,-0.0019303001,-0.9768343,-9.504981,-0.47884035
0.10343778,4.662734,0.0066932263,0.014447756,-0.0019303001,-0.9768343,-9.504981,-0.47884035
0.10331837,4.6626706,0.0066932263,0.014447756,-0.0019303001,-0.9768343,-9.504981,-0.47884035
0.10334498,4.662579,0.008823755,0.013382491,-0.0019303001,-1.0055647,-9.615114,-0.50278234
0.10336711,4.662405,0.00988902,0.013382491,-0.0019303001,-1.0055647,-9.600749,-0.5363012
0.103378415,4.662317,0.00988902,0.013382491,-0.0019303001,-1.0055647,-9.600749,-0.5363012
0.103378415,4.662317,0.00988902,0.013382491,-0.0019303001,-1.0055647,-9.600749,-0.5363012
0.10332306,4.662137,0.00988902,0.01551302,-0.004060829,-0.9911995,-9.610326,-0.51235914
0.103372596,4.662053,0.00988902,0.018708814,-0.0051260935,-1.0247183,-9.653421,-0.521936
0.103422,4.6619697,0.00988902,0.018708814,-0.0051260935,-1.0247183,-9.653421,-0.521936
0.103410825,4.661878,0.00988902,0.019774077,-0.004060829,-1.0007763,-9.643845,-0.51235914
0.103410825,4.661878,0.00988902,0.019774077,-0.004060829,-1.0007763,-9.643845,-0.51235914
0.1035236,4.6618085,0.008823755,0.020839343,-0.004060829,-1.0199299,-9.68694,-0.48841715
0.10365458,4.661837,0.008823755,0.020839343,-0.004060829,-1.0199299,-9.68694,-0.48841715
0.103581294,4.661757,0.0077584907,0.021904606,-0.004060829,-0.9864111,-9.653421,-0.51235914
0.10350766,4.661676,0.0077584907,0.021904606,-0.004060829,-0.9864111,-9.653421,-0.51235914
0.103472106,4.661584,0.008823755,0.024035135,-0.0072566224,-0.9959879,-9.691729,-0.5363012
0.10343709,4.661493,0.008823755,0.024035135,-0.0072566224,-0.9959879,-9.691729,-0.5363012
0.1033375,4.661423,0.008823755,0.024035135,-0.008321887,-0.9624691,-9.691729,-0.5315128
0.10323811,4.661353,0.008823755,0.024035135,-0.008321887,-0.9624691,-9.691729,-0.5315128
0.10313535,4.661284,0.0077584907,0.0251004,-0.008321887,-0.9672575,-9.701305,-0.5267244
0.103033245,4.661215,0.0077584907,0.0251004,-0.008321887,-0.9672575,-9.701305,-0.5267244
0.1028835,4.661216,0.008823755,0.0251004,-0.008321887,-0.94331545,-9.682152,-0.49799395
0.102734126,4.6612167,0.008823755,0.0251004,-0.008321887,-0.94331545,-9.682152,-0.49799395
0.10259169,4.661191,0.00988902,0.024035135,-0.009387151,-0.9528923,-9.682152,-0.50757074
0.102449365,4.661165,0.00988902,0.024035135,-0.009387151,-0.9528923,-9.682152,-0.50757074
0.10235475,4.6612535,0.010954284,0.0251004,-0.010452416,-0.9528923,-9.682152,-0.45489833
0.10225942,4.6613417,0.010954284,0.0251004,-0.010452416,-0.9528923,-9.682152,-0.45489833
0.10212613,4.661402,0.010954284,0.024035135,-0.012582945,-0.9576807,-9.696517,-0.47884035
0.101992235,4.661463,0.010954284,0.024035135,-0.012582945,-0.9576807,-9.696517,-0.47884035
0.10184415,4.661501,0.013084813,0.022969872,-0.012582945,-0.94331545,-9.682152,-0.48362875
0.10169463,4.661539,0.013084813,0.022969872,-0.012582945,-0.94331545,-9.682152,-0.48362875
0.101691335,4.661651,0.015215342,0.022969872,-0.012582945,-0.9959879,-9.672575,-0.4165911
0.10168824,4.6617627,0.015215342,0.022969872,-0.012582945,-0.9959879,-9.672575,-0.4165911
0.10165633,4.661876,0.017345872,0.022969872,-0.012582945,-0.9576807,-9.634268,-0.34955344
0.10162424,4.66199,0.017345872,0.022969872,-0.012582945,-0.9576807,-9.634268,-0.34955344
0.10158341,4.6621046,0.019476399,0.021904606,-0.01151768,-0.9624691,-9.629479,-0.4165911
0.10154244,4.662219,0.019476399,0.021904606,-0.01151768,-0.9624691,-9.629479,-0.4165911
0.10149712,4.662336,0.022672193,0.021904606,-0.010452416,-0.9528923,-9.68694,-0.3878607
0.10145191,4.6624527,0.022672193,0.021904606,-0.010452416,-0.9528923,-9.68694,-0.3878607
0.101344116,4.6625457,0.023737457,0.019774077,-0.008321887,-0.90500826,-9.653421,-0.4261679
0.10123681,4.662638,0.023737457,0.019774077,-0.008321887,-0.90500826,-9.653421,-0.4261679
0.101198584,4.6627593,0.025867987,0.017643549,-0.008321887,-0.9528923,-9.629479,-0.39264908
0.10116056,4.6628804,0.025867987,0.017643549,-0.008321887,-0.9528923,-9.629479,-0.39264908
0.10110887,4.663001,0.026933251,0.01551302,-0.008321887,-0.9528923,-9.653421,-0.4165911
0.10105737,4.663121,0.026933251,0.01551302,-0.008321887,-0.9528923,-9.653421,-0.4165911
0.100985385,4.6632347,0.026933251,0.014447756,-0.006191358,-0.91458505,-9.610326,-0.39264908
0.10091312,4.663348,0.026933251,0.014447756,-0.006191358,-0.91458505,-9.610326,-0.39264908
0.1008898,4.6634727,0.026933251,0.012317227,-0.006191358,-0.9672575,-9.619903,-0.4261679
0.100866556,4.663597,0.026933251,0.012317227,-0.006191358,-0.9672575,-9.619903,-0.4261679
0.10079254,4.6637106,0.027998514,0.011251962,-0.0051260935,-0.92416185,-9.672575,-0.40222588
0.10071845,4.6638246,0.027998514,0.011251962,-0.0051260935,-0.92416185,-9.672575,-0.40222588
0.10059652,4.6637974,0.026933251,0.009121433,-0.0029955646,-0.9528923,-9.643845,-0.47884035
0.10047551,4.6637697,0.026933251,0.009121433,-0.0029955646,-0.9528923,-9.643845,-0.47884035
0.100375175,4.663868,0.026933251,0.00592564,-0.0019303001,-0.9528923,-9.629479,-0.45489833
0.10027411,4.6639643,0.026933251,0.00592564,-0.0019303001,-0.9528923,-9.629479,-0.45489833
0.10018432,4.6640687,0.025867987,0.003795111,-0.0029955646,-0.93373865,-9.591172,-0.4357447
0.100094765,4.664172,0.025867987,0.003795111,-0.0029955646,-0.93373865,-9.591172,-0.4357447
0.10003066,4.6642885,0.026933251,0.0027298466,-0.0029955646,-0.90500826,-9.576807,-0.37828386
0.09996663,4.6644044,0.026933251,0.0027298466,-0.0029955646,-0.90500826,-9.576807,-0.37828386
0.09983062,4.6644,0.026933251,0.0005993177,-0.0029955646,-0.8379706,-9.572019,-0.48841715
0.09969475,4.664396,0.026933251,0.0005993177,-0.0029955646,-0.8379706,-9.572019,-0.48841715
0.09961661,4.664338,0.026933251,-0.00046594674,-0.004060829,-0.8571242,-9.56723,-0.5746084
0.09953864,4.66428,0.026933251,-0.00046594674,-0.004060829,-0.8571242,-9.56723,-0.5746084
0.09939358,4.66431,0.02906378,-0.0015312112,-0.0051260935,-0.81402856,-9.562442,-0.45968673
0.09924856,4.6643395,0.02906378,-0.0015312112,-0.0051260935,-0.81402856,-9.562442,-0.45968673
0.09912323,4.664319,0.030129045,-0.0025964756,-0.0051260935,-0.8379706,-9.552865,-0.50757074
0.09899824,4.664298,0.030129045,-0.0025964756,-0.0051260935,-0.8379706,-9.552865,-0.50757074
0.098857395,4.6643023,0.031194309,-0.00366174,-0.006191358,-0.80924016,-9.557653,-0.48841715
0.098716825,4.664306,0.031194309,-0.00366174,-0.006191358,-0.80924016,-9.557653,-0.48841715
0.09859635,4.6642804,0.032259572,-0.00366174,-0.0072566224,-0.79966336,-9.514558,-0.5315128
0.09847582,4.664254,0.032259572,-0.00366174,-0.0072566224,-0.79966336,-9.514558,-0.5315128
0.09835598,4.6642323,0.034390103,-0.00366174,-0.0051260935,-0.78529817,-9.524135,-0.5363012
0.098236285,4.6642094,0.034390103,-0.00366174,-0.0051260935,-0.78529817,-9.524135,-0.5363012
0.09810574,4.6641994,0.03545537,-0.00366174,-0.006191358,-0.7422025,-9.519346,-0.5315128
0.09797531,4.6641893,0.03545537,-0.00366174,-0.006191358,-0.7422025,-9.519346,-0.5315128
0.09785414,4.664174,0.039716423,-0.0047270046,-0.0051260935,-0.7565677,-9.5385,-0.545878
0.097732805,4.6641583,0.039716423,-0.0047270046,-0.0051260935,-0.7565677,-9.5385,-0.545878
0.09759097,4.6641884,0.041846953,-0.0047270046,-0.0029955646,-0.7374141,-9.548077,-0.47884035
0.09744944,4.664218,0.041846953,-0.0047270046,-0.0029955646,-0.7374141,-9.548077,-0.47884035
0.09732629,4.664215,0.04291222,-0.00366174,0.0012654932,-0.7182605,-9.562442,-0.5410896
0.0972035,4.6642118,0.04291222,-0.00366174,0.0012654932,-0.7182605,-9.562442,-0.5410896
0.09707026,4.664239,0.045042746,-0.0025964756,0.0044612866,-0.7230489,-9.629479,-0.49320555
0.09693682,4.664265,0.045042746,-0.0025964756,0.0044612866,-0.7230489,-9.629479,-0.49320555
0.09682419,4.6642613,0.047173277,-0.00046594674,0.00765708,-0.7517793,-9.619903,-0.5410896
0.09671138,4.6642575,0.047173277,-0.00046594674,0.00765708,-0.7517793,-9.619903,-0.5410896
0.09660648,4.664251,0.049303804,0.003795111,0.011918138,-0.6991069,-9.615114,-0.5746084
0.09650172,4.6642437,0.049303804,0.003795111,0.011918138,-0.6991069,-9.615114,-0.5746084
0.09641041,4.6642275,0.05036907,0.0069909045,0.015113931,-0.6655881,-9.610326,-0.62728083
0.096319415,4.664211,0.05036907,0.0069909045,0.015113931,-0.6655881,-9.610326,-0.62728083
0.096221365,4.6642075,0.0524996,0.008056169,0.019374989,-0.7134721,-9.562442,-0.5602432
0.09612348,4.6642036,0.0524996,0.008056169,0.019374989,-0.7134721,-9.562442,-0.5602432
0.09602954,4.664201,0.0524996,0.010186698,0.024701312,-0.63206923,-9.610326,-0.59855044
0.09593525,4.664198,0.0524996,0.010186698,0.024701312,-0.63206923,-9.610326,-0.59855044
0.09593525,4.664198,0.051434334,0.012317227,0.02896237,-0.60333884,-9.677363,-0.5554548
0.09572866,4.6642265,0.051434334,0.012317227,0.02896237,-0.60333884,-9.677363,-0.5554548
0.09562737,4.6642427,0.051434334,0.012317227,0.031092897,-0.545878,-9.682152,-0.5650316
0.09552675,4.664259,0.051434334,0.012317227,0.031092897,-0.545878,-9.682152,-0.5650316
0.095432766,4.6642685,0.051434334,0.012317227,0.035353955,-0.59855044,-9.68694,-0.56982
0.09533922,4.664278,0.051434334,0.012317227,0.035353955,-0.59855044,-9.68694,-0.56982
0.09523952,4.6643047,0.051434334,0.013382491,0.037484486,-0.5363012,-9.744401,-0.5363012
0.09513986,4.6643314,0.051434334,0.013382491,0.037484486,-0.5363012,-9.744401,-0.5363012
0.09504184,4.664368,0.051434334,0.014447756,0.041745543,-0.545878,-9.725247,-0.50278234
0.09494347,4.664405,0.051434334,0.014447756,0.041745543,-0.545878,-9.725247,-0.50278234
0.094849914,4.664445,0.054630127,0.014447756,0.0460066,-0.51714754,-9.744401,-0.50757074
0.094756536,4.664484,0.054630127,0.014447756,0.0460066,-0.51714754,-9.744401,-0.50757074
0.09466942,4.664514,0.05782592,0.014447756,0.049202394,-0.5506664,-9.768343,-0.5410896
0.09458246,4.6645436,0.05782592,0.014447756,0.049202394,-0.5506664,-9.768343,-0.5410896
0.0944962,4.664604,0.06315224,0.013382491,0.054528717,-0.5746084,-9.734824,-0.46926352
0.09441013,4.6646643,0.06315224,0.013382491,0.054528717,-0.5746084,-9.734824,-0.46926352
0.094345696,4.664776,0.06847856,0.010186698,0.0609203,-0.6607997,-9.811439,-0.37349546
0.094345696,4.664776,0.06847856,0.010186698,0.0609203,-0.6607997,-9.811439,-0.37349546
0.094240956,4.6650305,0.07700068,0.0069909045,0.06624663,-0.7038953,-9.825804,-0.320823
0.09420442,4.665171,0.07700068,0.0069909045,0.06624663,-0.7038953,-9.825804,-0.320823
0.09414159,4.6652527,0.087653324,0.0069909045,0.07689927,-0.82360536,-9.768343,-0.46447513
0.09407814,4.665334,0.087653324,0.0069909045,0.07689927,-0.82360536,-9.768343,-0.46447513
0.094030865,4.6654534,0.09830597,0.011251962,0.089682445,-0.7326257,-9.825804,-0.4309563
0.09398353,4.6655717,0.09830597,0.011251962,0.089682445,-0.7326257,-9.825804,-0.4309563
0.09395097,4.665672,0.10895862,0.012317227,0.10779194,-0.59376204,-9.873688,-0.47884035
0.09391849,4.6657715,0.10895862,0.012317227,0.10779194,-0.59376204,-9.873688,-0.47884035
0.09390745,4.665861,0.120676525,0.010186698,0.12377091,-0.4213795,-9.739613,-0.5650316
0.09389666,4.66595,0.120676525,0.010186698,0.12377091,-0.4213795,-9.739613,-0.5650316
0.093895435,4.6660604,0.1334597,0.010186698,0.13655408,-0.40222588,-9.643845,-0.5267244
0.09389429,4.6661706,0.1334597,0.010186698,0.13655408,-0.40222588,-9.643845,-0.5267244
0.09390492,4.6663303,0.14624287,0.011251962,0.14933725,-0.47405192,-9.624691,-0.39743748
0.093915485,4.6664896,0.14624287,0.011251962,0.14933725,-0.47405192,-9.624691,-0.39743748
0.0939477,4.666606,0.16009131,0.017643549,0.1599899,-0.6943185,-9.619903,-0.51235914
0.09397995,4.666721,0.16009131,0.017643549,0.1599899,-0.6943185,-9.619903,-0.51235914
0.0941023,4.6668005,0.175005,0.0251004,0.17596887,-0.8619126,-9.629479,-0.521936
0.09422275,4.6668797,0.175005,0.0251004,0.17596887,-0.8619126,-9.629479,-0.521936
0.09434775,4.6669774,0.18885344,0.028296193,0.19088256,-0.81402856,-9.629479,-0.56982
0.09447134,4.667074,0.18885344,0.028296193,0.19088256,-0.81402856,-9.629479,-0.56982
0.09455383,4.667222,0.20163663,0.0251004,0.20579627,-0.7182605,-9.643845,-0.51714754
0.09463463,4.667366,0.20163663,0.0251004,0.20579627,-0.7182605,-9.643845,-0.51714754
0.09471982,4.667565,0.21655032,0.020839343,0.22497103,-0.6368576,-9.739613,-0.46926352
0.09480767,4.6677685,0.21655032,0.020839343,0.22497103,-0.6368576,-9.739613,-0.46926352
0.094913,4.6679835,0.23146403,0.018708814,0.24521105,-0.6847417,-9.854534,-0.46447513
0.095018215,4.668197,0.23146403,0.018708814,0.24521105,-0.6847417,-9.854534,-0.46447513
0.095151514,4.6684704,0.24531247,0.019774077,0.2675816,-0.8810662,-9.816227,-0.4213795
0.09528269,4.6687374,0.24531247,0.019774077,0.2675816,-0.8810662,-9.816227,-0.4213795
0.09558983,4.6690917,0.2591609,0.018708814,0.28995216,-0.9528923,-9.787497,-0.33997664
0.0958949,4.669446,0.2591609,0.018708814,0.28995216,-0.9528923,-9.787497,-0.33997664
0.096285656,4.669802,0.27620512,0.01551302,0.3155185,-1.0486604,-9.730036,-0.29688102
0.096285656,4.669802,0.27620512,0.01551302,0.3155185,-1.0486604,-9.730036,-0.29688102
0.09668041,4.670163,0.27620512,0.01551302,0.3155185,-1.1252748,-9.744401,-0.29209262
0.09757412,4.670882,0.2953799,0.012317227,0.34747645,-1.1252748,-9.744401,-0.29209262
0.09809827,4.6711955,0.31348938,0.014447756,0.38689122,-1.388637,-9.624691,-0.3878607
0.09870293,4.671556,0.31348938,0.014447756,0.38689122,-1.388637,-9.624691,-0.3878607
0.09921151,4.671835,0.33266416,0.01551302,0.43056706,-1.292869,-9.562442,-0.4357447
0.09921151,4.671835,0.33266416,0.01551302,0.43056706,-1.292869,-9.562442,-0.4357447
0.10015614,4.6724925,0.35396942,0.016578285,0.4838303,-0.8810662,-9.586384,-0.37349546
0.10050821,4.6728663,0.35396942,0.016578285,0.4838303,-0.8810662,-9.586384,-0.37349546
0.10050821,4.6728663,0.37420946,0.019774077,0.534963,-0.78050977,-9.629479,-0.33518824
0.100914,4.6732726,0.37420946,0.019774077,0.534963,-0.78050977,-9.629479,-0.33518824
0.100914,4.6732726,0.37420946,0.019774077,0.534963,-0.78050977,-9.629479,-0.33518824
0.100914,4.6732726,0.37420946,0.019774077,0.534963,-0.78050977,-9.629479,-0.33518824
0.10247228,4.6747994,0.42534214,0.021904606,0.6340326,-0.6560113,-9.519346,-0.1388637
0.103150494,4.675422,0.42534214,0.021904606,0.6340326,-0.6560113,-9.519346,-0.1388637
0.1037513,4.6759477,0.45303902,0.020839343,0.68623054,-0.5650316,-9.409213,0.04309563
0.104354955,4.676476,0.45303902,0.020839343,0.68623054,-0.5650316,-9.409213,0.04309563
0.10503272,4.6770372,0.47967064,0.0251004,0.7416243,-0.7038953,-9.3182335,0.05267244
0.105711386,4.6776004,0.47967064,0.0251004,0.7416243,-0.7038953,-9.3182335,0.05267244
0.106510155,4.6782146,0.50949806,0.030426722,0.79701805,-0.92895025,-9.275137,0.076614454
0.10727566,4.6788044,0.50949806,0.030426722,0.79701805,-0.92895025,-9.275137,0.076614454
0.108172685,4.679431,0.53826016,0.033622514,0.8545423,-1.115698,-9.184157,-0.02873042
0.10905992,4.6800528,0.53826016,0.033622514,0.8545423,-1.115698,-9.184157,-0.02873042
0.110104926,4.6806555,0.5680876,0.03468778,0.9173929,-1.2545617,-9.136273,-0.21547815
0.1111486,4.681256,0.5680876,0.03468778,0.9173929,-1.2545617,-9.136273,-0.21547815
0.112201445,4.6817575,0.59684974,0.030426722,0.9877004,-1.2018893,-9.141062,-0.51714754
0.11325149,4.6822577,0.59684974,0.030426722,0.9877004,-1.2018893,-9.141062,-0.51714754
0.114329964,4.682771,0.6202856,0.026165664,1.06653,-1.0869676,-9.150639,-0.60812724
0.1154054,4.6832843,0.6202856,0.026165664,1.06653,-1.0869676,-9.150639,-0.60812724
0.116576694,4.683817,0.6383951,0.021904606,1.14749,-1.1587936,-9.212888,-0.61770403
0.11774477,4.6843495,0.6383951,0.021904606,1.14749,-1.1587936,-9.212888,-0.61770403
0.11900882,4.6848984,0.65330875,0.017643549,1.2327112,-1.2593501,-9.284714,-0.7374141
0.12027033,4.6854467,0.65330875,0.017643549,1.2327112,-1.2593501,-9.284714,-0.7374141
0.12160281,4.686006,0.6660919,0.008056169,1.3243239,-1.1827357,-9.308656,-0.8714894
0.12293323,4.6865654,0.6660919,0.008056169,1.3243239,-1.1827357,-9.308656,-0.8714894
0.12433638,4.6871395,0.6788751,-0.008988062,1.4159367,-1.0582372,-9.270349,-0.9576807
0.12573785,4.6877136,0.6788751,-0.008988062,1.4159367,-1.0582372,-9.270349,-0.9576807
0.12722042,4.6883044,0.69165826,-0.030293351,1.5128758,-0.89543146,-9.184157,-1.091756
0.12870164,4.688896,0.69165826,-0.030293351,1.5128758,-0.89543146,-9.184157,-1.091756
0.13026258,4.6895022,0.7001804,-0.054794434,1.6119454,-0.6703765,-9.050082,-1.1300632
0.13183498,4.690114,0.7001804,-0.054794434,1.6119454,-0.6703765,-9.050082,-1.1300632
0.13348101,4.690733,0.7055067,-0.078230254,1.7120802,-0.32561144,-8.892065,-1.3503298
0.13512307,4.691351,0.7055067,-0.078230254,1.7120802,-0.32561144,-8.892065,-1.3503298
0.13682717,4.6919813,0.7023109,-0.09633975,1.8100846,0.19632454,-8.552089,-1.2162545
0.1385395,4.6926155,0.7023109,-0.09633975,1.8100846,0.19632454,-8.552089,-1.2162545
0.14033872,4.6932445,0.6927235,-0.108057655,1.904893,0.5793968,-8.346188,-1.3551182
0.14213946,4.6938744,0.6927235,-0.108057655,1.904893,0.5793968,-8.346188,-1.3551182
0.14401929,4.694484,0.67354876,-0.108057655,1.9901142,0.89543146,-8.0684595,-1.5035586
0.14591959,4.6951013,0.67354876,-0.108057655,1.9901142,0.89543146,-8.0684595,-1.5035586
0.14786863,4.695686,0.64691716,-0.09740501,2.0668132,1.2354081,-7.7667904,-1.5658079
0.14982721,4.6962743,0.64691716,-0.09740501,2.0668132,1.2354081,-7.7667904,-1.5658079
0.14982721,4.6962743,0.613894,-0.08036078,2.1349902,1.3024458,-7.5944076,-1.5370775
0.15387857,4.6973834,0.613894,-0.08036078,2.1349902,1.3024458,-7.5944076,-1.5370775
0.15595368,4.697893,0.57447916,-0.059055492,2.194645,1.3024458,-7.359776,-1.5035586
0.15801412,4.6984,0.57447916,-0.059055492,2.194645,1.3024458,-7.359776,-1.5035586
0.16014914,4.698863,0.5318686,-0.040945996,2.258561,1.2737153,-7.1347213,-1.4987702
0.16229257,4.6993284,0.5318686,-0.040945996,2.258561,1.2737153,-7.1347213,-1.4987702
0.16450606,4.6997504,0.48925802,-0.026032293,2.3256726,1.3455414,-7.005434,-1.4987702
0.16672166,4.700173,0.48925802,-0.026032293,2.3256726,1.3455414,-7.005434,-1.4987702
0.1689941,4.700551,0.44771272,-0.015379649,2.4002411,1.4652514,-6.9240313,-1.508347
0.1712915,4.7009335,0.44771272,-0.015379649,2.4002411,1.4652514,-6.9240313,-1.508347
0.17364135,4.701273,0.40829793,-0.0015312112,2.4812012,1.5658079,-6.8186865,-1.4508862
0.17600049,4.7016144,0.40829793,-0.0015312112,2.4812012,1.5658079,-6.8186865,-1.4508862
0.17844294,4.701913,0.37101367,0.018708814,2.5717487,1.6232687,-6.7468605,-1.4987702
0.18090479,4.702214,0.37101367,0.018708814,2.5717487,1.6232687,-6.7468605,-1.4987702
0.18343931,4.7024765,0.3369252,0.043209895,2.666557,1.7669208,-6.670246,-1.4939818
0.18597887,4.702739,0.3369252,0.043209895,2.666557,1.7669208,-6.670246,-1.4939818
0.18861341,4.7029724,0.30816308,0.071972035,2.7656267,1.9728222,-6.6175733,-1.4173675
0.19125043,4.7032065,0.30816308,0.071972035,2.7656267,1.9728222,-6.6175733,-1.4173675
0.19399966,4.703411,0.283662,0.104995236,2.867892,2.1452048,-6.4739213,-1.4508862
0.19672963,4.7036138,0.283662,0.104995236,2.867892,2.1452048,-6.4739213,-1.4508862
0.19672963,4.7036138,0.283662,0.104995236,2.867892,2.1452048,-6.4739213,-1.4508862
0.20242582,4.7039633,0.26342195,0.14547528,2.9712229,2.3080103,-6.339846,-1.5131354
0.20536242,4.7041073,0.2442472,0.18915112,3.0788145,2.336741,-6.172252,-1.5370775
0.20830196,4.704251,0.2442472,0.18915112,3.0788145,2.336741,-6.172252,-1.5370775
0.21136482,4.7043643,0.2261377,0.23389223,3.1864061,2.3702598,-6.042965,-1.6280571
0.21442766,4.7044773,0.2261377,0.23389223,3.1864061,2.3702598,-6.042965,-1.6280571
0.21759468,4.7045627,0.21015874,0.2796986,3.293998,2.3750482,-5.9280434,-1.6232687
0.2207616,4.7046475,0.21015874,0.2796986,3.293998,2.3750482,-5.9280434,-1.6232687
0.22402412,4.7047057,0.1963103,0.32657024,3.402655,2.4372973,-5.8466406,-1.6759412
0.22727683,4.7047625,0.1963103,0.32657024,3.402655,2.4372973,-5.8466406,-1.6759412
0.23067005,4.7047973,0.18565765,0.37237662,3.5102465,2.2888567,-5.707777,-1.6089035
0.23405637,4.70483,0.18565765,0.37237662,3.5102465,2.2888567,-5.707777,-1.6089035
0.2375444,4.7048416,0.17926607,0.418183,3.62423,2.0159178,-5.5880666,-1.5849615
0.24103235,4.7048507,0.17926607,0.418183,3.62423,2.0159178,-5.5880666,-1.5849615
0.24465045,4.7048454,0.17607027,0.4597283,3.7478006,1.733402,-5.4204726,-1.4269443
0.24826834,4.7048388,0.17607027,0.4597283,3.7478006,1.733402,-5.4204726,-1.4269443
0.25201347,4.7048254,0.18033133,0.4980778,3.883089,1.508347,-5.2624555,-1.292869
0.25576591,4.7048097,0.18033133,0.4980778,3.883089,1.508347,-5.2624555,-1.292869
0.25967064,4.7047915,0.18991871,0.53323156,4.035422,1.3311762,-5.142745,-1.2114661
0.26360643,4.7047715,0.18991871,0.53323156,4.035422,1.3311762,-5.142745,-1.2114661
0.26765606,4.704752,0.20270188,0.563059,4.200538,1.292869,-5.0278234,-1.2162545
0.27172577,4.7047305,0.20270188,0.563059,4.200538,1.292869,-5.0278234,-1.2162545
0.27596217,4.7047153,0.21761559,0.58969057,4.373111,1.3503298,-4.855441,-1.1683705
0.28020254,4.7046976,0.21761559,0.58969057,4.373111,1.3503298,-4.855441,-1.1683705
0.28462043,4.7046876,0.23146403,0.61632216,4.5531406,1.4652514,-4.7261543,-1.091756
0.2890381,4.7046747,0.23146403,0.61632216,4.5531406,1.4652514,-4.7261543,-1.091756
0.29364356,4.704658,0.24211667,0.6461496,4.7406273,1.4508862,-4.5394063,-1.0965444
0.29824877,4.7046385,0.24211667,0.6461496,4.7406273,1.4508862,-4.5394063,-1.0965444
0.30304286,4.704608,0.24744299,0.67491174,4.9281135,1.3455414,-4.3478703,-1.1252748
0.30783677,4.7045736,0.24744299,0.67491174,4.9281135,1.3455414,-4.3478703,-1.1252748
0.31281263,4.7045236,0.24637774,0.6994128,5.1092086,1.1779473,-4.1659107,-1.0821792
0.3177881,4.70447,0.24637774,0.6994128,5.1092086,1.1779473,-4.1659107,-1.0821792
0.32294,4.7043934,0.23572509,0.7175223,5.284977,1.0486604,-3.9360676,-1.0342951
0.32809168,4.7043123,0.23572509,0.7175223,5.284977,1.0486604,-3.9360676,-1.0342951
0.3334197,4.704193,0.21761559,0.7271097,5.453289,0.6703765,-3.6727054,-1.0726024
0.33874717,4.7040696,0.21761559,0.7271097,5.453289,0.6703765,-3.6727054,-1.0726024
0.34423843,4.703911,0.19417977,0.7271097,5.610948,0.3878607,-3.394978,-0.9959879
0.3497288,4.7037473,0.19417977,0.7271097,5.610948,0.3878607,-3.394978,-0.9959879
0.35539368,4.70354,0.1664829,0.7185876,5.7664766,-0.05746084,-3.1842883,-0.9624691
0.36105725,4.703327,0.1664829,0.7185876,5.7664766,-0.05746084,-3.1842883,-0.9624691
0.36688465,4.7030754,0.1334597,0.70154333,5.9156137,-0.33039984,-3.0119057,-0.8762778
0.37271625,4.702818,0.1334597,0.70154333,5.9156137,-0.33039984,-3.0119057,-0.8762778
0.37870884,4.7025213,0.09830597,0.6738465,6.057294,-0.6464345,-2.873042,-0.79008657
0.38469926,4.7022195,0.09830597,0.6738465,6.057294,-0.6464345,-2.873042,-0.79008657
0.39084578,4.701885,0.061021715,0.6376275,6.1915174,-0.8858546,-2.791639,-0.641646
0.39703223,4.7015424,0.061021715,0.6376275,6.1915174,-0.8858546,-2.791639,-0.641646
0.4033073,4.7011776,0.023737457,0.5950169,6.3214793,-1.2162545,-2.7964275,-0.37349546
0.40962708,4.7008033,0.023737457,0.5950169,6.3214793,-1.2162545,-2.7964275,-0.37349546
0.41620612,4.7005186,-0.012481534,0.5524063,6.4461155,-1.4700398,-2.834735,-0.02873042
0.42278475,4.700229,-0.012481534,0.5524063,6.4461155,-1.4700398,-2.834735,-0.02873042
0.42943123,4.6999836,-0.050831053,0.5140568,6.561164,-1.8962077,-2.9017725,0.36870706
0.43608204,4.699734,-0.050831053,0.5140568,6.561164,-1.8962077,-2.9017725,0.36870706
0.4428278,4.6994524,-0.089180574,0.4799683,6.6687555,-2.4899697,-3.0119057,0.6847417
0.449579,4.6991663,-0.089180574,0.4799683,6.6687555,-2.4899697,-3.0119057,0.6847417
0.45642734,4.6988473,-0.1275301,0.45120618,6.767825,-3.074155,-3.074155,1.0342951
0.46327466,4.6985235,-0.1275301,0.45120618,6.767825,-3.074155,-3.074155,1.0342951
0.47021377,4.6981583,-0.16907541,0.42883563,6.8541117,-3.5529952,-3.2561142,1.115698
0.477152,4.6977887,-0.16907541,0.42883563,6.8541117,-3.5529952,-3.2561142,1.115698
0.48417294,4.6973705,-0.21381652,0.41179138,6.9297457,-4.175488,-3.5865142,1.1444284
0.49119297,4.696947,-0.21381652,0.41179138,6.9297457,-4.175488,-3.5865142,1.1444284
0.49828333,4.696471,-0.2628187,0.39794296,6.9947267,-4.5154643,-3.8833952,1.067814
0.5053728,4.6959896,-0.2628187,0.39794296,6.9947267,-4.5154643,-3.8833952,1.067814
0.5125244,4.6954484,-0.3160819,0.37983346,7.0469246,-5.0278234,-4.237737,0.89064306
0.5196754,4.6949015,-0.3160819,0.37983346,7.0469246,-5.0278234,-4.237737,0.89064306
0.5268724,4.6942964,-0.37147567,0.35639766,7.085274,-5.3007627,-4.5777135,0.6799533
0.53406876,4.693685,-0.37147567,0.35639766,7.085274,-5.3007627,-4.5777135,0.6799533
0.54132396,4.6930094,-0.42793468,0.32657024,7.105514,-5.645528,-4.8698063,0.39743748
0.5486003,4.6923256,-0.42793468,0.32657024,7.105514,-5.645528,-4.8698063,0.39743748
0.5557981,4.6915984,-0.4843937,0.28822073,7.10871,-6.066907,-5.0613422,0.23463176
0.56306785,4.690857,-0.4843937,0.28822073,7.10871,-6.066907,-5.0613422,0.23463176
0.5702809,4.690087,-0.5355264,0.24134909,7.100188,-6.363788,-5.2863975,0.14844051
0.5774791,4.6893115,-0.5355264,0.24134909,7.100188,-6.363788,-5.2863975,0.14844051
0.58468306,4.6885085,-0.5834633,0.18275954,7.081013,-6.5936313,-5.434838,0.019153614
0.5919084,4.687697,-0.5834633,0.18275954,7.081013,-6.5936313,-5.434838,0.019153614
0.5990736,4.6868877,-0.62607384,0.11564788,7.049055,-6.6175733,-5.506664,0.06703765
0.60625297,4.6860704,-0.62607384,0.11564788,7.049055,-6.6175733,-5.506664,0.06703765
0.6134058,4.685258,-0.6633581,0.04427516,7.0064445,-6.646304,-5.544971,0.047884032
0.62057257,4.6844378,-0.6633581,0.04427516,7.0064445,-6.646304,-5.544971,0.047884032
0.6278031,4.683629,-0.69212025,-0.028162822,6.9499855,-6.6989765,-5.5401826,0.1436521
0.6348346,4.6828384,-0.69212025,-0.028162822,6.9499855,-6.6989765,-5.5401826,0.1436521
0.64194167,4.682057,-0.71236026,-0.095274486,6.882874,-6.9000893,-5.554548,0.15801731
0.6488729,4.681291,-0.71236026,-0.095274486,6.882874,-6.9000893,-5.554548,0.15801731
0.6557853,4.680561,-0.72620875,-0.1549293,6.8051095,-7.0341644,-5.5258174,0.39264908
0.6557853,4.680561,-0.72620875,-0.1549293,6.8051095,-7.0341644,-5.5258174,0.39264908
0.66837513,4.6792226,-0.72620875,-0.1549293,6.8051095,-7.0341644,-5.5258174,0.39264908
0.6711686,4.6789355,-0.731535,-0.20393145,6.718823,-7.2209125,-5.5162406,0.4309563
0.67691267,4.6783433,-0.731535,-0.20393145,6.718823,-7.2209125,-5.5162406,0.4309563
0.6841561,4.677618,-0.7294045,-0.24334624,6.6261454,-7.417237,-5.5162406,0.40222588
0.69141227,4.6768894,-0.7294045,-0.24334624,6.6261454,-7.417237,-5.5162406,0.40222588
0.6970154,4.676353,-0.72194767,-0.27636945,6.527076,-7.771579,-5.60722,0.5554548
0.7045812,4.6756268,-0.7091645,-0.30513158,6.4226794,-7.929596,-5.6551046,0.6560113
0.71006155,4.675128,-0.7091645,-0.30513158,6.4226794,-7.929596,-5.6551046,0.6560113
0.7229433,4.6739736,-0.69212025,-0.3285674,6.315088,-8.183381,-5.827487,0.8283938
0.7293322,4.6734276,-0.69212025,-0.3285674,6.315088,-8.183381,-5.827487,0.8283938
0.73561156,4.6729264,-0.67188025,-0.34561163,6.2043004,-8.441956,-5.961562,1.043872
0.74192154,4.6724224,-0.67188025,-0.34561163,6.2043004,-8.441956,-5.961562,1.043872
0.7481335,4.6719565,-0.64950967,-0.35413375,6.0924478,-8.767567,-6.1530986,1.2258313
0.75431347,4.6714926,-0.64950967,-0.35413375,6.0924478,-8.767567,-6.1530986,1.2258313
0.7604,4.671056,-0.6282044,-0.35413375,5.978464,-9.160215,-6.3302693,1.4173675
0.7664793,4.67062,-0.6282044,-0.35413375,5.978464,-9.160215,-6.3302693,1.4173675
0.7724484,4.6701975,-0.60902965,-0.3413506,5.861285,-9.572019,-6.5984197,1.6136919
0.77840984,4.6697764,-0.60902965,-0.3413506,5.861285,-9.572019,-6.5984197,1.6136919
0.7842289,4.669352,-0.59518117,-0.3168495,5.73878,-9.959879,-6.83784,1.6950948
0.78979015,4.6689463,-0.59518117,-0.3168495,5.73878,-9.959879,-6.83784,1.6950948
0.79549974,4.6684947,-0.5855938,-0.28169575,5.6088176,-10.46745,-7.067683,1.5705963
0.8014582,4.6680236,-0.5855938,-0.28169575,5.6088176,-10.46745,-7.067683,1.5705963
0.8070242,4.667534,-0.5834633,-0.24121572,5.4756594,-10.984597,-7.359776,1.4700398
0.81258297,4.6670446,-0.5834633,-0.24121572,5.4756594,-10.984597,-7.359776,1.4700398
0.8179926,4.6665206,-0.5887896,-0.19860514,5.3318486,-11.506534,-8.293514,1.661576
0.8234217,4.665993,-0.5887896,-0.19860514,5.3318486,-11.506534,-8.293514,1.661576
0.8286946,4.6654077,-0.5898549,-0.15705982,5.1816463,-12.090718,-7.967903,1.2976574
0.833971,4.6648197,-0.5898549,-0.15705982,5.1816463,-12.090718,-7.967903,1.2976574
0.83913445,4.6641083,-0.5919854,-0.12723242,5.027183,-14.140155,-5.932832,-0.11492168
0.844298,4.6633916,-0.5919854,-0.12723242,5.027183,-14.140155,-5.932832,-0.11492168
0.8491286,4.662795,-0.62926966,-0.14108086,4.8365006,-10.702082,-9.89763,2.1499932
0.8539567,4.6621943,-0.62926966,-0.14108086,4.8365006,-10.702082,-9.89763,2.1499932
0.85859084,4.6615415,-0.6527055,-0.110188186,4.6532755,-11.48738,-10.817003,2.7006595
0.86322796,4.660883,-0.6527055,-0.110188186,4.6532755,-11.48738,-10.817003,2.7006595
0.8676933,4.6601825,-0.6228781,-0.043076526,4.4860287,-12.971785,-12.0571995,2.7724855
0.87215674,4.6594763,-0.6228781,-0.043076526,4.4860287,-12.971785,-12.0571995,2.7724855
0.87651044,4.6587996,-0.54298323,0.0016645822,4.316652,-14.030022,-11.343728,1.7525556
0.880835,4.6581225,-0.54298323,0.0016645822,4.316652,-14.030022,-11.343728,1.7525556
0.8851157,4.657428,-0.43432626,0.014447756,4.1504707,-15.270219,-8.887277,-0.02873042
0.88937926,4.65673,-0.43432626,0.014447756,4.1504707,-15.270219,-8.887277,-0.02873042
0.8934764,4.6561265,-0.3491051,-0.011118591,3.9810934,-15.500062,-8.408437,-0.39743748
0.8975942,4.6555147,-0.3491051,-0.011118591,3.9810934,-15.500062,-8.408437,-0.39743748
0.9015329,4.655051,-0.29051554,-0.066512346,3.8085206,-15.198392,-8.283937,-0.23942018
0.90547544,4.654585,-0.29051554,-0.066512346,3.8085206,-15.198392,-8.283937,-0.23942018
0.90923184,4.6543016,-0.24151339,-0.13575453,3.6274257,-14.839262,-8.542512,0.1436521
0.9129915,4.654017,-0.24151339,-0.13575453,3.6274257,-14.839262,-8.542512,0.1436521
0.91656387,4.6539397,-0.1871849,-0.21245357,3.4346128,-13.910312,-8.719683,0.3878607
0.9200849,4.6538663,-0.1871849,-0.21245357,3.4346128,-13.910312,-8.719683,0.3878607
0.9233943,4.654011,-0.121138506,-0.29021788,3.2279515,-13.101071,-8.791509,0.5554548
0.9267045,4.6541595,-0.121138506,-0.29021788,3.2279515,-13.101071,-8.791509,0.5554548
0.9297828,4.6545,-0.04443947,-0.35200322,3.0138333,-12.722788,-8.743625,0.7565677
0.93285835,4.654845,-0.04443947,-0.35200322,3.0138333,-12.722788,-8.743625,0.7565677
0.9357202,4.655363,0.04291222,-0.40207064,2.791193,-12.6222315,-8.475474,0.79966336
0.9385791,4.655887,0.04291222,-0.40207064,2.791193,-12.6222315,-8.475474,0.79966336
0.9412458,4.6565695,0.13878602,-0.44787702,2.5642917,-12.89517,-8.00621,0.6655881
0.94391096,4.657258,0.13878602,-0.44787702,2.5642917,-12.89517,-8.00621,0.6655881
0.9463872,4.658101,0.23892088,-0.4968792,2.343782,-13.158532,-7.4028716,0.49320555
0.94886243,4.6589513,0.23892088,-0.4968792,2.343782,-13.158532,-7.4028716,0.49320555
0.95114166,4.6599703,0.3369252,-0.5522729,2.1307292,-13.350069,-6.8665705,0.35434186
0.95342076,4.6609955,0.3369252,-0.5522729,2.1307292,-13.350069,-6.8665705,0.35434186
0.9555049,4.6622133,0.42853796,-0.6151235,1.9272636,-13.512875,-6.555324,0.33518824
0.95758414,4.6634355,0.42853796,-0.6151235,1.9272636,-13.512875,-6.555324,0.33518824
0.95948046,4.6648593,0.5126938,-0.6822352,1.7376466,-13.589489,-6.339846,0.39743748
0.9613689,4.6662836,0.5126938,-0.6822352,1.7376466,-13.589489,-6.339846,0.39743748
0.96310866,4.667924,0.59045815,-0.75147736,1.566139,-13.536817,-6.114791,0.45489833
0.9648204,4.6695447,0.59045815,-0.75147736,1.566139,-13.536817,-6.114791,0.45489833
0.9663917,4.671361,0.66289616,-0.8207196,1.4148715,-13.426683,-5.889736,0.46926352
0.96796525,4.6731873,0.66289616,-0.8207196,1.4148715,-13.426683,-5.889736,0.46926352
0.96940106,4.675194,0.72787726,-0.88463545,1.2785176,-13.283031,-5.674258,0.59855044
0.970834,4.677205,0.72787726,-0.88463545,1.2785176,-13.283031,-5.674258,0.59855044
0.97215044,4.6793737,0.7854015,-0.9368334,1.1570774,-13.196839,-5.45878,0.6703765
0.9734614,4.6815434,0.7854015,-0.9368334,1.1570774,-13.196839,-5.45878,0.6703765
0.9746646,4.6838346,0.83546895,-0.9762482,1.0516162,-13.192051,-5.2385135,0.7613561
0.9758667,4.6861324,0.83546895,-0.9762482,1.0516162,-13.192051,-5.2385135,0.7613561
0.9769745,4.6885185,0.8770143,-1.0028799,0.957873,-13.2351465,-5.0134583,0.7565677
0.9780803,4.6909103,0.8770143,-1.0028799,0.957873,-13.2351465,-5.0134583,0.7565677
0.9791004,4.6933646,0.90790695,-1.0167283,0.8747823,-13.345281,-4.855441,0.8331822
0.9801185,4.6958246,0.90790695,-1.0167283,0.8747823,-13.345281,-4.855441,0.8331822
0.9810611,4.69831,0.92601645,-1.0167283,0.8012791,-13.469779,-4.7644615,0.8619126
0.9820011,4.700801,0.92601645,-1.0167283,0.8012791,-13.469779,-4.7644615,0.8619126
0.9828792,4.7032776,0.93240803,-1.0050104,0.7384285,-13.651738,-4.5920787,0.7326257
0.9837551,4.705759,0.93240803,-1.0050104,0.7384285,-13.651738,-4.5920787,0.7326257
0.984577,4.708205,0.92601645,-0.98370504,0.68623054,-13.809755,-4.5441947,0.7230489
0.98539686,4.710656,0.92601645,-0.98370504,0.68623054,-13.809755,-4.5441947,0.7230489
0.9861678,4.713046,0.90577644,-0.9549429,0.6393589,-13.867216,-4.501099,0.6943185
0.98693705,4.7154403,0.90577644,-0.9549429,0.6393589,-13.867216,-4.501099,0.6943185
0.98766255,4.7177505,0.8727532,-0.9197892,0.59568304,-13.76666,-4.4963107,0.62249243
0.9883872,4.72007,0.8727532,-0.9197892,0.59568304,-13.76666,-4.4963107,0.62249243
0.98906183,4.722279,0.8301427,-0.8793091,0.55094194,-13.737929,-4.606444,0.6464345
0.98973453,4.724492,0.8301427,-0.8793091,0.55094194,-13.737929,-4.606444,0.6464345
0.99037147,4.7266183,0.7779447,-0.8324375,0.50620085,-13.761871,-4.7070007,0.6560113
0.9909913,4.728695,0.7779447,-0.8324375,0.50620085,-13.761871,-4.7070007,0.6560113
0.991571,4.7306414,0.7172246,-0.778109,0.46039447,-13.8480625,-4.7405195,0.5793968
0.9921513,4.732596,0.7172246,-0.778109,0.46039447,-13.8480625,-4.7405195,0.5793968
0.99268514,4.734395,0.6490477,-0.72165,0.41565338,-13.891158,-4.841076,0.59855044
0.99322313,4.7362146,0.6490477,-0.72165,0.41565338,-13.891158,-4.841076,0.59855044
0.99322313,4.7362146,0.6490477,-0.72165,0.41565338,-13.891158,-4.841076,0.59855044
0.9941913,4.739501,0.577675,-0.65986466,0.3634554,-13.953407,-4.9895163,0.5554548
0.9946119,4.740952,0.5020412,-0.5980793,0.30806166,-14.030022,-5.1666875,0.60333884
0.9950428,4.7424407,0.5020412,-0.5980793,0.30806166,-14.030022,-5.1666875,0.60333884
0.9954066,4.743726,0.4242769,-0.5320329,0.25053737,-14.12579,-5.410896,0.7230489
0.9957748,4.74503,0.4242769,-0.5320329,0.25053737,-14.12579,-5.410896,0.7230489
0.9957748,4.74503,0.4242769,-0.5320329,0.25053737,-14.12579,-5.410896,0.7230489
0.9963814,4.747267,0.34757784,-0.46385598,0.18555625,-14.259866,-5.659893,0.7374141
0.9966152,4.7482076,0.27194408,-0.3946138,0.11631405,-14.30775,-5.985504,0.80924016
0.99684733,4.749142,0.27194408,-0.3946138,0.11631405,-14.30775,-5.985504,0.80924016
0.99701387,4.749892,0.19950609,-0.32430634,0.0460066,-14.422671,-6.2823853,0.7422025
0.99718094,4.7506447,0.19950609,-0.32430634,0.0460066,-14.422671,-6.2823853,0.7422025
0.9972777,4.7512245,0.1334597,-0.2561294,-0.026431382,-14.441825,-6.603208,0.7326257
0.99737424,4.7518034,0.1334597,-0.2561294,-0.026431382,-14.441825,-6.603208,0.7326257
0.9973986,4.752219,0.07060909,-0.19114828,-0.10099989,-14.350845,-6.9240313,0.7038953
0.9974227,4.752634,0.07060909,-0.19114828,-0.10099989,-14.350845,-6.9240313,0.7038953
0.9973758,4.752882,0.010954284,-0.12723242,-0.1755684,-14.259866,-7.201759,0.6464345
0.9973289,4.753131,0.010954284,-0.12723242,-0.1755684,-14.259866,-7.201759,0.6464345
0.9972099,4.75322,-0.041243672,-0.066512346,-0.25226745,-14.144943,-7.4124484,0.5506664
0.99709076,4.7533092,-0.041243672,-0.066512346,-0.25226745,-14.144943,-7.4124484,0.5506664
0.99689037,4.7532673,-0.089180574,-0.011118591,-0.3342928,-13.9151,-7.599196,0.5506664
0.99669033,4.7532253,-0.089180574,-0.011118591,-0.3342928,-13.9151,-7.599196,0.5506664
0.99640954,4.7530317,-0.13072589,0.040014103,-0.4216445,-13.728353,-7.7332716,0.41180268
0.9961283,4.752839,-0.13072589,0.040014103,-0.4216445,-13.728353,-7.7332716,0.41180268
0.9957568,4.752497,-0.16907541,0.086885735,-0.5153878,-13.417107,-7.833828,0.30166942
0.9953836,4.752157,-0.16907541,0.086885735,-0.5153878,-13.417107,-7.833828,0.30166942
0.994909,4.751681,-0.19996808,0.12736578,-0.61765313,-13.139379,-7.896077,0.22026655
0.99443233,4.751206,-0.19996808,0.12736578,-0.61765313,-13.139379,-7.896077,0.22026655
0.99384636,4.7506256,-0.22553442,0.16358478,-0.7241796,-12.765883,-7.8865004,0.22026655
0.9932609,4.7500496,-0.22553442,0.16358478,-0.7241796,-12.765883,-7.8865004,0.22026655
0.99251044,4.7493095,-0.24577445,0.19447745,-0.83709764,-12.454638,-7.867347,0.076614454
0.99176335,4.7485743,-0.24577445,0.19447745,-0.83709764,-12.454638,-7.867347,0.076614454
0.9908584,4.747752,-0.26068816,0.2200438,-0.9532115,-12.152967,-7.819463,0.023942016
0.98995876,4.746935,-0.26068816,0.2200438,-0.9532115,-12.152967,-7.819463,0.023942016
0.98889905,4.7460623,-0.27027553,0.24028382,-1.0725211,-11.731588,-7.690176,-0.07182605
0.9878437,4.745193,-0.27027553,0.24028382,-1.0725211,-11.731588,-7.690176,-0.07182605
0.9866344,4.744294,-0.27560186,0.25519753,-1.192896,-11.343728,-7.589619,-0.08140286
0.9854289,4.7433977,-0.27560186,0.25519753,-1.192896,-11.343728,-7.589619,-0.08140286
0.98409986,4.7424808,-0.27453658,0.2679807,-1.3111403,-11.046846,-7.4268136,-0.08619126
0.9827768,4.741567,-0.27453658,0.2679807,-1.3111403,-11.046846,-7.4268136,-0.08619126
0.9813223,4.740655,-0.268145,0.27330703,-1.4283195,-10.730812,-7.326257,-0.15322891
0.97987,4.7397447,-0.268145,0.27330703,-1.4283195,-10.730812,-7.326257,-0.15322891
0.97829884,4.7388463,-0.25536183,0.27437228,-1.5423027,-10.477027,-7.16824,-0.095768064
0.97673327,4.7379503,-0.25536183,0.27437228,-1.5423027,-10.477027,-7.16824,-0.095768064
0.97505915,4.737078,-0.2383176,0.27011123,-1.6456333,-10.218452,-7.0102224,-0.06703765
0.97339547,4.73621,-0.2383176,0.27011123,-1.6456333,-10.218452,-7.0102224,-0.06703765
0.9716151,4.735379,-0.21701232,0.26265436,-1.7436377,-9.950302,-6.8809357,-0.033518825
0.96984315,4.73455,-0.21701232,0.26265436,-1.7436377,-9.950302,-6.8809357,-0.033518825
0.96794945,4.733781,-0.19144596,0.24880594,-1.8320546,-9.65821,-6.789956,-0.033518825
0.96794945,4.733781,-0.19144596,0.24880594,-1.8320546,-9.65821,-6.789956,-0.033518825
0.9640216,4.73237,-0.16268381,0.2349575,-1.9087536,-9.466674,-6.670246,0.10534488
0.9620032,4.731744,-0.16268381,0.2349575,-1.9087536,-9.466674,-6.670246,0.10534488
0.9620032,4.731744,-0.13072589,0.21791327,-1.9737349,-9.332599,-6.5696893,0.05746084
0.95991105,4.731076,-0.13072589,0.21791327,-1.9737349,-9.332599,-6.5696893,0.05746084
0.95991105,4.731076,-0.13072589,0.21791327,-1.9737349,-9.332599,-6.5696893,0.05746084
0.95991105,4.731076,-0.13072589,0.21791327,-1.9737349,-9.332599,-6.5696893,0.05746084
0.9519934,4.728774,-0.06361423,0.17849848,-2.0728045,-8.911219,-6.215348,0.05746084
0.9519934,4.728774,-0.06361423,0.17849848,-2.0728045,-8.911219,-6.215348,0.05746084
0.9498976,4.7282934,-0.06361423,0.17849848,-2.0728045,-8.911219,-6.215348,0.05746084
0.94605994,4.727908,-0.029525764,0.15506266,-2.1100886,-8.66701,-6.081272,0.1436521
0.94605994,4.727908,-0.029525764,0.15506266,-2.1100886,-8.66701,-6.081272,0.1436521
0.94189364,4.7277913,0.0045626974,0.13162684,-2.1399162,-8.422802,-6.042965,0.19632454
0.93977785,4.727787,0.037585896,0.11138682,-2.1633518,-8.250419,-5.9567738,0.15322891
0.93771183,4.727768,0.037585896,0.11138682,-2.1633518,-8.250419,-5.9567738,0.15322891
0.9355477,4.727832,0.07060909,0.09327733,-2.1793308,-8.0684595,-5.884948,0.23463176
0.9355477,4.727832,0.07060909,0.09327733,-2.1793308,-8.0684595,-5.884948,0.23463176
0.931235,4.7279673,0.10150176,0.07942889,-2.1899836,-7.9391727,-5.837064,0.22026655
0.92909807,4.728075,0.10150176,0.07942889,-2.1899836,-7.9391727,-5.837064,0.22026655
0.92687213,4.728229,0.12919864,0.06877624,-2.1953099,-7.7093296,-5.779603,0.16280572
0.92469114,4.728384,0.12919864,0.06877624,-2.1953099,-7.7093296,-5.779603,0.16280572
0.9224086,4.7285376,0.15583025,0.061319392,-2.1953099,-7.5082164,-5.770026,0.16759412
0.92014235,4.7287035,0.15583025,0.061319392,-2.1953099,-7.5082164,-5.770026,0.16759412
0.9180177,4.728906,0.18033133,0.05918886,-2.188918,-7.441179,-5.631162,0.12928689
0.915923,4.7290845,0.18033133,0.05918886,-2.188918,-7.441179,-5.631162,0.12928689
0.91379946,4.729014,0.20270188,0.05918886,-2.1814613,-7.311892,-5.5737014,0.038307227
0.9116916,4.7289596,0.20270188,0.05918886,-2.1814613,-7.311892,-5.5737014,0.038307227
0.90956175,4.728903,0.2229419,0.060254127,-2.1697435,-7.1586633,-5.511452,0.019153614
0.9074539,4.7288566,0.2229419,0.060254127,-2.1697435,-7.1586633,-5.511452,0.019153614
0.9052338,4.72883,0.23998614,0.062384658,-2.1537645,-6.847417,-5.425261,0.01436521
0.903033,4.7287946,0.23998614,0.062384658,-2.1537645,-6.847417,-5.425261,0.01436521
0.90088844,4.728759,0.2559651,0.06877624,-2.1345897,-6.7851677,-5.391742,-0.16280572
0.898751,4.728724,0.2559651,0.06877624,-2.1345897,-6.7851677,-5.391742,-0.16280572
0.89666593,4.728701,0.26981354,0.074102566,-2.1143496,-6.742072,-5.291186,-0.11971009
0.89458907,4.7286816,0.26981354,0.074102566,-2.1143496,-6.742072,-5.291186,-0.11971009
0.892568,4.728682,0.27940091,0.07942889,-2.0930445,-6.7372837,-5.2241483,-0.090979666
0.89055264,4.7286882,0.27940091,0.07942889,-2.0930445,-6.7372837,-5.2241483,-0.090979666
0.8885735,4.7287064,0.28685778,0.085820474,-2.0717392,-6.670246,-5.2002063,-0.047884032
0.88659585,4.7287297,0.28685778,0.085820474,-2.0717392,-6.670246,-5.2002063,-0.047884032
0.88463604,4.728746,0.29111883,0.0911468,-2.0493686,-6.6510925,-5.171476,-0.090979666
0.88268036,4.7287664,0.29111883,0.0911468,-2.0493686,-6.6510925,-5.171476,-0.090979666
0.8807627,4.728799,0.2921841,0.09540785,-2.0238023,-6.612785,-5.2241483,-0.019153614
0.878851,4.728837,0.2921841,0.09540785,-2.0238023,-6.612785,-5.2241483,-0.019153614
0.8769937,4.7289734,0.29111883,0.100734174,-1.9971706,-6.5840545,-5.2528787,0.090979666
0.87513685,4.729109,0.29111883,0.100734174,-1.9971706,-6.5840545,-5.2528787,0.090979666
0.8732896,4.729149,0.28792304,0.10712577,-1.970539,-6.5936313,-5.2959743,0.019153614
0.87144315,4.729195,0.28792304,0.10712577,-1.970539,-6.5936313,-5.2959743,0.019153614
0.86963177,4.7292495,0.283662,0.11138682,-1.9449726,-6.5601125,-5.3103395,0.04309563
0.8678181,4.7293086,0.283662,0.11138682,-1.9449726,-6.5601125,-5.3103395,0.04309563
0.86603653,4.729361,0.27620512,0.11564788,-1.9162105,-6.579266,-5.391742,0.05746084
0.86603653,4.729361,0.27620512,0.11564788,-1.9162105,-6.579266,-5.391742,0.05746084
0.8640677,4.729424,0.27620512,0.11564788,-1.9162105,-6.579266,-5.391742,0.05746084
0.86064464,4.7294235,0.26981354,0.117778406,-1.8906442,-6.564901,-5.401319,0
0.858916,4.7294073,0.2623567,0.117778406,-1.8650779,-6.517017,-5.434838,0.0047884034
0.8571798,4.729398,0.2623567,0.117778406,-1.8650779,-6.517017,-5.434838,0.0047884034
0.8554597,4.729379,0.25489986,0.11564788,-1.841642,-6.555324,-5.482722,-0.0047884034
0.8537282,4.7293673,0.25489986,0.11564788,-1.841642,-6.555324,-5.482722,-0.0047884034
0.85198325,4.7293406,0.24850826,0.11138682,-1.8182062,-6.50744,-5.5401826,0.01436521
0.8502865,4.729323,0.24850826,0.11138682,-1.8182062,-6.50744,-5.5401826,0.01436521
0.8486233,4.7293572,0.2442472,0.104995236,-1.7969009,-6.4739213,-5.535394,0.062249243
0.8469451,4.7293983,0.2442472,0.104995236,-1.7969009,-6.4739213,-5.535394,0.062249243
0.8469451,4.7293983,0.2442472,0.104995236,-1.7969009,-6.4739213,-5.535394,0.062249243
0.84353477,4.7293525,0.2442472,0.09540785,-1.7755957,-6.38773,-5.559336,0.01436521
0.84185475,4.7293344,0.24531247,0.08368994,-1.7542903,-6.3589997,-5.616797,0.04309563
0.8401649,4.729327,0.24531247,0.08368994,-1.7542903,-6.3589997,-5.616797,0.04309563
0.8385516,4.7293835,0.24850826,0.07090677,-1.732985,-6.3206925,-5.583278,0.06703765
0.83695126,4.72945,0.24850826,0.07090677,-1.732985,-6.3206925,-5.583278,0.06703765
0.83523035,4.7297564,0.25489986,0.05599307,-1.7127451,-6.253655,-5.650316,0.16759412
0.8335247,4.730064,0.25489986,0.05599307,-1.7127451,-6.253655,-5.650316,0.16759412
0.831869,4.7303925,0.2623567,0.038948838,-1.6935703,-6.2728086,-5.645528,0.19632454
0.8302234,4.730716,0.2623567,0.038948838,-1.6935703,-6.2728086,-5.645528,0.19632454
0.82859653,4.731065,0.26981354,0.022969872,-1.6743954,-6.2632318,-5.659893,0.19632454
0.82698214,4.7314086,0.26981354,0.022969872,-1.6743954,-6.2632318,-5.659893,0.19632454
0.82539755,4.731769,0.27833566,0.010186698,-1.652025,-6.2967505,-5.631162,0.25857377
0.82381773,4.7321258,0.27833566,0.010186698,-1.652025,-6.2967505,-5.631162,0.25857377
0.82227755,4.7324886,0.28472725,-0.0025964756,-1.6307197,-6.315904,-5.6886234,0.20590134
0.82074714,4.732844,0.28472725,-0.0025964756,-1.6307197,-6.315904,-5.6886234,0.20590134
0.8192351,4.7332163,0.28792304,-0.014314385,-1.6104796,-6.3589997,-5.722142,0.22505496
0.81772643,4.7335825,0.28792304,-0.014314385,-1.6104796,-6.3589997,-5.722142,0.22505496
0.8162694,4.733902,0.28792304,-0.0228365,-1.5891744,-6.3685765,-5.741296,0.15801731
0.81481826,4.7342153,0.28792304,-0.0228365,-1.5891744,-6.3685765,-5.741296,0.15801731
0.81338847,4.7344985,0.28472725,-0.029228088,-1.5678691,-6.397307,-5.765238,0.12928689
0.81196046,4.734779,0.28472725,-0.029228088,-1.5678691,-6.397307,-5.765238,0.12928689
0.81055105,4.7350864,0.27620512,-0.033489145,-1.5454985,-6.3829417,-5.81791,0.15801731
0.81055105,4.7350864,0.27620512,-0.033489145,-1.5454985,-6.3829417,-5.81791,0.15801731
0.80914253,4.735389,0.27620512,-0.033489145,-1.5454985,-6.3829417,-5.81791,0.15801731
0.8063159,4.736088,0.26342195,-0.03455441,-1.5252584,-6.3542113,-5.899313,0.20111294
0.804951,4.736339,0.24850826,-0.03455441,-1.502888,-6.3829417,-5.9902925,0.1436521
0.8035879,4.7365856,0.24850826,-0.03455441,-1.502888,-6.3829417,-5.9902925,0.1436521
0.8021599,4.736943,0.23039876,-0.03242388,-1.4847784,-6.3685765,-6.0621185,0.23463176
0.80074227,4.737294,0.23039876,-0.03242388,-1.4847784,-6.3685765,-6.0621185,0.23463176
0.79929775,4.737638,0.21228927,-0.029228088,-1.4687995,-6.421249,-6.1387334,0.36870706
0.79786193,4.7379794,0.21228927,-0.029228088,-1.4687995,-6.421249,-6.1387334,0.36870706
0.7964234,4.738302,0.19417977,-0.026032293,-1.4538858,-6.4499793,-6.220136,0.4165911
0.79499114,4.7386227,0.19417977,-0.026032293,-1.4538858,-6.4499793,-6.220136,0.4165911
0.79355973,4.738922,0.17713554,-0.020705972,-1.4432331,-6.5122285,-6.3111157,0.545878
0.7921303,4.73922,0.17713554,-0.020705972,-1.4432331,-6.5122285,-6.3111157,0.545878
0.7907203,4.7394876,0.15902604,-0.012183856,-1.4400374,-6.6893997,-6.373365,0.7038953
0.7907203,4.7394876,0.15902604,-0.012183856,-1.4400374,-6.6893997,-6.373365,0.7038953
0.78788495,4.7399936,0.13985129,0.0005993177,-1.4442984,-6.871359,-6.493075,0.82360536
0.7864807,4.740226,0.13985129,0.0005993177,-1.4442984,-6.871359,-6.493075,0.82360536
0.7850701,4.7404203,0.118545994,0.014447756,-1.4581468,-7.043741,-6.612785,0.81881696
0.7836616,4.740614,0.118545994,0.014447756,-1.4581468,-7.043741,-6.612785,0.81881696
0.7822184,4.740765,0.09404491,0.032557253,-1.4826479,-7.2783732,-6.847417,0.842759
0.78078294,4.7409153,0.09404491,0.032557253,-1.4826479,-7.2783732,-6.847417,0.842759
0.77932817,4.74101,0.062086977,0.050666746,-1.5156711,-7.517793,-7.0485296,0.78529817
0.7778727,4.741104,0.062086977,0.050666746,-1.5156711,-7.517793,-7.0485296,0.78529817
0.77637506,4.7411466,0.026933251,0.06558045,-1.5582817,-7.7811556,-7.302315,0.80924016
0.7748718,4.7411885,0.026933251,0.06558045,-1.5582817,-7.7811556,-7.302315,0.80924016
0.7733389,4.741175,-0.0114162695,0.07942889,-1.6094143,-7.8865004,-7.5225816,0.6895301
0.77179927,4.7411604,-0.0114162695,0.07942889,-1.6094143,-7.8865004,-7.5225816,0.6895301
0.7702047,4.74109,-0.056157377,0.089016266,-1.6701344,-8.082825,-7.752425,0.6703765
0.7686159,4.7410173,-0.056157377,0.089016266,-1.6701344,-8.082825,-7.752425,0.6703765
0.7669561,4.7408843,-0.10515954,0.09327733,-1.7393767,-8.236053,-8.001422,0.5650316
0.765307,4.7407503,-0.10515954,0.09327733,-1.7393767,-8.236053,-8.001422,0.5650316
0.7635962,4.7405467,-0.15842277,0.090081535,-1.8192714,-8.336611,-8.173804,0.44532153
0.7618857,4.740341,-0.15842277,0.090081535,-1.8192714,-8.336611,-8.173804,0.44532153
0.76007795,4.740104,-0.21062072,0.07942889,-1.9066231,-8.331821,-8.312668,0.44532153
0.7582753,4.739865,-0.21062072,0.07942889,-1.9066231,-8.331821,-8.312668,0.44532153
0.7563874,4.7395754,-0.2617534,0.061319392,-2.002497,-8.298303,-8.374918,0.36870706
0.75450003,4.7392826,-0.2617534,0.061319392,-2.002497,-8.298303,-8.374918,0.36870706
0.7524767,4.7389975,-0.31075558,0.03681831,-2.1058276,-8.173804,-8.42759,0.41180268
