Pitch,Roll,Gyro_X,Gyro_Y,Gyro_Z,Accel_X,Accel_Y,Accel_Z
6.2184134,4.6790347,0.019476399,0.05918886,-0.058389317,0.7565677,-9.629479,-0.36870706
6.218232,4.6790047,0.019476399,0.06344992,-0.058389317,0.6991069,-9.634268,-0.35434186
6.2180552,4.678975,0.019476399,0.06344992,-0.058389317,0.6991069,-9.634268,-0.35434186
6.217874,4.6789546,0.018411135,0.06664571,-0.053062994,0.7230489,-9.677363,-0.35434186
6.2176924,4.678934,0.018411135,0.06664571,-0.053062994,0.7230489,-9.677363,-0.35434186
6.217517,4.678912,0.018411135,0.06877624,-0.04773667,0.6799533,-9.696517,-0.33997664
6.2173424,4.6788898,0.018411135,0.06877624,-0.04773667,0.6799533,-9.696517,-0.33997664
6.2171707,4.6788697,0.018411135,0.069841504,-0.041345086,0.6847417,-9.682152,-0.33997664
6.2170014,4.6788487,0.018411135,0.069841504,-0.041345086,0.6847417,-9.682152,-0.33997664
6.216831,4.678912,0.018411135,0.073037304,-0.04027982,0.6607997,-9.715671,-0.320823
6.21666,4.678975,0.018411135,0.073037304,-0.04027982,0.6607997,-9.715671,-0.320823
6.2166147,4.679098,0.019476399,0.07729836,-0.039214555,0.6512229,-9.758766,-0.30645782
6.2165713,4.6792226,0.019476399,0.07729836,-0.039214555,0.6512229,-9.758766,-0.30645782
6.216668,4.6792374,0.020541664,0.07942889,-0.039214555,0.6368576,-9.77792,-0.32561144
6.2167654,4.6792507,0.020541664,0.07942889,-0.039214555,0.6368576,-9.77792,-0.32561144
6.216768,4.679181,0.019476399,0.08262468,-0.03814929,0.641646,-9.782708,-0.34476504
6.2167716,4.6791124,0.019476399,0.08262468,-0.03814929,0.641646,-9.782708,-0.34476504
6.216767,4.679039,0.017345872,0.08475521,-0.037084028,0.62728083,-9.811439,-0.39743748
6.2167625,4.6789656,0.017345872,0.08475521,-0.037084028,0.62728083,-9.811439,-0.39743748
6.216686,4.678893,0.018411135,0.08475521,-0.039214555,0.6751649,-9.758766,-0.39743748
6.21661,4.6788206,0.018411135,0.08475521,-0.039214555,0.6751649,-9.758766,-0.39743748
6.216585,4.678748,0.020541664,0.085820474,-0.04241035,0.6464345,-9.744401,-0.34476504
6.216559,4.678664,0.020541664,0.085820474,-0.04241035,0.6464345,-9.744401,-0.34476504
6.2165914,4.6786222,0.02160693,0.085820474,-0.045606144,0.60333884,-9.725247,-0.36870706
6.216631,4.678572,0.02160693,0.085820474,-0.045606144,0.60333884,-9.725247,-0.36870706
6.2165775,4.6785016,0.022672193,0.087951005,-0.0498672,0.6512229,-9.753978,-0.39743748
6.216525,4.6784315,0.022672193,0.087951005,-0.0498672,0.6512229,-9.753978,-0.39743748
6.2163825,4.6783824,0.023737457,0.087951005,-0.053062994,0.6751649,-9.691729,-0.35434186
6.216242,4.6783323,0.023737457,0.087951005,-0.053062994,0.6751649,-9.691729,-0.35434186
6.2163053,4.678407,0.023737457,0.087951005,-0.058389317,0.6368576,-9.715671,-0.32561144
6.2163706,4.6784782,0.023737457,0.087951005,-0.058389317,0.6368576,-9.715671,-0.32561144
6.216193,4.678569,0.023737457,0.089016266,-0.064780906,0.6847417,-9.725247,-0.31124622
6.216016,4.6786604,0.023737457,0.089016266,-0.064780906,0.6847417,-9.725247,-0.31124622
6.215885,4.6787777,0.02160693,0.089016266,-0.06904196,0.6751649,-9.691729,-0.29209262
6.2157555,4.678895,0.02160693,0.089016266,-0.06904196,0.6751649,-9.691729,-0.29209262
6.2158175,4.6789203,0.018411135,0.087951005,-0.075433545,0.641646,-9.720459,-0.32561144
6.215879,4.6789427,0.018411135,0.087951005,-0.075433545,0.641646,-9.720459,-0.32561144
6.21586,4.6788764,0.016280606,0.087951005,-0.07969461,0.62728083,-9.715671,-0.36391866
6.2158422,4.6788106,0.016280606,0.087951005,-0.07969461,0.62728083,-9.715671,-0.36391866
6.2158422,4.6787496,0.013084813,0.090081535,-0.08075987,0.58418524,-9.696517,-0.39264908
6.2158422,4.678689,0.013084813,0.090081535,-0.08075987,0.58418524,-9.696517,-0.39264908
6.2158813,4.678748,0.00988902,0.09221206,-0.08395566,0.60812724,-9.706094,-0.31124622
6.215921,4.6788063,0.00988902,0.09221206,-0.08395566,0.60812724,-9.706094,-0.31124622
6.215894,4.6787295,0.005627962,0.09434259,-0.08715145,0.61770403,-9.677363,-0.37349546
6.2158685,4.678653,0.005627962,0.09434259,-0.08715145,0.61770403,-9.677363,-0.37349546
6.215851,4.678575,0.00030163955,0.09647312,-0.08715145,0.59855044,-9.706094,-0.39264908
6.2158346,4.6784973,0.00030163955,0.09647312,-0.08715145,0.59855044,-9.706094,-0.39264908
6.2158647,4.6784515,-0.0028941538,0.09860365,-0.08821672,0.61770403,-9.639056,-0.33997664
6.2158957,4.678407,-0.0028941538,0.09860365,-0.08821672,0.61770403,-9.639056,-0.33997664
6.215885,4.6783266,-0.006089947,0.100734174,-0.08821672,0.62728083,-9.677363,-0.35434186
6.2158756,4.678244,-0.006089947,0.100734174,-0.08821672,0.62728083,-9.677363,-0.35434186
6.21585,4.678334,-0.010351005,0.10179944,-0.08821672,0.62249243,-9.677363,-0.29209262
6.21583,4.6784077,-0.010351005,0.10179944,-0.08821672,0.62249243,-9.677363,-0.29209262
6.215843,4.678464,-0.014612063,0.09966891,-0.08928198,0.63206923,-9.677363,-0.31603462
6.215858,4.67852,-0.014612063,0.09966891,-0.08928198,0.63206923,-9.677363,-0.31603462
6.2158756,4.678446,-0.019938385,0.09860365,-0.08928198,0.62728083,-9.648633,-0.33997664
6.215895,4.678374,-0.019938385,0.09860365,-0.08928198,0.62728083,-9.648633,-0.33997664
6.2157893,4.6782575,-0.024199443,0.09966891,-0.08821672,0.6560113,-9.648633,-0.36391866
6.215685,4.67814,-0.024199443,0.09966891,-0.08821672,0.6560113,-9.648633,-0.36391866
6.2155743,4.6782174,-0.027395237,0.09860365,-0.08821672,0.6607997,-9.65821,-0.29209262
6.215466,4.678295,-0.027395237,0.09860365,-0.08821672,0.6607997,-9.65821,-0.29209262
6.215366,4.67837,-0.029525764,0.09647312,-0.08715145,0.6655881,-9.662998,-0.22984336
6.2152667,4.678446,-0.029525764,0.09647312,-0.08715145,0.6655881,-9.662998,-0.22984336
6.2151995,4.6785183,-0.031656295,0.09327733,-0.08715145,0.62728083,-9.643845,-0.20590134
6.2151327,4.67859,-0.031656295,0.09327733,-0.08715145,0.62728083,-9.643845,-0.20590134
6.215099,4.6786547,-0.031656295,0.09221206,-0.08715145,0.59376204,-9.629479,-0.22505496
6.2150655,4.6787195,-0.031656295,0.09221206,-0.08715145,0.59376204,-9.629479,-0.22505496
6.215045,4.6787796,-0.033786822,0.09221206,-0.08395566,0.5746084,-9.65821,-0.21547815
6.215025,4.6788383,-0.033786822,0.09221206,-0.08395566,0.5746084,-9.65821,-0.21547815
6.214986,4.678904,-0.033786822,0.09221206,-0.08075987,0.58897364,-9.653421,-0.17717093
6.2149467,4.6789703,-0.033786822,0.09221206,-0.08075987,0.58897364,-9.653421,-0.17717093
6.21499,4.678984,-0.034852087,0.09221206,-0.07969461,0.51235914,-9.706094,-0.272939
6.215033,4.6789985,-0.034852087,0.09221206,-0.07969461,0.51235914,-9.706094,-0.272939
6.215045,4.6790414,-0.03804788,0.0911468,-0.078629345,0.5793968,-9.701305,-0.25857377
6.215045,4.6790414,-0.03804788,0.0911468,-0.078629345,0.5793968,-9.701305,-0.25857377
6.2150865,4.6791115,-0.039113145,0.09221206,-0.078629345,0.5315128,-9.739613,-0.2633622
6.2151213,4.6791315,-0.039113145,0.09221206,-0.078629345,0.5315128,-9.739613,-0.2633622
6.2150803,4.679195,-0.039113145,0.09221206,-0.078629345,0.63206923,-9.763555,-0.24899697
6.2150407,4.679257,-0.039113145,0.09221206,-0.078629345,0.63206923,-9.763555,-0.24899697
6.215052,4.6793,-0.041243672,0.089016266,-0.077564076,0.59376204,-9.77792,-0.2633622
6.2150617,4.679334,-0.041243672,0.089016266,-0.077564076,0.59376204,-9.77792,-0.2633622
6.2151003,4.679346,-0.042308938,0.085820474,-0.07969461,0.58897364,-9.773131,-0.29209262
6.2151394,4.679358,-0.042308938,0.085820474,-0.07969461,0.58897364,-9.773131,-0.29209262
6.2151747,4.679369,-0.043374203,0.08368994,-0.08395566,0.61291564,-9.763555,-0.30166942
6.21521,4.6793795,-0.043374203,0.08368994,-0.08395566,0.61291564,-9.763555,-0.30166942
6.2150965,4.6794386,-0.043374203,0.07942889,-0.08608619,0.6799533,-9.758766,-0.2633622
6.2149825,4.679499,-0.043374203,0.07942889,-0.08608619,0.6799533,-9.758766,-0.2633622
6.2148385,4.679551,-0.043374203,0.073037304,-0.08928198,0.7134721,-9.734824,-0.23942018
6.2146935,4.679604,-0.043374203,0.073037304,-0.08928198,0.7134721,-9.734824,-0.23942018
6.214523,4.6796484,-0.043374203,0.06877624,-0.09460831,0.7374141,-9.715671,-0.23942018
6.214352,4.6796937,-0.043374203,0.06877624,-0.09460831,0.7374141,-9.715671,-0.23942018
6.2141414,4.6797166,-0.04443947,0.06451519,-0.10099989,0.80924016,-9.682152,-0.23463176
6.2139316,4.6797395,-0.04443947,0.06451519,-0.10099989,0.80924016,-9.682152,-0.23463176
6.2137036,4.679749,-0.04443947,0.061319392,-0.10526095,0.78529817,-9.744401,-0.272939
6.2134757,4.6797595,-0.04443947,0.061319392,-0.10526095,0.78529817,-9.744401,-0.272939
6.213281,4.679798,-0.043374203,0.057058334,-0.10952201,0.80445176,-9.677363,-0.19632454
6.213086,4.6798377,-0.043374203,0.057058334,-0.10952201,0.80445176,-9.677363,-0.19632454
6.2128553,4.6798515,-0.043374203,0.053862542,-0.11165254,0.89064306,-9.696517,-0.22026655
6.212626,4.679866,-0.043374203,0.053862542,-0.11165254,0.89064306,-9.696517,-0.22026655
6.212376,4.679862,-0.041243672,0.050666746,-0.11697886,0.8619126,-9.677363,-0.2681506
6.212127,4.679859,-0.041243672,0.050666746,-0.11697886,0.8619126,-9.677363,-0.2681506
6.211868,4.679839,-0.04017841,0.046405688,-0.120174654,0.89543146,-9.619903,-0.2873042
6.2116084,4.679819,-0.04017841,0.046405688,-0.120174654,0.89543146,-9.619903,-0.2873042
6.211373,4.6798415,-0.03698262,0.04107937,-0.120174654,0.91937345,-9.634268,-0.20111294
6.2111382,4.679864,-0.03698262,0.04107937,-0.120174654,0.91937345,-9.634268,-0.20111294
6.2108793,4.679849,-0.033786822,0.03681831,-0.11910939,0.9576807,-9.639056,-0.2825158
6.210622,4.6798344,-0.033786822,0.03681831,-0.11910939,0.9576807,-9.639056,-0.2825158
6.21037,4.679831,-0.03059103,0.033622514,-0.1159136,1.0151415,-9.600749,-0.25378537
6.2101183,4.6798277,-0.03059103,0.033622514,-0.1159136,1.0151415,-9.600749,-0.25378537
6.2098637,4.679794,-0.027395237,0.030426722,-0.11378307,1.067814,-9.595961,-0.33518824
6.20961,4.67976,-0.027395237,0.030426722,-0.11378307,1.067814,-9.595961,-0.33518824
6.209361,4.6797113,-0.025264706,0.026165664,-0.11165254,1.0965444,-9.572019,-0.38307226
6.209112,4.679663,-0.025264706,0.026165664,-0.11165254,1.0965444,-9.572019,-0.38307226
6.2088695,4.679607,-0.02313418,0.022969872,-0.10952201,1.1492168,-9.552865,-0.4261679
6.2086277,4.679551,-0.02313418,0.022969872,-0.10952201,1.1492168,-9.552865,-0.4261679
6.2083936,4.679492,-0.021003649,0.019774077,-0.10313042,1.2162545,-9.5385,-0.46447513
6.20816,4.679433,-0.021003649,0.019774077,-0.10313042,1.2162545,-9.5385,-0.46447513
6.2079334,4.6793756,-0.018873122,0.016578285,-0.09673884,1.2258313,-9.509769,-0.46926352
6.207707,4.679318,-0.018873122,0.016578285,-0.09673884,1.2258313,-9.509769,-0.46926352
6.20749,4.6792536,-0.017807856,0.01551302,-0.091412514,1.2593501,-9.476251,-0.51714754
6.207274,4.67919,-0.017807856,0.01551302,-0.091412514,1.2593501,-9.476251,-0.51714754
6.2070584,4.679131,-0.01674259,0.016578285,-0.08715145,1.2354081,-9.452309,-0.48841715
6.2068434,4.6790714,-0.01674259,0.016578285,-0.08715145,1.2354081,-9.452309,-0.48841715
6.2066417,4.679,-0.017807856,0.017643549,-0.0828904,1.2401965,-9.485827,-0.5554548
6.2064404,4.6789274,-0.017807856,0.017643549,-0.0828904,1.2401965,-9.485827,-0.5554548
6.206242,4.678857,-0.021003649,0.018708814,-0.075433545,1.2593501,-9.437943,-0.5363012
6.206044,4.6787863,-0.021003649,0.018708814,-0.075433545,1.2593501,-9.437943,-0.5363012
6.205848,4.6787205,-0.02313418,0.021904606,-0.0679767,1.2689269,-9.452309,-0.50278234
6.2056527,4.678655,-0.02313418,0.021904606,-0.0679767,1.2689269,-9.452309,-0.50278234
6.2054625,4.6785893,-0.026329972,0.026165664,-0.060519844,1.2641385,-9.471462,-0.48841715
6.205273,4.6785235,-0.026329972,0.026165664,-0.060519844,1.2641385,-9.471462,-0.48841715
6.2050905,4.6784544,-0.03059103,0.030426722,-0.05199773,1.3072342,-9.471462,-0.49799395
6.2049084,4.6783857,-0.03059103,0.030426722,-0.05199773,1.3072342,-9.471462,-0.49799395
6.2047396,4.678305,-0.034852087,0.033622514,-0.043475613,1.2737153,-9.481039,-0.5267244
6.2045712,4.6782246,-0.034852087,0.033622514,-0.043475613,1.2737153,-9.481039,-0.5267244
6.204408,4.6781425,-0.03698262,0.03681831,-0.037084028,1.3024458,-9.476251,-0.5363012
6.2042456,4.6780605,-0.03698262,0.03681831,-0.037084028,1.3024458,-9.476251,-0.5363012
6.2040906,4.6779776,-0.039113145,0.040014103,-0.028561912,1.316811,-9.524135,-0.5363012
6.2039356,4.677895,-0.039113145,0.040014103,-0.028561912,1.316811,-9.524135,-0.5363012
6.2038,4.6777983,-0.041243672,0.04107937,-0.018974531,1.2976574,-9.476251,-0.60333884
6.203665,4.6777015,-0.041243672,0.04107937,-0.018974531,1.2976574,-9.476251,-0.60333884
6.203531,4.677611,-0.042308938,0.043209895,-0.010452416,1.316811,-9.524135,-0.5650316
6.2033978,4.6775208,-0.042308938,0.043209895,-0.010452416,1.316811,-9.524135,-0.5650316
6.2032757,4.677423,-0.042308938,0.04427516,-0.0051260935,1.316811,-9.543288,-0.61291564
6.2031536,4.6773257,-0.042308938,0.04427516,-0.0051260935,1.316811,-9.543288,-0.61291564
6.2030177,4.677255,-0.042308938,0.043209895,-0.0008650357,1.2785037,-9.485827,-0.45489833
6.2028804,4.6771836,-0.042308938,0.043209895,-0.0008650357,1.2785037,-9.485827,-0.45489833
6.2027593,4.6770983,-0.042308938,0.04427516,0.0044612866,1.316811,-9.514558,-0.5410896
6.2026377,4.677013,-0.042308938,0.04427516,0.0044612866,1.316811,-9.514558,-0.5410896
6.2026377,4.677013,-0.042308938,0.04427516,0.0044612866,1.316811,-9.514558,-0.5410896
6.2023973,4.6768475,-0.04017841,0.045340426,0.009787609,1.2785037,-9.509769,-0.51714754
6.202285,4.6767797,-0.039113145,0.045340426,0.016179197,1.2449849,-9.519346,-0.46447513
6.202164,4.6767073,-0.039113145,0.045340426,0.016179197,1.2449849,-9.519346,-0.46447513
6.202062,4.676626,-0.03698262,0.043209895,0.021505518,1.2162545,-9.504981,-0.51235914
6.201957,4.676544,-0.03698262,0.043209895,0.021505518,1.2162545,-9.504981,-0.51235914
6.2018504,4.6764755,-0.03698262,0.043209895,0.024701312,1.2641385,-9.519346,-0.47405192
6.201742,4.6764064,-0.03698262,0.043209895,0.024701312,1.2641385,-9.519346,-0.47405192
6.20165,4.676324,-0.034852087,0.043209895,0.031092897,1.2162545,-9.572019,-0.5267244
6.201558,4.6762414,-0.034852087,0.043209895,0.031092897,1.2162545,-9.572019,-0.5267244
6.2014713,4.676155,-0.034852087,0.04214463,0.03428869,1.2354081,-9.5385,-0.5506664
6.201385,4.67607,-0.034852087,0.04214463,0.03428869,1.2354081,-9.5385,-0.5506664
6.2013025,4.675985,-0.033786822,0.04214463,0.037484486,1.2066777,-9.581595,-0.5410896
6.2012205,4.6759005,-0.033786822,0.04214463,0.037484486,1.2066777,-9.581595,-0.5410896
6.2011256,4.6758213,-0.031656295,0.04107937,0.040680278,1.2258313,-9.572019,-0.50278234
6.2010455,4.675755,-0.031656295,0.04107937,0.040680278,1.2258313,-9.572019,-0.50278234
6.2009554,4.6756973,-0.027395237,0.038948838,0.04387607,1.2210429,-9.581595,-0.45968673
6.2008653,4.67564,-0.027395237,0.038948838,0.04387607,1.2210429,-9.581595,-0.45968673
6.20079,4.6755686,-0.02313418,0.037883572,0.047071867,1.2354081,-9.595961,-0.5410896
6.2007146,4.6754966,-0.02313418,0.037883572,0.047071867,1.2354081,-9.595961,-0.5410896
6.2006426,4.6754236,-0.021003649,0.037883572,0.04813713,1.283292,-9.624691,-0.5793968
6.2005706,4.675351,-0.021003649,0.037883572,0.04813713,1.283292,-9.624691,-0.5793968
6.200503,4.6752806,-0.01674259,0.03468778,0.05026766,1.3359646,-9.629479,-0.61770403
6.200435,4.67521,-0.01674259,0.03468778,0.05026766,1.3359646,-9.629479,-0.61770403
6.2003694,4.6751466,-0.010351005,0.033622514,0.05346345,1.3599066,-9.624691,-0.62249243
6.200304,4.675083,-0.010351005,0.033622514,0.05346345,1.3599066,-9.624691,-0.62249243
6.2002406,4.675028,-0.0018288894,0.030426722,0.055593982,1.4460979,-9.591172,-0.6655881
6.200177,4.6749725,-0.0018288894,0.030426722,0.055593982,1.4460979,-9.591172,-0.6655881
6.200119,4.674923,0.008823755,0.029361458,0.056659244,1.5227122,-9.591172,-0.7469909
6.2000613,4.674873,0.008823755,0.029361458,0.056659244,1.5227122,-9.591172,-0.7469909
6.2000074,4.674831,0.020541664,0.032557253,0.056659244,1.6136919,-9.524135,-0.842759
6.199953,4.674789,0.020541664,0.032557253,0.056659244,1.6136919,-9.524135,-0.842759
6.1998997,4.6747613,0.034390103,0.03681831,0.05772451,1.6950948,-9.44752,-0.89064306
6.1998405,4.674731,0.034390103,0.03681831,0.05772451,1.6950948,-9.44752,-0.89064306
6.1997967,4.6747165,0.05036907,0.046405688,0.059855036,1.7621324,-9.351752,-0.9959879
6.199751,4.6747017,0.05036907,0.046405688,0.059855036,1.7621324,-9.351752,-0.9959879
6.199716,4.674697,0.06847856,0.0581236,0.0609203,1.7477672,-9.299079,-1.1492168
6.199681,4.674693,0.06847856,0.0581236,0.0609203,1.7477672,-9.299079,-1.1492168
6.1996465,4.6747084,0.08658806,0.074102566,0.061985567,1.7477672,-9.255983,-1.1492168
6.1996117,4.674723,0.08658806,0.074102566,0.061985567,1.7477672,-9.255983,-1.1492168
6.1995854,4.6747518,0.102567025,0.09221206,0.06518136,1.7238252,-9.275137,-1.2258313
6.1995597,4.6747804,0.102567025,0.09221206,0.06518136,1.7238252,-9.275137,-1.2258313
6.199542,4.6748238,0.118545994,0.11351735,0.06837715,1.6807296,-9.279925,-1.2737153
6.199524,4.6748676,0.118545994,0.11351735,0.06837715,1.6807296,-9.279925,-1.2737153
6.1995196,4.6749253,0.13452496,0.13482264,0.07476874,1.532289,-9.294291,-1.2354081
6.1995153,4.6749835,0.13452496,0.13482264,0.07476874,1.532289,-9.294291,-1.2354081
6.199567,4.675042,0.14624287,0.15825845,0.08435612,1.067814,-9.289502,-1.4030021
6.1996183,4.675102,0.14624287,0.15825845,0.08435612,1.067814,-9.289502,-1.4030021
6.1997595,4.6751795,0.15902604,0.17636795,0.09820456,0.19153613,-9.150639,-1.460463
6.1999,4.6752567,0.15902604,0.17636795,0.09820456,0.19153613,-9.150639,-1.460463
6.1999803,4.6753435,0.16967869,0.18489006,0.12164038,1.115698,-9.524135,-1.2449849
6.2000594,4.67543,0.16967869,0.18489006,0.12164038,1.115698,-9.524135,-1.2449849
6.200115,4.675544,0.17607027,0.19447745,0.15466358,1.6232687,-9.931149,-1.0390835
6.200171,4.6756587,0.17607027,0.19447745,0.15466358,1.6232687,-9.931149,-1.0390835
6.200228,4.67581,0.18885344,0.21471748,0.18449098,1.8339585,-10.022128,-0.8331822
6.2002854,4.6759615,0.18885344,0.21471748,0.18449098,1.8339585,-10.022128,-0.8331822
6.2003865,4.676113,0.20483242,0.23708802,0.20899206,1.6472107,-10.070012,-0.9624691
6.200488,4.6762643,0.20483242,0.23708802,0.20899206,1.6472107,-10.070012,-0.9624691
6.200628,4.676427,0.22187665,0.25945857,0.23349315,1.4077905,-9.9790325,-0.91937345
6.2007675,4.676589,0.22187665,0.25945857,0.23349315,1.4077905,-9.9790325,-0.91937345
6.2009544,4.676759,0.23892088,0.27756807,0.25373316,1.1300632,-9.859323,-0.8619126
6.2011423,4.6769295,0.23892088,0.27756807,0.25373316,1.1300632,-9.859323,-0.8619126
6.2013755,4.677109,0.25383458,0.29354703,0.27503845,1.0007763,-9.715671,-0.9864111
6.2016096,4.677289,0.25383458,0.29354703,0.27503845,1.0007763,-9.715671,-0.9864111
6.2019076,4.6774797,0.2655525,0.30846074,0.297409,0.7086837,-9.610326,-1.0055647
6.202206,4.6776705,0.2655525,0.30846074,0.297409,0.7086837,-9.610326,-1.0055647
6.202557,4.6778803,0.27940091,0.31698287,0.31977957,0.545878,-9.643845,-0.8762778
6.2029057,4.6780887,0.27940091,0.31698287,0.31977957,0.545878,-9.643845,-0.8762778
6.203262,4.678307,0.2921841,0.309526,0.34321538,0.6607997,-9.701305,-0.8379706
6.203618,4.678526,0.2921841,0.309526,0.34321538,0.6607997,-9.701305,-0.8379706
6.204055,4.6787767,0.30603254,0.28822073,0.36132488,0.6512229,-9.974244,-0.46926352
6.2044897,4.6790266,0.30603254,0.28822073,0.36132488,0.6512229,-9.974244,-0.46926352
6.204874,4.679273,0.32414204,0.25839332,0.37517333,0.7661445,-9.916783,-0.4213795
6.205254,4.679519,0.32414204,0.25839332,0.37517333,0.7661445,-9.916783,-0.4213795
6.2058187,4.6798663,0.3465126,0.22537012,0.390087,0.32561144,-9.548077,-0.545878
6.2058187,4.6798663,0.3465126,0.22537012,0.390087,0.32561144,-9.548077,-0.545878
6.206619,4.680457,0.36888313,0.18808587,0.40393546,1.1252748,-9.5385,-0.38307226
6.206897,4.6808357,0.36888313,0.18808587,0.40393546,1.1252748,-9.5385,-0.38307226
6.2072334,4.6813445,0.3912537,0.15186687,0.41352284,1.5705963,-9.591172,-0.2873042
6.2074594,4.681685,0.3912537,0.15186687,0.41352284,1.5705963,-9.591172,-0.2873042
6.207698,4.682069,0.41575477,0.12310473,0.4177839,1.8674773,-9.572019,-0.090979666
6.207975,4.6825137,0.41575477,0.12310473,0.4177839,1.8674773,-9.572019,-0.090979666
6.2082834,4.6830363,0.4423864,0.09753838,0.4177839,1.7429788,-9.509769,-0.08619126
6.208537,4.683466,0.4423864,0.09753838,0.4177839,1.7429788,-9.509769,-0.08619126
6.2088203,4.683984,0.4722138,0.074102566,0.4124576,1.2401965,-9.299079,-0.090979666
6.2091045,4.6845036,0.4722138,0.074102566,0.4124576,1.2401965,-9.299079,-0.090979666
6.2093744,4.6850266,0.505237,0.043209895,0.4092618,1.0103531,-9.14585,-0.22505496
6.209643,4.6855454,0.505237,0.043209895,0.4092618,1.0103531,-9.14585,-0.22505496
6.209917,4.6860685,0.53612965,0.008056169,0.41352284,1.3215994,-9.150639,-0.31124622
6.2101912,4.686591,0.53612965,0.008056169,0.41352284,1.3215994,-9.150639,-0.31124622
6.2104774,4.687164,0.57021815,-0.026032293,0.42524076,1.484405,-9.14585,-0.21547815
6.2107635,4.6877356,0.57021815,-0.026032293,0.42524076,1.484405,-9.14585,-0.21547815
6.2110667,4.688316,0.6021761,-0.06544708,0.44015446,1.532289,-9.107543,-0.33518824
6.21137,4.6888957,0.6021761,-0.06544708,0.44015446,1.532289,-9.107543,-0.33518824
6.2117043,4.689475,0.63519925,-0.108057655,0.45613343,1.2497733,-8.944737,-0.44532153
6.212039,4.690054,0.63519925,-0.108057655,0.45613343,1.2497733,-8.944737,-0.44532153
6.212383,4.6906815,0.6671572,-0.15599456,0.47530818,1.661576,-9.02614,-0.4261679
6.2127266,4.6913075,0.6671572,-0.15599456,0.47530818,1.661576,-9.02614,-0.4261679
6.2130923,4.6919646,0.69804984,-0.20712726,0.49767873,1.9009962,-9.14585,-0.44532153
6.213458,4.6926203,0.69804984,-0.20712726,0.49767873,1.9009962,-9.14585,-0.44532153
6.213849,4.693307,0.73000777,-0.25293362,0.5232451,1.8531121,-9.188946,-0.41180268
6.2142634,4.694034,0.73000777,-0.25293362,0.5232451,1.8531121,-9.188946,-0.41180268
6.214689,4.6947293,0.763031,-0.29767472,0.55413777,1.6232687,-9.050082,-0.47884035
6.2151093,4.6954165,0.763031,-0.29767472,0.55413777,1.6232687,-9.050082,-0.47884035
6.2155676,4.696131,0.79925,-0.3434811,0.5882262,1.7286136,-8.959103,-0.5650316
6.2160344,4.6968603,0.79925,-0.3434811,0.5882262,1.7286136,-8.959103,-0.5650316
6.216548,4.697614,0.8375995,-0.39035273,0.6287063,1.9249382,-8.882488,-0.7565677
6.2170653,4.6983747,0.8375995,-0.39035273,0.6287063,1.9249382,-8.882488,-0.7565677
6.2176127,4.6991644,0.8770143,-0.4372244,0.67131686,2.1068976,-8.810662,-0.7469909
6.2181654,4.6999617,0.8770143,-0.4372244,0.67131686,2.1068976,-8.810662,-0.7469909
6.2187667,4.7007966,0.9185596,-0.48303074,0.7192537,2.255338,-8.671799,-0.8283938
6.2193446,4.7015996,0.9185596,-0.48303074,0.7192537,2.255338,-8.671799,-0.8283938
6.219998,4.7024717,0.9590396,-0.5299024,0.7714517,2.3175871,-8.537724,-0.8571242
6.220679,4.703381,0.9590396,-0.5299024,0.7714517,2.3175871,-8.537724,-0.8571242
6.221399,4.7042775,0.9973892,-0.576774,0.8300412,2.1643584,-8.341399,-1.0007763
6.2221117,4.7051654,0.9973892,-0.576774,0.8300412,2.1643584,-8.341399,-1.0007763
6.222912,4.706085,1.036804,-0.62364566,0.89182657,1.9871874,-8.145074,-1.283292
6.22372,4.707016,1.036804,-0.62364566,0.89182657,1.9871874,-8.145074,-1.283292
6.224568,4.7079816,1.0762187,-0.67051727,0.95893824,2.566584,-8.121132,-1.3072342
6.225417,4.708951,1.0762187,-0.67051727,0.95893824,2.566584,-8.121132,-1.3072342
6.2263365,4.7099624,1.1156335,-0.71312785,1.0335068,2.9975405,-8.087613,-1.4030021
6.2272573,4.7109776,1.1156335,-0.71312785,1.0335068,2.9975405,-8.087613,-1.4030021
6.228245,4.712031,1.1582441,-0.7450858,1.10701,3.2944214,-7.991845,-1.5035586
6.229231,4.713084,1.1582441,-0.7450858,1.10701,3.2944214,-7.991845,-1.5035586
6.2302866,4.71418,1.2008547,-0.7685216,1.1773175,3.3614593,-7.896077,-1.5275006
6.2313423,4.7152777,1.2008547,-0.7685216,1.1773175,3.3614593,-7.896077,-1.5275006
6.232473,4.7164183,1.2455958,-0.7866311,1.251886,3.265691,-7.7667904,-1.532289
6.233604,4.717561,1.2455958,-0.7866311,1.251886,3.265691,-7.7667904,-1.532289
6.2348213,4.7187386,1.2935327,-0.8026101,1.3307155,2.791639,-7.503428,-1.6328455
6.2360387,4.719919,1.2935327,-0.8026101,1.3307155,2.791639,-7.503428,-1.6328455
6.2373357,4.7211576,1.3467959,-0.82391536,1.417002,2.8921957,-7.3789296,-1.5035586
6.2386317,4.722397,1.3467959,-0.82391536,1.417002,2.8921957,-7.3789296,-1.5035586
6.240014,4.7237015,1.4043202,-0.84841645,1.5118105,2.9975405,-7.311892,-1.2880806
6.241395,4.725007,1.4043202,-0.84841645,1.5118105,2.9975405,-7.311892,-1.2880806
6.242874,4.7263865,1.4714319,-0.8697218,1.6162064,3.0502129,-7.28795,-1.1252748
6.2443523,4.7277665,1.4714319,-0.8697218,1.6162064,3.0502129,-7.28795,-1.1252748
6.2459426,4.729227,1.5470656,-0.8857007,1.7323202,2.9831753,-7.2304893,-0.9816227
6.2475333,4.7306905,1.5470656,-0.8857007,1.7323202,2.9831753,-7.2304893,-0.9816227
6.24925,4.7322445,1.6344173,-0.90061444,1.8612173,2.9017725,-7.192182,-0.8762778
6.2509613,4.733797,1.6344173,-0.90061444,1.8612173,2.9017725,-7.192182,-0.8762778
6.2528043,4.7354503,1.7302911,-0.9165934,1.9965059,2.8443117,-7.16824,-0.7565677
6.2546477,4.7371063,1.7302911,-0.9165934,1.9965059,2.8443117,-7.16824,-0.7565677
6.2566414,4.7388544,1.834687,-0.9336376,2.1392512,2.2697031,-6.9479733,-0.842759
6.2586336,4.7406044,1.834687,-0.9336376,2.1392512,2.2697031,-6.9479733,-0.842759
6.260778,4.7424603,1.9422787,-0.95600814,2.291584,2.0925324,-6.799533,-0.82360536
6.262921,4.744318,1.9422787,-0.95600814,2.291584,2.0925324,-6.799533,-0.82360536
6.265206,4.746287,2.040283,-0.9943577,2.4460473,2.207454,-6.981492,-0.59855044
6.267489,4.748258,2.040283,-0.9943577,2.4460473,2.207454,-6.981492,-0.59855044
6.2699347,4.750367,2.168115,-1.0252503,2.6164896,2.1068976,-6.7229185,-0.4213795
6.272378,4.7524776,2.168115,-1.0252503,2.6164896,2.1068976,-6.7229185,-0.4213795
6.2749953,4.7547393,2.3065991,-1.0476209,2.7975848,2.0350714,-6.5361705,-0.23463176
6.277612,4.757005,2.3065991,-1.0476209,2.7975848,2.0350714,-6.5361705,-0.23463176
6.2804046,4.7594113,2.4461489,-1.0657305,2.9829407,1.9440918,-6.4164605,-0.16759412
1.4698861e-05,4.761825,2.4461489,-1.0657305,2.9829407,1.9440918,-6.4164605,-0.16759412
0.0029883056,4.7644024,2.5931554,-1.0838399,3.1714926,1.9201498,-6.349423,0.06703765
0.0059588104,4.7669826,2.5931554,-1.0838399,3.1714926,1.9201498,-6.349423,0.06703765
0.00911384,4.7697287,2.7476187,-1.1019495,3.3643055,1.9393034,-6.2967505,0.22505496
0.012265297,4.772478,2.7476187,-1.1019495,3.3643055,1.9393034,-6.2967505,0.22505496
0.015627068,4.775428,2.9074082,-1.1211241,3.5571182,2.0111294,-6.2488666,0.51714754
0.01896452,4.778363,2.9074082,-1.1211241,3.5571182,2.0111294,-6.2488666,0.51714754
0.022487348,4.7814703,3.0703938,-1.1392337,3.7478006,1.9201498,-6.133945,0.5602432
0.026009003,4.784583,3.0703938,-1.1392337,3.7478006,1.9201498,-6.133945,0.5602432
0.029708996,4.78786,3.229118,-1.1573431,3.9331565,1.7669208,-6.0238113,0.5363012
0.033403937,4.7911406,3.229118,-1.1573431,3.9331565,1.7669208,-6.0238113,0.5363012
0.0372857,4.79452,3.3803859,-1.180779,4.115317,1.9057846,-5.947197,-0.45010993
0.041162614,4.7979045,3.3803859,-1.180779,4.115317,1.9057846,-5.947197,-0.45010993
0.0451906,4.801465,3.502891,-1.2063453,4.2889547,1.3311762,-6.0956373,0.40222588
0.049213033,4.805031,3.502891,-1.2063453,4.2889547,1.3311762,-6.0956373,0.40222588
0.053428352,4.808779,3.603026,-1.2340422,4.4562016,0.78529817,-6.1770406,1.2018893
0.057634883,4.812532,3.603026,-1.2340422,4.4562016,0.78529817,-6.1770406,1.2018893
0.062032174,4.816412,3.695704,-1.2691959,4.619187,0.60333884,-6.1387334,1.7525556
0.066420145,4.8203,3.695704,-1.2691959,4.619187,0.60333884,-6.1387334,1.7525556
0.07097778,4.8242984,3.7851863,-1.3107412,4.776846,0.4165911,-6.0621185,2.2122424
0.07552591,4.828306,3.7851863,-1.3107412,4.776846,0.4165911,-6.0621185,2.2122424
0.0802231,4.8324165,3.8714726,-1.3533518,4.931309,0.2873042,-5.884948,2.3175871
0.08491024,4.8365374,3.8714726,-1.3533518,4.931309,0.2873042,-5.884948,2.3175871
0.089749925,4.8407545,3.9492369,-1.3948971,5.0879035,0.1436521,-5.78918,2.5617957
0.09457916,4.844983,3.9492369,-1.3948971,5.0879035,0.1436521,-5.78918,2.5617957
0.09955511,4.8492956,4.0142183,-1.4332466,5.2444973,-0.04309563,-5.722142,2.4372973
0.10451479,4.8536167,4.0142183,-1.4332466,5.2444973,-0.04309563,-5.722142,2.4372973
0.10962939,4.8580165,4.0621552,-1.4737266,5.3989606,-0.24420857,-5.5976434,2.255338
0.11472665,4.8624253,4.0621552,-1.4737266,5.3989606,-0.24420857,-5.5976434,2.255338
0.1199667,4.8668876,4.0887866,-1.5131415,5.5480976,-0.32561144,-5.425261,2.3894134
0.12518361,4.8713565,4.0887866,-1.5131415,5.5480976,-0.32561144,-5.425261,2.3894134
0.13052577,4.875855,4.090917,-1.555752,5.6844516,-0.32561144,-5.233725,2.6623523
0.1358549,4.88037,4.090917,-1.555752,5.6844516,-0.32561144,-5.233725,2.6623523
0.14129683,4.88489,4.0717425,-1.5909058,5.808022,-0.45010993,-5.142745,3.1172507
0.14672562,4.889428,4.0717425,-1.5909058,5.808022,-0.45010993,-5.142745,3.1172507
0.15225343,4.8939505,4.0323277,-1.6122111,5.9145484,-0.6943185,-5.0613422,3.5434184
0.15776798,4.898492,4.0323277,-1.6122111,5.9145484,-0.6943185,-5.0613422,3.5434184
0.16336706,4.902997,3.9748032,-1.6122111,6.0019,-1.0726024,-4.960786,4.1132383
0.16895297,4.9075217,3.9748032,-1.6122111,6.0019,-1.0726024,-4.960786,4.1132383
0.17460726,4.9119883,3.8991694,-1.5898405,6.0690117,-1.5753847,-5.0134583,4.582502
0.18024836,4.916476,3.8991694,-1.5898405,6.0690117,-1.5753847,-5.0134583,4.582502
0.18593574,4.920883,3.804361,-1.5482953,6.1116223,-2.030283,-5.118803,4.807557
0.19161016,4.9253116,3.804361,-1.5482953,6.1116223,-2.030283,-5.118803,4.807557
0.1973065,4.9296393,3.6925082,-1.4971625,6.127601,-2.4516625,-5.2528787,4.927267
0.20300706,4.9340024,3.6925082,-1.4971625,6.127601,-2.4516625,-5.2528787,4.927267
0.20868248,4.9382305,3.566807,-1.4417688,6.114818,-2.8107927,-5.3438582,4.687847
0.21434554,4.9424815,3.566807,-1.4417688,6.114818,-2.8107927,-5.3438582,4.687847
0.21996991,4.9466004,3.4272573,-1.3874403,6.0690117,-2.9161377,-5.5401826,4.4196963
0.22566083,4.950799,3.4272573,-1.3874403,6.0690117,-2.9161377,-5.5401826,4.4196963
0.23134452,4.954879,3.2759898,-1.3363075,5.996574,-3.394978,-5.6886234,4.0078936
0.23676103,4.9587955,3.2759898,-1.3363075,5.996574,-3.394978,-5.6886234,4.0078936
0.24218869,4.9626336,3.119396,-1.293697,5.8985696,-3.5098996,-6.1100025,3.8642416
0.24763279,4.966512,3.119396,-1.293697,5.8985696,-3.5098996,-6.1100025,3.8642416
0.25295946,4.9702396,2.9628022,-1.257478,5.776064,-3.4763808,-6.7468605,3.7253778
0.25833943,4.9740324,2.9628022,-1.257478,5.776064,-3.4763808,-6.7468605,3.7253778
0.2635271,4.9776206,2.8136652,-1.2201937,5.6397104,-3.787627,-7.0964136,3.5913026
0.26869968,4.9812255,2.8136652,-1.2201937,5.6397104,-3.787627,-7.0964136,3.5913026
0.27378765,4.984692,2.6783764,-1.1797137,5.4948344,-4.4005427,-7.321469,3.2752678
0.27886677,4.9881783,2.6783764,-1.1797137,5.4948344,-4.4005427,-7.321469,3.2752678
0.28382388,4.991513,2.555871,-1.1477557,5.3456974,-4.9799395,-7.4603324,2.8299465
0.28877294,4.994865,2.555871,-1.1477557,5.3456974,-4.9799395,-7.4603324,2.8299465
0.29357672,4.9980955,2.4440184,-1.1296463,5.1933646,-5.33907,-7.785944,2.777274
0.2983726,5.0013437,2.4440184,-1.1296463,5.1933646,-5.33907,-7.785944,2.777274
0.30302426,5.004483,2.3449488,-1.1200589,5.045293,-5.57849,-8.298303,2.743755
0.30766815,5.0076394,2.3449488,-1.1200589,5.045293,-5.57849,-8.298303,2.743755
0.31216264,5.010715,2.2629232,-1.1136672,4.900417,-5.78918,-8.853758,2.992752
0.31665865,5.013812,2.2629232,-1.1136672,4.900417,-5.78918,-8.853758,2.992752
0.32100782,5.016837,2.201138,-1.108341,4.756606,-5.913678,-9.375694,3.0262709
0.32534525,5.0198736,2.201138,-1.108341,4.756606,-5.913678,-9.375694,3.0262709
0.3295519,5.022867,2.160658,-1.1008841,4.615991,-6.0381765,-9.787497,3.0550013
0.33374673,5.0258718,2.160658,-1.1008841,4.615991,-6.0381765,-9.787497,3.0550013
0.34232372,5.0321627,2.1382873,-1.0881009,4.4775066,-6.2632318,-9.993398,2.906561
0.34232372,5.0321627,2.1382873,-1.0881009,4.4775066,-6.2632318,-9.993398,2.906561
0.3459248,5.0348806,2.1287,-1.0742525,4.345414,-6.421249,-10.01734,2.7820623
0.34990218,5.0379004,2.1287,-1.0742525,4.345414,-6.421249,-10.01734,2.7820623
0.35397318,5.041083,2.1265695,-1.0572083,4.212256,-6.4643445,-9.993398,2.6767175
0.35397318,5.041083,2.1265695,-1.0572083,4.212256,-6.4643445,-9.993398,2.6767175
0.36100736,5.0466585,2.1308305,-1.0380335,4.080163,-6.4404025,-9.959879,2.6144683
0.36461815,5.0496063,2.1308305,-1.0380335,4.080163,-6.4404025,-9.959879,2.6144683
0.3681535,5.0525913,2.1404178,-1.0135324,3.9491355,-6.2632318,-9.883265,2.7150247
0.3681535,5.0525913,2.1404178,-1.0135324,3.9491355,-6.2632318,-9.883265,2.7150247
0.37518102,5.0586,2.1563969,-0.9805092,3.818108,-6.2488666,-9.864111,2.882619
0.37851593,5.061552,2.1563969,-0.9805092,3.818108,-6.2488666,-9.864111,2.882619
0.38178867,5.0645585,2.180898,-0.9400292,3.6913416,-6.291962,-9.768343,3.0789435
0.3850473,5.0675683,2.180898,-0.9400292,3.6913416,-6.291962,-9.768343,3.0789435
0.3882157,5.070609,2.2128558,-0.8899618,3.5699015,-6.363788,-9.68694,3.3566709
0.391377,5.073659,2.2128558,-0.8899618,3.5699015,-6.363788,-9.68694,3.3566709
0.39444804,5.0767403,2.2544012,-0.8324375,3.4580486,-6.540959,-9.481039,3.6104562
0.39751583,5.0798335,2.2544012,-0.8324375,3.4580486,-6.540959,-9.481039,3.6104562
0.40052766,5.0829782,2.3012729,-0.7727827,3.358979,-6.694188,-9.3421755,3.7588966
0.40352425,5.086123,2.3012729,-0.7727827,3.358979,-6.694188,-9.3421755,3.7588966
0.4064314,5.089264,2.350275,-0.71099734,3.2769537,-7.1155677,-9.021352,3.8067808
0.4093504,5.092432,2.350275,-0.71099734,3.2769537,-7.1155677,-9.021352,3.8067808
0.41222575,5.0956264,2.3971467,-0.65240777,3.209842,-7.560889,-8.710106,3.7541082
0.41509554,5.0988293,2.3971467,-0.65240777,3.209842,-7.560889,-8.710106,3.7541082
0.4179685,5.102109,2.4376266,-0.60553616,3.1587093,-7.350199,-8.480263,3.86903
0.42075682,5.105306,2.4376266,-0.60553616,3.1587093,-7.350199,-8.480263,3.86903
0.423562,5.1085725,2.4685194,-0.5618603,3.1235557,-7.120356,-8.288726,3.9456444
0.42636174,5.111848,2.4685194,-0.5618603,3.1235557,-7.120356,-8.288726,3.9456444
0.42915177,5.115128,2.4876943,-0.52138025,3.101185,-6.9862804,-8.12592,3.8355112
0.43193358,5.118413,2.4876943,-0.52138025,3.101185,-6.9862804,-8.12592,3.8355112
0.4347148,5.1216974,2.4940858,-0.48196548,3.0830755,-6.694188,-7.9248075,3.691859
0.43748808,5.124986,2.4940858,-0.48196548,3.0830755,-6.694188,-7.9248075,3.691859
0.44025692,5.128262,2.4866288,-0.44681177,3.0692272,-6.4643445,-7.752425,3.6583402
0.44302067,5.131545,2.4866288,-0.44681177,3.0692272,-6.4643445,-7.752425,3.6583402
0.44578025,5.1347976,2.466389,-0.41059276,3.0543134,-6.0525417,-7.632715,3.5769374
0.4485345,5.1380577,2.466389,-0.41059276,3.0543134,-6.0525417,-7.632715,3.5769374
0.45127904,5.1412816,2.4323003,-0.37543905,3.0340734,-5.5976434,-7.4028716,3.5625722
0.45401862,5.144513,2.4323003,-0.37543905,3.0340734,-5.5976434,-7.4028716,3.5625722
0.45674205,5.1477046,2.3854287,-0.334959,3.0074418,-5.291186,-7.2448545,3.6774938
0.4594611,5.150903,2.3854287,-0.334959,3.0074418,-5.291186,-7.2448545,3.6774938
0.4621507,5.1540465,2.3279045,-0.29341367,2.9690924,-5.0134583,-7.062895,3.7205894
0.4648579,5.1572223,2.3279045,-0.29341367,2.9690924,-5.0134583,-7.062895,3.7205894
0.46746597,5.160302,2.261858,-0.25506416,2.9222207,-4.8219223,-6.909666,3.9504328
0.47008577,5.163409,2.261858,-0.25506416,2.9222207,-4.8219223,-6.909666,3.9504328
0.47263986,5.166455,2.1904855,-0.22097568,2.8689575,-4.534618,-6.7133417,4.074931
0.47517332,5.1694913,2.1904855,-0.22097568,2.8689575,-4.534618,-6.7133417,4.074931
0.47764587,5.172453,2.1169822,-0.19008303,2.807172,-4.381389,-6.5505357,4.232949
0.48011276,5.1754227,2.1169822,-0.19008303,2.807172,-4.381389,-6.5505357,4.232949
0.48251644,5.1782947,2.040283,-0.16238615,2.734734,-4.333505,-6.3589997,4.3478703
0.48491687,5.181178,2.040283,-0.16238615,2.734734,-4.333505,-6.3589997,4.3478703
0.487253,5.183959,1.9625188,-0.14001559,2.6569698,-4.429273,-6.229713,4.5441947
0.48958397,5.1867476,1.9625188,-0.14001559,2.6569698,-4.429273,-6.229713,4.5441947
0.49185038,5.189445,1.8879503,-0.1251019,2.577075,-4.510676,-6.181829,4.663905
0.49410996,5.1921473,1.8879503,-0.1251019,2.577075,-4.510676,-6.181829,4.663905
0.49630094,5.1947575,1.8123165,-0.11977556,2.4971802,-4.6782703,-6.1195793,4.8745947
0.49848768,5.1973753,1.8123165,-0.11977556,2.4971802,-4.6782703,-6.1195793,4.8745947
0.5006011,5.1999063,1.7366827,-0.124036625,2.420481,-4.759673,-6.0525417,5.032612
0.5027084,5.202441,1.7366827,-0.124036625,2.420481,-4.759673,-6.0525417,5.032612
0.50474876,5.2049,1.6621141,-0.13575453,2.3480432,-4.8602295,-5.995081,5.161899
0.50678325,5.207362,1.6621141,-0.13575453,2.3480432,-4.8602295,-5.995081,5.161899
0.5087536,5.2097454,1.5886109,-0.15066823,2.2798662,-5.00867,-5.923255,5.21936
0.5107204,5.2121353,1.5886109,-0.15066823,2.2798662,-5.00867,-5.923255,5.21936
0.51261395,5.214435,1.5140424,-0.16877773,2.2223418,-5.104438,-5.923255,5.3438582
0.51452667,5.216769,1.5140424,-0.16877773,2.2223418,-5.104438,-5.923255,5.3438582
0.5163763,5.219021,1.4448003,-0.18901776,2.1722744,-5.3342814,-5.813122,5.554548
0.51822263,5.221278,1.4448003,-0.18901776,2.1722744,-5.3342814,-5.813122,5.554548
0.5200156,5.2234716,1.3766233,-0.20819251,2.1317945,-5.3678,-5.827487,5.813122
0.52180517,5.2256703,1.3766233,-0.20819251,2.1317945,-5.3678,-5.827487,5.813122
0.523562,5.227808,1.3116422,-0.22097568,2.1040976,-5.449203,-5.8466406,5.889736
0.5253159,5.229951,1.3116422,-0.22097568,2.1040976,-5.449203,-5.8466406,5.889736
0.5270519,5.2320313,1.2487916,-0.22204095,2.0870533,-5.6407394,-5.889736,6.14831
0.52878463,5.2341175,1.2487916,-0.22204095,2.0870533,-5.6407394,-5.889736,6.14831
0.53052604,5.236138,1.1880715,-0.20925778,2.0806618,-6.066907,-5.9663506,6.2967505
0.5322643,5.238164,1.1880715,-0.20925778,2.0806618,-6.066907,-5.9663506,6.2967505
0.5340259,5.240122,1.1294819,-0.1815609,2.085988,-6.517017,-5.932832,6.579266
0.5357847,5.2420855,1.1294819,-0.1815609,2.085988,-6.517017,-5.932832,6.579266
0.53758144,5.2439785,1.0708925,-0.14427665,2.1009018,-6.909666,-6.009446,6.655881
0.5393865,5.245888,1.0708925,-0.14427665,2.1009018,-6.909666,-6.009446,6.655881
0.54127395,5.2477465,1.0059112,-0.09420922,2.122207,-7.302315,-6.0381765,6.6893997
0.5431092,5.249561,1.0059112,-0.09420922,2.122207,-7.302315,-6.0381765,6.6893997
0.5449827,5.2512684,0.9334733,-0.03455441,2.1456428,-7.608773,-6.1004257,6.775591
0.5468578,5.252985,0.9334733,-0.03455441,2.1456428,-7.608773,-6.1004257,6.775591
0.548813,5.254607,0.8503827,0.033622514,2.1701438,-7.867347,-6.215348,6.6606693
0.55077,5.256238,0.8503827,0.033622514,2.1701438,-7.867347,-6.215348,6.6606693
0.55278397,5.2577405,0.7566394,0.1060605,2.1893187,-8.078036,-6.421249,6.5265937
0.5547961,5.259248,0.7566394,0.1060605,2.1893187,-8.078036,-6.421249,6.5265937
0.55686027,5.2606235,0.654374,0.17849848,2.1989062,-8.154651,-6.6079965,6.4739213
0.55892074,5.262003,0.654374,0.17849848,2.1989062,-8.154651,-6.6079965,6.4739213
0.56102073,5.263232,0.54784757,0.24774067,2.1935797,-8.283937,-6.813898,6.2345014
0.56312335,5.264469,0.54784757,0.24774067,2.1935797,-8.283937,-6.813898,6.2345014
0.565245,5.2655497,0.44025585,0.309526,2.174405,-8.446744,-7.0964136,6.0716953
0.56737185,5.266638,0.44025585,0.309526,2.174405,-8.446744,-7.0964136,6.0716953
0.5694989,5.267576,0.33585995,0.35959345,2.138186,-8.552089,-7.4028716,5.961562
0.57162505,5.268518,0.33585995,0.35959345,2.138186,-8.552089,-7.4028716,5.961562
0.5737272,5.269315,0.23465982,0.39581242,2.081727,-8.6095495,-7.61835,5.8705826
0.57582855,5.270115,0.23465982,0.39581242,2.081727,-8.6095495,-7.61835,5.8705826
0.57788604,5.2707853,0.14304708,0.4171177,2.01355,-8.614338,-7.819463,5.8226986
0.5799452,5.2714596,0.14304708,0.4171177,2.01355,-8.614338,-7.819463,5.8226986
0.58193815,5.2720127,0.06528277,0.42563984,1.9304594,-8.628703,-8.020576,5.731719
0.58393466,5.2725697,0.06528277,0.42563984,1.9304594,-8.628703,-8.020576,5.731719
0.5858449,5.273027,0.003497433,0.42457458,1.832455,-8.748413,-8.183381,5.7508726
0.58775866,5.273487,0.003497433,0.42457458,1.832455,-8.748413,-8.183381,5.7508726
0.5895769,5.273864,-0.04017841,0.4171177,1.7291244,-8.853758,-8.298303,5.717354
0.5914004,5.274244,-0.04017841,0.4171177,1.7291244,-8.853758,-8.298303,5.717354
0.59312624,5.274563,-0.06787529,0.40433455,1.6236633,-8.968679,-8.48984,5.7748146
0.5948519,5.2748837,-0.06787529,0.40433455,1.6236633,-8.968679,-8.48984,5.7748146
0.5964761,5.2751555,-0.07852793,0.38835558,1.5150063,-9.074024,-8.628703,5.7508726
0.59810674,5.2754297,-0.07852793,0.38835558,1.5150063,-9.074024,-8.628703,5.7508726
0.59962595,5.275685,-0.07213634,0.37024608,1.4063493,-9.112331,-8.710106,5.837064
0.60114956,5.275942,-0.07213634,0.37024608,1.4063493,-9.112331,-8.710106,5.837064
0.60257316,5.276178,-0.052961584,0.35107133,1.3019534,-9.217676,-8.872911,5.779603
0.6039994,5.276415,-0.052961584,0.35107133,1.3019534,-9.217676,-8.872911,5.779603
0.60532355,5.2766476,-0.022068914,0.3308313,1.199688,-9.208099,-8.892065,5.683835
0.6066538,5.276882,-0.022068914,0.3308313,1.199688,-9.208099,-8.892065,5.683835
0.6078856,5.2771287,0.017345872,0.31059128,1.102749,-9.212888,-8.896853,5.650316
0.6091197,5.277376,0.017345872,0.31059128,1.102749,-9.212888,-8.896853,5.650316
0.6102615,5.277632,0.061021715,0.29035124,1.0111362,-9.155427,-8.887277,5.5018754
0.61140424,5.277889,0.061021715,0.29035124,1.0111362,-9.155427,-8.887277,5.5018754
0.61245716,5.2781715,0.10789335,0.27011123,0.92271924,-9.160215,-8.810662,5.45878
0.6135162,5.2784557,0.10789335,0.27011123,0.92271924,-9.160215,-8.810662,5.45878
0.614488,5.278758,0.15583025,0.25200173,0.8385634,-9.078813,-8.791509,5.363012
0.6154613,5.2790613,0.15583025,0.25200173,0.8385634,-9.078813,-8.791509,5.363012
0.61635923,5.2793884,0.20163663,0.2381533,0.76079905,-9.002198,-8.724471,5.3199162
0.6172588,5.279716,0.20163663,0.2381533,0.76079905,-9.002198,-8.724471,5.3199162
0.6180847,5.2800584,0.2442472,0.22856592,0.68410003,-8.954314,-8.6813755,5.257667
0.6189136,5.280402,0.2442472,0.22856592,0.68410003,-8.954314,-8.6813755,5.257667
0.6196747,5.280759,0.2825967,0.22323959,0.6095315,-8.896853,-8.5473,5.1810527
0.62043625,5.281116,0.2825967,0.22323959,0.6095315,-8.896853,-8.5473,5.1810527
0.6211402,5.2814803,0.31348938,0.22323959,0.5402893,-8.858546,-8.461109,5.1571107
0.621844,5.281844,0.31348938,0.22323959,0.5402893,-8.858546,-8.461109,5.1571107
0.6224911,5.2822022,0.3369252,0.22750065,0.46998185,-8.791509,-8.379706,5.118803
0.62313855,5.282561,0.3369252,0.22750065,0.46998185,-8.791509,-8.379706,5.118803
0.6237316,5.282902,0.35077363,0.2349575,0.40287018,-8.6574335,-8.307879,5.0900726
0.6243268,5.2832437,0.35077363,0.2349575,0.40287018,-8.6574335,-8.307879,5.0900726
0.62487006,5.283553,0.35609996,0.24880594,0.33469325,-8.508993,-8.24563,5.056554
0.625414,5.2838635,0.35609996,0.24880594,0.33469325,-8.508993,-8.24563,5.056554
0.62591267,5.284149,0.35396942,0.2647849,0.2675816,-8.599973,-8.101978,5.094861
0.626414,5.2844353,0.35396942,0.2647849,0.2675816,-8.599973,-8.101978,5.094861
0.626866,5.2846813,0.3433168,0.28076386,0.19727415,-8.767567,-7.9391727,5.070919
0.62731826,5.2849274,0.3433168,0.28076386,0.19727415,-8.767567,-7.9391727,5.070919
0.6277196,5.285129,0.32414204,0.29567757,0.12590143,-8.37013,-7.848193,5.133168
0.62812126,5.2853303,0.32414204,0.29567757,0.12590143,-8.37013,-7.848193,5.133168
0.6284759,5.2854824,0.2985757,0.3127218,0.058789775,-8.058883,-7.9152308,5.2480903
0.6288321,5.2856345,0.2985757,0.3127218,0.058789775,-8.058883,-7.9152308,5.2480903
0.6291417,5.2857294,0.27194408,0.33402708,-0.009387151,-8.020576,-7.881712,5.2863975
0.6294515,5.2858243,0.27194408,0.33402708,-0.009387151,-8.020576,-7.881712,5.2863975
0.6297129,5.28586,0.2442472,0.3574629,-0.08075987,-8.078036,-7.8865004,5.3678
0.6299745,5.285896,0.2442472,0.3574629,-0.08075987,-8.078036,-7.8865004,5.3678
0.63019216,5.285847,0.2144198,0.3808987,-0.1489368,-8.154651,-7.8625584,5.2863975
0.6304102,5.2857985,0.2144198,0.3808987,-0.1489368,-8.154651,-7.8625584,5.2863975
0.63059723,5.2856903,0.1845924,0.4032693,-0.2117874,-8.1402855,-7.8290396,5.3678
0.630773,5.2855883,0.1845924,0.4032693,-0.2117874,-8.1402855,-7.8290396,5.3678
0.6309102,5.285428,0.15689552,0.42563984,-0.26718116,-8.169016,-7.771579,5.3486466
0.6310533,5.28526,0.15689552,0.42563984,-0.26718116,-8.169016,-7.771579,5.3486466
0.631169,5.2850146,0.12813337,0.44694513,-0.31511804,-8.078036,-7.771579,5.21936
0.6312961,5.2847447,0.12813337,0.44694513,-0.31511804,-8.078036,-7.771579,5.21936
0.6313687,5.2845078,0.09830597,0.46825042,-0.35772863,-7.953538,-7.7332716,5.2720323
0.63145506,5.284226,0.09830597,0.46825042,-0.35772863,-7.953538,-7.7332716,5.2720323
0.63152623,5.283845,0.06847856,0.48742518,-0.39714342,-7.776367,-7.714118,5.185841
0.6315856,5.2835283,0.06847856,0.48742518,-0.39714342,-7.776367,-7.714118,5.185841
0.63163173,5.2831326,0.037585896,0.5044694,-0.42910135,-7.666234,-7.61835,5.142745
0.6316775,5.282737,0.037585896,0.5044694,-0.42910135,-7.666234,-7.61835,5.142745
0.6317032,5.2822943,0.0045626974,0.52151364,-0.45999402,-7.565677,-7.560889,5.161899
0.6317279,5.2818613,0.0045626974,0.52151364,-0.45999402,-7.565677,-7.560889,5.161899
0.63173187,5.281381,-0.03059103,0.53749263,-0.48875615,-7.431602,-7.52737,5.161899
0.63173527,5.280901,-0.03059103,0.53749263,-0.48875615,-7.431602,-7.52737,5.161899
0.6317086,5.280388,-0.06467949,0.55347157,-0.5175183,-7.3406224,-7.469909,5.2241483
0.63168114,5.2798758,-0.06467949,0.55347157,-0.5175183,-7.3406224,-7.469909,5.2241483
0.6316274,5.2793202,-0.09876795,0.56625473,-0.54414994,-7.2304893,-7.398083,5.21936
0.6315727,5.2787657,-0.09876795,0.56625473,-0.54414994,-7.2304893,-7.398083,5.21936
0.6314937,5.278169,-0.13072589,0.5790379,-0.5707815,-7.1634517,-7.345411,5.2241483
0.6314138,5.277571,-0.13072589,0.5790379,-0.5707815,-7.1634517,-7.345411,5.2241483
0.63131356,5.276929,-0.16055329,0.5928863,-0.5974131,-7.0581064,-7.3310456,5.1762643
0.6312115,5.276283,-0.16055329,0.5928863,-0.5974131,-7.0581064,-7.3310456,5.1762643
0.63109326,5.275593,-0.19251123,0.60780007,-0.6219142,-6.95755,-7.2783732,5.118803
0.6309744,5.274906,-0.19251123,0.60780007,-0.6219142,-6.95755,-7.2783732,5.118803
0.63084406,5.274165,-0.22553442,0.619518,-0.64535004,-6.9240313,-7.2352777,5.070919
0.6307098,5.2734094,-0.22553442,0.619518,-0.64535004,-6.9240313,-7.2352777,5.070919
0.6305549,5.2726088,-0.25749236,0.6301706,-0.66878587,-6.895301,-7.264008,5.0757074
0.6303997,5.271816,-0.25749236,0.6301706,-0.66878587,-6.895301,-7.264008,5.0757074
0.6302343,5.2710238,-0.28838503,0.63869274,-0.69222164,-6.8282633,-7.297527,5.032612
0.6300614,5.2702026,-0.28838503,0.63869274,-0.69222164,-6.8282633,-7.297527,5.032612
0.62986803,5.269332,-0.3192777,0.6429538,-0.7145922,-6.8043213,-7.3406224,5.00867
0.6296741,5.268465,-0.3192777,0.6429538,-0.7145922,-6.8043213,-7.3406224,5.00867
0.6294521,5.2675643,-0.34697458,0.6450843,-0.7390933,-6.775591,-7.3406224,5.0182467
0.6292273,5.266659,-0.34697458,0.6450843,-0.7390933,-6.775591,-7.3406224,5.0182467
0.6289644,5.265733,-0.37147567,0.64082325,-0.7614639,-6.766014,-7.422025,5.080496
0.62870014,5.2648063,-0.37147567,0.64082325,-0.7614639,-6.766014,-7.422025,5.080496
0.6284017,5.2638626,-0.38958514,0.6312359,-0.78489965,-6.7372837,-7.4842744,5.070919
0.6281001,5.262912,-0.38958514,0.6312359,-0.78489965,-6.7372837,-7.4842744,5.070919
0.62777424,5.2619596,-0.40449885,0.61632216,-0.8072702,-6.694188,-7.4986396,5.00867
0.6274448,5.2609987,-0.40449885,0.61632216,-0.8072702,-6.694188,-7.4986396,5.00867
0.627055,5.2600393,-0.41089043,0.59395164,-0.83070606,-6.579266,-7.513005,4.999093
0.62666535,5.2590795,-0.41089043,0.59395164,-0.83070606,-6.579266,-7.513005,4.999093
0.62623835,5.2581296,-0.41302097,0.56625473,-0.8562724,-6.4547677,-7.4363904,4.8506527
0.62580776,5.2571707,-0.41302097,0.56625473,-0.8562724,-6.4547677,-7.4363904,4.8506527
0.6253105,5.2562313,-0.40875992,0.53323156,-0.88716507,-6.349423,-7.4507556,4.7740383
0.6248128,5.255289,-0.40875992,0.53323156,-0.88716507,-6.349423,-7.4507556,4.7740383
0.6242393,5.254359,-0.39917254,0.4959473,-0.92018825,-6.2249246,-7.422025,4.759673
0.6236671,5.2534294,-0.39917254,0.4959473,-0.92018825,-6.2249246,-7.422025,4.759673
0.6230315,5.252523,-0.38319355,0.45759776,-0.95640725,-6.090849,-7.359776,4.759673
0.62239456,5.251615,-0.38319355,0.45759776,-0.95640725,-6.090849,-7.359776,4.759673
0.6216842,5.2507286,-0.3618883,0.4171177,-0.9936915,-5.93762,-7.3071036,4.6686935
0.6209888,5.2498612,-0.3618883,0.4171177,-0.9936915,-5.93762,-7.3071036,4.6686935
0.62021935,5.249013,-0.33525667,0.37450713,-1.0288452,-5.837064,-7.264008,4.630386
0.6194366,5.2481513,-0.33525667,0.37450713,-1.0288452,-5.837064,-7.264008,4.630386
0.61862725,5.247356,-0.30649453,0.33402708,-1.0639989,-5.755661,-7.16824,4.644751
0.6178237,5.2465677,-0.30649453,0.33402708,-1.0639989,-5.755661,-7.16824,4.644751
0.61696064,5.245816,-0.27560186,0.29354703,-1.0970222,-5.765238,-7.16824,4.5681367
0.6160933,5.245062,-0.27560186,0.29354703,-1.0970222,-5.765238,-7.16824,4.5681367
0.6151966,5.2443676,-0.24364392,0.25519753,-1.1300454,-5.717354,-7.101202,4.548983
0.6142974,5.2436733,-0.24364392,0.25519753,-1.1300454,-5.717354,-7.101202,4.548983
0.6133629,5.2430224,-0.21594705,0.22110906,-1.160938,-5.7029886,-7.043741,4.5154643
0.61243075,5.2423744,-0.21594705,0.22110906,-1.160938,-5.7029886,-7.043741,4.5154643
0.611463,5.241763,-0.19144596,0.19021639,-1.1854391,-5.693412,-7.0341644,4.5154643
0.61049974,5.241155,-0.19144596,0.19021639,-1.1854391,-5.693412,-7.0341644,4.5154643
0.6095016,5.240575,-0.17014067,0.1657153,-1.2056792,-5.6790466,-7.0006456,4.5394063
0.6085184,5.240004,-0.17014067,0.1657153,-1.2056792,-5.6790466,-7.0006456,4.5394063
0.6075066,5.2394543,-0.15309644,0.1476058,-1.2205929,-5.60722,-6.991069,4.55856
0.60648835,5.238903,-0.15309644,0.1476058,-1.2205929,-5.60722,-6.991069,4.55856
0.6054495,5.238367,-0.14137854,0.13269211,-1.229115,-5.6120086,-6.9623384,4.6016555
0.6044422,5.2378488,-0.14137854,0.13269211,-1.229115,-5.6120086,-6.9623384,4.6016555
0.60339916,5.237332,-0.13392168,0.12203947,-1.237637,-5.5018754,-6.909666,4.55856
0.6023569,5.2368174,-0.13392168,0.12203947,-1.237637,-5.5018754,-6.909666,4.55856
0.6013158,5.236315,-0.12859535,0.11458261,-1.2418982,-5.463568,-6.813898,4.5202527
0.60027003,5.235812,-0.12859535,0.11458261,-1.2418982,-5.463568,-6.813898,4.5202527
0.59922093,5.2353106,-0.13072589,0.11138682,-1.2461592,-5.401319,-6.7947445,4.405331
0.5981759,5.2348127,-0.13072589,0.11138682,-1.2461592,-5.401319,-6.7947445,4.405331
0.59713143,5.2343097,-0.13711748,0.11032156,-1.2514855,-5.391742,-6.751649,4.3861775
0.59608066,5.2338047,-0.13711748,0.11032156,-1.2514855,-5.391742,-6.751649,4.3861775
0.59502184,5.233288,-0.14990065,0.11032156,-1.2546813,-5.281609,-6.7372837,4.3861775
0.5939608,5.232771,-0.14990065,0.11032156,-1.2546813,-5.281609,-6.7372837,4.3861775
0.5929,5.2322383,-0.16587962,0.11245208,-1.2589424,-5.209783,-6.655881,4.2999864
0.5918373,5.231705,-0.16587962,0.11245208,-1.2589424,-5.209783,-6.655881,4.2999864
0.5907662,5.2311487,-0.18505438,0.116713144,-1.2685298,-5.142745,-6.6079965,4.3861775
0.58969665,5.2305946,-0.18505438,0.116713144,-1.2685298,-5.142745,-6.6079965,4.3861775
0.58862233,5.230013,-0.20635967,0.12417,-1.281313,-5.142745,-6.622362,4.357447
0.58754534,5.229431,-0.20635967,0.12417,-1.281313,-5.142745,-6.622362,4.357447
0.58647186,5.22882,-0.22979549,0.13695318,-1.2940961,-5.118803,-6.555324,4.4005427
0.58539444,5.2282076,-0.22979549,0.13695318,-1.2940961,-5.118803,-6.555324,4.4005427
0.5843178,5.227559,-0.25749236,0.15186687,-1.3079445,-5.104438,-6.5505357,4.343082
0.5832406,5.226911,-0.25749236,0.15186687,-1.3079445,-5.104438,-6.5505357,4.343082
0.5821653,5.226223,-0.28518924,0.17210689,-1.3249887,-5.109226,-6.5601125,4.309563
0.58108604,5.2255344,-0.28518924,0.17210689,-1.3249887,-5.109226,-6.5601125,4.309563
0.5800115,5.224796,-0.31821242,0.19660798,-1.3441635,-5.12838,-6.517017,4.3382936
0.5789379,5.22406,-0.31821242,0.19660798,-1.3441635,-5.12838,-6.517017,4.3382936
0.57785296,5.223263,-0.35869247,0.22430485,-1.3665341,-5.0613422,-6.531382,4.280833
0.57676494,5.2224646,-0.35869247,0.22430485,-1.3665341,-5.0613422,-6.531382,4.280833
0.5756667,5.2215996,-0.40236834,0.25519753,-1.3889046,-5.0134583,-6.5457473,4.2904096
0.5745665,5.2207346,-0.40236834,0.25519753,-1.3889046,-5.0134583,-6.5457473,4.2904096
0.57346797,5.219802,-0.45030522,0.28715545,-1.4155363,-5.0613422,-6.588843,4.280833
0.57237285,5.2188735,-0.45030522,0.28715545,-1.4155363,-5.0613422,-6.588843,4.280833
0.571269,5.2178655,-0.5014379,0.32017866,-1.4453636,-5.070919,-6.564901,4.285621
0.5701659,5.2168603,-0.5014379,0.32017866,-1.4453636,-5.070919,-6.564901,4.285621
0.5690074,5.21576,-0.5578969,0.35533237,-1.475191,-4.8267107,-6.694188,4.4101195
0.5678498,5.214663,-0.5578969,0.35533237,-1.475191,-4.8267107,-6.694188,4.4101195
0.5666778,5.2134743,-0.618617,0.3936819,-1.5060837,-4.807557,-6.766014,4.5154643
0.56550616,5.212289,-0.618617,0.3936819,-1.5060837,-4.807557,-6.766014,4.5154643
0.5643829,5.2110233,-0.68040234,0.43416196,-1.543368,-5.315128,-6.7133417,4.5202527
0.5632595,5.20976,-0.68040234,0.43416196,-1.543368,-5.315128,-6.7133417,4.5202527
0.56214035,5.2084007,-0.74325293,0.47144622,-1.5849133,-5.5497594,-6.646304,4.572925
0.56102026,5.2070436,-0.74325293,0.47144622,-1.5849133,-5.5497594,-6.646304,4.572925
0.5598787,5.205593,-0.8103646,0.50553465,-1.6211323,-5.554548,-6.631939,4.6495395
0.5587361,5.2041454,-0.8103646,0.50553465,-1.6211323,-5.554548,-6.631939,4.6495395
0.55756485,5.2026005,-0.8828026,0.53962314,-1.6573513,-5.521029,-6.7708025,4.7261543
0.5563903,5.201055,-0.8828026,0.53962314,-1.6573513,-5.521029,-6.7708025,4.7261543
0.5552225,5.1994104,-0.95843637,0.5737116,-1.6946355,-5.8226986,-6.8330517,4.7644615
0.5540508,5.197765,-0.95843637,0.5737116,-1.6946355,-5.8226986,-6.8330517,4.7644615
0.5528599,5.1960173,-1.0351354,0.60460424,-1.732985,-5.889736,-6.9623384,4.7740383
0.551667,5.1942735,-1.0351354,0.60460424,-1.732985,-5.889736,-6.9623384,4.7740383
0.55044234,5.192429,-1.113965,0.6312359,-1.7745304,-5.93762,-7.101202,4.8698063
0.5492155,5.190588,-1.113965,0.6312359,-1.7745304,-5.93762,-7.101202,4.8698063
0.5479654,5.1886425,-1.1959903,0.655737,-1.8150104,-6.009446,-7.1730285,4.8745947
0.5467129,5.186701,-1.1959903,0.655737,-1.8150104,-6.009446,-7.1730285,4.8745947
0.54543036,5.184657,-1.2780157,0.67704225,-1.8597515,-6.0238113,-7.326257,4.817134
0.5441453,5.182616,-1.2780157,0.67704225,-1.8597515,-6.0238113,-7.326257,4.817134
0.542817,5.180479,-1.3589758,0.69515175,-1.9055579,-6.033388,-7.441179,4.912902
0.5414753,5.1783285,-1.3589758,0.69515175,-1.9055579,-6.033388,-7.441179,4.912902
0.54005665,5.176034,-1.4388707,0.7079349,-1.9556253,-6.0046577,-7.536947,4.9176903
0.53870416,5.173855,-1.4388707,0.7079349,-1.9556253,-6.0046577,-7.536947,4.9176903
0.53729475,5.1715765,-1.5155697,0.71326125,-2.0099537,-6.0142345,-7.666234,4.912902
0.53586227,5.169271,-1.5155697,0.71326125,-2.0099537,-6.0142345,-7.666234,4.912902
0.5343756,5.1668887,-1.5880077,0.712196,-2.0674782,-5.9519854,-7.7428484,4.841076
0.53288144,5.164504,-1.5880077,0.712196,-2.0674782,-5.9519854,-7.7428484,4.841076
0.5313148,5.162051,-1.6519235,0.7047391,-2.1281981,-5.899313,-7.867347,4.903325
0.5297452,5.1596036,-1.6519235,0.7047391,-2.1281981,-5.899313,-7.867347,4.903325
0.5281036,5.157097,-1.7083826,0.6898254,-2.1931794,-5.875371,-7.920019,4.912902
0.52645886,5.154596,-1.7083826,0.6898254,-2.1931794,-5.875371,-7.920019,4.912902
0.5247106,5.15204,-1.7531236,0.66852015,-2.257095,-5.554548,-7.9870567,4.793192
0.52297753,5.149516,-1.7531236,0.66852015,-2.257095,-5.554548,-7.9870567,4.793192
0.52113366,5.146942,-1.7861469,0.6418885,-2.3263373,-5.2863975,-7.97748,4.6830587
0.51929,5.144378,-1.7861469,0.6418885,-2.3263373,-5.2863975,-7.97748,4.6830587
0.51737094,5.1418114,-1.8031911,0.61419165,-2.3955796,-5.195418,-7.953538,4.6399627
0.5154447,5.139243,-1.8031911,0.61419165,-2.3955796,-5.195418,-7.953538,4.6399627
0.5134314,5.1366763,-1.8053216,0.58649474,-2.4669523,-5.085284,-7.9343843,4.6112323
0.51141673,5.134116,-1.8053216,0.58649474,-2.4669523,-5.085284,-7.9343843,4.6112323
0.50931185,5.131564,-1.7914732,0.5609284,-2.5372598,-5.0374002,-7.97748,4.5441947
0.50722057,5.1290364,-1.7914732,0.5609284,-2.5372598,-5.0374002,-7.97748,4.5441947
0.5050659,5.1265345,-1.7637763,0.53962314,-2.6001103,-5.161899,-8.00621,4.55856
0.5029097,5.1240396,-1.7637763,0.53962314,-2.6001103,-5.161899,-8.00621,4.55856
0.50025785,5.1210985,-1.722231,0.52151364,-2.6565692,-5.243302,-8.001422,4.525041
0.49838662,5.119031,-1.722231,0.52151364,-2.6565692,-5.243302,-8.001422,4.525041
0.49616784,5.116662,-1.6732289,0.5097957,-2.7055714,-5.401319,-8.101978,4.381389
0.49391794,5.1142693,-1.6732289,0.5097957,-2.7055714,-5.401319,-8.101978,4.381389
0.49164006,5.11191,-1.6189003,0.5023389,-2.7460515,-5.559336,-8.1881695,4.2042184
0.49164006,5.11191,-1.6189003,0.5023389,-2.7460515,-5.559336,-8.1881695,4.2042184
0.4872085,5.107361,-1.5645719,0.4959473,-2.7737484,-5.631162,-8.24563,3.940856
0.4849577,5.1050844,-1.5645719,0.4959473,-2.7737484,-5.631162,-8.24563,3.940856
0.48267102,5.102807,-1.5123739,0.48849043,-2.7939885,-5.693412,-8.389283,3.7684734
0.48040485,5.100563,-1.5123739,0.48849043,-2.7939885,-5.693412,-8.389283,3.7684734
0.48040485,5.100563,-1.5123739,0.48849043,-2.7939885,-5.693412,-8.389283,3.7684734
0.47680753,5.097058,-1.4655023,0.4810336,-2.7993147,-5.7125654,-8.504205,3.6343982
0.47355807,5.093936,-1.423957,0.47677252,-2.7950537,-5.7508726,-8.647857,3.6248214
0.47130996,5.091812,-1.423957,0.47677252,-2.7950537,-5.7508726,-8.647857,3.6248214
0.469037,5.089709,-1.3866727,0.47038093,-2.7812052,-5.841852,-8.690952,3.643975
0.46676505,5.087619,-1.3866727,0.47038093,-2.7812052,-5.841852,-8.690952,3.643975
0.46449825,5.085557,-1.3547148,0.46505463,-2.756704,-5.8945246,-8.801085,3.6391866
0.46233425,5.0836005,-1.3547148,0.46505463,-2.756704,-5.8945246,-8.801085,3.6391866
0.46009895,5.081602,-1.3259526,0.46079355,-2.723681,-5.923255,-8.825027,3.6583402
0.4577685,5.07953,-1.3259526,0.46079355,-2.723681,-5.923255,-8.825027,3.6583402
0.45555106,5.0775857,-1.3035821,0.46079355,-2.684266,-6.019023,-8.8777,3.821146
0.45334587,5.0756617,-1.3035821,0.46079355,-2.684266,-6.019023,-8.8777,3.821146
0.4511801,5.073789,-1.2876031,0.46718514,-2.642721,-6.066907,-8.892065,4.003105
0.448961,5.071879,-1.2876031,0.46718514,-2.642721,-6.066907,-8.892065,4.003105
0.44682044,5.07003,-1.2769505,0.47890306,-2.5979798,-6.1770406,-8.887277,4.1515455
0.444662,5.0681744,-1.2769505,0.47890306,-2.5979798,-6.1770406,-8.887277,4.1515455
0.4425566,5.066332,-1.27482,0.50127363,-2.554304,-6.2345014,-8.973468,4.2185836
0.4404462,5.064493,-1.27482,0.50127363,-2.554304,-6.2345014,-8.973468,4.2185836
0.43838376,5.062639,-1.2822767,0.53323156,-2.513824,-6.244078,-8.920795,4.146757
0.43632045,5.060793,-1.2822767,0.53323156,-2.513824,-6.244078,-8.920795,4.146757
0.43430156,5.0589085,-1.3014516,0.5726463,-2.4839964,-6.244078,-8.925584,3.98874
0.43227962,5.05703,-1.3014516,0.5726463,-2.4839964,-6.244078,-8.925584,3.98874
0.43029454,5.0550895,-1.3355399,0.6184527,-2.465887,-6.1387334,-8.944737,3.739743
0.42831022,5.0531583,-1.3355399,0.6184527,-2.465887,-6.1387334,-8.944737,3.739743
0.42634442,5.051137,-1.3834769,0.66532433,-2.4669523,-6.019023,-8.916007,3.3901896
0.42437354,5.04912,-1.3834769,0.66532433,-2.4669523,-6.019023,-8.916007,3.3901896
0.42240477,5.046994,-1.4452622,0.712196,-2.481866,-5.9041014,-8.887277,2.9975405
0.42043135,5.044874,-1.4452622,0.712196,-2.481866,-5.9041014,-8.887277,2.9975405
0.41843346,5.042638,-1.520896,0.76013285,-2.5127587,-5.731719,-8.930372,2.791639
0.41643703,5.040414,-1.520896,0.76013285,-2.5127587,-5.731719,-8.930372,2.791639
0.41439423,5.0380573,-1.6071824,0.80806977,-2.558565,-5.48751,-9.002198,2.6048915
0.4123534,5.035714,-1.6071824,0.80806977,-2.558565,-5.48751,-9.002198,2.6048915
0.41026002,5.0332384,-1.7041215,0.85707194,-2.6160893,-5.33907,-9.02614,2.4995465
0.40816262,5.03077,-1.7041215,0.85707194,-2.6160893,-5.33907,-9.02614,2.4995465
0.40600625,5.028171,-1.8053216,0.90500885,-2.6832008,-5.1571107,-9.11712,2.432509
0.40384388,5.0255766,-1.8053216,0.90500885,-2.6832008,-5.1571107,-9.11712,2.432509
0.4016294,5.022871,-1.907587,0.9508152,-2.7588346,-5.0374002,-9.174581,2.5713725
0.39940855,5.0201716,-1.907587,0.9508152,-2.7588346,-5.0374002,-9.174581,2.5713725
0.39713538,5.0173726,-2.0066566,0.9987521,-2.8387296,-4.912902,-9.3182335,2.7724855
0.3948576,5.014584,-2.0066566,0.9987521,-2.8387296,-4.912902,-9.3182335,2.7724855
0.39251631,5.011726,-2.1004,1.0477543,-2.9218202,-4.9416323,-9.409213,3.0262709
0.39016902,5.0088806,-2.1004,1.0477543,-2.9218202,-4.9416323,-9.409213,3.0262709
0.38774094,5.005954,-2.1877515,1.0978217,-3.0049107,-4.936844,-9.361329,3.1651347
0.3853032,5.003035,-2.1877515,1.0978217,-3.0049107,-4.936844,-9.361329,3.1651347
0.38279614,5.000022,-2.2676463,1.1489544,-3.0869362,-4.9320555,-9.3421755,3.1651347
0.3802817,4.9970193,-2.2676463,1.1489544,-3.0869362,-4.9320555,-9.3421755,3.1651347
0.37770504,4.9939213,-2.3443453,1.2054135,-3.1647005,-4.879383,-9.361329,3.1268275
0.3751179,4.9908314,-2.3443453,1.2054135,-3.1647005,-4.879383,-9.361329,3.1268275
0.37247095,4.98764,-2.4210443,1.2608072,-3.2403343,-4.912902,-9.490616,3.083732
0.36981305,4.984457,-2.4210443,1.2608072,-3.2403343,-4.912902,-9.490616,3.083732
0.36709788,4.9811835,-2.4977436,1.3119398,-3.3095765,-5.070919,-9.619903,3.1411927
0.36437413,4.9779224,-2.4977436,1.3119398,-3.3095765,-5.070919,-9.619903,3.1411927
0.36160144,4.974555,-2.572312,1.3588115,-3.376688,-5.0996494,-9.648633,2.944868
0.35882282,4.9712043,-2.572312,1.3588115,-3.376688,-5.0996494,-9.648633,2.944868
0.35598218,4.967761,-2.6490111,1.397161,-3.4416692,-5.023035,-9.792285,2.9017725
0.3531295,4.964329,-2.6490111,1.397161,-3.4416692,-5.023035,-9.792285,2.9017725
0.35022613,4.9608097,-2.724645,1.4301842,-3.501324,-4.9655743,-9.825804,2.7868507
0.34731364,4.9573045,-2.724645,1.4301842,-3.501324,-4.9655743,-9.825804,2.7868507
0.3443414,4.953727,-2.797083,1.4557506,-3.5599136,-4.759673,-9.844957,2.7341783
0.34135938,4.950164,-2.797083,1.4557506,-3.5599136,-4.759673,-9.844957,2.7341783
0.338302,4.9465632,-2.8652596,1.4781212,-3.6163726,-4.5298295,-9.844957,2.8874073
0.33523175,4.9429717,-2.8652596,1.4781212,-3.6163726,-4.5298295,-9.844957,2.8874073
0.3320837,4.939328,-2.9302409,1.5004916,-3.66644,-4.3047748,-9.868899,2.9735985
0.32892677,4.9356966,-2.9302409,1.5004916,-3.66644,-4.3047748,-9.868899,2.9735985
0.3256995,4.9320145,-2.987765,1.5228622,-3.710116,-4.132392,-9.854534,3.074155
0.32246777,4.928348,-2.987765,1.5228622,-3.710116,-4.132392,-9.854534,3.074155
0.3191947,4.9246416,-3.0378325,1.542037,-3.7537918,-4.156334,-9.797073,3.1364043
0.31589404,4.9209247,-3.0378325,1.542037,-3.7537918,-4.156334,-9.797073,3.1364043
0.31250533,4.917123,-3.0825737,1.5569507,-3.7974675,-4.1132383,-9.725247,3.098097
0.30865335,4.912827,-3.0825737,1.5569507,-3.7974675,-4.1132383,-9.725247,3.098097
0.30585143,4.909707,-3.119858,1.5697339,-3.8336866,-4.1419687,-9.639056,3.0310593
0.30249155,4.905985,-3.119858,1.5697339,-3.8336866,-4.1419687,-9.639056,3.0310593
0.299041,4.9021707,-3.1528811,1.5771908,-3.8667097,-4.122815,-9.643845,2.8921957
0.2956433,4.898437,-3.1528811,1.5771908,-3.8667097,-4.122815,-9.643845,2.8921957
0.29218316,4.894662,-3.1837738,1.5771908,-3.8976023,-3.9025488,-9.624691,2.7389667
0.28871807,4.8909035,-3.1837738,1.5771908,-3.8976023,-3.9025488,-9.624691,2.7389667
0.28519383,4.887109,-3.2104053,1.5707991,-3.9252994,-3.739743,-9.65821,2.5953147
0.281679,4.8833456,-3.2104053,1.5707991,-3.9252994,-3.739743,-9.65821,2.5953147
0.27811018,4.8795757,-3.2338412,1.558016,-3.9508657,-3.4284968,-9.586384,2.4851813
0.27453408,4.875818,-3.2338412,1.558016,-3.9508657,-3.4284968,-9.586384,2.4851813
0.2709004,4.872053,-3.2540812,1.5388412,-3.973236,-3.2321723,-9.653421,2.4947581
0.2672495,4.868289,-3.2540812,1.5388412,-3.973236,-3.2321723,-9.653421,2.4947581
0.26355278,4.864547,-3.2657993,1.5122095,-3.996672,-2.930503,-9.591172,2.408567
0.2598586,4.860823,-3.2657993,1.5122095,-3.996672,-2.930503,-9.591172,2.408567
0.25610992,4.857115,-3.2679298,1.4802517,-4.0201077,-2.72939,-9.576807,2.3558946
0.25235713,4.8534174,-3.2679298,1.4802517,-4.0201077,-2.72939,-9.576807,2.3558946
0.24855886,4.8497524,-3.2594075,1.4450979,-4.0414133,-2.5139117,-9.528923,2.2697031
0.24474974,4.8460917,-3.2594075,1.4450979,-4.0414133,-2.5139117,-9.528923,2.2697031
0.24089679,4.842473,-3.240233,1.4067484,-4.0595226,-2.2744915,-9.466674,2.2840683
0.23704106,4.8388658,-3.240233,1.4067484,-4.0595226,-2.2744915,-9.466674,2.2840683
0.23314615,4.8353076,-3.2104053,1.3662684,-4.074436,-2.0925324,-9.461885,2.2457612
0.22924885,4.8317604,-3.2104053,1.3662684,-4.074436,-2.0925324,-9.461885,2.2457612
0.22531247,4.8282685,-3.1731212,1.3236578,-4.08935,-1.9297266,-9.471462,2.1164744
0.22137436,4.824788,-3.1731212,1.3236578,-4.08935,-1.9297266,-9.471462,2.1164744
0.21739803,4.8213706,-3.12838,1.279982,-4.105329,-1.8052281,-9.428367,1.9249382
0.21342102,4.8179636,-3.12838,1.279982,-4.105329,-1.8052281,-9.428367,1.9249382
0.20939848,4.814617,-3.0825737,1.2363061,-4.121308,-1.685518,-9.485827,1.685518
0.20537688,4.811282,-3.0825737,1.2363061,-4.121308,-1.685518,-9.485827,1.685518
0.20133144,4.808014,-3.0335715,1.191565,-4.1319604,-1.6998832,-9.504981,1.4987702
0.19728877,4.804757,-3.0335715,1.191565,-4.1319604,-1.6998832,-9.504981,1.4987702
0.19320254,4.8015585,-2.9856346,1.1468239,-4.140483,-1.5610195,-9.485827,1.3215994
0.18912086,4.798372,-2.9856346,1.1468239,-4.140483,-1.5610195,-9.485827,1.3215994
0.18499215,4.795232,-2.9398282,1.1052786,-4.145809,-1.388637,-9.509769,1.1731589
0.1808682,4.7921057,-2.9398282,1.1052786,-4.145809,-1.388637,-9.509769,1.1731589
0.1767044,4.7890177,-2.8961525,1.0647985,-4.1468744,-1.3790601,-9.572019,1.0390835
0.17258069,4.7859697,-2.8961525,1.0647985,-4.1468744,-1.3790601,-9.572019,1.0390835
0.16840999,4.78294,-2.854607,1.0253837,-4.137287,-1.1971009,-9.533711,0.90500826
0.16424361,4.779926,-2.854607,1.0253837,-4.137287,-1.1971009,-9.533711,0.90500826
0.16007555,4.776954,-2.814127,0.99023,-4.1234384,-1.1683705,-9.524135,0.79487497
0.1559041,4.7739944,-2.814127,0.99023,-4.1234384,-1.1683705,-9.524135,0.79487497
0.15174003,4.7710695,-2.7747123,0.9550763,-4.1021333,-1.1204864,-9.543288,0.6847417
0.14756748,4.7681556,-2.7747123,0.9550763,-4.1021333,-1.1204864,-9.543288,0.6847417
0.14342067,4.765259,-2.7352974,0.9220531,-4.0712404,-0.9768343,-9.457097,0.5267244
0.13925897,4.762369,-2.7352974,0.9220531,-4.0712404,-0.9768343,-9.457097,0.5267244
0.13513145,4.759509,-2.6980133,0.8911604,-4.0318255,-0.8762778,-9.394848,0.4405331
0.13101695,4.756675,-2.6980133,0.8911604,-4.0318255,-0.8762778,-9.394848,0.4405331
0.12691678,4.7538514,-2.6617942,0.86239827,-3.9860194,-0.79487497,-9.380483,0.36391866
0.12284113,4.751061,-2.6617942,0.86239827,-3.9860194,-0.79487497,-9.380483,0.36391866
0.11880639,4.7483177,-2.6277058,0.83470136,-3.9327562,-0.61291564,-9.313444,0.36391866
0.11476156,4.7455816,-2.6277058,0.83470136,-3.9327562,-0.61291564,-9.313444,0.36391866
0.110766284,4.7428827,-2.5914867,0.80806977,-3.8752317,-0.5602432,-9.294291,0.320823
0.10678146,4.740205,-2.5914867,0.80806977,-3.8752317,-0.5602432,-9.294291,0.320823
0.10286564,4.737587,-2.5531373,0.7814382,-3.8134465,-0.4309563,-9.212888,0.33997664
0.098934494,4.734971,-2.5531373,0.7814382,-3.8134465,-0.4309563,-9.212888,0.33997664
0.09506174,4.7323875,-2.511592,0.7569371,-3.7474,-0.30166942,-9.088389,0.25857377
0.09118843,4.729815,-2.511592,0.7569371,-3.7474,-0.30166942,-9.088389,0.25857377
0.08738681,4.727294,-2.4689813,0.73137075,-3.6770928,-0.20590134,-8.987833,0.23942018
0.08359288,4.724787,-2.4689813,0.73137075,-3.6770928,-0.20590134,-8.987833,0.23942018
0.07986225,4.7223163,-2.4221098,0.7090002,-3.6003935,-0.08619126,-8.815451,0.16759412
0.07613111,4.7198544,-2.4221098,0.7090002,-3.6003935,-0.08619126,-8.815451,0.16759412
0.07246379,4.7174277,-2.3731077,0.68662965,-3.5247598,0.076614454,-8.66701,0.08619126
0.06880994,4.7150183,-2.3731077,0.68662965,-3.5247598,0.076614454,-8.66701,0.08619126
0.06521979,4.712656,-2.3251708,0.66212857,-3.4459302,0.24899697,-8.552089,0.10055647
0.061643336,4.710311,-2.3251708,0.66212857,-3.4459302,0.24899697,-8.552089,0.10055647
0.058134355,4.7079964,-2.2761686,0.639758,-3.3671007,0.41180268,-8.437167,-0.019153614
0.054620616,4.7056856,-2.2761686,0.639758,-3.3671007,0.41180268,-8.437167,-0.019153614
0.051122904,4.7033854,-2.229297,0.61632216,-3.2882712,0.61770403,-8.350976,-0.033518825
0.047754627,4.7011757,-2.229297,0.61632216,-3.2882712,0.61770403,-8.350976,-0.033518825
0.044411216,4.6989794,-2.1824253,0.59395164,-3.2073112,0.7422025,-8.312668,-0.047884032
0.04105019,4.6967773,-2.1824253,0.59395164,-3.2073112,0.7422025,-8.312668,-0.047884032
0.03736294,4.6943703,-2.133423,0.57158107,-3.1263509,0.80445176,-8.269572,0.019153614
0.03736294,4.6943703,-2.133423,0.57158107,-3.1263509,0.80445176,-8.269572,0.019153614
0.03736294,4.6943703,-2.133423,0.57158107,-3.1263509,0.80445176,-8.269572,0.019153614
0.027254956,4.6877904,-2.0854862,0.5502758,-3.0475214,0.91937345,-8.231265,0.062249243
0.024887383,4.6862564,-2.036484,0.5257747,-2.9676266,0.9624691,-8.207323,0.12449849
0.02176426,4.6842365,-2.036484,0.5257747,-2.9676266,0.9624691,-8.207323,0.12449849
0.01849755,4.6821213,-1.9864166,0.4991431,-2.8877318,1.0390835,-8.1881695,0.076614454
0.015849497,4.6804094,-1.9864166,0.4991431,-2.8877318,1.0390835,-8.1881695,0.076614454
0.012924613,4.678517,-1.9363492,0.47251147,-2.8078368,1.0965444,-8.078036,0.04309563
0.009976508,4.676612,-1.9363492,0.47251147,-2.8078368,1.0965444,-8.078036,0.04309563
0.0070851203,4.6747365,-1.8841512,0.44587985,-2.7300725,1.1731589,-7.9870567,-0.10534488
0.004211105,4.672876,-1.8841512,0.44587985,-2.7300725,1.1731589,-7.9870567,-0.10534488
0.0014017697,4.6710377,-1.8362143,0.418183,-2.6523082,1.2354081,-7.872135,-0.30645782
6.281758,4.6691885,-1.8362143,0.418183,-2.6523082,1.2354081,-7.872135,-0.30645782
6.2790446,4.667395,-1.7904079,0.38942084,-2.5756092,1.3072342,-7.7332716,-0.47405192
6.2763257,4.6655993,-1.7904079,0.38942084,-2.5756092,1.3072342,-7.7332716,-0.47405192
6.2736716,4.663829,-1.7499279,0.35959345,-2.4989102,1.4077905,-7.656657,-0.5650316
6.2710195,4.662061,-1.7499279,0.35959345,-2.4989102,1.4077905,-7.656657,-0.5650316
6.2684455,4.660324,-1.7137089,0.3308313,-2.4264722,1.541866,-7.575254,-0.6847417
6.2658687,4.6585855,-1.7137089,0.3308313,-2.4264722,1.541866,-7.575254,-0.6847417
6.2633615,4.656876,-1.6828161,0.3041997,-2.3550994,1.6089035,-7.551312,-0.7134721
6.260856,4.6551695,-1.6828161,0.3041997,-2.3550994,1.6089035,-7.551312,-0.7134721
6.25844,4.6535096,-1.6529888,0.27756807,-2.2858572,1.7046716,-7.4986396,-0.6895301
6.2559624,4.6518097,-1.6529888,0.27756807,-2.2858572,1.7046716,-7.4986396,-0.6895301
6.2536,4.650175,-1.6263572,0.25093648,-2.2187457,1.7956513,-7.465121,-0.641646
6.2512407,4.648543,-1.6263572,0.25093648,-2.2187457,1.7956513,-7.465121,-0.641646
6.248952,4.646942,-1.6018561,0.22537012,-2.1526992,1.8148049,-7.431602,-0.60333884
6.2466106,4.6453056,-1.6018561,0.22537012,-2.1526992,1.8148049,-7.431602,-0.60333884
6.244365,4.643709,-1.5752245,0.19980377,-2.0887833,1.8866309,-7.3789296,-0.6943185
6.2421465,4.6421328,-1.5752245,0.19980377,-2.0887833,1.8866309,-7.3789296,-0.6943185
6.2399883,4.6405783,-1.5496582,0.17317216,-2.0248675,1.9632454,-7.335834,-0.6991069
6.2378254,4.6390214,-1.5496582,0.17317216,-2.0248675,1.9632454,-7.335834,-0.6991069
6.235723,4.63748,-1.5251571,0.1476058,-1.9652127,1.982399,-7.2687964,-0.79008657
6.233603,4.635926,-1.5251571,0.1476058,-1.9652127,1.982399,-7.2687964,-0.79008657
6.231559,4.634411,-1.5017213,0.12310473,-1.9076884,1.982399,-7.264008,-0.7469909
6.229506,4.6328907,-1.5017213,0.12310473,-1.9076884,1.982399,-7.264008,-0.7469909
6.227519,4.631391,-1.4814812,0.09966891,-1.8501642,1.9249382,-7.326257,-0.79008657
6.2255282,4.6298885,-1.4814812,0.09966891,-1.8501642,1.9249382,-7.326257,-0.79008657
6.223591,4.6284018,-1.4655023,0.07942889,-1.7979661,1.9488802,-7.3885064,-0.79966336
6.2216535,4.6269155,-1.4655023,0.07942889,-1.7979661,1.9488802,-7.3885064,-0.79966336
6.2197704,4.625435,-1.4505886,0.061319392,-1.7468334,1.8626889,-7.4603324,-0.8858546
6.2178874,4.623955,-1.4505886,0.061319392,-1.7468334,1.8626889,-7.4603324,-0.8858546
6.2160587,4.622472,-1.4399359,0.043209895,-1.6978313,1.8914193,-7.565677,-1.0486604
6.214232,4.62099,-1.4399359,0.043209895,-1.6978313,1.8914193,-7.565677,-1.0486604
6.2124505,4.6195064,-1.432479,0.02723093,-1.6530902,1.8722657,-7.603985,-1.115698
6.2106724,4.618026,-1.432479,0.02723093,-1.6530902,1.8722657,-7.603985,-1.115698
6.2089376,4.61654,-1.4260875,0.01551302,-1.6115448,1.8674773,-7.608773,-1.2162545
6.207205,4.6150556,-1.4260875,0.01551302,-1.6115448,1.8674773,-7.608773,-1.2162545
6.2055235,4.613568,-1.4218264,0.0048603755,-1.5689343,1.8770541,-7.608773,-1.340753
6.2038403,4.6120787,-1.4218264,0.0048603755,-1.5689343,1.8770541,-7.608773,-1.340753
6.2022057,4.6105804,-1.4207611,-0.005792269,-1.5284543,1.8914193,-7.5848308,-1.4748282
6.200571,4.609083,-1.4207611,-0.005792269,-1.5284543,1.8914193,-7.5848308,-1.4748282
6.1989803,4.6075745,-1.4228916,-0.015379649,-1.4933006,2.0111294,-7.565677,-1.7046716
6.19739,4.6060653,-1.4228916,-0.015379649,-1.4933006,2.0111294,-7.565677,-1.7046716
6.195833,4.604553,-1.4250222,-0.02496703,-1.4602773,2.1212628,-7.503428,-1.7669208
6.1942763,4.603041,-1.4250222,-0.02496703,-1.4602773,2.1212628,-7.503428,-1.7669208
6.1927457,4.601529,-1.4260875,-0.03242388,-1.4283195,2.2409728,-7.431602,-1.7429788
6.1912165,4.6000185,-1.4260875,-0.03242388,-1.4283195,2.2409728,-7.431602,-1.7429788
6.189709,4.598515,-1.423957,-0.033489145,-1.4016877,2.2744915,-7.3071036,-1.6519991
6.1882005,4.5970097,-1.423957,-0.033489145,-1.4016877,2.2744915,-7.3071036,-1.6519991
6.1867013,4.595492,-1.4186306,-0.023901764,-1.3750561,2.15957,-7.3071036,-1.6184803
6.1852374,4.5940094,-1.4186306,-0.023901764,-1.3750561,2.15957,-7.3071036,-1.6184803
6.1837845,4.5925245,-1.4037169,-0.007922798,-1.3430983,2.0829554,-7.3406224,-1.5753847
6.182341,4.59105,-1.4037169,-0.007922798,-1.3430983,2.0829554,-7.3406224,-1.5753847
6.1809163,4.589591,-1.3792158,-0.0015312112,-1.3132708,2.1547816,-7.4363904,-1.6136919
6.1794944,4.588135,-1.3792158,-0.0015312112,-1.3132708,2.1547816,-7.4363904,-1.6136919
6.178095,4.5867176,-1.3525842,-0.0015312112,-1.2866392,2.2409728,-7.5561004,-1.5179238
6.176692,4.5852976,-1.3525842,-0.0015312112,-1.2866392,2.2409728,-7.5561004,-1.5179238
6.175313,4.583912,-1.3227568,0.0005993177,-1.2600076,2.231396,-7.723695,-1.4796166
6.1739354,4.5825276,-1.3227568,0.0005993177,-1.2600076,2.231396,-7.723695,-1.4796166
6.1725807,4.5811706,-1.2907989,0.0069909045,-1.2355065,2.1308396,-7.905654,-1.4987702
6.1712275,4.5798154,-1.2907989,0.0069909045,-1.2355065,2.1308396,-7.905654,-1.4987702
6.169901,4.5784845,-1.2609714,0.020839343,-1.2120707,1.8674773,-8.0684595,-1.4891934
6.168574,4.5771546,-1.2609714,0.020839343,-1.2120707,1.8674773,-8.0684595,-1.4891934
6.167288,4.5758367,-1.2332746,0.040014103,-1.1897001,1.6424223,-8.24563,-1.5897499
6.165999,4.574517,-1.2332746,0.040014103,-1.1897001,1.6424223,-8.24563,-1.5897499
6.164753,4.5732136,-1.2045125,0.057058334,-1.1705254,1.460463,-8.336611,-1.6567876
6.163507,4.5719104,-1.2045125,0.057058334,-1.1705254,1.460463,-8.336611,-1.6567876
6.1623154,4.570624,-1.1768156,0.074102566,-1.1545465,1.2976574,-8.446744,-1.8674773
6.1611247,4.569337,-1.1768156,0.074102566,-1.1545465,1.2976574,-8.446744,-1.8674773
6.159969,4.5680723,-1.1523145,0.090081535,-1.1396327,1.2114661,-8.528147,-2.1643584
6.158814,4.5668077,-1.1523145,0.090081535,-1.1396327,1.2114661,-8.528147,-2.1643584
6.1576915,4.565566,-1.1310092,0.10712577,-1.124719,1.0486604,-8.604761,-2.3080103
6.15657,4.5643244,-1.1310092,0.10712577,-1.124719,1.0486604,-8.604761,-2.3080103
6.155467,4.5631027,-1.1118344,0.1209742,-1.1076748,1.0247183,-8.690952,-2.4420857
6.154365,4.561882,-1.1118344,0.1209742,-1.1076748,1.0247183,-8.690952,-2.4420857
6.153287,4.5606804,-1.093725,0.13482264,-1.0906305,0.91937345,-8.66701,-2.542642
6.1522098,4.5594797,-1.093725,0.13482264,-1.0906305,0.91937345,-8.66701,-2.542642
6.151146,4.5582924,-1.0809418,0.14441001,-1.0725211,0.9528923,-8.700529,-2.6431987
6.1500835,4.557105,-1.0809418,0.14441001,-1.0725211,0.9528923,-8.700529,-2.6431987
6.1490273,4.5559306,-1.0681586,0.15293214,-1.0565422,1.0582372,-8.719683,-2.7341783
6.1479726,4.554756,-1.0681586,0.15293214,-1.0565422,1.0582372,-8.719683,-2.7341783
6.1469293,4.5535955,-1.0553755,0.15825845,-1.0384326,1.13964,-8.714894,-2.6862943
6.145887,4.5524344,-1.0553755,0.15825845,-1.0384326,1.13964,-8.714894,-2.6862943
6.14485,4.551288,-1.041527,0.16038899,-1.0224537,1.2641385,-8.695741,-2.528277
6.143815,4.550143,-1.041527,0.16038899,-1.0224537,1.2641385,-8.695741,-2.528277
6.1427813,4.549013,-1.025548,0.16145425,-1.0086052,1.3742718,-8.671799,-2.4277205
6.1417475,4.5478816,-1.025548,0.16145425,-1.0086052,1.3742718,-8.671799,-2.4277205
6.1407137,4.546774,-1.0063733,0.16358478,-0.995822,1.4939818,-8.580819,-2.3463178
6.1396775,4.5456624,-1.0063733,0.16358478,-0.995822,1.4939818,-8.580819,-2.3463178
6.1386385,4.5445776,-0.98506796,0.16358478,-0.98623466,1.6328455,-8.475474,-2.3319526
6.1375985,4.543492,-0.98506796,0.16358478,-0.98623466,1.6328455,-8.475474,-2.3319526
6.1365576,4.542432,-0.9605669,0.16038899,-0.9777125,1.757344,-8.42759,-2.3654714
6.1355166,4.5413723,-0.9605669,0.16038899,-0.9777125,1.757344,-8.42759,-2.3654714
6.134479,4.5403395,-0.93500054,0.1571932,-0.9670599,1.8052281,-8.288726,-2.3127987
6.1334424,4.539306,-0.93500054,0.1571932,-0.9670599,1.8052281,-8.288726,-2.3127987
6.1323915,4.5382943,-0.9115647,0.1539974,-0.95640725,1.9009962,-8.183381,-2.1930888
6.1313543,4.5372953,-0.9115647,0.1539974,-0.95640725,1.9009962,-8.183381,-2.1930888
6.130274,4.5362844,-0.8870636,0.1508016,-0.94788516,2.0015526,-8.087613,-2.1691468
6.1292677,4.5353436,-0.8870636,0.1508016,-0.94788516,2.0015526,-8.087613,-2.1691468
6.128233,4.534395,-0.86362785,0.14867108,-0.9372325,2.0685902,-8.054094,-2.1739352
6.127193,4.533442,-0.86362785,0.14867108,-0.9372325,2.0685902,-8.054094,-2.1739352
6.1261725,4.532516,-0.8423225,0.14867108,-0.9255146,2.087744,-7.967903,-2.2026656
6.1251493,4.5315866,-0.8423225,0.14867108,-0.9255146,2.087744,-7.967903,-2.2026656
6.124133,4.5306807,-0.8220825,0.14973634,-0.9106009,2.1691468,-7.9248075,-2.1930888
6.123117,4.5297747,-0.8220825,0.14973634,-0.9106009,2.1691468,-7.9248075,-2.1930888
6.1221166,4.5288887,-0.80290776,0.1508016,-0.89355665,2.2122424,-7.872135,-2.2170308
6.121116,4.5280023,-0.80290776,0.1508016,-0.89355665,2.2122424,-7.872135,-2.2170308
6.1201367,4.527134,-0.78479826,0.1508016,-0.87331665,2.207454,-7.8529816,-2.2218192
6.119153,4.5262623,-0.78479826,0.1508016,-0.87331665,2.207454,-7.8529816,-2.2218192
6.118189,4.5254188,-0.767754,0.1508016,-0.8530766,2.2888567,-7.896077,-2.1883004
6.1172214,4.524573,-0.767754,0.1508016,-0.8530766,2.2888567,-7.896077,-2.1883004
6.11628,4.5237427,-0.7517751,0.14973634,-0.82751024,2.2697031,-7.905654,-2.1883004
6.11534,4.522914,-0.7517751,0.14973634,-0.82751024,2.2697031,-7.905654,-2.1883004
6.1143923,4.522073,-0.7357961,0.1476058,-0.79874814,2.2649148,-7.9343843,-2.1499932
6.113506,4.5212874,-0.7357961,0.1476058,-0.79874814,2.2649148,-7.9343843,-2.1499932
6.112609,4.5204964,-0.71981716,0.14441001,-0.76679015,2.255338,-7.97748,-2.0398598
6.111714,4.5197067,-0.71981716,0.14441001,-0.76679015,2.255338,-7.97748,-2.0398598
6.110847,4.518939,-0.7027729,0.1390837,-0.73163646,2.2601264,-8.0445175,-1.9919758
6.109996,4.5181847,-0.7027729,0.1390837,-0.73163646,2.2601264,-8.0445175,-1.9919758
6.109159,4.5174336,-0.6846634,0.13056158,-0.69222164,2.231396,-8.0924015,-1.9440918
6.1083407,4.5167,-0.6846634,0.13056158,-0.69222164,2.231396,-8.0924015,-1.9440918
6.1075487,4.515993,-0.6633581,0.1209742,-0.6528069,2.1978772,-8.09719,-1.8483237
6.1067553,4.515285,-0.6633581,0.1209742,-0.6528069,2.1978772,-8.09719,-1.8483237
6.1060038,4.514596,-0.6399223,0.10925629,-0.60913104,2.1691468,-8.063671,-1.8435353
6.1052594,4.513914,-0.6399223,0.10925629,-0.60913104,2.1691468,-8.063671,-1.8435353
6.104554,4.5132527,-0.6164865,0.09540785,-0.56438994,2.1930888,-8.0924015,-1.8387469
6.1038523,4.512595,-0.6164865,0.09540785,-0.56438994,2.1930888,-8.0924015,-1.8387469
6.10319,4.5119686,-0.59305066,0.08262468,-0.51858354,2.303222,-8.0684595,-1.8004397
6.1025295,4.5113444,-0.59305066,0.08262468,-0.51858354,2.303222,-8.0684595,-1.8004397
6.1019244,4.510724,-0.5706801,0.069841504,-0.47064665,2.2649148,-8.1163435,-1.9057846
6.1013207,4.510106,-0.5706801,0.069841504,-0.47064665,2.2649148,-8.1163435,-1.9057846
6.1007547,4.5095253,-0.54830956,0.057058334,-0.4248403,2.4708161,-8.169016,-1.8483237
6.10019,4.5089464,-0.54830956,0.057058334,-0.4248403,2.4708161,-8.169016,-1.8483237
6.0996714,4.508395,-0.52700424,0.046405688,-0.37796864,2.4708161,-8.24563,-1.8195933
6.0991545,4.5078454,-0.52700424,0.046405688,-0.37796864,2.4708161,-8.24563,-1.8195933
6.098683,4.507302,-0.5046337,0.035753045,-0.33535808,2.2697031,-8.236053,-1.8722657
6.0982127,4.5067606,-0.5046337,0.035753045,-0.33535808,2.2697031,-8.236053,-1.8722657
6.0977926,4.506218,-0.48332843,0.020839343,-0.2959433,2.1643584,-8.178593,-1.9393034
6.0973725,4.505678,-0.48332843,0.020839343,-0.2959433,2.1643584,-8.178593,-1.9393034
6.0969906,4.50515,-0.46202314,0.0027298466,-0.25759378,2.0925324,-8.255207,-1.9297266
6.096615,4.504632,-0.46202314,0.0027298466,-0.25759378,2.0925324,-8.255207,-1.9297266
6.096266,4.5041275,-0.4396526,-0.015379649,-0.21924424,2.1643584,-8.307879,-1.9297266
6.096266,4.5041275,-0.4396526,-0.015379649,-0.21924424,2.1643584,-8.307879,-1.9297266
6.096266,4.5041275,-0.4396526,-0.015379649,-0.21924424,2.1643584,-8.307879,-1.9297266
6.096266,4.5041275,-0.4396526,-0.015379649,-0.21924424,2.1643584,-8.307879,-1.9297266
6.094881,4.5021305,-0.4396526,-0.015379649,-0.21924424,2.1643584,-8.307879,-1.9297266
6.0945907,4.50167,-0.38958514,-0.05692496,-0.145741,2.2266076,-8.336611,-1.8674773
6.094374,4.5012617,-0.360823,-0.078230254,-0.10952201,2.336741,-8.269572,-1.982399
6.094178,4.5008926,-0.360823,-0.078230254,-0.10952201,2.336741,-8.269572,-1.982399
6.09399,4.500508,-0.33099562,-0.10060081,-0.077564076,2.4037786,-8.236053,-1.9632454
6.093802,4.5001245,-0.33099562,-0.10060081,-0.077564076,2.4037786,-8.236053,-1.9632454
6.0936465,4.4997644,-0.30010295,-0.124036625,-0.048801936,2.456451,-8.259995,-1.9919758
6.093491,4.499406,-0.30010295,-0.124036625,-0.048801936,2.456451,-8.259995,-1.9919758
6.093361,4.4990788,-0.2660145,-0.14321138,-0.024300855,2.4756045,-8.298303,-1.982399
6.0932326,4.4987564,-0.2660145,-0.14321138,-0.024300855,2.4756045,-8.298303,-1.982399
6.093126,4.4984746,-0.23192601,-0.16132088,-0.0019303001,2.4372973,-8.355764,-1.9201498
6.09302,4.4981937,-0.23192601,-0.16132088,-0.0019303001,2.4372973,-8.355764,-1.9201498
6.0929403,4.497937,-0.19677228,-0.17943038,0.019374989,2.3511062,-8.350976,-1.9536686
6.0928607,4.4976807,-0.19677228,-0.17943038,0.019374989,2.3511062,-8.350976,-1.9536686
6.0928135,4.497439,-0.16161856,-0.19647461,0.041745543,2.2697031,-8.365341,-2.030283
6.092767,4.497199,-0.16161856,-0.19647461,0.041745543,2.2697031,-8.365341,-2.030283
6.092748,4.496982,-0.12646483,-0.21245357,0.0609203,2.1930888,-8.341399,-2.0494366
6.092729,4.496766,-0.12646483,-0.21245357,0.0609203,2.1930888,-8.341399,-2.0494366
6.0927405,4.4965677,-0.09557216,-0.22630201,0.0790298,2.1452048,-8.418014,-2.1021092
6.0927515,4.4963694,-0.09557216,-0.22630201,0.0790298,2.1452048,-8.418014,-2.1021092
6.092794,4.496187,-0.06574476,-0.23908518,0.0939435,2.111686,-8.51857,-2.1787236
6.0928364,4.4960055,-0.06574476,-0.23908518,0.0939435,2.111686,-8.51857,-2.1787236
6.0928907,4.495854,-0.039113145,-0.25080308,0.10992247,2.1452048,-8.604761,-2.1739352
6.092945,4.495702,-0.039113145,-0.25080308,0.10992247,2.1452048,-8.604761,-2.1739352
6.0930233,4.495566,-0.015677327,-0.26039046,0.12377091,2.1739352,-8.686164,-2.255338
6.0931015,4.4954295,-0.015677327,-0.26039046,0.12377091,2.1739352,-8.686164,-2.255338
6.0932083,4.495304,0.0066932263,-0.26784733,0.13122776,2.0733786,-8.810662,-2.2984335
6.0933156,4.495178,0.0066932263,-0.26784733,0.13122776,2.0733786,-8.810662,-2.2984335
6.093459,4.495061,0.026933251,-0.2742389,0.13548881,1.9488802,-8.848969,-2.3415294
6.0936036,4.494943,0.026933251,-0.2742389,0.13548881,1.9488802,-8.848969,-2.3415294
6.093817,4.4948378,0.043977484,-0.2806305,0.13974987,1.6998832,-8.868123,-2.3223755
6.094028,4.4947333,0.043977484,-0.2806305,0.13974987,1.6998832,-8.868123,-2.3223755
6.0942645,4.494648,0.062086977,-0.29021788,0.1450762,1.6328455,-8.901642,-2.3558946
6.094502,4.4945617,0.062086977,-0.29021788,0.1450762,1.6328455,-8.901642,-2.3558946
6.094755,4.4944925,0.07913121,-0.30087054,0.15146779,1.5849615,-8.863335,-2.3702598
6.0950065,4.4944234,0.07913121,-0.30087054,0.15146779,1.5849615,-8.863335,-2.3702598
6.0952682,4.4943686,0.09404491,-0.30939263,0.15572885,1.532289,-8.892065,-2.4708161
6.0955286,4.4943132,0.09404491,-0.30939263,0.15572885,1.532289,-8.892065,-2.4708161
6.095788,4.4942713,0.11002388,-0.31898,0.1599899,1.5945383,-8.892065,-2.4229321
6.0960464,4.494229,0.11002388,-0.31898,0.1599899,1.5945383,-8.892065,-2.4229321
6.096298,4.494197,0.12387232,-0.32963267,0.16318569,1.6519991,-8.930372,-2.4372973
6.096551,4.4941645,0.12387232,-0.32963267,0.16318569,1.6519991,-8.930372,-2.4372973
6.096789,4.4941435,0.13772075,-0.3370895,0.1599899,1.6998832,-8.925584,-2.5139117
6.0970273,4.4941225,0.13772075,-0.3370895,0.1599899,1.6998832,-8.925584,-2.5139117
6.0972633,4.4941134,0.15050393,-0.3413506,0.15785937,1.6950948,-8.90643,-2.480393
6.0975,4.4941044,0.15050393,-0.3413506,0.15785937,1.6950948,-8.90643,-2.480393
6.0977225,4.4941063,0.16222183,-0.3434811,0.15146779,1.7429788,-8.935161,-2.4851813
6.0979424,4.494108,0.16222183,-0.3434811,0.15146779,1.7429788,-8.935161,-2.4851813
6.098151,4.4941235,0.17607027,-0.34561163,0.1450762,1.7860745,-8.949526,-2.542642
6.098358,4.4941387,0.17607027,-0.34561163,0.1450762,1.7860745,-8.949526,-2.542642
6.0985646,4.4941654,0.18778819,-0.34454638,0.1386846,1.7621324,-8.954314,-2.6144683
6.098771,4.494192,0.18778819,-0.34454638,0.1386846,1.7621324,-8.954314,-2.6144683
6.0989556,4.49423,0.19844083,-0.3413506,0.13016249,1.8339585,-8.939949,-2.6240451
6.0991406,4.494268,0.19844083,-0.3413506,0.13016249,1.8339585,-8.939949,-2.6240451
6.0993147,4.4943175,0.20909347,-0.33602425,0.120575115,1.8291701,-8.925584,-2.60968
6.0994883,4.4943666,0.20909347,-0.33602425,0.120575115,1.8291701,-8.925584,-2.60968
6.099652,4.494425,0.21761559,-0.32963267,0.11098773,1.8243817,-8.868123,-2.6767175
6.0998163,4.4944835,0.21761559,-0.32963267,0.11098773,1.8243817,-8.868123,-2.6767175
6.099963,4.494551,0.22507244,-0.32111055,0.103530884,1.8818425,-8.872911,-2.7102363
6.100111,4.494619,0.22507244,-0.32111055,0.103530884,1.8818425,-8.872911,-2.7102363
6.100239,4.4946976,0.2325293,-0.30939263,0.09820456,1.958457,-8.844181,-2.681506
6.1003656,4.4947762,0.2325293,-0.30939263,0.09820456,1.958457,-8.844181,-2.681506
6.1004806,4.4948654,0.23998614,-0.29874,0.09287824,1.982399,-8.844181,-2.6431987
6.1005945,4.494954,0.23998614,-0.29874,0.09287824,1.982399,-8.844181,-2.6431987
6.100709,4.49505,0.24637774,-0.28595683,0.087551914,1.9680338,-8.872911,-2.7629087
6.100826,4.4951477,0.24637774,-0.28595683,0.087551914,1.9680338,-8.872911,-2.7629087
6.100931,4.495249,0.25170404,-0.2742389,0.08329086,1.9536686,-8.848969,-2.72939
6.101039,4.4953527,0.25170404,-0.2742389,0.08329086,1.9536686,-8.848969,-2.72939
6.101147,4.4954605,0.25489986,-0.2593252,0.08009506,1.8866309,-8.863335,-2.695871
6.101256,4.495569,0.25489986,-0.2593252,0.08009506,1.8866309,-8.863335,-2.695871
6.101363,4.4956803,0.2559651,-0.24547677,0.08009506,1.8914193,-8.868123,-2.777274
6.1014824,4.495804,0.2559651,-0.24547677,0.08009506,1.8914193,-8.868123,-2.777274
6.1015825,4.495906,0.25489986,-0.2326936,0.08222559,1.8435353,-8.916007,-2.6862943
6.1016936,4.4960194,0.25489986,-0.2326936,0.08222559,1.8435353,-8.916007,-2.6862943
6.1018133,4.496133,0.25276932,-0.21884516,0.087551914,1.8004397,-8.930372,-2.695871
6.1019316,4.496245,0.25276932,-0.21884516,0.087551914,1.8004397,-8.930372,-2.695871
6.1020594,4.496356,0.24957353,-0.20712726,0.09500877,1.7717092,-8.978256,-2.681506
6.102187,4.4964676,0.24957353,-0.20712726,0.09500877,1.7717092,-8.978256,-2.681506
6.102325,4.4965777,0.24531247,-0.19647461,0.104596145,1.7525556,-8.978256,-2.6767175
6.102463,4.4966884,0.24531247,-0.19647461,0.104596145,1.7525556,-8.978256,-2.6767175
6.102608,4.496797,0.2410514,-0.18369143,0.11524879,1.7525556,-9.016563,-2.6192567
6.102753,4.4969063,0.2410514,-0.18369143,0.11524879,1.7525556,-9.016563,-2.6192567
6.102911,4.4970107,0.23359455,-0.17090826,0.12803197,1.7238252,-9.011775,-2.5187001
6.103069,4.497115,0.23359455,-0.17090826,0.12803197,1.7238252,-9.011775,-2.5187001
6.103243,4.497216,0.22720297,-0.15919036,0.14188041,1.6950948,-9.040505,-2.504335
6.1034174,4.497317,0.22720297,-0.15919036,0.14188041,1.6950948,-9.040505,-2.504335
6.1036024,4.4974136,0.21974611,-0.14747244,0.15785937,1.70946,-9.074024,-2.480393
6.1037874,4.4975095,0.21974611,-0.14747244,0.15785937,1.70946,-9.074024,-2.480393
6.104001,4.4976025,0.21228927,-0.13468927,0.17383833,1.6424223,-9.121908,-2.4372973
6.104216,4.497696,0.21228927,-0.13468927,0.17383833,1.6424223,-9.121908,-2.4372973
6.104441,4.4977827,0.20376715,-0.122971356,0.18981731,1.6424223,-9.11712,-2.4420857
6.104666,4.4978695,0.20376715,-0.122971356,0.18981731,1.6424223,-9.11712,-2.4420857
6.1048937,4.4979515,0.19737557,-0.11231872,0.20260048,1.6759412,-9.126697,-2.4660277
6.105121,4.498034,0.19737557,-0.11231872,0.20260048,1.6759412,-9.126697,-2.4660277
6.105366,4.498111,0.18885344,-0.10273133,0.21431838,1.6472107,-9.174581,-2.4516625
6.1056104,4.498187,0.18885344,-0.10273133,0.21431838,1.6472107,-9.174581,-2.4516625
6.1058593,4.4982567,0.18033133,-0.093143955,0.22390577,1.6519991,-9.169792,-2.456451
6.1061087,4.498327,0.18033133,-0.093143955,0.22390577,1.6519991,-9.169792,-2.456451
6.1063623,4.498392,0.17393975,-0.0856871,0.23136261,1.6663644,-9.222465,-2.4037786
6.1066165,4.4984574,0.17393975,-0.0856871,0.23136261,1.6663644,-9.222465,-2.4037786
6.106885,4.498519,0.16754816,-0.078230254,0.23562367,1.6280571,-9.270349,-2.360683
6.1071534,4.4985805,0.16754816,-0.078230254,0.23562367,1.6280571,-9.270349,-2.360683
6.10742,4.4986367,0.16115656,-0.07183866,0.2377542,1.6376339,-9.279925,-2.3415294
6.107686,4.498693,0.16115656,-0.07183866,0.2377542,1.6376339,-9.279925,-2.3415294
6.10795,4.4987445,0.15583025,-0.06757761,0.23668894,1.6424223,-9.294291,-2.3319526
6.1082125,4.4987955,0.15583025,-0.06757761,0.23668894,1.6424223,-9.294291,-2.3319526
6.1084843,4.4988446,0.15156919,-0.066512346,0.23668894,1.6328455,-9.361329,-2.2936451
6.108755,4.4988933,0.15156919,-0.066512346,0.23668894,1.6328455,-9.361329,-2.2936451
6.1090183,4.49894,0.15050393,-0.064381815,0.2345584,1.6519991,-9.3421755,-2.2266076
6.1092796,4.498987,0.15050393,-0.064381815,0.2345584,1.6519991,-9.3421755,-2.2266076
6.1095424,4.4990363,0.15156919,-0.062251285,0.23136261,1.6472107,-9.414001,-2.2649148
6.109804,4.4990854,0.15156919,-0.062251285,0.23136261,1.6472107,-9.414001,-2.2649148
6.1100736,4.4991364,0.15263446,-0.06331655,0.22710156,1.6232687,-9.351752,-2.1978772
6.1103406,4.499188,0.15263446,-0.06331655,0.22710156,1.6232687,-9.351752,-2.1978772
6.110639,4.499253,0.15689552,-0.066512346,0.22390577,1.5897499,-9.385271,-2.1547816
6.1109357,4.4993167,0.15689552,-0.066512346,0.22390577,1.5897499,-9.385271,-2.1547816
6.111229,4.499385,0.16222183,-0.06970814,0.22177523,1.5849615,-9.380483,-2.15957
6.111521,4.499452,0.16222183,-0.06970814,0.22177523,1.5849615,-9.380483,-2.15957
6.111835,4.499536,0.16861342,-0.07396919,0.21964471,1.5849615,-9.433155,-2.1260512
6.1121473,4.499619,0.16861342,-0.07396919,0.21964471,1.5849615,-9.433155,-2.1260512
6.1124945,4.499737,0.17607027,-0.079295516,0.21751417,1.5753847,-9.414001,-2.0733786
6.11284,4.499852,0.17607027,-0.079295516,0.21751417,1.5753847,-9.414001,-2.0733786
6.1132116,4.5000305,0.18565765,-0.08462184,0.21857944,1.5370775,-9.404425,-2.030283
6.1135826,4.500207,0.18565765,-0.08462184,0.21857944,1.5370775,-9.404425,-2.030283
6.113941,4.5003486,0.19524503,-0.09207869,0.22070996,1.5514427,-9.375694,-2.054225
6.1142974,4.500487,0.19524503,-0.09207869,0.22070996,1.5514427,-9.375694,-2.054225
6.114649,4.500745,0.20483242,-0.10060081,0.2228405,1.5562311,-9.399636,-1.9776106
6.115001,4.5010023,0.20483242,-0.10060081,0.2228405,1.5562311,-9.399636,-1.9776106
6.1153526,4.501274,0.21548507,-0.108057655,0.2260363,1.5227122,-9.41879,-1.9536686
6.1157045,4.5015454,0.21548507,-0.108057655,0.2260363,1.5227122,-9.41879,-1.9536686
6.1160045,4.501857,0.22720297,-0.11551451,0.22923209,1.5275006,-9.409213,-1.8435353
6.1163034,4.5021677,0.22720297,-0.11551451,0.22923209,1.5275006,-9.409213,-1.8435353
6.1166754,4.502449,0.23998614,-0.124036625,0.23136261,1.4508862,-9.385271,-1.9297266
6.117048,4.50273,0.23998614,-0.124036625,0.23136261,1.4508862,-9.385271,-1.9297266
6.1173916,4.5030527,0.25276932,-0.13042821,0.23881947,1.5179238,-9.409213,-1.910573
6.117735,4.503375,0.25276932,-0.13042821,0.23881947,1.5179238,-9.409213,-1.910573
6.118135,4.503661,0.26342195,-0.13575453,0.24627632,1.2880806,-9.356541,-1.9009962
6.118536,4.5039463,0.26342195,-0.13575453,0.24627632,1.2880806,-9.356541,-1.9009962
6.11884,4.5043054,0.27513987,-0.14427665,0.2526679,1.5275006,-9.56723,-1.70946
6.1191435,4.504665,0.27513987,-0.14427665,0.2526679,1.5275006,-9.56723,-1.70946
6.1194406,4.5050364,0.28685778,-0.15066823,0.25799423,1.5658079,-9.701305,-1.6041151
6.119737,4.5054073,0.28685778,-0.15066823,0.25799423,1.5658079,-9.701305,-1.6041151
6.1200867,4.505787,0.303902,-0.1517335,0.26332054,1.3790601,-9.634268,-1.6759412
6.120436,4.5061665,0.303902,-0.1517335,0.26332054,1.3790601,-9.634268,-1.6759412
6.120436,4.5061665,0.303902,-0.1517335,0.26332054,1.3790601,-9.634268,-1.6759412
6.120436,4.5061665,0.303902,-0.1517335,0.26332054,1.3790601,-9.634268,-1.6759412
6.12182,4.507208,0.33905575,-0.16025561,0.27610373,1.0103531,-9.32781,-1.910573
6.122266,4.5075407,0.33905575,-0.16025561,0.27610373,1.0103531,-9.32781,-1.910573
6.122698,4.5078864,0.35077363,-0.17197353,0.277169,1.13964,-9.375694,-1.8818425
6.1231937,4.508282,0.35077363,-0.17197353,0.277169,1.13964,-9.375694,-1.8818425
6.123525,4.508611,0.35716522,-0.18049563,0.27503845,1.2401965,-9.500193,-1.757344
6.1239386,4.5090203,0.35716522,-0.18049563,0.27503845,1.2401965,-9.500193,-1.757344
6.124322,4.50942,0.3614263,-0.1847567,0.27290794,1.3024458,-9.557653,-1.7669208
6.12472,4.5098352,0.3614263,-0.1847567,0.27290794,1.3024458,-9.557653,-1.7669208
6.1251245,4.510247,0.3646221,-0.18582197,0.2675816,1.316811,-9.557653,-1.8100165
6.1255283,4.5106583,0.3646221,-0.18582197,0.2675816,1.316811,-9.557653,-1.8100165
6.1259503,4.511037,0.36675262,-0.1847567,0.25799423,1.3934253,-9.495404,-1.9057846
6.1263776,4.5114164,0.36675262,-0.1847567,0.25799423,1.3934253,-9.495404,-1.9057846
6.126792,4.511745,0.36781788,-0.1815609,0.24734159,1.340753,-9.471462,-1.9536686
6.127207,4.5120716,0.36781788,-0.1815609,0.24734159,1.340753,-9.471462,-1.9536686
6.1276107,4.512415,0.3646221,-0.17623459,0.23349315,1.3359646,-9.495404,-1.9297266
6.1280136,4.5127554,0.3646221,-0.17623459,0.23349315,1.3359646,-9.495404,-1.9297266
6.1284165,4.5130935,0.3646221,-0.17623459,0.23349315,1.3359646,-9.495404,-1.9297266
6.1288047,4.5134254,0.36036104,-0.17090826,0.21964471,1.2737153,-9.500193,-1.934515
6.129193,4.513755,0.36036104,-0.17090826,0.21964471,1.2737153,-9.500193,-1.934515
6.129568,4.5140824,0.35290417,-0.16558194,0.20686153,1.2258313,-9.471462,-1.9201498
6.1299424,4.5144076,0.35290417,-0.16558194,0.20686153,1.2258313,-9.471462,-1.9201498
6.130304,4.51473,0.34544733,-0.15812509,0.19407836,1.1683705,-9.490616,-1.9153614
6.1306686,4.5150547,0.34544733,-0.15812509,0.19407836,1.1683705,-9.490616,-1.9153614
6.131015,4.5153513,0.33799046,-0.1517335,0.18449098,1.1300632,-9.442732,-1.9488802
6.1313596,4.515646,0.33799046,-0.1517335,0.18449098,1.1300632,-9.442732,-1.9488802
6.131674,4.5159006,0.33159888,-0.14747244,0.17703412,1.2114661,-9.409213,-2.0159178
6.1319876,4.516155,0.33159888,-0.14747244,0.17703412,1.2114661,-9.409213,-2.0159178
6.132304,4.516414,0.32414204,-0.14321138,0.16851202,1.2689269,-9.375694,-1.9440918
6.132616,4.5166693,0.32414204,-0.14321138,0.16851202,1.2689269,-9.375694,-1.9440918
6.132942,4.5169635,0.31775045,-0.13895033,0.1599899,1.2880806,-9.428367,-1.8818425
6.133258,4.5172467,0.31775045,-0.13895033,0.1599899,1.2880806,-9.428367,-1.8818425
6.133538,4.517608,0.31348938,-0.13468927,0.15146779,1.3742718,-9.457097,-1.8195933
6.133823,4.5179734,0.31348938,-0.13468927,0.15146779,1.3742718,-9.457097,-1.8195933
6.134055,4.518357,0.31135887,-0.12829769,0.14401093,1.3120226,-9.452309,-1.685518
6.134288,4.518742,0.31135887,-0.12829769,0.14401093,1.3120226,-9.452309,-1.685518
6.134514,4.5191283,0.31242412,-0.121906094,0.13974987,1.3263878,-9.3661175,-1.6998832
6.1347404,4.519516,0.31242412,-0.121906094,0.13974987,1.3263878,-9.3661175,-1.6998832
6.1350136,4.5198774,0.31561992,-0.11764504,0.1386846,1.2401965,-9.394848,-1.7381904
6.1352897,4.5202403,0.31561992,-0.11764504,0.1386846,1.2401965,-9.394848,-1.7381904
6.1355433,4.5206184,0.3188157,-0.11551451,0.1386846,1.2497733,-9.26556,-1.685518
6.135798,4.520997,0.3188157,-0.11551451,0.1386846,1.2497733,-9.26556,-1.685518
6.136059,4.5213776,0.32307678,-0.110188186,0.13974987,1.2306197,-9.251195,-1.6807296
6.13632,4.5217576,0.32307678,-0.110188186,0.13974987,1.2306197,-9.251195,-1.6807296
6.136534,4.5221653,0.32627258,-0.10486186,0.13974987,1.3072342,-9.23683,-1.6519991
6.136741,4.522558,0.32627258,-0.10486186,0.13974987,1.3072342,-9.23683,-1.6519991
6.1369343,4.522974,0.3284031,-0.10060081,0.14081514,1.340753,-9.260772,-1.6519991
6.1371346,4.523407,0.3284031,-0.10060081,0.14081514,1.340753,-9.260772,-1.6519991
6.1372657,4.523822,0.3284031,-0.09420922,0.14188041,1.4269443,-9.227253,-1.5705963
6.1373963,4.5242386,0.3284031,-0.09420922,0.14188041,1.4269443,-9.227253,-1.5705963
6.137482,4.5246425,0.32733783,-0.08675237,0.14401093,1.4987702,-9.208099,-1.6041151
6.1375656,4.5250425,0.32733783,-0.08675237,0.14401093,1.4987702,-9.208099,-1.6041151
6.1376324,4.525436,0.32414204,-0.08036078,0.14294566,1.4796166,-9.160215,-1.6376339
6.1376977,4.5258303,0.32414204,-0.08036078,0.14294566,1.4796166,-9.160215,-1.6376339
6.137744,4.526205,0.31775045,-0.07290393,0.14081514,1.388637,-9.107543,-1.6998832
6.137782,4.526573,0.31775045,-0.07290393,0.14081514,1.388637,-9.107543,-1.6998832
6.137944,4.5269775,0.30922833,-0.06544708,0.14188041,1.3503298,-9.11712,-1.6519991
6.138106,4.527386,0.30922833,-0.06544708,0.14188041,1.3503298,-9.11712,-1.6519991
6.1381464,4.5277457,0.29964095,-0.06118602,0.13974987,1.388637,-9.112331,-1.685518
6.1381783,4.5280943,0.29964095,-0.06118602,0.13974987,1.388637,-9.112331,-1.685518
6.138255,4.528287,0.28792304,-0.05692496,0.1386846,1.3934253,-9.054871,-1.7477672
6.1383333,4.5284805,0.28792304,-0.05692496,0.1386846,1.3934253,-9.054871,-1.7477672
6.1383605,4.528804,0.27513987,-0.05692496,0.13655408,1.4652514,-9.050082,-1.6280571
6.138386,4.5291257,0.27513987,-0.05692496,0.13655408,1.4652514,-9.050082,-1.6280571
6.1384177,4.5294385,0.2591609,-0.0558597,0.13548881,1.4891934,-9.030929,-1.5945383
6.1384478,4.52975,0.2591609,-0.0558597,0.13548881,1.4891934,-9.030929,-1.5945383
6.138504,4.530068,0.24531247,-0.054794434,0.13655408,1.5035586,-9.050082,-1.5275006
6.1385593,4.530385,0.24531247,-0.054794434,0.13655408,1.5035586,-9.050082,-1.5275006
6.138603,4.5306797,0.2325293,-0.0558597,0.13655408,1.5705963,-9.069236,-1.5131354
6.138646,4.530975,0.2325293,-0.0558597,0.13655408,1.5705963,-9.069236,-1.5131354
6.1386914,4.531259,0.22081138,-0.05692496,0.13761935,1.5705963,-9.040505,-1.4987702
6.138736,4.531543,0.22081138,-0.05692496,0.13761935,1.5705963,-9.040505,-1.4987702
6.138825,4.5318365,0.20802821,-0.057990227,0.1386846,1.4987702,-8.987833,-1.3694834
6.138913,4.532129,0.20802821,-0.057990227,0.1386846,1.4987702,-8.987833,-1.3694834
6.138996,4.5324106,0.19950609,-0.060120758,0.14081514,1.5035586,-9.011775,-1.4077905
6.1390786,4.5326915,0.19950609,-0.060120758,0.14081514,1.5035586,-9.011775,-1.4077905
6.1391897,4.532974,0.19204924,-0.06331655,0.13974987,1.4748282,-9.059659,-1.2737153
6.1393003,4.533256,0.19204924,-0.06331655,0.13974987,1.4748282,-9.059659,-1.2737153
6.1394343,4.533535,0.18672292,-0.066512346,0.14294566,1.4077905,-9.059659,-1.1875241
6.1395693,4.5338163,0.18672292,-0.066512346,0.14294566,1.4077905,-9.059659,-1.1875241
6.139695,4.534087,0.18246186,-0.0707734,0.14720672,1.4556746,-9.078813,-1.2210429
6.1398215,4.5343595,0.18246186,-0.0707734,0.14720672,1.4556746,-9.078813,-1.2210429
6.1399527,4.534629,0.17926607,-0.07503446,0.15253304,1.4891934,-9.188946,-1.2066777
6.1400824,4.534897,0.17926607,-0.07503446,0.15253304,1.4891934,-9.188946,-1.2066777
6.1402082,4.535161,0.17820081,-0.079295516,0.15892464,1.5705963,-9.212888,-1.163582
6.140334,4.535425,0.17820081,-0.079295516,0.15892464,1.5705963,-9.212888,-1.163582
6.140467,4.5356913,0.17926607,-0.08142605,0.16531622,1.5897499,-9.241618,-1.1204864
6.1405997,4.5359554,0.17926607,-0.08142605,0.16531622,1.5897499,-9.241618,-1.1204864
6.1407347,4.5362244,0.1813966,-0.08249131,0.16957727,1.5753847,-9.251195,-1.1827357
6.1408687,4.5364904,0.1813966,-0.08249131,0.16957727,1.5753847,-9.251195,-1.1827357
6.1410217,4.536762,0.1845924,-0.08462184,0.1780994,1.532289,-9.323022,-1.1731589
6.141175,4.537034,0.1845924,-0.08462184,0.1780994,1.532289,-9.323022,-1.1731589
6.1413407,4.5373087,0.18672292,-0.08675237,0.18768677,1.4987702,-9.284714,-1.1827357
6.1415076,4.5375853,0.18672292,-0.08675237,0.18768677,1.4987702,-9.284714,-1.1827357
6.1416836,4.537864,0.19098398,-0.08994816,0.1930131,1.4748282,-9.308656,-1.1923125
6.1418586,4.5381427,0.19098398,-0.08994816,0.1930131,1.4748282,-9.308656,-1.1923125
6.1420426,4.5384283,0.19737557,-0.095274486,0.20046994,1.4700398,-9.323022,-1.2114661
6.1422257,4.5387135,0.19737557,-0.095274486,0.20046994,1.4700398,-9.323022,-1.2114661
6.1424136,4.539005,0.20376715,-0.10060081,0.2079268,1.4987702,-9.370906,-1.2114661
6.1425996,4.5392947,0.20376715,-0.10060081,0.2079268,1.4987702,-9.370906,-1.2114661
6.1427937,4.5395927,0.211224,-0.108057655,0.21538365,1.5035586,-9.414001,-1.2449849
6.1429844,4.539888,0.211224,-0.108057655,0.21538365,1.5035586,-9.414001,-1.2449849
6.1431885,4.5401926,0.21868086,-0.11444924,0.22177523,1.5131354,-9.423578,-1.1683705
6.14339,4.5404954,0.21868086,-0.11444924,0.22177523,1.5131354,-9.423578,-1.1683705
6.1435995,4.540804,0.22507244,-0.122971356,0.22816682,1.5179238,-9.481039,-1.1923125
6.143809,4.5411134,0.22507244,-0.122971356,0.22816682,1.5179238,-9.481039,-1.1923125
6.1440268,4.541431,0.23465982,-0.12936294,0.23668894,1.5227122,-9.495404,-1.1779473
6.144244,4.541748,0.23465982,-0.12936294,0.23668894,1.5227122,-9.495404,-1.1779473
6.144489,4.542077,0.2442472,-0.13575453,0.24627632,1.4508862,-9.572019,-1.1683705
6.144733,4.5424066,0.2442472,-0.13575453,0.24627632,1.4508862,-9.572019,-1.1683705
6.144982,4.542746,0.25489986,-0.14108086,0.25479844,1.4700398,-9.581595,-1.1875241
6.145229,4.543083,0.25489986,-0.14108086,0.25479844,1.4700398,-9.581595,-1.1875241
6.1454945,4.543433,0.2655525,-0.14640717,0.26119003,1.4221559,-9.619903,-1.1683705
6.14576,4.543783,0.2655525,-0.14640717,0.26119003,1.4221559,-9.619903,-1.1683705
6.1460295,4.5441427,0.27513987,-0.15066823,0.2675816,1.4413095,-9.662998,-1.1779473
6.146297,4.544501,0.27513987,-0.15066823,0.2675816,1.4413095,-9.662998,-1.1779473
6.1465864,4.5448694,0.283662,-0.1517335,0.27610373,1.3982137,-9.763555,-1.1300632
6.1468744,4.5452375,0.283662,-0.1517335,0.27610373,1.3982137,-9.763555,-1.1300632
6.147173,4.5456157,0.29324937,-0.1517335,0.2856911,1.4077905,-9.873688,-1.1204864
6.1474724,4.545995,0.29324937,-0.1517335,0.2856911,1.4077905,-9.873688,-1.1204864
6.1477823,4.5463796,0.3007062,-0.14853771,0.2952785,1.3982137,-10.01734,-1.1204864
6.1480937,4.5467663,0.3007062,-0.14853771,0.2952785,1.3982137,-10.01734,-1.1204864
6.1484275,4.547163,0.30922833,-0.14427665,0.30486587,1.340753,-10.189722,-1.1444284
6.1487594,4.547558,0.30922833,-0.14427665,0.30486587,1.340753,-10.189722,-1.1444284
6.149128,4.5479555,0.31348938,-0.13895033,0.3155185,1.2018893,-10.333375,-1.163582
6.1494966,4.548353,0.31348938,-0.13895033,0.3155185,1.2018893,-10.333375,-1.163582
6.1498985,4.5487514,0.31668517,-0.13255873,0.32617116,1.1013328,-10.58716,-1.2306197
6.150301,4.5491505,0.31668517,-0.13255873,0.32617116,1.1013328,-10.58716,-1.2306197
6.1507487,4.549562,0.31668517,-0.122971356,0.33788908,0.9624691,-10.730812,-1.2210429
6.151162,4.5499415,0.31668517,-0.122971356,0.33788908,0.9624691,-10.730812,-1.2210429
6.1516128,4.550313,0.31242412,-0.11338398,0.3485417,0.7757214,-10.922348,-1.2737153
6.152066,4.5506873,0.31242412,-0.11338398,0.3485417,0.7757214,-10.922348,-1.2737153
6.1525497,4.551047,0.30496728,-0.1037966,0.35919434,0.5793968,-11.075577,-1.3311762
6.153031,4.5514045,0.30496728,-0.1037966,0.35919434,0.5793968,-11.075577,-1.3311762
6.153527,4.551751,0.29431462,-0.09420922,0.3730428,0.39264908,-11.267113,-1.2785037
6.154021,4.5520973,0.29431462,-0.09420922,0.3730428,0.39264908,-11.267113,-1.2785037
6.154535,4.552427,0.28153145,-0.08462184,0.38582596,0.20590134,-11.401189,-1.3024458
6.155047,4.552755,0.28153145,-0.08462184,0.38582596,0.20590134,-11.401189,-1.3024458
6.155572,4.55307,0.2655525,-0.078230254,0.39754388,0.11492168,-11.511322,-1.2689269
6.156094,4.553384,0.2655525,-0.078230254,0.39754388,0.11492168,-11.511322,-1.2689269
6.1566253,4.5536785,0.24744299,-0.07290393,0.4081965,-0.08619126,-11.592725,-1.2066777
6.157158,4.553974,0.24744299,-0.07290393,0.4081965,-0.08619126,-11.592725,-1.2066777
6.1576986,4.55425,0.2261377,-0.06757761,0.4145881,-0.19153613,-11.674128,-1.1827357
6.1582365,4.5545235,0.2261377,-0.06757761,0.4145881,-0.19153613,-11.674128,-1.1827357
6.1587763,4.554777,0.20163663,-0.062251285,0.41884917,-0.2873042,-11.717223,-1.0869676
6.1593146,4.5550303,0.20163663,-0.062251285,0.41884917,-0.2873042,-11.717223,-1.0869676
6.159852,4.555257,0.17607027,-0.057990227,0.41565338,-0.34955344,-11.683704,-1.1013328
6.1603894,4.555483,0.17607027,-0.057990227,0.41565338,-0.34955344,-11.683704,-1.1013328
6.1609173,4.555683,0.15156919,-0.052663904,0.40393546,-0.33518824,-11.722012,-1.1540052
6.1614757,4.5558953,0.15156919,-0.052663904,0.40393546,-0.33518824,-11.722012,-1.1540052
6.1614757,4.5558953,0.15156919,-0.052663904,0.40393546,-0.33518824,-11.722012,-1.1540052
6.162481,4.5562105,0.10363229,-0.044141788,0.3666512,-0.2825158,-11.602302,-1.1444284
6.1629305,4.556352,0.10363229,-0.044141788,0.3666512,-0.2825158,-11.602302,-1.1444284
6.1634254,4.556507,0.10363229,-0.044141788,0.3666512,-0.2825158,-11.602302,-1.1444284
6.1638837,4.556636,0.07913121,-0.04201126,0.33575854,-0.20590134,-11.51611,-1.1683705
6.164333,4.556762,0.07913121,-0.04201126,0.33575854,-0.20590134,-11.51611,-1.1683705
6.1647396,4.556861,0.056760654,-0.03988073,0.2952785,-0.15801731,-11.449073,-1.2401965
6.1651573,4.556962,0.056760654,-0.03988073,0.2952785,-0.15801731,-11.449073,-1.2401965
6.165532,4.557048,0.037585896,-0.03988073,0.25160265,-0.04309563,-11.377247,-1.2210429
6.1659055,4.5571337,0.037585896,-0.03988073,0.25160265,-0.04309563,-11.377247,-1.2210429
6.1662297,4.5572004,0.019476399,-0.043076526,0.20046994,0.07182605,-11.209652,-1.2449849
6.166555,4.557267,0.019476399,-0.043076526,0.20046994,0.07182605,-11.209652,-1.2449849
6.166814,4.5573225,0.003497433,-0.047337584,0.13974987,0.20590134,-11.099519,-1.2114661
6.167074,4.557378,0.003497433,-0.047337584,0.13974987,0.20590134,-11.099519,-1.2114661
6.1672626,4.557427,-0.009285741,-0.050533377,0.075834006,0.38307226,-10.994174,-1.1779473
6.167451,4.5574765,-0.009285741,-0.050533377,0.075834006,0.38307226,-10.994174,-1.1779473
6.1675696,4.557516,-0.018873122,-0.05692496,0.0065918155,0.41180268,-10.788273,-1.1540052
6.167689,4.557556,-0.018873122,-0.05692496,0.0065918155,0.41180268,-10.788273,-1.1540052
6.1677427,4.5575852,-0.027395237,-0.06544708,-0.060519844,0.51235914,-10.682928,-1.2066777
6.167797,4.5576143,-0.027395237,-0.06544708,-0.060519844,0.51235914,-10.682928,-1.2066777
6.1677837,4.55764,-0.032721557,-0.07183866,-0.12550098,0.51714754,-10.553641,-1.1587936
6.167771,4.557665,-0.032721557,-0.07183866,-0.12550098,0.51714754,-10.553641,-1.1587936
6.167694,4.557686,-0.03698262,-0.078230254,-0.18835159,0.59855044,-10.414778,-1.1827357
6.1676183,4.5577064,-0.03698262,-0.078230254,-0.18835159,0.59855044,-10.414778,-1.1827357
6.16748,4.557729,-0.039113145,-0.0856871,-0.24374533,0.641646,-10.247183,-1.1300632
6.1673417,4.5577507,-0.039113145,-0.0856871,-0.24374533,0.641646,-10.247183,-1.1300632
6.167151,4.5577703,-0.042308938,-0.09207869,-0.29487804,0.7038953,-10.113108,-1.1492168
6.1669607,4.557789,-0.042308938,-0.09207869,-0.29487804,0.7038953,-10.113108,-1.1492168
6.1667213,4.557808,-0.04443947,-0.09633975,-0.33961913,0.7422025,-9.9790325,-1.1300632
6.166482,4.5578265,-0.04443947,-0.09633975,-0.33961913,0.7422025,-9.9790325,-1.1300632
6.1662116,4.5578365,-0.049765788,-0.10273133,-0.37583813,0.7613561,-9.825804,-1.163582
6.1659417,4.5578465,-0.049765788,-0.10273133,-0.37583813,0.7613561,-9.825804,-1.163582
6.165654,4.557844,-0.056157377,-0.108057655,-0.40246972,0.82360536,-9.682152,-1.2545617
6.1653686,4.5578413,-0.056157377,-0.108057655,-0.40246972,0.82360536,-9.682152,-1.2545617
6.1650605,4.5578337,-0.06361423,-0.11231872,-0.41951397,0.8379706,-9.586384,-1.2306197
6.164752,4.557826,-0.06361423,-0.11231872,-0.41951397,0.8379706,-9.586384,-1.2306197
6.1644063,4.5578203,-0.07213634,-0.11551451,-0.4312319,0.9576807,-9.481039,-1.2354081
6.1640673,4.5578146,-0.07213634,-0.11551451,-0.4312319,0.9576807,-9.481039,-1.2354081
6.1636996,4.557805,-0.08172372,-0.1187103,-0.4365582,1.0151415,-9.385271,-1.2162545
6.1633325,4.5577955,-0.08172372,-0.1187103,-0.4365582,1.0151415,-9.385271,-1.2162545
6.1629114,4.5577784,-0.0945069,-0.12084083,-0.4333624,1.1348516,-9.222465,-1.3311762
6.1624928,4.557761,-0.0945069,-0.12084083,-0.4333624,1.1348516,-9.222465,-1.3311762
6.161985,4.5576944,-0.107290074,-0.122971356,-0.42590556,1.2449849,-9.054871,-1.3311762
6.161479,4.5576296,-0.107290074,-0.122971356,-0.42590556,1.2449849,-9.054871,-1.3311762
6.1609497,4.5574994,-0.120073244,-0.1251019,-0.41418764,1.292869,-8.954314,-1.3790601
6.160423,4.557371,-0.120073244,-0.1251019,-0.41418764,1.292869,-8.954314,-1.3790601
6.159911,4.557233,-0.13392168,-0.12936294,-0.39927393,1.436521,-8.8777,-1.340753
6.1594,4.5570955,-0.13392168,-0.12936294,-0.39927393,1.436521,-8.8777,-1.340753
6.1589026,4.556924,-0.14883539,-0.13255873,-0.38329497,1.484405,-8.719683,-1.364695
6.158403,4.556751,-0.14883539,-0.13255873,-0.38329497,1.484405,-8.719683,-1.364695
6.1579227,4.556558,-0.16161856,-0.13255873,-0.36625075,1.5275006,-8.6334915,-1.3790601
6.1574426,4.556366,-0.16161856,-0.13255873,-0.36625075,1.5275006,-8.6334915,-1.3790601
6.1569843,4.556149,-0.17120594,-0.133624,-0.34494546,1.5945383,-8.480263,-1.412579
6.1565275,4.5559335,-0.17120594,-0.133624,-0.34494546,1.5945383,-8.480263,-1.412579
6.15609,4.5556984,-0.18292385,-0.13575453,-0.3257707,1.685518,-8.374918,-1.4460979
6.1556544,4.5554643,-0.18292385,-0.13575453,-0.3257707,1.685518,-8.374918,-1.4460979
6.1552405,4.5552106,-0.19251123,-0.13468927,-0.30553067,1.7381904,-8.269572,-1.4939818
6.1548185,4.5549517,-0.19251123,-0.13468927,-0.30553067,1.7381904,-8.269572,-1.4939818
6.154434,4.5546937,-0.20103334,-0.133624,-0.2863559,1.8052281,-8.173804,-1.5227122
6.1540422,4.5544295,-0.20103334,-0.133624,-0.2863559,1.8052281,-8.173804,-1.5227122
6.153665,4.5541615,-0.21168599,-0.133624,-0.26718116,1.8626889,-8.1402855,-1.4939818
6.153289,4.553894,-0.21168599,-0.133624,-0.26718116,1.8626889,-8.1402855,-1.4939818
6.152938,4.5535994,-0.2234039,-0.13149348,-0.24907166,1.9249382,-8.1402855,-1.6280571
6.1525865,4.5533047,-0.2234039,-0.13149348,-0.24907166,1.9249382,-8.1402855,-1.6280571
6.152254,4.552997,-0.2351218,-0.12936294,-0.23202743,1.9201498,-8.1402855,-1.6472107
6.1519213,4.552689,-0.2351218,-0.12936294,-0.23202743,1.9201498,-8.1402855,-1.6472107
6.151608,4.5523663,-0.24683972,-0.12829769,-0.21391793,1.8195933,-8.154651,-1.6328455
6.1512957,4.552045,-0.24683972,-0.12829769,-0.21391793,1.8195933,-8.154651,-1.6328455
6.1510386,4.5516815,-0.25749236,-0.12829769,-0.19580843,1.484405,-8.09719,-1.6950948
6.1507826,4.5513206,-0.25749236,-0.12829769,-0.19580843,1.484405,-8.09719,-1.6950948
6.1505866,4.5509353,-0.26707974,-0.13042821,-0.1755684,1.283292,-8.034941,-1.7286136
6.15039,4.5505486,-0.26707974,-0.13042821,-0.1755684,1.283292,-8.034941,-1.7286136
6.1501713,4.550173,-0.27560186,-0.13575453,-0.15213259,1.5658079,-8.135497,-1.7238252
6.1499505,4.549795,-0.27560186,-0.13575453,-0.15213259,1.5658079,-8.135497,-1.7238252
6.1497397,4.549423,-0.28412396,-0.14108086,-0.12550098,1.7525556,-8.293514,-1.733402
6.149528,4.54905,-0.28412396,-0.14108086,-0.12550098,1.7525556,-8.293514,-1.733402
6.1493373,4.54868,-0.29051554,-0.14321138,-0.09886937,1.8148049,-8.350976,-1.7142484
6.149145,4.5483074,-0.29051554,-0.14321138,-0.09886937,1.8148049,-8.350976,-1.7142484
6.148988,4.547915,-0.29584187,-0.14321138,-0.075433545,1.7477672,-8.389283,-1.7908629
6.1488156,4.5474863,-0.29584187,-0.14321138,-0.075433545,1.7477672,-8.389283,-1.7908629
6.148695,4.5471315,-0.29903767,-0.14108086,-0.05412826,1.7812861,-8.408437,-1.8339585
6.1485615,4.546738,-0.29903767,-0.14108086,-0.05412826,1.7812861,-8.408437,-1.8339585
6.148461,4.5463424,-0.30329874,-0.13788506,-0.036018763,1.6950948,-8.432379,-1.8818425
6.148359,4.5459433,-0.30329874,-0.13788506,-0.036018763,1.6950948,-8.432379,-1.8818425
6.148289,4.5455327,-0.30542925,-0.13468927,-0.017909266,1.5705963,-8.418014,-1.8866309
6.148219,4.545123,-0.30542925,-0.13468927,-0.017909266,1.5705963,-8.418014,-1.8866309
6.1481857,4.5447035,-0.3075598,-0.12936294,0.00020022877,1.532289,-8.408437,-2.0398598
6.148152,4.54428,-0.3075598,-0.12936294,0.00020022877,1.532289,-8.408437,-2.0398598
6.148146,4.543857,-0.30969033,-0.12723242,0.016179197,1.508347,-8.39886,-2.1883004
6.14814,4.543432,-0.30969033,-0.12723242,0.016179197,1.508347,-8.39886,-2.1883004
6.1481586,4.543,-0.3160819,-0.124036625,0.030027634,1.4030021,-8.499416,-2.1260512
6.1481767,4.542565,-0.3160819,-0.124036625,0.030027634,1.4030021,-8.499416,-2.1260512
6.1482077,4.5421314,-0.32034296,-0.12084083,0.042810805,1.4221559,-8.585608,-2.1787236
6.148238,4.5416946,-0.32034296,-0.12084083,0.042810805,1.4221559,-8.585608,-2.1787236
6.148276,4.541254,-0.32460403,-0.11551451,0.05133292,1.436521,-8.671799,-2.183512
6.148313,4.540815,-0.32460403,-0.11551451,0.05133292,1.436521,-8.671799,-2.183512
6.148351,4.540372,-0.33099562,-0.109122925,0.05772451,1.460463,-8.858546,-2.135628
6.1483893,4.539925,-0.33099562,-0.109122925,0.05772451,1.460463,-8.858546,-2.135628
6.1484375,4.53948,-0.3341914,-0.1037966,0.0641161,1.4508862,-8.954314,-2.183512
6.148485,4.539034,-0.3341914,-0.1037966,0.0641161,1.4508862,-8.954314,-2.183512
6.1485443,4.538585,-0.33632192,-0.09633975,0.06944242,1.4077905,-8.973468,-2.1883004
6.1486034,4.5381365,-0.33632192,-0.09633975,0.06944242,1.4077905,-8.973468,-2.1883004
6.148675,4.5376873,-0.3373872,-0.08994816,0.073703475,1.3599066,-9.102755,-2.1883004
6.1487465,4.537237,-0.3373872,-0.08994816,0.073703475,1.3599066,-9.102755,-2.1883004
6.1488357,4.5367904,-0.33632192,-0.08462184,0.07796454,1.2880806,-9.184157,-2.2170308
6.1489253,4.5363407,-0.33632192,-0.08462184,0.07796454,1.2880806,-9.184157,-2.2170308
6.1490235,4.535897,-0.33312613,-0.077164985,0.08009506,1.2401965,-9.217676,-2.303222
6.1491218,4.5354543,-0.33312613,-0.077164985,0.08009506,1.2401965,-9.217676,-2.303222
6.1492352,4.5350056,-0.32886508,-0.07183866,0.08222559,1.1779473,-9.303867,-2.3319526
6.1493506,4.5345488,-0.32886508,-0.07183866,0.08222559,1.1779473,-9.303867,-2.3319526
6.1494594,4.5341396,-0.32460403,-0.06864287,0.08435612,1.1540052,-9.337387,-2.3894134
6.149574,4.5337095,-0.32460403,-0.06864287,0.08435612,1.1540052,-9.337387,-2.3894134
6.1497006,4.5332837,-0.3192777,-0.06544708,0.08648665,1.091756,-9.380483,-2.3702598
6.149828,4.532858,-0.3192777,-0.06544708,0.08648665,1.091756,-9.380483,-2.3702598
6.14996,4.5324388,-0.31288612,-0.06331655,0.088617176,1.0582372,-9.41879,-2.4372973
6.1500916,4.5320196,-0.31288612,-0.06331655,0.088617176,1.0582372,-9.41879,-2.4372973
6.1502295,4.531607,-0.3075598,-0.06544708,0.09074771,1.0534488,-9.476251,-2.4037786
6.1503677,4.531194,-0.3075598,-0.06544708,0.09074771,1.0534488,-9.476251,-2.4037786
6.150513,4.530787,-0.30329874,-0.06757761,0.09181297,1.0199299,-9.519346,-2.3989902
6.1506596,4.530377,-0.30329874,-0.06757761,0.09181297,1.0199299,-9.519346,-2.3989902
6.150807,4.529977,-0.29690716,-0.06970814,0.09500877,1.0295067,-9.533711,-2.4037786
6.1509547,4.5295753,-0.29690716,-0.06970814,0.09500877,1.0295067,-9.533711,-2.4037786
6.151099,4.5291815,-0.28838503,-0.07290393,0.09607403,1.0821792,-9.533711,-2.3558946
6.1512456,4.528783,-0.28838503,-0.07290393,0.09607403,1.0821792,-9.533711,-2.3558946
6.151384,4.528399,-0.28092816,-0.07503446,0.09607403,1.1109096,-9.548077,-2.3750482
6.151524,4.5280113,-0.28092816,-0.07503446,0.09607403,1.1109096,-9.548077,-2.3750482
6.15166,4.527631,-0.27240607,-0.079295516,0.09713929,1.1492168,-9.5385,-2.3511062
6.1517963,4.5272503,-0.27240607,-0.079295516,0.09713929,1.1492168,-9.5385,-2.3511062
6.1519213,4.526877,-0.2628187,-0.08355658,0.09713929,1.2162545,-9.504981,-2.327164
6.152046,4.5265036,-0.2628187,-0.08355658,0.09713929,1.2162545,-9.504981,-2.327164
6.1521645,4.5261383,-0.25429657,-0.08675237,0.09500877,1.2210429,-9.428367,-2.4756045
6.1522827,4.525773,-0.25429657,-0.08675237,0.09500877,1.2210429,-9.428367,-2.4756045
6.152387,4.525414,-0.24683972,-0.08888289,0.09074771,1.283292,-9.390059,-2.4612393
6.1524916,4.5250545,-0.24683972,-0.08888289,0.09074771,1.283292,-9.390059,-2.4612393
6.1525893,4.524703,-0.23938286,-0.09207869,0.08542138,1.292869,-9.356541,-2.5234885
6.152687,4.524351,-0.23938286,-0.09207869,0.08542138,1.292869,-9.356541,-2.5234885
6.1527753,4.5240054,-0.23192601,-0.095274486,0.08009506,1.3263878,-9.289502,-2.5905263
6.152864,4.5236597,-0.23192601,-0.095274486,0.08009506,1.3263878,-9.289502,-2.5905263
6.1529446,4.5233197,-0.2265997,-0.09847028,0.075834006,1.3503298,-9.289502,-2.5570073
6.1530256,4.522979,-0.2265997,-0.09847028,0.075834006,1.3503298,-9.289502,-2.5570073
6.153105,4.5226407,-0.22127336,-0.10166607,0.07263821,1.3359646,-9.212888,-2.5378537
6.153183,4.5223074,-0.22127336,-0.10166607,0.07263821,1.3359646,-9.212888,-2.5378537
6.153257,4.521978,-0.21594705,-0.1037966,0.06944242,1.3503298,-9.193734,-2.585738
6.153331,4.5216484,-0.21594705,-0.1037966,0.06944242,1.3503298,-9.193734,-2.585738
6.153391,4.5213237,-0.20955546,-0.108057655,0.06624663,1.4508862,-9.169792,-2.60968
6.153451,4.5210004,-0.20955546,-0.108057655,0.06624663,1.4508862,-9.169792,-2.60968
6.1535125,4.5206842,-0.20103334,-0.11231872,0.06518136,1.4173675,-9.160215,-2.5570073
6.153574,4.5203686,-0.20103334,-0.11231872,0.06518136,1.4173675,-9.160215,-2.5570073
6.1536326,4.5200596,-0.19464175,-0.11338398,0.06518136,1.4317327,-9.131485,-2.5234885
6.153692,4.5197453,-0.19464175,-0.11338398,0.06518136,1.4317327,-9.131485,-2.5234885
6.153692,4.5197453,-0.19464175,-0.11338398,0.06518136,1.4317327,-9.131485,-2.5234885
6.153692,4.5197453,-0.1871849,-0.11444924,0.06731189,1.4030021,-9.074024,-2.585738
6.153692,4.5197453,-0.17972806,-0.11338398,0.07263821,1.436521,-9.054871,-2.542642
6.1539564,4.5185423,-0.17972806,-0.11338398,0.07263821,1.436521,-9.054871,-2.542642
6.15403,4.5182724,-0.17120594,-0.11125345,0.08116033,1.4173675,-9.054871,-2.633622
6.1541114,4.5179715,-0.17120594,-0.11125345,0.08116033,1.4173675,-9.054871,-2.633622
6.154185,4.51772,-0.16481435,-0.110188186,0.08648665,1.436521,-9.059659,-2.6910827
6.1542664,4.5174417,-0.16481435,-0.110188186,0.08648665,1.436521,-9.059659,-2.6910827
6.1543527,4.5171695,-0.15948802,-0.105927125,0.09181297,1.4317327,-9.074024,-2.681506
6.1544385,4.5168967,-0.15948802,-0.105927125,0.09181297,1.4317327,-9.074024,-2.681506
