Pitch,Roll,Gyro_X,Gyro_Y,Gyro_Z,Accel_X,Accel_Y,Accel_Z
6.223062,4.756978,0.075935416,-0.057990227,0.25479844,0.45968673,-9.672575,0.36870706
6.223427,4.7569914,0.075935416,-0.057990227,0.25479844,0.45968673,-9.672575,0.36870706
6.2237997,4.7570114,0.07700068,-0.06118602,0.2590595,0.45010993,-9.586384,0.37349546
6.2241735,4.7570305,0.07700068,-0.06118602,0.2590595,0.45010993,-9.586384,0.37349546
6.2244935,4.757013,0.07700068,-0.06544708,0.26332054,0.50278234,-9.615114,0.33039984
6.2248106,4.7569942,0.07700068,-0.06544708,0.26332054,0.50278234,-9.615114,0.33039984
6.2250757,4.756968,0.07806595,-0.06970814,0.2675816,0.5602432,-9.605537,0.2825158
6.2253394,4.756942,0.07806595,-0.06970814,0.2675816,0.5602432,-9.605537,0.2825158
6.225606,4.756914,0.07700068,-0.07290393,0.27290794,0.5602432,-9.619903,0.33039984
6.2258697,4.7568874,0.07700068,-0.07290393,0.27290794,0.5602432,-9.619903,0.33039984
6.2260995,4.7568645,0.07700068,-0.07503446,0.27503845,0.60333884,-9.643845,0.31603462
6.226327,4.7568417,0.07700068,-0.07503446,0.27503845,0.60333884,-9.643845,0.31603462
6.226503,4.7568417,0.07700068,-0.07503446,0.27503845,0.62249243,-9.639056,0.37349546
6.2266774,4.7568417,0.07700068,-0.07503446,0.27503845,0.62249243,-9.639056,0.37349546
6.226887,4.7568245,0.07700068,-0.07503446,0.27503845,0.61291564,-9.677363,0.33518824
6.227096,4.756808,0.07700068,-0.07503446,0.27503845,0.61291564,-9.677363,0.33518824
6.227235,4.7568517,0.07806595,-0.07609972,0.27610373,0.62728083,-9.672575,0.41180268
6.2273736,4.7568955,0.07806595,-0.07609972,0.27610373,0.62728083,-9.672575,0.41180268
6.2275352,4.756909,0.07913121,-0.07609972,0.27610373,0.6703765,-9.667787,0.35913026
6.2276964,4.7569227,0.07913121,-0.07609972,0.27610373,0.6703765,-9.667787,0.35913026
6.227895,4.756913,0.07913121,-0.07503446,0.27823424,0.61770403,-9.682152,0.34476504
6.2280917,4.756905,0.07913121,-0.07503446,0.27823424,0.61770403,-9.682152,0.34476504
6.228228,4.756976,0.07913121,-0.07503446,0.28036478,0.5793968,-9.696517,0.4309563
6.2283654,4.7570457,0.07913121,-0.07503446,0.28036478,0.5793968,-9.696517,0.4309563
6.2285337,4.7570567,0.07913121,-0.07503446,0.28036478,0.6607997,-9.706094,0.35913026
6.228702,4.757068,0.07913121,-0.07503446,0.28036478,0.6607997,-9.706094,0.35913026
6.2288456,4.7571096,0.08019647,-0.07396919,0.27929953,0.6799533,-9.65821,0.39264908
6.2289896,4.757151,0.08019647,-0.07396919,0.27929953,0.6799533,-9.65821,0.39264908
6.229125,4.757215,0.07806595,-0.07396919,0.27823424,0.7134721,-9.68694,0.4213795
6.22926,4.7572794,0.07806595,-0.07396919,0.27823424,0.7134721,-9.68694,0.4213795
6.2293935,4.7573624,0.07806595,-0.07290393,0.27610373,0.7230489,-9.691729,0.45010993
6.229527,4.7574463,0.07806595,-0.07290393,0.27610373,0.7230489,-9.691729,0.45010993
6.2296615,4.7575374,0.075935416,-0.07183866,0.27503845,0.6703765,-9.720459,0.45968673
6.2297955,4.7576275,0.075935416,-0.07183866,0.27503845,0.6703765,-9.720459,0.45968673
6.229934,4.7576594,0.075935416,-0.06864287,0.2707774,0.7038953,-9.710882,0.38307226
6.230073,4.757692,0.075935416,-0.06864287,0.2707774,0.7038953,-9.710882,0.38307226
6.230194,4.7577677,0.07700068,-0.06757761,0.26438582,0.6464345,-9.753978,0.44532153
6.230315,4.7578435,0.07700068,-0.06757761,0.26438582,0.6464345,-9.753978,0.44532153
6.230433,4.757919,0.07806595,-0.06544708,0.26119003,0.6655881,-9.753978,0.44532153
6.230551,4.7579937,0.07806595,-0.06544708,0.26119003,0.6655881,-9.753978,0.44532153
6.230698,4.758004,0.07700068,-0.06544708,0.26012474,0.641646,-9.768343,0.37349546
6.230846,4.758015,0.07700068,-0.06544708,0.26012474,0.641646,-9.768343,0.37349546
6.2309685,4.75805,0.075935416,-0.06544708,0.2558637,0.641646,-9.816227,0.41180268
6.2310915,4.7580843,0.075935416,-0.06544708,0.2558637,0.641646,-9.816227,0.41180268
6.2312107,4.7581215,0.075935416,-0.06544708,0.25160265,0.62249243,-9.77792,0.4165911
6.231328,4.7581573,0.075935416,-0.06544708,0.25160265,0.62249243,-9.77792,0.4165911
6.231446,4.7581882,0.07700068,-0.066512346,0.24947211,0.59376204,-9.80665,0.4213795
6.2315645,4.7582197,0.07700068,-0.066512346,0.24947211,0.59376204,-9.80665,0.4213795
6.2316856,4.7582474,0.07806595,-0.06864287,0.24840684,0.60333884,-9.768343,0.41180268
6.231806,4.758276,0.07806595,-0.06864287,0.24840684,0.60333884,-9.768343,0.41180268
6.231944,4.758286,0.07806595,-0.0707734,0.24947211,0.63206923,-9.720459,0.36870706
6.232082,4.7582965,0.07806595,-0.0707734,0.24947211,0.63206923,-9.720459,0.36870706
6.2322307,4.7583,0.07806595,-0.07290393,0.25160265,0.6512229,-9.744401,0.33997664
6.2323785,4.7583036,0.07806595,-0.07290393,0.25160265,0.6512229,-9.744401,0.33997664
6.2324905,4.7584014,0.07806595,-0.07609972,0.25160265,0.60333884,-9.691729,0.46447513
6.232602,4.758497,0.07806595,-0.07609972,0.25160265,0.60333884,-9.691729,0.46447513
6.232713,4.758541,0.07913121,-0.079295516,0.24840684,0.61770403,-9.662998,0.4165911
6.2328243,4.758585,0.07913121,-0.079295516,0.24840684,0.61770403,-9.662998,0.4165911
6.2329326,4.7586336,0.07913121,-0.08355658,0.24734159,0.60812724,-9.624691,0.4213795
6.233041,4.758682,0.07913121,-0.08355658,0.24734159,0.60812724,-9.624691,0.4213795
6.2331433,4.7587433,0.07806595,-0.08888289,0.24521105,0.6512229,-9.610326,0.4309563
6.2332444,4.758804,0.07806595,-0.08888289,0.24521105,0.6512229,-9.610326,0.4309563
6.233342,4.758884,0.07806595,-0.093143955,0.24201526,0.60812724,-9.543288,0.45010993
6.23344,4.758963,0.07806595,-0.093143955,0.24201526,0.60812724,-9.543288,0.45010993
6.233569,4.758968,0.075935416,-0.09633975,0.23881947,0.6560113,-9.533711,0.33039984
6.233698,4.7589726,0.075935416,-0.09633975,0.23881947,0.6560113,-9.533711,0.33039984
6.233698,4.7589726,0.075935416,-0.09633975,0.23881947,0.6560113,-9.533711,0.33039984
6.2339334,4.7590027,0.074870154,-0.10060081,0.2377542,0.6847417,-9.519346,0.34476504
6.2340302,4.75903,0.07167436,-0.10486186,0.23349315,0.6847417,-9.490616,0.37828386
6.234128,4.7590566,0.07167436,-0.10486186,0.23349315,0.6847417,-9.490616,0.37828386
6.2342377,4.759059,0.06954383,-0.108057655,0.22710156,0.7278373,-9.471462,0.29688102
6.234349,4.759062,0.06954383,-0.108057655,0.22710156,0.7278373,-9.471462,0.29688102
6.234445,4.759069,0.06528277,-0.109122925,0.22177523,0.7613561,-9.500193,0.31603462
6.2345414,4.759077,0.06528277,-0.109122925,0.22177523,0.7613561,-9.500193,0.31603462
6.2346315,4.7590747,0.058891185,-0.11125345,0.21325313,0.7230489,-9.495404,0.320823
6.2347226,4.759073,0.058891185,-0.11125345,0.21325313,0.7230489,-9.495404,0.320823
6.2347927,4.759078,0.05356486,-0.11338398,0.20260048,0.7326257,-9.509769,0.35434186
6.234863,4.7590837,0.05356486,-0.11338398,0.20260048,0.7326257,-9.509769,0.35434186
6.234913,4.7591066,0.049303804,-0.11551451,0.1930131,0.7517793,-9.528923,0.40222588
6.234963,4.759129,0.049303804,-0.11551451,0.1930131,0.7517793,-9.528923,0.40222588
6.235015,4.759125,0.043977484,-0.11657977,0.18449098,0.7374141,-9.509769,0.35434186
6.2350655,4.759122,0.043977484,-0.11657977,0.18449098,0.7374141,-9.509769,0.35434186
6.2351274,4.7590923,0.03865116,-0.1187103,0.17703412,0.6991069,-9.552865,0.31603462
6.235187,4.7590647,0.03865116,-0.1187103,0.17703412,0.6991069,-9.552865,0.31603462
6.2352223,4.7590513,0.033324838,-0.11977556,0.16957727,0.7038953,-9.543288,0.36870706
6.2352223,4.7590513,0.033324838,-0.11977556,0.16957727,0.7038953,-9.543288,0.36870706
6.235295,4.7590113,0.027998514,-0.12084083,0.1599899,0.6943185,-9.509769,0.33039984
6.235295,4.7590113,0.027998514,-0.12084083,0.1599899,0.6943185,-9.509769,0.33039984
6.235376,4.758939,0.027998514,-0.12084083,0.1599899,0.6943185,-9.509769,0.33039984
6.23539,4.758922,0.022672193,-0.124036625,0.15359831,0.6607997,-9.519346,0.3878607
6.23539,4.758922,0.022672193,-0.124036625,0.15359831,0.6607997,-9.519346,0.3878607
6.23543,4.758853,0.016280606,-0.12616715,0.148272,0.7326257,-9.519346,0.30645782
6.235473,4.7587724,0.012019549,-0.12829769,0.14188041,0.6847417,-9.490616,0.29209262
6.2355046,4.7587113,0.012019549,-0.12829769,0.14188041,0.6847417,-9.490616,0.29209262
6.2355266,4.758649,0.0066932263,-0.13042821,0.13761935,0.7086837,-9.485827,0.29209262
6.235549,4.758586,0.0066932263,-0.13042821,0.13761935,0.7086837,-9.485827,0.29209262
6.235549,4.7585373,0.001366904,-0.13255873,0.13229302,0.7469909,-9.543288,0.33997664
6.2355485,4.758488,0.001366904,-0.13255873,0.13229302,0.7469909,-9.543288,0.33997664
6.2355437,4.758433,-0.0039594183,-0.133624,0.1269667,0.7757214,-9.543288,0.32561144
6.235539,4.758377,-0.0039594183,-0.133624,0.1269667,0.7757214,-9.543288,0.32561144
6.2355213,4.7583265,-0.009285741,-0.133624,0.120575115,0.80924016,-9.595961,0.34955344
6.2355037,4.758277,-0.009285741,-0.133624,0.120575115,0.80924016,-9.595961,0.34955344
6.235476,4.758225,-0.014612063,-0.13255873,0.112053,0.81881696,-9.595961,0.35913026
6.235448,4.7581735,-0.014612063,-0.13255873,0.112053,0.81881696,-9.595961,0.35913026
6.2354054,4.758145,-0.021003649,-0.13149348,0.103530884,0.866701,-9.615114,0.4357447
6.2353625,4.758116,-0.021003649,-0.13149348,0.103530884,0.866701,-9.615114,0.4357447
6.2353144,4.7580624,-0.026329972,-0.12936294,0.09500877,0.81881696,-9.639056,0.3878607
6.235266,4.7580094,-0.026329972,-0.12936294,0.09500877,0.81881696,-9.639056,0.3878607
6.2352104,4.7579474,-0.031656295,-0.12616715,0.08648665,0.80445176,-9.691729,0.38307226
6.235155,4.7578864,-0.031656295,-0.12616715,0.08648665,0.80445176,-9.691729,0.38307226
6.2350893,4.757824,-0.03804788,-0.124036625,0.07796454,0.89064306,-9.710882,0.3878607
6.235023,4.757762,-0.03804788,-0.124036625,0.07796454,0.89064306,-9.710882,0.3878607
6.234946,4.7577124,-0.04443947,-0.122971356,0.06837715,0.866701,-9.782708,0.44532153
6.23487,4.757663,-0.04443947,-0.122971356,0.06837715,0.866701,-9.782708,0.44532153
6.234786,4.757616,-0.048700526,-0.1187103,0.0609203,0.8571242,-9.892841,0.46926352
6.234699,4.757568,-0.048700526,-0.1187103,0.0609203,0.8571242,-9.892841,0.46926352
6.234609,4.757514,-0.05189632,-0.11338398,0.05346345,0.81881696,-9.921572,0.45489833
6.234517,4.7574587,-0.05189632,-0.11338398,0.05346345,0.81881696,-9.921572,0.45489833
6.234418,4.7574186,-0.050831053,-0.11125345,0.04387607,0.7661445,-10.007763,0.48362875
6.234319,4.7573786,-0.050831053,-0.11125345,0.04387607,0.7661445,-10.007763,0.48362875
6.234223,4.757362,-0.050831053,-0.110188186,0.03641922,0.7326257,-10.055647,0.5267244
6.2341266,4.757345,-0.050831053,-0.110188186,0.03641922,0.7326257,-10.055647,0.5267244
6.234039,4.7573476,-0.049765788,-0.109122925,0.031092897,0.7469909,-10.065224,0.5793968
6.2339516,4.7573495,-0.049765788,-0.109122925,0.031092897,0.7469909,-10.065224,0.5793968
6.233848,4.7573338,-0.046569996,-0.108057655,0.031092897,0.7182605,-10.141838,0.51714754
6.233744,4.7573185,-0.046569996,-0.108057655,0.031092897,0.7182605,-10.141838,0.51714754
6.233653,4.7573266,-0.042308938,-0.105927125,0.02896237,0.6703765,-10.117896,0.5363012
6.2335615,4.7573347,-0.042308938,-0.105927125,0.02896237,0.6703765,-10.117896,0.5363012
6.233456,4.7573276,-0.03804788,-0.10486186,0.02896237,0.6512229,-10.156203,0.49799395
6.2333508,4.7573214,-0.03804788,-0.10486186,0.02896237,0.6512229,-10.156203,0.49799395
6.233283,4.7573557,-0.032721557,-0.106992394,0.032158162,0.6560113,-10.160992,0.56982
6.2332153,4.75739,-0.032721557,-0.106992394,0.032158162,0.6560113,-10.160992,0.56982
6.2331395,4.7574215,-0.025264706,-0.110188186,0.037484486,0.7134721,-10.160992,0.5746084
6.2330637,4.757453,-0.025264706,-0.110188186,0.037484486,0.7134721,-10.160992,0.5746084
6.2329865,4.7574873,-0.01674259,-0.11125345,0.041745543,0.7230489,-10.170568,0.5650316
6.232909,4.757522,-0.01674259,-0.11125345,0.041745543,0.7230489,-10.170568,0.5650316
6.2328334,4.757559,-0.010351005,-0.11125345,0.047071867,0.7278373,-10.160992,0.5554548
6.232757,4.7575955,-0.010351005,-0.11125345,0.047071867,0.7278373,-10.160992,0.5554548
6.2326727,4.757615,-0.0028941538,-0.11125345,0.054528717,0.7230489,-10.160992,0.50278234
6.232588,4.757634,-0.0028941538,-0.11125345,0.054528717,0.7230489,-10.160992,0.50278234
6.2325134,4.7576704,0.005627962,-0.11338398,0.059855036,0.79966336,-10.151415,0.5410896
6.232438,4.7577076,0.005627962,-0.11338398,0.059855036,0.79966336,-10.151415,0.5410896
6.2323728,4.757757,0.0141500775,-0.11338398,0.06624663,0.79008657,-10.16578,0.5506664
6.232307,4.757807,0.0141500775,-0.11338398,0.06624663,0.79008657,-10.16578,0.5506664
6.2322474,4.7578635,0.022672193,-0.11231872,0.07263821,0.8283938,-10.199299,0.5602432
6.232187,4.7579207,0.022672193,-0.11231872,0.07263821,0.8283938,-10.199299,0.5602432
6.2321253,4.7579756,0.033324838,-0.110188186,0.07796454,0.8331822,-10.175357,0.5267244
6.232064,4.7580295,0.033324838,-0.110188186,0.07796454,0.8331822,-10.175357,0.5267244
6.232007,4.7580914,0.04291222,-0.105927125,0.08329086,0.80924016,-10.184934,0.51714754
6.23195,4.758153,0.04291222,-0.105927125,0.08329086,0.80924016,-10.184934,0.51714754
6.2318964,4.7582183,0.051434334,-0.1037966,0.088617176,0.80924016,-10.204087,0.50757074
6.231843,4.7582836,0.051434334,-0.1037966,0.088617176,0.80924016,-10.204087,0.50757074
6.2318106,4.75838,0.05995645,-0.10060081,0.09820456,0.770933,-10.16578,0.5506664
6.231778,4.758477,0.05995645,-0.10060081,0.09820456,0.770933,-10.16578,0.5506664
6.2317677,4.758599,0.06847856,-0.09633975,0.106726676,0.78529817,-10.132261,0.60333884
6.231757,4.75872,0.06847856,-0.09633975,0.106726676,0.78529817,-10.132261,0.60333884
6.2317424,4.758835,0.07700068,-0.09420922,0.11524879,0.79008657,-10.079589,0.5602432
6.231727,4.7589498,0.07700068,-0.09420922,0.11524879,0.79008657,-10.079589,0.5602432
6.2317157,4.759066,0.08552279,-0.09207869,0.12270564,0.78050977,-10.0508585,0.5410896
6.2317033,4.7591825,0.08552279,-0.09207869,0.12270564,0.78050977,-10.0508585,0.5410896
6.2316914,4.7592726,0.09297965,-0.08781763,0.13229302,0.7422025,-10.060435,0.47405192
6.2316794,4.759362,0.09297965,-0.08781763,0.13229302,0.7422025,-10.060435,0.47405192
6.2316914,4.7595,0.1004365,-0.08462184,0.14188041,0.6943185,-10.041282,0.5315128
6.231702,4.7596335,0.1004365,-0.08462184,0.14188041,0.6943185,-10.041282,0.5315128
6.2317104,4.7597537,0.10895862,-0.079295516,0.15040252,0.7086837,-9.964667,0.49320555
6.231719,4.759877,0.10895862,-0.079295516,0.15040252,0.7086837,-9.964667,0.49320555
6.2317605,4.7599325,0.11641546,-0.07396919,0.15892464,0.7278373,-9.940725,0.36391866
6.231803,4.7599893,0.11641546,-0.07396919,0.15892464,0.7278373,-9.940725,0.36391866
6.2318277,4.7600775,0.122807056,-0.06864287,0.16425095,0.641646,-9.907207,0.44532153
6.2318544,4.760169,0.122807056,-0.06864287,0.16425095,0.641646,-9.907207,0.44532153
6.231889,4.7602577,0.12919864,-0.06331655,0.16957727,0.62249243,-9.849746,0.4405331
6.231924,4.7603474,0.12919864,-0.06331655,0.16957727,0.62249243,-9.849746,0.4405331
6.231975,4.7604303,0.13559023,-0.057990227,0.17596887,0.5602432,-9.768343,0.44532153
6.2320275,4.7605133,0.13559023,-0.057990227,0.17596887,0.5602432,-9.768343,0.44532153
6.2320647,4.7606497,0.13985129,-0.051598642,0.18022992,0.59376204,-9.739613,0.46926352
6.2321024,4.7607856,0.13985129,-0.051598642,0.18022992,0.59376204,-9.739613,0.46926352
6.2321672,4.76087,0.14304708,-0.047337584,0.18449098,0.5793968,-9.706094,0.4309563
6.2322335,4.7609544,0.14304708,-0.047337584,0.18449098,0.5793968,-9.706094,0.4309563
6.2323318,4.7610207,0.14624287,-0.044141788,0.18875204,0.60333884,-9.615114,0.36870706
6.2324295,4.761087,0.14624287,-0.044141788,0.18875204,0.60333884,-9.615114,0.36870706
6.232535,4.7611513,0.14624287,-0.04201126,0.19194783,0.58418524,-9.605537,0.37828386
6.2326393,4.761215,0.14624287,-0.04201126,0.19194783,0.58418524,-9.605537,0.37828386
6.232691,4.761365,0.14624287,-0.03881547,0.1930131,0.61291564,-9.600749,0.47405192
6.232742,4.7615128,0.14624287,-0.03881547,0.1930131,0.61291564,-9.600749,0.47405192
6.2328043,4.761617,0.14624287,-0.03455441,0.1930131,0.58418524,-9.581595,0.4405331
6.232867,4.761721,0.14624287,-0.03455441,0.1930131,0.58418524,-9.581595,0.4405331
6.232938,4.761815,0.1451776,-0.031358615,0.19407836,0.5746084,-9.576807,0.4357447
6.233009,4.7619085,0.1451776,-0.031358615,0.19407836,0.5746084,-9.576807,0.4357447
6.233082,4.761997,0.1451776,-0.028162822,0.19194783,0.5554548,-9.581595,0.4405331
6.2331557,4.762085,0.1451776,-0.028162822,0.19194783,0.5554548,-9.581595,0.4405331
6.233206,4.7622538,0.14411235,-0.02496703,0.1866215,0.49320555,-9.576807,0.47884035
6.2332516,4.762405,0.14411235,-0.02496703,0.1866215,0.49320555,-9.576807,0.47884035
6.2334847,4.762452,0.14091654,-0.0228365,0.18236046,0.4405331,-9.557653,0.41180268
6.233715,4.7624984,0.14091654,-0.0228365,0.18236046,0.4405331,-9.557653,0.41180268
6.234005,4.762575,0.13772075,-0.0228365,0.17916466,0.36391866,-9.548077,0.4213795
6.2342935,4.7626505,0.13772075,-0.0228365,0.17916466,0.36391866,-9.548077,0.4213795
6.234566,4.7627106,0.1334597,-0.023901764,0.17596887,0.33518824,-9.528923,0.38307226
6.234837,4.7627697,0.1334597,-0.023901764,0.17596887,0.33518824,-9.528923,0.38307226
6.2351155,4.7628317,0.12919864,-0.02496703,0.17383833,0.2873042,-9.552865,0.37349546
6.235392,4.7628927,0.12919864,-0.02496703,0.17383833,0.2873042,-9.552865,0.37349546
6.2356853,4.762968,0.12493758,-0.027097559,0.17170781,0.23942018,-9.581595,0.39743748
6.2359767,4.7630415,0.12493758,-0.027097559,0.17170781,0.23942018,-9.581595,0.39743748
6.236256,4.763098,0.120676525,-0.029228088,0.17064254,0.2633622,-9.600749,0.37828386
6.2365336,4.7631536,0.120676525,-0.029228088,0.17064254,0.2633622,-9.600749,0.37828386
6.236798,4.763198,0.11748073,-0.031358615,0.16744675,0.23942018,-9.548077,0.33518824
6.237061,4.7632413,0.11748073,-0.031358615,0.16744675,0.23942018,-9.548077,0.33518824
6.237334,4.7632895,0.11321967,-0.03455441,0.16531622,0.22026655,-9.557653,0.35913026
6.2376046,4.763337,0.11321967,-0.03455441,0.16531622,0.22026655,-9.557653,0.35913026
6.237901,4.7634234,0.11002388,-0.037750203,0.16105516,0.23463176,-9.552865,0.45489833
6.238197,4.763509,0.11002388,-0.037750203,0.16105516,0.23463176,-9.552865,0.45489833
6.238472,4.763562,0.106828086,-0.03988073,0.1567941,0.24899697,-9.557653,0.41180268
6.2387466,4.7636147,0.106828086,-0.03988073,0.1567941,0.24899697,-9.557653,0.41180268
6.2390366,4.763706,0.10363229,-0.043076526,0.15359831,0.24420857,-9.576807,0.47884035
6.239328,4.7637978,0.10363229,-0.043076526,0.15359831,0.24420857,-9.576807,0.47884035
6.2396145,4.763901,0.09937123,-0.044141788,0.15040252,0.21547815,-9.586384,0.50278234
6.2399025,4.7640047,0.09937123,-0.044141788,0.15040252,0.21547815,-9.586384,0.50278234
6.2401843,4.7640834,0.0972407,-0.048402846,0.14614145,0.22026655,-9.509769,0.46926352
6.2404685,4.764162,0.0972407,-0.048402846,0.14614145,0.22026655,-9.509769,0.46926352
6.2407417,4.7642765,0.09511018,-0.051598642,0.13974987,0.20111294,-9.528923,0.5267244
6.2410135,4.76439,0.09511018,-0.051598642,0.13974987,0.20111294,-9.528923,0.5267244
6.241276,4.76451,0.091914386,-0.05692496,0.13335828,0.20590134,-9.586384,0.545878
6.2415376,4.7646294,0.091914386,-0.05692496,0.13335828,0.20590134,-9.586384,0.545878
6.241779,4.764769,0.089783855,-0.06118602,0.1269667,0.21547815,-9.524135,0.5793968
6.2420216,4.7649097,0.089783855,-0.06118602,0.1269667,0.21547815,-9.524135,0.5793968
6.242257,4.7650456,0.08658806,-0.06544708,0.12164038,0.22505496,-9.576807,0.5793968
6.2424936,4.765182,0.08658806,-0.06544708,0.12164038,0.22505496,-9.576807,0.5793968
6.24271,4.7653284,0.08658806,-0.07183866,0.11524879,0.18195933,-9.586384,0.63206923
6.2429285,4.7654757,0.08658806,-0.07183866,0.11524879,0.18195933,-9.586384,0.63206923
6.243143,4.76562,0.08658806,-0.077164985,0.10992247,0.18674773,-9.591172,0.62249243
6.243358,4.765765,0.08658806,-0.077164985,0.10992247,0.18674773,-9.591172,0.62249243
6.2435656,4.7659125,0.08871859,-0.08249131,0.10566141,0.15801731,-9.624691,0.6464345
6.243775,4.766061,0.08871859,-0.08249131,0.10566141,0.15801731,-9.624691,0.6464345
6.243991,4.766218,0.089783855,-0.08781763,0.103530884,0.11971009,-9.610326,0.6703765
6.2442,4.76637,0.089783855,-0.08781763,0.103530884,0.11971009,-9.610326,0.6703765
6.2442,4.76637,0.091914386,-0.095274486,0.09713929,0.16280572,-9.572019,0.6560113
6.244579,4.7666726,0.091914386,-0.095274486,0.09713929,0.16280572,-9.572019,0.6560113
6.244579,4.7666726,0.091914386,-0.095274486,0.09713929,0.16280572,-9.572019,0.6560113
6.244961,4.7669935,0.091914386,-0.10273133,0.09287824,0.11492168,-9.591172,0.6991069
6.245143,4.767144,0.09404491,-0.109122925,0.087551914,0.1340753,-9.56723,0.6655881
6.245143,4.767144,0.09404491,-0.109122925,0.087551914,0.1340753,-9.56723,0.6655881
6.2453494,4.7673144,0.09404491,-0.109122925,0.087551914,0.1340753,-9.56723,0.6655881
6.2456965,4.7675934,0.09511018,-0.11657977,0.08435612,0.11971009,-9.586384,0.6607997
6.245891,4.767729,0.09617544,-0.124036625,0.07689927,0.110133275,-9.572019,0.61770403
6.2460856,4.767864,0.09617544,-0.124036625,0.07689927,0.110133275,-9.572019,0.61770403
6.2462583,4.7680197,0.09617544,-0.13149348,0.07476874,0.11971009,-9.557653,0.6751649
6.2464304,4.7681746,0.09617544,-0.13149348,0.07476874,0.11971009,-9.557653,0.6751649
6.2465997,4.768332,0.09617544,-0.13788506,0.073703475,0.095768064,-9.56723,0.6991069
6.2467685,4.768489,0.09617544,-0.13788506,0.073703475,0.095768064,-9.56723,0.6991069
6.246925,4.7686524,0.09617544,-0.14640717,0.06944242,0.15322891,-9.595961,0.6895301
6.24708,4.768814,0.09617544,-0.14640717,0.06944242,0.15322891,-9.595961,0.6895301
6.2472043,4.768992,0.0972407,-0.1517335,0.06518136,0.20590134,-9.619903,0.7230489
6.247329,4.769169,0.0972407,-0.1517335,0.06518136,0.20590134,-9.619903,0.7230489
6.247445,4.769349,0.09830597,-0.1549293,0.059855036,0.20111294,-9.591172,0.7374141
6.2475615,4.7695284,0.09830597,-0.1549293,0.059855036,0.20111294,-9.591172,0.7374141
6.2476625,4.769714,0.1004365,-0.15919036,0.054528717,0.24899697,-9.576807,0.6991069
6.2477636,4.769899,0.1004365,-0.15919036,0.054528717,0.24899697,-9.576807,0.6991069
6.247871,4.7700796,0.1004365,-0.16238615,0.049202394,0.22026655,-9.572019,0.7038953
6.247983,4.7702684,0.1004365,-0.16238615,0.049202394,0.22026655,-9.572019,0.7038953
6.248044,4.7704525,0.09937123,-0.16451667,0.041745543,0.2777274,-9.524135,0.7374141
6.248106,4.770642,0.09937123,-0.16451667,0.041745543,0.2777274,-9.524135,0.7374141
6.248175,4.770825,0.09617544,-0.16558194,0.033223428,0.2681506,-9.5385,0.6943185
6.2482443,4.7710085,0.09617544,-0.16558194,0.033223428,0.2681506,-9.5385,0.6943185
6.248303,4.7711897,0.09404491,-0.16451667,0.023636047,0.23942018,-9.56723,0.7613561
6.248362,4.7713714,0.09404491,-0.16451667,0.023636047,0.23942018,-9.56723,0.7613561
6.2484255,4.771545,0.09084912,-0.16451667,0.012983402,0.24420857,-9.586384,0.6991069
6.24849,4.771719,0.09084912,-0.16451667,0.012983402,0.24420857,-9.586384,0.6991069
6.248529,4.7718916,0.08552279,-0.1634514,0.0012654932,0.25857377,-9.562442,0.7134721
6.248529,4.7718916,0.08552279,-0.1634514,0.0012654932,0.25857377,-9.562442,0.7134721
6.248584,4.7721353,0.08552279,-0.1634514,0.0012654932,0.25857377,-9.562442,0.7134721
6.248644,4.7724032,0.08019647,-0.16132088,-0.009387151,0.23942018,-9.610326,0.7278373
6.2486877,4.772555,0.075935416,-0.15812509,-0.018974531,0.20111294,-9.648633,0.7326257
6.2487316,4.772706,0.075935416,-0.15812509,-0.018974531,0.20111294,-9.648633,0.7326257
6.248767,4.7728577,0.07273962,-0.15705982,-0.028561912,0.20590134,-9.634268,0.7278373
6.2488027,4.773009,0.07273962,-0.15705982,-0.028561912,0.20590134,-9.634268,0.7278373
6.248824,4.773158,0.06847856,-0.15705982,-0.036018763,0.20111294,-9.667787,0.7565677
6.2488465,4.773308,0.06847856,-0.15705982,-0.036018763,0.20111294,-9.667787,0.7565677
6.2489038,4.7734265,0.06528277,-0.15599456,-0.045606144,0.15322891,-9.682152,0.6847417
6.248961,4.773545,0.06528277,-0.15599456,-0.045606144,0.15322891,-9.682152,0.6847417
6.248998,4.7736697,0.062086977,-0.15599456,-0.05412826,0.12449849,-9.667787,0.7326257
6.2490354,4.7737947,0.062086977,-0.15599456,-0.05412826,0.12449849,-9.667787,0.7326257
6.249049,4.7739277,0.061021715,-0.15812509,-0.062650375,0.16759412,-9.725247,0.7469909
6.2490635,4.7740607,0.061021715,-0.15812509,-0.062650375,0.16759412,-9.725247,0.7469909
6.249088,4.7741838,0.061021715,-0.16025561,-0.0679767,0.1340753,-9.730036,0.7326257
6.249112,4.774307,0.061021715,-0.16025561,-0.0679767,0.1340753,-9.730036,0.7326257
6.249143,4.774417,0.058891185,-0.1634514,-0.07223775,0.12449849,-9.672575,0.7038953
6.2491746,4.774528,0.058891185,-0.1634514,-0.07223775,0.12449849,-9.672575,0.7038953
6.2492146,4.774626,0.05782592,-0.1666472,-0.07330302,0.11971009,-9.682152,0.6799533
6.249255,4.774723,0.05782592,-0.1666472,-0.07330302,0.11971009,-9.682152,0.6799533
6.2492795,4.7748337,0.056760654,-0.16984299,-0.076498814,0.1388637,-9.653421,0.7038953
6.2493043,4.774944,0.056760654,-0.16984299,-0.076498814,0.1388637,-9.653421,0.7038953
6.2493505,4.775019,0.056760654,-0.17410405,-0.078629345,0.090979666,-9.643845,0.6464345
6.2493963,4.775094,0.056760654,-0.17410405,-0.078629345,0.090979666,-9.643845,0.6464345
6.2494273,4.775194,0.054630127,-0.17729984,-0.077564076,0.10534488,-9.691729,0.7038953
6.2494583,4.7752934,0.054630127,-0.17729984,-0.077564076,0.10534488,-9.691729,0.7038953
6.2494817,4.775401,0.054630127,-0.1815609,-0.077564076,0.10534488,-9.706094,0.7278373
6.249505,4.775508,0.054630127,-0.1815609,-0.077564076,0.10534488,-9.706094,0.7278373
6.2495117,4.775628,0.055695392,-0.18688722,-0.078629345,0.18195933,-9.682152,0.7182605
6.249519,4.7757483,0.055695392,-0.18688722,-0.078629345,0.18195933,-9.682152,0.7182605
6.2495427,4.7758555,0.054630127,-0.19114828,-0.076498814,0.15322891,-9.720459,0.7086837
6.2495666,4.7759624,0.054630127,-0.19114828,-0.076498814,0.15322891,-9.720459,0.7086837
6.249617,4.7760315,0.05356486,-0.19434407,-0.07330302,0.19632454,-9.677363,0.6368576
6.249668,4.7761,0.05356486,-0.19434407,-0.07330302,0.19632454,-9.677363,0.6368576
6.249722,4.776168,0.054630127,-0.19647461,-0.07117249,0.20111294,-9.701305,0.6368576
6.2497754,4.776235,0.054630127,-0.19647461,-0.07117249,0.20111294,-9.701305,0.6368576
6.2498336,4.776292,0.055695392,-0.19753987,-0.06904196,0.22026655,-9.725247,0.62728083
6.2498918,4.7763476,0.055695392,-0.19753987,-0.06904196,0.22026655,-9.725247,0.62728083
6.2499223,4.7764597,0.056760654,-0.19860514,-0.06584617,0.20111294,-9.68694,0.6895301
6.2499537,4.776571,0.056760654,-0.19860514,-0.06584617,0.20111294,-9.68694,0.6895301
6.2499933,4.77668,0.05782592,-0.19860514,-0.06158511,0.21547815,-9.667787,0.6751649
6.2500334,4.7767878,0.05782592,-0.19860514,-0.06158511,0.21547815,-9.667787,0.6751649
6.2500663,4.776908,0.058891185,-0.19860514,-0.056258786,0.20111294,-9.672575,0.7038953
6.2500997,4.777027,0.058891185,-0.19860514,-0.056258786,0.20111294,-9.672575,0.7038953
6.2501597,4.7771263,0.05995645,-0.19860514,-0.050932467,0.25378537,-9.677363,0.6512229
6.250221,4.7772245,0.05995645,-0.19860514,-0.050932467,0.25378537,-9.677363,0.6512229
6.2502236,4.7771883,0.05995645,-0.19753987,-0.04454088,0.25857377,-9.643845,0.5363012
6.2502265,4.777152,0.05995645,-0.19753987,-0.04454088,0.25857377,-9.643845,0.5363012
6.250307,4.7772455,0.05995645,-0.19647461,-0.034953497,0.25857377,-9.672575,0.6464345
6.2503877,4.777338,0.05995645,-0.19647461,-0.034953497,0.25857377,-9.672575,0.6464345
6.2503543,4.7774887,0.05782592,-0.19434407,-0.026431382,0.31124622,-9.605537,0.7134721
6.250321,4.777639,0.05782592,-0.19434407,-0.026431382,0.31124622,-9.605537,0.7134721
6.250289,4.777589,0.055695392,-0.19114828,-0.020039797,0.31603462,-9.610326,0.545878
6.2502575,4.7775393,0.055695392,-0.19114828,-0.020039797,0.31603462,-9.610326,0.545878
6.250235,4.7774887,0.054630127,-0.18582197,-0.01151768,0.31603462,-9.586384,0.59855044
6.2502136,4.7774377,0.054630127,-0.18582197,-0.01151768,0.31603462,-9.586384,0.59855044
6.2500715,4.7774405,0.051434334,-0.17943038,-0.004060829,0.40701428,-9.581595,0.59376204
6.2499294,4.777443,0.051434334,-0.17943038,-0.004060829,0.40701428,-9.581595,0.59376204
6.249787,4.777465,0.04823854,-0.17090826,0.005526551,0.4309563,-9.528923,0.60333884
6.2496448,4.7774854,0.04823854,-0.17090826,0.005526551,0.4309563,-9.528923,0.60333884
6.2495084,4.7775106,0.045042746,-0.16132088,0.012983402,0.5506664,-9.548077,0.59855044
6.2493725,4.777536,0.045042746,-0.16132088,0.012983402,0.5506664,-9.548077,0.59855044
6.2492447,4.7775435,0.041846953,-0.15066823,0.016179197,0.545878,-9.548077,0.5746084
6.249117,4.7775507,0.041846953,-0.15066823,0.016179197,0.545878,-9.548077,0.5746084
6.248988,4.777569,0.03652063,-0.13895033,0.019374989,0.62728083,-9.557653,0.59376204
6.24886,4.7775865,0.03652063,-0.13895033,0.019374989,0.62728083,-9.557653,0.59376204
6.248737,4.7776427,0.033324838,-0.12723242,0.019374989,0.6512229,-9.552865,0.6895301
6.2486134,4.7776985,0.033324838,-0.12723242,0.019374989,0.6512229,-9.552865,0.6895301
6.2484894,4.777747,0.030129045,-0.11444924,0.019374989,0.6895301,-9.572019,0.6847417
6.2483625,4.7777967,0.030129045,-0.11444924,0.019374989,0.6895301,-9.572019,0.6847417
6.248242,4.777807,0.025867987,-0.10166607,0.022570781,0.62249243,-9.56723,0.60333884
6.2481184,4.7778187,0.025867987,-0.10166607,0.022570781,0.62249243,-9.56723,0.60333884
6.2479963,4.777855,0.019476399,-0.08781763,0.020440254,0.6607997,-9.576807,0.6751649
6.2478743,4.777891,0.019476399,-0.08781763,0.020440254,0.6607997,-9.576807,0.6751649
6.24775,4.7779207,0.0141500775,-0.07609972,0.018309724,0.6464345,-9.595961,0.6703765
6.247626,4.7779503,0.0141500775,-0.07609972,0.018309724,0.6464345,-9.595961,0.6703765
6.2475004,4.777972,0.00988902,-0.06331655,0.01724446,0.58897364,-9.615114,0.6560113
6.247375,4.7779937,0.00988902,-0.06331655,0.01724446,0.58897364,-9.615114,0.6560113
6.2472506,4.7780113,0.005627962,-0.052663904,0.01724446,0.5746084,-9.634268,0.6560113
6.2471256,4.778029,0.005627962,-0.052663904,0.01724446,0.5746084,-9.634268,0.6560113
6.247001,4.7780294,0.001366904,-0.044141788,0.018309724,0.5267244,-9.591172,0.63206923
6.2468762,4.7780304,0.001366904,-0.044141788,0.018309724,0.5267244,-9.591172,0.63206923
6.2467685,4.7779837,0.00030163955,-0.03455441,0.018309724,0.48362875,-9.581595,0.5793968
6.24666,4.777936,0.00030163955,-0.03455441,0.018309724,0.48362875,-9.581595,0.5793968
6.246562,4.777876,-0.0028941538,-0.027097559,0.019374989,0.49799395,-9.557653,0.5554548
6.246464,4.777816,-0.0028941538,-0.027097559,0.019374989,0.49799395,-9.557653,0.5554548
6.2463565,4.777766,-0.0050246827,-0.020705972,0.019374989,0.4309563,-9.557653,0.59855044
6.2462487,4.7777166,-0.0050246827,-0.020705972,0.019374989,0.4309563,-9.557653,0.59855044
6.24616,4.7776456,-0.0071552116,-0.015379649,0.020440254,0.4309563,-9.552865,0.5793968
6.246072,4.7775745,-0.0071552116,-0.015379649,0.020440254,0.4309563,-9.552865,0.5793968
6.245969,4.777514,-0.0114162695,-0.011118591,0.021505518,0.4261679,-9.586384,0.59855044
6.245866,4.777454,-0.0114162695,-0.011118591,0.021505518,0.4261679,-9.586384,0.59855044
6.245747,4.7774286,-0.013546798,-0.005792269,0.023636047,0.40701428,-9.610326,0.62249243
6.245629,4.777404,-0.013546798,-0.005792269,0.023636047,0.40701428,-9.610326,0.62249243
6.245584,4.7773056,-0.015677327,-0.0015312112,0.023636047,0.40701428,-9.610326,0.56982
6.2455387,4.7772064,-0.015677327,-0.0015312112,0.023636047,0.40701428,-9.610326,0.56982
6.24552,4.7770967,-0.015677327,0.0027298466,0.023636047,0.37349546,-9.667787,0.60812724
6.2455006,4.776987,-0.015677327,0.0027298466,0.023636047,0.37349546,-9.667787,0.60812724
6.2456503,4.7769265,-0.015677327,0.00592564,0.024701312,0.320823,-9.643845,0.60812724
6.2456503,4.7769265,-0.015677327,0.00592564,0.024701312,0.320823,-9.643845,0.60812724
6.245959,4.776807,-0.01674259,0.008056169,0.025766576,0.30166942,-9.619903,0.60333884
6.246114,4.7767515,-0.01674259,0.008056169,0.025766576,0.30166942,-9.619903,0.60333884
6.246277,4.7767262,-0.01674259,0.010186698,0.02683184,0.272939,-9.672575,0.61770403
6.246443,4.776701,-0.01674259,0.010186698,0.02683184,0.272939,-9.672575,0.61770403
6.246578,4.776623,-0.015677327,0.011251962,0.02683184,0.25857377,-9.65821,0.5650316
6.246714,4.7765436,-0.015677327,0.011251962,0.02683184,0.25857377,-9.65821,0.5650316
6.2468796,4.776519,-0.012481534,0.011251962,0.025766576,0.2777274,-9.725247,0.61770403
6.247045,4.776494,-0.012481534,0.011251962,0.025766576,0.2777274,-9.725247,0.61770403
6.24721,4.7764664,-0.010351005,0.011251962,0.02683184,0.30166942,-9.725247,0.61770403
6.2473755,4.7764387,-0.010351005,0.011251962,0.02683184,0.30166942,-9.725247,0.61770403
6.2474275,4.7765293,-0.0071552116,0.009121433,0.025766576,0.34476504,-9.753978,0.6464345
6.2474775,4.77662,-0.0071552116,0.009121433,0.025766576,0.34476504,-9.753978,0.6464345
6.2475677,4.776701,-0.0071552116,0.009121433,0.024701312,0.33997664,-9.811439,0.6464345
6.247656,4.7767825,-0.0071552116,0.009121433,0.024701312,0.33997664,-9.811439,0.6464345
6.247656,4.7767825,-0.0071552116,0.009121433,0.024701312,0.33997664,-9.811439,0.6464345
6.247863,4.7766,-0.0071552116,0.010186698,0.021505518,0.30645782,-9.849746,0.58897364
6.247986,4.776658,-0.0050246827,0.012317227,0.01724446,0.320823,-9.921572,0.6560113
6.248111,4.776717,-0.0050246827,0.012317227,0.01724446,0.320823,-9.921572,0.6560113
6.248111,4.776717,-0.0050246827,0.012317227,0.01724446,0.320823,-9.921572,0.6560113
6.2482195,4.7768106,-0.0028941538,0.012317227,0.011918138,0.320823,-9.89763,0.6655881
6.248433,4.77686,-0.0018288894,0.011251962,0.008722344,0.2873042,-9.988609,0.63206923
6.248433,4.77686,-0.0018288894,0.011251962,0.008722344,0.2873042,-9.988609,0.63206923
6.2487187,4.776822,-0.0007636249,0.011251962,0.0023307577,0.22026655,-9.9790325,0.7230489
6.2488165,4.7768817,-0.0007636249,0.011251962,0.0023307577,0.22026655,-9.9790325,0.7230489
6.2489524,4.7769017,0.0024321685,0.010186698,-0.0019303001,0.24420857,-10.031705,0.6607997
6.249089,4.776922,0.0024321685,0.010186698,-0.0019303001,0.24420857,-10.031705,0.6607997
6.249214,4.776963,0.0045626974,0.008056169,-0.0051260935,0.16759412,-9.998186,0.6943185
6.2493396,4.777004,0.0045626974,0.008056169,-0.0051260935,0.16759412,-9.998186,0.6943185
6.2493396,4.777004,0.0045626974,0.008056169,-0.0051260935,0.16759412,-9.998186,0.6943185
6.249488,4.777043,0.0066932263,0.003795111,-0.0072566224,0.1388637,-10.031705,0.6895301
6.249725,4.777084,0.010954284,0.0005993177,-0.0072566224,0.019153614,-10.012551,0.62249243
6.249857,4.7770834,0.010954284,0.0005993177,-0.0072566224,0.019153614,-10.012551,0.62249243
6.249989,4.7771053,0.016280606,-0.0025964756,-0.0072566224,0.095768064,-9.9790325,0.6560113
6.2501206,4.777127,0.016280606,-0.0025964756,-0.0072566224,0.095768064,-9.9790325,0.6560113
6.2502546,4.7771435,0.02160693,-0.007922798,-0.006191358,0.04309563,-9.9790325,0.6368576
6.2503858,4.7771597,0.02160693,-0.007922798,-0.006191358,0.04309563,-9.9790325,0.6368576
6.250519,4.7771606,0.027998514,-0.012183856,-0.0019303001,0.019153614,-9.940725,0.58418524
6.250653,4.7771616,0.027998514,-0.012183856,-0.0019303001,0.019153614,-9.940725,0.58418524
6.2507915,4.7771673,0.033324838,-0.017510178,0.0044612866,0.0047884034,-9.907207,0.5793968
6.2509294,4.777173,0.033324838,-0.017510178,0.0044612866,0.0047884034,-9.907207,0.5793968
6.2510657,4.777167,0.03865116,-0.0228365,0.011918138,0.06703765,-9.931149,0.5554548
6.2512026,4.7771606,0.03865116,-0.0228365,0.011918138,0.06703765,-9.931149,0.5554548
6.2513523,4.7771683,0.04291222,-0.029228088,0.019374989,0.038307227,-9.888053,0.56982
6.2515016,4.7771764,0.04291222,-0.029228088,0.019374989,0.038307227,-9.888053,0.56982
6.2516522,4.7771807,0.049303804,-0.035619672,0.02683184,0.10055647,-9.859323,0.5650316
6.2518024,4.7771845,0.049303804,-0.035619672,0.02683184,0.10055647,-9.859323,0.5650316
6.2519217,4.7771606,0.05356486,-0.040945996,0.031092897,0.18195933,-9.830592,0.5315128
6.2520404,4.777137,0.05356486,-0.040945996,0.031092897,0.18195933,-9.830592,0.5315128
6.2521524,4.777112,0.058891185,-0.045207053,0.035353955,0.19153613,-9.80665,0.51714754
6.2522655,4.7770863,0.058891185,-0.045207053,0.035353955,0.19153613,-9.80665,0.51714754
6.252364,4.7770605,0.06421751,-0.047337584,0.039615013,0.21068975,-9.734824,0.50278234
6.252463,4.7770343,0.06421751,-0.047337584,0.039615013,0.21068975,-9.734824,0.50278234
6.2525296,4.777002,0.0674133,-0.051598642,0.040680278,0.25378537,-9.730036,0.47405192
6.2525935,4.776971,0.0674133,-0.051598642,0.040680278,0.25378537,-9.730036,0.47405192
6.252627,4.7769394,0.06954383,-0.054794434,0.042810805,0.30645782,-9.730036,0.48841715
6.25266,4.776908,0.06954383,-0.054794434,0.042810805,0.30645782,-9.730036,0.48841715
6.252663,4.7768817,0.07167436,-0.054794434,0.04387607,0.35913026,-9.691729,0.46447513
6.252666,4.7768555,0.07167436,-0.054794434,0.04387607,0.35913026,-9.691729,0.46447513
6.2526574,4.7768335,0.07167436,-0.0558597,0.047071867,0.3878607,-9.629479,0.45489833
6.2526484,4.7768106,0.07167436,-0.0558597,0.047071867,0.3878607,-9.629479,0.45489833
6.2526245,4.776794,0.07167436,-0.05692496,0.049202394,0.40222588,-9.591172,0.48362875
6.2526,4.7767777,0.07167436,-0.05692496,0.049202394,0.40222588,-9.591172,0.48362875
6.252515,4.7768064,0.07060909,-0.059055492,0.047071867,0.51714754,-9.548077,0.545878
6.252429,4.7768354,0.07060909,-0.059055492,0.047071867,0.51714754,-9.548077,0.545878
6.2523847,4.7768226,0.06847856,-0.060120758,0.044941336,0.49799395,-9.533711,0.4261679
6.2523403,4.77681,0.06847856,-0.060120758,0.044941336,0.49799395,-9.533711,0.4261679
6.252261,4.776817,0.06634804,-0.059055492,0.039615013,0.5602432,-9.504981,0.47884035
6.252182,4.7768235,0.06634804,-0.059055492,0.039615013,0.5602432,-9.504981,0.47884035
6.252116,4.7768097,0.05995645,-0.057990227,0.035353955,0.58418524,-9.485827,0.39743748
6.2520504,4.7767954,0.05995645,-0.057990227,0.035353955,0.58418524,-9.485827,0.39743748
6.251949,4.7767982,0.0524996,-0.0558597,0.025766576,0.6560113,-9.442732,0.46926352
6.2518477,4.7768016,0.0524996,-0.0558597,0.025766576,0.6560113,-9.442732,0.46926352
6.2517323,4.776799,0.043977484,-0.04946811,0.014048667,0.7469909,-9.394848,0.44532153
6.2516174,4.776797,0.043977484,-0.04946811,0.014048667,0.7469909,-9.394848,0.44532153
6.2514772,4.776806,0.034390103,-0.040945996,-0.0008650357,0.79008657,-9.370906,0.51714754
6.2513375,4.7768145,0.034390103,-0.040945996,-0.0008650357,0.79008657,-9.370906,0.51714754
6.2511864,4.776801,0.02160693,-0.03242388,-0.016844003,0.79487497,-9.3421755,0.47405192
6.2510357,4.7767878,0.02160693,-0.03242388,-0.016844003,0.79487497,-9.3421755,0.47405192
6.2508636,4.7767663,0.010954284,-0.021771235,-0.037084028,0.8619126,-9.3421755,0.46926352
6.2506914,4.776745,0.010954284,-0.021771235,-0.037084028,0.8619126,-9.3421755,0.46926352
6.250499,4.776707,-0.0018288894,-0.012183856,-0.060519844,0.81881696,-9.294291,0.45968673
6.250306,4.7766695,-0.0018288894,-0.012183856,-0.060519844,0.81881696,-9.294291,0.45968673
6.2500877,4.7766237,-0.01674259,-0.0015312112,-0.08395566,0.82360536,-9.346964,0.48841715
6.2498693,4.776578,-0.01674259,-0.0015312112,-0.08395566,0.82360536,-9.346964,0.48841715
6.2496276,4.7765207,-0.03059103,0.008056169,-0.107391484,0.78529817,-9.3421755,0.50757074
6.249386,4.7764645,-0.03059103,0.008056169,-0.107391484,0.78529817,-9.3421755,0.50757074
6.2491183,4.7763953,-0.045504734,0.014447756,-0.13189256,0.7757214,-9.3421755,0.51714754
6.2488513,4.776326,-0.045504734,0.014447756,-0.13189256,0.7757214,-9.3421755,0.51714754
6.2485604,4.776243,-0.05935317,0.019774077,-0.15639365,0.7134721,-9.337387,0.5267244
6.248273,4.776161,-0.05935317,0.019774077,-0.15639365,0.7134721,-9.337387,0.5267244
6.2479773,4.7760363,-0.07107108,0.0251004,-0.1787642,0.6703765,-9.44752,0.44532153
6.2476797,4.7759104,-0.07107108,0.0251004,-0.1787642,0.6703765,-9.44752,0.44532153
6.2473526,4.7757883,-0.08172372,0.02723093,-0.20220003,0.58418524,-9.433155,0.51714754
6.2470284,4.775666,-0.08172372,0.02723093,-0.20220003,0.58418524,-9.433155,0.51714754
6.2466936,4.7755165,-0.09024584,0.026165664,-0.2235053,0.5602432,-9.423578,0.47884035
6.246356,4.775366,-0.09024584,0.026165664,-0.2235053,0.5602432,-9.423578,0.47884035
6.2460127,4.7752047,-0.09663743,0.024035135,-0.24268007,0.5315128,-9.44752,0.47884035
6.2456694,4.775043,-0.09663743,0.024035135,-0.24268007,0.5315128,-9.44752,0.47884035
6.245314,4.7748723,-0.10089848,0.019774077,-0.2597243,0.5267244,-9.423578,0.46447513
6.245314,4.7748723,-0.10089848,0.019774077,-0.2597243,0.5267244,-9.423578,0.46447513
6.2445583,4.7745557,-0.106224805,0.01551302,-0.274638,0.58897364,-9.481039,0.545878
6.2441287,4.774417,-0.106224805,0.01551302,-0.274638,0.58897364,-9.481039,0.545878
6.2437305,4.7742867,-0.1094206,0.012317227,-0.28742117,0.6943185,-9.466674,0.51714754
6.243315,4.774151,-0.1094206,0.012317227,-0.28742117,0.6943185,-9.466674,0.51714754
6.242874,4.7740355,-0.11261639,0.008056169,-0.30340013,0.80924016,-9.504981,0.5746084
6.242432,4.77392,-0.11261639,0.008056169,-0.30340013,0.80924016,-9.504981,0.5746084
6.241975,4.773782,-0.11581218,0.00592564,-0.32150963,0.89543146,-9.548077,0.50278234
6.241517,4.773644,-0.11581218,0.00592564,-0.32150963,0.89543146,-9.548077,0.50278234
6.241036,4.773525,-0.11794271,0.008056169,-0.34281492,0.9911995,-9.524135,0.5746084
6.2405543,4.7734065,-0.11794271,0.008056169,-0.34281492,0.9911995,-9.524135,0.5746084
6.240049,4.77329,-0.122203775,0.012317227,-0.367316,1.0342951,-9.552865,0.60333884
6.239541,4.773174,-0.122203775,0.012317227,-0.367316,1.0342951,-9.552865,0.60333884
6.2390103,4.773069,-0.1275301,0.019774077,-0.39820868,1.0869676,-9.581595,0.6847417
6.2384777,4.7729645,-0.1275301,0.019774077,-0.39820868,1.0869676,-9.581595,0.6847417
6.2379136,4.7728553,-0.13285641,0.029361458,-0.42910135,0.9624691,-9.591172,0.6655881
6.2373543,4.7727475,-0.13285641,0.029361458,-0.42910135,0.9624691,-9.591172,0.6655881
6.2367887,4.7726336,-0.139248,0.038948838,-0.45892876,0.8810662,-9.595961,0.63206923
6.236167,4.772508,-0.139248,0.038948838,-0.45892876,0.8810662,-9.595961,0.63206923
6.235544,4.772353,-0.1456396,0.047470953,-0.48982143,0.7757214,-9.605537,0.545878
6.2349205,4.7721977,-0.1456396,0.047470953,-0.48982143,0.7757214,-9.605537,0.545878
6.2342634,4.7720423,-0.15309644,0.052797277,-0.52177936,0.6895301,-9.619903,0.5650316
6.233606,4.771887,-0.15309644,0.052797277,-0.52177936,0.6895301,-9.619903,0.5650316
6.2329187,4.771737,-0.15948802,0.054927804,-0.5516068,0.6607997,-9.682152,0.58418524
6.2322316,4.7715898,-0.15948802,0.054927804,-0.5516068,0.6607997,-9.682152,0.58418524
6.2315245,4.7714047,-0.16481435,0.05599307,-0.57610786,0.6512229,-9.691729,0.545878
6.230817,4.77122,-0.16481435,0.05599307,-0.57610786,0.6512229,-9.691729,0.545878
6.230099,4.7711062,-0.16694488,0.054927804,-0.59954363,0.63206923,-9.639056,0.61770403
6.2293844,4.7709956,-0.16694488,0.054927804,-0.59954363,0.63206923,-9.639056,0.61770403
6.228637,4.7708006,-0.16801015,0.052797277,-0.61871845,0.7278373,-9.662998,0.51714754
6.2278905,4.7706056,-0.16801015,0.052797277,-0.61871845,0.7278373,-9.662998,0.51714754
6.227119,4.770427,-0.16694488,0.05173201,-0.63682795,0.90021986,-9.619903,0.51714754
6.226348,4.770249,-0.16694488,0.05173201,-0.63682795,0.90021986,-9.619903,0.51714754
6.2255564,4.770106,-0.16587962,0.052797277,-0.65919846,1.1731589,-9.514558,0.63206923
6.224764,4.7699637,-0.16587962,0.052797277,-0.65919846,1.1731589,-9.514558,0.63206923
6.223942,4.7698197,-0.16481435,0.0581236,-0.6890259,1.3790601,-9.399636,0.63206923
6.2231197,4.769676,-0.16481435,0.0581236,-0.6890259,1.3790601,-9.399636,0.63206923
6.222259,4.769535,-0.16801015,0.06877624,-0.7295059,1.5801731,-9.332599,0.6847417
6.221399,4.769394,-0.16801015,0.06877624,-0.7295059,1.5801731,-9.332599,0.6847417
6.220485,4.769245,-0.17333646,0.087951005,-0.78276914,1.6807296,-9.193734,0.6560113
6.219572,4.769097,-0.17333646,0.087951005,-0.78276914,1.6807296,-9.193734,0.6560113
6.2186,4.7689376,-0.18398911,0.11245208,-0.842424,1.757344,-9.112331,0.641646
6.2176275,4.768779,-0.18398911,0.11245208,-0.842424,1.757344,-9.112331,0.641646
6.216587,4.7686057,-0.19783755,0.14014897,-0.91166615,1.7860745,-9.078813,0.61770403
6.2155323,4.7684307,-0.19783755,0.14014897,-0.91166615,1.7860745,-9.078813,0.61770403
6.21442,4.7682495,-0.21488178,0.16997637,-0.9894304,1.9249382,-9.021352,0.6751649
6.213314,4.7680693,-0.21488178,0.16997637,-0.9894304,1.9249382,-9.021352,0.6751649
6.2121153,4.767868,-0.23086074,0.20086904,-1.0767821,2.0733786,-9.097966,0.61291564
6.210913,4.7676663,-0.23086074,0.20086904,-1.0767821,2.0733786,-9.097966,0.61291564
6.209617,4.767458,-0.24151339,0.23176171,-1.1726559,2.2744915,-9.198523,0.641646
6.2083216,4.76725,-0.24151339,0.23176171,-1.1726559,2.2744915,-9.198523,0.641646
6.206926,4.76704,-0.24470918,0.26585016,-1.273856,2.6671407,-9.3182335,0.641646
6.2055306,4.7668304,-0.24470918,0.26585016,-1.273856,2.6671407,-9.3182335,0.641646
6.204027,4.766629,-0.24044813,0.3010039,-1.3857088,2.9831753,-9.351752,0.6703765
6.202521,4.766429,-0.24044813,0.3010039,-1.3857088,2.9831753,-9.351752,0.6703765
6.200896,4.7662487,-0.22766495,0.34041867,-1.5082142,3.4476504,-9.222465,0.7613561
6.1992736,4.7660694,-0.22766495,0.34041867,-1.5082142,3.4476504,-9.222465,0.7613561
6.197518,4.7659154,-0.21168599,0.3808987,-1.6466986,4.060566,-9.054871,0.90979666
6.1957583,4.7657614,-0.21168599,0.3808987,-1.6466986,4.060566,-9.054871,0.90979666
6.1938443,4.7656264,-0.19996808,0.4267051,-1.8075535,4.6495395,-8.853758,1.0103531
6.1938443,4.7656264,-0.19996808,0.4267051,-1.8075535,4.6495395,-8.853758,1.0103531
6.1898146,4.765358,-0.19783755,0.47677252,-1.99504,5.0278234,-8.690952,1.0342951
6.187758,4.765236,-0.19783755,0.47677252,-1.99504,5.0278234,-8.690952,1.0342951
6.185505,4.7651067,-0.21062072,0.53749263,-2.208093,5.3438582,-8.576031,0.9768343
6.1831985,4.7649765,-0.21062072,0.53749263,-2.208093,5.3438582,-8.576031,0.9768343
6.1806054,4.7648206,-0.24044813,0.603539,-2.4467123,5.4444146,-8.451532,0.8858546
6.1806054,4.7648206,-0.2862545,0.6717159,-2.7066367,5.57849,-8.394072,0.7469909
6.1806054,4.7648206,-0.2862545,0.6717159,-2.7066367,5.57849,-8.394072,0.7469909
6.1806054,4.7648206,-0.2862545,0.6717159,-2.7066367,5.57849,-8.394072,0.7469909
6.1716976,4.7642155,-0.2862545,0.6717159,-2.7066367,5.57849,-8.394072,0.7469909
6.1663303,4.7638335,-0.34697458,0.73776233,-2.9825401,5.57849,-8.451532,0.7469909
6.1663303,4.7638335,-0.4215431,0.7995477,-3.2722921,5.626374,-8.599973,0.5315128
6.16255,4.7634926,-0.4215431,0.7995477,-3.2722921,5.626374,-8.599973,0.5315128
6.155869,4.762854,-0.5035685,0.8560067,-3.5716314,5.6407394,-8.7292595,0.521936
6.155869,4.762854,-0.5035685,0.8560067,-3.5716314,5.6407394,-8.7292595,0.521936
6.1484165,4.7620687,-0.5898549,0.9028783,-3.8752317,5.755661,-8.896853,0.45010993
6.144485,4.761633,-0.5898549,0.9028783,-3.8752317,5.755661,-8.896853,0.45010993
6.1402154,4.761115,-0.6772066,0.94016254,-4.183093,5.8801594,-9.030929,0.35434186
6.135945,4.760602,-0.6772066,0.94016254,-4.183093,5.8801594,-9.030929,0.35434186
6.1313677,4.7600055,-0.767754,0.9646636,-4.495216,6.172252,-9.050082,0.19153613
6.126785,4.7594132,-0.767754,0.9646636,-4.495216,6.172252,-9.050082,0.19153613
6.1218886,4.758741,-0.8551057,0.97638154,-4.81373,6.469133,-8.987833,0.062249243
6.1169868,4.7580733,-0.8551057,0.97638154,-4.81373,6.469133,-8.987833,0.062249243
6.111702,4.757311,-0.94671845,0.9806426,-5.143962,6.6606693,-8.949526,-0.1340753
6.10651,4.756568,-0.94671845,0.9806426,-5.143962,6.6606693,-8.949526,-0.1340753
6.1009417,4.7557316,-1.041527,0.9785121,-5.4837813,6.631939,-8.858546,-0.19632454
6.095367,4.7549005,-1.041527,0.9785121,-5.4837813,6.631939,-8.858546,-0.19632454
6.0894423,4.7539687,-1.1384661,0.9710552,-5.833188,6.459556,-8.700529,-0.56982
6.0835166,4.753043,-1.1384661,0.9710552,-5.833188,6.459556,-8.700529,-0.56982
6.0772343,4.752023,-1.2354051,0.95188046,-6.1889863,6.143522,-8.590396,-0.62249243
6.070951,4.7510095,-1.2354051,0.95188046,-6.1889863,6.143522,-8.590396,-0.62249243
6.0643024,4.749891,-1.3323442,0.9241836,-6.541589,5.889736,-8.485051,-0.8619126
6.057606,4.7487707,-1.3323442,0.9241836,-6.541589,5.889736,-8.485051,-0.8619126
6.0506506,4.7475624,-1.4292833,0.88689935,-6.8899302,5.449203,-8.413225,-0.92416185
6.0436864,4.7463593,-1.4292833,0.88689935,-6.8899302,5.449203,-8.413225,-0.92416185
6.036371,4.745051,-1.5240918,0.83896244,-7.236141,5.0757074,-8.384495,-0.9576807
6.0290556,4.743748,-1.5240918,0.83896244,-7.236141,5.0757074,-8.384495,-0.9576807
6.0213947,4.7423315,-1.6157045,0.77824235,-7.57383,4.6495395,-8.384495,-1.1013328
6.0137334,4.740919,-1.6157045,0.77824235,-7.57383,4.6495395,-8.384495,-1.1013328
6.0057483,4.7394004,-1.7030562,0.7079349,-7.9040623,4.295198,-8.298303,-1.1300632
5.9977474,4.7378817,-1.7030562,0.7079349,-7.9040623,4.295198,-8.298303,-1.1300632
5.9893146,4.736226,-1.7872121,0.6248443,-8.223641,3.9743748,-8.307879,-1.2258313
5.980775,4.734551,-1.7872121,0.6248443,-8.223641,3.9743748,-8.307879,-1.2258313
5.9723854,4.73286,-1.8649764,0.5279052,-8.532568,3.9121256,-8.236053,-1.292869
5.963851,4.731139,-1.8649764,0.5279052,-8.532568,3.9121256,-8.236053,-1.292869
5.955078,4.729325,-1.9395449,0.4203135,-8.831907,4.0462008,-8.1642275,-1.3934253
5.94621,4.727489,-1.9395449,0.4203135,-8.831907,4.0462008,-8.1642275,-1.3934253
5.9370213,4.725538,-2.0141134,0.3073955,-9.12592,4.3718123,-8.130709,-1.532289
5.9278255,4.723581,-2.0141134,0.3073955,-9.12592,4.3718123,-8.130709,-1.532289
5.9183307,4.721504,-2.0897472,0.19234692,-9.419933,4.6160207,-8.135497,-1.6376339
5.9088383,4.719422,-2.0897472,0.19234692,-9.419933,4.6160207,-8.135497,-1.6376339
5.899053,4.7172213,-2.169642,0.07942889,-9.717142,5.104438,-8.1163435,-1.6232687
5.8892307,4.715003,-2.169642,0.07942889,-9.717142,5.104438,-8.1163435,-1.6232687
5.879124,4.712648,-2.2559285,-0.031358615,-10.019677,5.386954,-8.298303,-1.70946
5.8690205,4.710281,-2.2559285,-0.031358615,-10.019677,5.386954,-8.298303,-1.70946
5.8585978,4.70777,-2.3443453,-0.14001559,-10.330734,5.693412,-8.504205,-1.5849615
5.848179,4.705243,-2.3443453,-0.14001559,-10.330734,5.693412,-8.504205,-1.5849615
5.837428,4.702569,-2.4316971,-0.24654204,-10.653509,6.0716953,-8.820239,-1.4077905
5.8267026,4.6998796,-2.4316971,-0.24654204,-10.653509,6.0716953,-8.820239,-1.4077905
5.815609,4.6970544,-2.5094614,-0.35413375,-10.979481,6.5936313,-9.198523,-0.9911995
5.8045187,4.6942043,-2.5094614,-0.35413375,-10.979481,6.5936313,-9.198523,-0.9911995
5.793091,4.6912317,-2.5659204,-0.46705177,-11.307582,6.861782,-9.610326,-0.6607997
5.781666,4.68823,-2.5659204,-0.46705177,-11.307582,6.861782,-9.610326,-0.6607997
5.7699423,4.6850567,-2.6010742,-0.5863614,-11.639944,6.2392898,-9.854534,-0.7278373
5.758229,4.681843,-2.6010742,-0.5863614,-11.639944,6.2392898,-9.854534,-0.7278373
5.746355,4.6784644,-2.6234448,-0.71951944,-11.96272,5.2289367,-10.065224,-1.13964
5.734499,4.6750493,-2.6234448,-0.71951944,-11.96272,5.2289367,-10.065224,-1.13964
5.7223887,4.671487,-2.6351626,-0.87824386,-12.254602,4.6399627,-10.208876,-1.4030021
5.7102895,4.6678796,-2.6351626,-0.87824386,-12.254602,4.6399627,-10.208876,-1.4030021
5.6979613,4.6640935,-2.64475,-1.0593388,-12.5092,4.3957543,-10.381259,-1.4413095
5.685643,4.6602516,-2.64475,-1.0593388,-12.5092,4.3957543,-10.381259,-1.4413095
5.673139,4.6562095,-2.6500764,-1.2585433,-12.721188,4.4101195,-10.491392,-1.2737153
5.660646,4.6520996,-2.6500764,-1.2585433,-12.721188,4.4101195,-10.491392,-1.2737153
5.6480045,4.6477675,-2.6468806,-1.4684004,-12.894826,4.414908,-10.520123,-1.1587936
5.635374,4.6433535,-2.6468806,-1.4684004,-12.894826,4.414908,-10.520123,-1.1587936
5.622628,4.638703,-2.6340973,-1.6835837,-13.038637,4.3622355,-10.496181,-0.9911995
5.609895,4.6339545,-2.6340973,-1.6835837,-13.038637,4.3622355,-10.496181,-0.9911995
5.59708,4.6289377,-2.6138573,-1.9051588,-13.151555,4.405331,-10.376471,-0.9720459
5.584281,4.6238065,-2.6138573,-1.9051588,-13.151555,4.405331,-10.376471,-0.9720459
5.571436,4.61838,-2.5861604,-2.1331253,-13.234646,4.6926355,-10.218452,-0.9864111
5.5586085,4.6128197,-2.5861604,-2.1331253,-13.234646,4.6926355,-10.218452,-0.9864111
5.54577,4.6069345,-2.5542026,-2.3664184,-13.290039,5.0038815,-9.988609,-1.0151415
5.532954,4.600895,-2.5542026,-2.3664184,-13.290039,5.0038815,-9.988609,-1.0151415
5.5201583,4.594502,-2.515853,-2.6018417,-13.320931,5.257667,-9.911995,-1.0821792
5.5073886,4.587931,-2.515853,-2.6018417,-13.320931,5.257667,-9.911995,-1.0821792
5.4946713,4.58097,-2.4743078,-2.8393958,-13.328388,5.626374,-9.682152,-1.2066777
5.481986,4.573806,-2.4743078,-2.8393958,-13.328388,5.626374,-9.682152,-1.2066777
5.4693847,4.5662165,-2.4327624,-3.074819,-13.312409,5.9041014,-9.552865,-1.3455414
5.4568214,4.558397,-2.4327624,-3.074819,-13.312409,5.9041014,-9.552865,-1.3455414
5.4443746,4.5501165,-2.3901517,-3.3049164,-13.272995,5.985504,-9.23683,-1.5131354
5.4319735,4.541575,-2.3901517,-3.3049164,-13.272995,5.985504,-9.23683,-1.5131354
5.4197216,4.5325603,-2.3486066,-3.5307524,-13.209079,5.9807158,-8.987833,-1.3790601
5.407523,4.5232506,-2.3486066,-3.5307524,-13.209079,5.9807158,-8.987833,-1.3790601
5.3955107,4.513424,-2.305996,-3.747001,-13.120662,6.2345014,-8.614338,-1.4939818
5.3835607,4.5032663,-2.305996,-3.747001,-13.120662,6.2345014,-8.614338,-1.4939818
5.3718295,4.4925427,-2.2644506,-3.951532,-13.009874,6.459556,-7.9726915,-1.8004397
5.3601713,4.481453,-2.2644506,-3.951532,-13.009874,6.459556,-7.9726915,-1.8004397
5.34876,4.4697948,-2.229297,-4.135823,-12.879912,6.7085533,-7.5465236,-1.9009962
5.337434,4.457733,-2.229297,-4.135823,-12.879912,6.7085533,-7.5465236,-1.9009962
5.326381,4.445092,-2.1994696,-4.2998734,-12.73184,6.8426285,-7.216124,-1.982399
5.315426,4.4320097,-2.1994696,-4.2998734,-12.73184,6.8426285,-7.216124,-1.982399
5.3047676,4.4183745,-2.1739032,-4.438358,-12.569921,6.9144545,-7.015011,-1.8483237
5.294218,4.40426,-2.1739032,-4.438358,-12.569921,6.9144545,-7.015011,-1.8483237
5.2839828,4.389544,-2.1494021,-4.5555367,-12.399478,7.249643,-6.6510925,-2.087744
5.273871,4.374314,-2.1494021,-4.5555367,-12.399478,7.249643,-6.6510925,-2.087744
5.2640667,4.358493,-2.129162,-4.6503453,-12.224774,7.398083,-6.5505357,-2.0638018
5.2544293,4.342171,-2.129162,-4.6503453,-12.224774,7.398083,-6.5505357,-2.0638018
5.2451143,4.325301,-2.1121178,-4.7249136,-12.046876,7.699753,-6.564901,-1.9153614
5.2359505,4.3078504,-2.1121178,-4.7249136,-12.046876,7.699753,-6.564901,-1.9153614
5.2271204,4.2898617,-2.092943,-4.785634,-11.876433,8.37013,-6.4499793,-1.8962077
5.218456,4.271263,-2.092943,-4.785634,-11.876433,8.37013,-6.4499793,-1.8962077
5.2101307,4.2521544,-2.0695071,-4.8314404,-11.714513,9.184157,-6.2584434,-1.9632454
5.201979,4.2323923,-2.0695071,-4.8314404,-11.714513,9.184157,-6.2584434,-1.9632454
5.1942005,4.211937,-2.0482018,-4.8612676,-11.564311,9.552865,-5.7029886,-2.8443117
5.186633,4.1908703,-2.0482018,-4.8612676,-11.564311,9.552865,-5.7029886,-2.8443117
5.17939,4.16919,-2.0332882,-4.878312,-11.419435,9.3661175,-5.7748146,-3.0358477
5.1723824,4.146907,-2.0332882,-4.878312,-11.419435,9.3661175,-5.7748146,-3.0358477
5.165725,4.1241784,-2.0226355,-4.8889647,-11.270298,8.853758,-6.133945,-2.6862943
5.1593027,4.1007977,-2.0226355,-4.8889647,-11.270298,8.853758,-6.133945,-2.6862943
5.153261,4.0769796,-2.007722,-4.8974867,-11.101986,8.121132,-6.4020953,-2.432509
5.1474876,4.0525966,-2.007722,-4.8974867,-11.101986,8.121132,-6.4020953,-2.432509
5.14209,4.02769,-1.9821556,-4.9092045,-10.9027815,7.091625,-6.655881,-1.9728222
5.1369853,4.002301,-1.9821556,-4.9092045,-10.9027815,7.091625,-6.655881,-1.9728222
5.132339,3.9766295,-1.9384797,-4.9273143,-10.664163,6.3781533,-6.4739213,-1.9393034
5.127979,3.9504585,-1.9384797,-4.9273143,-10.664163,6.3781533,-6.4739213,-1.9393034
5.124136,3.9241743,-1.8788248,-4.9582067,-10.381867,5.8705826,-5.947197,-2.3319526
5.120579,3.8974195,-1.8788248,-4.9582067,-10.381867,5.8705826,-5.947197,-2.3319526
5.1175613,3.8707852,-1.8074522,-4.995491,-10.058026,5.4444146,-5.6359506,-2.3750482
5.1148314,3.8437748,-1.8074522,-4.995491,-10.058026,5.4444146,-5.6359506,-2.3750482
5.1126413,3.8171158,-1.726492,-5.0381017,-9.696902,5.12838,-5.60722,-1.9009962
5.1107345,3.790185,-1.726492,-5.0381017,-9.696902,5.12838,-5.60722,-1.9009962
5.1093893,3.7638035,-1.6316835,-5.083908,-9.304885,5.133168,-5.185841,-2.1308396
5.108319,3.7372622,-1.6316835,-5.083908,-9.304885,5.133168,-5.185841,-2.1308396
5.1077905,3.7114997,-1.5219612,-5.1233225,-8.885171,5.0038815,-4.9943047,-2.231396
5.1075215,3.6856856,-1.5219612,-5.1233225,-8.885171,5.0038815,-4.9943047,-2.231396
5.107757,3.6608915,-1.3973253,-5.156346,-8.443086,5.2049947,-4.88896,-2.1452048
5.1082344,3.6360927,-1.3973253,-5.156346,-8.443086,5.2049947,-4.88896,-2.1452048
5.1091743,3.6124792,-1.2620368,-5.180847,-7.9860873,5.4683566,-4.9559975,-2.054225
5.110333,3.5889902,-1.2620368,-5.180847,-7.9860873,5.4683566,-4.9559975,-2.054225
5.1119285,3.5667808,-1.1150303,-5.192565,-7.524828,6.009446,-4.5154643,-2.7246015
5.1137276,3.5446513,-1.1150303,-5.192565,-7.524828,6.009446,-4.5154643,-2.7246015
5.116061,3.5223324,-0.9637627,-5.189369,-7.064634,6.042965,-4.453215,-2.7246015
5.1181936,3.5036306,-0.9637627,-5.189369,-7.064634,6.042965,-4.453215,-2.7246015
5.1207237,3.4852202,-0.8146257,-5.170194,-6.603374,6.0477533,-4.7165775,-2.4612393
5.1235685,3.4658692,-0.8146257,-5.170194,-6.603374,6.0477533,-4.7165775,-2.4612393
5.1265965,3.448558,-0.6633581,-5.1414323,-6.148506,6.4882865,-4.2281604,-3.122039
5.1297355,3.431575,-0.6633581,-5.1414323,-6.148506,6.4882865,-4.2281604,-3.122039
5.133103,3.4158947,-0.5152864,-5.1020174,-5.6978993,6.4739213,-3.9839516,-3.2321723
5.136595,3.4003808,-0.5152864,-5.1020174,-5.6978993,6.4739213,-3.9839516,-3.2321723
5.140213,3.3863354,-0.37360618,-5.048754,-5.2547493,6.742072,-4.0174704,-3.122039
5.1439123,3.372547,-0.37360618,-5.048754,-5.2547493,6.742072,-4.0174704,-3.122039
5.1477623,3.360013,-0.23938286,-4.9816427,-4.8243823,7.513005,-3.6774938,-4.0462008
5.1516566,3.347782,-0.23938286,-4.9816427,-4.8243823,7.513005,-3.6774938,-4.0462008
5.1556106,3.3367853,-0.11474692,-4.8847036,-4.403603,7.785944,-3.6774938,-4.1515455
5.1596546,3.325896,-0.11474692,-4.8847036,-4.403603,7.785944,-3.6774938,-4.1515455
5.1596546,3.325896,-0.11474692,-4.8847036,-4.403603,7.785944,-3.6774938,-4.1515455
5.1596546,3.325896,-0.0028941538,-4.7472844,-3.992411,7.7093296,-3.8019924,-4.0653543
5.171869,3.2975693,0.105762824,-4.587495,-3.5961325,7.800309,-3.667917,-3.9121256
5.1758413,3.2895129,0.105762824,-4.587495,-3.5961325,7.800309,-3.667917,-3.9121256
5.1758413,3.2895129,0.105762824,-4.587495,-3.5961325,7.800309,-3.667917,-3.9121256
5.1758413,3.2895129,0.105762824,-4.587495,-3.5961325,7.800309,-3.667917,-3.9121256
5.187568,3.26916,0.30283675,-4.222109,-2.8632307,8.595184,-2.815581,-4.673482
5.1914406,3.2632363,0.30283675,-4.222109,-2.8632307,8.595184,-2.815581,-4.673482
5.195146,3.2581968,0.38379684,-4.012252,-2.5276723,8.935161,-2.6767175,-4.7979803
5.195146,3.2581968,0.38379684,-4.012252,-2.5276723,8.935161,-2.6767175,-4.7979803
5.202566,3.2487252,0.45303902,-3.7928073,-2.2134192,9.437943,-2.4660277,-5.0900726
5.202566,3.2487252,0.45303902,-3.7928073,-2.2134192,9.437943,-2.4660277,-5.0900726
5.209545,3.2409275,0.51162857,-3.5595145,-1.91408,10.065224,-2.336741,-4.8698063
5.212814,3.2376375,0.51162857,-3.5595145,-1.91408,10.065224,-2.336741,-4.8698063
5.215909,3.234916,0.5648918,-3.3102427,-1.6328502,10.414778,-2.336741,-4.7165775
5.219018,3.232224,0.5648918,-3.3102427,-1.6328502,10.414778,-2.336741,-4.7165775
5.221874,3.2301042,0.613894,-3.050318,-1.3718604,10.783484,-2.0973208,-4.7165775
5.2247295,3.2280138,0.613894,-3.050318,-1.3718604,10.783484,-2.0973208,-4.7165775
5.22733,3.226454,0.65970033,-2.780806,-1.12898,10.817003,-2.1068976,-4.5537715
5.2299504,3.2249026,0.65970033,-2.780806,-1.12898,10.817003,-2.1068976,-4.5537715
5.232271,3.2236135,0.7023109,-2.5038373,-0.89994824,11.334151,-0.2873042,-5.66947
5.234563,3.222361,0.7023109,-2.5038373,-0.89994824,11.334151,-0.2873042,-5.66947
5.236614,3.2216454,0.7332036,-2.2226076,-0.6826343,12.066776,-0.7757214,-4.175488
5.2387056,3.2209256,0.7332036,-2.2226076,-0.6826343,12.066776,-0.7757214,-4.175488
5.2405334,3.2207146,0.72787726,-1.9403125,-0.48662564,10.424355,-3.2034419,-2.882619
5.242359,3.2205079,0.72787726,-1.9403125,-0.48662564,10.424355,-3.2034419,-2.882619
5.2438765,3.2206059,0.7577047,-1.6388427,-0.29807383,12.038046,-1.2210429,-4.0940847
5.245393,3.220705,0.7577047,-1.6388427,-0.29807383,12.038046,-1.2210429,-4.0940847
5.2466083,3.2211943,0.8077721,-1.3245896,-0.11378307,12.354081,-0.9864111,-4.5394063
5.2478237,3.2216828,0.8077721,-1.3245896,-0.11378307,12.354081,-0.9864111,-4.5394063
5.248692,3.2225573,0.8375995,-0.9645303,0.09287824,11.463438,-0.47884035,-4.5633483
5.2495613,3.22343,0.8375995,-0.9645303,0.09287824,11.463438,-0.47884035,-4.5633483
5.2500806,3.2247612,0.8525132,-0.59381825,0.30273533,10.0748005,-0.7613561,-4.2904096
5.2506003,3.2260911,0.8525132,-0.59381825,0.30273533,10.0748005,-0.7613561,-4.2904096
5.2508035,3.2277496,0.8621006,-0.262521,0.49874398,9.9550905,-0.36870706,-4.232949
5.251007,3.229404,0.8621006,-0.262521,0.49874398,9.9550905,-0.36870706,-4.232949
5.250938,3.2313902,0.8663616,0.028296193,0.68196946,9.710882,-0.20111294,-4.1036615
5.2508707,3.2333732,0.8663616,0.028296193,0.68196946,9.710882,-0.20111294,-4.1036615
5.250563,3.2356699,0.8684922,0.28715545,0.849216,9.706094,-0.10055647,-3.9695864
5.2502575,3.237967,0.8684922,0.28715545,0.849216,9.706094,-0.10055647,-3.9695864
5.2497396,3.2405372,0.8727532,0.5183178,0.99728775,9.696517,0.019153614,-3.9791632
5.2492237,3.243115,0.8727532,0.5183178,0.99728775,9.696517,0.019153614,-3.9791632
5.248515,3.2459154,0.8823406,0.73137075,1.1261847,9.485827,0.2825158,-4.050989
5.247811,3.2487204,0.8823406,0.73137075,1.1261847,9.485827,0.2825158,-4.050989
5.246928,3.251729,0.88979745,0.9327057,1.2422986,9.030929,0.4261679,-4.122815
5.24605,3.2547438,0.88979745,0.9327057,1.2422986,9.030929,0.4261679,-4.122815
5.245013,3.2579496,0.8983196,1.1159312,1.344564,8.461109,0.47884035,-4.0940847
5.2439857,3.2611508,0.8983196,1.1159312,1.344564,8.461109,0.47884035,-4.0940847
5.242834,3.2645278,0.9089722,1.2757208,1.4393725,7.848193,0.5650316,-4.1276035
5.2416916,3.267909,0.9089722,1.2757208,1.4393725,7.848193,0.5650316,-4.1276035
5.2404504,3.271465,0.91962487,1.4099442,1.5245937,7.4746976,0.6847417,-4.098873
5.2392173,3.2750313,0.91962487,1.4099442,1.5245937,7.4746976,0.6847417,-4.098873
5.237902,3.2787783,0.9302775,1.5196664,1.6012927,7.3406224,0.7565677,-4.1419687
5.236596,3.282538,0.9302775,1.5196664,1.6012927,7.3406224,0.7565677,-4.1419687
5.235217,3.2864668,0.93773437,1.6112791,1.6726655,7.335834,0.770933,-4.1419687
5.2338476,3.2904103,0.93773437,1.6112791,1.6726655,7.335834,0.770933,-4.1419687
5.232419,3.294516,0.94199544,1.6922393,1.7376466,7.326257,0.80924016,-4.19943
5.2310705,3.2984357,0.94199544,1.6922393,1.7376466,7.326257,0.80924016,-4.19943
5.2296596,3.3025813,0.94199544,1.6922393,1.7376466,7.326257,0.80924016,-4.19943
5.2281313,3.3070893,0.9430607,1.7668078,1.8026277,7.350199,0.8810662,-4.295198
5.226622,3.311533,0.9409301,1.8349847,1.8622825,7.52737,0.90021986,-4.333505
5.2251225,3.3160007,0.9409301,1.8349847,1.8622825,7.52737,0.90021986,-4.333505
5.2235804,3.3205826,0.9334733,1.8957047,1.9155457,7.608773,0.90979666,-4.247314
5.2220364,3.3252273,0.9334733,1.8957047,1.9155457,7.608773,0.90979666,-4.247314
5.2204647,3.3299706,0.9217554,1.9457722,1.9613521,7.6949644,0.93852705,-4.261679
5.2189083,3.3347318,0.9217554,1.9457722,1.9613521,7.6949644,0.93852705,-4.261679
5.217327,3.3395872,0.90790695,1.9809259,1.9954406,7.776367,0.91937345,-4.209007
5.215749,3.3445,0.90790695,1.9809259,1.9954406,7.776367,0.91937345,-4.209007
5.2141705,3.3494318,0.8908627,2.0043619,2.0199416,7.9248075,0.94331545,-4.098873
5.2125983,3.3544116,0.8908627,2.0043619,2.0199416,7.9248075,0.94331545,-4.098873
5.2110214,3.3594463,0.8727532,2.0182102,2.0359206,8.025364,0.89064306,-4.0701427
5.2094584,3.3645098,0.8727532,2.0182102,2.0359206,8.025364,0.89064306,-4.0701427
5.2078986,3.3696089,0.8567743,2.0246017,2.0444427,8.058883,0.8810662,-4.0174704
5.206353,3.3747375,0.8567743,2.0246017,2.0444427,8.058883,0.8810662,-4.0174704
5.204831,3.3798814,0.84186053,2.0235364,2.049769,8.001422,0.8283938,-4.132392
5.2033243,3.3850496,0.84186053,2.0235364,2.049769,8.001422,0.8283938,-4.132392
5.2018356,3.3902361,0.82694685,2.0203407,2.0508344,7.896077,0.7517793,-4.1132383
5.2003603,3.3954525,0.82694685,2.0203407,2.0508344,7.896077,0.7517793,-4.1132383
5.1989074,3.400682,0.81096786,2.0160797,2.052965,7.714118,0.6943185,-4.0797195
5.197473,3.4059253,0.81096786,2.0160797,2.052965,7.714118,0.6943185,-4.0797195
5.196044,3.4112236,0.7928584,2.0075576,2.0593565,7.61835,0.58897364,-3.892972
5.1946335,3.4165354,0.7928584,2.0075576,2.0593565,7.61835,0.58897364,-3.892972
5.1932592,3.4218612,0.77261835,1.9947743,2.0678785,7.465121,0.46447513,-3.9121256
5.191901,3.4272106,0.77261835,1.9947743,2.0678785,7.465121,0.46447513,-3.9121256
5.1905727,3.4325788,0.75237834,1.9777302,2.0753355,7.374141,0.37828386,-3.8355112
5.189233,3.438084,0.75237834,1.9777302,2.0753355,7.374141,0.37828386,-3.8355112
5.187957,3.443493,0.73000777,1.9521638,2.0806618,7.28795,0.2873042,-3.7828386
5.1866655,3.4490607,0.73000777,1.9521638,2.0806618,7.28795,0.2873042,-3.7828386
5.1854687,3.4544,0.7087025,1.9191406,2.0785313,7.2687964,0.15322891,-3.7541082
5.184294,3.4597268,0.7087025,1.9191406,2.0785313,7.2687964,0.15322891,-3.7541082
5.183119,3.4651508,0.7087025,1.9191406,2.0785313,7.2687964,0.15322891,-3.7541082
5.1819963,3.4705472,0.6852667,1.8786606,2.070009,7.1634517,0.047884032,-3.739743
5.18088,3.4760127,0.6852667,1.8786606,2.070009,7.1634517,0.047884032,-3.739743
5.179821,3.481387,0.65970033,1.8285931,2.0561607,7.1586633,-0.17717093,-3.6343982
5.178771,3.4868174,0.65970033,1.8285931,2.0561607,7.1586633,-0.17717093,-3.6343982
5.177801,3.4921575,0.63519925,1.7700036,2.0391164,7.0820484,-0.40701428,-3.6296098
5.1768436,3.4975307,0.63519925,1.7700036,2.0391164,7.0820484,-0.40701428,-3.6296098
5.1759825,3.50283,0.6117634,1.702892,2.0167458,6.967127,-0.63206923,-3.6583402
5.1751337,3.5081549,0.6117634,1.702892,2.0167458,6.967127,-0.63206923,-3.6583402
5.174395,3.5134234,0.59258866,1.6283234,1.99331,6.775591,-0.8810662,-3.6248214
5.173663,3.5187438,0.59258866,1.6283234,1.99331,6.775591,-0.8810662,-3.6248214
5.1730437,3.523985,0.57874024,1.5452328,1.9698743,6.5744777,-1.0821792,-3.5051112
5.1724353,3.5292354,0.57874024,1.5452328,1.9698743,6.5744777,-1.0821792,-3.5051112
5.171937,3.5344908,0.57021815,1.4557506,1.9475037,6.3589997,-1.3072342,-3.4715924
5.1714463,3.5397925,0.57021815,1.4557506,1.9475037,6.3589997,-1.3072342,-3.4715924
5.1710587,3.5450861,0.5680876,1.3630725,1.93259,6.1387334,-1.5131354,-3.3279405
5.170683,3.550386,0.5680876,1.3630725,1.93259,6.1387334,-1.5131354,-3.3279405
5.1704025,3.555681,0.5734139,1.2693293,1.9251331,6.009446,-1.6998832,-3.1842883
5.1701336,3.5610018,0.5734139,1.2693293,1.9251331,6.009446,-1.6998832,-3.1842883
5.1699557,3.5663114,0.5830013,1.1745207,1.9240679,5.9041014,-1.8914193,-3.0789435
5.1697907,3.5716248,0.5830013,1.1745207,1.9240679,5.9041014,-1.8914193,-3.0789435
5.1697164,3.576915,0.59898025,1.0818428,1.93259,5.8322754,-2.1021092,-2.9975405
5.169655,3.5822353,0.59898025,1.0818428,1.93259,5.8322754,-2.1021092,-2.9975405
5.1696787,3.5875492,0.6213508,0.99449104,1.9506994,5.913678,-2.2457612,-2.9113493
5.1697164,3.5928657,0.6213508,0.99449104,1.9506994,5.913678,-2.2457612,-2.9113493
5.169848,3.598176,0.6490477,0.9082046,1.9752005,6.0285997,-2.4181437,-2.930503
5.1699934,3.603503,0.6490477,0.9082046,1.9752005,6.0285997,-2.4181437,-2.930503
5.170225,3.6088386,0.67994034,0.8272445,2.0028975,6.2249246,-2.5761611,-2.9161377
5.1704698,3.6141734,0.67994034,0.8272445,2.0028975,6.2249246,-2.5761611,-2.9161377
5.170803,3.619506,0.710833,0.748415,2.0359206,6.469133,-2.7485435,-2.954445
5.1711516,3.6248622,0.710833,0.748415,2.0359206,6.469133,-2.7485435,-2.954445
5.1715746,3.6302116,0.74279094,0.675977,2.0689437,6.7564373,-2.930503,-2.920926
5.172013,3.6355834,0.74279094,0.675977,2.0689437,6.7564373,-2.930503,-2.920926
5.172534,3.6409578,0.77687943,0.60780007,2.1051629,6.9958572,-3.1172507,-2.96881
5.173069,3.6463313,0.77687943,0.60780007,2.1051629,6.9958572,-3.1172507,-2.96881
5.1736765,3.6517076,0.81096786,0.5449495,2.1403165,7.28795,-3.2800562,-2.9831753
5.1743007,3.6571028,0.81096786,0.5449495,2.1403165,7.28795,-3.2800562,-2.9831753
5.1749973,3.6624985,0.84718686,0.48635992,2.1733396,7.5704656,-3.4763808,-3.0310593
5.175707,3.667889,0.84718686,0.48635992,2.1733396,7.5704656,-3.4763808,-3.0310593
5.176481,3.6732814,0.8823406,0.43416196,2.206363,7.8625584,-3.7110126,-3.0310593
5.177271,3.6786892,0.8823406,0.43416196,2.206363,7.8625584,-3.7110126,-3.0310593
5.178126,3.6841,0.91749436,0.38622504,2.239386,8.173804,-3.8498764,-3.122039
5.1789947,3.6895032,0.91749436,0.38622504,2.239386,8.173804,-3.8498764,-3.122039
5.17992,3.694913,0.9515828,0.34681025,2.2724092,8.451532,-4.1419687,-3.1507695
5.180863,3.700335,0.9515828,0.34681025,2.2724092,8.451532,-4.1419687,-3.1507695
5.1818542,3.705765,0.9878018,0.31378707,2.3086283,8.695741,-4.3478703,-3.1364043
5.1828637,3.7112057,0.9878018,0.31378707,2.3086283,8.695741,-4.3478703,-3.1364043
5.1839304,3.7166734,1.0240208,0.289286,2.3448472,8.901642,-4.4963107,-3.3662477
5.185011,3.7221289,1.0240208,0.289286,2.3448472,8.901642,-4.4963107,-3.3662477
5.186138,3.727615,1.0591745,0.27011123,2.3831968,9.069236,-4.6830587,-3.4380736
5.187285,3.7331104,1.0591745,0.27011123,2.3831968,9.069236,-4.6830587,-3.4380736
5.188473,3.7386358,1.0943283,0.25626278,2.4258075,9.193734,-4.8841715,-3.4859576
5.189681,3.7441683,1.0943283,0.25626278,2.4258075,9.193734,-4.8841715,-3.4859576
5.1909275,3.7497487,1.1294819,0.24880594,2.4694831,9.390059,-5.0421886,-3.5625722
5.192189,3.7553134,1.1294819,0.24880594,2.4694831,9.390059,-5.0421886,-3.5625722
5.193486,3.7609274,1.1635704,0.2466754,2.5120938,9.552865,-5.0757074,-3.6487634
5.194803,3.766547,1.1635704,0.2466754,2.5120938,9.552865,-5.0757074,-3.6487634
5.196148,3.772226,1.1965936,0.24880594,2.5600307,9.720459,-5.142745,-3.6056678
5.1975117,3.7778986,1.1965936,0.24880594,2.5600307,9.720459,-5.142745,-3.6056678
5.1989055,3.7836218,1.2285515,0.25626278,2.6122286,9.868899,-5.161899,-3.7110126
5.20034,3.7894237,1.2285515,0.25626278,2.6122286,9.868899,-5.161899,-3.7110126
5.20034,3.7894237,1.2285515,0.25626278,2.6122286,9.868899,-5.161899,-3.7110126
5.203285,3.8011794,1.2594442,0.26691544,2.666557,9.964667,-5.1379566,-3.6631286
5.2047844,3.8070784,1.2892716,0.28182915,2.721951,10.1226845,-5.1140146,-3.7445314
5.2047844,3.8070784,1.2892716,0.28182915,2.721951,10.1226845,-5.1140146,-3.7445314
5.2047844,3.8070784,1.2892716,0.28182915,2.721951,10.1226845,-5.1140146,-3.7445314
5.2047844,3.8070784,1.3169686,0.29993862,2.782671,10.223241,-5.046977,-3.7014358
5.2109184,3.8306465,1.3436002,0.3223092,2.8487175,10.333375,-4.999093,-3.8307228
5.212524,3.8366327,1.3436002,0.3223092,2.8487175,10.333375,-4.999093,-3.8307228
5.214171,3.84274,1.3659707,0.34787554,2.9179597,10.486604,-4.9224787,-3.940856
5.2158327,3.8488107,1.3659707,0.34787554,2.9179597,10.486604,-4.9224787,-3.940856
5.2175193,3.8549922,1.3851454,0.3787682,2.9903975,10.658986,-4.903325,-3.9025488
5.219223,3.8611474,1.3851454,0.3787682,2.9903975,10.658986,-4.903325,-3.9025488
5.2209725,3.8674335,1.3979286,0.41392192,3.064966,10.898406,-4.9943047,-4.0414124
5.2227283,3.8736486,1.3979286,0.41392192,3.064966,10.898406,-4.9943047,-4.0414124
5.224515,3.8799765,1.4021896,0.45440197,3.1416652,11.113884,-5.0613422,-4.084508
5.2263317,3.8863134,1.4021896,0.45440197,3.1416652,11.113884,-5.0613422,-4.084508
5.22817,3.8927057,1.403255,0.4991431,3.2226253,11.200075,-5.185841,-4.0892963
5.2300296,3.8990746,1.403255,0.4991431,3.2226253,11.200075,-5.185841,-4.0892963
5.231928,3.9055705,1.4011244,0.5492105,3.306781,11.176133,-5.3199162,-3.9695864
5.2338443,3.9120283,1.4011244,0.5492105,3.306781,11.176133,-5.3199162,-3.9695864
5.2358093,3.918605,1.3989938,0.603539,3.395198,11.032481,-5.415684,-3.9791632
5.237793,3.9251368,1.3989938,0.603539,3.395198,11.032481,-5.415684,-3.9791632
5.239827,3.9318123,1.4011244,0.6578675,3.491072,10.850522,-5.5018754,-3.8307228
5.241879,3.9384398,1.4011244,0.6578675,3.491072,10.850522,-5.5018754,-3.8307228
5.2439957,3.9452205,1.4085813,0.71326125,3.596533,10.716447,-5.559336,-3.8163576
5.246284,3.9524267,1.4085813,0.71326125,3.596533,10.716447,-5.559336,-3.8163576
5.2483625,3.9589472,1.4234949,0.772916,3.712647,10.644621,-5.554548,-3.7684734
5.2483625,3.9589472,1.4234949,0.772916,3.712647,10.644621,-5.554548,-3.7684734
5.25292,3.9729562,1.4458655,0.8400277,3.8308911,10.58716,-5.511452,-3.8259344
5.25292,3.9729562,1.4458655,0.8400277,3.8308911,10.58716,-5.511452,-3.8259344
5.257583,3.9871087,1.4767581,0.9145962,3.9544618,10.505757,-5.511452,-3.892972
5.2599607,3.9941394,1.4767581,0.9145962,3.9544618,10.505757,-5.511452,-3.892972
5.2624445,4.0014954,1.516173,0.9966216,4.0748367,10.481815,-5.4779334,-3.9456444
5.264944,4.0087676,1.516173,0.9966216,4.0748367,10.481815,-5.4779334,-3.9456444
5.267544,4.0163555,1.5619793,1.0861038,4.18882,10.448297,-5.463568,-3.9839516
5.270193,4.023945,1.5619793,1.0861038,4.18882,10.448297,-5.463568,-3.9839516
5.2728367,4.0314846,1.6120467,1.1777165,4.3017383,10.189722,-5.3103395,-3.9839516
5.275486,4.0388894,1.6120467,1.1777165,4.3017383,10.189722,-5.3103395,-3.9839516
5.278212,4.0465517,1.6663753,1.2661335,4.413591,9.988609,-5.2959743,-3.8833952
5.2810116,4.0542583,1.6663753,1.2661335,4.413591,9.988609,-5.2959743,-3.8833952
5.2838745,4.0621185,1.7238995,1.3470936,4.5243783,9.667787,-5.2241483,-3.7588966
5.2867756,4.069906,1.7238995,1.3470936,4.5243783,9.667787,-5.2241483,-3.7588966
5.2897897,4.0777946,1.7803586,1.4195316,4.6383615,9.375694,-5.0900726,-3.7253778
5.2928247,4.08553,1.7803586,1.4195316,4.6383615,9.375694,-5.0900726,-3.7253778
5.2959433,4.0934,1.8368175,1.4823822,4.755541,9.050082,-5.0182467,-3.6296098
5.2990885,4.101163,1.8368175,1.4823822,4.755541,9.050082,-5.0182467,-3.6296098
5.3023252,4.1090493,1.8911461,1.5377759,4.881242,8.829816,-4.927267,-3.5242648
5.305566,4.116805,1.8911461,1.5377759,4.881242,8.829816,-4.927267,-3.5242648
5.308875,4.1246424,1.9422787,1.586778,5.0144,8.623915,-4.7884035,-3.4476504
5.312207,4.132415,1.9422787,1.586778,5.0144,8.623915,-4.7884035,-3.4476504
5.315652,4.1403027,1.9902157,1.6325845,5.150754,8.39886,-4.711789,-3.3614593
5.3191195,4.1481156,1.9902157,1.6325845,5.150754,8.39886,-4.711789,-3.3614593
5.3226233,4.156049,2.0381525,1.6773256,5.2945647,8.183381,-4.596867,-3.0789435
5.326168,4.163912,2.0381525,1.6773256,5.2945647,8.183381,-4.596867,-3.0789435
5.3298373,4.171913,2.0839589,1.7210014,5.444767,7.9631147,-4.486734,-2.954445
5.3335395,4.1798153,2.0839589,1.7210014,5.444767,7.9631147,-4.486734,-2.954445
5.3374004,4.1877894,2.1308305,1.7657425,5.5960345,7.8386164,-4.333505,-3.040636
5.341317,4.1957197,2.1308305,1.7657425,5.5960345,7.8386164,-4.333505,-3.040636
5.3453693,4.2037287,2.1787674,1.8126142,5.7483673,7.881712,-4.1802764,-3.1986535
5.3494253,4.2115884,2.1787674,1.8126142,5.7483673,7.881712,-4.1802764,-3.1986535
5.3536453,4.219603,2.2245739,1.8637469,5.8975043,8.106767,-4.1515455,-3.3614593
5.357959,4.2276316,2.2245739,1.8637469,5.8975043,8.106767,-4.1515455,-3.3614593
5.362338,4.235671,2.265054,1.9234017,6.035989,8.470686,-4.2042184,-3.4045548
5.3667293,4.2435713,2.265054,1.9234017,6.035989,8.470686,-4.2042184,-3.4045548
5.371271,4.2516556,2.3012729,1.9937091,6.155298,8.772355,-4.156334,-3.4476504
5.3758216,4.25959,2.3012729,1.9937091,6.155298,8.772355,-4.156334,-3.4476504
5.3804493,4.267595,2.3279045,2.0714734,6.2533026,8.978256,-4.1419687,-3.4093432
5.385118,4.275506,2.3279045,2.0714734,6.2533026,8.978256,-4.1419687,-3.4093432
5.3898273,4.2834587,2.3428183,2.1524336,6.326806,9.275137,-4.0462008,-3.2273839
5.3946013,4.2913566,2.3428183,2.1524336,6.326806,9.275137,-4.0462008,-3.2273839
5.3994,4.2992644,2.3438835,2.234459,6.3747425,9.41879,-3.9935284,-3.0214825
5.4042354,4.30707,2.3438835,2.234459,6.3747425,9.41879,-3.9935284,-3.0214825
5.4090886,4.314887,2.334296,2.315419,6.396048,9.533711,-3.9839516,-2.743755
5.4139776,4.3226027,2.334296,2.315419,6.396048,9.533711,-3.9839516,-2.743755
5.4188547,4.3302784,2.3129907,2.392118,6.394983,9.404425,-3.940856,-2.432509
5.4237967,4.3378997,2.3129907,2.392118,6.394983,9.404425,-3.940856,-2.432509
5.4287076,4.34544,2.2852938,2.464556,6.3747425,9.184157,-3.9839516,-2.3175871
5.433658,4.3528905,2.2852938,2.464556,6.3747425,9.184157,-3.9839516,-2.3175871
5.4385734,4.3602557,2.2544012,2.5295372,6.3417196,8.805874,-3.9791632,-2.15957
5.4435515,4.3675704,2.2544012,2.5295372,6.3417196,8.805874,-3.9791632,-2.15957
5.448489,4.374772,2.2203128,2.584931,6.299109,8.39886,-4.1036615,-2.15957
5.4534593,4.381884,2.2203128,2.584931,6.299109,8.39886,-4.1036615,-2.15957
5.4583874,4.3888817,2.185159,2.629672,6.2522373,8.058883,-4.247314,-2.0829554
5.4633765,4.3958335,2.185159,2.629672,6.2522373,8.058883,-4.247314,-2.0829554
5.468327,4.4026456,2.1468096,2.6669562,6.2043004,7.690176,-4.405331,-2.1643584
5.473309,4.409374,2.1468096,2.6669562,6.2043004,7.690176,-4.405331,-2.1643584
5.4782543,4.4159703,2.10846,2.6989143,6.1574287,7.3406224,-4.582502,-2.1547816
5.483259,4.422525,2.10846,2.6989143,6.1574287,7.3406224,-4.582502,-2.1547816
5.4882255,4.428939,2.0669148,2.7266111,6.1116223,7.053318,-4.7500963,-2.1260512
5.4932294,4.4352884,2.0669148,2.7266111,6.1116223,7.053318,-4.7500963,-2.1260512
5.4981847,4.4414997,2.0200431,2.746851,6.0604897,6.9288197,-4.8841715,-2.030283
5.5031967,4.447674,2.0200431,2.746851,6.0604897,6.9288197,-4.8841715,-2.030283
5.5081515,4.4537153,1.9710408,2.7638953,6.005096,6.8665705,-5.133168,-1.8914193
5.513142,4.459697,1.9710408,2.7638953,6.005096,6.8665705,-5.133168,-1.8914193
5.5180626,4.4655476,1.9177777,2.778809,5.944376,6.9000893,-5.329493,-1.733402
5.5230474,4.4713745,1.9177777,2.778809,5.944376,6.9000893,-5.329493,-1.733402
5.5279517,4.477097,1.8613186,2.7905269,5.8708725,6.8569937,-5.5880666,-1.4221559
5.5328894,4.482761,1.8613186,2.7905269,5.8708725,6.8569937,-5.5880666,-1.4221559
5.5377455,4.4882755,1.8048596,2.797984,5.786717,6.727707,-5.7987566,-1.4030021
5.542555,4.4936466,1.8048596,2.797984,5.786717,6.727707,-5.7987566,-1.4030021
5.5473833,4.499,1.7462701,2.7990491,5.6929736,6.4787097,-5.9759274,-1.316811
5.5523286,4.5043902,1.7462701,2.7990491,5.6929736,6.4787097,-5.9759274,-1.316811
5.557084,4.509545,1.6876805,2.7915921,5.592839,6.066907,-6.143522,-1.2354081
5.5618644,4.514637,1.6876805,2.7915921,5.592839,6.066907,-6.143522,-1.2354081
5.566702,4.5197134,1.6301563,2.7756133,5.4916387,5.6886234,-6.3446345,-1.1492168
5.5715427,4.5247517,1.6301563,2.7756133,5.4916387,5.6886234,-6.3446345,-1.1492168
5.5764303,4.5295796,1.5747625,2.7521775,5.39683,5.2624555,-6.517017,-1.0151415
5.5813613,4.5343795,1.5747625,2.7521775,5.39683,5.2624555,-6.517017,-1.0151415
5.586232,4.539008,1.5225645,2.7202194,5.308413,4.9081135,-6.7085533,-0.91458505
5.591121,4.5435863,1.5225645,2.7202194,5.308413,4.9081135,-6.7085533,-0.91458505
5.595941,4.548008,1.4735624,2.6797395,5.2295833,4.5537715,-6.8809357,-0.78050977
5.6008067,4.552409,1.4735624,2.6797395,5.2295833,4.5537715,-6.8809357,-0.78050977
5.605617,4.5566382,1.4309518,2.6328678,5.1614065,4.19943,-7.0341644,-0.81881696
5.6104527,4.56083,1.4309518,2.6328678,5.1614065,4.19943,-7.0341644,-0.81881696
5.6152387,4.564863,1.3926023,2.5806699,5.1049476,3.9025488,-7.1059904,-0.8714894
5.6200676,4.5688763,1.3926023,2.5806699,5.1049476,3.9025488,-7.1059904,-0.8714894
5.624853,4.5727425,1.3563833,2.524211,5.059141,3.6583402,-7.1490865,-0.8810662
5.629657,4.5765715,1.3563833,2.524211,5.059141,3.6583402,-7.1490865,-0.8810662
5.634431,4.580265,1.3222948,2.464556,5.022922,3.490746,-7.201759,-0.89543146
5.639245,4.5839405,1.3222948,2.464556,5.022922,3.490746,-7.201759,-0.89543146
5.6440296,4.5874743,1.2860758,2.4006402,4.993095,3.4141316,-7.326257,-0.93373865
5.6488347,4.5909777,1.2860758,2.4006402,4.993095,3.4141316,-7.326257,-0.93373865
5.6536093,4.5943556,1.2477263,2.3324633,4.9643326,3.3566709,-7.479486,-0.79966336
5.658423,4.5977187,1.2477263,2.3324633,4.9643326,3.3566709,-7.479486,-0.79966336
5.663197,4.6009364,1.2083116,2.2600253,4.9355702,3.2752678,-7.675811,-0.79008657
5.668009,4.6041403,1.2083116,2.2600253,4.9355702,3.2752678,-7.675811,-0.79008657
5.672789,4.607211,1.1710273,2.1811957,4.9068084,3.107674,-7.9726915,-0.7374141
5.677587,4.6102567,1.1710273,2.1811957,4.9068084,3.107674,-7.9726915,-0.7374141
5.6823583,4.613177,1.1380041,2.0991702,4.8833723,2.9113493,-8.159439,-0.641646
5.6871657,4.6160855,1.1380041,2.0991702,4.8833723,2.9113493,-8.159439,-0.641646
5.691944,4.618853,1.109242,2.0107534,4.8663282,2.7150247,-8.360553,-0.7374141
5.6967583,4.6216097,1.109242,2.0107534,4.8663282,2.7150247,-8.360553,-0.7374141
5.7015595,4.624255,1.0911324,1.9191406,4.8588715,2.4995465,-8.576031,-0.6703765
5.706377,4.62688,1.0911324,1.9191406,4.8588715,2.4995465,-8.576031,-0.6703765
5.7112675,4.6294413,1.0804797,1.8275279,4.865263,2.3463178,-8.734048,-0.63206923
5.716357,4.6320777,1.0804797,1.8275279,4.865263,2.3463178,-8.734048,-0.63206923
5.72126,4.6345234,1.0804797,1.7380457,4.8833723,2.2649148,-8.844181,-0.58897364
5.725949,4.636838,1.0804797,1.7380457,4.8833723,2.2649148,-8.844181,-0.58897364
5.730722,4.639114,1.0890019,1.6560203,4.9195914,2.1787236,-8.954314,-0.545878
5.7356424,4.6414366,1.0890019,1.6560203,4.9195914,2.1787236,-8.954314,-0.545878
5.740603,4.6437006,1.1028503,1.5814518,4.969659,2.1547816,-9.006987,-0.545878
5.745598,4.6459565,1.1028503,1.5814518,4.969659,2.1547816,-9.006987,-0.545878
5.750656,4.648168,1.1198946,1.5154054,5.03464,2.231396,-9.035717,-0.5554548
5.755724,4.650362,1.1198946,1.5154054,5.03464,2.231396,-9.035717,-0.5554548
5.760874,4.6525297,1.1401346,1.4610769,5.1092086,2.3319526,-9.069236,-0.50757074
5.766032,4.6546807,1.1401346,1.4610769,5.1092086,2.3319526,-9.069236,-0.50757074
5.7712674,4.656806,1.1582441,1.4174011,5.190169,2.552219,-9.121908,-0.48362875
5.776512,4.6589146,1.1582441,1.4174011,5.190169,2.552219,-9.121908,-0.48362875
5.781842,4.661011,1.1752883,1.3854431,5.2711287,2.9017725,-9.222465,-0.4165911
5.7872615,4.663122,1.1752883,1.3854431,5.2711287,2.9017725,-9.222465,-0.4165911
5.792696,4.665194,1.1891367,1.3641378,5.3456974,3.1172507,-9.442732,-0.4261679
5.7980585,4.6672187,1.1891367,1.3641378,5.3456974,3.1172507,-9.442732,-0.4261679
5.8039308,4.669422,1.2008547,1.3524199,5.412809,3.4045548,-9.734824,-0.19153613
5.8039308,4.669422,1.2008547,1.3524199,5.412809,3.4045548,-9.734824,-0.19153613
5.8039308,4.669422,1.2008547,1.3524199,5.412809,3.4045548,-9.734824,-0.19153613
5.8039308,4.669422,1.2115073,1.3481588,5.4724636,3.4141316,-9.878476,0.05746084
5.821034,4.6757584,1.2253557,1.3492241,5.521466,3.4045548,-10.108319,0.23463176
5.8316092,4.679612,1.2253557,1.3492241,5.521466,3.4045548,-10.108319,0.23463176
5.8316092,4.679612,1.2253557,1.3492241,5.521466,3.4045548,-10.108319,0.23463176
5.8427515,4.6836357,1.2445306,1.3513546,5.561946,3.3375173,-10.295067,0.38307226
5.8482738,4.6856155,1.2679664,1.3534852,5.6034913,3.1411927,-10.453085,0.49320555
5.8539405,4.6876316,1.2679664,1.3534852,5.6034913,3.1411927,-10.453085,0.49320555
5.8596587,4.6896567,1.294598,1.3524199,5.6439714,2.9783869,-10.582372,0.521936
5.86538,4.691667,1.294598,1.3524199,5.6439714,2.9783869,-10.582372,0.521936
5.8711667,4.6936955,1.3286865,1.3524199,5.690843,2.8203697,-10.673351,0.49320555
5.8769507,4.6957073,1.3286865,1.3524199,5.690843,2.8203697,-10.673351,0.49320555
5.8827796,4.6977386,1.3649054,1.3534852,5.73878,2.7102363,-10.726024,0.5363012
5.8885937,4.699749,1.3649054,1.3534852,5.73878,2.7102363,-10.726024,0.5363012
5.8945465,4.7018075,1.4043202,1.3588115,5.7941737,2.5570073,-10.740389,0.49799395
5.9004316,4.703827,1.4043202,1.3588115,5.7941737,2.5570073,-10.740389,0.49799395
5.906389,4.7058735,1.4458655,1.3662684,5.8548937,2.4660277,-10.79785,0.45010993
5.912344,4.707904,1.4458655,1.3662684,5.8548937,2.4660277,-10.79785,0.45010993
5.918382,4.7099676,1.4874108,1.3758557,5.9156137,2.3942018,-10.821792,0.4309563
5.924417,4.712015,1.4874108,1.3758557,5.9156137,2.3942018,-10.821792,0.4309563
5.9305263,4.7141004,1.5278909,1.3875736,5.9763336,2.3798366,-10.79785,0.47405192
5.936639,4.7161713,1.5278909,1.3875736,5.9763336,2.3798366,-10.79785,0.47405192
5.9428062,4.7182612,1.5683709,1.4003568,6.037054,2.3080103,-10.778696,0.40222588
5.9489837,4.720339,1.5683709,1.4003568,6.037054,2.3080103,-10.778696,0.40222588
5.955225,4.722438,1.6067204,1.4142052,6.0945783,2.1978772,-10.788273,0.34476504
5.961469,4.7245226,1.6067204,1.4142052,6.0945783,2.1978772,-10.788273,0.34476504
5.967771,4.726626,1.6429394,1.4269885,6.146776,2.1547816,-10.807426,0.29209262
5.9740763,4.7287145,1.6429394,1.4269885,6.146776,2.1547816,-10.807426,0.29209262
5.9804287,4.730814,1.673832,1.4387063,6.189387,2.0590134,-10.869676,0.22984336
5.9867845,4.7328987,1.673832,1.4387063,6.189387,2.0590134,-10.869676,0.22984336
5.9931774,4.734989,1.7025943,1.4493589,6.223475,2.006341,-10.907983,0.14844051
5.999573,4.737064,1.7025943,1.4493589,6.223475,2.006341,-10.907983,0.14844051
6.005993,4.739164,1.7302911,1.4557506,6.2447805,2.0015526,-10.898406,0.24420857
6.012422,4.7412496,1.7302911,1.4557506,6.2447805,2.0015526,-10.898406,0.24420857
6.018853,4.7433357,1.753727,1.4568158,6.2575636,2.030283,-10.955867,0.22505496
6.0252924,4.745407,1.753727,1.4568158,6.2575636,2.030283,-10.955867,0.22505496
6.031737,4.7474985,1.7750323,1.4504242,6.258629,2.111686,-10.907983,0.33518824
6.038183,4.7495737,1.7750323,1.4504242,6.258629,2.111686,-10.907983,0.33518824
6.044615,4.7516694,1.7963375,1.4387063,6.2479763,2.2505496,-10.927136,0.4261679
6.051062,4.753751,1.7963375,1.4387063,6.2479763,2.2505496,-10.927136,0.4261679
6.057439,4.7559075,1.8187081,1.4248579,6.2277365,2.3942018,-10.85531,0.5650316
6.063815,4.758068,1.8187081,1.4248579,6.2277365,2.3942018,-10.85531,0.5650316
6.069934,4.7601743,1.8400134,1.4088789,6.1968436,2.542642,-10.769119,0.51235914
6.076046,4.762246,1.8400134,1.4088789,6.1968436,2.542642,-10.769119,0.51235914
6.0821433,4.7643414,1.862384,1.3907695,6.1563635,2.7485435,-10.6877165,0.545878
6.0882187,4.7664123,1.862384,1.3907695,6.1563635,2.7485435,-10.6877165,0.545878
6.0942435,4.768491,1.8847544,1.3779863,6.1041656,2.992752,-10.625467,0.5363012
6.100277,4.77056,1.8847544,1.3779863,6.1041656,2.992752,-10.625467,0.5363012
6.106241,4.7726345,1.9060597,1.3694642,6.0391846,3.323152,-10.534488,0.48841715
6.1122255,4.774705,1.9060597,1.3694642,6.0391846,3.323152,-10.534488,0.48841715
6.1181154,4.7767787,1.9220387,1.3683989,5.960355,3.6487634,-10.409989,0.46447513
6.1240134,4.778845,1.9220387,1.3683989,5.960355,3.6487634,-10.409989,0.46447513
6.1298137,4.7809196,1.9316261,1.3747904,5.86022,3.8833952,-10.314221,0.521936
6.1356215,4.782988,1.9316261,1.3747904,5.86022,3.8833952,-10.314221,0.521936
6.1412997,4.785055,1.9294956,1.3886389,5.73878,4.050989,-10.261548,0.6847417
6.14698,4.787114,1.9294956,1.3886389,5.73878,4.050989,-10.261548,0.6847417
6.152535,4.7891636,1.9167124,1.4110094,5.598165,4.084508,-10.19451,0.7469909
6.1580863,4.7912035,1.9167124,1.4110094,5.598165,4.084508,-10.19451,0.7469909
6.1634946,4.793227,1.8911461,1.4365758,5.4383755,3.9552212,-10.228029,0.90979666
6.168953,4.7952604,1.8911461,1.4365758,5.4383755,3.9552212,-10.228029,0.90979666
6.1741314,4.7972207,1.8570576,1.4621421,5.264737,3.763685,-10.261548,1.0247183
6.1793537,4.7991896,1.8570576,1.4621421,5.264737,3.763685,-10.261548,1.0247183
6.184409,4.8011265,1.8176428,1.4823822,5.0815115,3.5051112,-10.304645,1.1540052
6.189461,4.8030543,1.8176428,1.4823822,5.0815115,3.5051112,-10.304645,1.1540052
6.194332,4.804941,1.7739669,1.4941001,4.8908296,3.1651347,-10.43872,1.2306197
6.199205,4.8068204,1.7739669,1.4941001,4.8908296,3.1651347,-10.43872,1.2306197
6.203895,4.8086543,1.7270954,1.4941001,4.700147,2.8060043,-10.433931,1.2641385
6.2085776,4.810477,1.7270954,1.4941001,4.700147,2.8060043,-10.433931,1.2641385
6.2130923,4.812257,1.6823542,1.4845127,4.5169215,2.4133554,-10.510546,1.2689269
6.2175946,4.814025,1.6823542,1.4845127,4.5169215,2.4133554,-10.510546,1.2689269
6.221914,4.8157353,1.6397437,1.465338,4.339022,2.1164744,-10.472239,1.1731589
6.2262473,4.817445,1.6397437,1.465338,4.339022,2.1164744,-10.472239,1.1731589
6.230408,4.8190985,1.6003288,1.4397717,4.171776,1.8291701,-10.457873,1.091756
6.23457,4.8207455,1.6003288,1.4397717,4.171776,1.8291701,-10.457873,1.091756
6.2385707,4.822338,1.5630445,1.4099442,4.014117,1.4748282,-10.405201,1.0390835
6.2425814,4.823929,1.5630445,1.4099442,4.014117,1.4748282,-10.405201,1.0390835
6.246444,4.8254533,1.5300214,1.3769209,3.866045,1.2210429,-10.323798,0.90500826
6.250313,4.826975,1.5300214,1.3769209,3.866045,1.2210429,-10.323798,0.90500826
6.254042,4.828456,1.4991287,1.3385714,3.72543,0.9864111,-10.247183,0.93852705
6.2577767,4.8299346,1.4991287,1.3385714,3.72543,0.9864111,-10.247183,0.93852705
6.2577767,4.8299346,1.4991287,1.3385714,3.72543,0.9864111,-10.247183,0.93852705
6.2650237,4.8328247,1.4682361,1.2970262,3.5933373,0.90500826,-10.065224,0.91458505
6.2687545,4.834344,1.4384086,1.2533504,3.4623096,0.8571242,-9.878476,0.9672575
6.2719812,4.835654,1.4384086,1.2533504,3.4623096,0.8571242,-9.878476,0.9672575
6.275255,4.83701,1.4053855,1.211805,3.3355432,0.91937345,-9.68694,0.9864111
6.278564,4.8383765,1.4053855,1.211805,3.3355432,0.91937345,-9.68694,0.9864111
6.281762,4.8397155,1.3681012,1.1745207,3.209842,0.91937345,-9.548077,1.0007763
0.0017766581,4.8410506,1.3681012,1.1745207,3.209842,0.91937345,-9.548077,1.0007763
0.0048482264,4.842355,1.3286865,1.139367,3.0841408,0.8762778,-9.466674,1.067814
0.00790566,4.8436484,1.3286865,1.139367,3.0841408,0.8762778,-9.466674,1.067814
0.010851242,4.844939,1.2871411,1.1052786,2.956309,0.9864111,-9.466674,1.2976574
0.013776956,4.846217,1.2871411,1.1052786,2.956309,0.9864111,-9.466674,1.2976574
0.016595332,4.8474684,1.2424,1.0754511,2.8284774,1.0630256,-9.437943,1.4077905
0.019408565,4.8487134,1.2424,1.0754511,2.8284774,1.0630256,-9.437943,1.4077905
0.022083513,4.8499155,1.1976589,1.0477543,2.6931887,1.2401965,-9.581595,1.508347
0.024820417,4.8511424,1.1976589,1.0477543,2.6931887,1.2401965,-9.581595,1.508347
0.027306955,4.8522797,1.153983,1.0243185,2.5557697,1.2354081,-9.619903,1.6232687
0.029836943,4.853434,1.153983,1.0243185,2.5557697,1.2354081,-9.619903,1.6232687
0.03223891,4.8545594,1.1156335,1.0040784,2.4172852,1.1923125,-9.792285,1.7477672
0.03464573,4.8556843,1.1156335,1.0040784,2.4172852,1.1923125,-9.792285,1.7477672
0.03690438,4.85677,1.0794145,0.9870342,2.278801,1.0486604,-9.883265,1.7956513
0.039183438,4.857863,1.0794145,0.9870342,2.278801,1.0486604,-9.883265,1.7956513
0.04131387,4.858917,1.0463914,0.9721205,2.146708,0.8714894,-9.9790325,1.8531121
0.043459073,4.859977,1.0463914,0.9721205,2.146708,0.8714894,-9.9790325,1.8531121
0.045510888,4.861021,1.0165639,0.9550763,2.0210068,0.6655881,-10.084377,1.8148049
0.047514148,4.862038,1.0165639,0.9550763,2.0210068,0.6655881,-10.084377,1.8148049
0.049377423,4.863018,0.98886704,0.9390973,1.9027625,0.5650316,-10.160992,1.8626889
0.05127445,4.8640137,0.98886704,0.9390973,1.9027625,0.5650316,-10.160992,1.8626889
0.05305683,4.8649845,0.9654312,0.92311835,1.7909098,0.4309563,-10.16578,1.8626889
0.054835197,4.865951,0.9654312,0.92311835,1.7909098,0.4309563,-10.16578,1.8626889
0.056524318,4.8669014,0.94199544,0.9103352,1.6897097,0.23942018,-10.141838,1.8387469
0.058202676,4.8678436,0.94199544,0.9103352,1.6897097,0.23942018,-10.141838,1.8387469
0.059807215,4.8687787,0.91749436,0.8996825,1.5959663,0.110133275,-10.103531,1.9057846
0.06140583,4.869708,0.91749436,0.8996825,1.5959663,0.110133275,-10.103531,1.9057846
0.06291792,4.870613,0.8929933,0.8943562,1.5064842,0.033518825,-9.950302,1.8674773
0.06442129,4.871511,0.8929933,0.8943562,1.5064842,0.033518825,-9.950302,1.8674773
0.06585124,4.872384,0.86529636,0.89329094,1.4223282,0.019153614,-9.797073,1.8387469
0.067275904,4.873252,0.86529636,0.89329094,1.4223282,0.019153614,-9.797073,1.8387469
0.06865121,4.874113,0.83120793,0.89329094,1.3381724,-0.1340753,-9.610326,2.006341
0.07002073,4.874969,0.83120793,0.89329094,1.3381724,-0.1340753,-9.610326,2.006341
0.071317434,4.8757906,0.7928584,0.89861727,1.251886,-0.17717093,-9.399636,1.9680338
0.07260466,4.876606,0.7928584,0.89861727,1.251886,-0.17717093,-9.399636,1.9680338
0.0738423,4.8773937,0.74811727,0.9060741,1.1645343,-0.30645782,-9.241618,2.0111294
0.075064644,4.878171,0.74811727,0.9060741,1.1645343,-0.30645782,-9.241618,2.0111294
0.07622642,4.8789062,0.6991151,0.91353095,1.0771827,-0.40222588,-9.074024,2.0446482
0.07738305,4.879638,0.6991151,0.91353095,1.0771827,-0.40222588,-9.074024,2.0446482
0.07848291,4.8803267,0.6490477,0.9220531,0.98876566,-0.545878,-8.978256,2.0159178
0.07957445,4.8810105,0.6490477,0.9220531,0.98876566,-0.545878,-8.978256,2.0159178
0.0806181,4.881648,0.597915,0.9263141,0.89821815,-0.7230489,-8.901642,2.0350714
0.081676885,4.882295,0.597915,0.9263141,0.89821815,-0.7230489,-8.901642,2.0350714
0.08267049,4.882857,0.5467823,0.9263141,0.80554014,-1.0295067,-8.762778,1.9393034
0.083680764,4.8834276,0.5467823,0.9263141,0.80554014,-1.0295067,-8.762778,1.9393034
0.08467346,4.8839107,0.49991068,0.91992253,0.71818846,-1.2785037,-8.686164,1.7046716
0.08566069,4.88439,0.49991068,0.91992253,0.71818846,-1.2785037,-8.686164,1.7046716
0.086579464,4.884779,0.45303902,0.9060741,0.63509786,-1.5897499,-8.614338,1.5275006
0.087499514,4.885168,0.45303902,0.9060741,0.63509786,-1.5897499,-8.614338,1.5275006
0.08834222,4.8854995,0.40723267,0.88689935,0.5594641,-1.7908629,-8.513782,1.4317327
0.0891843,4.885829,0.40723267,0.88689935,0.5594641,-1.7908629,-8.513782,1.4317327
0.089950725,4.886091,0.36036104,0.861333,0.48809135,-1.9776106,-8.480263,1.2114661
0.09071257,4.886351,0.36036104,0.861333,0.48809135,-1.9776106,-8.480263,1.2114661
0.09140687,4.8865676,0.31561992,0.8283098,0.42204496,-2.15957,-8.394072,1.1492168
0.09210115,4.8867836,0.31561992,0.8283098,0.42204496,-2.15957,-8.394072,1.1492168
0.09273027,4.88696,0.26981354,0.7867645,0.36132488,-2.303222,-8.37013,1.1683705
0.09335695,4.887136,0.26981354,0.7867645,0.36132488,-2.303222,-8.37013,1.1683705
0.09392165,4.887264,0.22507244,0.73563176,0.3069964,-2.3654714,-8.331821,1.0582372
0.094490275,4.8873916,0.22507244,0.73563176,0.3069964,-2.3654714,-8.331821,1.0582372
0.094994284,4.88748,0.18033133,0.6781075,0.2558637,-2.3223755,-8.288726,1.0869676
0.09549524,4.887567,0.18033133,0.6781075,0.2558637,-2.3223755,-8.288726,1.0869676
0.09549524,4.887567,0.18033133,0.6781075,0.2558637,-2.3223755,-8.288726,1.0869676
0.09607919,4.887617,0.13772075,0.61419165,0.204731,-2.2266076,-8.279149,0.94810385
0.09715704,4.887659,0.09617544,0.5460147,0.15253304,-2.0590134,-8.269572,1.0773908
0.09715704,4.887659,0.09617544,0.5460147,0.15253304,-2.0590134,-8.269572,1.0773908
0.097464554,4.8876266,0.055695392,0.47357672,0.09926982,-1.8387469,-8.250419,1.1013328
0.097464554,4.8876266,0.055695392,0.47357672,0.09926982,-1.8387469,-8.250419,1.1013328
0.09805459,4.8875637,0.055695392,0.47357672,0.09926982,-1.8387469,-8.250419,1.1013328
0.09828479,4.887491,0.015215342,0.40113875,0.040680278,-1.6328455,-8.221688,1.115698
0.09843781,4.887383,-0.021003649,0.3276355,-0.022170324,-1.364695,-8.259995,1.2066777
0.0985907,4.8872747,-0.021003649,0.3276355,-0.022170324,-1.364695,-8.259995,1.2066777
0.09864763,4.887125,-0.05509211,0.25200173,-0.09034725,-1.1061212,-8.274361,1.2737153
0.09870499,4.8869743,-0.05509211,0.25200173,-0.09034725,-1.1061212,-8.274361,1.2737153
0.09859054,4.886767,-0.08705004,0.18062901,-0.16491576,-0.8619126,-8.336611,1.3120226
0.09847694,4.8865595,-0.08705004,0.18062901,-0.16491576,-0.8619126,-8.336611,1.3120226
0.098144315,4.886365,-0.11900798,0.11458261,-0.24374533,-0.6703765,-8.389283,1.3838485
0.09780864,4.886168,-0.11900798,0.11458261,-0.24374533,-0.6703765,-8.389283,1.3838485
0.09736143,4.886014,-0.14883539,0.052797277,-0.32470542,-0.51714754,-8.480263,1.4987702
0.09691114,4.8858595,-0.14883539,0.052797277,-0.32470542,-0.51714754,-8.480263,1.4987702
0.096365996,4.8856635,-0.17759752,-0.005792269,-0.41099185,-0.36391866,-8.5473,1.4556746
0.09582078,4.885468,-0.17759752,-0.005792269,-0.41099185,-0.36391866,-8.5473,1.4556746
0.09518451,4.885265,-0.20635967,-0.059055492,-0.49408248,-0.2777274,-8.686164,1.541866
0.09454829,4.8850617,-0.20635967,-0.059055492,-0.49408248,-0.2777274,-8.686164,1.541866
0.09382389,4.8848305,-0.23405655,-0.105927125,-0.5750426,-0.21547815,-8.781932,1.541866
0.0930995,4.8845997,-0.23405655,-0.105927125,-0.5750426,-0.21547815,-8.781932,1.541866
0.092291474,4.8843455,-0.2617534,-0.14640717,-0.65387213,-0.22505496,-8.815451,1.5514427
0.09148186,4.884091,-0.2617534,-0.14640717,-0.65387213,-0.22505496,-8.815451,1.5514427
0.09059338,4.883808,-0.28731975,-0.18049563,-0.72844064,-0.22026655,-8.844181,1.532289
0.08970501,4.883526,-0.28731975,-0.18049563,-0.72844064,-0.22026655,-8.844181,1.532289
0.0887447,4.8832273,-0.31075558,-0.21032305,-0.79661757,-0.29688102,-8.939949,1.5658079
0.08778456,4.8829293,-0.31075558,-0.21032305,-0.79661757,-0.29688102,-8.939949,1.5658079
0.08676111,4.8825846,-0.33206087,-0.23482412,-0.86159873,-0.33997664,-9.030929,1.484405
0.08573138,4.882239,-0.33206087,-0.23482412,-0.86159873,-0.33997664,-9.030929,1.484405
0.08463807,4.881835,-0.35230088,-0.25506416,-0.919123,-0.33997664,-9.141062,1.3742718
0.08354062,4.881429,-0.35230088,-0.25506416,-0.919123,-0.33997664,-9.141062,1.3742718
0.08242377,4.881019,-0.37147567,-0.27104312,-0.9702557,-0.29209262,-9.241618,1.3742718
0.08242377,4.881019,-0.37147567,-0.27104312,-0.9702557,-0.29209262,-9.241618,1.3742718
0.08016149,4.8801966,-0.39065042,-0.28595683,-1.0224537,-0.18195933,-9.3661175,1.3982137
0.07899104,4.8797784,-0.39065042,-0.28595683,-1.0224537,-0.18195933,-9.3661175,1.3982137
0.07775371,4.879343,-0.40769464,-0.29660946,-1.0714558,-0.12928689,-9.504981,1.4269443
0.07651637,4.878907,-0.40769464,-0.29660946,-1.0714558,-0.12928689,-9.504981,1.4269443
0.07522398,4.878478,-0.4236736,-0.30513158,-1.1183275,-0.090979666,-9.643845,1.5514427
0.07393287,4.8780494,-0.4236736,-0.30513158,-1.1183275,-0.090979666,-9.643845,1.5514427
0.07259835,4.87763,-0.43752205,-0.3136537,-1.1598728,-0.10055647,-9.749189,1.6759412
0.07126412,4.8772125,-0.43752205,-0.3136537,-1.1598728,-0.10055647,-9.749189,1.6759412
0.0698917,4.8767753,-0.44923997,-0.3221758,-1.1960918,-0.05746084,-9.9790325,1.6759412
0.06851941,4.876339,-0.44923997,-0.3221758,-1.1960918,-0.05746084,-9.9790325,1.6759412
0.06711448,4.875885,-0.45776206,-0.33389372,-1.2269844,-0.062249243,-10.089166,1.6472107
0.06570821,4.875432,-0.45776206,-0.33389372,-1.2269844,-0.062249243,-10.089166,1.6472107
0.06427625,4.874958,-0.46202314,-0.34454638,-1.2504202,0.0047884034,-10.228029,1.5849615
0.0628514,4.874487,-0.46202314,-0.34454638,-1.2504202,0.0047884034,-10.228029,1.5849615
0.061411496,4.874011,-0.4598926,-0.35200322,-1.2632034,0.08619126,-10.414778,1.5658079
0.059971534,4.8735356,-0.4598926,-0.35200322,-1.2632034,0.08619126,-10.414778,1.5658079
0.05853117,4.8730564,-0.45243576,-0.355199,-1.2674645,0.17717093,-10.539276,1.4939818
0.05709081,4.8725777,-0.45243576,-0.355199,-1.2674645,0.17717093,-10.539276,1.4939818
0.055654816,4.8721085,-0.44071785,-0.35306847,-1.2642686,0.14844051,-10.658986,1.508347
0.054218836,4.8716397,-0.44071785,-0.35306847,-1.2642686,0.14844051,-10.658986,1.508347
0.05279687,4.871182,-0.4236736,-0.34561163,-1.2525507,0.15322891,-10.726024,1.484405
0.051377818,4.8707256,-0.4236736,-0.34561163,-1.2525507,0.15322891,-10.726024,1.484405
0.04998269,4.8702836,-0.40236834,-0.33389372,-1.2323108,0.16280572,-10.773908,1.4508862
0.048586305,4.8698406,-0.40236834,-0.33389372,-1.2323108,0.16280572,-10.773908,1.4508862
0.047231656,4.8694153,-0.3757367,-0.3168495,-1.2035486,0.1388637,-10.807426,1.3934253
0.04586107,4.868984,-0.3757367,-0.3168495,-1.2035486,0.1388637,-10.807426,1.3934253
0.04454205,4.8685684,-0.34697458,-0.29874,-1.1641338,0.04309563,-10.831368,1.3503298
0.043267976,4.868166,-0.34697458,-0.29874,-1.1641338,0.04309563,-10.831368,1.3503298
0.04203807,4.8677773,-0.3160819,-0.27849996,-1.1193928,-0.02873042,-10.845734,1.3024458
0.04080192,4.867386,-0.3160819,-0.27849996,-1.1193928,-0.02873042,-10.845734,1.3024458
0.039621297,4.867028,-0.28199345,-0.25825995,-1.0661294,-0.047884032,-10.817003,1.3263878
0.03844194,4.86667,-0.28199345,-0.25825995,-1.0661294,-0.047884032,-10.817003,1.3263878
0.03732709,4.8663435,-0.24683972,-0.23482412,-1.0096705,-0.076614454,-10.783484,1.3263878
0.036214825,4.866017,-0.24683972,-0.23482412,-1.0096705,-0.076614454,-10.783484,1.3263878
0.035190947,4.865713,-0.21275125,-0.21032305,-0.94788516,-0.18195933,-10.682928,1.292869
0.034170218,4.865409,-0.21275125,-0.21032305,-0.94788516,-0.18195933,-10.682928,1.292869
0.033247516,4.865133,-0.17866279,-0.18688722,-0.878643,-0.23463176,-10.630256,1.1348516
0.032326587,4.8648567,-0.17866279,-0.18688722,-0.878643,-0.23463176,-10.630256,1.1348516
0.031509973,4.864612,-0.1456396,-0.16025561,-0.806205,-0.35913026,-10.510546,1.1348516
0.030694414,4.864367,-0.1456396,-0.16025561,-0.806205,-0.35913026,-10.510546,1.1348516
0.029967703,4.864153,-0.11474692,-0.13575453,-0.7327017,-0.40701428,-10.352529,1.0965444
0.029241906,4.8639393,-0.11474692,-0.13575453,-0.7327017,-0.40701428,-10.352529,1.0965444
0.028589146,4.8637533,-0.08598478,-0.108057655,-0.6549374,-0.35434186,-10.208876,1.0534488
0.027937725,4.8635674,-0.08598478,-0.108057655,-0.6549374,-0.35434186,-10.208876,1.0534488
0.027368888,4.863408,-0.05935317,-0.08142605,-0.5793036,-0.34476504,-10.060435,1.1300632
0.02679932,4.8632483,-0.05935317,-0.08142605,-0.5793036,-0.34476504,-10.060435,1.1300632
0.026314469,4.8631153,-0.033786822,-0.054794434,-0.50793093,-0.37828386,-9.950302,1.0726024
0.025829753,4.862982,-0.033786822,-0.054794434,-0.50793093,-0.37828386,-9.950302,1.0726024
0.025829753,4.862982,-0.033786822,-0.054794434,-0.50793093,-0.37828386,-9.950302,1.0726024
0.024980411,4.862757,-0.0114162695,-0.031358615,-0.44081926,-0.31603462,-9.744401,1.0821792
0.024613887,4.8626633,0.0066932263,-0.007922798,-0.37903392,-0.2681506,-9.624691,1.1061212
0.024247263,4.862569,0.0066932263,-0.007922798,-0.37903392,-0.2681506,-9.624691,1.1061212
0.023930594,4.8624897,0.022672193,0.014447756,-0.32364017,-0.23463176,-9.495404,1.2114661
0.023615273,4.862411,0.022672193,0.014447756,-0.32364017,-0.23463176,-9.495404,1.2114661
0.02333304,4.8623433,0.033324838,0.033622514,-0.27250746,-0.18674773,-9.361329,1.2114661
0.023052061,4.8622756,0.033324838,0.033622514,-0.27250746,-0.18674773,-9.361329,1.2114661
0.022848079,4.862216,0.041846953,0.050666746,-0.22776636,-0.23463176,-9.294291,1.2641385
0.0226447,4.862157,0.041846953,0.050666746,-0.22776636,-0.23463176,-9.294291,1.2641385
0.022485325,4.862104,0.04823854,0.06558045,-0.19154738,-0.22984336,-9.222465,1.2976574
0.022327468,4.8620515,0.04823854,0.06558045,-0.19154738,-0.22984336,-9.222465,1.2976574
0.02220383,4.8620033,0.0524996,0.07836362,-0.15958944,-0.22984336,-9.121908,1.2689269
0.022080958,4.861955,0.0524996,0.07836362,-0.15958944,-0.22984336,-9.121908,1.2689269
0.022090452,4.861965,0.05356486,0.089016266,-0.13295783,-0.30645782,-9.088389,1.3359646
0.022099828,4.8619757,0.05356486,0.089016266,-0.13295783,-0.30645782,-9.088389,1.3359646
0.022057895,4.861933,0.0524996,0.09647312,-0.11058728,-0.24899697,-9.035717,1.2785037
0.022016464,4.861891,0.0524996,0.09647312,-0.11058728,-0.24899697,-9.035717,1.2785037
0.022030342,4.861862,0.049303804,0.102864705,-0.093543045,-0.29688102,-8.99741,1.2737153
0.022044292,4.8618326,0.049303804,0.102864705,-0.093543045,-0.29688102,-8.99741,1.2737153
0.022038287,4.8617854,0.04610801,0.10819103,-0.08075987,-0.2633622,-9.050082,1.2641385
0.022032544,4.861738,0.04610801,0.10819103,-0.08075987,-0.2633622,-9.050082,1.2641385
0.022074984,4.861703,0.039716423,0.11351735,-0.07223775,-0.35434186,-9.097966,1.2545617
0.02211738,4.8616676,0.039716423,0.11351735,-0.07223775,-0.35434186,-9.097966,1.2545617
0.0222024,4.8616686,0.033324838,0.116713144,-0.06691143,-0.36870706,-9.126697,1.3359646
0.022287374,4.8616695,0.033324838,0.116713144,-0.06691143,-0.36870706,-9.126697,1.3359646
0.022376867,4.8616753,0.025867987,0.118843675,-0.06691143,-0.44532153,-9.179369,1.3503298
0.022466322,4.861681,0.025867987,0.118843675,-0.06691143,-0.44532153,-9.179369,1.3503298
0.022554476,4.861678,0.017345872,0.116713144,-0.0679767,-0.521936,-9.212888,1.3455414
0.022642622,4.8616753,0.017345872,0.116713144,-0.0679767,-0.521936,-9.212888,1.3455414
0.022728158,4.8616714,0.010954284,0.11245208,-0.07117249,-0.61291564,-9.332599,1.3694834
0.022813676,4.8616676,0.010954284,0.11245208,-0.07117249,-0.61291564,-9.332599,1.3694834
0.022892997,4.8616643,0.003497433,0.10819103,-0.077564076,-0.6847417,-9.332599,1.388637
0.022972291,4.8616605,0.003497433,0.10819103,-0.077564076,-0.6847417,-9.332599,1.388637
0.023039991,4.8616304,-0.0050246827,0.09966891,-0.08502093,-0.7374141,-9.41879,1.3311762
0.023107598,4.861601,-0.0050246827,0.09966891,-0.08502093,-0.7374141,-9.41879,1.3311762
0.023167077,4.8615713,-0.014612063,0.086885735,-0.093543045,-0.80445176,-9.466674,1.3694834
0.02322661,4.8615417,-0.014612063,0.086885735,-0.093543045,-0.80445176,-9.466674,1.3694834
0.023274438,4.861505,-0.025264706,0.06877624,-0.10313042,-0.8571242,-9.428367,1.3742718
0.023322241,4.861469,-0.025264706,0.06877624,-0.10313042,-0.8571242,-9.428367,1.3742718
0.02335623,4.8614187,-0.034852087,0.050666746,-0.11378307,-0.8714894,-9.481039,1.3599066
0.023390265,4.8613687,-0.034852087,0.050666746,-0.11378307,-0.8714894,-9.481039,1.3599066
0.02340688,4.8612976,-0.045504734,0.030426722,-0.12550098,-0.89064306,-9.524135,1.3072342
0.023423547,4.861226,-0.045504734,0.030426722,-0.12550098,-0.89064306,-9.524135,1.3072342
0.023426378,4.8611603,-0.05402685,0.008056169,-0.13934942,-0.8571242,-9.495404,1.3742718
0.02342915,4.8610954,-0.05402685,0.008056169,-0.13934942,-0.8571242,-9.495404,1.3742718
0.023414258,4.8610187,-0.0614837,-0.014314385,-0.15319785,-0.8379706,-9.485827,1.3551182
0.023399444,4.8609424,-0.0614837,-0.014314385,-0.15319785,-0.8379706,-9.485827,1.3551182
0.023365328,4.8608713,-0.06787529,-0.03881547,-0.17024209,-0.81402856,-9.509769,1.4077905
0.023330618,4.860799,-0.06787529,-0.03881547,-0.17024209,-0.81402856,-9.509769,1.4077905
0.023273895,4.8607216,-0.07426687,-0.064381815,-0.18728632,-0.7661445,-9.509769,1.4173675
0.023220973,4.86065,-0.07426687,-0.064381815,-0.18728632,-0.7661445,-9.509769,1.4173675
0.023146244,4.8605795,-0.08065846,-0.08994816,-0.20433055,-0.6847417,-9.509769,1.4460979
0.023070684,4.8605084,-0.08065846,-0.08994816,-0.20433055,-0.6847417,-9.509769,1.4460979
0.022971412,4.860428,-0.08598478,-0.11657977,-0.22457057,-0.62249243,-9.562442,1.436521
0.022871936,4.8603473,-0.08598478,-0.11657977,-0.22457057,-0.62249243,-9.562442,1.436521
0.02274731,4.8602486,-0.09024584,-0.14108086,-0.24587587,-0.58418524,-9.548077,1.3934253
0.022622505,4.8601494,-0.09024584,-0.14108086,-0.24587587,-0.58418524,-9.548077,1.3934253
0.0224643,4.860088,-0.09770269,-0.1666472,-0.2682464,-0.5315128,-9.562442,1.5035586
0.022305572,4.8600264,-0.09770269,-0.1666472,-0.2682464,-0.5315128,-9.562442,1.5035586
0.022129979,4.859948,-0.10302901,-0.19008303,-0.28742117,-0.51714754,-9.562442,1.4700398
0.02195414,4.85987,-0.10302901,-0.19008303,-0.28742117,-0.51714754,-9.562442,1.4700398
0.021752657,4.8597965,-0.107290074,-0.2113883,-0.3076612,-0.44532153,-9.572019,1.4748282
0.021752657,4.8597965,-0.107290074,-0.2113883,-0.3076612,-0.44532153,-9.572019,1.4748282
0.021307234,4.8596373,-0.11155113,-0.23056307,-0.32683596,-0.46447513,-9.643845,1.4891934
0.021307234,4.8596373,-0.11155113,-0.23056307,-0.32683596,-0.46447513,-9.643845,1.4891934
0.020844068,4.8594933,-0.11474692,-0.2476073,-0.34281492,-0.4405331,-9.629479,1.5131354
0.020582516,4.859425,-0.11474692,-0.2476073,-0.34281492,-0.4405331,-9.629479,1.5131354
0.020337995,4.8593707,-0.11794271,-0.26145574,-0.35666338,-0.51235914,-9.643845,1.5705963
0.020066567,4.8593106,-0.11794271,-0.26145574,-0.35666338,-0.51235914,-9.643845,1.5705963
0.019806067,4.85921,-0.120073244,-0.2742389,-0.36625075,-0.47884035,-9.643845,1.4556746
0.019806067,4.85921,-0.120073244,-0.2742389,-0.36625075,-0.47884035,-9.643845,1.4556746
0.019422088,4.8590903,-0.11900798,-0.28595683,-0.37157705,-0.48362875,-9.677363,1.4939818
0.018961389,4.8589473,-0.11900798,-0.28595683,-0.37157705,-0.48362875,-9.677363,1.4939818
0.018961389,4.8589473,-0.11687745,-0.2955442,-0.37477285,-0.40701428,-9.691729,1.5035586
0.018525222,4.858839,-0.11687745,-0.2955442,-0.37477285,-0.40701428,-9.691729,1.5035586
0.018369181,4.8588004,-0.11687745,-0.2955442,-0.37477285,-0.40701428,-9.691729,1.5035586
0.018369181,4.8588004,-0.11687745,-0.2955442,-0.37477285,-0.40701428,-9.691729,1.5035586
0.017554399,4.8585973,-0.11048587,-0.30726212,-0.36944655,-0.33997664,-9.65821,1.4796166
0.017270165,4.858534,-0.11048587,-0.30726212,-0.36944655,-0.33997664,-9.65821,1.4796166
0.017005915,4.8584347,-0.107290074,-0.31045792,-0.36305496,-0.35434186,-9.624691,1.4221559
0.016741343,4.8583364,-0.107290074,-0.31045792,-0.36305496,-0.35434186,-9.624691,1.4221559
0.016483286,4.858228,-0.10302901,-0.3136537,-0.3555981,-0.29209262,-9.639056,1.4077905
0.016225938,4.858121,-0.10302901,-0.3136537,-0.3555981,-0.29209262,-9.639056,1.4077905
0.015964922,4.8579903,-0.09876795,-0.31578422,-0.3492065,-0.23463176,-9.639056,1.3934253
0.015705956,4.8578625,-0.09876795,-0.31578422,-0.3492065,-0.23463176,-9.639056,1.3934253
0.015355365,4.8576775,-0.092376366,-0.3168495,-0.33855388,-0.17717093,-9.662998,1.3359646
0.015008821,4.8574924,-0.092376366,-0.3168495,-0.33855388,-0.17717093,-9.662998,1.3359646
0.014586368,4.8573155,-0.089180574,-0.3168495,-0.32470542,-0.11492168,-9.667787,1.3599066
0.01416881,4.857137,-0.089180574,-0.3168495,-0.32470542,-0.11492168,-9.667787,1.3599066
0.013687083,4.857015,-0.08598478,-0.31471896,-0.310857,0.05267244,-9.706094,1.3551182
0.013204998,4.856893,-0.08598478,-0.31471896,-0.310857,0.05267244,-9.706094,1.3551182
0.012726693,4.856803,-0.08065846,-0.31152317,-0.29807383,0.12928689,-9.710882,1.388637
0.012247899,4.856713,-0.08065846,-0.31152317,-0.29807383,0.12928689,-9.710882,1.388637
0.011786663,4.856619,-0.07426687,-0.30832738,-0.28316012,0.19632454,-9.720459,1.3599066
0.011325911,4.8565254,-0.07426687,-0.30832738,-0.28316012,0.19632454,-9.720459,1.3599066
0.0108815115,4.8564363,-0.06574476,-0.30300105,-0.2682464,0.2825158,-9.773131,1.340753
0.010437119,4.8563466,-0.06574476,-0.30300105,-0.2682464,0.2825158,-9.773131,1.340753
0.01000883,4.8562655,-0.058287904,-0.2955442,-0.25226745,0.320823,-9.835381,1.3455414
0.009581401,4.856185,-0.058287904,-0.2955442,-0.25226745,0.320823,-9.835381,1.3455414
0.0091730645,4.856105,-0.048700526,-0.28915262,-0.23628849,0.39743748,-9.825804,1.2976574
0.008765196,4.856025,-0.048700526,-0.28915262,-0.23628849,0.39743748,-9.825804,1.2976574
0.008373649,4.8559575,-0.04017841,-0.2806305,-0.21924424,0.4357447,-9.840169,1.3072342
0.007982197,4.85589,-0.04017841,-0.2806305,-0.21924424,0.4357447,-9.840169,1.3072342
0.0076101325,4.8558297,-0.0284605,-0.26997787,-0.20220003,0.48841715,-9.888053,1.283292
0.007239606,4.855769,-0.0284605,-0.26997787,-0.20220003,0.48841715,-9.888053,1.283292
0.0068878625,4.855723,-0.01674259,-0.25825995,-0.18302526,0.45968673,-9.921572,1.3072342
0.0065361545,4.8556767,-0.01674259,-0.25825995,-0.18302526,0.45968673,-9.921572,1.3072342
0.006207665,4.8556376,-0.006089947,-0.24654204,-0.16278523,0.545878,-9.883265,1.2641385
0.0058792303,4.855598,-0.006089947,-0.24654204,-0.16278523,0.545878,-9.883265,1.2641385
0.005579997,4.855558,0.005627962,-0.23375887,-0.14254521,0.521936,-9.89763,1.2066777
0.0052808933,4.8555174,0.005627962,-0.23375887,-0.14254521,0.521936,-9.89763,1.2066777
0.0050119986,4.855484,0.019476399,-0.22097568,-0.11910939,0.5602432,-9.873688,1.1444284
0.00474319,4.855451,0.019476399,-0.22097568,-0.11910939,0.5602432,-9.873688,1.1444284
0.0044917874,4.855442,0.032259572,-0.20712726,-0.09460831,0.59376204,-9.878476,1.2114661
0.004240485,4.8554335,0.032259572,-0.20712726,-0.09460831,0.59376204,-9.878476,1.2114661
0.0040271096,4.855422,0.043977484,-0.19221355,-0.06904196,0.56982,-9.816227,1.1204864
0.0038138344,4.8554106,0.043977484,-0.19221355,-0.06904196,0.56982,-9.816227,1.1204864
0.003628282,4.8554096,0.054630127,-0.17836511,-0.043475613,0.49320555,-9.758766,1.1492168
0.0034425033,4.855409,0.054630127,-0.17836511,-0.043475613,0.49320555,-9.758766,1.1492168
0.0032796154,4.8554206,0.06315224,-0.16238615,-0.018974531,0.56982,-9.667787,1.1300632
0.0031168312,4.8554325,0.06315224,-0.16238615,-0.018974531,0.56982,-9.667787,1.1300632
0.0029832493,4.8554506,0.07273962,-0.14534192,0.005526551,0.58418524,-9.619903,1.0965444
0.0028497295,4.8554683,0.07273962,-0.14534192,0.005526551,0.58418524,-9.619903,1.0965444
0.0027383189,4.855501,0.08126174,-0.12936294,0.031092897,0.62728083,-9.548077,1.115698
0.0026270053,4.855534,0.08126174,-0.12936294,0.031092897,0.62728083,-9.548077,1.115698
0.0025377297,4.8555727,0.087653324,-0.11231872,0.05026766,0.59376204,-9.452309,1.1109096
0.0024485292,4.855611,0.087653324,-0.11231872,0.05026766,0.59376204,-9.452309,1.1109096
0.0023767282,4.8556595,0.09404491,-0.09740501,0.06837715,0.61770403,-9.414001,1.1204864
0.0023049875,4.8557076,0.09404491,-0.09740501,0.06837715,0.61770403,-9.414001,1.1204864
0.0022476309,4.8557663,0.0972407,-0.08249131,0.08542138,0.6560113,-9.313444,1.13964
0.0021903277,4.855825,0.0972407,-0.08249131,0.08542138,0.6560113,-9.313444,1.13964
0.0021506427,4.855875,0.0972407,-0.06757761,0.09607403,0.6751649,-9.284714,1.0773908
0.0021110084,4.8559256,0.0972407,-0.06757761,0.09607403,0.6751649,-9.284714,1.0773908
0.0020835255,4.8559704,0.09511018,-0.05372917,0.103530884,0.6607997,-9.260772,1.0534488
0.002056088,4.8560147,0.09511018,-0.05372917,0.103530884,0.6607997,-9.260772,1.0534488
0.0020261952,4.8560677,0.09297965,-0.04201126,0.106726676,0.6847417,-9.203311,1.1109096
0.0019963284,4.8561206,0.09297965,-0.04201126,0.106726676,0.6847417,-9.203311,1.1109096
0.0019698294,4.85617,0.09084912,-0.031358615,0.10779194,0.6464345,-9.165004,1.1109096
0.0019431079,4.8562202,0.09084912,-0.031358615,0.10779194,0.6464345,-9.165004,1.1109096
0.0019180197,4.856268,0.08552279,-0.021771235,0.10992247,0.62249243,-9.088389,1.1300632
0.0019180197,4.856268,0.08552279,-0.021771235,0.10992247,0.62249243,-9.088389,1.1300632
0.001870356,4.8563585,0.08019647,-0.015379649,0.11098773,0.59855044,-9.112331,1.1109096
0.0018509116,4.856395,0.08019647,-0.015379649,0.11098773,0.59855044,-9.112331,1.1109096
0.0018301868,4.856428,0.074870154,-0.008988062,0.10992247,0.5602432,-9.083601,1.1300632
0.0018089684,4.8564615,0.074870154,-0.008988062,0.10992247,0.5602432,-9.083601,1.1300632
0.0017829014,4.8564954,0.06954383,-0.0015312112,0.106726676,0.5554548,-9.054871,1.1587936
0.0017565681,4.85653,0.06954383,-0.0015312112,0.106726676,0.5554548,-9.054871,1.1587936
0.0017291898,4.8565583,0.062086977,0.00592564,0.10566141,0.5267244,-9.088389,1.1779473
0.0017019006,4.8565865,0.062086977,0.00592564,0.10566141,0.5267244,-9.088389,1.1779473
0.0017019006,4.8565865,0.062086977,0.00592564,0.10566141,0.5363012,-9.054871,1.115698
0.0016568888,4.856611,0.056760654,0.013382491,0.103530884,0.5363012,-9.054871,1.115698
0.0016273903,4.856632,0.051434334,0.021904606,0.102465615,0.59376204,-9.088389,1.1827357
0.0015993987,4.8566523,0.051434334,0.021904606,0.102465615,0.59376204,-9.088389,1.1827357
0.0015727697,4.856661,0.04610801,0.032557253,0.10033509,0.61291564,-9.112331,1.1444284
0.001545879,4.85667,0.04610801,0.032557253,0.10033509,0.61291564,-9.112331,1.1444284
0.0015134857,4.856676,0.040781688,0.04107937,0.09500877,0.59376204,-9.136273,1.1683705
0.0014809732,4.856683,0.040781688,0.04107937,0.09500877,0.59376204,-9.136273,1.1683705
0.0014510967,4.8566723,0.034390103,0.049601484,0.089682445,0.47405192,-9.227253,1.163582
0.0014209913,4.856661,0.034390103,0.049601484,0.089682445,0.47405192,-9.227253,1.163582
0.0013743126,4.856675,0.030129045,0.0581236,0.08435612,0.49320555,-9.23683,1.283292
0.0013276256,4.8566895,0.030129045,0.0581236,0.08435612,0.49320555,-9.23683,1.283292
0.0012752764,4.8566995,0.025867987,0.06344992,0.07796454,0.47405192,-9.279925,1.292869
0.0012213475,4.8567095,0.025867987,0.06344992,0.07796454,0.47405192,-9.279925,1.292869
0.0011702167,4.856699,0.020541664,0.06771098,0.071572945,0.4405331,-9.308656,1.2449849
0.001117329,4.856688,0.020541664,0.06771098,0.071572945,0.4405331,-9.308656,1.2449849
0.0010552523,4.856689,0.016280606,0.073037304,0.06624663,0.4213795,-9.294291,1.3024458
0.0009927109,4.85669,0.016280606,0.073037304,0.06624663,0.4213795,-9.294291,1.3024458
0.0009295014,4.8566704,0.00988902,0.07729836,0.0609203,0.34476504,-9.361329,1.283292
0.00086653675,4.856652,0.00988902,0.07729836,0.0609203,0.34476504,-9.361329,1.283292
0.0007947869,4.8566327,0.0045626974,0.08262468,0.05346345,0.30166942,-9.3661175,1.3072342
0.0007231861,4.856614,0.0045626974,0.08262468,0.05346345,0.30166942,-9.3661175,1.3072342
0.0006423137,4.8566084,0.00030163955,0.085820474,0.047071867,0.22505496,-9.399636,1.3551182
0.00056142255,4.8566027,0.00030163955,0.085820474,0.047071867,0.22505496,-9.399636,1.3551182
0.0004772055,4.8565884,-0.0039594183,0.089016266,0.042810805,0.18674773,-9.466674,1.3599066
0.00039315262,4.8565736,-0.0039594183,0.089016266,0.042810805,0.18674773,-9.466674,1.3599066
0.0003143131,4.8565297,-0.0071552116,0.09327733,0.03854975,0.17717093,-9.490616,1.3263878
0.0002355177,4.856486,-0.0071552116,0.09327733,0.03854975,0.17717093,-9.490616,1.3263878
0.00014294658,4.8564596,-0.009285741,0.09753838,0.035353955,0.10055647,-9.552865,1.3742718
5.664376e-05,4.856436,-0.009285741,0.09753838,0.035353955,0.10055647,-9.552865,1.3742718
6.2831492,4.8564396,-0.009285741,0.09753838,0.032158162,0.11971009,-9.528923,1.3934253
6.2830567,4.856443,-0.009285741,0.09753838,0.032158162,0.11971009,-9.528923,1.3934253
6.282957,4.8564434,-0.010351005,0.09860365,0.025766576,0.10055647,-9.586384,1.3982137
6.2828574,4.8564434,-0.010351005,0.09860365,0.025766576,0.10055647,-9.586384,1.3982137
6.282789,4.856499,-0.012481534,0.09966891,0.019374989,0.110133275,-9.600749,1.4652514
6.282721,4.856555,-0.012481534,0.09966891,0.019374989,0.110133275,-9.600749,1.4652514
6.282692,4.856633,-0.013546798,0.100734174,0.008722344,0.05746084,-9.576807,1.484405
6.2826624,4.856712,-0.013546798,0.100734174,0.008722344,0.05746084,-9.576807,1.484405
6.28265,4.856795,-0.014612063,0.09966891,-0.0008650357,0.047884032,-9.56723,1.5514427
6.282637,4.8568783,-0.014612063,0.09966891,-0.0008650357,0.047884032,-9.56723,1.5514427
6.2826543,4.856961,-0.015677327,0.09860365,-0.010452416,-0.019153614,-9.524135,1.5705963
6.282671,4.8570437,-0.015677327,0.09860365,-0.010452416,-0.019153614,-9.524135,1.5705963
6.282725,4.8571186,-0.015677327,0.09753838,-0.018974531,-0.05267244,-9.5385,1.4796166
6.2827783,4.857193,-0.015677327,0.09753838,-0.018974531,-0.05267244,-9.5385,1.4796166
6.2828064,4.85727,-0.017807856,0.09434259,-0.028561912,-0.047884032,-9.548077,1.508347
6.2828345,4.8573465,-0.017807856,0.09434259,-0.028561912,-0.047884032,-9.548077,1.508347
6.282858,4.8574185,-0.021003649,0.090081535,-0.03814929,-0.090979666,-9.528923,1.5753847
6.2828813,4.8574905,-0.021003649,0.090081535,-0.03814929,-0.090979666,-9.528923,1.5753847
6.282934,4.857546,-0.022068914,0.086885735,-0.04773667,-0.11492168,-9.533711,1.4987702
6.282934,4.857546,-0.022068914,0.086885735,-0.04773667,-0.11492168,-9.533711,1.4987702
6.283046,4.857646,-0.024199443,0.08262468,-0.058389317,-0.16759412,-9.514558,1.4891934
6.2831087,4.857683,-0.024199443,0.08262468,-0.058389317,-0.16759412,-9.514558,1.4891934
6.2831764,4.8577037,-0.025264706,0.07836362,-0.0679767,-0.19632454,-9.509769,1.4652514
5.909374e-05,4.8577247,-0.025264706,0.07836362,-0.0679767,-0.19632454,-9.509769,1.4652514
0.000117176605,4.8577476,-0.026329972,0.074102566,-0.07436828,-0.22026655,-9.524135,1.484405
0.00017534723,4.8577704,-0.026329972,0.074102566,-0.07436828,-0.22026655,-9.524135,1.484405
0.00019924859,4.8578167,-0.027395237,0.07090677,-0.08075987,-0.20111294,-9.548077,1.5562311
0.00022324489,4.857863,-0.027395237,0.07090677,-0.08075987,-0.20111294,-9.548077,1.5562311
0.00028167316,4.857868,-0.027395237,0.06771098,-0.08395566,-0.25857377,-9.591172,1.4700398
0.0003400465,4.857874,-0.027395237,0.06771098,-0.08395566,-0.25857377,-9.591172,1.4700398
