Pitch,Roll,Gyro_X,Gyro_Y,Gyro_Z,Accel_X,Accel_Y,Accel_Z
6.2609096,4.9349203,-0.0614837,-0.02496703,-0.020039797,0.29688102,-9.610326,2.2122424
6.2607665,4.9349136,-0.0614837,-0.02496703,-0.020039797,0.29688102,-9.610326,2.2122424
6.260615,4.934813,-0.05935317,-0.023901764,-0.020039797,0.2633622,-9.586384,2.1547816
6.2604556,4.934709,-0.05935317,-0.023901764,-0.020039797,0.2633622,-9.586384,2.1547816
6.2605624,4.934675,-0.057222642,-0.02496703,-0.02110506,0.19153613,-9.572019,2.1691468
6.26067,4.9346423,-0.057222642,-0.02496703,-0.02110506,0.19153613,-9.572019,2.1691468
6.260728,4.9346676,-0.05402685,-0.026032293,-0.02110506,0.19153613,-9.595961,2.1978772
6.260785,4.9346933,-0.05402685,-0.026032293,-0.02110506,0.19153613,-9.595961,2.1978772
6.260843,4.9347205,-0.052961584,-0.026032293,-0.020039797,0.18674773,-9.634268,2.2122424
6.2609,4.9347477,-0.052961584,-0.026032293,-0.020039797,0.18674773,-9.634268,2.2122424
6.260877,4.9347973,-0.049765788,-0.027097559,-0.018974531,0.22026655,-9.677363,2.2649148
6.2608542,4.9348474,-0.049765788,-0.027097559,-0.018974531,0.22026655,-9.677363,2.2649148
6.2609086,4.934717,-0.045504734,-0.02496703,-0.016844003,0.18195933,-9.682152,2.1452048
6.260964,4.934587,-0.045504734,-0.02496703,-0.016844003,0.18195933,-9.682152,2.1452048
6.261048,4.934478,-0.041243672,-0.0228365,-0.014713474,0.15801731,-9.725247,2.1547816
6.2611327,4.934369,-0.041243672,-0.0228365,-0.014713474,0.15801731,-9.725247,2.1547816
6.2611794,4.9342403,-0.039113145,-0.0228365,-0.012582945,0.18674773,-9.68694,2.1404164
6.2612267,4.934111,-0.039113145,-0.0228365,-0.012582945,0.18674773,-9.68694,2.1404164
6.261262,4.93398,-0.03698262,-0.0228365,-0.010452416,0.19153613,-9.725247,2.1404164
6.2612977,4.933849,-0.03698262,-0.0228365,-0.010452416,0.19153613,-9.725247,2.1404164
6.2614098,4.9337697,-0.034852087,-0.0228365,-0.009387151,0.16280572,-9.787497,2.183512
6.2615223,4.933691,-0.034852087,-0.0228365,-0.009387151,0.16280572,-9.787497,2.183512
6.2615995,4.9335814,-0.031656295,-0.021771235,-0.0072566224,0.19632454,-9.811439,2.1883004
6.261678,4.9334726,-0.031656295,-0.021771235,-0.0072566224,0.19632454,-9.811439,2.1883004
6.261805,4.933419,-0.0284605,-0.0228365,-0.004060829,0.15322891,-9.744401,2.1787236
6.261932,4.9333663,-0.0284605,-0.0228365,-0.004060829,0.15322891,-9.744401,2.1787236
6.262009,4.933259,-0.025264706,-0.023901764,0.0012654932,0.17717093,-9.77792,2.15957
6.2620864,4.9331512,-0.025264706,-0.023901764,0.0012654932,0.17717093,-9.77792,2.15957
6.262119,4.93303,-0.02313418,-0.023901764,0.0033960221,0.17717093,-9.758766,2.0925324
6.2621512,4.9329085,-0.02313418,-0.023901764,0.0033960221,0.17717093,-9.758766,2.0925324
6.2621713,4.932987,-0.019938385,-0.02496703,0.0033960221,0.20590134,-9.725247,2.1978772
6.262191,4.933066,-0.019938385,-0.02496703,0.0033960221,0.20590134,-9.725247,2.1978772
6.2621183,4.9329624,-0.01674259,-0.027097559,0.0044612866,0.22984336,-9.720459,2.1547816
6.2620454,4.932859,-0.01674259,-0.027097559,0.0044612866,0.22984336,-9.720459,2.1547816
6.261922,4.9327955,-0.014612063,-0.029228088,0.005526551,0.2681506,-9.739613,2.15957
6.2617984,4.9327316,-0.014612063,-0.029228088,0.005526551,0.2681506,-9.739613,2.15957
6.2617197,4.9326363,-0.0114162695,-0.029228088,0.005526551,0.25378537,-9.734824,2.135628
6.261641,4.932541,-0.0114162695,-0.029228088,0.005526551,0.25378537,-9.734824,2.135628
6.261544,4.9324574,-0.009285741,-0.029228088,0.0044612866,0.31124622,-9.715671,2.0973208
6.2614465,4.932374,-0.009285741,-0.029228088,0.0044612866,0.31124622,-9.715671,2.0973208
6.2613564,4.9322886,-0.006089947,-0.030293351,0.0033960221,0.32561144,-9.68694,2.0638018
6.261266,4.9322033,-0.006089947,-0.030293351,0.0033960221,0.32561144,-9.68694,2.0638018
6.2611327,4.932232,-0.0050246827,-0.030293351,0.0044612866,0.30645782,-9.730036,2.1978772
6.260999,4.932262,-0.0050246827,-0.030293351,0.0044612866,0.30645782,-9.730036,2.1978772
6.2609,4.9323273,-0.0050246827,-0.029228088,0.005526551,0.29688102,-9.710882,2.2266076
6.260801,4.932393,-0.0050246827,-0.029228088,0.005526551,0.29688102,-9.710882,2.2266076
6.2606673,4.932353,-0.0039594183,-0.030293351,0.0044612866,0.29209262,-9.720459,2.1547816
6.260534,4.932314,-0.0039594183,-0.030293351,0.0044612866,0.29209262,-9.720459,2.1547816
6.2603893,4.932309,-0.0028941538,-0.031358615,0.0033960221,0.30645782,-9.706094,2.1691468
6.2602468,4.9323044,-0.0028941538,-0.031358615,0.0033960221,0.30645782,-9.706094,2.1691468
6.2601457,4.932233,-0.0007636249,-0.031358615,0.005526551,0.30645782,-9.720459,2.1164744
6.2600446,4.9321613,-0.0007636249,-0.031358615,0.005526551,0.30645782,-9.720459,2.1164744
6.2599154,4.932123,0.0024321685,-0.028162822,0.0065918155,0.30645782,-9.710882,2.1452048
6.259785,4.932085,0.0024321685,-0.028162822,0.0065918155,0.30645782,-9.710882,2.1452048
6.259649,4.932092,0.003497433,-0.028162822,0.00765708,0.29688102,-9.725247,2.1739352
6.259511,4.9321,0.003497433,-0.028162822,0.00765708,0.29688102,-9.725247,2.1739352
6.2594175,4.9321775,0.005627962,-0.028162822,0.008722344,0.29209262,-9.710882,2.2122424
6.259323,4.9322553,0.005627962,-0.028162822,0.008722344,0.29209262,-9.710882,2.2122424
6.259224,4.9321947,0.0077584907,-0.02496703,0.009787609,0.30645782,-9.720459,2.1260512
6.259125,4.932134,0.0077584907,-0.02496703,0.009787609,0.30645782,-9.720459,2.1260512
6.2589946,4.9321637,0.00988902,-0.0228365,0.011918138,0.2873042,-9.701305,2.1739352
6.2588634,4.9321923,0.00988902,-0.0228365,0.011918138,0.2873042,-9.701305,2.1739352
6.25882,4.932109,0.00988902,-0.020705972,0.014048667,0.2873042,-9.696517,2.0829554
6.2587767,4.932025,0.00988902,-0.020705972,0.014048667,0.2873042,-9.696517,2.0829554
6.258683,4.9319677,0.010954284,-0.018575443,0.014048667,0.30166942,-9.701305,2.1260512
6.2585897,4.931911,0.010954284,-0.018575443,0.014048667,0.30166942,-9.701305,2.1260512
6.2584805,4.9318714,0.010954284,-0.017510178,0.016179197,0.34955344,-9.68694,2.1164744
6.2583714,4.9318314,0.010954284,-0.017510178,0.016179197,0.34955344,-9.68694,2.1164744
6.2582536,4.9318113,0.013084813,-0.016444914,0.018309724,0.33039984,-9.691729,2.1404164
6.2581334,4.9317913,0.013084813,-0.016444914,0.018309724,0.33039984,-9.691729,2.1404164
6.258049,4.9317365,0.0141500775,-0.015379649,0.019374989,0.29688102,-9.706094,2.1308396
6.257962,4.9316797,0.0141500775,-0.015379649,0.019374989,0.29688102,-9.706094,2.1308396
6.2578297,4.9316587,0.016280606,-0.01324912,0.01724446,0.34476504,-9.696517,2.135628
6.2578297,4.9316587,0.016280606,-0.01324912,0.01724446,0.34476504,-9.696517,2.135628
6.2578297,4.9316587,0.016280606,-0.01324912,0.01724446,0.34476504,-9.696517,2.135628
6.2574854,4.9315934,0.018411135,-0.012183856,0.014048667,0.35434186,-9.682152,2.1164744
6.257373,4.931574,0.019476399,-0.011118591,0.014048667,0.35434186,-9.682152,2.1260512
6.2572584,4.9315543,0.019476399,-0.011118591,0.014048667,0.35434186,-9.682152,2.1260512
6.257174,4.931493,0.020541664,-0.010053327,0.015113931,0.34955344,-9.730036,2.087744
6.2571063,4.931444,0.020541664,-0.010053327,0.015113931,0.34955344,-9.730036,2.087744
6.2571063,4.931444,0.020541664,-0.010053327,0.015113931,0.34955344,-9.730036,2.087744
6.2569237,4.9313354,0.020541664,-0.008988062,0.015113931,0.33997664,-9.730036,2.1068976
6.2568626,4.931284,0.019476399,-0.0068575335,0.016179197,0.33039984,-9.715671,2.087744
6.2567983,4.93122,0.019476399,-0.0068575335,0.016179197,0.33039984,-9.715671,2.087744
6.2566786,4.9312153,0.020541664,-0.00366174,0.01724446,0.34955344,-9.65821,2.1308396
6.2565594,4.9312096,0.020541664,-0.00366174,0.01724446,0.34955344,-9.65821,2.1308396
6.256443,4.931263,0.020541664,-0.00046594674,0.01724446,0.35913026,-9.667787,2.1739352
6.256328,4.9313154,0.020541664,-0.00046594674,0.01724446,0.35913026,-9.667787,2.1739352
6.2562103,4.9313087,0.020541664,0.0027298466,0.01724446,0.35434186,-9.65821,2.1308396
6.2560935,4.9313025,0.020541664,0.0027298466,0.01724446,0.35434186,-9.65821,2.1308396
6.2559752,4.9312973,0.019476399,0.00592564,0.016179197,0.33997664,-9.701305,2.1452048
6.2558565,4.931292,0.019476399,0.00592564,0.016179197,0.33997664,-9.701305,2.1452048
6.2558074,4.931226,0.020541664,0.010186698,0.018309724,0.30645782,-9.65821,2.1021092
6.255758,4.9311595,0.020541664,0.010186698,0.018309724,0.30645782,-9.65821,2.1021092
6.255729,4.9312725,0.019476399,0.013382491,0.018309724,0.2873042,-9.634268,2.1739352
6.2557,4.931386,0.019476399,0.013382491,0.018309724,0.2873042,-9.634268,2.1739352
6.2557034,4.9313054,0.018411135,0.017643549,0.01724446,0.272939,-9.600749,2.1212628
6.255706,4.931225,0.018411135,0.017643549,0.01724446,0.272939,-9.600749,2.1212628
6.2556467,4.9311614,0.018411135,0.020839343,0.01724446,0.30645782,-9.65821,2.111686
6.255588,4.9310985,0.018411135,0.020839343,0.01724446,0.30645782,-9.65821,2.111686
6.255502,4.9310527,0.017345872,0.024035135,0.01724446,0.31603462,-9.600749,2.1068976
6.2554164,4.931007,0.017345872,0.024035135,0.01724446,0.31603462,-9.600749,2.1068976
6.255305,4.930989,0.0141500775,0.02723093,0.015113931,0.35434186,-9.576807,2.1068976
6.255192,4.9309707,0.0141500775,0.02723093,0.015113931,0.35434186,-9.576807,2.1068976
6.2550793,4.930945,0.010954284,0.029361458,0.012983402,0.34476504,-9.639056,2.1212628
6.254971,4.93092,0.010954284,0.029361458,0.012983402,0.34476504,-9.639056,2.1212628
6.2548933,4.9308543,0.0066932263,0.032557253,0.010852873,0.33997664,-9.562442,2.0733786
6.2548156,4.930789,0.0066932263,0.032557253,0.010852873,0.33997664,-9.562442,2.0733786
6.2547283,4.930726,0.003497433,0.035753045,0.008722344,0.32561144,-9.610326,2.1021092
6.2546406,4.9306636,0.003497433,0.035753045,0.008722344,0.32561144,-9.610326,2.1021092
6.2546744,4.930567,0.001366904,0.037883572,0.0065918155,0.272939,-9.653421,2.0925324
6.254708,4.9304695,0.001366904,0.037883572,0.0065918155,0.272939,-9.653421,2.0925324
6.254635,4.93039,-0.0007636249,0.040014103,0.0033960221,0.36391866,-9.672575,2.0638018
6.254563,4.9303102,-0.0007636249,0.040014103,0.0033960221,0.36391866,-9.672575,2.0638018
6.254432,4.93029,-0.0039594183,0.043209895,-0.0019303001,0.34476504,-9.701305,2.1404164
6.254302,4.93027,-0.0039594183,0.043209895,-0.0019303001,0.34476504,-9.701305,2.1404164
6.2543454,4.930172,-0.0039594183,0.045340426,-0.009387151,0.25857377,-9.725247,2.087744
6.2543893,4.9300737,-0.0039594183,0.045340426,-0.009387151,0.25857377,-9.725247,2.087744
6.254521,4.930048,-0.0039594183,0.046405688,-0.015778739,0.18195933,-9.758766,2.1404164
6.2546515,4.930023,-0.0039594183,0.046405688,-0.015778739,0.18195933,-9.758766,2.1404164
6.2547803,4.93001,-0.0050246827,0.045340426,-0.02110506,0.16280572,-9.825804,2.1643584
6.254909,4.929997,-0.0050246827,0.045340426,-0.02110506,0.16280572,-9.825804,2.1643584
6.2550244,4.929957,-0.0050246827,0.04214463,-0.025366118,0.12449849,-9.821015,2.1260512
6.2551394,4.929917,-0.0050246827,0.04214463,-0.025366118,0.12449849,-9.821015,2.1260512
6.255249,4.9298706,-0.0071552116,0.037883572,-0.027496647,0.18195933,-9.873688,2.1499932
6.255359,4.929825,-0.0071552116,0.037883572,-0.027496647,0.18195933,-9.873688,2.1499932
6.25547,4.929779,-0.0071552116,0.037883572,-0.027496647,0.18195933,-9.873688,2.1499932
6.2555413,4.9298487,-0.0071552116,0.035753045,-0.027496647,0.17238252,-9.89763,2.27928
6.255613,4.9299183,-0.0071552116,0.035753045,-0.027496647,0.17238252,-9.89763,2.27928
6.2556934,4.929982,-0.006089947,0.033622514,-0.027496647,0.17238252,-9.921572,2.2697031
6.2557745,4.930047,-0.006089947,0.033622514,-0.027496647,0.17238252,-9.921572,2.2697031
6.2558928,4.9300523,-0.006089947,0.031491987,-0.028561912,0.15801731,-9.959879,2.2122424
6.2560105,4.930058,-0.006089947,0.031491987,-0.028561912,0.15801731,-9.959879,2.2122424
6.2561283,4.930067,-0.0050246827,0.031491987,-0.028561912,0.10055647,-9.969456,2.2218192
6.2562456,4.9300756,-0.0050246827,0.031491987,-0.028561912,0.10055647,-9.969456,2.2218192
6.256367,4.930081,-0.0007636249,0.031491987,-0.025366118,0.07182605,-10.031705,2.2266076
6.2564893,4.930086,-0.0007636249,0.031491987,-0.025366118,0.07182605,-10.031705,2.2266076
6.256611,4.930077,0.003497433,0.033622514,-0.025366118,0.019153614,-10.012551,2.1883004
6.256732,4.930067,0.003497433,0.033622514,-0.025366118,0.019153614,-10.012551,2.1883004
6.256856,4.9300866,0.0077584907,0.033622514,-0.022170324,0,-10.031705,2.2409728
6.2569804,4.9301066,0.0077584907,0.033622514,-0.022170324,0,-10.031705,2.2409728
6.257109,4.9301176,0.0141500775,0.033622514,-0.018974531,-0.01436521,-10.036493,2.2122424
6.2572384,4.9301286,0.0141500775,0.033622514,-0.018974531,-0.01436521,-10.036493,2.2122424
6.257371,4.930162,0.022672193,0.032557253,-0.013648209,-0.047884032,-9.983821,2.231396
6.2575035,4.9301953,0.022672193,0.032557253,-0.013648209,-0.047884032,-9.983821,2.231396
6.257644,4.9302263,0.02906378,0.029361458,-0.006191358,-0.01436521,-10.007763,2.2170308
6.2577844,4.930257,0.02906378,0.029361458,-0.006191358,-0.01436521,-10.007763,2.2170308
6.257927,4.9303102,0.03652063,0.026165664,-0.0008650357,-0.023942016,-9.950302,2.2361844
6.25807,4.9303627,0.03652063,0.026165664,-0.0008650357,-0.023942016,-9.950302,2.2361844
6.258211,4.930436,0.045042746,0.024035135,0.0012654932,0,-9.964667,2.2601264
6.258352,4.9305086,0.045042746,0.024035135,0.0012654932,0,-9.964667,2.2601264
6.2584987,4.930581,0.0524996,0.020839343,0.005526551,0.02873042,-9.940725,2.2361844
6.2586455,4.9306536,0.0524996,0.020839343,0.005526551,0.02873042,-9.940725,2.2361844
6.258795,4.9306893,0.058891185,0.018708814,0.008722344,0.06703765,-9.902418,2.1643584
6.258943,4.9307246,0.058891185,0.018708814,0.008722344,0.06703765,-9.902418,2.1643584
6.259082,4.9308333,0.06634804,0.01551302,0.008722344,0.11971009,-9.801862,2.2170308
6.2592206,4.9309416,0.06634804,0.01551302,0.008722344,0.11971009,-9.801862,2.2170308
6.259359,4.9310513,0.06954383,0.012317227,0.00765708,0.10055647,-9.720459,2.2026656
6.259498,4.9311604,0.06954383,0.012317227,0.00765708,0.10055647,-9.720459,2.2026656
6.2596445,4.9312153,0.07273962,0.011251962,0.0065918155,0.16759412,-9.667787,2.1404164
6.2597904,4.931268,0.07273962,0.011251962,0.0065918155,0.16759412,-9.667787,2.1404164
6.259856,4.9314337,0.074870154,0.010186698,0.0044612866,0.17717093,-9.610326,2.2218192
6.259922,4.931599,0.074870154,0.010186698,0.0044612866,0.17717093,-9.610326,2.2218192
6.2600274,4.931742,0.074870154,0.008056169,0.0012654932,0.18195933,-9.552865,2.15957
6.2601337,4.931885,0.074870154,0.008056169,0.0012654932,0.18195933,-9.552865,2.15957
6.26012,4.932059,0.073804885,0.008056169,-0.0051260935,0.22984336,-9.509769,2.1691468
6.260106,4.932233,0.073804885,0.008056169,-0.0051260935,0.22984336,-9.509769,2.1691468
6.260117,4.9324026,0.07060909,0.010186698,-0.014713474,0.21547815,-9.471462,2.1547816
6.2601285,4.9325724,0.07060909,0.010186698,-0.014713474,0.21547815,-9.471462,2.1547816
6.2601495,4.932735,0.0674133,0.010186698,-0.024300855,0.20590134,-9.44752,2.1547816
6.260172,4.9328976,0.0674133,0.010186698,-0.024300855,0.20590134,-9.44752,2.1547816
6.260145,4.9328613,0.06315224,0.011251962,-0.033888236,0.22026655,-9.41879,2.0685902
6.2601194,4.932824,0.06315224,0.011251962,-0.033888236,0.22026655,-9.41879,2.0685902
6.2601504,4.9327955,0.056760654,0.011251962,-0.04454088,0.21068975,-9.32781,2.078167
6.2601814,4.932766,0.056760654,0.011251962,-0.04454088,0.21068975,-9.32781,2.078167
6.2602115,4.9329004,0.051434334,0.013382491,-0.053062994,0.19153613,-9.351752,2.1260512
6.2602434,4.933034,0.051434334,0.013382491,-0.053062994,0.19153613,-9.351752,2.1260512
6.260195,4.9329796,0.045042746,0.014447756,-0.060519844,0.21547815,-9.346964,2.0398598
6.260147,4.9329247,0.045042746,0.014447756,-0.060519844,0.21547815,-9.346964,2.0398598
6.260133,4.9328713,0.039716423,0.01551302,-0.06904196,0.17717093,-9.3421755,2.0111294
6.260119,4.9328175,0.039716423,0.01551302,-0.06904196,0.17717093,-9.3421755,2.0111294
6.260119,4.932768,0.03652063,0.014447756,-0.075433545,0.1436521,-9.370906,2.0015526
6.260119,4.9327183,0.03652063,0.014447756,-0.075433545,0.1436521,-9.370906,2.0015526
6.2601037,4.932658,0.031194309,0.013382491,-0.077564076,0.11492168,-9.323022,1.9153614
6.260088,4.932598,0.031194309,0.013382491,-0.077564076,0.11492168,-9.323022,1.9153614
6.260104,4.9325476,0.025867987,0.012317227,-0.07969461,0.062249243,-9.337387,1.9536686
6.2601204,4.9324975,0.025867987,0.012317227,-0.07969461,0.062249243,-9.337387,1.9536686
6.2601156,4.932435,0.023737457,0.010186698,-0.08182514,0.062249243,-9.308656,1.8914193
6.2601104,4.932373,0.023737457,0.010186698,-0.08182514,0.062249243,-9.308656,1.8914193
6.260108,4.9323106,0.020541664,0.00592564,-0.08395566,0.076614454,-9.332599,1.9297266
6.260106,4.932248,0.020541664,0.00592564,-0.08395566,0.076614454,-9.332599,1.9297266
6.260114,4.932189,0.017345872,0.0027298466,-0.08502093,0.04309563,-9.323022,1.9297266
6.260123,4.93213,0.017345872,0.0027298466,-0.08502093,0.04309563,-9.323022,1.9297266
6.260149,4.932081,0.015215342,-0.00046594674,-0.08395566,0.08140286,-9.385271,2.0111294
6.2601757,4.932033,0.015215342,-0.00046594674,-0.08395566,0.08140286,-9.385271,2.0111294
6.2601852,4.9319725,0.015215342,-0.00366174,-0.08395566,0.10534488,-9.332599,1.9871874
6.260195,4.931912,0.015215342,-0.00366174,-0.08395566,0.10534488,-9.332599,1.9871874
6.2601967,4.9318457,0.0141500775,-0.007922798,-0.0828904,0.10055647,-9.3661175,1.9728222
6.2601986,4.93178,0.0141500775,-0.007922798,-0.0828904,0.10055647,-9.3661175,1.9728222
6.2602043,4.9317155,0.013084813,-0.011118591,-0.0828904,0.12928689,-9.361329,2.006341
6.260211,4.931651,0.013084813,-0.011118591,-0.0828904,0.12928689,-9.361329,2.006341
6.2602005,4.9315753,0.010954284,-0.016444914,-0.07969461,0.110133275,-9.414001,1.958457
6.26019,4.9314985,0.010954284,-0.016444914,-0.07969461,0.110133275,-9.414001,1.958457
6.260194,4.9314237,0.010954284,-0.020705972,-0.077564076,0.1436521,-9.370906,2.0111294
6.2601976,4.9313593,0.010954284,-0.020705972,-0.077564076,0.1436521,-9.370906,2.0111294
6.2602067,4.9312944,0.013084813,-0.0228365,-0.076498814,0.10055647,-9.41879,1.9871874
6.260216,4.9312296,0.013084813,-0.0228365,-0.076498814,0.10055647,-9.41879,1.9871874
6.260239,4.931172,0.013084813,-0.02496703,-0.07330302,0.12449849,-9.423578,2.0254946
6.2602625,4.931114,0.013084813,-0.02496703,-0.07330302,0.12449849,-9.423578,2.0254946
6.2603,4.9310675,0.0141500775,-0.027097559,-0.07010722,0.08140286,-9.394848,2.0111294
6.260338,4.9310203,0.0141500775,-0.027097559,-0.07010722,0.08140286,-9.394848,2.0111294
6.260368,4.9309664,0.016280606,-0.029228088,-0.06584617,0.12449849,-9.423578,2.0254946
6.2603984,4.9309125,0.016280606,-0.029228088,-0.06584617,0.12449849,-9.423578,2.0254946
6.2604127,4.930849,0.018411135,-0.031358615,-0.062650375,0.12449849,-9.428367,1.9967642
6.260427,4.930785,0.018411135,-0.031358615,-0.062650375,0.12449849,-9.428367,1.9967642
6.2604938,4.930841,0.019476399,-0.03242388,-0.05732405,0.11971009,-9.385271,2.111686
6.260561,4.9308963,0.019476399,-0.03242388,-0.05732405,0.11971009,-9.385271,2.111686
6.260636,4.9308825,0.022672193,-0.03242388,-0.050932467,0.1340753,-9.356541,2.054225
6.2607107,4.930868,0.022672193,-0.03242388,-0.050932467,0.1340753,-9.356541,2.054225
6.2607985,4.930891,0.025867987,-0.03242388,-0.04454088,0.1436521,-9.3421755,2.0733786
6.2608876,4.930915,0.025867987,-0.03242388,-0.04454088,0.1436521,-9.3421755,2.0733786
6.2608876,4.930915,0.025867987,-0.03242388,-0.04454088,0.1436521,-9.3421755,2.0733786
6.260909,4.930785,0.02906378,-0.031358615,-0.039214555,0.16759412,-9.313444,1.9919758
6.260938,4.9307294,0.031194309,-0.031358615,-0.034953497,0.17717093,-9.279925,2.0159178
6.260968,4.9306726,0.031194309,-0.031358615,-0.034953497,0.17717093,-9.279925,2.0159178
6.260968,4.9306726,0.031194309,-0.031358615,-0.034953497,0.17717093,-9.279925,2.0159178
6.2609787,4.9305344,0.032259572,-0.031358615,-0.029627176,0.18674773,-9.289502,2.0015526
6.2608523,4.930487,0.034390103,-0.030293351,-0.029627176,0.2633622,-9.294291,2.0111294
6.260755,4.9304504,0.034390103,-0.030293351,-0.029627176,0.2633622,-9.294291,2.0111294
6.2606444,4.9304028,0.034390103,-0.029228088,-0.028561912,0.29209262,-9.188946,1.9488802
6.2605324,4.930354,0.034390103,-0.029228088,-0.028561912,0.29209262,-9.188946,1.9488802
6.2603884,4.9303236,0.033324838,-0.028162822,-0.029627176,0.34476504,-9.174581,1.9536686
6.260245,4.930293,0.033324838,-0.028162822,-0.029627176,0.34476504,-9.174581,1.9536686
6.2600675,4.930324,0.030129045,-0.02496703,-0.031757705,0.37349546,-9.165004,2.030283
6.2598906,4.930354,0.030129045,-0.02496703,-0.031757705,0.37349546,-9.165004,2.030283
6.259714,4.9303966,0.025867987,-0.0228365,-0.034953497,0.35434186,-9.088389,2.030283
6.259537,4.930439,0.025867987,-0.0228365,-0.034953497,0.35434186,-9.088389,2.030283
6.2593594,4.930484,0.020541664,-0.019640706,-0.039214555,0.35913026,-9.069236,2.0350714
6.259181,4.930528,0.020541664,-0.019640706,-0.039214555,0.35913026,-9.069236,2.0350714
6.259015,4.930595,0.0141500775,-0.016444914,-0.04454088,0.37828386,-9.011775,2.0685902
6.2588487,4.930662,0.0141500775,-0.016444914,-0.04454088,0.37828386,-9.011775,2.0685902
6.258657,4.9306545,0.0066932263,-0.011118591,-0.05199773,0.36870706,-8.983045,1.9776106
6.2584653,4.9306474,0.0066932263,-0.011118591,-0.05199773,0.36870706,-8.983045,1.9776106
6.258266,4.930643,-0.0007636249,-0.007922798,-0.059454583,0.37828386,-8.99741,1.9919758
6.258066,4.9306393,-0.0007636249,-0.007922798,-0.059454583,0.37828386,-8.99741,1.9919758
6.2578692,4.9305973,-0.0071552116,-0.005792269,-0.06584617,0.36391866,-8.973468,1.9536686
6.257673,4.9305553,-0.0071552116,-0.005792269,-0.06584617,0.36391866,-8.973468,1.9536686
6.2574716,4.9305778,-0.01674259,-0.00366174,-0.07330302,0.33518824,-8.930372,2.0111294
6.2572646,4.930601,-0.01674259,-0.00366174,-0.07330302,0.33518824,-8.930372,2.0111294
6.2570834,4.930515,-0.024199443,-0.0015312112,-0.08075987,0.33518824,-8.935161,1.9201498
6.256897,4.9304256,-0.024199443,-0.0015312112,-0.08075987,0.33518824,-8.935161,1.9201498
6.256698,4.930338,-0.032721557,0.0027298466,-0.08715145,0.34476504,-8.944737,1.9297266
6.2564983,4.930249,-0.032721557,0.0027298466,-0.08715145,0.34476504,-8.944737,1.9297266
6.256327,4.930127,-0.04017841,0.00592564,-0.09460831,0.35913026,-8.983045,1.8674773
6.2561564,4.9300046,-0.04017841,0.00592564,-0.09460831,0.35913026,-8.983045,1.8674773
6.255926,4.929926,-0.04763526,0.0069909045,-0.10206516,0.33997664,-8.939949,1.9536686
6.255695,4.929847,-0.04763526,0.0069909045,-0.10206516,0.33997664,-8.939949,1.9536686
6.2554507,4.929775,-0.056157377,0.008056169,-0.11058728,0.35434186,-8.939949,1.9632454
6.2552066,4.929705,-0.056157377,0.008056169,-0.11058728,0.35434186,-8.939949,1.9632454
6.2549515,4.929652,-0.06574476,0.010186698,-0.121239915,0.36391866,-8.978256,1.9919758
6.2546964,4.9296007,-0.06574476,0.010186698,-0.121239915,0.36391866,-8.978256,1.9919758
6.2544346,4.9295015,-0.076397404,0.008056169,-0.1308273,0.36391866,-8.872911,1.9393034
6.2541723,4.9294033,-0.076397404,0.008056169,-0.1308273,0.36391866,-8.872911,1.9393034
6.253902,4.929283,-0.08705004,0.00592564,-0.14361048,0.34476504,-8.892065,1.9393034
6.2536306,4.929164,-0.08705004,0.00592564,-0.14361048,0.34476504,-8.892065,1.9393034
6.253368,4.929008,-0.09876795,0.00592564,-0.15319785,0.33039984,-8.90643,1.9297266
6.2531056,4.928853,-0.09876795,0.00592564,-0.15319785,0.33039984,-8.90643,1.9297266
6.252808,4.928757,-0.11048587,0.003795111,-0.1638505,0.320823,-8.90643,1.9632454
6.252511,4.9286647,-0.11048587,0.003795111,-0.1638505,0.320823,-8.90643,1.9632454
6.252233,4.9284797,-0.121138506,0.0005993177,-0.17663367,0.31603462,-8.949526,1.9440918
6.2519546,4.928294,-0.121138506,0.0005993177,-0.17663367,0.31603462,-8.949526,1.9440918
6.251771,4.9282656,-0.12966062,-0.0015312112,-0.18835159,0.2873042,-8.983045,2.0111294
6.251591,4.9282374,-0.12966062,-0.0015312112,-0.18835159,0.2873042,-8.983045,2.0111294
6.251535,4.928083,-0.13711748,-0.0047270046,-0.19793896,0.24899697,-9.002198,1.9680338
6.251479,4.9279327,-0.13711748,-0.0047270046,-0.19793896,0.24899697,-9.002198,1.9680338
6.2514033,4.9278297,-0.14244379,-0.010053327,-0.20752634,0.21068975,-9.069236,2.0111294
6.251327,4.9277277,-0.14244379,-0.010053327,-0.20752634,0.21068975,-9.069236,2.0111294
6.2512527,4.9275975,-0.14670485,-0.016444914,-0.21391793,0.22505496,-9.112331,2.0015526
6.2511773,4.9274697,-0.14670485,-0.016444914,-0.21391793,0.22505496,-9.112331,2.0015526
6.251073,4.927377,-0.14990065,-0.0228365,-0.21924424,0.15322891,-9.088389,2.0590134
6.250968,4.927285,-0.14990065,-0.0228365,-0.21924424,0.15322891,-9.088389,2.0590134
6.250877,4.9271603,-0.14990065,-0.030293351,-0.22563584,0.16280572,-9.141062,2.0207062
6.250785,4.9270363,-0.14990065,-0.030293351,-0.22563584,0.16280572,-9.141062,2.0207062
6.250666,4.926945,-0.14883539,-0.03881547,-0.22989689,0.16759412,-9.227253,2.0829554
6.2505474,4.926854,-0.14883539,-0.03881547,-0.22989689,0.16759412,-9.227253,2.0829554
6.2504373,4.9266663,-0.14670485,-0.04946811,-0.23309268,0.17238252,-9.217676,1.9632454
6.2503276,4.9264793,-0.14670485,-0.04946811,-0.23309268,0.17238252,-9.217676,1.9632454
6.250174,4.926256,-0.14457433,-0.060120758,-0.23309268,0.18674773,-9.232041,1.8914193
6.2500215,4.926032,-0.14457433,-0.060120758,-0.23309268,0.18674773,-9.232041,1.8914193
6.2498927,4.9258275,-0.14350906,-0.066512346,-0.23202743,0.16759412,-9.3182335,1.9393034
6.249764,4.925622,-0.14350906,-0.066512346,-0.23202743,0.16759412,-9.3182335,1.9393034
6.249602,4.9253945,-0.14457433,-0.0707734,-0.23202743,0.22505496,-9.390059,1.9297266
6.2494407,4.925167,-0.14457433,-0.0707734,-0.23202743,0.22505496,-9.390059,1.9297266
6.2493,4.9249516,-0.14457433,-0.07503446,-0.23096216,0.20111294,-9.385271,1.9393034
6.2491603,4.9247365,-0.14457433,-0.07503446,-0.23096216,0.20111294,-9.385271,1.9393034
6.2490416,4.9245467,-0.14350906,-0.079295516,-0.23202743,0.2777274,-9.414001,2.0111294
6.2489266,4.924361,-0.14350906,-0.079295516,-0.23202743,0.2777274,-9.414001,2.0111294
6.2488217,4.9242387,-0.14031327,-0.08142605,-0.22989689,0.21547815,-9.44752,2.0494366
6.248717,4.9241176,-0.14031327,-0.08142605,-0.22989689,0.21547815,-9.44752,2.0494366
6.2486157,4.923965,-0.139248,-0.08355658,-0.22776636,0.21547815,-9.471462,2.0254946
6.2485147,4.9238143,-0.139248,-0.08355658,-0.22776636,0.21547815,-9.471462,2.0254946
6.2484164,4.9236875,-0.1360522,-0.0856871,-0.22457057,0.17717093,-9.44752,2.0398598
6.2483177,4.923561,-0.1360522,-0.0856871,-0.22457057,0.17717093,-9.44752,2.0398598
6.2482104,4.923466,-0.13179116,-0.08888289,-0.22137478,0.17717093,-9.528923,2.0925324
6.248101,4.9233694,-0.13179116,-0.08888289,-0.22137478,0.17717093,-9.528923,2.0925324
6.2480125,4.9232416,-0.12646483,-0.09207869,-0.21604845,0.17717093,-9.471462,2.0254946
6.247923,4.9231133,-0.12646483,-0.09207869,-0.21604845,0.17717093,-9.471462,2.0254946
6.247835,4.922971,-0.121138506,-0.095274486,-0.20965686,0.20111294,-9.500193,2.0111294
6.2477484,4.9228296,-0.121138506,-0.095274486,-0.20965686,0.20111294,-9.500193,2.0111294
6.2476654,4.92273,-0.11687745,-0.09740501,-0.20433055,0.23942018,-9.524135,2.0494366
6.2475824,4.9226313,-0.11687745,-0.09740501,-0.20433055,0.23942018,-9.524135,2.0494366
6.247507,4.9225354,-0.11155113,-0.09633975,-0.1968737,0.25857377,-9.548077,2.0494366
6.2474318,4.9224415,-0.11155113,-0.09633975,-0.1968737,0.25857377,-9.548077,2.0494366
6.247172,4.9222393,-0.107290074,-0.09420922,-0.18941684,0.36870706,-9.514558,1.9919758
6.246917,4.9220376,-0.107290074,-0.09420922,-0.18941684,0.36870706,-9.514558,1.9919758
6.2465973,4.921983,-0.104094274,-0.08994816,-0.18409052,0.4213795,-9.490616,2.0494366
6.2462807,4.921931,-0.104094274,-0.08994816,-0.18409052,0.4213795,-9.490616,2.0494366
6.245991,4.9219017,-0.10196375,-0.08355658,-0.18195999,0.46926352,-9.485827,2.1068976
6.245703,4.921873,-0.10196375,-0.08355658,-0.18195999,0.46926352,-9.485827,2.1068976
6.2453895,4.9218235,-0.09983322,-0.078230254,-0.18195999,0.49799395,-9.428367,2.0638018
6.245076,4.921775,-0.09983322,-0.078230254,-0.18195999,0.49799395,-9.428367,2.0638018
6.2447734,4.921737,-0.10089848,-0.07396919,-0.18409052,0.5267244,-9.433155,2.1021092
6.244471,4.9217,-0.10089848,-0.07396919,-0.18409052,0.5267244,-9.433155,2.1021092
6.2441945,4.9216795,-0.10302901,-0.06757761,-0.18941684,0.50278234,-9.390059,2.135628
6.2439184,4.9216585,-0.10302901,-0.06757761,-0.18941684,0.50278234,-9.390059,2.135628
6.24362,4.921628,-0.106224805,-0.06118602,-0.19900422,0.5506664,-9.346964,2.135628
6.2433243,4.9215984,-0.106224805,-0.06118602,-0.19900422,0.5506664,-9.346964,2.135628
6.243014,4.921563,-0.1094206,-0.054794434,-0.21072213,0.5554548,-9.370906,2.1308396
6.2427044,4.921529,-0.1094206,-0.054794434,-0.21072213,0.5554548,-9.370906,2.1308396
6.2424116,4.9215055,-0.11261639,-0.04946811,-0.22457057,0.521936,-9.385271,2.183512
6.242119,4.9214826,-0.11261639,-0.04946811,-0.22457057,0.521936,-9.385271,2.183512
6.241805,4.9214497,-0.11794271,-0.045207053,-0.23628849,0.521936,-9.44752,2.1499932
6.2414923,4.921417,-0.11794271,-0.045207053,-0.23628849,0.521936,-9.44752,2.1499932
6.2412195,4.9213953,-0.121138506,-0.040945996,-0.24587587,0.4405331,-9.437943,2.1547816
6.240948,4.9213734,-0.121138506,-0.040945996,-0.24587587,0.4405331,-9.437943,2.1547816
6.2406673,4.921347,-0.12539956,-0.03881547,-0.25759378,0.44532153,-9.461885,2.1787236
6.2403884,4.9213214,-0.12539956,-0.03881547,-0.25759378,0.44532153,-9.461885,2.1787236
6.240119,4.9212947,-0.1275301,-0.036684938,-0.2682464,0.4165911,-9.504981,2.1164744
6.2398515,4.9212675,-0.1275301,-0.036684938,-0.2682464,0.4165911,-9.504981,2.1164744
6.239603,4.921239,-0.1275301,-0.035619672,-0.274638,0.39264908,-9.514558,2.1260512
6.2393565,4.9212103,-0.1275301,-0.035619672,-0.274638,0.39264908,-9.514558,2.1260512
6.23917,4.9211583,-0.12539956,-0.035619672,-0.28102958,0.31603462,-9.572019,2.1164744
6.2389836,4.921106,-0.12539956,-0.035619672,-0.28102958,0.31603462,-9.572019,2.1164744
6.2388287,4.920951,-0.12326904,-0.03455441,-0.2863559,0.30166942,-9.581595,1.9967642
6.2386756,4.9207983,-0.12326904,-0.03455441,-0.2863559,0.30166942,-9.581595,1.9967642
6.238516,4.9206395,-0.121138506,-0.03455441,-0.28848645,0.25857377,-9.610326,1.9776106
6.2383566,4.9204817,-0.121138506,-0.03455441,-0.28848645,0.25857377,-9.610326,1.9776106
6.238188,4.9203157,-0.11687745,-0.036684938,-0.2895517,0.23463176,-9.619903,1.9440918
6.238019,4.92015,-0.11687745,-0.036684938,-0.2895517,0.23463176,-9.619903,1.9440918
6.237847,4.919987,-0.11048587,-0.040945996,-0.2895517,0.25378537,-9.653421,1.9488802
6.237676,4.9198265,-0.11048587,-0.040945996,-0.2895517,0.25378537,-9.653421,1.9488802
6.237504,4.919668,-0.104094274,-0.045207053,-0.28742117,0.2777274,-9.667787,1.9536686
6.2373323,4.919511,-0.104094274,-0.045207053,-0.28742117,0.2777274,-9.667787,1.9536686
6.2371483,4.919345,-0.09663743,-0.051598642,-0.28102958,0.2825158,-9.605537,1.9009962
6.236965,4.919179,-0.09663743,-0.051598642,-0.28102958,0.2825158,-9.605537,1.9009962
6.2367535,4.9190016,-0.09024584,-0.05692496,-0.27676854,0.39264908,-9.572019,1.934515
6.2365456,4.9188266,-0.09024584,-0.05692496,-0.27676854,0.39264908,-9.572019,1.934515
6.2362866,4.9186444,-0.08278899,-0.062251285,-0.27676854,0.4309563,-9.610326,1.9057846
6.2360296,4.9184628,-0.08278899,-0.062251285,-0.27676854,0.4309563,-9.610326,1.9057846
6.2357492,4.9182878,-0.07426687,-0.06544708,-0.27570325,0.45968673,-9.605537,1.9153614
6.2354727,4.918113,-0.07426687,-0.06544708,-0.27570325,0.45968673,-9.605537,1.9153614
6.235244,4.9181395,-0.06574476,-0.06864287,-0.27357274,0.44532153,-9.648633,2.0590134
6.2350197,4.9181643,-0.06574476,-0.06864287,-0.27357274,0.44532153,-9.648633,2.0590134
6.2347465,4.918007,-0.056157377,-0.07290393,-0.26931167,0.47405192,-9.706094,1.9632454
6.234478,4.9178495,-0.056157377,-0.07290393,-0.26931167,0.47405192,-9.706094,1.9632454
6.2341375,4.9177103,-0.048700526,-0.077164985,-0.26611587,0.5267244,-9.787497,1.982399
6.233802,4.9175706,-0.048700526,-0.077164985,-0.26611587,0.5267244,-9.787497,1.982399
6.2333937,4.9175463,-0.04017841,-0.079295516,-0.2597243,0.51714754,-9.835381,2.0494366
6.2329865,4.917528,-0.04017841,-0.079295516,-0.2597243,0.51714754,-9.835381,2.0494366
6.232693,4.917397,-0.031656295,-0.079295516,-0.2512022,0.5410896,-9.873688,1.9393034
6.232403,4.9172664,-0.031656295,-0.079295516,-0.2512022,0.5410896,-9.873688,1.9393034
6.232403,4.9172664,-0.031656295,-0.079295516,-0.2512022,0.5410896,-9.873688,1.9393034
6.2310386,4.916862,-0.012481534,-0.078230254,-0.2416148,0.60812724,-9.902418,1.9536686
6.2310386,4.916862,-0.012481534,-0.078230254,-0.2416148,0.60812724,-9.902418,1.9536686
6.2310386,4.916862,-0.012481534,-0.078230254,-0.2416148,0.60812724,-9.902418,1.9536686
6.2303634,4.9167347,-0.0007636249,-0.07503446,-0.23628849,0.60812724,-9.849746,1.9919758
6.2303634,4.9167347,-0.0007636249,-0.07503446,-0.23628849,0.60812724,-9.849746,1.9919758
6.229983,4.91677,0.012019549,-0.07396919,-0.22883163,0.7038953,-9.854534,2.0733786
6.229553,4.9168105,0.012019549,-0.07396919,-0.22883163,0.7038953,-9.854534,2.0733786
6.2292514,4.91681,0.025867987,-0.07183866,-0.22457057,0.7086837,-9.811439,2.0015526
6.2288923,4.9168086,0.025867987,-0.07183866,-0.22457057,0.7086837,-9.811439,2.0015526
6.228524,4.9168677,0.039716423,-0.06864287,-0.22244005,0.82360536,-9.816227,2.078167
6.2281556,4.9169273,0.039716423,-0.06864287,-0.22244005,0.82360536,-9.816227,2.078167
6.227792,4.91701,0.0524996,-0.064381815,-0.2235053,0.9720459,-9.758766,2.1260512
6.2274275,4.917093,0.0524996,-0.064381815,-0.2235053,0.9720459,-9.758766,2.1260512
6.2270575,4.91719,0.06634804,-0.057990227,-0.22883163,1.0390835,-9.682152,2.1260512
6.226689,4.917287,0.06634804,-0.057990227,-0.22883163,1.0390835,-9.682152,2.1260512
6.226313,4.917394,0.075935416,-0.050533377,-0.23841901,1.0726024,-9.615114,2.1212628
6.225937,4.9175005,0.075935416,-0.050533377,-0.23841901,1.0726024,-9.615114,2.1212628
6.225553,4.9176216,0.08339227,-0.04201126,-0.2512022,1.1252748,-9.572019,2.1547816
6.2251687,4.9177427,0.08339227,-0.04201126,-0.2512022,1.1252748,-9.572019,2.1547816
6.2247777,4.917878,0.08871859,-0.033489145,-0.26611587,1.1587936,-9.557653,2.2122424
6.224386,4.918014,0.08871859,-0.033489145,-0.26611587,1.1587936,-9.557653,2.2122424
6.2239814,4.918154,0.09084912,-0.0228365,-0.28316012,1.1683705,-9.557653,2.2218192
6.2235765,4.9182935,0.09084912,-0.0228365,-0.28316012,1.1683705,-9.557653,2.2218192
6.2231517,4.918433,0.09297965,-0.012183856,-0.30340013,1.1444284,-9.514558,2.1883004
6.222727,4.9185734,0.09297965,-0.012183856,-0.30340013,1.1444284,-9.514558,2.1883004
6.2222877,4.918715,0.09297965,0.0005993177,-0.32150963,1.1683705,-9.500193,2.1978772
6.2218485,4.918857,0.09297965,0.0005993177,-0.32150963,1.1683705,-9.500193,2.1978772
6.2214,4.9190083,0.09297965,0.014447756,-0.34068438,1.115698,-9.457097,2.2170308
6.220951,4.919159,0.09297965,0.014447756,-0.34068438,1.115698,-9.457097,2.2170308
6.2204833,4.9193053,0.091914386,0.029361458,-0.35879388,1.091756,-9.495404,2.183512
6.220012,4.919452,0.091914386,0.029361458,-0.35879388,1.091756,-9.495404,2.183512
6.2195134,4.919626,0.091914386,0.046405688,-0.37690338,1.0486604,-9.404425,2.2361844
6.2190742,4.9197793,0.091914386,0.046405688,-0.37690338,1.0486604,-9.404425,2.2361844
6.2185917,4.919936,0.09404491,0.06344992,-0.3950129,1.0342951,-9.390059,2.1787236
6.218103,4.9200954,0.09404491,0.06344992,-0.3950129,1.0342951,-9.390059,2.1787236
6.217603,4.920263,0.09830597,0.08049415,-0.4120571,1.1013328,-9.390059,2.2266076
6.2171035,4.92043,0.09830597,0.08049415,-0.4120571,1.1013328,-9.390059,2.2266076
6.2165694,4.920575,0.09937123,0.09860365,-0.43229714,1.1971009,-9.337387,2.1164744
6.2160354,4.9207206,0.09937123,0.09860365,-0.43229714,1.1971009,-9.337387,2.1164744
6.215483,4.920871,0.09830597,0.118843675,-0.45786348,1.3934253,-9.208099,2.1739352
6.214931,4.9210215,0.09830597,0.118843675,-0.45786348,1.3934253,-9.208099,2.1739352
6.214346,4.921168,0.09297965,0.1390837,-0.49514773,1.4939818,-9.088389,2.1691468
6.213761,4.9213133,0.09297965,0.1390837,-0.49514773,1.4939818,-9.088389,2.1691468
6.2131414,4.9214606,0.082327,0.15932372,-0.5409541,1.5753847,-8.968679,2.255338
6.2125225,4.921608,0.082327,0.15932372,-0.5409541,1.5753847,-8.968679,2.255338
6.211854,4.9217434,0.06421751,0.17956375,-0.5984784,1.4939818,-9.011775,2.2649148
6.2111864,4.9218783,0.06421751,0.17956375,-0.5984784,1.4939818,-9.011775,2.2649148
6.210475,4.922006,0.03865116,0.19554271,-0.661329,1.388637,-9.011775,2.3702598
6.209764,4.9221344,0.03865116,0.19554271,-0.661329,1.388637,-9.011775,2.3702598
6.2090006,4.922243,0.010954284,0.20726062,-0.72631013,1.2976574,-9.126697,2.3989902
6.208237,4.922353,0.010954284,0.20726062,-0.72631013,1.2976574,-9.126697,2.3989902
6.20742,4.9224386,-0.018873122,0.21365221,-0.790226,1.1923125,-9.241618,2.384625
6.206608,4.9225245,-0.018873122,0.21365221,-0.790226,1.1923125,-9.241618,2.384625
6.2057347,4.922597,-0.043374203,0.216848,-0.8530766,1.0630256,-9.414001,2.3798366
6.2048783,4.922669,-0.043374203,0.216848,-0.8530766,1.0630256,-9.414001,2.3798366
6.2039585,4.9227204,-0.06574476,0.21578273,-0.91166615,0.9959879,-9.5385,2.303222
6.2030396,4.922773,-0.06574476,0.21578273,-0.91166615,0.9959879,-9.5385,2.303222
6.202126,4.922823,-0.08172372,0.21258694,-0.9606683,0.8379706,-9.662998,2.27928
6.201216,4.9228745,-0.08172372,0.21258694,-0.9606683,0.8379706,-9.662998,2.27928
6.2003937,4.9228687,-0.0945069,0.20726062,-1.0043441,0.6703765,-9.825804,2.1739352
6.1995726,4.922861,-0.0945069,0.20726062,-1.0043441,0.6703765,-9.825804,2.1739352
6.198736,4.922803,-0.09983322,0.2019343,-1.0405631,0.40701428,-9.916783,2.1404164
6.1979003,4.922745,-0.09983322,0.2019343,-1.0405631,0.40701428,-9.916783,2.1404164
6.1970363,4.922675,-0.09983322,0.19447745,-1.0682601,0.21068975,-10.022128,2.111686
6.1961718,4.9226055,-0.09983322,0.19447745,-1.0682601,0.21068975,-10.022128,2.111686
6.1952877,4.922534,-0.0945069,0.18275954,-1.0853043,0.05267244,-10.060435,2.0685902
6.194417,4.922464,-0.0945069,0.18275954,-1.0853043,0.05267244,-10.060435,2.0685902
6.1935234,4.9223995,-0.08278899,0.16784583,-1.0916958,-0.20590134,-10.13705,2.0254946
6.192615,4.9223347,-0.08278899,0.16784583,-1.0916958,-0.20590134,-10.13705,2.0254946
6.1917214,4.922286,-0.06894055,0.1508016,-1.0885,-0.33518824,-10.127473,2.0254946
6.1908274,4.9222374,-0.06894055,0.1508016,-1.0885,-0.33518824,-10.127473,2.0254946
6.1899385,4.922196,-0.049765788,0.13162684,-1.0767821,-0.39743748,-10.13705,1.9153614
6.189051,4.9221554,-0.049765788,0.13162684,-1.0767821,-0.39743748,-10.13705,1.9153614
6.188174,4.922124,-0.032721557,0.10925629,-1.0586727,-0.37828386,-10.175357,1.8674773
6.187296,4.922093,-0.032721557,0.10925629,-1.0586727,-0.37828386,-10.175357,1.8674773
6.1864347,4.9220796,-0.013546798,0.08368994,-1.0373673,-0.44532153,-10.151415,1.8483237
6.185573,4.9220657,-0.013546798,0.08368994,-1.0373673,-0.44532153,-10.151415,1.8483237
6.184732,4.922078,0.003497433,0.057058334,-1.0149968,-0.2873042,-10.065224,1.9776106
6.18389,4.922091,0.003497433,0.057058334,-1.0149968,-0.2873042,-10.065224,1.9776106
6.183064,4.9221134,0.019476399,0.028296193,-0.99049574,-0.15322891,-10.089166,1.9680338
6.18224,4.9221354,0.019476399,0.028296193,-0.99049574,-0.15322891,-10.089166,1.9680338
6.1814294,4.922174,0.03652063,0.003795111,-0.9713209,0.10534488,-10.007763,2.0015526
6.1806183,4.9222126,0.03652063,0.003795111,-0.9713209,0.10534488,-10.007763,2.0015526
6.179816,4.922266,0.0524996,-0.016444914,-0.95853776,0.14844051,-9.935937,1.9967642
6.1790133,4.9223194,0.0524996,-0.016444914,-0.95853776,0.14844051,-9.935937,1.9967642
6.1782136,4.922383,0.07167436,-0.03455441,-0.95001566,0.31124622,-9.825804,1.9536686
6.177414,4.9224463,0.07167436,-0.03455441,-0.95001566,0.31124622,-9.825804,1.9536686
6.176617,4.922558,0.08871859,-0.047337584,-0.9468199,0.4165911,-9.662998,2.0925324
6.17582,4.92267,0.08871859,-0.047337584,-0.9468199,0.4165911,-9.662998,2.0925324
6.175017,4.922797,0.10363229,-0.060120758,-0.9510809,0.48841715,-9.576807,2.078167
6.1742134,4.9229236,0.10363229,-0.060120758,-0.9510809,0.48841715,-9.576807,2.078167
6.173392,4.923085,0.11641546,-0.06864287,-0.9606683,0.5506664,-9.361329,2.1164744
6.17257,4.9232464,0.11641546,-0.06864287,-0.9606683,0.5506664,-9.361329,2.1164744
6.1717114,4.923444,0.12600285,-0.07503446,-0.9777125,0.7469909,-9.246407,2.135628
6.1708546,4.9236403,0.12600285,-0.07503446,-0.9777125,0.7469909,-9.246407,2.135628
6.1699295,4.923875,0.1334597,-0.078230254,-1.0000831,0.8810662,-9.035717,2.1452048
6.1690083,4.924108,0.1334597,-0.078230254,-1.0000831,0.8810662,-9.035717,2.1452048
6.167995,4.9243603,0.1366555,-0.07609972,-1.0320411,0.9864111,-8.7292595,2.2744915
6.166984,4.924613,0.1366555,-0.07609972,-1.0320411,0.9864111,-8.7292595,2.2744915
6.16588,4.9248595,0.13239443,-0.07290393,-1.0735863,1.2545617,-8.394072,2.3942018
6.1647773,4.9251065,0.13239443,-0.07290393,-1.0735863,1.2545617,-8.394072,2.3942018
6.1635904,4.9253316,0.119611256,-0.06757761,-1.1268495,1.5753847,-8.0445175,2.4372973
6.162404,4.925558,0.119611256,-0.06757761,-1.1268495,1.5753847,-8.0445175,2.4372973
6.1611404,4.925758,0.09617544,-0.0558597,-1.1960918,1.757344,-7.723695,2.4229321
6.1598783,4.9259577,0.09617544,-0.0558597,-1.1960918,1.757344,-7.723695,2.4229321
6.158527,4.926121,0.05995645,-0.03881547,-1.2802477,1.9440918,-7.417237,2.4181437
6.1571755,4.9262857,0.05995645,-0.03881547,-1.2802477,1.9440918,-7.417237,2.4181437
6.1557393,4.9264083,0.010954284,-0.015379649,-1.378252,2.0207062,-7.1251445,2.504335
6.1543136,4.9265313,0.010954284,-0.015379649,-1.378252,2.0207062,-7.1251445,2.504335
6.1527743,4.9266024,-0.04763526,0.010186698,-1.4890394,2.0159178,-7.015011,2.4708161
6.151225,4.9266753,-0.04763526,0.010186698,-1.4890394,2.0159178,-7.015011,2.4708161
6.149576,4.926691,-0.11155113,0.038948838,-1.6072838,2.0015526,-6.95755,2.432509
6.1479297,4.9267077,-0.11155113,0.038948838,-1.6072838,2.0015526,-6.95755,2.432509
6.1461678,4.926662,-0.18185858,0.06664571,-1.7297893,2.0398598,-6.9000893,2.4420857
6.1444044,4.926617,-0.18185858,0.06664571,-1.7297893,2.0398598,-6.9000893,2.4420857
6.142527,4.926506,-0.2564271,0.09327733,-1.8554904,2.0446482,-6.967127,2.4372973
6.140649,4.9263964,-0.2564271,0.09327733,-1.8554904,2.0446482,-6.967127,2.4372973
6.1386566,4.926227,-0.32993034,0.117778406,-1.9843874,1.7860745,-7.1586633,2.336741
6.1366696,4.9260597,-0.32993034,0.117778406,-1.9843874,1.7860745,-7.1586633,2.336741
6.1345797,4.925838,-0.40130305,0.13695318,-2.115415,1.541866,-7.3885064,2.3654714
6.132496,4.925618,-0.40130305,0.13695318,-2.115415,1.541866,-7.3885064,2.3654714
6.130322,4.925344,-0.46841472,0.1508016,-2.236855,1.3120226,-7.632715,2.207454
6.1281514,4.9250712,-0.46841472,0.1508016,-2.236855,1.3120226,-7.632715,2.207454
6.125888,4.9247456,-0.52806956,0.15506266,-2.3465774,1.2785037,-7.843405,2.1404164
6.1236286,4.924421,-0.52806956,0.15506266,-2.3465774,1.2785037,-7.843405,2.1404164
6.1212797,4.9240456,-0.582398,0.1508016,-2.445647,1.3024458,-8.0924015,2.1404164
6.118936,4.9236712,-0.582398,0.1508016,-2.445647,1.3024458,-8.0924015,2.1404164
6.1165156,4.9232507,-0.62926966,0.14121422,-2.542586,1.2976574,-8.298303,2.0973208
6.1141005,4.92283,-0.62926966,0.14121422,-2.542586,1.2976574,-8.298303,2.0973208
6.111646,4.9223495,-0.6686844,0.12736578,-2.6341987,1.2689269,-8.422802,1.9536686
6.1091948,4.9218674,-0.6686844,0.12736578,-2.6341987,1.2689269,-8.422802,1.9536686
6.106611,4.921339,-0.7049034,0.11138682,-2.7204852,1.3072342,-8.456321,1.9393034
6.1040673,4.9208174,-0.7049034,0.11138682,-2.7204852,1.3072342,-8.456321,1.9393034
6.101299,4.920289,-0.7400572,0.089016266,-2.8057063,1.8243817,-8.389283,2.030283
6.098506,4.91976,-0.7400572,0.089016266,-2.8057063,1.8243817,-8.389283,2.030283
6.0955606,4.9191546,-0.7741456,0.062384658,-2.8994496,2.255338,-8.441956,1.9919758
6.092604,4.918551,-0.7741456,0.062384658,-2.8994496,2.255338,-8.441956,1.9919758
6.0895386,4.917891,-0.8082341,0.037883572,-3.005976,2.5139117,-8.441956,1.8914193
6.0864663,4.917234,-0.8082341,0.037883572,-3.005976,2.5139117,-8.441956,1.8914193
6.0832653,4.916527,-0.8423225,0.014447756,-3.1295466,2.5378537,-8.437167,1.7812861
6.0800605,4.9158225,-0.8423225,0.014447756,-3.1295466,2.5378537,-8.437167,1.7812861
6.0767217,4.9150743,-0.876411,-0.012183856,-3.26377,2.4851813,-8.561666,1.7381904
6.0733852,4.91433,-0.876411,-0.012183856,-3.26377,2.4851813,-8.561666,1.7381904
6.069912,4.9135275,-0.90836895,-0.047337584,-3.4001238,2.4277205,-8.671799,1.6519991
6.0664444,4.912728,-0.90836895,-0.047337584,-3.4001238,2.4277205,-8.671799,1.6519991
6.0628276,4.911893,-0.93500054,-0.09633975,-3.537543,2.5187001,-8.863335,1.661576
6.0592065,4.9110584,-0.93500054,-0.09633975,-3.537543,2.5187001,-8.863335,1.661576
6.0554514,4.9101877,-0.95630586,-0.15812509,-3.670701,2.7150247,-9.097966,1.6184803
6.051723,4.9093237,-0.95630586,-0.15812509,-3.670701,2.7150247,-9.097966,1.6184803
6.051723,4.9093237,-0.97121954,-0.22736728,-3.7974675,2.815581,-9.241618,1.5131354
6.0465636,4.9081135,-0.97121954,-0.22736728,-3.7974675,2.815581,-9.241618,1.5131354
6.0394554,4.9064455,-0.97121954,-0.22736728,-3.7974675,2.815581,-9.241618,1.5131354
6.0360394,4.9056883,-0.9776111,-0.30619684,-3.9189076,3.643975,-9.217676,1.5131354
6.031446,4.9047003,-0.9776111,-0.38076535,-4.04887,4.3861775,-9.011775,1.4077905
6.0272074,4.90379,-0.9776111,-0.38076535,-4.04887,4.3861775,-9.011775,1.4077905
6.0231767,4.902958,-0.9765459,-0.4425507,-4.196942,5.0421886,-8.595184,1.3742718
6.0187545,4.9020467,-0.9765459,-0.4425507,-4.196942,5.0421886,-8.595184,1.3742718
6.014453,4.9011936,-0.9818722,-0.48942232,-4.3695145,5.439626,-8.101978,1.3790601
6.0099654,4.900305,-0.9818722,-0.48942232,-4.3695145,5.439626,-8.101978,1.3790601
6.0052423,4.899396,-0.99891645,-0.5256413,-4.565523,5.865794,-7.680599,1.3599066
6.0005236,4.8984895,-0.99891645,-0.5256413,-4.565523,5.865794,-7.680599,1.3599066
5.9955864,4.8975544,-1.0308744,-0.5522729,-4.7828374,6.114791,-7.383718,1.2593501
5.9906144,4.896613,-1.0308744,-0.5522729,-4.7828374,6.114791,-7.383718,1.2593501
5.985452,4.895643,-1.082007,-0.5746435,-5.0182605,5.7365074,-7.326257,1.4221559
5.980284,4.8946733,-1.082007,-0.5746435,-5.0182605,5.7365074,-7.326257,1.4221559
5.9748807,4.8936543,-1.1448576,-0.5991446,-5.2547493,5.6407394,-7.0006456,1.5179238
5.969466,4.8926344,-1.1448576,-0.5991446,-5.2547493,5.6407394,-7.0006456,1.5179238
5.9638166,4.8915467,-1.2151651,-0.628972,-5.486977,5.4539914,-6.9479733,1.4556746
5.958167,4.89046,-1.2151651,-0.628972,-5.486977,5.4539914,-6.9479733,1.4556746
5.952296,4.889306,-1.2854725,-0.6619952,-5.7064214,5.659893,-6.9479733,1.484405
5.946424,4.888153,-1.2854725,-0.6619952,-5.7064214,5.659893,-6.9479733,1.484405
5.9403386,4.886938,-1.3547148,-0.69075733,-5.918409,5.6120086,-7.1347213,1.5849615
5.934253,4.8857236,-1.3547148,-0.69075733,-5.918409,5.6120086,-7.1347213,1.5849615
5.9279704,4.8844843,-1.4090432,-0.70886683,-6.1240053,5.0613422,-7.1059904,1.9057846
5.921688,4.883246,-1.4090432,-0.70886683,-6.1240053,5.0613422,-7.1059904,1.9057846
5.9152136,4.8819637,-1.4516538,-0.7120626,-6.3114915,4.4723687,-7.1395097,1.5658079
5.9089394,4.880723,-1.4516538,-0.7120626,-6.3114915,4.4723687,-7.1395097,1.5658079
5.902299,4.879363,-1.4889381,-0.7120626,-6.4755425,4.122815,-7.264008,1.0630256
5.8954453,4.8779583,-1.4889381,-0.7120626,-6.4755425,4.122815,-7.264008,1.0630256
5.888643,4.876527,-1.5187654,-0.7205847,-6.6246796,4.1659107,-7.2448545,0.6607997
5.888643,4.876527,-1.5187654,-0.7205847,-6.6246796,4.1659107,-7.2448545,0.6607997
5.874807,4.873605,-1.5549845,-0.7365637,-6.7642293,4.261679,-7.1969705,0.60812724
5.868079,4.8721776,-1.5549845,-0.7365637,-6.7642293,4.261679,-7.1969705,0.60812724
5.861064,4.870673,-1.5986603,-0.75573844,-6.8995175,4.357447,-7.2209125,0.5746084
5.854028,4.8691597,-1.5986603,-0.75573844,-6.8995175,4.357447,-7.2209125,0.5746084
5.8468766,4.8675785,-1.6455319,-0.77597845,-7.0316105,4.1132383,-7.359776,0.5267244
5.83975,4.8659964,-1.6455319,-0.77597845,-7.0316105,4.1132383,-7.359776,0.5267244
5.832385,4.864321,-1.6934688,-0.80047953,-7.1573114,3.9695864,-7.3406224,0.46926352
5.8252435,4.86269,-1.6934688,-0.80047953,-7.1573114,3.9695864,-7.3406224,0.46926352
5.8179555,4.860968,-1.7392752,-0.8324375,-7.2723603,3.5003228,-7.4746976,0.33997664
5.8106675,4.859241,-1.7392752,-0.8324375,-7.2723603,3.5003228,-7.4746976,0.33997664
5.8033366,4.8574667,-1.7818857,-0.88250494,-7.3692994,2.791639,-7.6949644,0.17717093
5.7960095,4.8556895,-1.7818857,-0.88250494,-7.3692994,2.791639,-7.6949644,0.17717093
5.788606,4.8538446,-1.814909,-0.95707345,-7.444933,2.3654714,-7.800309,-0.047884032
5.781198,4.8519936,-1.814909,-0.95707345,-7.444933,2.3654714,-7.800309,-0.047884032
5.77375,4.850073,-1.8394101,-1.0593388,-7.4918046,1.934515,-7.9104424,-0.038307227
5.7663107,4.848147,-1.8394101,-1.0593388,-7.4918046,1.934515,-7.9104424,-0.038307227
5.7588367,4.846127,-1.8521932,-1.1871705,-7.5035224,1.9728222,-8.010999,-0.047884032
5.751364,4.844098,-1.8521932,-1.1871705,-7.5035224,1.9728222,-8.010999,-0.047884032
5.743891,4.8419657,-1.855389,-1.3363075,-7.485413,2.2409728,-8.106767,0.009576807
5.7364044,4.839817,-1.855389,-1.3363075,-7.485413,2.2409728,-8.106767,0.009576807
5.728946,4.83756,-1.8479322,-1.4939667,-7.4470634,2.705448,-8.240842,-0.01436521
5.7214913,4.8352885,-1.8479322,-1.4939667,-7.4470634,2.705448,-8.240842,-0.01436521
5.714075,4.8329144,-1.8266269,-1.6516259,-7.392735,2.96881,-8.365341,-0.08140286
5.7066407,4.8305163,-1.8266269,-1.6516259,-7.392735,2.96881,-8.365341,-0.08140286
5.6992803,4.828028,-1.7914732,-1.8050239,-7.319232,3.2130187,-8.441956,-0.18195933
5.691924,4.8255196,-1.7914732,-1.8050239,-7.319232,3.2130187,-8.441956,-0.18195933
5.684633,4.822918,-1.7488626,-1.9530957,-7.2286844,3.5434184,-8.532935,-0.18195933
5.6773396,4.82029,-1.7488626,-1.9530957,-7.2286844,3.5434184,-8.532935,-0.18195933
5.6701245,4.817567,-1.6998605,-2.094776,-7.1285496,3.9695864,-8.494628,-0.38307226
5.662916,4.8148165,-1.6998605,-2.094776,-7.1285496,3.9695864,-8.494628,-0.38307226
5.6557875,4.8119693,-1.6508583,-2.2289991,-7.0188274,4.5537715,-8.446744,-0.45010993
5.648674,4.8090954,-1.6508583,-2.2289991,-7.0188274,4.5537715,-8.446744,-0.45010993
5.6416435,4.8061256,-1.6029214,-2.349374,-6.897387,5.109226,-8.456321,-0.39264908
5.634631,4.8031263,-1.6029214,-2.349374,-6.897387,5.109226,-8.456321,-0.39264908
5.6277275,4.8000417,-1.5603108,-2.45377,-6.770621,5.5018754,-8.374918,-0.2777274
5.6208363,4.796922,-1.5603108,-2.45377,-6.770621,5.5018754,-8.374918,-0.2777274
5.6140623,4.7937255,-1.5187654,-2.542187,-6.6417236,5.837064,-8.394072,-0.20590134
5.6073027,4.790491,-1.5187654,-2.542187,-6.6417236,5.837064,-8.394072,-0.20590134
5.6006794,4.787189,-1.4772202,-2.6178207,-6.502174,6.1243677,-8.341399,-0.10534488
5.594059,4.783841,-1.4772202,-2.6178207,-6.502174,6.1243677,-8.341399,-0.10534488
5.5876093,4.7804418,-1.4346095,-2.679606,-6.349841,6.3302693,-8.456321,-0.07182605
5.58117,4.7769995,-1.4346095,-2.679606,-6.349841,6.3302693,-8.456321,-0.07182605
5.5749035,4.773513,-1.3909338,-2.7254124,-6.186856,6.5601125,-8.480263,0.05267244
5.568656,4.769988,-1.3909338,-2.7254124,-6.186856,6.5601125,-8.480263,0.05267244
5.5626054,4.7664433,-1.3451273,-2.7552397,-6.011087,6.813898,-8.623915,0.16759412
5.5565677,4.7628613,-1.3451273,-2.7552397,-6.011087,6.813898,-8.623915,0.16759412
5.5507464,4.7592955,-1.2961252,-2.7712188,-5.8257313,7.015011,-8.647857,0.29688102
5.544938,4.7556973,-1.2961252,-2.7712188,-5.8257313,7.015011,-8.647857,0.29688102
5.5393343,4.7521496,-1.2417967,-2.7712188,-5.631853,7.225701,-8.619126,0.40701428
5.5337386,4.748566,-1.2417967,-2.7712188,-5.631853,7.225701,-8.619126,0.40701428
5.5276566,4.7446547,-1.1832072,-2.7573705,-5.433714,7.5561004,-8.63828,0.58418524
5.522769,4.7414618,-1.1832072,-2.7573705,-5.433714,7.5561004,-8.63828,0.58418524
5.517668,4.7380304,-1.1192913,-2.7307386,-5.233444,7.603985,-8.63828,0.545878
5.5124884,4.734496,-1.1192913,-2.7307386,-5.233444,7.603985,-8.63828,0.545878
5.5075154,4.7309985,-1.0521797,-2.691324,-5.0299788,7.666234,-8.619126,0.45489833
5.502552,4.727459,-1.0521797,-2.691324,-5.0299788,7.666234,-8.619126,0.45489833
5.4977865,4.7240086,-0.9840027,-2.6423218,-4.826513,7.9104424,-8.580819,0.4357447
5.493032,4.7205153,-0.9840027,-2.6423218,-4.826513,7.9104424,-8.580819,0.4357447
5.4884334,4.717142,-0.91476053,-2.5826669,-4.630504,8.341399,-8.465898,0.34476504
5.4838533,4.7137256,-0.91476053,-2.5826669,-4.630504,8.341399,-8.465898,0.34476504
5.479362,4.7104177,-0.84977937,-2.507033,-4.4451485,8.810662,-8.307879,0.38307226
5.474894,4.707076,-0.84977937,-2.507033,-4.4451485,8.810662,-8.307879,0.38307226
5.4705377,4.7038164,-0.7922551,-2.41329,-4.2768364,9.155427,-8.087613,0.30645782
5.4661946,4.700526,-0.7922551,-2.41329,-4.2768364,9.155427,-8.087613,0.30645782
5.4620166,4.697378,-0.7400572,-2.3014371,-4.125569,9.279925,-7.9104424,0.40701428
5.457849,4.6941977,-0.7400572,-2.3014371,-4.125569,9.279925,-7.9104424,0.40701428
5.4538198,4.6911597,-0.69638133,-2.1789317,-3.9902804,9.313444,-7.699753,0.5363012
5.4498076,4.6880965,-0.69638133,-2.1789317,-3.9902804,9.313444,-7.699753,0.5363012
5.4459405,4.685193,-0.6590971,-2.0521653,-3.8667097,9.193734,-7.5848308,0.6895301
5.4420805,4.682258,-0.6590971,-2.0521653,-3.8667097,9.193734,-7.5848308,0.6895301
5.4383445,4.679467,-0.62607384,-1.9296598,-3.7452695,9.054871,-7.493851,0.61770403
5.434623,4.6766524,-0.62607384,-1.9296598,-3.7452695,9.054871,-7.493851,0.61770403
5.431051,4.673983,-0.59731174,-1.8156766,-3.6291559,8.863335,-7.6470804,0.60333884
5.4274783,4.6712804,-0.59731174,-1.8156766,-3.6291559,8.863335,-7.6470804,0.60333884
5.424063,4.6687164,-0.5674843,-1.7102154,-3.508781,8.710106,-7.7907324,0.62249243
5.4206533,4.6661253,-0.5674843,-1.7102154,-3.508781,8.710106,-7.7907324,0.62249243
5.4173913,4.6636524,-0.53659165,-1.6164721,-3.3862755,8.623915,-7.8146744,0.29209262
5.414137,4.6611557,-0.53659165,-1.6164721,-3.3862755,8.623915,-7.8146744,0.29209262
5.4110417,4.658752,-0.5035685,-1.5333815,-3.2616396,8.576031,-7.881712,0.038307227
5.407958,4.6563306,-0.5035685,-1.5333815,-3.2616396,8.576031,-7.881712,0.038307227
5.405032,4.6539974,-0.47161052,-1.4524214,-3.1295466,8.6813755,-7.967903,-0.15322891
5.402107,4.651643,-0.47161052,-1.4524214,-3.1295466,8.6813755,-7.967903,-0.15322891
5.399305,4.6494226,-0.44071785,-1.3693308,-2.9942582,8.949526,-8.0684595,-0.1388637
5.396504,4.647182,-0.44071785,-1.3693308,-2.9942582,8.949526,-8.0684595,-0.1388637
5.393826,4.645092,-0.40982518,-1.2809138,-2.8611002,9.11712,-8.101978,-0.090979666
5.391149,4.6429815,-0.40982518,-1.2809138,-2.8611002,9.11712,-8.101978,-0.090979666
5.388611,4.6410127,-0.3789325,-1.1839747,-2.7247462,9.184157,-8.054094,-0.18195933
5.386076,4.639028,-0.3789325,-1.1839747,-2.7247462,9.184157,-8.054094,-0.18195933
5.3836656,4.637205,-0.34697458,-1.0795789,-2.5894578,9.260772,-7.9487495,-0.24420857
5.381264,4.6353717,-0.34697458,-1.0795789,-2.5894578,9.260772,-7.9487495,-0.24420857
5.3789673,4.6337247,-0.31821242,-0.96879137,-2.4520385,9.3421755,-7.9008656,-0.1436521
5.3766747,4.632065,-0.31821242,-0.96879137,-2.4520385,9.3421755,-7.9008656,-0.1436521
5.374498,4.63059,-0.29051554,-0.8558733,-2.3114235,9.361329,-7.819463,-0.047884032
5.3723245,4.6291037,-0.29051554,-0.8558733,-2.3114235,9.361329,-7.819463,-0.047884032
5.3702545,4.6278048,-0.2649492,-0.74189,-2.176135,9.452309,-7.656657,-0.023942016
5.368189,4.6264963,-0.2649492,-0.74189,-2.176135,9.452309,-7.656657,-0.023942016
5.3662257,4.625371,-0.2383176,-0.63003725,-2.0451076,9.509769,-7.4363904,-0.21547815
5.3642664,4.624237,-0.2383176,-0.63003725,-2.0451076,9.509769,-7.4363904,-0.21547815
5.362364,4.623285,-0.21168599,-0.51498866,-1.9204715,9.68694,-7.225701,-0.30166942
5.3604646,4.6223264,-0.21168599,-0.51498866,-1.9204715,9.68694,-7.225701,-0.30166942
5.35863,4.6215363,-0.18825017,-0.3946138,-1.8043578,9.840169,-7.029376,-0.2681506
5.356799,4.6207438,-0.18825017,-0.3946138,-1.8043578,9.840169,-7.029376,-0.2681506
5.355048,4.620131,-0.16694488,-0.27210838,-1.6978313,9.80665,-6.823475,-0.23942018
5.353301,4.6195188,-0.16694488,-0.27210838,-1.6978313,9.80665,-6.823475,-0.23942018
5.3516383,4.6190996,-0.14883539,-0.15066823,-1.6083491,9.682152,-6.631939,-0.10055647
5.3499784,4.618681,-0.14883539,-0.15066823,-1.6083491,9.682152,-6.631939,-0.10055647
5.348394,4.618447,-0.13498695,-0.033489145,-1.527389,9.437943,-6.5122285,-0.11492168
5.346812,4.6182137,-0.13498695,-0.033489145,-1.527389,9.437943,-6.5122285,-0.11492168
5.345317,4.618162,-0.124334306,0.0762331,-1.4538858,9.169792,-6.4978633,-0.11492168
5.3438234,4.6181116,-0.124334306,0.0762331,-1.4538858,9.169792,-6.4978633,-0.11492168
5.342415,4.61822,-0.11368166,0.17317216,-1.3835783,8.920795,-6.4404025,-0.11971009
5.3410077,4.618329,-0.11368166,0.17317216,-1.3835783,8.920795,-6.4404025,-0.11971009
5.339711,4.6185727,-0.104094274,0.25839332,-1.3143361,8.6574335,-6.540959,-0.12449849
5.3384175,4.6188173,-0.104094274,0.25839332,-1.3143361,8.6574335,-6.540959,-0.12449849
5.3372264,4.619163,-0.09663743,0.33402708,-1.2429634,8.360553,-6.5984197,-0.15322891
5.336038,4.6195087,-0.09663743,0.33402708,-1.2429634,8.360553,-6.5984197,-0.15322891
5.3349304,4.6199503,-0.08598478,0.3990082,-1.1715907,8.12592,-6.7085533,-0.10055647
5.333824,4.6203923,-0.08598478,0.3990082,-1.1715907,8.12592,-6.7085533,-0.10055647
5.333824,4.6203923,-0.07426687,0.45546725,-1.0991527,7.833828,-6.7947445,-0.1388637
5.331751,4.621447,-0.07426687,0.45546725,-1.0991527,7.833828,-6.7947445,-0.1388637
5.3308234,4.622038,-0.060418434,0.5002083,-1.0235189,7.541735,-6.8091097,-0.07182605
5.3298774,4.622642,-0.060418434,0.5002083,-1.0235189,7.541735,-6.8091097,-0.07182605
5.3289824,4.623349,-0.043374203,0.53749263,-0.9436241,7.3406224,-6.789956,0.01436521
5.3281245,4.624029,-0.043374203,0.53749263,-0.9436241,7.3406224,-6.789956,0.01436521
5.3272467,4.6248693,-0.02313418,0.56732,-0.86585975,7.101202,-6.775591,0.033518825
5.3272467,4.6248693,-0.02313418,0.56732,-0.86585975,7.101202,-6.775591,0.033518825
5.3257127,4.6263423,-0.0018288894,0.58969057,-0.7880955,6.8905125,-6.6750345,0.090979666
5.3250313,4.6271286,-0.0018288894,0.58969057,-0.7880955,6.8905125,-6.6750345,0.090979666
5.324393,4.6280107,0.022672193,0.60460424,-0.7092659,6.670246,-6.540959,0.08140286
5.3237553,4.6288943,0.022672193,0.60460424,-0.7092659,6.670246,-6.540959,0.08140286
5.3231945,4.6298327,0.049303804,0.61206114,-0.6283058,6.540959,-6.38773,0.12928689
5.322635,4.630772,0.049303804,0.61206114,-0.6283058,6.540959,-6.38773,0.12928689
5.3221507,4.6317472,0.075935416,0.6088653,-0.5516068,6.4020953,-6.205771,0.11971009
5.321671,4.6327176,0.075935416,0.6088653,-0.5516068,6.4020953,-6.205771,0.11971009
5.3212643,4.633714,0.104697555,0.59821266,-0.47810352,6.3350577,-6.0525417,0.11492168
5.3208585,4.634713,0.104697555,0.59821266,-0.47810352,6.3350577,-6.0525417,0.11492168
5.320519,4.635725,0.13239443,0.58010316,-0.41099185,6.244078,-5.865794,0.11971009
5.3201814,4.6367383,0.13239443,0.58010316,-0.41099185,6.244078,-5.865794,0.11971009
5.31991,4.6377487,0.15902604,0.5545368,-0.347076,6.220136,-5.741296,0.090979666
5.31964,4.638759,0.15902604,0.5545368,-0.347076,6.220136,-5.741296,0.090979666
5.319432,4.6397557,0.18352713,0.52151364,-0.28742117,6.2345014,-5.5641246,0.05267244
5.3192244,4.6407523,0.18352713,0.52151364,-0.28742117,6.2345014,-5.5641246,0.05267244
5.3190765,4.6417212,0.20483242,0.48529464,-0.23309268,6.2105594,-5.4444146,0.009576807
5.318929,4.6426897,0.20483242,0.48529464,-0.23309268,6.2105594,-5.4444146,0.009576807
5.3188324,4.6436243,0.22507244,0.4416188,-0.18409052,6.191406,-5.3821654,0.023942016
5.318737,4.6445594,0.22507244,0.4416188,-0.18409052,6.191406,-5.3821654,0.023942016
5.3186975,4.645439,0.24318193,0.3936819,-0.13615362,6.2392898,-5.2863975,-0.05746084
5.318659,4.6463175,0.24318193,0.3936819,-0.13615362,6.2392898,-5.2863975,-0.05746084
5.3186703,4.647134,0.25809565,0.34148395,-0.092477776,6.3302693,-5.2289367,-0.110133275
5.3186827,4.647949,0.25809565,0.34148395,-0.092477776,6.3302693,-5.2289367,-0.110133275
5.318744,4.6487226,0.2740746,0.2860902,-0.05412826,6.4260373,-5.209783,-0.17238252
5.318807,4.6495013,0.2740746,0.2860902,-0.05412826,6.4260373,-5.209783,-0.17238252
5.3189063,4.6501355,0.2889883,0.22750065,-0.015778739,6.5122285,-5.1475334,-0.21068975
5.319007,4.650773,0.2889883,0.22750065,-0.015778739,6.5122285,-5.1475334,-0.21068975
5.319157,4.651343,0.30283675,0.16678058,0.022570781,6.6654577,-5.12838,-0.2681506
5.3193083,4.6519136,0.30283675,0.16678058,0.022570781,6.6654577,-5.12838,-0.2681506
5.31948,4.652302,0.31775045,0.10712577,0.059855036,6.861782,-5.0613422,-0.4165911
5.319651,4.652688,0.31775045,0.10712577,0.059855036,6.861782,-5.0613422,-0.4165911
5.3198767,4.6530457,0.33053362,0.049601484,0.09607403,6.9719152,-5.0613422,-0.34476504
5.320101,4.653401,0.33053362,0.049601484,0.09607403,6.9719152,-5.0613422,-0.34476504
5.320285,4.6535854,0.34225154,-0.0068575335,0.13122776,7.120356,-4.9943047,-0.37349546
5.320467,4.6537685,0.34225154,-0.0068575335,0.13122776,7.120356,-4.9943047,-0.37349546
5.320594,4.653883,0.35183892,-0.059055492,0.16957727,7.2783732,-4.9224787,-0.49799395
5.32072,4.653998,0.35183892,-0.059055492,0.16957727,7.2783732,-4.9224787,-0.49799395
5.3208594,4.654067,0.35929576,-0.108057655,0.20686153,7.393295,-4.8506527,-0.5506664
5.320998,4.654136,0.35929576,-0.108057655,0.20686153,7.393295,-4.8506527,-0.5506664
5.321163,4.6541543,0.3646221,-0.15386403,0.23881947,7.541735,-4.783615,-0.6464345
5.321327,4.6541724,0.3646221,-0.15386403,0.23881947,7.541735,-4.783615,-0.6464345
5.3215127,4.65415,0.36675262,-0.19540934,0.27184266,7.704541,-4.7309427,-0.6655881
5.321698,4.654128,0.36675262,-0.19540934,0.27184266,7.704541,-4.7309427,-0.6655881
5.321927,4.6540456,0.36568734,-0.2326936,0.30593112,7.7811556,-4.687847,-0.79008657
5.3221555,4.653964,0.36568734,-0.2326936,0.30593112,7.7811556,-4.687847,-0.79008657
5.322401,4.6538544,0.3646221,-0.2657168,0.3368238,7.896077,-4.644751,-0.7278373
5.3226476,4.653746,0.3646221,-0.2657168,0.3368238,7.896077,-4.644751,-0.7278373
5.322926,4.65359,0.3614263,-0.29660946,0.3666512,7.9726915,-4.630386,-0.78050977
5.3232045,4.6534348,0.3614263,-0.29660946,0.3666512,7.9726915,-4.630386,-0.78050977
5.32351,4.6532493,0.36036104,-0.3253716,0.39754388,8.063671,-4.606444,-0.7661445
5.3238153,4.6530643,0.36036104,-0.3253716,0.39754388,8.063671,-4.606444,-0.7661445
5.324154,4.652843,0.35716522,-0.35093796,0.4295018,8.231265,-4.596867,-0.82360536
5.3244915,4.652623,0.35716522,-0.35093796,0.4295018,8.231265,-4.596867,-0.82360536
5.3248625,4.6523695,0.35290417,-0.3733085,0.46145973,8.456321,-4.606444,-0.89543146
5.325233,4.6521177,0.35290417,-0.3733085,0.46145973,8.456321,-4.606444,-0.89543146
5.3256264,4.651856,0.34757784,-0.38822222,0.49128714,8.647857,-4.501099,-0.8762778
5.32602,4.651595,0.34757784,-0.38822222,0.49128714,8.647857,-4.501099,-0.8762778
5.326442,4.651308,0.34225154,-0.39887485,0.51472294,8.719683,-4.5202527,-0.9720459
5.326864,4.651022,0.34225154,-0.39887485,0.51472294,8.719683,-4.5202527,-0.9720459
5.3273106,4.650717,0.33479467,-0.40526643,0.53602827,8.796297,-4.620809,-1.0103531
5.3277574,4.6504116,0.33479467,-0.40526643,0.53602827,8.796297,-4.620809,-1.0103531
5.328218,4.650106,0.3252073,-0.40633172,0.55413777,8.916007,-4.596867,-0.9959879
5.328679,4.6498013,0.3252073,-0.40633172,0.55413777,8.916007,-4.596867,-0.9959879
5.329158,4.6494904,0.31242412,-0.40420118,0.5733125,9.021352,-4.644751,-0.9959879
5.3296366,4.649181,0.31242412,-0.40420118,0.5733125,9.021352,-4.644751,-0.9959879
5.330139,4.648861,0.29964095,-0.3978096,0.5924873,9.040505,-4.7022123,-1.0773908
5.3306427,4.6485434,0.29964095,-0.3978096,0.5924873,9.040505,-4.7022123,-1.0773908
5.3311605,4.6482353,0.28685778,-0.38715693,0.61166203,9.088389,-4.735731,-1.0247183
5.3316784,4.647929,0.28685778,-0.38715693,0.61166203,9.088389,-4.735731,-1.0247183
5.332223,4.647625,0.27300933,-0.37224326,0.63509786,9.112331,-4.76925,-1.0965444
5.332767,4.647323,0.27300933,-0.37224326,0.63509786,9.112331,-4.76925,-1.0965444
5.333339,4.6470366,0.26022616,-0.35306847,0.6627947,9.078813,-4.7884035,-1.1013328
5.333911,4.6467514,0.26022616,-0.35306847,0.6627947,9.078813,-4.7884035,-1.1013328
5.3345146,4.6464844,0.24637774,-0.32963267,0.6936874,9.074024,-4.8745947,-1.115698
5.3351183,4.6462183,0.24637774,-0.32963267,0.6936874,9.074024,-4.8745947,-1.115698
5.3357553,4.6459804,0.2325293,-0.3019358,0.7277759,9.02614,-4.975151,-1.0773908
5.3363924,4.645743,0.2325293,-0.3019358,0.7277759,9.02614,-4.975151,-1.0773908
5.337069,4.6455355,0.22081138,-0.27104312,0.7650601,9.006987,-5.0757074,-1.0965444
5.337745,4.6453285,0.22081138,-0.27104312,0.7650601,9.006987,-5.0757074,-1.0965444
5.338477,4.645157,0.211224,-0.23801991,0.80873597,8.925584,-5.142745,-1.0821792
5.339187,4.644991,0.211224,-0.23801991,0.80873597,8.925584,-5.142745,-1.0821792
5.3399477,4.6448793,0.20270188,-0.20073566,0.8588034,8.892065,-5.133168,-0.9911995
5.340709,4.6447697,0.20270188,-0.20073566,0.8588034,8.892065,-5.133168,-0.9911995
5.341517,4.644712,0.19524503,-0.1634514,0.9099361,8.829816,-5.267244,-0.89064306
5.3423247,4.6446557,0.19524503,-0.1634514,0.9099361,8.829816,-5.267244,-0.89064306
5.3431964,4.64464,0.19098398,-0.1251019,0.96746033,8.743625,-5.353435,-0.93373865
5.344068,4.6446257,0.19098398,-0.1251019,0.96746033,8.743625,-5.353435,-0.93373865
5.345001,4.644672,0.18885344,-0.0856871,1.0292457,8.6813755,-5.3438582,-0.89543146
5.3459244,4.644718,0.18885344,-0.0856871,1.0292457,8.6813755,-5.3438582,-0.89543146
5.3469167,4.6448274,0.18885344,-0.044141788,1.0963573,8.686164,-5.3965306,-0.8858546
5.34791,4.6449366,0.18885344,-0.044141788,1.0963573,8.686164,-5.3965306,-0.8858546
5.3489666,4.645109,0.19098398,-0.00046594674,1.1613384,8.839393,-5.415684,-0.9768343
5.3500223,4.645282,0.19098398,-0.00046594674,1.1613384,8.839393,-5.415684,-0.9768343
5.351125,4.6455436,0.1963103,0.046405688,1.2220585,9.150639,-5.449203,-0.94331545
5.3522263,4.6458054,0.1963103,0.046405688,1.2220585,9.150639,-5.449203,-0.94331545
5.353364,4.6461654,0.20163663,0.09966891,1.272126,9.615114,-5.281609,-0.9720459
5.3545017,4.6465244,0.20163663,0.09966891,1.272126,9.615114,-5.281609,-0.9720459
5.3556695,4.6469927,0.20163663,0.16465004,1.304084,9.911995,-5.080496,-0.92416185
5.35682,4.6474533,0.20163663,0.16465004,1.304084,9.911995,-5.080496,-0.92416185
5.3579836,4.648015,0.19524503,0.24028382,1.3147366,9.911995,-4.8937483,-0.90500826
5.359147,4.6485753,0.19524503,0.24028382,1.3147366,9.911995,-4.8937483,-0.90500826
5.360293,4.6492314,0.1813966,0.3191134,1.304084,9.653421,-4.7740383,-0.79966336
5.361439,4.649885,0.1813966,0.3191134,1.304084,9.653421,-4.7740383,-0.79966336
5.362557,4.6506133,0.16222183,0.39474717,1.2785176,9.3661175,-4.7309427,-0.78050977
5.363673,4.6513376,0.16222183,0.39474717,1.2785176,9.3661175,-4.7309427,-0.78050977
5.3647547,4.65212,0.13772075,0.46079355,1.2465596,9.102755,-4.807557,-0.7230489
5.3658366,4.6529,0.13772075,0.46079355,1.2465596,9.102755,-4.807557,-0.7230489
5.3668814,4.6537247,0.11215441,0.51192623,1.2135365,8.844181,-4.9224787,-0.60333884
5.367927,4.654546,0.11215441,0.51192623,1.2135365,8.844181,-4.9224787,-0.60333884
5.368944,4.6553683,0.087653324,0.5492105,1.1826438,8.643068,-5.0613422,-0.6655881
5.3699617,4.656188,0.087653324,0.5492105,1.1826438,8.643068,-5.0613422,-0.6655881
5.3709574,4.6570053,0.0674133,0.57584214,1.1570774,8.403648,-5.3342814,-0.63206923
5.371954,4.65782,0.0674133,0.57584214,1.1570774,8.403648,-5.3342814,-0.63206923
5.372936,4.658627,0.051434334,0.59395164,1.1368374,8.259995,-5.5737014,-0.58897364
5.373918,4.6594315,0.051434334,0.59395164,1.1368374,8.259995,-5.5737014,-0.58897364
5.3748827,4.660239,0.040781688,0.60566956,1.1208584,8.135497,-5.7843914,-0.48362875
5.375848,4.661045,0.040781688,0.60566956,1.1208584,8.135497,-5.7843914,-0.48362875
5.3768144,4.661835,0.03652063,0.61419165,1.1102058,8.001422,-5.93762,-0.4405331
5.3777804,4.662623,0.03652063,0.61419165,1.1102058,8.001422,-5.93762,-0.4405331
5.3788195,4.6633606,0.03652063,0.62058324,1.1048795,7.8386164,-6.081272,-0.4309563
5.3798532,4.664098,0.03652063,0.62058324,1.1048795,7.8386164,-6.081272,-0.4309563
5.381007,4.664864,0.039716423,0.6248443,1.1080753,7.771579,-6.2345014,-0.40222588
5.3821735,4.665634,0.039716423,0.6248443,1.1080753,7.771579,-6.2345014,-0.40222588
5.3833847,4.6664996,0.04610801,0.6269748,1.1187279,7.603985,-6.3063273,-0.320823
5.3846464,4.667392,0.04610801,0.6269748,1.1187279,7.603985,-6.3063273,-0.320823
5.385854,4.6682262,0.054630127,0.6269748,1.1347069,7.5465236,-6.3542113,-0.34955344
5.3870773,4.6690636,0.054630127,0.6269748,1.1347069,7.5465236,-6.3542113,-0.34955344
5.388339,4.6699247,0.06315224,0.6248443,1.1549469,7.431602,-6.325481,-0.33518824
5.389598,4.6707764,0.06315224,0.6248443,1.1549469,7.431602,-6.325481,-0.33518824
5.39089,4.67166,0.06954383,0.6184527,1.179448,7.3549876,-6.3685765,-0.2873042
5.392185,4.672538,0.06954383,0.6184527,1.179448,7.3549876,-6.3685765,-0.2873042
5.3935018,4.673376,0.075935416,0.6088653,1.2082101,7.249643,-6.3685765,-0.34476504
5.394816,4.6742067,0.075935416,0.6088653,1.2082101,7.249643,-6.3685765,-0.34476504
5.396163,4.67502,0.082327,0.5950169,1.2391028,7.2927384,-6.3829417,-0.34476504
5.3975077,4.675826,0.082327,0.5950169,1.2391028,7.2927384,-6.3829417,-0.34476504
5.398887,4.6767306,0.089783855,0.5790379,1.2689302,7.2304893,-6.373365,-0.1436521
5.4002676,4.67763,0.089783855,0.5790379,1.2689302,7.2304893,-6.373365,-0.1436521
5.4016814,4.678507,0.09937123,0.56199366,1.2987576,7.153875,-6.4068837,-0.1436521
5.403096,4.6793795,0.09937123,0.56199366,1.2987576,7.153875,-6.4068837,-0.1436521
5.4045424,4.6802263,0.10895862,0.5428189,1.328585,7.038953,-6.435614,-0.1436521
5.4059935,4.6810703,0.10895862,0.5428189,1.328585,7.038953,-6.435614,-0.1436521
5.40769,4.6820273,0.12174179,0.5225789,1.3637388,6.95755,-6.4260373,-0.11492168
5.408995,4.6827593,0.12174179,0.5225789,1.3637388,6.95755,-6.4260373,-0.11492168
5.410606,4.683626,0.13559023,0.5002083,1.3988924,6.8905125,-6.4739213,-0.095768064
5.412254,4.6845083,0.13559023,0.5002083,1.3988924,6.8905125,-6.4739213,-0.095768064
5.41374,4.6852555,0.15263446,0.47677252,1.4361767,6.8330517,-6.459556,-0.12928689
5.41374,4.6852555,0.15263446,0.47677252,1.4361767,6.8330517,-6.459556,-0.12928689
5.41374,4.6852555,0.15263446,0.47677252,1.4361767,6.8330517,-6.459556,-0.12928689
5.4181232,4.687436,0.17180921,0.44907564,1.4766568,6.7612257,-6.4882865,-0.17717093
5.419891,4.688221,0.18991871,0.4213788,1.5182021,6.6415157,-6.50744,-0.14844051
5.4215827,4.6889668,0.18991871,0.4213788,1.5182021,6.6415157,-6.50744,-0.14844051
5.423244,4.689645,0.20909347,0.39261663,1.5682695,6.483498,-6.5361705,-0.20590134
5.4249372,4.690331,0.20909347,0.39261663,1.5682695,6.483498,-6.5361705,-0.20590134
5.427158,4.691183,0.22826824,0.36598504,1.6257938,6.291962,-6.5984197,-0.21547815
5.428474,4.6916847,0.22826824,0.36598504,1.6257938,6.291962,-6.5984197,-0.21547815
5.4302807,4.692337,0.24637774,0.33828816,1.6961012,6.1004257,-6.6750345,-0.20590134
5.4321036,4.6929913,0.24637774,0.33828816,1.6961012,6.1004257,-6.6750345,-0.20590134
5.434016,4.6936345,0.26342195,0.31165653,1.7791919,5.861006,-6.6893997,-0.20590134
5.435929,4.6942735,0.26342195,0.31165653,1.7791919,5.861006,-6.6893997,-0.20590134
5.4379377,4.694899,0.27940091,0.29248178,1.8750657,5.6646814,-6.703765,-0.25378537
5.4399467,4.695521,0.27940091,0.29248178,1.8750657,5.6646814,-6.703765,-0.25378537
5.442066,4.696155,0.2953799,0.27756807,1.984788,5.377377,-6.7803793,-0.17717093
5.444186,4.696786,0.2953799,0.27756807,1.984788,5.377377,-6.7803793,-0.17717093
5.4464254,4.6974106,0.31029359,0.26585016,2.1040976,5.080496,-6.7851677,-0.23942018
5.4486647,4.6980314,0.31029359,0.26585016,2.1040976,5.080496,-6.7851677,-0.23942018
5.4510407,4.6986504,0.32733783,0.25626278,2.2404513,4.8267107,-6.7612257,-0.31124622
5.4534163,4.6992655,0.32733783,0.25626278,2.2404513,4.8267107,-6.7612257,-0.31124622
5.455941,4.6998973,0.34438205,0.24880594,2.388523,4.673482,-6.7468605,-0.23942018
5.4584656,4.7005253,0.34438205,0.24880594,2.388523,4.673482,-6.7468605,-0.23942018
5.46115,4.7011623,0.36355683,0.24241436,2.548313,4.4723687,-6.7468605,-0.2633622
5.4638352,4.701796,0.36355683,0.24241436,2.548313,4.4723687,-6.7468605,-0.2633622
5.466691,4.702449,0.3827316,0.2381533,2.718755,4.280833,-6.789956,-0.21068975
5.469547,4.7030973,0.3827316,0.2381533,2.718755,4.280833,-6.789956,-0.21068975
5.4725814,4.70377,0.40403688,0.23389223,2.8977196,4.2664676,-6.813898,-0.11492168
5.4756193,4.7044396,0.40403688,0.23389223,2.8977196,4.2664676,-6.813898,-0.11492168
5.478844,4.7051296,0.42960322,0.23069644,3.0873365,4.280833,-6.933608,-0.10534488
5.482066,4.7058134,0.42960322,0.23069644,3.0873365,4.280833,-6.933608,-0.10534488
5.485484,4.7065167,0.4562348,0.23069644,3.2801495,4.333505,-7.029376,-0.15801731
5.4889092,4.707217,0.4562348,0.23069644,3.2801495,4.333505,-7.029376,-0.15801731
5.492526,4.7079415,0.48499697,0.2349575,3.4782887,4.4436383,-7.029376,-0.18674773
5.4961357,4.7086596,0.48499697,0.2349575,3.4782887,4.4436383,-7.029376,-0.18674773
5.499955,4.7094107,0.5169549,0.24241436,3.677493,4.620809,-7.1873937,-0.22505496
5.5037713,4.7101555,0.5169549,0.24241436,3.677493,4.620809,-7.1873937,-0.22505496
5.507783,4.710937,0.5510434,0.25519753,3.8735018,4.8267107,-7.374141,-0.2681506
5.511794,4.711712,0.5510434,0.25519753,3.8735018,4.8267107,-7.374141,-0.2681506
5.5159926,4.7125273,0.5851318,0.27224174,4.0652494,4.9799395,-7.4746976,-0.29209262
5.520195,4.713337,0.5851318,0.27224174,4.0652494,4.9799395,-7.4746976,-0.29209262
5.5245833,4.7141905,0.6224161,0.29354703,4.252736,5.2385135,-7.61835,-0.33039984
5.528971,4.7150364,0.6224161,0.29354703,4.252736,5.2385135,-7.61835,-0.33039984
5.533533,4.715924,0.65970033,0.3191134,4.4317,5.4061074,-7.6949644,-0.4165911
5.5380945,4.716802,0.65970033,0.3191134,4.4317,5.4061074,-7.6949644,-0.4165911
5.542818,4.7177253,0.6991151,0.3489408,4.602143,5.5641246,-7.7811556,-0.51714754
5.5475397,4.7186394,0.6991151,0.3489408,4.602143,5.5641246,-7.7811556,-0.51714754
5.5524206,4.7196093,0.7385299,0.3787682,4.7629976,5.7748146,-7.9631147,-0.49799395
5.5572996,4.7205696,0.7385299,0.3787682,4.7629976,5.7748146,-7.9631147,-0.49799395
5.562331,4.721591,0.77687943,0.40646508,4.9110694,5.884948,-8.0684595,-0.39743748
5.567361,4.722602,0.77687943,0.40646508,4.9110694,5.884948,-8.0684595,-0.39743748
5.572536,4.723674,0.8141637,0.43948826,5.0527496,5.93762,-8.231265,-0.35913026
5.5777082,4.7247343,0.8141637,0.43948826,5.0527496,5.93762,-8.231265,-0.35913026
5.58302,4.7258606,0.85357845,0.47677252,5.1880383,5.8705826,-8.312668,-0.33518824
5.5883293,4.726975,0.85357845,0.47677252,5.1880383,5.8705826,-8.312668,-0.33518824
5.5937757,4.7281585,0.8929933,0.51725256,5.3190656,5.741296,-8.394072,-0.31603462
5.5992193,4.729329,0.8929933,0.51725256,5.3190656,5.741296,-8.394072,-0.31603462
5.604798,4.730564,0.9313428,0.5587979,5.4511585,5.841852,-8.288726,-0.19153613
5.6103725,4.731784,0.9313428,0.5587979,5.4511585,5.841852,-8.288726,-0.19153613
5.6160707,4.7330585,0.97075754,0.603539,5.5811205,5.899313,-8.202535,-0.15322891
5.6217613,4.7343163,0.97075754,0.603539,5.5811205,5.899313,-8.202535,-0.15322891
5.627562,4.73563,1.0101724,0.65467167,5.7046914,6.0860605,-8.207323,-0.05267244
5.633351,4.7369256,1.0101724,0.65467167,5.7046914,6.0860605,-8.207323,-0.05267244
5.639242,4.738292,1.0538481,0.7143265,5.8218703,6.1004257,-8.197746,0.023942016
5.645008,4.7396193,1.0538481,0.7143265,5.8218703,6.1004257,-8.197746,0.023942016
5.6509695,4.7410545,1.1007198,0.78569925,5.932658,6.0525417,-8.169016,0.08619126
5.656981,4.742504,1.1007198,0.78569925,5.932658,6.0525417,-8.169016,0.08619126
5.6630006,4.744021,1.1486567,0.86239827,6.0349236,6.009446,-8.173804,0.047884032
5.668994,4.7455316,1.1486567,0.86239827,6.0349236,6.009446,-8.173804,0.047884032
5.675209,4.747132,1.1987242,0.9422931,6.1318626,5.66947,-8.197746,0.11971009
5.6813874,4.7487106,1.1987242,0.9422931,6.1318626,5.66947,-8.197746,0.11971009
5.687694,4.7503853,1.2509221,1.0211227,6.2277365,5.57849,-8.1642275,0.24420857
5.693905,4.75205,1.2509221,1.0211227,6.2277365,5.57849,-8.1642275,0.24420857
5.700326,4.7538023,1.3020548,1.0967565,6.319349,5.4300494,-8.202535,0.25857377
5.7066593,4.7555275,1.3020548,1.0967565,6.319349,5.4300494,-8.202535,0.25857377
5.713112,4.7575707,1.3531874,1.1702597,6.412027,5.3725886,-8.240842,0.45968673
5.7195024,4.7595825,1.3531874,1.1702597,6.412027,5.3725886,-8.240842,0.45968673
5.7261934,4.7616706,1.4043202,1.2405671,6.5025744,5.1810527,-8.312668,0.45010993
5.732941,4.763813,1.4043202,1.2405671,6.5025744,5.1810527,-8.312668,0.45010993
5.739621,4.7659745,1.4543877,1.3087441,6.5909915,5.1379566,-8.374918,0.51235914
5.7459936,4.768029,1.4543877,1.3087441,6.5909915,5.1379566,-8.374918,0.51235914
5.752703,4.770221,1.5065856,1.3747904,6.6751475,5.0421886,-8.485051,0.61291564
5.7594123,4.7724094,1.5065856,1.3747904,6.6751475,5.0421886,-8.485051,0.61291564
5.7661653,4.7746487,1.5587835,1.4365758,6.7561073,5.046977,-8.599973,0.5793968
5.772872,4.776825,1.5587835,1.4365758,6.7561073,5.046977,-8.599973,0.5793968
5.779909,4.779066,1.608851,1.4962306,6.830676,4.8123455,-8.801085,0.60812724
5.786937,4.7813034,1.608851,1.4962306,6.830676,4.8123455,-8.801085,0.60812724
5.793989,4.7834325,1.6610489,1.5548202,6.9063096,4.8123455,-9.016563,0.521936
5.8009787,4.785536,1.6610489,1.5548202,6.9063096,4.8123455,-9.016563,0.521936
5.8079967,4.787728,1.7111163,1.6112791,6.9776826,5.032612,-9.246407,0.51235914
5.814983,4.7899046,1.7111163,1.6112791,6.9776826,5.032612,-9.246407,0.51235914
5.8220153,4.792131,1.757988,1.6688035,7.0384026,5.1571107,-9.399636,0.45010993
5.8290796,4.794356,1.757988,1.6688035,7.0384026,5.1571107,-9.399636,0.45010993
5.8362613,4.7965975,1.8005986,1.7305888,7.0916657,4.8745947,-9.701305,0.36870706
5.843431,4.7988253,1.8005986,1.7305888,7.0916657,4.8745947,-9.701305,0.36870706
5.8506923,4.801094,1.8378829,1.7934394,7.133211,4.7022123,-9.993398,0.29209262
5.8579426,4.803346,1.8378829,1.7934394,7.133211,4.7022123,-9.993398,0.29209262
5.8652635,4.8056374,1.8677102,1.85629,7.1641035,4.606444,-10.453085,0.29688102
5.8725743,4.807911,1.8677102,1.85629,7.1641035,4.606444,-10.453085,0.29688102
5.879933,4.810214,1.8890156,1.9159448,7.1832786,4.4915223,-10.888829,0.15801731
5.887284,4.812499,1.8890156,1.9159448,7.1832786,4.4915223,-10.888829,0.15801731
5.8946695,4.814806,1.902864,1.9713385,7.188605,4.429273,-11.348516,0.34476504
5.9020314,4.8170896,1.902864,1.9713385,7.188605,4.429273,-11.348516,0.34476504
5.9094167,4.8193913,1.9135166,2.0182102,7.1779523,4.3239284,-11.798626,0.21068975
5.9168177,4.821682,1.9135166,2.0182102,7.1779523,4.3239284,-11.798626,0.21068975
5.924187,4.823977,1.9252346,2.0491028,7.1438637,4.074931,-12.090718,0.18674773
5.9314995,4.8262377,1.9252346,2.0491028,7.1438637,4.074931,-12.090718,0.18674773
5.9388204,4.828525,1.9422787,2.061886,7.0906005,4.1611223,-12.334928,0.4357447
5.946178,4.8308086,1.9422787,2.061886,7.0906005,4.1611223,-12.334928,0.4357447
5.953326,4.8330936,1.9667798,2.0544293,7.0181623,4.6686935,-12.220005,0.8858546
5.9604745,4.8353696,1.9667798,2.0544293,7.0181623,4.6686935,-12.220005,0.8858546
5.967458,4.8377285,1.9966072,2.0320587,6.922289,5.1666875,-12.0332575,1.3359646
5.9744444,4.840072,1.9966072,2.0320587,6.922289,5.1666875,-12.0332575,1.3359646
5.9813013,4.8424697,2.0338914,2.0011659,6.794457,5.5162406,-11.640609,1.6519991
5.98816,4.8448505,2.0338914,2.0011659,6.794457,5.5162406,-11.640609,1.6519991
5.994902,4.847286,2.0733063,1.9638817,6.637863,5.8562174,-11.271901,2.0254946
6.0015783,4.849683,2.0733063,1.9638817,6.637863,5.8562174,-11.271901,2.0254946
6.008102,4.8521156,2.1073947,1.9212711,6.4535723,6.066907,-10.951078,2.3223755
6.014633,4.8545375,2.1073947,1.9212711,6.4535723,6.066907,-10.951078,2.3223755
6.020956,4.8569775,2.1361568,1.8743995,6.2479763,6.105214,-10.70687,2.5761611
6.0272923,4.859409,2.1361568,1.8743995,6.2479763,6.105214,-10.70687,2.5761611
6.033406,4.8618503,2.153201,1.8296584,6.026401,6.0621185,-10.582372,2.873042
6.039514,4.864278,2.153201,1.8296584,6.026401,6.0621185,-10.582372,2.873042
6.045434,4.8667216,2.1595926,1.7881131,5.7941737,6.0046577,-10.611102,3.0693667
6.0513134,4.8691382,2.1595926,1.7881131,5.7941737,6.0046577,-10.611102,3.0693667
6.0569725,4.871547,2.1521358,1.7582856,5.5598154,5.947197,-10.67814,3.193865
6.0626216,4.873942,2.1521358,1.7582856,5.5598154,5.947197,-10.67814,3.193865
6.068048,4.876321,2.1350915,1.743372,5.3307834,5.765238,-10.749966,3.3518825
6.0734754,4.8786902,2.1350915,1.743372,5.3307834,5.765238,-10.749966,3.3518825
6.0786986,4.8810425,2.10846,1.7465677,5.107078,5.439626,-10.927136,3.4141316
6.083912,4.8833814,2.10846,1.7465677,5.107078,5.439626,-10.927136,3.4141316
6.088925,4.8856916,2.072241,1.7625468,4.8897643,5.118803,-11.013328,3.2848446
6.093918,4.8879843,2.072241,1.7625468,4.8897643,5.118803,-11.013328,3.2848446
6.09947,4.890599,2.0306957,1.7891784,4.6820374,4.644751,-11.075577,3.2848446
6.103568,4.892521,2.0306957,1.7891784,4.6820374,4.644751,-11.075577,3.2848446
6.1082,4.8947415,1.9827588,1.820071,4.4849634,4.189853,-11.15698,3.217807
6.112819,4.896947,1.9827588,1.820071,4.4849634,4.189853,-11.15698,3.217807
6.117291,4.899123,1.9326913,1.8498985,4.2996078,3.7014358,-11.209652,3.145981
6.1217537,4.901286,1.9326913,1.8498985,4.2996078,3.7014358,-11.209652,3.145981
6.1260676,4.9034123,1.8826239,1.87653,4.1281,3.2369606,-11.15698,3.169923
6.1303725,4.905526,1.8826239,1.87653,4.1281,3.2369606,-11.15698,3.169923
6.134562,4.907616,1.8357522,1.8978353,3.9661798,2.7150247,-11.152191,3.1890767
6.1385827,4.9096146,1.8357522,1.8978353,3.9661798,2.7150247,-11.152191,3.1890767
6.14265,4.911663,1.794207,1.9138143,3.8159776,2.1404164,-11.061212,3.074155
6.146865,4.91378,1.794207,1.9138143,3.8159776,2.1404164,-11.061212,3.074155
6.1551657,4.917964,1.757988,1.9212711,3.6796236,1.5993267,-10.907983,3.1842883
6.1551657,4.917964,1.757988,1.9212711,3.6796236,1.5993267,-10.907983,3.1842883
6.158968,4.9198813,1.7260301,1.9202058,3.556053,1.1731589,-10.85531,3.1794999
6.162847,4.921833,1.7260301,1.9202058,3.556053,1.1731589,-10.85531,3.1794999
6.1667967,4.9238267,1.701529,1.9084879,3.4420698,0.7565677,-10.644621,3.2321723
6.1667967,4.9238267,1.701529,1.9084879,3.4420698,0.7565677,-10.644621,3.2321723
6.1667967,4.9238267,1.701529,1.9084879,3.4420698,0.7565677,-10.644621,3.2321723
6.1667967,4.9238267,1.701529,1.9084879,3.4420698,0.7565677,-10.644621,3.2321723
6.1817403,4.931384,1.6759627,1.8573552,3.246061,0.095768064,-10.386047,3.2273839
6.1850543,4.9330716,1.6759627,1.8573552,3.246061,0.095768064,-10.386047,3.2273839
6.1886444,4.9349203,1.6717016,1.820071,3.1640356,-0.19153613,-10.275913,3.2130187
6.1922255,4.9367595,1.6717016,1.820071,3.1640356,-0.19153613,-10.275913,3.2130187
6.195735,4.93859,1.6717016,1.7742647,3.0915978,-0.272939,-10.151415,3.1555579
6.199264,4.9404263,1.6717016,1.7742647,3.0915978,-0.272939,-10.151415,3.1555579
6.2027063,4.942235,1.6748973,1.7231319,3.024486,-0.37349546,-9.9550905,2.9352913
6.2061505,4.9440393,1.6748973,1.7231319,3.024486,-0.37349546,-9.9550905,2.9352913
6.2095284,4.9458404,1.6780932,1.666673,2.9627006,-0.39264908,-9.782708,2.8778305
6.2129083,4.947638,1.6780932,1.666673,2.9627006,-0.39264908,-9.782708,2.8778305
6.216233,4.9494286,1.681289,1.6070181,2.8998501,-0.37349546,-9.624691,2.7102363
6.219566,4.9512186,1.681289,1.6070181,2.8998501,-0.37349546,-9.624691,2.7102363
6.2227974,4.9529934,1.6802237,1.542037,2.8359342,-0.320823,-9.466674,2.695871
6.2260337,4.954766,1.6802237,1.542037,2.8359342,-0.320823,-9.466674,2.695871
6.2292013,4.9565325,1.6780932,1.4727948,2.7730837,-0.33039984,-9.361329,2.6623523
6.232368,4.958295,1.6780932,1.4727948,2.7730837,-0.33039984,-9.361329,2.6623523
6.2354674,4.9600434,1.673832,1.4024874,2.7081025,-0.2633622,-9.3421755,2.5809495
6.238569,4.961788,1.673832,1.4024874,2.7081025,-0.2633622,-9.3421755,2.5809495
6.241573,4.9635267,1.6674405,1.3332452,2.6399255,-0.23463176,-9.260772,2.6192567
6.2445846,4.9652653,1.6674405,1.3332452,2.6399255,-0.23463176,-9.260772,2.6192567
6.2475276,4.9669785,1.6599836,1.2650682,2.5760098,-0.23942018,-9.212888,2.5330653
6.250472,4.968688,1.6599836,1.2650682,2.5760098,-0.23942018,-9.212888,2.5330653
6.253343,4.9703784,1.6514616,1.1968913,2.513159,-0.2777274,-9.121908,2.4899697
6.2562156,4.972064,1.6514616,1.1968913,2.513159,-0.2777274,-9.121908,2.4899697
6.259015,4.973725,1.6429394,1.130845,2.4513738,-0.31124622,-9.064447,2.432509
6.2618437,4.975396,1.6429394,1.130845,2.4513738,-0.31124622,-9.064447,2.432509
6.264628,4.9770675,1.6344173,1.0679944,2.3970451,-0.2873042,-8.963891,2.4037786
6.267342,4.97869,1.6344173,1.0679944,2.3970451,-0.2873042,-8.963891,2.4037786
6.2699385,4.9802322,1.6248299,1.0072743,2.3469777,-0.11971009,-8.801085,2.2601264
6.2725725,4.9817934,1.6248299,1.0072743,2.3469777,-0.11971009,-8.801085,2.2601264
6.275055,4.983308,1.613112,0.9486847,2.2926493,0.047884032,-8.614338,2.1643584
6.277529,4.984822,1.613112,0.9486847,2.2926493,0.047884032,-8.614338,2.1643584
6.279839,4.986334,1.5960678,0.89329094,2.2340598,0.2873042,-8.384495,2.0829554
6.2821503,4.987848,1.5960678,0.89329094,2.2340598,0.2873042,-8.384495,2.0829554
0.0011611767,4.989366,1.5736972,0.8432235,2.166948,0.45489833,-8.1402855,2.0829554
0.0033630645,4.9908857,1.5736972,0.8432235,2.166948,0.45489833,-8.1402855,2.0829554
0.0054610847,4.9923935,1.5449351,0.79635185,2.0881186,0.5793968,-7.9583263,2.0925324
0.007551683,4.9938936,1.5449351,0.79635185,2.0881186,0.5793968,-7.9583263,2.0925324
0.009545624,4.9953766,1.5076509,0.7548066,1.9997016,0.59376204,-7.6710224,2.1021092
0.011540303,4.996857,1.5076509,0.7548066,1.9997016,0.59376204,-7.6710224,2.1021092
0.013435426,4.9982967,1.4618444,0.716457,1.9059583,0.5410896,-7.4507556,2.0733786
0.015331289,4.999734,1.4618444,0.716457,1.9059583,0.5410896,-7.4507556,2.0733786
0.017118162,5.001109,1.407516,0.6781075,1.807954,0.47884035,-7.3071036,2.0350714
0.01890935,5.0024853,1.407516,0.6781075,1.807954,0.47884035,-7.3071036,2.0350714
0.020590717,5.003805,1.3478612,0.639758,1.7056886,0.51714754,-7.2113357,2.0207062
0.022276152,5.005125,1.3478612,0.639758,1.7056886,0.51714754,-7.2113357,2.0207062
0.023839854,5.006384,1.2807496,0.6003432,1.6002275,0.60812724,-7.0964136,2.0398598
0.025408706,5.0076447,1.2807496,0.6003432,1.6002275,0.60812724,-7.0964136,2.0398598
0.026864383,5.0088425,1.2093768,0.5641242,1.4926357,0.6560113,-7.062895,2.078167
0.028313043,5.0100336,1.2093768,0.5641242,1.4926357,0.6560113,-7.062895,2.078167
0.02965421,5.011155,1.1358736,0.5321663,1.3839787,0.7134721,-7.1251445,2.1021092
0.030995632,5.012276,1.1358736,0.5321663,1.3839787,0.7134721,-7.1251445,2.1021092
0.032219164,5.0133266,1.0623703,0.5023389,1.2742565,0.7517793,-7.1347213,2.15957
0.03344531,5.0143785,1.0623703,0.5023389,1.2742565,0.7517793,-7.1347213,2.15957
0.034562767,5.015352,0.9856713,0.4778378,1.1666648,0.6895301,-7.2544312,2.1930888
0.03568044,5.016324,0.9856713,0.4778378,1.1666648,0.6895301,-7.2544312,2.1930888
0.03668409,5.0172215,0.9089722,0.45440197,1.0580078,0.60812724,-7.2544312,2.2361844
0.037689947,5.018119,0.9089722,0.45440197,1.0580078,0.60812724,-7.2544312,2.2361844
0.038591642,5.018937,0.83546895,0.43735775,0.95254666,0.50757074,-7.321469,2.231396
0.039493617,5.019754,0.83546895,0.43735775,0.95254666,0.50757074,-7.321469,2.231396
0.04029347,5.020502,0.76090044,0.42244405,0.85347706,0.45010993,-7.4507556,2.3319526
0.041095853,5.0212507,0.76090044,0.42244405,0.85347706,0.45010993,-7.4507556,2.3319526
0.04180859,5.021948,0.68952775,0.41179138,0.76079905,0.37828386,-7.513005,2.4708161
0.042519048,5.022642,0.68952775,0.41179138,0.76079905,0.37828386,-7.513005,2.4708161
0.043139603,5.0232544,0.6213508,0.4000735,0.67025155,0.29688102,-7.551312,2.4133554
0.043760214,5.023865,0.6213508,0.4000735,0.67025155,0.29688102,-7.551312,2.4133554
0.04429964,5.0243998,0.55423915,0.39048612,0.5860957,0.18674773,-7.6231384,2.4037786
0.044837117,5.024931,0.55423915,0.39048612,0.5860957,0.18674773,-7.6231384,2.4037786
0.045303017,5.025431,0.49032328,0.3851598,0.50833136,0.14844051,-7.7093296,2.566584
0.04576871,5.0259304,0.49032328,0.3851598,0.50833136,0.14844051,-7.7093296,2.566584
0.046156906,5.0263414,0.42853796,0.37983346,0.4326976,0.15801731,-7.771579,2.4947581
0.04654601,5.0267525,0.42853796,0.37983346,0.4326976,0.15801731,-7.771579,2.4947581
0.046865087,5.027099,0.37207893,0.37450713,0.35919434,0.15801731,-7.7811556,2.4708161
0.047219772,5.0274835,0.37207893,0.37450713,0.35919434,0.15801731,-7.7811556,2.4708161
0.04745101,5.0277395,0.31455466,0.36811554,0.2888869,0.15322891,-7.8386164,2.456451
0.0476958,5.0280094,0.31455466,0.36811554,0.2888869,0.15322891,-7.8386164,2.456451
0.04787504,5.0282474,0.2591609,0.36278924,0.21751417,0.19153613,-7.9152308,2.552219
0.048054222,5.028485,0.2591609,0.36278924,0.21751417,0.19153613,-7.9152308,2.552219
0.048162747,5.028668,0.20696294,0.3574629,0.14401093,0.24420857,-7.991845,2.566584
0.048271235,5.0288506,0.20696294,0.3574629,0.14401093,0.24420857,-7.991845,2.566584
0.048307218,5.0289955,0.15369973,0.35107133,0.06944242,0.25857377,-8.073248,2.6767175
0.048343156,5.029141,0.15369973,0.35107133,0.06944242,0.25857377,-8.073248,2.6767175
0.0483056,5.029237,0.10150176,0.34681025,-0.0072566224,0.34476504,-8.202535,2.7485435
0.04826802,5.029332,0.10150176,0.34681025,-0.0072566224,0.34476504,-8.202535,2.7485435
0.048157122,5.029391,0.05036907,0.34148395,-0.08715145,0.23463176,-8.236053,2.8299465
0.04804631,5.0294495,0.05036907,0.34148395,-0.08715145,0.23463176,-8.236053,2.8299465
0.04786383,5.0294585,-0.0018288894,0.34041867,-0.1638505,0.18195933,-8.288726,2.858677
0.047681388,5.029468,-0.0018288894,0.34041867,-0.1638505,0.18195933,-8.288726,2.858677
0.047443252,5.02945,-0.05402685,0.3425492,-0.2416148,0.06703765,-8.312668,2.9735985
0.047205526,5.0294323,-0.05402685,0.3425492,-0.2416148,0.06703765,-8.312668,2.9735985
0.046936527,5.02939,-0.106224805,0.345745,-0.31618333,-0.11971009,-8.307879,3.0693667
0.046667233,5.0293474,-0.106224805,0.345745,-0.31618333,-0.11971009,-8.307879,3.0693667
0.046386294,5.029268,-0.1573575,0.35213658,-0.3854255,-0.33039984,-8.403648,3.1316159
0.04610602,5.029189,-0.1573575,0.35213658,-0.3854255,-0.33039984,-8.403648,3.1316159
0.045815326,5.029059,-0.20742492,0.35639766,-0.4482761,-0.51235914,-8.494628,3.193865
0.045524593,5.028929,-0.20742492,0.35639766,-0.4482761,-0.51235914,-8.494628,3.193865
0.045223165,5.0287404,-0.25429657,0.3606587,-0.5068657,-0.7134721,-8.576031,3.2130187
0.044921856,5.0285516,-0.25429657,0.3606587,-0.5068657,-0.7134721,-8.576031,3.2130187
0.04459989,5.028308,-0.29584187,0.36491975,-0.5558678,-0.842759,-8.6813755,3.2034419
0.044277858,5.0280643,-0.29584187,0.36491975,-0.5558678,-0.842759,-8.6813755,3.2034419
0.043912545,5.0277834,-0.33312613,0.36598504,-0.59954363,-0.90021986,-8.7292595,3.2800562
0.043547448,5.027504,-0.33312613,0.36598504,-0.59954363,-0.90021986,-8.7292595,3.2800562
0.043150377,5.027187,-0.36508408,0.36491975,-0.63895845,-0.9624691,-8.781932,3.289633
0.042753503,5.02687,-0.36508408,0.36491975,-0.63895845,-0.9624691,-8.781932,3.289633
0.042327967,5.0265207,-0.39278096,0.36172396,-0.67517745,-1.0103531,-8.748413,3.2561142
0.041901704,5.026171,-0.39278096,0.36172396,-0.67517745,-1.0103531,-8.748413,3.2561142
0.04144396,5.025793,-0.41728202,0.35639766,-0.71033114,-1.0534488,-8.791509,3.2561142
0.040986788,5.025417,-0.41728202,0.35639766,-0.71033114,-1.0534488,-8.791509,3.2561142
0.040488806,5.0250087,-0.4396526,0.35000607,-0.74655014,-1.115698,-8.748413,3.2465374
0.04000323,5.0246115,-0.4396526,0.35000607,-0.74655014,-1.115698,-8.748413,3.2465374
0.039471857,5.02419,-0.46095788,0.3393534,-0.7838344,-1.1875241,-8.7292595,3.2944214
0.038939588,5.023768,-0.46095788,0.3393534,-0.7838344,-1.1875241,-8.7292595,3.2944214
0.0383722,5.0233183,-0.48652422,0.325505,-0.81898814,-1.2880806,-8.714894,3.3087866
0.03780442,5.022869,-0.48652422,0.325505,-0.81898814,-1.2880806,-8.714894,3.3087866
0.037208587,5.0223875,-0.51209056,0.309526,-0.85094607,-1.3120226,-8.7771435,3.2465374
0.0366117,5.021907,-0.51209056,0.309526,-0.85094607,-1.3120226,-8.7771435,3.2465374
0.035980586,5.0214024,-0.53446114,0.28822073,-0.8807735,-1.3599066,-8.7771435,3.2513258
0.035348393,5.0208983,-0.53446114,0.28822073,-0.8807735,-1.3599066,-8.7771435,3.2513258
0.03468557,5.020366,-0.5557664,0.26371965,-0.91166615,-1.3934253,-8.911219,3.2130187
0.03402222,5.019835,-0.5557664,0.26371965,-0.91166615,-1.3934253,-8.911219,3.2130187
0.03332851,5.0192766,-0.57494116,0.23708802,-0.94042826,-1.4700398,-8.973468,3.1555579
0.032634337,5.0187182,-0.57494116,0.23708802,-0.94042826,-1.4700398,-8.973468,3.1555579
0.03191142,5.0181417,-0.5898549,0.20939115,-0.96492934,-1.541866,-9.069236,3.1411927
0.03118733,5.017565,-0.5898549,0.20939115,-0.96492934,-1.541866,-9.069236,3.1411927
0.030437447,5.016971,-0.6005075,0.17956375,-0.9851694,-1.6376339,-9.136273,3.098097
0.029682582,5.016375,-0.6005075,0.17956375,-0.9851694,-1.6376339,-9.136273,3.098097
0.02888655,5.015753,-0.60796434,0.1476058,-0.99901783,-1.7142484,-9.299079,3.107674
0.028134882,5.0151668,-0.60796434,0.1476058,-0.99901783,-1.7142484,-9.299079,3.107674
0.027353853,5.01456,-0.61116016,0.11458261,-1.00754,-1.7381904,-9.394848,3.0454245
0.0265646,5.0139484,-0.61116016,0.11458261,-1.00754,-1.7381904,-9.394848,3.0454245
0.025763612,5.013342,-0.60902965,0.08049415,-1.0086052,-1.8148049,-9.476251,3.0885203
0.024961526,5.0127354,-0.60902965,0.08049415,-1.0086052,-1.8148049,-9.476251,3.0885203
0.024154019,5.012132,-0.60263807,0.04427516,-1.0054094,-1.910573,-9.581595,3.0597897
0.02334462,5.0115285,-0.60263807,0.04427516,-1.0054094,-1.910573,-9.581595,3.0597897
0.022536539,5.010931,-0.5941159,0.008056169,-0.995822,-1.9201498,-9.653421,3.0071173
0.02172503,5.010332,-0.5941159,0.008056169,-0.995822,-1.9201498,-9.653421,3.0071173
0.020920571,5.0097456,-0.5802675,-0.029228088,-0.9787778,-1.9393034,-9.730036,2.9831753
0.020116678,5.009161,-0.5802675,-0.029228088,-0.9787778,-1.9393034,-9.730036,2.9831753
0.019319696,5.0085855,-0.5653538,-0.06970814,-0.9574725,-1.9249382,-9.825804,2.9352913
0.018523408,5.008011,-0.5653538,-0.06970814,-0.9574725,-1.9249382,-9.825804,2.9352913
0.017741103,5.0074596,-0.54617906,-0.11231872,-0.92977566,-1.8866309,-9.868899,2.9783869
0.016914848,5.0068784,-0.54617906,-0.11231872,-0.92977566,-1.8866309,-9.868899,2.9783869
0.016914848,5.0068784,-0.54617906,-0.11231872,-0.92977566,-1.8866309,-9.868899,2.9783869
0.01528292,5.0057387,-0.52487373,-0.15386403,-0.89994824,-1.8531121,-9.892841,2.896984
0.014648661,5.0053053,-0.4993074,-0.19753987,-0.86692506,-1.7812861,-9.940725,2.9161377
0.014648661,5.0053053,-0.4993074,-0.19753987,-0.86692506,-1.7812861,-9.940725,2.9161377
0.012411172,5.003804,-0.47054526,-0.24228097,-0.8317713,-1.7286136,-9.974244,2.8538885
0.012411172,5.003804,-0.47054526,-0.24228097,-0.8317713,-1.7286136,-9.974244,2.8538885
0.011716306,5.003355,-0.44071785,-0.28702208,-0.7934218,-1.5945383,-9.993398,2.8443117
0.011716306,5.003355,-0.44071785,-0.28702208,-0.7934218,-1.5945383,-9.993398,2.8443117
0.010358263,5.002485,-0.40662938,-0.32963267,-0.7550723,-1.4700398,-9.9790325,2.8060043
0.009663464,5.002053,-0.40662938,-0.32963267,-0.7550723,-1.4700398,-9.9790325,2.8060043
0.0090272,5.001675,-0.37147567,-0.37224326,-0.7145922,-1.3455414,-9.983821,2.815581
0.008374811,5.001289,-0.37147567,-0.37224326,-0.7145922,-1.3455414,-9.983821,2.815581
0.007749735,5.0009375,-0.33845246,-0.41378856,-0.6741122,-1.2210429,-9.959879,2.834735
0.0071235755,5.0005856,-0.33845246,-0.41378856,-0.6741122,-1.2210429,-9.959879,2.834735
0.0065253587,5.0002613,-0.304364,-0.4510728,-0.6336321,-1.0486604,-9.854534,2.7629087
0.005928558,4.9999385,-0.304364,-0.4510728,-0.6336321,-1.0486604,-9.854534,2.7629087
0.0053572482,4.999655,-0.27027553,-0.48409602,-0.5974131,-0.90979666,-9.811439,2.8060043
0.004786135,4.9993715,-0.27027553,-0.48409602,-0.5974131,-0.90979666,-9.811439,2.8060043
0.0042418386,4.9991174,-0.23618707,-0.5139234,-0.56012887,-0.82360536,-9.782708,2.7724855
0.003696699,4.9988637,-0.23618707,-0.5139234,-0.56012887,-0.82360536,-9.782708,2.7724855
0.0031802475,4.99864,-0.20422913,-0.53948975,-0.5228446,-0.6512229,-9.68694,2.7581203
0.0026640305,4.998417,-0.20422913,-0.53948975,-0.5228446,-0.6512229,-9.68694,2.7581203
0.0021689988,4.9982014,-0.175467,-0.5586645,-0.48556036,-0.47884035,-9.634268,2.681506
0.0016745887,4.997986,-0.175467,-0.5586645,-0.48556036,-0.47884035,-9.634268,2.681506
0.0012087242,4.997797,-0.14883539,-0.572513,-0.4514719,-0.33039984,-9.56723,2.705448
0.00074359897,4.997609,-0.14883539,-0.572513,-0.4514719,-0.33039984,-9.56723,2.705448
0.00029036545,4.997422,-0.12646483,-0.5799698,-0.41951397,-0.19153613,-9.514558,2.6862943
6.2830243,4.997237,-0.12646483,-0.5799698,-0.41951397,-0.19153613,-9.514558,2.6862943
6.282522,4.9970326,-0.106224805,-0.5831656,-0.39075184,-0.02873042,-9.495404,2.695871
6.2820263,4.99683,-0.106224805,-0.5831656,-0.39075184,-0.02873042,-9.495404,2.695871
6.281469,4.9966435,-0.09024584,-0.5810351,-0.36305496,0.05267244,-9.428367,2.6671407
6.280916,4.9964557,-0.09024584,-0.5810351,-0.36305496,0.05267244,-9.428367,2.6671407
6.280325,4.996312,-0.076397404,-0.57570875,-0.33642334,0.19632454,-9.351752,2.6192567
6.2797346,4.996168,-0.076397404,-0.57570875,-0.33642334,0.19632454,-9.351752,2.6192567
6.2791424,4.9960675,-0.06574476,-0.5650561,-0.31511804,0.25857377,-9.251195,2.6384103
6.2785487,4.995966,-0.06574476,-0.5650561,-0.31511804,0.25857377,-9.251195,2.6384103
6.2779765,4.9958706,-0.057222642,-0.55333817,-0.29807383,0.33518824,-9.222465,2.6048915
6.277405,4.9957743,-0.057222642,-0.55333817,-0.29807383,0.33518824,-9.222465,2.6048915
6.276845,4.99572,-0.05189632,-0.540555,-0.27996433,0.45010993,-9.112331,2.6527755
6.2762833,4.9956646,-0.05189632,-0.540555,-0.27996433,0.45010993,-9.112331,2.6527755
6.2757463,4.9955983,-0.04763526,-0.5235108,-0.26398537,0.521936,-9.050082,2.5809495
6.275208,4.995532,-0.04763526,-0.5235108,-0.26398537,0.521936,-9.050082,2.5809495
6.274686,4.995485,-0.04443947,-0.5054013,-0.2512022,0.6464345,-8.959103,2.60968
6.274164,4.9954376,-0.04443947,-0.5054013,-0.2512022,0.6464345,-8.959103,2.60968
6.273657,4.9953938,-0.043374203,-0.4872918,-0.24054953,0.60333884,-8.892065,2.6001031
6.27315,4.995351,-0.043374203,-0.4872918,-0.24054953,0.60333884,-8.892065,2.6001031
6.2726583,4.995293,-0.042308938,-0.46598652,-0.23096216,0.6943185,-8.863335,2.528277
6.2721677,4.9952364,-0.042308938,-0.46598652,-0.23096216,0.6943185,-8.863335,2.528277
6.271691,4.995176,-0.04443947,-0.4425507,-0.22244005,0.7182605,-8.820239,2.5091233
6.2712145,4.9951153,-0.04443947,-0.4425507,-0.22244005,0.7182605,-8.820239,2.5091233
6.270752,4.995056,-0.045504734,-0.4191149,-0.2149832,0.7613561,-8.748413,2.4947581
6.2702894,4.9949965,-0.045504734,-0.4191149,-0.2149832,0.7613561,-8.748413,2.4947581
6.2698383,4.994936,-0.049765788,-0.3946138,-0.20965686,0.78050977,-8.743625,2.504335
6.269387,4.994875,-0.049765788,-0.3946138,-0.20965686,0.78050977,-8.743625,2.504335
6.2689424,4.9948134,-0.05509211,-0.36798218,-0.20113476,0.81402856,-8.7053175,2.5234885
6.268515,4.994755,-0.05509211,-0.36798218,-0.20113476,0.81402856,-8.7053175,2.5234885
6.2680936,4.994686,-0.060418434,-0.33922005,-0.19474317,0.7757214,-8.652645,2.4899697
6.2676725,4.9946175,-0.060418434,-0.33922005,-0.19474317,0.7757214,-8.652645,2.4899697
6.267263,4.9945445,-0.06574476,-0.31045792,-0.19048211,0.7374141,-8.623915,2.4851813
6.2668543,4.9944715,-0.06574476,-0.31045792,-0.19048211,0.7374141,-8.623915,2.4851813
6.266459,4.994389,-0.07426687,-0.2838263,-0.18302526,0.7661445,-8.628703,2.480393
6.266064,4.9943066,-0.07426687,-0.2838263,-0.18302526,0.7661445,-8.628703,2.480393
6.2656903,4.9941926,-0.08172372,-0.25719467,-0.17450315,0.7278373,-8.662222,2.3798366
6.265317,4.994078,-0.08172372,-0.25719467,-0.17450315,0.7278373,-8.662222,2.3798366
6.264957,4.9939556,-0.089180574,-0.23162833,-0.16811156,0.6655881,-8.6334915,2.3798366
6.264597,4.9938335,-0.089180574,-0.23162833,-0.16811156,0.6655881,-8.6334915,2.3798366
6.2642593,4.9936905,-0.09663743,-0.20499672,-0.15958944,0.63206923,-8.6334915,2.3319526
6.2639217,4.993548,-0.09663743,-0.20499672,-0.15958944,0.63206923,-8.6334915,2.3319526
6.263602,4.993393,-0.10515954,-0.18049563,-0.15213259,0.5746084,-8.662222,2.3415294
6.2632813,4.9932375,-0.10515954,-0.18049563,-0.15213259,0.5746084,-8.662222,2.3415294
6.2629757,4.9930744,-0.11368166,-0.15705982,-0.14361048,0.59376204,-8.7053175,2.3463178
6.26267,4.9929104,-0.11368166,-0.15705982,-0.14361048,0.59376204,-8.7053175,2.3463178
6.262394,4.9927216,-0.122203775,-0.133624,-0.13615362,0.521936,-8.690952,2.2936451
6.262118,4.9925327,-0.122203775,-0.133624,-0.13615362,0.521936,-8.690952,2.2936451
6.261846,4.9923496,-0.12966062,-0.11231872,-0.12550098,0.50757074,-8.734048,2.3702598
6.261574,4.9921665,-0.12966062,-0.11231872,-0.12550098,0.50757074,-8.734048,2.3702598
6.2613373,4.9919586,-0.13711748,-0.09207869,-0.11378307,0.46926352,-8.7771435,2.327164
6.261101,4.9917507,-0.13711748,-0.09207869,-0.11378307,0.46926352,-8.7771435,2.327164
6.2608557,4.9915614,-0.1456396,-0.07290393,-0.10206516,0.4165911,-8.825027,2.456451
6.26061,4.9913726,-0.1456396,-0.07290393,-0.10206516,0.4165911,-8.825027,2.456451
6.2603803,4.9911733,-0.15096591,-0.057990227,-0.093543045,0.4213795,-8.825027,2.4420857
6.260151,4.9909744,-0.15096591,-0.057990227,-0.093543045,0.4213795,-8.825027,2.4420857
6.259957,4.9907465,-0.15629223,-0.043076526,-0.08608619,0.4309563,-8.892065,2.3798366
6.259758,4.990513,-0.15629223,-0.043076526,-0.08608619,0.4309563,-8.892065,2.3798366
6.2595406,4.9902487,-0.16374908,-0.028162822,-0.078629345,0.46926352,-8.911219,2.3798366
6.25937,4.990042,-0.16374908,-0.028162822,-0.078629345,0.46926352,-8.911219,2.3798366
6.2591968,4.989806,-0.17014067,-0.016444914,-0.075433545,0.4357447,-8.939949,2.3894134
6.2590256,4.9895744,-0.17014067,-0.016444914,-0.075433545,0.4357447,-8.939949,2.3894134
6.258826,4.9893594,-0.17653225,-0.007922798,-0.07436828,0.40701428,-8.963891,2.4899697
6.2586236,4.9891434,-0.17653225,-0.007922798,-0.07436828,0.40701428,-8.963891,2.4899697
6.25842,4.988923,-0.18398911,0.0005993177,-0.076498814,0.40701428,-8.968679,2.4947581
6.258216,4.9887037,-0.18398911,0.0005993177,-0.076498814,0.40701428,-8.968679,2.4947581
6.25802,4.988467,-0.18931544,0.00592564,-0.077564076,0.37349546,-9.030929,2.504335
6.257823,4.9882317,-0.18931544,0.00592564,-0.077564076,0.37349546,-9.030929,2.504335
6.2576337,4.987981,-0.19464175,0.008056169,-0.078629345,0.35913026,-9.078813,2.5091233
6.257443,4.9877315,-0.19464175,0.008056169,-0.078629345,0.35913026,-9.078813,2.5091233
6.257256,4.987472,-0.19890282,0.009121433,-0.08182514,0.36391866,-9.078813,2.4947581
6.257068,4.987213,-0.19890282,0.009121433,-0.08182514,0.36391866,-9.078813,2.4947581
6.256903,4.9869313,-0.20209861,0.008056169,-0.08608619,0.33039984,-9.078813,2.4756045
6.2567377,4.9866495,-0.20209861,0.008056169,-0.08608619,0.33039984,-9.078813,2.4756045
6.256586,4.9863567,-0.2052944,0.00592564,-0.08821672,0.2777274,-9.11712,2.528277
6.256433,4.9860644,-0.2052944,0.00592564,-0.08821672,0.2777274,-9.11712,2.528277
6.2562904,4.9857655,-0.2084902,0.0027298466,-0.08928198,0.272939,-9.121908,2.528277
6.2561464,4.985467,-0.2084902,0.0027298466,-0.08928198,0.272939,-9.121908,2.528277
6.2560225,4.9851594,-0.21062072,-0.0015312112,-0.091412514,0.272939,-9.102755,2.4995465
6.255898,4.9848514,-0.21062072,-0.0015312112,-0.091412514,0.272939,-9.102755,2.4995465
6.2557926,4.9845386,-0.21275125,-0.0068575335,-0.09460831,0.272939,-9.141062,2.432509
6.2556877,4.984226,-0.21275125,-0.0068575335,-0.09460831,0.272939,-9.141062,2.432509
6.2555833,4.9839115,-0.21381652,-0.012183856,-0.0978041,0.2681506,-9.251195,2.5091233
6.2554803,4.983597,-0.21381652,-0.012183856,-0.0978041,0.2681506,-9.251195,2.5091233
6.255255,4.9834337,-0.21488178,-0.017510178,-0.10313042,0.32561144,-9.294291,2.60968
6.2550335,4.983274,-0.21488178,-0.017510178,-0.10313042,0.32561144,-9.294291,2.60968
6.2548475,4.983145,-0.21381652,-0.0228365,-0.108456746,0.31603462,-9.375694,2.6527755
6.254666,4.983019,-0.21381652,-0.0228365,-0.108456746,0.31603462,-9.375694,2.6527755
6.254582,4.9829044,-0.21275125,-0.026032293,-0.11165254,0.25857377,-9.457097,2.695871
6.254499,4.9827895,-0.21275125,-0.026032293,-0.11165254,0.25857377,-9.457097,2.695871
6.254499,4.9826317,-0.21275125,-0.027097559,-0.11378307,0.18674773,-9.504981,2.681506
6.254498,4.982475,-0.21275125,-0.027097559,-0.11378307,0.18674773,-9.504981,2.681506
6.25448,4.982335,-0.21062072,-0.028162822,-0.11378307,0.15322891,-9.557653,2.743755
6.254461,4.982196,-0.21062072,-0.028162822,-0.11378307,0.15322891,-9.557653,2.743755
6.2544165,4.9820766,-0.2052944,-0.029228088,-0.11271781,0.20111294,-9.619903,2.767697
6.254371,4.9819574,-0.2052944,-0.029228088,-0.11271781,0.20111294,-9.619903,2.767697
6.2543273,4.9818454,-0.19890282,-0.027097559,-0.11058728,0.23942018,-9.677363,2.7389667
6.254283,4.9817333,-0.19890282,-0.027097559,-0.11058728,0.23942018,-9.677363,2.7389667
6.2543006,4.9815044,-0.19038069,-0.023901764,-0.10952201,0.16759412,-9.787497,2.6623523
6.254319,4.9812765,-0.19038069,-0.023901764,-0.10952201,0.16759412,-9.787497,2.6623523
6.254347,4.9810753,-0.17972806,-0.016444914,-0.108456746,0.0047884034,-9.821015,2.657564
6.254375,4.9808745,-0.17972806,-0.016444914,-0.108456746,0.0047884034,-9.821015,2.657564
6.2544084,4.980721,-0.16907541,-0.012183856,-0.10526095,-0.07182605,-9.907207,2.767697
6.2544417,4.9805684,-0.16907541,-0.012183856,-0.10526095,-0.07182605,-9.907207,2.767697
6.2544727,4.980444,-0.16055329,-0.014314385,-0.09886937,-0.04309563,-10.012551,2.8491
6.2545037,4.98032,-0.16055329,-0.014314385,-0.09886937,-0.04309563,-10.012551,2.8491
6.254534,4.980219,-0.15096591,-0.017510178,-0.08928198,0.038307227,-10.108319,2.8874073
6.2545633,4.9801183,-0.15096591,-0.017510178,-0.08928198,0.038307227,-10.108319,2.8874073
6.254576,4.980051,-0.14031327,-0.0228365,-0.078629345,0.1388637,-10.103531,2.9017725
6.2545886,4.9799848,-0.14031327,-0.0228365,-0.078629345,0.1388637,-10.103531,2.9017725
6.2546067,4.979931,-0.12966062,-0.028162822,-0.0679767,0.14844051,-10.13705,2.9113493
6.254625,4.9798765,-0.12966062,-0.028162822,-0.0679767,0.14844051,-10.13705,2.9113493
6.2546754,4.9798136,-0.11581218,-0.03242388,-0.06158511,0.16759412,-10.13705,2.8395233
6.2547255,4.97975,-0.11581218,-0.03242388,-0.06158511,0.16759412,-10.13705,2.8395233
6.2547565,4.9797206,-0.10302901,-0.037750203,-0.05519352,0.17717093,-10.189722,2.8921957
6.254787,4.9796906,-0.10302901,-0.037750203,-0.05519352,0.17717093,-10.189722,2.8921957
6.254839,4.979661,-0.08811531,-0.043076526,-0.050932467,0.15801731,-10.189722,2.8682537
6.254891,4.979632,-0.08811531,-0.043076526,-0.050932467,0.15801731,-10.189722,2.8682537
6.25496,4.979604,-0.07107108,-0.04946811,-0.04454088,0.11492168,-10.19451,2.858677
6.2550287,4.979576,-0.07107108,-0.04946811,-0.04454088,0.11492168,-10.19451,2.858677
6.2550864,4.9795833,-0.05509211,-0.05372917,-0.03814929,0.16280572,-10.0987425,2.8443117
6.2551436,4.97959,-0.05509211,-0.05372917,-0.03814929,0.16280572,-10.0987425,2.8443117
6.255217,4.979598,-0.039113145,-0.059055492,-0.033888236,0.1436521,-10.0748005,2.8203697
6.2552905,4.979607,-0.039113145,-0.059055492,-0.033888236,0.1436521,-10.0748005,2.8203697
6.2552905,4.979607,-0.02313418,-0.06544708,-0.026431382,0.095768064,-10.041282,2.777274
6.255493,4.979595,-0.02313418,-0.06544708,-0.026431382,0.095768064,-10.041282,2.777274
6.2555656,4.9796333,-0.0071552116,-0.0707734,-0.020039797,0.15322891,-9.9790325,2.791639
6.2556486,4.979677,-0.0071552116,-0.0707734,-0.020039797,0.15322891,-9.9790325,2.791639
6.2557454,4.979727,0.0066932263,-0.077164985,-0.010452416,0.12449849,-9.911995,2.7724855
6.2558494,4.97978,0.0066932263,-0.077164985,-0.010452416,0.12449849,-9.911995,2.7724855
6.2558494,4.97978,0.0066932263,-0.077164985,-0.010452416,0.12449849,-9.911995,2.7724855
6.2560577,4.9798517,0.02160693,-0.08355658,-0.0008650357,0.16280572,-9.864111,2.719813
6.2561707,4.979923,0.034390103,-0.08781763,0.00765708,0.22026655,-9.825804,2.7102363
6.256284,4.979993,0.034390103,-0.08781763,0.00765708,0.22026655,-9.825804,2.7102363
6.2563343,4.979945,0.047173277,-0.08994816,0.018309724,0.2633622,-9.787497,2.6671407
6.256383,4.979897,0.047173277,-0.08994816,0.018309724,0.2633622,-9.787497,2.6671407
6.2562447,4.9799514,0.055695392,-0.08994816,0.02683184,0.320823,-9.730036,2.6671407
6.256107,4.980004,0.055695392,-0.08994816,0.02683184,0.320823,-9.730036,2.6671407
6.255979,4.9800806,0.06528277,-0.08888289,0.035353955,0.30166942,-9.662998,2.6527755
6.255851,4.9801545,0.06528277,-0.08888289,0.035353955,0.30166942,-9.662998,2.6527755
6.2557745,4.980299,0.07273962,-0.08675237,0.04387607,0.2777274,-9.600749,2.6384103
6.255686,4.9804335,0.07273962,-0.08675237,0.04387607,0.2777274,-9.600749,2.6384103
6.2555866,4.9805546,0.07806595,-0.08249131,0.049202394,0.320823,-9.5385,2.6384103
6.2554865,4.9806747,0.07806595,-0.08249131,0.049202394,0.320823,-9.5385,2.6384103
6.2554283,4.980831,0.08019647,-0.079295516,0.05346345,0.29688102,-9.442732,2.6192567
6.2553678,4.9809856,0.08019647,-0.079295516,0.05346345,0.29688102,-9.442732,2.6192567
6.2553368,4.9811516,0.08019647,-0.07396919,0.058789775,0.31603462,-9.3661175,2.6384103
6.255304,4.9813166,0.08019647,-0.07396919,0.058789775,0.31603462,-9.3661175,2.6384103
6.2552333,4.9814525,0.07700068,-0.06757761,0.0609203,0.320823,-9.385271,2.6144683
6.255161,4.981587,0.07700068,-0.06757761,0.0609203,0.320823,-9.385271,2.6144683
6.2551403,4.9817476,0.07273962,-0.062251285,0.061985567,0.34955344,-9.32781,2.6862943
6.255119,4.9819074,0.07273962,-0.062251285,0.061985567,0.34955344,-9.32781,2.6862943
6.255062,4.982044,0.06847856,-0.057990227,0.061985567,0.38307226,-9.294291,2.6479871
6.2550054,4.98218,0.06847856,-0.057990227,0.061985567,0.38307226,-9.294291,2.6479871
6.254958,4.982318,0.062086977,-0.0558597,0.058789775,0.39264908,-9.284714,2.6767175
6.2549105,4.9824557,0.062086977,-0.0558597,0.058789775,0.39264908,-9.284714,2.6767175
6.254822,4.98255,0.055695392,-0.052663904,0.055593982,0.49320555,-9.270349,2.6384103
6.254822,4.98255,0.055695392,-0.052663904,0.055593982,0.49320555,-9.270349,2.6384103
6.254637,4.9827223,0.04823854,-0.04946811,0.05133292,0.49320555,-9.270349,2.5953147
6.254533,4.982786,0.04823854,-0.04946811,0.05133292,0.49320555,-9.270349,2.5953147
6.2544265,4.9828224,0.039716423,-0.047337584,0.0460066,0.521936,-9.284714,2.5713725
6.254319,4.9828587,0.039716423,-0.047337584,0.0460066,0.521936,-9.284714,2.5713725
6.2542067,4.982909,0.033324838,-0.044141788,0.03854975,0.45968673,-9.270349,2.5953147
6.2540946,4.982959,0.033324838,-0.044141788,0.03854975,0.45968673,-9.270349,2.5953147
6.2539754,4.982994,0.02906378,-0.04201126,0.033223428,0.46447513,-9.284714,2.585738
6.2538567,4.983029,0.02906378,-0.04201126,0.033223428,0.46447513,-9.284714,2.585738
6.253754,4.9831085,0.025867987,-0.040945996,0.02683184,0.45010993,-9.270349,2.6527755
6.253651,4.9831877,0.025867987,-0.040945996,0.02683184,0.45010993,-9.270349,2.6527755
6.2535205,4.9832354,0.022672193,-0.04201126,0.016179197,0.40222588,-9.279925,2.6001031
6.2533894,4.9832826,0.022672193,-0.04201126,0.016179197,0.40222588,-9.279925,2.6001031
6.253259,4.983341,0.017345872,-0.043076526,0.008722344,0.37349546,-9.289502,2.60968
6.253129,4.9833994,0.017345872,-0.043076526,0.008722344,0.37349546,-9.289502,2.60968
6.252982,4.983379,0.013084813,-0.04627232,-0.0019303001,0.39743748,-9.284714,2.552219
6.2528358,4.9833574,0.013084813,-0.04627232,-0.0019303001,0.39743748,-9.284714,2.552219
6.2526746,4.9833527,0.00988902,-0.050533377,-0.009387151,0.36391866,-9.26556,2.566584
6.2525134,4.983347,0.00988902,-0.050533377,-0.009387151,0.36391866,-9.26556,2.566584
6.2523513,4.983389,0.008823755,-0.0558597,-0.015778739,0.38307226,-9.255983,2.5953147
6.2521896,4.9834313,0.008823755,-0.0558597,-0.015778739,0.38307226,-9.255983,2.5953147
6.252013,4.983452,0.0066932263,-0.062251285,-0.022170324,0.39743748,-9.299079,2.5953147
6.251837,4.983472,0.0066932263,-0.062251285,-0.022170324,0.39743748,-9.299079,2.5953147
6.251663,4.983433,0.003497433,-0.06864287,-0.028561912,0.3878607,-9.3182335,2.5617957
6.251489,4.9833937,0.003497433,-0.06864287,-0.028561912,0.3878607,-9.3182335,2.5617957
6.251298,4.983415,0.00030163955,-0.07609972,-0.036018763,0.4165911,-9.323022,2.60968
6.2511067,4.9834366,0.00030163955,-0.07609972,-0.036018763,0.4165911,-9.323022,2.60968
6.2509203,4.9833837,-0.0028941538,-0.08355658,-0.04241035,0.48362875,-9.3182335,2.5187001
6.2507343,4.98333,-0.0028941538,-0.08355658,-0.04241035,0.48362875,-9.3182335,2.5187001
6.250536,4.983279,-0.006089947,-0.091013424,-0.048801936,0.46926352,-9.313444,2.5330653
6.2503376,4.9832277,-0.006089947,-0.091013424,-0.048801936,0.46926352,-9.313444,2.5330653
6.2501817,4.9831314,-0.010351005,-0.095274486,-0.05412826,0.4309563,-9.380483,2.480393
6.250026,4.983035,-0.010351005,-0.095274486,-0.05412826,0.4309563,-9.380483,2.480393
6.2498355,4.982957,-0.0114162695,-0.09847028,-0.058389317,0.45489833,-9.370906,2.5187001
6.2496448,4.9828787,-0.0114162695,-0.09847028,-0.058389317,0.45489833,-9.370906,2.5187001
6.249433,4.9828205,-0.012481534,-0.10166607,-0.060519844,0.46447513,-9.3661175,2.5474305
6.249222,4.9827614,-0.012481534,-0.10166607,-0.060519844,0.46447513,-9.3661175,2.5474305
6.249036,4.9826717,-0.014612063,-0.10273133,-0.06371564,0.40222588,-9.313444,2.5234885
6.248851,4.982581,-0.014612063,-0.10273133,-0.06371564,0.40222588,-9.313444,2.5234885
6.24864,4.9825096,-0.01674259,-0.10273133,-0.06584617,0.39264908,-9.313444,2.552219
6.2484293,4.982438,-0.01674259,-0.10273133,-0.06584617,0.39264908,-9.313444,2.552219
6.248216,4.9823675,-0.017807856,-0.1037966,-0.06691143,0.37349546,-9.279925,2.552219
6.248003,4.982297,-0.017807856,-0.1037966,-0.06691143,0.37349546,-9.279925,2.552219
6.2478695,4.98237,-0.019938385,-0.105927125,-0.06584617,0.36870706,-9.23683,2.6288335
6.2477374,4.982444,-0.019938385,-0.105927125,-0.06584617,0.36870706,-9.23683,2.6288335
6.2475386,4.9823594,-0.019938385,-0.105927125,-0.062650375,0.34476504,-9.198523,2.542642
6.2473435,4.982271,-0.019938385,-0.105927125,-0.062650375,0.34476504,-9.198523,2.542642
6.2471466,4.982183,-0.022068914,-0.106992394,-0.06158511,0.39264908,-9.212888,2.5187001
6.24695,4.9820943,-0.022068914,-0.106992394,-0.06158511,0.39264908,-9.212888,2.5187001
6.2467265,4.982086,-0.025264706,-0.108057655,-0.059454583,0.5506664,-9.188946,2.5713725
6.2465034,4.982078,-0.025264706,-0.108057655,-0.059454583,0.5506664,-9.188946,2.5713725
6.246281,4.982042,-0.0284605,-0.105927125,-0.056258786,0.5746084,-9.208099,2.5378537
6.246059,4.9820056,-0.0284605,-0.105927125,-0.056258786,0.5746084,-9.208099,2.5378537
6.2458405,4.981996,-0.032721557,-0.1037966,-0.05732405,0.5746084,-9.232041,2.5953147
6.2456226,4.981987,-0.032721557,-0.1037966,-0.05732405,0.5746084,-9.232041,2.5953147
6.2454042,4.981923,-0.034852087,-0.09847028,-0.059454583,0.5793968,-9.222465,2.504335
6.245185,4.981859,-0.034852087,-0.09847028,-0.059454583,0.5793968,-9.222465,2.504335
6.2449837,4.9818754,-0.03698262,-0.093143955,-0.062650375,0.5506664,-9.251195,2.6479871
6.244783,4.9818926,-0.03698262,-0.093143955,-0.062650375,0.5506664,-9.251195,2.6479871
6.244575,4.981898,-0.04017841,-0.08781763,-0.06371564,0.58897364,-9.227253,2.6384103
6.244368,4.9819036,-0.04017841,-0.08781763,-0.06371564,0.58897364,-9.227253,2.6384103
6.2441607,4.9819098,-0.042308938,-0.08355658,-0.06584617,0.58897364,-9.232041,2.6431987
6.243954,4.9819155,-0.042308938,-0.08355658,-0.06584617,0.58897364,-9.232041,2.6431987
6.243727,4.9818654,-0.04443947,-0.077164985,-0.06904196,0.62249243,-9.227253,2.542642
6.2435,4.9818153,-0.04443947,-0.077164985,-0.06904196,0.62249243,-9.227253,2.542642
6.2432766,4.981789,-0.04763526,-0.06970814,-0.07117249,0.6751649,-9.260772,2.60968
6.243059,4.981764,-0.04763526,-0.06970814,-0.07117249,0.6751649,-9.260772,2.60968
6.2428436,4.9817567,-0.050831053,-0.062251285,-0.076498814,0.6703765,-9.3182335,2.6767175
6.242622,4.981749,-0.050831053,-0.062251285,-0.076498814,0.6703765,-9.3182335,2.6767175
6.242419,4.9817567,-0.05402685,-0.05372917,-0.0828904,0.63206923,-9.380483,2.72939
6.242216,4.9817643,-0.05402685,-0.05372917,-0.0828904,0.63206923,-9.380483,2.72939
6.242011,4.98177,-0.058287904,-0.045207053,-0.08928198,0.6607997,-9.399636,2.7581203
6.241805,4.981776,-0.058287904,-0.045207053,-0.08928198,0.6607997,-9.399636,2.7581203
6.241606,4.9817863,-0.0614837,-0.036684938,-0.09460831,0.6512229,-9.500193,2.8060043
6.2414074,4.9817963,-0.0614837,-0.036684938,-0.09460831,0.6512229,-9.500193,2.8060043
6.241246,4.981826,-0.062548965,-0.028162822,-0.09993463,0.521936,-9.56723,2.815581
6.2410855,4.9818554,-0.062548965,-0.028162822,-0.09993463,0.521936,-9.56723,2.815581
6.2409253,4.9818845,-0.06361423,-0.018575443,-0.10206516,0.46447513,-9.595961,2.7246015
6.2407665,4.981914,-0.06361423,-0.018575443,-0.10206516,0.46447513,-9.595961,2.7246015
6.2406325,4.9819517,-0.0614837,-0.008988062,-0.10313042,0.45968673,-9.653421,2.7724855
6.2405,4.9819894,-0.0614837,-0.008988062,-0.10313042,0.45968673,-9.653421,2.7724855
6.2404847,4.98201,-0.060418434,0.0005993177,-0.10313042,0.31124622,-9.696517,2.7964275
6.2404704,4.98203,-0.060418434,0.0005993177,-0.10313042,0.31124622,-9.696517,2.7964275
6.240498,4.982025,-0.05509211,0.009121433,-0.09993463,0.17238252,-9.730036,2.7964275
6.2405257,4.98202,-0.05509211,0.009121433,-0.09993463,0.17238252,-9.730036,2.7964275
6.240576,4.9819956,-0.048700526,0.014447756,-0.093543045,0.110133275,-9.696517,2.7341783
6.2406254,4.981971,-0.048700526,0.014447756,-0.093543045,0.110133275,-9.696517,2.7341783
6.2406893,4.9819417,-0.04443947,0.016578285,-0.08182514,0.07182605,-9.725247,2.7246015
6.2407527,4.981913,-0.04443947,0.016578285,-0.08182514,0.07182605,-9.725247,2.7246015
6.240811,4.981924,-0.03804788,0.016578285,-0.07117249,0.1340753,-9.677363,2.791639
6.240869,4.981935,-0.03804788,0.016578285,-0.07117249,0.1340753,-9.677363,2.791639
6.2409425,4.9819536,-0.029525764,0.016578285,-0.056258786,0.15801731,-9.65821,2.7724855
6.241016,4.9819717,-0.029525764,0.016578285,-0.056258786,0.15801731,-9.65821,2.7724855
6.2410765,4.9820232,-0.019938385,0.01551302,-0.043475613,0.17238252,-9.600749,2.8395233
6.241137,4.982075,-0.019938385,0.01551302,-0.043475613,0.17238252,-9.600749,2.8395233
6.2412157,4.9821296,-0.010351005,0.012317227,-0.03282297,0.18195933,-9.572019,2.791639
6.2412944,4.9821835,-0.010351005,0.012317227,-0.03282297,0.18195933,-9.572019,2.791639
6.2413664,4.9822574,-0.0007636249,0.009121433,-0.025366118,0.24420857,-9.595961,2.7964275
6.241438,4.9823313,-0.0007636249,0.009121433,-0.025366118,0.24420857,-9.595961,2.7964275
6.241504,4.98242,0.0077584907,0.00592564,-0.017909266,0.2873042,-9.591172,2.7868507
6.2415705,4.9825096,0.0077584907,0.00592564,-0.017909266,0.2873042,-9.591172,2.7868507
6.241701,4.982569,0.016280606,0.0027298466,-0.010452416,0.25378537,-9.543288,2.6910827
6.2418127,4.98262,0.016280606,0.0027298466,-0.010452416,0.25378537,-9.543288,2.6910827
6.241904,4.982714,0.024802722,0.0005993177,-0.0051260935,0.2681506,-9.533711,2.7485435
6.2419963,4.9828095,0.024802722,0.0005993177,-0.0051260935,0.2681506,-9.533711,2.7485435
6.242078,4.982921,0.030129045,-0.0025964756,0.00020022877,0.2681506,-9.485827,2.7724855
6.242159,4.983032,0.030129045,-0.0025964756,0.00020022877,0.2681506,-9.485827,2.7724855
6.242246,4.983148,0.03652063,-0.0047270046,0.0044612866,0.30645782,-9.442732,2.7150247
6.2423315,4.983261,0.03652063,-0.0047270046,0.0044612866,0.30645782,-9.442732,2.7150247
6.242424,4.9833803,0.040781688,-0.005792269,0.00765708,0.25857377,-9.490616,2.7724855
6.2425184,4.9835024,0.040781688,-0.005792269,0.00765708,0.25857377,-9.490616,2.7724855
6.2426043,4.9836316,0.04610801,-0.0068575335,0.010852873,0.30645782,-9.442732,2.72939
6.2426906,4.9837604,0.04610801,-0.0068575335,0.010852873,0.30645782,-9.442732,2.72939
6.2428036,4.983881,0.051434334,-0.0068575335,0.015113931,0.25378537,-9.423578,2.7246015
6.2429166,4.984,0.051434334,-0.0068575335,0.015113931,0.25378537,-9.423578,2.7246015
6.242998,4.9841447,0.055695392,-0.007922798,0.020440254,0.29209262,-9.41879,2.7724855
6.24308,4.98429,0.055695392,-0.007922798,0.020440254,0.29209262,-9.41879,2.7724855
6.2432265,4.9844275,0.05782592,-0.007922798,0.025766576,0.22984336,-9.423578,2.72939
