Pitch,Roll,Gyro_X,Gyro_Y,Gyro_Z,Accel_X,Accel_Y,Accel_Z
6.245026,4.6060457,0.056760654,0.014447756,-0.009387151,0.15322891,-9.950302,-1.3120226
6.2450924,4.606019,0.056760654,0.014447756,-0.009387151,0.15322891,-9.950302,-1.3120226
6.2450967,4.6060114,0.08126174,0.012317227,-0.059454583,0.20111294,-9.89763,-1.3024458
6.245102,4.6060038,0.08126174,0.012317227,-0.059454583,0.20111294,-9.89763,-1.3024458
6.245039,4.6060123,0.104697555,0.010186698,-0.106326215,0.2681506,-9.849746,-1.316811
6.2449727,4.606021,0.104697555,0.010186698,-0.106326215,0.2681506,-9.849746,-1.316811
6.244827,4.6060457,0.12493758,0.009121433,-0.15106732,0.36391866,-9.825804,-1.3215994
6.244682,4.60607,0.12493758,0.009121433,-0.15106732,0.36391866,-9.825804,-1.3215994
6.244466,4.6061153,0.14411235,0.009121433,-0.1936779,0.4405331,-9.782708,-1.3215994
6.244252,4.6061597,0.14411235,0.009121433,-0.1936779,0.4405331,-9.782708,-1.3215994
6.243985,4.6062236,0.16115656,0.012317227,-0.23096216,0.4405331,-9.816227,-1.1971009
6.243985,4.6062236,0.16115656,0.012317227,-0.23096216,0.4405331,-9.816227,-1.1971009
6.2426906,4.6065493,0.19204924,0.022969872,-0.29061696,0.4357447,-9.773131,-1.1779473
6.2426906,4.6065493,0.19204924,0.022969872,-0.29061696,0.4357447,-9.773131,-1.1779473
6.2426906,4.6065493,0.19204924,0.022969872,-0.29061696,0.4357447,-9.773131,-1.1779473
6.2425904,4.606579,0.19204924,0.022969872,-0.29061696,0.4357447,-9.773131,-1.1779473
6.242306,4.6066847,0.20270188,0.031491987,-0.3097917,0.34955344,-9.77792,-1.2066777
6.242023,4.606791,0.20270188,0.031491987,-0.3097917,0.34955344,-9.77792,-1.2066777
6.242023,4.606791,0.20270188,0.031491987,-0.3097917,0.34955344,-9.77792,-1.2066777
6.241466,4.6070247,0.211224,0.038948838,-0.32150963,0.320823,-9.763555,-1.2114661
6.24122,4.6071486,0.21761559,0.045340426,-0.3279012,0.2825158,-9.763555,-1.1923125
6.240959,4.6072807,0.21761559,0.045340426,-0.3279012,0.2825158,-9.763555,-1.1923125
6.240691,4.607416,0.22400717,0.049601484,-0.3279012,0.29209262,-9.682152,-1.1923125
6.2404237,4.6075516,0.22400717,0.049601484,-0.3279012,0.29209262,-9.682152,-1.1923125
6.2401495,4.60769,0.22933349,0.052797277,-0.32364017,0.34476504,-9.634268,-1.1348516
6.239876,4.6078286,0.22933349,0.052797277,-0.32364017,0.34476504,-9.634268,-1.1348516
6.239564,4.6079645,0.23465982,0.05599307,-0.31724858,0.40701428,-9.595961,-1.13964
6.2392535,4.608101,0.23465982,0.05599307,-0.31724858,0.40701428,-9.595961,-1.13964
6.238884,4.6082463,0.23572509,0.05918886,-0.3076612,0.51714754,-9.5385,-1.1492168
6.2385154,4.608392,0.23572509,0.05918886,-0.3076612,0.51714754,-9.5385,-1.1492168
6.2381163,4.6085587,0.23572509,0.060254127,-0.29487804,0.61770403,-9.423578,-1.115698
6.2377157,4.6087255,0.23572509,0.060254127,-0.29487804,0.61770403,-9.423578,-1.115698
6.237307,4.6089115,0.23572509,0.062384658,-0.28209487,0.6799533,-9.375694,-1.0821792
6.2369018,4.6090956,0.23572509,0.062384658,-0.28209487,0.6799533,-9.375694,-1.0821792
6.2364945,4.6092944,0.23572509,0.06451519,-0.2714422,0.770933,-9.313444,-1.067814
6.2360883,4.609492,0.23572509,0.06451519,-0.2714422,0.770933,-9.313444,-1.067814
6.235689,4.609688,0.2325293,0.06771098,-0.26398537,0.82360536,-9.193734,-1.0630256
6.2352886,4.6098833,0.2325293,0.06771098,-0.26398537,0.82360536,-9.193734,-1.0630256
6.2349043,4.6100597,0.22720297,0.07090677,-0.25865903,0.89543146,-9.107543,-1.13964
6.2345204,4.6102347,0.22720297,0.07090677,-0.25865903,0.89543146,-9.107543,-1.13964
6.234126,4.6104264,0.21974611,0.073037304,-0.254398,1.0103531,-9.045294,-1.0534488
6.23373,4.610619,0.21974611,0.073037304,-0.254398,1.0103531,-9.045294,-1.0534488
6.2333426,4.610795,0.20909347,0.0762331,-0.24907166,1.0199299,-9.064447,-1.0773908
6.232955,4.610971,0.20909347,0.0762331,-0.24907166,1.0199299,-9.064447,-1.0773908
6.2325673,4.611138,0.1963103,0.08155942,-0.24694112,1.0486604,-9.040505,-1.0630256
6.2321796,4.6113043,0.1963103,0.08155942,-0.24694112,1.0486604,-9.040505,-1.0630256
6.2317915,4.611454,0.18246186,0.086885735,-0.24907166,1.1204864,-8.987833,-1.091756
6.2314034,4.611603,0.18246186,0.086885735,-0.24907166,1.1204864,-8.987833,-1.091756
6.231009,4.611742,0.1664829,0.09327733,-0.2501369,1.1540052,-8.963891,-1.067814
6.2306175,4.61188,0.1664829,0.09327733,-0.2501369,1.1540052,-8.963891,-1.067814
6.2302227,4.6120048,0.14943866,0.09860365,-0.25226745,1.1779473,-9.006987,-1.0534488
6.229825,4.61213,0.14943866,0.09860365,-0.25226745,1.1779473,-9.006987,-1.0534488
6.2294297,4.6122313,0.1334597,0.10392997,-0.254398,1.2545617,-9.016563,-1.1204864
6.2290344,4.6123323,0.1334597,0.10392997,-0.254398,1.2545617,-9.016563,-1.1204864
6.228635,4.6124163,0.1153502,0.10819103,-0.25865903,1.2354081,-9.045294,-1.1061212
6.228234,4.6125,0.1153502,0.10819103,-0.25865903,1.2354081,-9.045294,-1.1061212
6.2278323,4.6125593,0.09830597,0.11245208,-0.26292008,1.2737153,-9.035717,-1.1731589
6.22743,4.6126184,0.09830597,0.11245208,-0.26292008,1.2737153,-9.035717,-1.1731589
6.227034,4.6126537,0.082327,0.11564788,-0.26505062,1.2545617,-8.99741,-1.2162545
6.2266374,4.612689,0.082327,0.11564788,-0.26505062,1.2545617,-8.99741,-1.2162545
6.226228,4.6127243,0.06634804,0.117778406,-0.26718116,1.316811,-9.02614,-1.1252748
6.2258167,4.612759,0.06634804,0.117778406,-0.26718116,1.316811,-9.02614,-1.1252748
6.2254057,4.6127734,0.05036907,0.118843675,-0.27037695,1.316811,-9.050082,-1.1587936
6.224997,4.6127872,0.05036907,0.118843675,-0.27037695,1.316811,-9.050082,-1.1587936
6.224584,4.6127934,0.03545537,0.1209742,-0.27250746,1.2689269,-9.069236,-1.1013328
6.2241673,4.6127987,0.03545537,0.1209742,-0.27250746,1.2689269,-9.069236,-1.1013328
6.2237535,4.61279,0.018411135,0.12417,-0.27037695,1.2258313,-9.088389,-1.0773908
6.2233357,4.612781,0.018411135,0.12417,-0.27037695,1.2258313,-9.088389,-1.0773908
6.222929,4.612747,0.0024321685,0.12843105,-0.2682464,1.1683705,-9.107543,-1.115698
6.2225213,4.612713,0.0024321685,0.12843105,-0.2682464,1.1683705,-9.107543,-1.115698
6.2221227,4.6126566,-0.014612063,0.13269211,-0.26292008,1.1300632,-9.169792,-1.13964
6.221722,4.6125994,-0.014612063,0.13269211,-0.26292008,1.1300632,-9.169792,-1.13964
6.221334,4.6125183,-0.031656295,0.1390837,-0.2565285,1.1204864,-9.193734,-1.1827357
6.220947,4.6124372,-0.031656295,0.1390837,-0.2565285,1.1204864,-9.193734,-1.1827357
6.220947,4.6124372,-0.048700526,0.14334476,-0.24907166,1.0821792,-9.275137,-1.1252748
6.2201715,4.612257,-0.048700526,0.14334476,-0.24907166,1.0821792,-9.275137,-1.1252748
6.2198052,4.6121387,-0.06681002,0.14867108,-0.23841901,1.1204864,-9.337387,-1.2114661
6.2194395,4.6120205,-0.06681002,0.14867108,-0.23841901,1.1204864,-9.337387,-1.2114661
6.2190776,4.6118917,-0.08278899,0.15293214,-0.22883163,1.1300632,-9.380483,-1.1875241
6.2187214,4.611764,-0.08278899,0.15293214,-0.22883163,1.1300632,-9.380483,-1.1875241
6.2183547,4.6116176,-0.09663743,0.1571932,-0.22030951,1.1683705,-9.41879,-1.2018893
6.2180047,4.611478,-0.09663743,0.1571932,-0.22030951,1.1683705,-9.41879,-1.2018893
6.2176585,4.611326,-0.108355336,0.15932372,-0.2117874,1.2306197,-9.433155,-1.2210429
6.2173104,4.6111736,-0.108355336,0.15932372,-0.2117874,1.2306197,-9.433155,-1.2210429
6.2169714,4.611012,-0.11687745,0.16251951,-0.20433055,1.2449849,-9.437943,-1.2401965
6.2166295,4.6108484,-0.11687745,0.16251951,-0.20433055,1.2449849,-9.437943,-1.2401965
6.2163024,4.6106696,-0.12646483,0.1657153,-0.20006949,1.2737153,-9.414001,-1.316811
6.215976,4.6104918,-0.12646483,0.1657153,-0.20006949,1.2737153,-9.414001,-1.316811
6.215652,4.610304,-0.13498695,0.1689111,-0.19474317,1.3263878,-9.394848,-1.340753
6.215327,4.610116,-0.13498695,0.1689111,-0.19474317,1.3263878,-9.394848,-1.340753
6.215004,4.6099253,-0.14244379,0.17317216,-0.19261263,1.292869,-9.409213,-1.3024458
6.214676,4.609731,-0.14244379,0.17317216,-0.19261263,1.292869,-9.409213,-1.3024458
6.214346,4.609542,-0.15096591,0.17636795,-0.19154738,1.340753,-9.390059,-1.2497733
6.214009,4.6093483,-0.15096591,0.17636795,-0.19154738,1.340753,-9.390059,-1.2497733
6.213687,4.609144,-0.16161856,0.18169427,-0.19580843,1.316811,-9.351752,-1.3024458
6.213356,4.608934,-0.16161856,0.18169427,-0.19580843,1.316811,-9.351752,-1.3024458
6.2130237,4.6087184,-0.16907541,0.18808587,-0.19900422,1.340753,-9.361329,-1.316811
6.2126894,4.608502,-0.16907541,0.18808587,-0.19900422,1.340753,-9.361329,-1.316811
6.212349,4.608283,-0.17759752,0.19660798,-0.20113476,1.3072342,-9.3661175,-1.2641385
6.212009,4.608064,-0.17759752,0.19660798,-0.20113476,1.3072342,-9.3661175,-1.2641385
6.211661,4.6078386,-0.18505438,0.20406483,-0.20433055,1.2114661,-9.476251,-1.2210429
6.2113166,4.607615,-0.18505438,0.20406483,-0.20433055,1.2114661,-9.476251,-1.2210429
6.2109704,4.607381,-0.19038069,0.21258694,-0.20965686,1.1923125,-9.562442,-1.2545617
6.210623,4.6071463,-0.19038069,0.21258694,-0.20965686,1.1923125,-9.562442,-1.2545617
6.2102675,4.606913,-0.19464175,0.21897852,-0.21285266,1.1204864,-9.557653,-1.1923125
6.209911,4.60668,-0.19464175,0.21897852,-0.21285266,1.1204864,-9.557653,-1.1923125
6.209565,4.6064315,-0.19783755,0.22537012,-0.21604845,1.091756,-9.643845,-1.2545617
6.20922,4.6061835,-0.19783755,0.22537012,-0.21604845,1.091756,-9.643845,-1.2545617
6.2088747,4.605932,-0.19890282,0.23069644,-0.21711372,1.0821792,-9.68694,-1.2641385
6.2085295,4.605681,-0.19890282,0.23069644,-0.21711372,1.0821792,-9.68694,-1.2641385
6.208177,4.605437,-0.19783755,0.2349575,-0.21711372,1.067814,-9.753978,-1.2306197
6.2078257,4.6051936,-0.19783755,0.2349575,-0.21711372,1.067814,-9.753978,-1.2306197
6.2074895,4.6049414,-0.19464175,0.23921856,-0.2149832,1.0342951,-9.749189,-1.2737153
6.207154,4.6046886,-0.19464175,0.23921856,-0.2149832,1.0342951,-9.749189,-1.2737153
6.206802,4.604457,-0.18931544,0.24347961,-0.21285266,1.0295067,-9.77792,-1.2018893
6.20645,4.604225,-0.18931544,0.24347961,-0.21285266,1.0295067,-9.77792,-1.2018893
6.206092,4.6040087,-0.18292385,0.24561015,-0.21072213,1.0534488,-9.749189,-1.1827357
6.205733,4.6037917,-0.18292385,0.24561015,-0.21072213,1.0534488,-9.749189,-1.1827357
6.2053623,4.6035795,-0.175467,0.24561015,-0.20752634,1.0965444,-9.739613,-1.1875241
6.205012,4.6033792,-0.175467,0.24561015,-0.20752634,1.0965444,-9.739613,-1.1875241
6.2046595,4.6031833,-0.16801015,0.24561015,-0.20326528,1.1348516,-9.691729,-1.1971009
6.2043066,4.602988,-0.16801015,0.24561015,-0.20326528,1.1348516,-9.691729,-1.1971009
6.203954,4.6028037,-0.15948802,0.24561015,-0.20006949,1.2066777,-9.653421,-1.2066777
6.203602,4.6026196,-0.15948802,0.24561015,-0.20006949,1.2066777,-9.653421,-1.2066777
6.2032614,4.6024284,-0.15096591,0.24454488,-0.1968737,1.2401965,-9.5385,-1.283292
6.2029214,4.6022377,-0.15096591,0.24454488,-0.1968737,1.2401965,-9.5385,-1.283292
6.2025747,4.602066,-0.14350906,0.24347961,-0.19793896,1.3263878,-9.552865,-1.2641385
6.2022233,4.601892,-0.14350906,0.24347961,-0.19793896,1.3263878,-9.552865,-1.2641385
6.2018604,4.6017437,-0.13711748,0.24241436,-0.20433055,1.4460979,-9.572019,-1.2066777
6.201495,4.601595,-0.13711748,0.24241436,-0.20433055,1.4460979,-9.572019,-1.2066777
6.2011313,4.6014404,-0.13179116,0.24561015,-0.20965686,1.340753,-9.504981,-1.2354081
6.200778,4.6012907,-0.13179116,0.24561015,-0.20965686,1.340753,-9.504981,-1.2354081
6.20042,4.6011267,-0.12539956,0.2498712,-0.2149832,1.3215994,-9.414001,-1.3120226
6.200049,4.600957,-0.12539956,0.2498712,-0.2149832,1.3215994,-9.414001,-1.3120226
6.199694,4.6007843,-0.12326904,0.25413227,-0.2235053,1.3120226,-9.351752,-1.388637
6.1993394,4.6006117,-0.12326904,0.25413227,-0.2235053,1.3120226,-9.351752,-1.388637
6.1989713,4.600441,-0.12326904,0.25839332,-0.23522322,1.3551182,-9.41879,-1.4077905
6.198601,4.6002693,-0.12326904,0.25839332,-0.23522322,1.3551182,-9.41879,-1.4077905
6.198205,4.600108,-0.1275301,0.26265436,-0.24800639,1.388637,-9.466674,-1.3215994
6.197807,4.599947,-0.1275301,0.26265436,-0.24800639,1.388637,-9.466674,-1.3215994
6.1973925,4.5997868,-0.13179116,0.2679807,-0.26185483,1.4460979,-9.504981,-1.316811
6.1969786,4.599627,-0.13179116,0.2679807,-0.26185483,1.4460979,-9.504981,-1.316811
6.1965685,4.5994444,-0.13392168,0.27224174,-0.27570325,1.4173675,-9.495404,-1.4652514
6.19616,4.5992618,-0.13392168,0.27224174,-0.27570325,1.4173675,-9.495404,-1.4652514
6.195725,4.59909,-0.13711748,0.27756807,-0.28742117,1.4700398,-9.495404,-1.3790601
6.195289,4.598918,-0.13711748,0.27756807,-0.28742117,1.4700398,-9.495404,-1.3790601
6.1948457,4.5987372,-0.14031327,0.2828944,-0.29807383,1.4460979,-9.452309,-1.4030021
6.1944056,4.5985584,-0.14031327,0.2828944,-0.29807383,1.4460979,-9.452309,-1.4030021
6.193954,4.5983768,-0.14031327,0.2860902,-0.30872646,1.4652514,-9.442732,-1.4269443
6.193502,4.598195,-0.14031327,0.2860902,-0.30872646,1.4652514,-9.442732,-1.4269443
6.19304,4.598012,-0.14137854,0.29035124,-0.31831384,1.484405,-9.414001,-1.4413095
6.1925797,4.5978293,-0.14137854,0.29035124,-0.31831384,1.484405,-9.414001,-1.4413095
6.19211,4.5976562,-0.14031327,0.29354703,-0.32364017,1.508347,-9.385271,-1.3934253
6.1916375,4.597482,-0.14031327,0.29354703,-0.32364017,1.508347,-9.385271,-1.3934253
6.1911497,4.597319,-0.139248,0.29567757,-0.32683596,1.4700398,-9.323022,-1.2976574
6.1906676,4.5971584,-0.139248,0.29567757,-0.32683596,1.4700398,-9.323022,-1.2976574
6.190169,4.5970173,-0.13498695,0.29674283,-0.3321623,1.532289,-9.3182335,-1.2258313
6.1896696,4.5968757,-0.13498695,0.29674283,-0.3321623,1.532289,-9.3182335,-1.2258313
6.189162,4.596755,-0.13072589,0.3010039,-0.33642334,1.5849615,-9.303867,-1.1540052
6.188652,4.596634,-0.13072589,0.3010039,-0.33642334,1.5849615,-9.303867,-1.1540052
6.1881394,4.596529,-0.1275301,0.30526495,-0.34068438,1.5658079,-9.3182335,-1.0965444
6.1875715,4.5964127,-0.1275301,0.30526495,-0.34068438,1.5658079,-9.3182335,-1.0965444
6.1875715,4.5964127,-0.1275301,0.30526495,-0.34068438,1.5658079,-9.3182335,-1.0965444
6.1865597,4.5962195,-0.124334306,0.31059128,-0.34814125,1.5705963,-9.3182335,-1.091756
6.186051,4.5960836,-0.124334306,0.3191134,-0.35772863,1.5131354,-9.3421755,-1.283292
6.1855307,4.595945,-0.124334306,0.3191134,-0.35772863,1.5131354,-9.3421755,-1.283292
6.1849856,4.595806,-0.124334306,0.32870078,-0.367316,1.4939818,-9.346964,-1.2641385
6.1849856,4.595806,-0.124334306,0.32870078,-0.367316,1.4939818,-9.346964,-1.2641385
6.1849856,4.595806,-0.124334306,0.32870078,-0.367316,1.4939818,-9.346964,-1.2641385
6.183357,4.5953927,-0.124334306,0.32870078,-0.367316,1.4939818,-9.346964,-1.2641385
6.1828446,4.595271,-0.13392168,0.34361446,-0.39607814,1.541866,-9.466674,-1.2449849
6.1822762,4.5951366,-0.13392168,0.34361446,-0.39607814,1.541866,-9.466674,-1.2449849
6.181692,4.5949917,-0.14137854,0.3489408,-0.41418764,1.5179238,-9.519346,-1.2593501
6.181109,4.5948477,-0.14137854,0.3489408,-0.41418764,1.5179238,-9.519346,-1.2593501
6.1805043,4.594697,-0.14777012,0.35320187,-0.4333624,1.4891934,-9.552865,-1.2545617
6.1798973,4.5945463,-0.14777012,0.35320187,-0.4333624,1.4891934,-9.552865,-1.2545617
6.1792707,4.594396,-0.15309644,0.35533237,-0.4514719,1.5035586,-9.509769,-1.2306197
6.1792707,4.594396,-0.15309644,0.35533237,-0.4514719,1.5035586,-9.509769,-1.2306197
6.177999,4.5940905,-0.15629223,0.3574629,-0.4695814,1.5227122,-9.548077,-1.2497733
6.177341,4.5939317,-0.15629223,0.3574629,-0.4695814,1.5227122,-9.548077,-1.2497733
6.176698,4.5937724,-0.1573575,0.35959345,-0.4876909,1.5562311,-9.437943,-1.2785037
6.176039,4.5936093,-0.1573575,0.35959345,-0.4876909,1.5562311,-9.437943,-1.2785037
6.175357,4.5934668,-0.1573575,0.3606587,-0.50793093,1.661576,-9.41879,-1.2066777
6.174703,4.5933304,-0.1573575,0.3606587,-0.50793093,1.661576,-9.41879,-1.2066777
6.173997,4.593189,-0.15522698,0.35959345,-0.52817094,1.6950948,-9.294291,-1.2018893
6.1732597,4.593041,-0.15522698,0.35959345,-0.52817094,1.6950948,-9.294291,-1.2018893
6.1725407,4.5928926,-0.15096591,0.3606587,-0.5452152,1.757344,-9.184157,-1.2641385
6.1718283,4.592746,-0.15096591,0.3606587,-0.5452152,1.757344,-9.184157,-1.2641385
6.1710906,4.592599,-0.14777012,0.35959345,-0.56652045,1.7764976,-9.093178,-1.2689269
6.1703477,4.5924516,-0.14777012,0.35959345,-0.56652045,1.7764976,-9.093178,-1.2689269
6.1695914,4.5923057,-0.14244379,0.35639766,-0.58676046,1.7190368,-8.983045,-1.2689269
6.1688333,4.5921593,-0.14244379,0.35639766,-0.58676046,1.7190368,-8.983045,-1.2689269
6.168065,4.5919986,-0.13818274,0.35000607,-0.6080658,1.5179238,-8.844181,-1.2880806
6.1672993,4.591838,-0.13818274,0.35000607,-0.6080658,1.5179238,-8.844181,-1.2880806
6.1665134,4.591688,-0.13285641,0.3425492,-0.6240447,1.733402,-8.748413,-1.3263878
6.1657257,4.591538,-0.13285641,0.3425492,-0.6240447,1.733402,-8.748413,-1.3263878
6.1649184,4.591427,-0.12646483,0.33296183,-0.63576263,2.0638018,-8.7771435,-1.1779473
6.1641083,4.5913153,-0.12646483,0.33296183,-0.63576263,2.0638018,-8.7771435,-1.1779473
6.163287,4.591222,-0.120073244,0.32657024,-0.64748055,2.3223755,-8.772355,-1.091756
6.1624646,4.591129,-0.120073244,0.32657024,-0.64748055,2.3223755,-8.772355,-1.091756
6.1616344,4.591038,-0.11048587,0.3223092,-0.65706795,2.3080103,-8.676587,-1.1444284
6.160803,4.590947,-0.11048587,0.3223092,-0.65706795,2.3080103,-8.676587,-1.1444284
6.159964,4.5908546,-0.10089848,0.3191134,-0.6666553,2.111686,-8.528147,-1.1971009
6.1591253,4.590762,-0.10089848,0.3191134,-0.6666553,2.111686,-8.528147,-1.1971009
6.158291,4.590657,-0.091311105,0.31059128,-0.67198163,1.9536686,-8.374918,-1.3120226
6.1574564,4.5905523,-0.091311105,0.31059128,-0.67198163,1.9536686,-8.374918,-1.3120226
6.1566167,4.5904737,-0.08491952,0.29993862,-0.6709164,2.2361844,-8.341399,-1.1971009
6.155775,4.5903955,-0.08491952,0.29993862,-0.6709164,2.2361844,-8.341399,-1.1971009
6.154944,4.590327,-0.0795932,0.289286,-0.66345954,2.3942018,-8.37013,-1.1731589
6.154111,4.590258,-0.0795932,0.289286,-0.66345954,2.3942018,-8.37013,-1.1731589
6.153288,4.590208,-0.075332135,0.2828944,-0.6549374,2.4995465,-8.322245,-1.0342951
6.1524634,4.5901575,-0.075332135,0.2828944,-0.6549374,2.4995465,-8.322245,-1.0342951
6.1516504,4.590106,-0.07426687,0.27650282,-0.64535004,2.3463178,-8.183381,-1.0295067
6.1508365,4.590055,-0.07426687,0.27650282,-0.64535004,2.3463178,-8.183381,-1.0295067
6.150039,4.5900173,-0.07213634,0.26585016,-0.6304363,2.1930888,-8.145074,-0.92895025
6.1492434,4.5899796,-0.07213634,0.26585016,-0.6304363,2.1930888,-8.145074,-0.92895025
6.1484694,4.589954,-0.06894055,0.253067,-0.6133921,2.27928,-8.121132,-0.8331822
6.1476936,4.589928,-0.06894055,0.253067,-0.6133921,2.27928,-8.121132,-0.8331822
6.1469483,4.5899143,-0.06467949,0.24134909,-0.5899563,2.480393,-8.121132,-0.7038953
6.1462035,4.5899014,-0.06467949,0.24134909,-0.5899563,2.480393,-8.121132,-0.7038953
6.14549,4.5899005,-0.058287904,0.23069644,-0.5633247,2.5187001,-8.1163435,-0.61291564
6.1447735,4.5899,-0.058287904,0.23069644,-0.5633247,2.5187001,-8.1163435,-0.61291564
6.1440887,4.5899024,-0.05189632,0.22537012,-0.5356278,2.585738,-8.020576,-0.62249243
6.143402,4.5899053,-0.05189632,0.22537012,-0.5356278,2.585738,-8.020576,-0.62249243
6.1427455,4.5899177,-0.046569996,0.22217433,-0.50793093,2.6048915,-8.09719,-0.5746084
6.1420884,4.58993,-0.046569996,0.22217433,-0.50793093,2.6048915,-8.09719,-0.5746084
6.1414604,4.58995,-0.042308938,0.21791327,-0.4812993,2.6144683,-8.1642275,-0.5363012
6.1408343,4.5899706,-0.042308938,0.21791327,-0.4812993,2.6144683,-8.1642275,-0.5363012
6.1402392,4.5899987,-0.039113145,0.21471748,-0.45360243,2.552219,-8.269572,-0.51235914
6.1396427,4.5900273,-0.039113145,0.21471748,-0.45360243,2.552219,-8.269572,-0.51235914
6.139075,4.59006,-0.03698262,0.21471748,-0.4269708,2.566584,-8.322245,-0.48841715
6.1385074,4.5900936,-0.03698262,0.21471748,-0.4269708,2.566584,-8.322245,-0.48841715
6.137967,4.5901346,-0.035917353,0.21471748,-0.403535,2.408567,-8.307879,-0.46447513
6.13743,4.5901756,-0.035917353,0.21471748,-0.403535,2.408567,-8.307879,-0.46447513
6.136916,4.5902205,-0.03698262,0.21471748,-0.38116443,2.27928,-8.331821,-0.47884035
6.136403,4.590265,-0.03698262,0.21471748,-0.38116443,2.27928,-8.331821,-0.47884035
6.1359105,4.590302,-0.042308938,0.21152169,-0.35772863,2.255338,-8.413225,-0.5410896
6.1354184,4.5903397,-0.042308938,0.21152169,-0.35772863,2.255338,-8.413225,-0.5410896
6.1349435,4.5903687,-0.04763526,0.20619535,-0.3374886,2.1930888,-8.499416,-0.62728083
6.1344686,4.590398,-0.04763526,0.20619535,-0.3374886,2.1930888,-8.499416,-0.62728083
6.134011,4.590414,-0.05509211,0.20086904,-0.31618333,2.2170308,-8.504205,-0.6799533
6.1335535,4.59043,-0.05509211,0.20086904,-0.31618333,2.2170308,-8.504205,-0.6799533
6.133115,4.5904384,-0.062548965,0.19341218,-0.29807383,2.2361844,-8.590396,-0.6847417
6.132677,4.590447,-0.062548965,0.19341218,-0.29807383,2.2361844,-8.590396,-0.6847417
6.1322465,4.590435,-0.07000581,0.1838248,-0.28209487,2.408567,-8.619126,-0.7517793
6.131815,4.5904236,-0.07000581,0.1838248,-0.28209487,2.408567,-8.619126,-0.7517793
6.131402,4.5904045,-0.076397404,0.17423743,-0.26931167,2.456451,-8.662222,-0.7469909
6.1309867,4.590386,-0.076397404,0.17423743,-0.26931167,2.456451,-8.662222,-0.7469909
6.13058,4.5903573,-0.08172372,0.1657153,-0.2597243,2.5474305,-8.690952,-0.7613561
6.130173,4.590329,-0.08172372,0.1657153,-0.2597243,2.5474305,-8.690952,-0.7613561
6.129767,4.5902877,-0.08385425,0.1571932,-0.25546324,2.5809495,-8.671799,-0.8523358
6.129361,4.590246,-0.08385425,0.1571932,-0.25546324,2.5809495,-8.671799,-0.8523358
6.1289577,4.5902004,-0.08491952,0.14867108,-0.2533327,2.6192567,-8.652645,-0.866701
6.128554,4.5901546,-0.08491952,0.14867108,-0.2533327,2.6192567,-8.652645,-0.866701
6.1281533,4.5901103,-0.08278899,0.14014897,-0.2512022,2.6479871,-8.628703,-0.8571242
6.127753,4.590066,-0.08278899,0.14014897,-0.2512022,2.6479871,-8.628703,-0.8571242
6.1273546,4.5900245,-0.077462666,0.13375737,-0.24907166,2.6048915,-8.6095495,-0.8762778
6.1269565,4.589983,-0.077462666,0.13375737,-0.24907166,2.6048915,-8.6095495,-0.8762778
6.126562,4.589954,-0.06894055,0.12736578,-0.24800639,2.6431987,-8.614338,-0.82360536
6.1261673,4.5899253,-0.06894055,0.12736578,-0.24800639,2.6431987,-8.614338,-0.82360536
6.12577,4.589901,-0.058287904,0.118843675,-0.2501369,2.6719291,-8.614338,-0.8714894
6.125373,4.589876,-0.058287904,0.118843675,-0.2501369,2.6719291,-8.614338,-0.8714894
6.1249766,4.5898747,-0.045504734,0.11245208,-0.254398,2.6288335,-8.6574335,-0.7757214
6.1245813,4.589873,-0.045504734,0.11245208,-0.254398,2.6288335,-8.6574335,-0.7757214
6.124178,4.589877,-0.032721557,0.104995236,-0.2597243,2.5809495,-8.6574335,-0.842759
6.123775,4.589881,-0.032721557,0.104995236,-0.2597243,2.5809495,-8.6574335,-0.842759
6.1233745,4.5899105,-0.017807856,0.09753838,-0.26398537,2.6048915,-8.700529,-0.7326257
6.122974,4.589939,-0.017807856,0.09753838,-0.26398537,2.6048915,-8.700529,-0.7326257
6.1225696,4.589983,-0.0050246827,0.090081535,-0.2714422,2.753332,-8.767567,-0.6607997
6.122165,4.5900264,-0.0050246827,0.090081535,-0.2714422,2.753332,-8.767567,-0.6607997
6.1217546,4.5900865,0.008823755,0.08475521,-0.28102958,2.7964275,-8.848969,-0.61291564
6.1213446,4.590147,0.008823755,0.08475521,-0.28102958,2.7964275,-8.848969,-0.61291564
6.12093,4.590225,0.020541664,0.08049415,-0.29168224,2.8060043,-8.901642,-0.51235914
6.120516,4.5903034,0.020541664,0.08049415,-0.29168224,2.8060043,-8.901642,-0.51235914
6.120088,4.5903916,0.030129045,0.073037304,-0.30659592,2.7485435,-8.944737,-0.521936
6.1196604,4.59048,0.030129045,0.073037304,-0.30659592,2.7485435,-8.944737,-0.521936
6.119209,4.590568,0.039716423,0.06451519,-0.32683596,2.767697,-8.925584,-0.62249243
6.118757,4.5906563,0.039716423,0.06451519,-0.32683596,2.767697,-8.925584,-0.62249243
6.1182613,4.590748,0.04610801,0.052797277,-0.3502718,2.7389667,-8.882488,-0.6847417
6.117786,4.590835,0.04610801,0.052797277,-0.3502718,2.7389667,-8.882488,-0.6847417
6.1172953,4.5909243,0.04823854,0.03681831,-0.3737076,2.633622,-8.829816,-0.6703765
6.1168027,4.591014,0.04823854,0.03681831,-0.3737076,2.633622,-8.829816,-0.6703765
6.116287,4.5911026,0.049303804,0.013382491,-0.39927393,2.4851813,-8.676587,-0.6799533
6.115771,4.5911913,0.049303804,0.013382491,-0.39927393,2.4851813,-8.676587,-0.6799533
6.115238,4.591281,0.049303804,-0.018575443,-0.4248403,2.5953147,-8.647857,-0.5410896
6.114705,4.5913715,0.049303804,-0.018575443,-0.4248403,2.5953147,-8.647857,-0.5410896
6.114157,4.591455,0.049303804,-0.05692496,-0.44614556,2.9496565,-8.571242,-0.33518824
6.113606,4.59154,0.049303804,-0.05692496,-0.44614556,2.9496565,-8.571242,-0.33518824
6.113044,4.5916157,0.05036907,-0.095274486,-0.46851614,3.169923,-8.485051,-0.25378537
6.1124797,4.5916915,0.05036907,-0.095274486,-0.46851614,3.169923,-8.485051,-0.25378537
6.1118937,4.5917616,0.054630127,-0.13575453,-0.49301723,3.323152,-8.360553,-0.21068975
6.111307,4.591832,0.054630127,-0.13575453,-0.49301723,3.323152,-8.360553,-0.21068975
6.1107016,4.5919065,0.06528277,-0.17729984,-0.5175183,3.217807,-8.159439,-0.20111294
6.1100965,4.5919805,0.06528277,-0.17729984,-0.5175183,3.217807,-8.159439,-0.20111294
6.1094756,4.5920534,0.075935416,-0.22097568,-0.53669304,3.323152,-7.929596,-0.19153613
6.108854,4.592126,0.075935416,-0.22097568,-0.53669304,3.323152,-7.929596,-0.19153613
6.1082187,4.592201,0.08871859,-0.26465154,-0.5516068,3.6152446,-7.762002,-0.095768064
6.1075892,4.5922756,0.08871859,-0.26465154,-0.5516068,3.6152446,-7.762002,-0.095768064
6.1069508,4.5923567,0.104697555,-0.30939263,-0.5633247,3.8546648,-7.603985,-0.01436521
6.106313,4.5924373,0.104697555,-0.30939263,-0.5633247,3.8546648,-7.603985,-0.01436521
6.105671,4.592526,0.119611256,-0.3583948,-0.57610786,3.9217024,-7.431602,0.11971009
6.1050286,4.5926147,0.119611256,-0.3583948,-0.57610786,3.9217024,-7.431602,0.11971009
6.1043825,4.592711,0.13772075,-0.41059276,-0.58676046,3.9791632,-7.225701,0.17238252
6.1037354,4.592807,0.13772075,-0.41059276,-0.58676046,3.9791632,-7.225701,0.17238252
6.103095,4.5929117,0.15583025,-0.46811703,-0.59102154,4.223372,-7.1586633,0.34955344
6.1024475,4.5930176,0.15583025,-0.46811703,-0.59102154,4.223372,-7.1586633,0.34955344
6.101815,4.593127,0.17287448,-0.5256413,-0.59315205,4.453215,-7.1155677,0.4213795
6.101173,4.593237,0.17287448,-0.5256413,-0.59315205,4.453215,-7.1155677,0.4213795
6.1005435,4.5933533,0.19098398,-0.5831656,-0.59315205,4.606444,-6.9958572,0.50278234
6.0999155,4.593469,0.19098398,-0.5831656,-0.59315205,4.606444,-6.9958572,0.50278234
6.099298,4.593595,0.211224,-0.63855934,-0.59102154,4.697424,-6.8809357,0.59855044
6.0986705,4.5937223,0.211224,-0.63855934,-0.59102154,4.697424,-6.8809357,0.59855044
6.0980654,4.593856,0.2325293,-0.69501835,-0.5835647,4.879383,-6.7085533,0.60812724
6.0980654,4.593856,0.2325293,-0.69501835,-0.5835647,4.879383,-6.7085533,0.60812724
6.0968676,4.5941286,0.25383458,-0.75147736,-0.56865096,5.133168,-6.5361705,0.5506664
6.0962205,4.5942817,0.25383458,-0.75147736,-0.56865096,5.133168,-6.5361705,0.5506664
6.0957193,4.5944147,0.27513987,-0.8090017,-0.54628044,5.2959743,-6.3589997,0.60812724
6.0951514,4.594566,0.27513987,-0.8090017,-0.54628044,5.2959743,-6.3589997,0.60812724
6.0951514,4.594566,0.27513987,-0.8090017,-0.54628044,5.2959743,-6.3589997,0.60812724
6.0940847,4.594885,0.2953799,-0.86865646,-0.51858354,5.4204726,-6.215348,0.6655881
6.0936117,4.5950456,0.31455466,-0.9336376,-0.48236457,5.4444146,-6.0285997,0.6943185
6.0931025,4.5952177,0.31455466,-0.9336376,-0.48236457,5.4444146,-6.0285997,0.6943185
6.0931025,4.5952177,0.31455466,-0.9336376,-0.48236457,5.4444146,-6.0285997,0.6943185
6.0922894,4.5955324,0.33159888,-1.0060756,-0.43868873,5.544971,-5.9519854,0.7326257
6.0919266,4.5956964,0.3465126,-1.0881009,-0.38329497,5.8322754,-5.765238,0.80445176
6.0915637,4.5958595,0.3465126,-1.0881009,-0.38329497,5.8322754,-5.765238,0.80445176
6.091276,4.596021,0.3582305,-1.1733221,-0.31724858,6.009446,-5.60722,0.94810385
6.0909896,4.5961814,0.3582305,-1.1733221,-0.31724858,6.009446,-5.60722,0.94810385
6.0909896,4.5961814,0.36568734,-1.2606738,-0.24268007,6.066907,-5.434838,0.9624691
6.0905814,4.596486,0.36568734,-1.2606738,-0.24268007,6.066907,-5.434838,0.9624691
6.0904694,4.5966225,0.36888313,-1.3512213,-0.16171996,6.181829,-5.209783,0.9528923
6.0903563,4.5967593,0.36888313,-1.3512213,-0.16171996,6.181829,-5.209783,0.9528923
6.090344,4.596881,0.36994842,-1.4438993,-0.07223775,6.3063273,-4.8841715,1.0534488
6.0903316,4.5970016,0.36994842,-1.4438993,-0.07223775,6.3063273,-4.8841715,1.0534488
6.090424,4.597103,0.36781788,-1.5397731,0.021505518,6.5122285,-4.5633483,1.1061212
6.090516,4.5972047,0.36781788,-1.5397731,0.021505518,6.5122285,-4.5633483,1.1061212
6.090714,4.597279,0.3614263,-1.639908,0.11737932,6.751649,-4.189853,1.0342951
6.090912,4.597354,0.3614263,-1.639908,0.11737932,6.751649,-4.189853,1.0342951
6.0912175,4.597396,0.35077363,-1.7474997,0.21431838,6.8569937,-3.7205894,0.90021986
6.091522,4.5974383,0.35077363,-1.7474997,0.21431838,6.8569937,-3.7205894,0.90021986
6.0919394,4.597443,0.33585995,-1.8625482,0.31445324,6.5457473,-3.2465374,0.6943185
6.0923557,4.5974483,0.33585995,-1.8625482,0.31445324,6.5457473,-3.2465374,0.6943185
6.0928946,4.5974107,0.31668517,-1.9893147,0.42204496,6.7372837,-2.7868507,0.6464345
6.093433,4.597374,0.31668517,-1.9893147,0.42204496,6.7372837,-2.7868507,0.6464345
6.0941143,4.5972867,0.29005358,-2.123538,0.5477462,7.1059904,-2.4277205,0.6464345
6.0947948,4.5972013,0.29005358,-2.123538,0.5477462,7.1059904,-2.4277205,0.6464345
6.09564,4.597061,0.25809565,-2.2535002,0.68196946,7.2927384,-2.0829554,0.7086837
6.0964565,4.5969276,0.25809565,-2.2535002,0.68196946,7.2927384,-2.0829554,0.7086837
6.097452,4.5967364,0.22187665,-2.3760056,0.8279107,7.7189064,-1.70946,0.79487497
6.098445,4.5965486,0.22187665,-2.3760056,0.8279107,7.7189064,-1.70946,0.79487497
6.0996137,4.596306,0.1813966,-2.4835973,0.9877004,8.087613,-1.4173675,0.91458505
6.100782,4.5960655,0.1813966,-2.4835973,0.9877004,8.087613,-1.4173675,0.91458505
6.1021285,4.5957723,0.13559023,-2.5688186,1.1538817,8.264784,-1.0726024,1.0869676
6.1034746,4.5954823,0.13559023,-2.5688186,1.1538817,8.264784,-1.0726024,1.0869676
6.105008,4.5951424,0.089783855,-2.6327343,1.3296503,8.250419,-0.78050977,1.1587936
6.106541,4.594806,0.089783855,-2.6327343,1.3296503,8.250419,-0.78050977,1.1587936
6.1082687,4.5944214,0.040781688,-2.6764102,1.5171368,8.1881695,-0.31603462,1.2306197
6.1099925,4.5940423,0.040781688,-2.6764102,1.5171368,8.1881695,-0.31603462,1.2306197
6.111931,4.5936112,-0.012481534,-2.699846,1.7163413,7.785944,0.15801731,1.1731589
6.1138625,4.593187,-0.012481534,-2.699846,1.7163413,7.785944,0.15801731,1.1731589
6.116013,4.5927134,-0.06894055,-2.7094336,1.9272636,7.350199,0.521936,1.2354081
6.1181602,4.592247,-0.06894055,-2.7094336,1.9272636,7.350199,0.521936,1.2354081
6.1205454,4.5917306,-0.12859535,-2.7083683,2.1573608,6.6989765,0.866701,1.2737153
6.1229267,4.591222,-0.12859535,-2.7083683,2.1573608,6.6989765,0.866701,1.2737153
6.1255665,4.590666,-0.1871849,-2.699846,2.4098284,6.1626754,1.0199299,1.2401965
6.128202,4.590118,-0.1871849,-2.699846,2.4098284,6.1626754,1.0199299,1.2401965
6.131119,4.589527,-0.24364392,-2.691324,2.6846666,5.6359506,1.0773908,1.2976574
6.1340256,4.5889463,-0.24364392,-2.691324,2.6846666,5.6359506,1.0773908,1.2976574
6.1372514,4.5883265,-0.29584187,-2.6806712,2.9861364,5.2385135,0.92416185,1.3599066
6.140469,4.5877156,-0.29584187,-2.6806712,2.9861364,5.2385135,0.92416185,1.3599066
6.144011,4.5870814,-0.3373872,-2.6657577,3.3131726,4.8745947,0.7374141,1.340753
6.1475544,4.5864553,-0.3373872,-2.6657577,3.3131726,4.8745947,0.7374141,1.340753
6.151443,4.5858183,-0.36827987,-2.6465828,3.6625795,4.5872903,0.41180268,1.3742718
6.1553216,4.5851917,-0.36827987,-2.6465828,3.6625795,4.5872903,0.41180268,1.3742718
6.1595874,4.5845637,-0.3853241,-2.623147,4.032226,4.2904096,0.1388637,1.2641385
6.1638384,4.5839477,-0.3853241,-2.623147,4.032226,4.2904096,0.1388637,1.2641385
6.168473,4.5833445,-0.38851988,-2.594385,4.4210477,4.185065,-0.047884032,1.067814
6.168473,4.5833445,-0.38851988,-2.594385,4.4210477,4.185065,-0.047884032,1.067814
6.1781063,4.582176,-0.38425884,-2.5592313,4.8194566,4.0174704,-0.29209262,0.81402856
6.1833005,4.5815954,-0.38425884,-2.5592313,4.8194566,4.0174704,-0.29209262,0.81402856
6.1885924,4.58107,-0.37360618,-2.5155554,5.2221265,3.787627,-0.5410896,0.4357447
6.193977,4.580545,-0.37360618,-2.5155554,5.2221265,3.787627,-0.5410896,0.4357447
6.1997232,4.580046,-0.35975775,-2.4686837,5.6205354,3.5577838,-0.7517793,0.047884032
6.2054996,4.5795546,-0.35975775,-2.4686837,5.6205354,3.5577838,-0.7517793,0.047884032
6.2116833,4.579076,-0.3459093,-2.421812,6.0114875,3.1172507,-0.8523358,-0.4309563
6.217862,4.578607,-0.3459093,-2.421812,6.0114875,3.1172507,-0.8523358,-0.4309563
6.2243667,4.578139,-0.33525667,-2.37281,6.3928523,2.5809495,-0.90021986,-0.9911995
6.2309113,4.5776777,-0.33525667,-2.37281,6.3928523,2.5809495,-0.90021986,-0.9911995
6.2377996,4.5771894,-0.33312613,-2.3270035,6.759303,1.8626889,-0.93852705,-1.5945383
6.2447023,4.5767097,-0.33312613,-2.3270035,6.759303,1.8626889,-0.93852705,-1.5945383
6.251972,4.5762043,-0.3427135,-2.288654,7.1076446,1.1587936,-1.0295067,-2.0973208
6.2592854,4.5757046,-0.3427135,-2.288654,7.1076446,1.1587936,-1.0295067,-2.0973208
6.266937,4.575187,-0.36295354,-2.2598917,7.4378767,0.33518824,-1.1061212,-2.408567
6.2745957,4.5746784,-0.36295354,-2.2598917,7.4378767,0.33518824,-1.1061212,-2.408567
6.282587,4.5741544,-0.3938462,-2.2385867,7.7468033,-0.60333884,-1.3503298,-2.480393
0.0074408255,4.5736356,-0.3938462,-2.2385867,7.7468033,-0.60333884,-1.3503298,-2.480393
0.015780834,4.573103,-0.433261,-2.2183466,8.032294,-1.5179238,-1.5370775,-2.3989902
0.024120804,4.572579,-0.433261,-2.2183466,8.032294,-1.5179238,-1.5370775,-2.3989902
0.03272661,4.572046,-0.4780021,-2.195976,8.295415,-2.4899697,-1.8674773,-2.1547816
0.041384384,4.571518,-0.4780021,-2.195976,8.295415,-2.4899697,-1.8674773,-2.1547816
0.050257355,4.570975,-0.52700424,-2.167214,8.53723,-3.4763808,-2.303222,-1.9632454
0.059148535,4.5704384,-0.52700424,-2.167214,8.53723,-3.4763808,-2.303222,-1.9632454
0.06821889,4.5698724,-0.5802675,-2.13206,8.755609,-4.367024,-2.7485435,-1.8004397
0.077344425,4.5693107,-0.5802675,-2.13206,8.755609,-4.367024,-2.7485435,-1.8004397
0.086620644,4.5687017,-0.63353074,-2.0926454,8.951617,-5.3103395,-2.7724855,-2.0494366
0.095916085,4.5680985,-0.63353074,-2.0926454,8.951617,-5.3103395,-2.7724855,-2.0494366
0.10533332,4.567439,-0.6953161,-2.0521653,9.114603,-5.5258174,-3.8977604,-2.0733786
0.11480781,4.566782,-0.6953161,-2.0521653,9.114603,-5.5258174,-3.8977604,-2.0733786
0.12435318,4.566047,-0.7656235,-1.9999673,9.254152,-6.7133417,-3.739743,-2.8491
0.13393743,4.565315,-0.7656235,-1.9999673,9.254152,-6.7133417,-3.739743,-2.8491
0.14360659,4.5645175,-0.8380615,-1.9765315,9.350026,-7.489063,-4.951209,-2.8107927
0.15327632,4.5637245,-0.8380615,-1.9765315,9.350026,-7.489063,-4.951209,-2.8107927
0.1629589,4.562886,-0.90410787,-1.9925104,9.38518,-6.6175733,-6.5984197,-2.1499932
0.1726906,4.562048,-0.90410787,-1.9925104,9.38518,-6.6175733,-6.5984197,-2.1499932
0.18241459,4.5611897,-0.9413921,-1.9893147,9.395833,-7.038953,-8.327033,-1.9057846
0.1921392,4.560336,-0.9413921,-1.9893147,9.395833,-7.038953,-8.327033,-1.9057846
0.20178442,4.5596104,-0.9073037,-1.9626831,9.402225,-7.603985,-17.611748,2.4899697
0.21145698,4.558887,-0.9073037,-1.9626831,9.402225,-7.603985,-17.611748,2.4899697
0.22117047,4.558282,-0.73046976,-1.9488347,9.411812,-12.617443,-12.981361,-0.62249243
0.23090366,4.557679,-0.73046976,-1.9488347,9.411812,-12.617443,-12.981361,-0.62249243
0.24065666,4.557293,-0.45137048,-1.9850537,9.469336,-16.903065,-2.9496565,-7.560889
0.25047854,4.556908,-0.45137048,-1.9850537,9.469336,-16.903065,-2.9496565,-7.560889
0.2602787,4.556777,-0.2830587,-2.2247381,9.464009,-18.660408,-5.7269306,-5.9902925
0.2701087,4.556652,-0.2830587,-2.2247381,9.464009,-18.660408,-5.7269306,-5.9902925
0.27988148,4.5566974,-0.21168599,-2.6039722,9.391572,-13.493721,-2.1260512,-6.0142345
0.2897132,4.5567546,-0.21168599,-2.6039722,9.391572,-13.493721,-2.1260512,-6.0142345
0.29949874,4.556974,-0.18079332,-2.925682,9.327656,-14.748282,-4.9464207,-4.43885
0.30930367,4.55721,-0.18079332,-2.925682,9.327656,-14.748282,-4.9464207,-4.43885
0.3190201,4.557578,-0.18931544,-3.2260866,9.206216,-8.901642,-5.8705826,-1.6950948
0.3287554,4.5579667,-0.18931544,-3.2260866,9.206216,-8.901642,-5.8705826,-1.6950948
0.3383332,4.5585303,-0.15522698,-3.4540534,9.037904,-7.632715,-7.3166804,-0.48841715
0.34792903,4.559119,-0.15522698,-3.4540534,9.037904,-7.632715,-7.3166804,-0.48841715
0.35725704,4.5598974,-0.09557216,-3.581885,8.825916,-5.7365074,-8.073248,0.7565677
0.3666382,4.5607076,-0.09557216,-3.581885,8.825916,-5.7365074,-8.073248,0.7565677
0.37573835,4.56168,-0.0007636249,-3.6212997,8.593689,-6.1100025,-9.351752,1.9009962
0.38482562,4.56268,-0.0007636249,-3.6212997,8.593689,-6.1100025,-9.351752,1.9009962
0.39368108,4.563834,0.13452496,-3.5904071,8.358265,-7.632715,-9.739613,1.9297266
0.40257692,4.5650244,0.13452496,-3.5904071,8.358265,-7.632715,-9.739613,1.9297266
0.4112524,4.566355,0.30816308,-3.532883,8.139886,-12.445061,-8.791509,0.7134721
0.41994223,4.5677185,0.30816308,-3.532883,8.139886,-12.445061,-8.791509,0.7134721
0.42838916,4.569286,0.48712748,-3.528622,7.9278984,-12.497733,-7.7811556,0.19632454
0.4368751,4.5708914,0.48712748,-3.528622,7.9278984,-12.497733,-7.7811556,0.19632454
0.44516027,4.5727205,0.6522435,-3.5797546,7.737216,-14.025233,-7.8769236,-0.033518825
0.4534411,4.574582,0.6522435,-3.5797546,7.737216,-14.025233,-7.8769236,-0.033518825
0.46155658,4.576644,0.7960542,-3.6149082,7.5976663,-15.045163,-7.85777,0.37349546
0.46971577,4.5787535,0.7960542,-3.6149082,7.5976663,-15.045163,-7.85777,0.37349546
0.47774106,4.581069,0.93453854,-3.6628451,7.4900746,-14.882358,-8.020576,0.89543146
0.4857606,4.5834203,0.93453854,-3.6628451,7.4900746,-14.882358,-8.020576,0.89543146
0.49367413,4.585988,1.0751535,-3.7288916,7.398462,-15.533581,-8.212111,1.1013328
0.5016124,4.588606,1.0751535,-3.7288916,7.398462,-15.533581,-8.212111,1.1013328
0.5094423,4.591463,1.2168336,-3.806656,7.3121753,-15.313314,-8.868123,2.1787236
0.5172638,4.5943627,1.2168336,-3.806656,7.3121753,-15.313314,-8.868123,2.1787236
0.52499366,4.5974717,1.3606443,-3.86418,7.233346,-18.042704,-8.0924015,2.1404164
0.53274536,4.6006384,1.3606443,-3.86418,7.233346,-18.042704,-8.0924015,2.1404164
0.5404144,4.6040263,1.500194,-3.928096,7.1683645,-22.390574,-9.648633,2.6767175
0.5480805,4.607466,1.500194,-3.928096,7.1683645,-22.390574,-9.648633,2.6767175
0.55555886,4.6113024,1.6589184,-4.1954775,7.013901,-16.376339,-10.702082,3.964798
0.5630611,4.6152124,1.6589184,-4.1954775,7.013901,-16.376339,-10.702082,3.964798
0.5703479,4.619479,1.8197733,-4.3893557,6.8232193,-14.743494,-11.631032,4.4580035
0.57762563,4.62381,1.8197733,-4.3893557,6.8232193,-14.743494,-11.631032,4.4580035
0.58468425,4.6283894,1.9816935,-4.4255743,6.633602,-16.065094,-12.737153,5.0517654
0.58468425,4.6283894,1.9816935,-4.4255743,6.633602,-16.065094,-12.737153,5.0517654
0.592752,4.633714,1.9816935,-4.4255743,6.633602,-16.065094,-12.737153,5.0517654
0.6048292,4.642625,2.1638536,-4.463924,6.400309,-12.210428,-13.517663,5.511452
0.61239266,4.6486435,2.350275,-4.44688,6.154233,-15.538369,-14.4130945,5.080496
0.61868656,4.6538143,2.350275,-4.44688,6.154233,-15.538369,-14.4130945,5.080496
0.6249796,4.659419,2.535631,-4.390421,5.9230704,-15.313314,-14.264654,4.9703627
0.631057,4.6649146,2.535631,-4.390421,5.9230704,-15.313314,-14.264654,4.9703627
0.631057,4.6649146,2.535631,-4.390421,5.9230704,-15.313314,-14.264654,4.9703627
0.6427485,4.6764436,2.7103343,-4.3573976,5.6919084,-15.318103,-13.910312,4.367024
0.64835715,4.6823573,2.8552103,-4.2881556,5.488443,-17.717093,-13.728353,3.8067808
0.65404433,4.688442,2.8552103,-4.2881556,5.488443,-17.717093,-13.728353,3.8067808
0.6595241,4.694677,2.9670632,-4.2348924,5.29563,-17.310078,-13.493721,3.620033
0.66496736,4.7009616,2.9670632,-4.2348924,5.29563,-17.310078,-13.493721,3.620033
0.6702224,4.707362,3.0437622,-4.190151,5.1081433,-17.640478,-13.072341,3.1411927
0.6754357,4.713805,3.0437622,-4.190151,5.1081433,-17.640478,-13.072341,3.1411927
0.68047005,4.720326,3.0778506,-4.1230392,4.922787,-17.496826,-12.813767,2.96881
0.68546283,4.7268877,3.0778506,-4.1230392,4.922787,-17.496826,-12.813767,2.96881
0.69024265,4.733469,3.0693285,-4.045275,4.7235827,-16.577452,-12.957419,3.0214825
0.69514143,4.7403154,3.0693285,-4.045275,4.7235827,-16.577452,-12.957419,3.0214825
0.69945234,4.746611,3.0160654,-3.9355528,4.5052037,-16.25184,-14.00608,3.2992098
0.69945234,4.746611,3.0160654,-3.9355528,4.5052037,-16.25184,-14.00608,3.2992098
0.7084209,4.7600965,2.93404,-3.7928073,4.2591276,-15.682021,-14.796166,3.289633
0.71234983,4.7662663,2.93404,-3.7928073,4.2591276,-15.682021,-14.796166,3.289633
0.7161112,4.7724276,2.8349705,-3.622365,3.9821587,-15.897499,-15.710752,3.0597897
0.7199552,4.7788124,2.8349705,-3.622365,3.9821587,-15.897499,-15.710752,3.0597897
0.7234495,4.784877,2.7241828,-3.4306176,3.681754,-16.089035,-16.424223,2.6240451
0.7269038,4.7909527,2.7241828,-3.4306176,3.681754,-16.089035,-16.424223,2.6240451
0.73005706,4.796759,2.6006122,-3.2324784,3.3600442,-16.290148,-17.142485,2.078167
0.73320466,4.8026237,2.6006122,-3.2324784,3.3600442,-16.290148,-17.142485,2.078167
0.73606884,4.808039,2.4674542,-3.0279474,3.020225,-16.76899,-17.836803,1.388637
0.7388677,4.8134117,2.4674542,-3.0279474,3.020225,-16.76899,-17.836803,1.388637
0.74124765,4.818427,2.3289697,-2.8276777,2.6718836,-16.960526,-18.392258,0.7565677
0.7435949,4.8234396,2.3289697,-2.8276777,2.6718836,-16.960526,-18.392258,0.7565677
0.7456186,4.828132,2.18942,-2.6327343,2.3192809,-17.458519,-18.358738,-0.16759412
0.7476378,4.8328724,2.18942,-2.6327343,2.3192809,-17.458519,-18.358738,-0.16759412
0.74931663,4.837256,2.0456095,-2.4463131,1.9709395,-17.635689,-18.167202,-0.9720459
0.7509143,4.841473,2.0456095,-2.4463131,1.9709395,-17.635689,-18.167202,-0.9720459
0.7522434,4.845537,1.8975376,-2.2780013,1.6215327,-17.525557,-17.975666,-1.5610195
0.7536235,4.849803,1.8975376,-2.2780013,1.6215327,-17.525557,-17.975666,-1.5610195
0.7546181,4.853545,1.7462701,-2.1267338,1.2742565,-17.559074,-17.152061,-2.1164744
0.7556056,4.8573027,1.7462701,-2.1267338,1.2742565,-17.559074,-17.152061,-2.1164744
0.7562512,4.8607397,1.5907415,-1.9935757,0.921654,-16.869545,-16.725893,-2.3080103
0.7568929,4.8642025,1.5907415,-1.9935757,0.921654,-16.869545,-16.725893,-2.3080103
0.7571818,4.8673143,1.4320171,-1.8763967,0.5615946,-15.988479,-16.01721,-2.3175871
0.7574655,4.8704405,1.4320171,-1.8763967,0.5615946,-15.988479,-16.01721,-2.3175871
0.7573983,4.8732524,1.2828801,-1.7581522,0.1962089,-14.968549,-15.1696615,-2.4229321
0.7573264,4.8760633,1.2828801,-1.7581522,0.1962089,-14.968549,-15.1696615,-2.4229321
0.7569032,4.8785496,1.1443957,-1.6313858,-0.1755684,-14.025233,-14.360422,-2.2409728
0.7564738,4.881048,1.1443957,-1.6313858,-0.1755684,-14.025233,-14.360422,-2.2409728
0.75570107,4.88322,1.0176291,-1.4907709,-0.54841095,-13.239936,-13.43626,-2.054225
0.75492644,4.8853865,1.0176291,-1.4907709,-0.54841095,-13.239936,-13.43626,-2.054225
0.7538174,4.887238,0.9068417,-1.3352423,-0.9169925,-12.751518,-12.684481,-1.8866309
0.7527022,4.889093,0.9068417,-1.3352423,-0.9169925,-12.751518,-12.684481,-1.8866309
0.75128496,4.8906326,0.81309843,-1.1626694,-1.2706603,-12.583924,-11.664551,-1.8195933
0.749871,4.8921638,0.81309843,-1.1626694,-1.2706603,-12.583924,-11.664551,-1.8195933
0.7481731,4.893402,0.7353341,-0.98157454,-1.6019576,-12.445061,-10.716447,-1.6903064
0.7464753,4.894637,0.7353341,-0.98157454,-1.6019576,-12.445061,-10.716447,-1.6903064
0.7445327,4.8955917,0.66928774,-0.798349,-1.9044926,-12.555194,-9.787497,-1.70946
0.7425865,4.896545,0.66928774,-0.798349,-1.9044926,-12.555194,-9.787497,-1.70946
0.7404232,4.897235,0.61282873,-0.6151235,-2.1740046,-12.23437,-9.136273,-1.3551182
0.738256,4.8979244,0.61282873,-0.6151235,-2.1740046,-12.23437,-9.136273,-1.3551182
0.7359098,4.8983765,0.57021815,-0.4361591,-2.409428,-12.042834,-8.413225,-1.2497733
0.7335495,4.898831,0.57021815,-0.4361591,-2.409428,-12.042834,-8.413225,-1.2497733
0.731047,4.899073,0.5393255,-0.25825995,-2.607567,-12.047623,-7.4028716,-1.3072342
0.7285496,4.899316,0.5393255,-0.25825995,-2.607567,-12.047623,-7.4028716,-1.3072342
0.7259201,4.899367,0.5148244,-0.0856871,-2.771618,-11.631032,-6.7803793,-1.0486604
0.72329634,4.89942,0.5148244,-0.0856871,-2.771618,-11.631032,-6.7803793,-1.0486604
0.720594,4.8992987,0.4924538,0.08155942,-2.8994496,-11.477803,-6.157887,-0.8379706
0.7178751,4.8991814,0.4924538,0.08155942,-2.8994496,-11.477803,-6.157887,-0.8379706
0.7151147,4.8989143,0.4775401,0.24028382,-2.9921277,-11.348516,-5.7843914,-0.51714754
0.7123488,4.8986516,0.4775401,0.24028382,-2.9921277,-11.348516,-5.7843914,-0.51714754
0.7095567,4.8982544,0.46582222,0.39261663,-3.0539129,-11.204864,-5.2528787,-0.34476504
0.7067534,4.897861,0.46582222,0.39261663,-3.0539129,-11.204864,-5.2528787,-0.34476504
0.70395195,4.8973455,0.45516956,0.53962314,-3.0794792,-10.951078,-4.6255975,-0.15801731
0.7011555,4.8968387,0.45516956,0.53962314,-3.0794792,-10.951078,-4.6255975,-0.15801731
0.69839644,4.896228,0.44132113,0.67917275,-3.0805445,-10.721235,-4.8841715,0.46447513
0.69564205,4.8956265,0.44132113,0.67917275,-3.0805445,-10.721235,-4.8841715,0.46447513
0.6929016,4.894923,0.42640743,0.809135,-3.0592394,-10.58716,-4.999093,0.9624691
0.6901818,4.8942347,0.42640743,0.809135,-3.0592394,-10.58716,-4.999093,0.9624691
0.6875141,4.893483,0.42214635,0.90713936,-3.0283465,-8.949526,-4.7548847,1.0726024
0.68485045,4.892742,0.42214635,0.90713936,-3.0283465,-8.949526,-4.7548847,1.0726024
0.6822199,4.891923,0.4146895,1.0381669,-2.9793444,-7.383718,-4.8123455,1.4556746
0.679614,4.89112,0.4146895,1.0381669,-2.9793444,-7.383718,-4.8123455,1.4556746
0.67711705,4.890175,0.3997758,1.2213924,-2.9026453,-8.78672,-4.903325,1.6424223
0.67460304,4.8892336,0.3997758,1.2213924,-2.9026453,-8.78672,-4.903325,1.6424223
0.6721971,4.888169,0.3848621,1.3854431,-2.8152938,-8.384495,-4.721366,1.6184803
0.6698126,4.8871245,0.3848621,1.3854431,-2.8152938,-8.384495,-4.721366,1.6184803
0.6675213,4.8859634,0.3582305,1.5164707,-2.7258115,-8.604761,-4.783615,1.6136919
0.66523194,4.8848143,0.3582305,1.5164707,-2.7258115,-8.604761,-4.783615,1.6136919
0.66305417,4.883542,0.31135887,1.634715,-2.6246114,-9.581595,-4.807557,1.6711528
0.6608801,4.8822837,0.31135887,1.634715,-2.6246114,-9.581595,-4.807557,1.6711528
0.6588039,4.8809447,0.24957353,1.7135446,-2.5287375,-7.565677,-4.7405195,1.7669208
0.65671825,4.879611,0.24957353,1.7135446,-2.5287375,-7.565677,-4.7405195,1.7669208
0.6547463,4.8781576,0.16754816,1.7945046,-2.433929,-8.858546,-5.4539914,1.9919758
0.6527692,4.876712,0.16754816,1.7945046,-2.433929,-8.858546,-5.4539914,1.9919758
0.65086865,4.8751607,0.07806595,1.8690732,-2.3433816,-7.216124,-5.1523223,2.1308396
0.64896876,4.8736215,0.07806595,1.8690732,-2.3433816,-7.216124,-5.1523223,2.1308396
0.6471449,4.871969,-0.018873122,1.924467,-2.2688131,-7.441179,-5.707777,2.2840683
0.64531547,4.870324,-0.018873122,1.924467,-2.2688131,-7.441179,-5.707777,2.2840683
0.64357847,4.8685246,-0.1275301,1.9862523,-2.1910489,-7.953538,-5.33907,2.111686
0.64183885,4.8667355,-0.1275301,1.9862523,-2.1910489,-7.953538,-5.33907,2.111686
0.64013934,4.864853,-0.24257866,2.0192754,-2.1239371,-8.403648,-7.029376,2.96881
0.6384351,4.8629794,-0.24257866,2.0192754,-2.1239371,-8.403648,-7.029376,2.96881
0.6367444,4.8610344,-0.34484404,2.0203407,-2.0728045,-6.9623384,-6.694188,3.1124623
0.6350495,4.8590975,-0.34484404,2.0203407,-2.0728045,-6.9623384,-6.694188,3.1124623
0.63336617,4.8571005,-0.43219572,2.0075576,-2.0376506,-6.1004257,-6.50744,2.858677
0.631679,4.8551116,-0.43219572,2.0075576,-2.0376506,-6.1004257,-6.50744,2.858677
0.6300927,4.852999,-0.521678,2.0309935,-1.998236,-8.896853,-7.019799,2.815581
0.6285,4.850892,-0.521678,2.0309935,-1.998236,-8.896853,-7.019799,2.815581
0.6269145,4.848714,-0.6068991,2.033124,-1.9641474,-7.8912888,-6.564901,2.9352913
0.62533164,4.8465543,-0.6068991,2.033124,-1.9641474,-7.8912888,-6.564901,2.9352913
0.623721,4.844369,-0.68572867,1.9830564,-1.950299,-7.3166804,-7.216124,3.1172507
0.6221057,4.8421917,-0.68572867,1.9830564,-1.950299,-7.3166804,-7.216124,3.1172507
0.6205084,4.8399653,-0.76455826,1.9468374,-1.9375159,-8.576031,-7.8290396,3.4093432
0.618906,4.8377476,-0.76455826,1.9468374,-1.9375159,-8.576031,-7.8290396,3.4093432
0.61727345,4.835527,-0.824213,1.8935742,-1.9353853,-7.536947,-7.73806,3.4524388
0.6156347,4.833312,-0.824213,1.8935742,-1.9353853,-7.536947,-7.73806,3.4524388
0.61395633,4.831082,-0.87534577,1.8339194,-1.9449726,-7.603985,-8.355764,3.3997664
0.6121597,4.8287096,-0.87534577,1.8339194,-1.9449726,-7.603985,-8.355764,3.3997664
0.6105691,4.826626,-0.91689104,1.7785257,-1.958821,-7.8625584,-8.293514,3.289633
0.6088916,4.824442,-0.91689104,1.7785257,-1.958821,-7.8625584,-8.293514,3.289633
0.6071669,4.822282,-0.9477837,1.7082182,-1.9854528,-7.73806,-8.710106,3.1842883
0.6054506,4.8201437,-0.9477837,1.7082182,-1.9854528,-7.73806,-8.710106,3.1842883
0.60363245,4.8179917,-0.97121954,1.630454,-2.0238023,-7.5082164,-8.863335,3.1555579
0.6018399,4.815881,-0.97121954,1.630454,-2.0238023,-7.5082164,-8.863335,3.1555579
0.5999699,4.8138123,-0.9861332,1.5537549,-2.0717392,-7.335834,-9.32781,3.289633
0.5980953,4.8117485,-0.9861332,1.5537549,-2.0717392,-7.335834,-9.32781,3.289633
0.5961294,4.809719,-0.98719853,1.4791864,-2.1239371,-7.053318,-9.442732,3.083732
0.5941689,4.8077054,-0.98719853,1.4791864,-2.1239371,-7.053318,-9.442732,3.083732
0.5921777,4.8057785,-0.9754806,1.4088789,-2.1814613,-7.297527,-9.552865,2.8634653
0.5901621,4.8038373,-0.9754806,1.4088789,-2.1814613,-7.297527,-9.552865,2.8634653
0.58808064,4.8019667,-0.9541753,1.3353757,-2.2453773,-7.249643,-9.380483,2.5570073
0.585991,4.800097,-0.9541753,1.3353757,-2.2453773,-7.249643,-9.380483,2.5570073
0.58383894,4.7983384,-0.92647845,1.2608072,-2.3103583,-7.0485296,-9.773131,2.6910827
0.58165765,4.7965627,-0.92647845,1.2608072,-2.3103583,-7.0485296,-9.773131,2.6910827
0.5794115,4.7948766,-0.8891942,1.1894344,-2.3742743,-7.1395097,-9.868899,2.4947581
0.57716924,4.7932,-0.8891942,1.1894344,-2.3742743,-7.1395097,-9.868899,2.4947581
0.57487595,4.7916365,-0.83593094,1.1127354,-2.4381902,-7.1107793,-9.720459,2.2505496
0.5725635,4.7900662,-0.83593094,1.1127354,-2.4381902,-7.1107793,-9.720459,2.2505496
0.5701802,4.7886195,-0.77094984,1.0296447,-2.5042365,-6.9288197,-9.600749,2.0638018
0.5678012,4.787181,-0.77094984,1.0296447,-2.5042365,-6.9288197,-9.600749,2.0638018
0.5653602,4.7858706,-0.6995771,0.94761944,-2.5670872,-6.8569937,-9.437943,2.0446482
0.56291413,4.784563,-0.6995771,0.94761944,-2.5670872,-6.8569937,-9.437943,2.0446482
0.5603994,4.7833853,-0.62074757,0.86665934,-2.626742,-6.6989765,-9.251195,1.9249382
0.55789244,4.782216,-0.62074757,0.86665934,-2.626742,-6.6989765,-9.251195,1.9249382
0.5553062,4.781185,-0.5355264,0.78569925,-2.6853316,-6.4978633,-9.184157,1.9776106
0.5527258,4.7801604,-0.5355264,0.78569925,-2.6853316,-6.4978633,-9.184157,1.9776106
0.55006784,4.77927,-0.44391364,0.70686966,-2.743921,-6.4020953,-8.978256,1.8914193
0.54742634,4.77839,-0.44391364,0.70686966,-2.743921,-6.4020953,-8.978256,1.8914193
0.54471666,4.7776575,-0.34803984,0.63230115,-2.7982495,-6.1004257,-8.90643,1.9393034
0.54161185,4.776822,-0.34803984,0.63230115,-2.7982495,-6.1004257,-8.90643,1.9393034
0.53915155,4.776299,-0.24897024,0.56838524,-2.844056,-5.9807158,-8.935161,1.9728222
0.53915155,4.776299,-0.24897024,0.56838524,-2.844056,-5.9807158,-8.935161,1.9728222
0.5335941,4.7752285,-0.14883539,0.51192623,-2.8856013,-5.827487,-8.90643,2.111686
0.5307551,4.7747793,-0.14883539,0.51192623,-2.8856013,-5.827487,-8.90643,2.111686
0.5307551,4.7747793,-0.046569996,0.46398935,-2.9218202,-5.8226986,-8.825027,1.9488802
0.5258205,4.7742357,-0.046569996,0.46398935,-2.9218202,-5.8226986,-8.825027,1.9488802
0.5258205,4.7742357,-0.046569996,0.46398935,-2.9218202,-5.8226986,-8.825027,1.9488802
0.5258205,4.7742357,-0.046569996,0.46398935,-2.9218202,-5.8226986,-8.825027,1.9488802
0.5168526,4.7732654,-0.046569996,0.46398935,-2.9218202,-5.8226986,-8.825027,1.9488802
0.5147243,4.7732077,0.14730814,0.3936819,-2.9708223,-5.7987566,-8.576031,1.6089035
0.5112089,4.773114,0.14730814,0.3936819,-2.9708223,-5.7987566,-8.576031,1.6089035
0.5112089,4.773114,0.14730814,0.3936819,-2.9708223,-5.7987566,-8.576031,1.6089035
0.50532484,4.7731915,0.31029359,0.34467974,-2.9878666,-5.616797,-8.269572,1.3024458
0.50212663,4.7733116,0.31029359,0.34467974,-2.9878666,-5.616797,-8.269572,1.3024458
0.4993904,4.7734737,0.37634,0.33189657,-2.9804096,-5.521029,-8.121132,1.0534488
0.4993904,4.7734737,0.37634,0.33189657,-2.9804096,-5.521029,-8.121132,1.0534488
0.4940463,4.773792,0.43173376,0.3212439,-2.965496,-5.3582234,-8.00621,0.90021986
0.49077752,4.774048,0.43173376,0.3212439,-2.965496,-5.3582234,-8.00621,0.90021986
0.48796156,4.7743254,0.4743443,0.31485233,-2.9420602,-5.032612,-7.8529816,0.8571242
0.48517543,4.774599,0.4743443,0.31485233,-2.9420602,-5.032612,-7.8529816,0.8571242
0.48242834,4.7748795,0.5073675,0.31378707,-2.9079716,-5.2385135,-7.6135616,0.7086837
0.4796625,4.7751617,0.5073675,0.31378707,-2.9079716,-5.2385135,-7.6135616,0.7086837
0.47694048,4.775497,0.52760756,0.31378707,-2.868557,-4.8937483,-7.666234,0.8810662
0.4742226,4.775831,0.52760756,0.31378707,-2.868557,-4.8937483,-7.666234,0.8810662
0.47152475,4.77619,0.5393255,0.31485233,-2.829142,-4.7405195,-7.565677,0.92895025
0.4688127,4.7765493,0.5393255,0.31485233,-2.829142,-4.7405195,-7.565677,0.92895025
0.4661404,4.776927,0.54465175,0.3244397,-2.7907927,-4.663905,-7.603985,1.1683705
0.4634569,4.777306,0.54465175,0.3244397,-2.7907927,-4.663905,-7.603985,1.1683705
0.46081313,4.7776814,0.54571706,0.34467974,-2.7513778,-4.6782703,-7.632715,1.2785037
0.45817932,4.778055,0.54571706,0.34467974,-2.7513778,-4.6782703,-7.632715,1.2785037
0.45555958,4.7784176,0.5393255,0.37344187,-2.7162242,-4.687847,-7.7572136,1.4173675
0.4529495,4.778779,0.5393255,0.37344187,-2.7162242,-4.687847,-7.7572136,1.4173675
0.4503663,4.779111,0.525477,0.40966088,-2.6895926,-4.817134,-7.9152308,1.460463
0.4477849,4.779443,0.525477,0.40966088,-2.6895926,-4.817134,-7.9152308,1.460463
0.4452275,4.779734,0.5031065,0.45014092,-2.6704178,-4.951209,-8.121132,1.4987702
0.4426718,4.780026,0.5031065,0.45014092,-2.6704178,-4.951209,-8.121132,1.4987702
0.44014233,4.7802577,0.4722138,0.49381676,-2.6640263,-5.1523223,-8.341399,1.3455414
0.43761423,4.780491,0.4722138,0.49381676,-2.6640263,-5.1523223,-8.341399,1.3455414
0.43510026,4.780649,0.42853796,0.5342968,-2.6682873,-5.3103395,-8.571242,1.1779473
0.4325873,4.780809,0.42853796,0.5342968,-2.6682873,-5.3103395,-8.571242,1.1779473
0.4300754,4.7808867,0.37527472,0.56945056,-2.6832008,-5.554548,-8.815451,1.0773908
0.42748362,4.7809687,0.37527472,0.56945056,-2.6832008,-5.554548,-8.815451,1.0773908
0.4250257,4.780955,0.31455466,0.6014085,-2.7130284,-5.7269306,-9.035717,0.90021986
0.42249694,4.780943,0.31455466,0.6014085,-2.7130284,-5.7269306,-9.035717,0.90021986
0.41993222,4.7808375,0.24637774,0.6248443,-2.752443,-5.971139,-9.165004,0.7661445
0.41736737,4.780735,0.24637774,0.6248443,-2.752443,-5.971139,-9.165004,0.7661445
0.41475844,4.7805424,0.175005,0.6376275,-2.8014452,-6.019023,-9.246407,0.60812724
0.41214672,4.7803526,0.175005,0.6376275,-2.8014452,-6.019023,-9.246407,0.60812724
0.4094798,4.780083,0.10150176,0.6429538,-2.856839,-6.1530986,-9.270349,0.5363012
0.4068128,4.7798166,0.10150176,0.6429538,-2.856839,-6.1530986,-9.270349,0.5363012
0.40408182,4.7794757,0.025867987,0.63869274,-2.9175591,-6.1195793,-9.323022,0.51714754
0.4013587,4.7791395,0.025867987,0.63869274,-2.9175591,-6.1195793,-9.323022,0.51714754
0.39855832,4.778738,-0.04763526,0.6269748,-2.9857361,-6.1195793,-9.279925,0.5602432
0.3957576,4.7783413,-0.04763526,0.6269748,-2.9857361,-6.1195793,-9.279925,0.5602432
0.39289182,4.777888,-0.11900798,0.6131264,-3.0549781,-6.0477533,-9.255983,0.6607997
0.39001983,4.7774377,-0.11900798,0.6131264,-3.0549781,-6.0477533,-9.255983,0.6607997
0.38707632,4.776934,-0.18611965,0.6003432,-3.1274161,-5.9663506,-9.174581,0.7422025
0.38413224,4.776434,-0.18611965,0.6003432,-3.1274161,-5.9663506,-9.174581,0.7422025
0.38111037,4.7758913,-0.24683972,0.5907558,-3.2009194,-5.837064,-9.217676,0.90979666
0.37808797,4.7753525,-0.24683972,0.5907558,-3.2009194,-5.837064,-9.217676,0.90979666
0.37498668,4.7747703,-0.30223346,0.58756006,-3.2786837,-5.779603,-9.260772,1.0295067
0.3718819,4.774191,-0.30223346,0.58756006,-3.2786837,-5.779603,-9.260772,1.0295067
0.36867842,4.773557,-0.35869247,0.5918211,-3.3585787,-5.7987566,-9.433155,1.115698
0.3654841,4.772928,-0.35869247,0.5918211,-3.3585787,-5.7987566,-9.433155,1.115698
0.36223087,4.772253,-0.41302097,0.60566956,-3.440604,-5.81791,-9.672575,1.2114661
0.35895756,4.7715774,-0.41302097,0.60566956,-3.440604,-5.81791,-9.672575,1.2114661
0.35557076,4.770829,-0.46947998,0.6312359,-3.525825,-5.932832,-9.950302,1.2114661
0.35226735,4.770104,-0.46947998,0.6312359,-3.525825,-5.932832,-9.950302,1.2114661
0.34873435,4.769265,-0.5291348,0.6663896,-3.6153073,-6.1387334,-10.189722,1.091756
0.34536222,4.7684693,-0.5291348,0.6663896,-3.6153073,-6.1387334,-10.189722,1.091756
0.34184328,4.7675714,-0.59092015,0.7058044,-3.7037244,-6.301539,-10.46745,0.8858546
0.3383479,4.766685,-0.59092015,0.7058044,-3.7037244,-6.301539,-10.46745,0.8858546
0.3347434,4.765687,-0.6569665,0.748415,-3.7900107,-6.4164605,-10.635044,0.4405331
0.33113423,4.764694,-0.6569665,0.748415,-3.7900107,-6.4164605,-10.635044,0.4405331
0.32744467,4.763608,-0.72514343,0.78996027,-3.8805583,-6.5984197,-10.850522,0.095768064
0.32375056,4.7625265,-0.72514343,0.78996027,-3.8805583,-6.5984197,-10.850522,0.095768064
0.31995976,4.76135,-0.79332036,0.82617927,-3.9679098,-6.694188,-10.922348,-0.33997664
0.31634286,4.7602344,-0.79332036,0.82617927,-3.9679098,-6.694188,-10.922348,-0.33997664
0.31246218,4.7589803,-0.8593668,0.85920244,-4.0510006,-6.679823,-10.998962,-0.6703765
0.3083947,4.7576733,-0.8593668,0.85920244,-4.0510006,-6.679823,-10.998962,-0.6703765
0.30443302,4.756354,-0.92008686,0.88902986,-4.125569,-6.5696893,-11.008539,-0.91458505
0.30046698,4.75504,-0.92008686,0.88902986,-4.125569,-6.5696893,-11.008539,-0.91458505
0.29644802,4.7536683,-0.97335005,0.91672677,-4.193746,-6.3446345,-10.984597,-1.1971009
0.29237625,4.752287,-0.97335005,0.91672677,-4.193746,-6.3446345,-10.984597,-1.1971009
0.28828788,4.750874,-1.0148954,0.94548887,-4.257662,-6.019023,-10.79785,-1.2880806
0.28417867,4.749462,-1.0148954,0.94548887,-4.257662,-6.019023,-10.79785,-1.2880806
0.2800008,4.748011,-1.0447228,0.9774468,-4.318382,-5.66947,-10.625467,-1.4221559
0.27579775,4.7465596,-1.0447228,0.9774468,-4.318382,-5.66947,-10.625467,-1.4221559
0.27152964,4.7450833,-1.0607017,1.0136658,-4.375906,-5.2049947,-10.424355,-1.4077905
0.2672954,4.7436275,-1.0607017,1.0136658,-4.375906,-5.2049947,-10.424355,-1.4077905
0.26298857,4.742157,-1.0628322,1.0541458,-4.4312997,-4.7309427,-10.160992,-1.4030021
0.25868183,4.740695,-1.0628322,1.0541458,-4.4312997,-4.7309427,-10.160992,-1.4030021
0.25431234,4.739229,-1.0564407,1.0999522,-4.4845634,-4.3143516,-10.012551,-1.388637
0.24994321,4.737772,-1.0564407,1.0999522,-4.4845634,-4.3143516,-10.012551,-1.388637
0.2455133,4.7363214,-1.0393965,1.1510849,-4.534631,-3.9121256,-9.744401,-1.4077905
0.24108832,4.7348814,-1.0393965,1.1510849,-4.534631,-3.9121256,-9.744401,-1.4077905
0.23661901,4.7334576,-1.0159607,1.207544,-4.581502,-3.5577838,-9.500193,-1.4413095
0.23215023,4.732043,-1.0159607,1.207544,-4.581502,-3.5577838,-9.500193,-1.4413095
0.22759746,4.730637,-0.9861332,1.2703946,-4.6230474,-3.2513258,-9.299079,-1.484405
0.22280471,4.729167,-0.9861332,1.2703946,-4.6230474,-3.2513258,-9.299079,-1.484405
0.21845923,4.727868,-0.9541753,1.3385714,-4.658201,-3.016694,-9.165004,-1.3934253
0.21386719,4.726504,-0.9541753,1.3385714,-4.658201,-3.016694,-9.165004,-1.3934253
0.20929061,4.725178,-0.9211521,1.4067484,-4.6827025,-2.8682537,-8.992621,-1.4652514
0.20469165,4.7238545,-0.9211521,1.4067484,-4.6827025,-2.8682537,-8.992621,-1.4652514
0.20007016,4.7225604,-0.8849331,1.47386,-4.697616,-2.6384103,-8.858546,-1.412579
0.19539848,4.721261,-0.8849331,1.47386,-4.697616,-2.6384103,-8.858546,-1.412579
0.1907665,4.7200046,-0.8508447,1.5399065,-4.6997466,-2.3319526,-8.719683,-1.3742718
0.18604718,4.718734,-0.8508447,1.5399065,-4.6997466,-2.3319526,-8.719683,-1.3742718
0.18133163,4.717491,-0.81782144,1.6091486,-4.6869636,-2.0590134,-8.6574335,-1.292869
0.17681701,4.716311,-0.81782144,1.6091486,-4.6869636,-2.0590134,-8.6574335,-1.292869
0.17218798,4.715128,-0.78479826,1.6794561,-4.6667233,-1.7477672,-8.571242,-1.1779473
0.16756047,4.713954,-0.78479826,1.6794561,-4.6667233,-1.7477672,-8.571242,-1.1779473
0.1629755,4.712808,-0.75497085,1.7529594,-4.6337004,-1.8770541,-8.451532,-0.89543146
0.1583698,4.711667,-0.75497085,1.7529594,-4.6337004,-1.8770541,-8.451532,-0.89543146
0.15387268,4.710576,-0.7294045,1.8285931,-4.5900245,-2.1068976,-8.508993,-0.545878
0.14939056,4.7095,-0.7294045,1.8285931,-4.5900245,-2.1068976,-8.508993,-0.545878
0.14500937,4.708473,-0.70809925,1.8978353,-4.535696,-2.327164,-8.628703,-0.41180268
0.14058815,4.7074475,-0.70809925,1.8978353,-4.535696,-2.327164,-8.628703,-0.41180268
0.13624261,4.706454,-0.691055,1.9542943,-4.468584,-2.3175871,-8.772355,-0.31124622
0.13188307,4.705468,-0.691055,1.9542943,-4.468584,-2.3175871,-8.772355,-0.31124622
0.12761143,4.70451,-0.6772066,2.0001006,-4.394016,-2.2026656,-8.858546,-0.23942018
0.12335129,4.7035656,-0.6772066,2.0001006,-4.394016,-2.2026656,-8.858546,-0.23942018
0.1191238,4.702613,-0.6686844,2.0352545,-4.3162513,-1.9919758,-8.887277,-0.31124622
0.11492922,4.701679,-0.6686844,2.0352545,-4.3162513,-1.9919758,-8.887277,-0.31124622
0.110802084,4.7007484,-0.6665539,2.0640166,-4.2363567,-1.7046716,-8.858546,-0.2777274
0.10669113,4.699833,-0.6665539,2.0640166,-4.2363567,-1.7046716,-8.858546,-0.2777274
0.10259518,4.6988735,-0.6697497,2.0863872,-4.154331,-1.3551182,-8.748413,-0.4213795
0.09851106,4.697929,-0.6697497,2.0863872,-4.154331,-1.3551182,-8.748413,-0.4213795
0.09449231,4.696975,-0.67827183,2.1002355,-4.0765667,-1.1013328,-8.652645,-0.33997664
0.09048481,4.6960363,-0.67827183,2.1002355,-4.0765667,-1.1013328,-8.652645,-0.33997664
0.086475536,4.6950665,-0.691055,2.1076925,-4.0030637,-0.8331822,-8.446744,-0.33518824
0.08249723,4.6941123,-0.691055,2.1076925,-4.0030637,-0.8331822,-8.446744,-0.33518824
0.07848554,4.6931477,-0.70703393,2.1044967,-3.9327562,-0.58418524,-8.221688,-0.35434186
0.074469194,4.6921844,-0.70703393,2.1044967,-3.9327562,-0.58418524,-8.221688,-0.35434186
0.0704314,4.691264,-0.72194767,2.0917134,-3.8709707,-0.30166942,-8.078036,-0.29209262
0.06640981,4.6903534,-0.72194767,2.0917134,-3.8709707,-0.30166942,-8.078036,-0.29209262
0.062402163,4.689492,-0.73686135,2.070408,-3.8145118,0.009576807,-7.824251,-0.15322891
0.058397062,4.6886415,-0.73686135,2.070408,-3.8145118,0.009576807,-7.824251,-0.15322891
0.054451935,4.6878066,-0.74857926,2.0395155,-3.7623138,0.34476504,-7.603985,-0.04309563
0.050505944,4.686981,-0.74857926,2.0395155,-3.7623138,0.34476504,-7.603985,-0.04309563
0.04660963,4.686164,-0.7571014,2.0032966,-3.7165074,0.7182605,-7.445967,0.08619126
0.0427281,4.685359,-0.7571014,2.0032966,-3.7165074,0.7182605,-7.445967,0.08619126
0.038872037,4.6845684,-0.75497085,1.9638817,-3.6738968,1.043872,-7.2592196,0.2681506
0.035019144,4.6837873,-0.75497085,1.9638817,-3.6738968,1.043872,-7.2592196,0.2681506
0.031213814,4.6830287,-0.74644876,1.9212711,-3.6355474,1.2497733,-7.0581064,0.4213795
0.027407885,4.682278,-0.74644876,1.9212711,-3.6355474,1.2497733,-7.0581064,0.4213795
0.023647232,4.6815567,-0.7294045,1.8754648,-3.5950673,1.436521,-6.9383965,0.56982
0.019897379,4.6808443,-0.7294045,1.8754648,-3.5950673,1.436521,-6.9383965,0.56982
0.016184447,4.6801643,-0.70383817,1.8264626,-3.550326,1.6424223,-6.8091097,0.7086837
0.01240789,4.6794806,-0.70383817,1.8264626,-3.550326,1.6424223,-6.8091097,0.7086837
0.01240789,4.6794806,-0.70383817,1.8264626,-3.550326,1.6424223,-6.8091097,0.7086837
0.0050329873,4.6782193,-0.670815,1.7763952,-3.5034547,1.7477672,-6.7708025,0.842759
0.0014361304,4.6776476,-0.6324654,1.7252625,-3.449126,1.7190368,-6.8091097,1.0534488
6.2810535,4.6770873,-0.6324654,1.7252625,-3.449126,1.7190368,-6.8091097,1.0534488
6.2774334,4.6765623,-0.5898549,1.6741297,-3.3862755,1.6136919,-6.8905125,1.2641385
6.2774334,4.6765623,-0.5898549,1.6741297,-3.3862755,1.6136919,-6.8905125,1.2641385
6.2704406,4.6755905,-0.54617906,1.6251276,-3.3149028,1.436521,-7.062895,1.3311762
6.266963,4.67514,-0.54617906,1.6251276,-3.3149028,1.436521,-7.062895,1.3311762
6.266963,4.67514,-0.54617906,1.6251276,-3.3149028,1.436521,-7.062895,1.3311762
6.2603493,4.6743603,-0.505699,1.5750601,-3.2339427,1.283292,-7.2209125,1.3359646
6.2571807,4.6740212,-0.4662842,1.5239275,-3.1412647,1.1540052,-7.417237,1.2018893
6.2539377,4.6736794,-0.4662842,1.5239275,-3.1412647,1.1540052,-7.417237,1.2018893
6.2539377,4.6736794,-0.4662842,1.5239275,-3.1412647,1.1540052,-7.417237,1.2018893
6.2476377,4.6730747,-0.43219572,1.469599,-3.042195,1.0582372,-7.6375036,1.0534488
6.2476377,4.6730747,-0.43219572,1.469599,-3.042195,1.0582372,-7.6375036,1.0534488
6.241559,4.6725426,-0.4034336,1.4120747,-2.9356687,1.043872,-7.85777,0.9624691
6.241559,4.6725426,-0.4034336,1.4120747,-2.9356687,1.043872,-7.85777,0.9624691
6.237941,4.672243,-0.37999776,1.3460283,-2.8238158,1.1923125,-8.034941,0.80445176
6.232736,4.6718273,-0.35869247,1.2789167,-2.710898,1.3551182,-8.0684595,0.6943185
6.229916,4.6716094,-0.35869247,1.2789167,-2.710898,1.3551182,-8.0684595,0.6943185
6.227229,4.671406,-0.3373872,1.2086092,-2.5979798,1.6041151,-8.087613,0.5746084
6.224519,4.671204,-0.3373872,1.2086092,-2.5979798,1.6041151,-8.087613,0.5746084
6.2218633,4.671012,-0.31501663,1.1372365,-2.4882576,1.8052281,-8.001422,0.48841715
6.219232,4.6708245,-0.31501663,1.1372365,-2.4882576,1.8052281,-8.001422,0.48841715
6.216701,4.6706553,-0.28731975,1.0679944,-2.3838615,2.0207062,-7.896077,0.4261679
6.2141786,4.67049,-0.28731975,1.0679944,-2.3838615,2.0207062,-7.896077,0.4261679
6.211734,4.6703434,-0.25536183,1.0008826,-2.2869225,2.231396,-7.747637,0.32561144
6.209289,4.6701994,-0.25536183,1.0008826,-2.2869225,2.231396,-7.747637,0.32561144
6.206913,4.670089,-0.21701232,0.9359015,-2.2006361,2.4229321,-7.5321584,0.35913026
6.2045608,4.6699805,-0.21701232,0.9359015,-2.2006361,2.4229321,-7.5321584,0.35913026
6.202295,4.6699085,-0.1722712,0.8741162,-2.1218066,2.6431987,-7.3406224,0.30645782
6.2000194,4.669838,-0.1722712,0.8741162,-2.1218066,2.6431987,-7.3406224,0.30645782
6.1978073,4.6698103,-0.12326904,0.8165919,-2.0483034,2.7820623,-7.1490865,0.29209262
6.195604,4.6697845,-0.12326904,0.8165919,-2.0483034,2.7820623,-7.1490865,0.29209262
6.1934695,4.6698008,-0.07000581,0.76119816,-1.9854528,2.9975405,-6.933608,0.18195933
6.191297,4.669818,-0.07000581,0.76119816,-1.9854528,2.9975405,-6.933608,0.18195933
6.1892195,4.669888,-0.012481534,0.71113074,-1.9257979,3.1316159,-6.823475,0.16759412
6.1871443,4.669959,-0.012481534,0.71113074,-1.9257979,3.1316159,-6.823475,0.16759412
6.185114,4.670083,0.043977484,0.66745484,-1.8746653,3.2848446,-6.727707,0.18195933
6.1830873,4.670209,0.043977484,0.66745484,-1.8746653,3.2848446,-6.727707,0.18195933
6.181102,4.6703863,0.09830597,0.6291053,-1.8299241,3.3518825,-6.622362,0.20111294
6.179118,4.670565,0.09830597,0.6291053,-1.8299241,3.3518825,-6.622362,0.20111294
6.1771812,4.6707935,0.14943866,0.59608215,-1.785183,3.347094,-6.6415157,0.22026655
6.175194,4.6710296,0.14943866,0.59608215,-1.785183,3.347094,-6.6415157,0.22026655
6.1733246,4.6713,0.19737557,0.56732,-1.7425724,3.3423057,-6.6750345,0.17717093
6.171419,4.6715775,0.19737557,0.56732,-1.7425724,3.3423057,-6.6750345,0.17717093
6.169576,4.671888,0.23785561,0.54175365,-1.7010272,3.347094,-6.7324953,0.1340753
6.1677427,4.6721973,0.23785561,0.54175365,-1.7010272,3.347094,-6.7324953,0.1340753
6.1659303,4.6725416,0.27513987,0.51725256,-1.6594818,3.2561142,-6.7803793,0.019153614
6.164124,4.672885,0.27513987,0.51725256,-1.6594818,3.2561142,-6.7803793,0.019153614
6.1623573,4.6732597,0.30603254,0.49381676,-1.6115448,3.2273839,-6.8282633,0.019153614
6.1605945,4.6736345,0.30603254,0.49381676,-1.6115448,3.2273839,-6.8282633,0.019153614
6.158882,4.6740294,0.33266416,0.46931568,-1.563608,3.2034419,-6.8569937,-0.05267244
6.1571703,4.6744256,0.33266416,0.46931568,-1.563608,3.2034419,-6.8569937,-0.05267244
6.1554894,4.6748424,0.3550347,0.44587985,-1.5124753,3.2752678,-6.9240313,-0.11492168
6.15383,4.675255,0.3550347,0.44587985,-1.5124753,3.2752678,-6.9240313,-0.11492168
6.1522255,4.6756845,0.37527472,0.4213788,-1.4581468,3.289633,-6.9144545,-0.12928689
6.1506166,4.676116,0.37527472,0.4213788,-1.4581468,3.289633,-6.9144545,-0.12928689
6.149066,4.6765556,0.38912317,0.39581242,-1.4016877,3.3087866,-6.8809357,-0.16280572
6.1475096,4.676998,0.38912317,0.39581242,-1.4016877,3.3087866,-6.8809357,-0.16280572
6.146022,4.6774535,0.4029716,0.37024608,-1.3441635,3.3087866,-6.885724,-0.08140286
6.1445265,4.6779118,0.4029716,0.37024608,-1.3441635,3.3087866,-6.885724,-0.08140286
6.1430955,4.6783805,0.41682005,0.34681025,-1.285574,3.2561142,-6.7851677,-0.06703765
6.141663,4.67885,0.41682005,0.34681025,-1.285574,3.2561142,-6.7851677,-0.06703765
6.140299,4.6793365,0.43066847,0.32017866,-1.2216581,3.241749,-6.727707,0.047884032
6.138932,4.679825,0.43066847,0.32017866,-1.2216581,3.241749,-6.727707,0.047884032
6.1376348,4.6803274,0.44132113,0.29354703,-1.1588075,3.2944214,-6.670246,0.20111294
6.136337,4.68083,0.44132113,0.29354703,-1.1588075,3.2944214,-6.670246,0.20111294
6.135105,4.681341,0.4509085,0.26904595,-1.0959569,3.347094,-6.6750345,0.24899697
6.1338725,4.681853,0.4509085,0.26904595,-1.0959569,3.347094,-6.6750345,0.24899697
6.1327014,4.6823716,0.45943063,0.24880594,-1.0341716,3.3375173,-6.5601125,0.2681506
6.1315327,4.68289,0.45943063,0.24880594,-1.0341716,3.3375173,-6.5601125,0.2681506
6.1304183,4.6834145,0.46688747,0.22963117,-0.97451675,3.4045548,-6.5218053,0.25857377
6.12931,4.683936,0.46688747,0.22963117,-0.97451675,3.4045548,-6.5218053,0.25857377
6.1282606,4.6844606,0.47114852,0.21365221,-0.91592723,3.4572272,-6.5457473,0.272939
6.127211,4.6849856,0.47114852,0.21365221,-0.91592723,3.4572272,-6.5457473,0.272939
6.1262207,4.6855125,0.4722138,0.1987385,-0.85733765,3.466804,-6.5696893,0.32561144
6.1252303,4.68604,0.4722138,0.1987385,-0.85733765,3.466804,-6.5696893,0.32561144
6.124298,4.6865673,0.47114852,0.18595533,-0.7998134,3.442862,-6.540959,0.36870706
6.1233673,4.687094,0.47114852,0.18595533,-0.7998134,3.442862,-6.540959,0.36870706
6.122486,4.687615,0.46795273,0.17743322,-0.7476154,3.5242648,-6.5984197,0.33518824
6.1216083,4.6881347,0.46795273,0.17743322,-0.7476154,3.5242648,-6.5984197,0.33518824
6.1207757,4.688644,0.46262643,0.16997637,-0.697548,3.5098996,-6.670246,0.22984336
6.119942,4.6891537,0.46262643,0.16997637,-0.697548,3.5098996,-6.670246,0.22984336
6.1191564,4.6896486,0.4541043,0.16465004,-0.65067637,3.4763808,-6.7085533,0.1436521
6.118367,4.690146,0.4541043,0.16465004,-0.65067637,3.4763808,-6.7085533,0.1436521
6.117625,4.6906285,0.44451693,0.16038899,-0.6038047,3.5003228,-6.7468605,0.08140286
6.1168847,4.69111,0.44451693,0.16038899,-0.6038047,3.5003228,-6.7468605,0.08140286
6.1161795,4.6915884,0.43386427,0.15506266,-0.5569331,3.4763808,-6.7468605,0.076614454
6.1154914,4.6920547,0.43386427,0.15506266,-0.5569331,3.4763808,-6.7468605,0.076614454
6.114845,4.6925077,0.41895056,0.14973634,-0.5111267,3.4620156,-6.799533,0.062249243
6.1141953,4.692962,0.41895056,0.14973634,-0.5111267,3.4620156,-6.799533,0.062249243
6.113593,4.693397,0.4029716,0.14227949,-0.4631898,3.4572272,-6.8282633,0.019153614
6.1129913,4.6938314,0.4029716,0.14227949,-0.4631898,3.4572272,-6.8282633,0.019153614
6.112434,4.694252,0.38592738,0.13695318,-0.41844872,3.4955344,-6.799533,0.062249243
6.111878,4.694671,0.38592738,0.13695318,-0.41844872,3.4955344,-6.799533,0.062249243
6.111368,4.6950746,0.36888313,0.12949632,-0.3737076,3.4332852,-6.8426285,0.10534488
6.110856,4.6954794,0.36888313,0.12949632,-0.3737076,3.4332852,-6.8426285,0.10534488
6.110391,4.69587,0.35183892,0.12417,-0.3289665,3.3997664,-6.871359,0.16759412
6.109927,4.6962595,0.35183892,0.12417,-0.3289665,3.3997664,-6.871359,0.16759412
6.10951,4.69664,0.33372942,0.1209742,-0.28422537,3.3183637,-6.95755,0.2873042
6.109093,4.6970196,0.33372942,0.1209742,-0.28422537,3.3183637,-6.95755,0.2873042
6.108722,4.697379,0.31455466,0.12203947,-0.23841901,3.2752678,-7.005434,0.2633622
6.1083508,4.6977396,0.31455466,0.12203947,-0.23841901,3.2752678,-7.005434,0.2633622
6.108026,4.698082,0.2953799,0.12523526,-0.19261263,3.217807,-7.1347213,0.272939
6.107701,4.6984253,0.2953799,0.12523526,-0.19261263,3.217807,-7.1347213,0.272939
6.10742,4.6987505,0.2740746,0.13375737,-0.1489368,3.2225955,-7.2687964,0.30645782
6.1071396,4.699076,0.2740746,0.13375737,-0.1489368,3.2225955,-7.2687964,0.30645782
6.1068983,4.6993775,0.25276932,0.14654055,-0.106326215,2.9831753,-7.3406224,0.17717093
6.106657,4.6996784,0.25276932,0.14654055,-0.106326215,2.9831753,-7.3406224,0.17717093
6.1064544,4.6999636,0.22933349,0.15932372,-0.06904196,2.695871,-7.4124484,0.18195933
6.1062512,4.7002482,0.22933349,0.15932372,-0.06904196,2.695871,-7.4124484,0.18195933
6.1060815,4.7005,0.20270188,0.1689111,-0.031757705,2.4899697,-7.4363904,0.062249243
6.1059117,4.7007513,0.20270188,0.1689111,-0.031757705,2.4899697,-7.4363904,0.062249243
6.105779,4.7009697,0.17393975,0.17743322,0.00765708,2.4660277,-7.493851,0.009576807
6.1056476,4.701187,0.17393975,0.17743322,0.00765708,2.4660277,-7.493851,0.009576807
6.1055474,4.7013803,0.14304708,0.18489006,0.039615013,2.4372973,-7.589619,0.033518825
6.105445,4.7015786,0.14304708,0.18489006,0.039615013,2.4372973,-7.589619,0.033518825
6.105376,4.7017317,0.11108914,0.19128166,0.06731189,2.4899697,-7.752425,0.02873042
6.1053033,4.701893,0.11108914,0.19128166,0.06731189,2.4899697,-7.752425,0.02873042
6.1052556,4.7020187,0.07913121,0.19660798,0.09181297,2.4899697,-7.8529816,0.009576807
6.105208,4.702145,0.07913121,0.19660798,0.09181297,2.4899697,-7.8529816,0.009576807
6.1051745,4.7022285,0.047173277,0.20299956,0.1088572,2.5139117,-7.97748,-0.08619126
6.1051416,4.7023115,0.047173277,0.20299956,0.1088572,2.5139117,-7.97748,-0.08619126
6.1051207,4.7023664,0.016280606,0.21152169,0.120575115,2.6001031,-8.078036,-0.08140286
6.105099,4.70242,0.016280606,0.21152169,0.120575115,2.6001031,-8.078036,-0.08140286
6.1050825,4.7024517,-0.0114162695,0.2200438,0.12483617,2.5617957,-8.135497,-0.062249243
6.105066,4.702482,-0.0114162695,0.2200438,0.12483617,2.5617957,-8.135497,-0.062249243
6.1050453,4.7024794,-0.04017841,0.22856592,0.12164038,2.4899697,-8.1881695,-0.110133275
6.105025,4.7024765,-0.04017841,0.22856592,0.12164038,2.4899697,-8.1881695,-0.110133275
6.1049976,4.7024555,-0.06361423,0.23708802,0.11524879,2.480393,-8.312668,-0.08140286
6.104971,4.702435,-0.06361423,0.23708802,0.11524879,2.480393,-8.312668,-0.08140286
6.1049337,4.7023816,-0.08598478,0.24454488,0.104596145,2.4133554,-8.327033,-0.15801731
6.104896,4.702328,-0.08598478,0.24454488,0.104596145,2.4133554,-8.327033,-0.15801731
6.104847,4.702262,-0.106224805,0.2498712,0.09287824,2.3894134,-8.413225,-0.11492168
6.1047974,4.702196,-0.106224805,0.2498712,0.09287824,2.3894134,-8.413225,-0.11492168
6.104734,4.702114,-0.122203775,0.25200173,0.0790298,2.3654714,-8.408437,-0.11971009
6.1046705,4.7020316,-0.122203775,0.25200173,0.0790298,2.3654714,-8.408437,-0.11971009
6.1045933,4.701929,-0.13711748,0.253067,0.06518136,2.384625,-8.461109,-0.15322891
6.104516,4.701827,-0.13711748,0.253067,0.06518136,2.384625,-8.461109,-0.15322891
6.104423,4.701722,-0.14777012,0.25200173,0.049202394,2.3463178,-8.418014,-0.10534488
6.10433,4.7016177,-0.14777012,0.25200173,0.049202394,2.3463178,-8.418014,-0.10534488
6.1042233,4.7015147,-0.15629223,0.2498712,0.035353955,2.360683,-8.51857,-0.04309563
6.104117,4.701412,-0.15629223,0.2498712,0.035353955,2.360683,-8.51857,-0.04309563
6.1039996,4.7013097,-0.16161856,0.2498712,0.023636047,2.3654714,-8.48984,-0.01436521
6.103883,4.701207,-0.16161856,0.2498712,0.023636047,2.3654714,-8.48984,-0.01436521
6.103755,4.7011056,-0.16587962,0.2466754,0.010852873,2.3654714,-8.499416,0.019153614
6.1036263,4.7010036,-0.16587962,0.2466754,0.010852873,2.3654714,-8.499416,0.019153614
6.1034865,4.700896,-0.16801015,0.24347961,0.00020022877,2.3894134,-8.480263,0
6.1034865,4.700896,-0.16801015,0.24347961,0.00020022877,2.3894134,-8.480263,0
6.102906,4.700491,-0.16801015,0.23921856,-0.010452416,2.3127987,-8.532935,0.062249243
6.102906,4.700491,-0.16801015,0.23921856,-0.010452416,2.3127987,-8.532935,0.062249243
6.102906,4.700491,-0.16801015,0.23921856,-0.010452416,2.3127987,-8.532935,0.062249243
6.10276,4.7003956,-0.16801015,0.23921856,-0.010452416,2.3127987,-8.532935,0.062249243
6.102601,4.700287,-0.16694488,0.23602276,-0.010452416,2.303222,-8.552089,0.01436521
6.1024594,4.7001905,-0.16694488,0.23602276,-0.010452416,2.303222,-8.552089,0.01436521
6.102321,4.7001038,-0.16587962,0.23389223,-0.0072566224,2.2266076,-8.595184,0.07182605
6.102321,4.7001038,-0.16587962,0.23389223,-0.0072566224,2.2266076,-8.595184,0.07182605
6.102046,4.699928,-0.16587962,0.23282696,-0.0029955646,2.1930888,-8.623915,0.04309563
6.101913,4.6998396,-0.16587962,0.23282696,-0.0029955646,2.1930888,-8.623915,0.04309563
6.10178,4.69975,-0.16481435,0.23282696,0.0012654932,2.1308396,-8.6574335,0.019153614
6.101647,4.6996603,-0.16481435,0.23282696,0.0012654932,2.1308396,-8.6574335,0.019153614
6.101524,4.6995745,-0.16374908,0.23282696,0.009787609,2.1547816,-8.695741,0.038307227
6.1014013,4.6994896,-0.16374908,0.23282696,0.009787609,2.1547816,-8.695741,0.038307227
6.101279,4.699403,-0.16268381,0.23176171,0.01724446,2.1212628,-8.7292595,0.047884032
6.1011763,4.699331,-0.16268381,0.23176171,0.01724446,2.1212628,-8.7292595,0.047884032
6.1010633,4.6992264,-0.16161856,0.23069644,0.027897105,2.1021092,-8.781932,-0.062249243
6.10095,4.6991234,-0.16161856,0.23069644,0.027897105,2.1021092,-8.781932,-0.062249243
6.1008573,4.699041,-0.16055329,0.22856592,0.039615013,2.1308396,-8.781932,0.019153614
6.1007633,4.698958,-0.16055329,0.22856592,0.039615013,2.1308396,-8.781932,0.019153614
6.100673,4.6988544,-0.15948802,0.22537012,0.05026766,2.135628,-8.848969,-0.07182605
6.1005816,4.69875,-0.15948802,0.22537012,0.05026766,2.135628,-8.848969,-0.07182605
6.1005015,4.69865,-0.15842277,0.2200438,0.059855036,2.2170308,-8.848969,-0.047884032
6.1004214,4.69855,-0.15842277,0.2200438,0.059855036,2.2170308,-8.848969,-0.047884032
6.10035,4.6984506,-0.1541617,0.216848,0.06944242,2.1787236,-8.911219,-0.07182605
6.100278,4.6983504,-0.1541617,0.216848,0.06944242,2.1787236,-8.911219,-0.07182605
6.1002173,4.6982665,-0.14990065,0.21258694,0.07689927,2.2026656,-8.829816,-0.009576807
6.1001577,4.6981845,-0.14990065,0.21258694,0.07689927,2.2026656,-8.829816,-0.009576807
6.1001043,4.698106,-0.14350906,0.2083259,0.08329086,2.1404164,-8.844181,-0.033518825
6.10005,4.698027,-0.14350906,0.2083259,0.08329086,2.1404164,-8.844181,-0.033518825
6.1000004,4.697949,-0.13711748,0.20406483,0.089682445,2.2218192,-8.853758,-0.038307227
6.0999513,4.6978717,-0.13711748,0.20406483,0.089682445,2.2218192,-8.853758,-0.038307227
6.0999126,4.6978083,-0.12966062,0.19980377,0.09713929,2.1787236,-8.839393,-0.01436521
6.099874,4.6977453,-0.12966062,0.19980377,0.09713929,2.1787236,-8.839393,-0.01436521
6.099841,4.6976843,-0.121138506,0.19554271,0.10566141,2.1547816,-8.925584,-0.047884032
6.099808,4.697622,-0.121138506,0.19554271,0.10566141,2.1547816,-8.925584,-0.047884032
6.0997896,4.6975746,-0.11261639,0.19234692,0.11737932,2.1308396,-8.949526,-0.033518825
6.099771,4.697527,-0.11261639,0.19234692,0.11737932,2.1308396,-8.949526,-0.033518825
6.0997825,4.6975145,-0.10302901,0.18915112,0.13016249,2.0973208,-8.949526,0.06703765
6.0997944,4.6975017,-0.10302901,0.18915112,0.13016249,2.0973208,-8.949526,0.06703765
6.0998135,4.6974926,-0.092376366,0.18489006,0.14294566,2.0733786,-9.054871,0.019153614
6.0998325,4.697484,-0.092376366,0.18489006,0.14294566,2.0733786,-9.054871,0.019153614
6.099867,4.6974864,-0.08172372,0.18062901,0.1567941,2.0494366,-9.078813,0.01436521
6.099901,4.6974897,-0.08172372,0.18062901,0.1567941,2.0494366,-9.078813,0.01436521
6.099958,4.697506,-0.07320161,0.17743322,0.17383833,2.0350714,-9.107543,0.02873042
6.100014,4.697522,-0.07320161,0.17743322,0.17383833,2.0350714,-9.107543,0.02873042
6.1000943,4.697553,-0.06361423,0.17423743,0.19194783,1.982399,-9.184157,0.019153614
6.100175,4.6975846,-0.06361423,0.17423743,0.19194783,1.982399,-9.184157,0.019153614
6.1002865,4.697634,-0.05402685,0.17104164,0.21112259,1.934515,-9.255983,0.019153614
6.1003966,4.6976833,-0.05402685,0.17104164,0.21112259,1.934515,-9.255983,0.019153614
6.100558,4.6977572,-0.04443947,0.16678058,0.23136261,1.910573,-9.289502,0.10534488
6.1007185,4.697831,-0.04443947,0.16678058,0.23136261,1.910573,-9.289502,0.10534488
6.1009054,4.697916,-0.034852087,0.16145425,0.25160265,1.8722657,-9.332599,0.07182605
6.101092,4.698001,-0.034852087,0.16145425,0.25160265,1.8722657,-9.332599,0.07182605
6.101304,4.6980953,-0.025264706,0.15506266,0.27290794,1.8483237,-9.433155,0.033518825
6.1015153,4.69819,-0.025264706,0.15506266,0.27290794,1.8483237,-9.433155,0.033518825
6.1018014,4.698303,-0.014612063,0.14867108,0.29314795,1.7477672,-9.452309,0.090979666
6.102086,4.6984167,-0.014612063,0.14867108,0.29314795,1.7477672,-9.452309,0.090979666
6.1023765,4.698536,-0.006089947,0.14227949,0.313388,1.7860745,-9.504981,0.08140286
6.1026664,4.698656,-0.006089947,0.14227949,0.313388,1.7860745,-9.504981,0.08140286
6.102987,4.6987867,0.005627962,0.1358879,0.3304322,1.7669208,-9.572019,0.110133275
6.103306,4.698918,0.005627962,0.1358879,0.3304322,1.7669208,-9.572019,0.110133275
6.103658,4.6990595,0.017345872,0.13056158,0.34641117,1.7286136,-9.624691,0.1388637
6.1040096,4.6992016,0.017345872,0.13056158,0.34641117,1.7286136,-9.624691,0.1388637
6.104372,4.699352,0.026933251,0.12630053,0.36025962,1.7429788,-9.677363,0.090979666
6.1047335,4.6995025,0.026933251,0.12630053,0.36025962,1.7429788,-9.677363,0.090979666
6.1051273,4.699663,0.037585896,0.1209742,0.37410805,1.70946,-9.662998,0.04309563
6.1055174,4.699823,0.037585896,0.1209742,0.37410805,1.70946,-9.662998,0.04309563
6.1059623,4.699999,0.049303804,0.116713144,0.38263017,1.6663644,-9.811439,0.095768064
6.1063676,4.70016,0.049303804,0.116713144,0.38263017,1.6663644,-9.811439,0.095768064
6.1068177,4.700328,0.061021715,0.11245208,0.390087,1.5897499,-9.821015,0.090979666
6.107271,4.700498,0.061021715,0.11245208,0.390087,1.5897499,-9.821015,0.090979666
6.107744,4.7006726,0.074870154,0.10712577,0.39541334,1.5227122,-9.873688,0.10534488
6.1082177,4.7008476,0.074870154,0.10712577,0.39541334,1.5227122,-9.873688,0.10534488
6.108702,4.701035,0.08871859,0.10179944,0.39860913,1.4700398,-9.974244,0.14844051
6.1091843,4.7012215,0.08871859,0.10179944,0.39860913,1.4700398,-9.974244,0.14844051
6.1096616,4.7014246,0.10363229,0.09753838,0.3996744,1.508347,-9.998186,0.1388637
6.1101365,4.7016277,0.10363229,0.09753838,0.3996744,1.508347,-9.998186,0.1388637
6.1106052,4.7018523,0.118545994,0.09434259,0.40073967,1.484405,-10.079589,0.24420857
6.1110697,4.702075,0.118545994,0.09434259,0.40073967,1.484405,-10.079589,0.24420857
6.1115723,4.7022905,0.13239443,0.09434259,0.40073967,1.283292,-10.065224,0.18674773
6.112075,4.702506,0.13239443,0.09434259,0.40073967,1.283292,-10.065224,0.18674773
6.1125965,4.702709,0.14411235,0.09540785,0.39754388,1.0582372,-10.127473,0.12449849
6.113119,4.7029123,0.14411235,0.09540785,0.39754388,1.0582372,-10.127473,0.12449849
6.113637,4.7031236,0.15369973,0.09327733,0.3932828,1.0007763,-10.19451,0.1388637
6.11416,4.7033362,0.15369973,0.09327733,0.3932828,1.0007763,-10.19451,0.1388637
6.1146717,4.7035513,0.16222183,0.09327733,0.38689122,0.91458505,-10.228029,0.1436521
6.1151867,4.7037673,0.16222183,0.09327733,0.38689122,0.91458505,-10.228029,0.1436521
6.115691,4.703988,0.16861342,0.0911468,0.37836912,0.90500826,-10.290278,0.1436521
6.1161976,4.7042093,0.16861342,0.0911468,0.37836912,0.90500826,-10.290278,0.1436521
6.1166916,4.7044363,0.17180921,0.0911468,0.3666512,0.9624691,-10.453085,0.15322891
6.1171694,4.7046556,0.17180921,0.0911468,0.3666512,0.9624691,-10.453085,0.15322891
6.117655,4.7048855,0.17820081,0.089016266,0.3549333,0.91937345,-10.5440645,0.1436521
6.1181684,4.705128,0.17820081,0.089016266,0.3549333,0.91937345,-10.5440645,0.1436521
6.1186166,4.7053623,0.1845924,0.087951005,0.33788908,0.8714894,-10.5680065,0.21068975
6.1190777,4.705602,0.1845924,0.087951005,0.33788908,0.8714894,-10.5680065,0.21068975
6.1195197,4.7058496,0.19098398,0.085820474,0.31977957,0.842759,-10.5680065,0.22984336
6.119965,4.7060986,0.19098398,0.085820474,0.31977957,0.842759,-10.5680065,0.22984336
6.120396,4.70634,0.19950609,0.08262468,0.29953954,0.8379706,-10.548853,0.12449849
6.1208277,4.706582,0.19950609,0.08262468,0.29953954,0.8379706,-10.548853,0.12449849
6.1212416,4.7068233,0.20696294,0.07836362,0.27823424,0.8571242,-10.5919485,0.07182605
6.121658,4.7070656,0.20696294,0.07836362,0.27823424,0.8571242,-10.5919485,0.07182605
6.1220436,4.707317,0.21228927,0.0762331,0.25479844,0.8571242,-10.596737,0.11971009
6.122431,4.707569,0.21228927,0.0762331,0.25479844,0.8571242,-10.596737,0.11971009
6.1227927,4.707821,0.21655032,0.07516783,0.22710156,0.7278373,-10.534488,0.110133275
6.123155,4.7080717,0.21655032,0.07516783,0.22710156,0.7278373,-10.534488,0.110133275
6.1234818,4.7083397,0.22081138,0.07516783,0.19727415,0.7086837,-10.548853,0.21068975
6.123808,4.7086062,0.22081138,0.07516783,0.19727415,0.7086837,-10.548853,0.21068975
6.124107,4.708877,0.22507244,0.073037304,0.16851202,0.641646,-10.572795,0.22505496
6.1244054,4.7091475,0.22507244,0.073037304,0.16851202,0.641646,-10.572795,0.22505496
6.1246724,4.709418,0.22720297,0.06877624,0.13655408,0.6895301,-10.55843,0.21068975
6.1249394,4.7096887,0.22720297,0.06877624,0.13655408,0.6895301,-10.55843,0.21068975
6.125173,4.7099595,0.22826824,0.06451519,0.103530884,0.7230489,-10.596737,0.20590134
6.1254077,4.710231,0.22826824,0.06451519,0.103530884,0.7230489,-10.596737,0.20590134
6.1256065,4.710511,0.22933349,0.05918886,0.073703475,0.7469909,-10.572795,0.2825158
6.125805,4.710791,0.22933349,0.05918886,0.073703475,0.7469909,-10.572795,0.2825158
6.125976,4.711068,0.23039876,0.053862542,0.042810805,0.770933,-10.524911,0.23942018
6.126148,4.7113457,0.23039876,0.053862542,0.042810805,0.770933,-10.524911,0.23942018
6.126288,4.7116184,0.23039876,0.047470953,0.011918138,0.79966336,-10.481815,0.22505496
6.126429,4.7118926,0.23039876,0.047470953,0.011918138,0.79966336,-10.481815,0.22505496
6.1265397,4.712168,0.23146403,0.040014103,-0.016844003,0.80924016,-10.448297,0.23942018
6.126651,4.7124434,0.23146403,0.040014103,-0.016844003,0.80924016,-10.448297,0.23942018
6.126729,4.712726,0.2325293,0.033622514,-0.045606144,0.8762778,-10.366894,0.2681506
6.126807,4.713008,0.2325293,0.033622514,-0.045606144,0.8762778,-10.366894,0.2681506
6.1268597,4.713291,0.23146403,0.026165664,-0.06904196,0.89543146,-10.352529,0.2873042
6.126912,4.7135735,0.23146403,0.026165664,-0.06904196,0.89543146,-10.352529,0.2873042
6.1269436,4.7138534,0.22933349,0.018708814,-0.09034725,0.94810385,-10.299856,0.2681506
6.126975,4.7141323,0.22933349,0.018708814,-0.09034725,0.94810385,-10.299856,0.2681506
6.126974,4.7144213,0.22507244,0.013382491,-0.10952201,1.0055647,-10.199299,0.34955344
6.126973,4.7147093,0.22507244,0.013382491,-0.10952201,1.0055647,-10.199299,0.34955344
6.1269536,4.7149954,0.22081138,0.009121433,-0.12550098,1.043872,-10.127473,0.34476504
6.126935,4.7152805,0.22081138,0.009121433,-0.12550098,1.043872,-10.127473,0.34476504
6.126892,4.7155685,0.21548507,0.0048603755,-0.13828415,1.0869676,-10.012551,0.3878607
6.1268497,4.7158556,0.21548507,0.0048603755,-0.13828415,1.0869676,-10.012551,0.3878607
6.1267877,4.716144,0.21015874,0.0027298466,-0.14787152,1.1540052,-9.974244,0.40222588
6.1267266,4.7164316,0.21015874,0.0027298466,-0.14787152,1.1540052,-9.974244,0.40222588
6.1266603,4.7167125,0.20270188,0.0016645822,-0.15213259,1.1540052,-9.974244,0.40701428
6.126595,4.7169924,0.20270188,0.0016645822,-0.15213259,1.1540052,-9.974244,0.40701428
6.1265316,4.7172613,0.1931145,0.003795111,-0.15426312,1.2162545,-9.89763,0.32561144
6.1264687,4.7175293,0.1931145,0.003795111,-0.15426312,1.2162545,-9.89763,0.32561144
6.1264052,4.7177887,0.18352713,0.00592564,-0.15319785,1.2258313,-9.868899,0.32561144
6.1263423,4.71805,0.18352713,0.00592564,-0.15319785,1.2258313,-9.868899,0.32561144
6.126274,4.7183,0.17074396,0.008056169,-0.15532838,1.316811,-9.801862,0.25857377
6.1262064,4.7185493,0.17074396,0.008056169,-0.15532838,1.316811,-9.801862,0.25857377
6.1261344,4.718788,0.15796077,0.011251962,-0.15639365,1.388637,-9.77792,0.20590134
6.126064,4.7190266,0.15796077,0.011251962,-0.15639365,1.388637,-9.77792,0.20590134
6.125988,4.719255,0.1451776,0.014447756,-0.15745892,1.4077905,-9.744401,0.19632454
6.1259136,4.7194834,0.1451776,0.014447756,-0.15745892,1.4077905,-9.744401,0.19632454
6.1258097,4.7197084,0.13026391,0.016578285,-0.15639365,1.4508862,-9.68694,0.21547815
6.125706,4.7199364,0.13026391,0.016578285,-0.15639365,1.4508862,-9.68694,0.21547815
6.125706,4.7199364,0.1153502,0.019774077,-0.15532838,1.4987702,-9.68694,0.17238252
6.12546,4.7203856,0.1153502,0.019774077,-0.15532838,1.4987702,-9.68694,0.17238252
6.1254272,4.720448,0.1153502,0.019774077,-0.15532838,1.4987702,-9.68694,0.17238252
6.1252637,4.720648,0.10150176,0.022969872,-0.15319785,1.5514427,-9.672575,0.16280572
6.125014,4.720957,0.10150176,0.022969872,-0.15319785,1.5514427,-9.672575,0.16280572
6.124812,4.7211814,0.087653324,0.02723093,-0.15106732,1.5705963,-9.68694,0.20111294
6.1245623,4.7213364,0.07273962,0.031491987,-0.1489368,1.6089035,-9.586384,0.12449849
6.1243067,4.721471,0.07273962,0.031491987,-0.1489368,1.6089035,-9.586384,0.12449849
6.1243067,4.721471,0.058891185,0.035753045,-0.14467573,1.6232687,-9.533711,0.15801731
6.1243067,4.721471,0.058891185,0.035753045,-0.14467573,1.6232687,-9.533711,0.15801731
6.123579,4.721844,0.04610801,0.040014103,-0.13934942,1.6567876,-9.519346,0.12928689
6.1233172,4.7219367,0.04610801,0.040014103,-0.13934942,1.6567876,-9.519346,0.12928689
6.1231112,4.7220626,0.033324838,0.046405688,-0.13189256,1.6376339,-9.485827,0.21068975
6.1229043,4.72219,0.033324838,0.046405688,-0.13189256,1.6376339,-9.485827,0.21068975
6.122667,4.722281,0.02160693,0.050666746,-0.12869677,1.6663644,-9.461885,0.16759412
6.1224303,4.722373,0.02160693,0.050666746,-0.12869677,1.6663644,-9.461885,0.16759412
6.1222043,4.7224603,0.00988902,0.05599307,-0.124435715,1.661576,-9.414001,0.18195933
6.121972,4.722551,0.00988902,0.05599307,-0.124435715,1.661576,-9.414001,0.18195933
6.121755,4.7226276,0.00030163955,0.061319392,-0.11697886,1.6807296,-9.351752,0.19632454
6.1215324,4.722707,0.00030163955,0.061319392,-0.11697886,1.6807296,-9.351752,0.19632454
6.121285,4.7227187,-0.0114162695,0.06451519,-0.11165254,1.6807296,-9.399636,0.110133275
6.1210403,4.7227306,-0.0114162695,0.06451519,-0.11165254,1.6807296,-9.399636,0.110133275
6.120808,4.7227607,-0.022068914,0.06877624,-0.107391484,1.661576,-9.337387,0.1388637
6.120574,4.7227917,-0.022068914,0.06877624,-0.107391484,1.661576,-9.337387,0.1388637
6.1203527,4.722826,-0.031656295,0.073037304,-0.10206516,1.6472107,-9.409213,0.1436521
6.120135,4.722861,-0.031656295,0.073037304,-0.10206516,1.6472107,-9.409213,0.1436521
6.1199293,4.7228904,-0.041243672,0.07729836,-0.093543045,1.6328455,-9.370906,0.1436521
6.119724,4.7229214,-0.041243672,0.07729836,-0.093543045,1.6328455,-9.370906,0.1436521
6.119513,4.722928,-0.04763526,0.08049415,-0.08395566,1.6376339,-9.337387,0.12928689
6.119299,4.7229366,-0.04763526,0.08049415,-0.08395566,1.6376339,-9.337387,0.12928689
6.1191225,4.722961,-0.05509211,0.08155942,-0.076498814,1.6663644,-9.404425,0.16759412
6.118943,4.722986,-0.05509211,0.08155942,-0.076498814,1.6663644,-9.404425,0.16759412
6.1187873,4.7230186,-0.060418434,0.08155942,-0.06904196,1.6328455,-9.390059,0.16759412
6.1186347,4.723051,-0.060418434,0.08155942,-0.06904196,1.6328455,-9.390059,0.16759412
6.118551,4.7230988,-0.06467949,0.08049415,-0.06158511,1.5801731,-9.346964,0.21547815
6.118468,4.723146,-0.06467949,0.08049415,-0.06158511,1.5801731,-9.346964,0.21547815
6.118404,4.7231927,-0.06574476,0.07729836,-0.05519352,1.5753847,-9.346964,0.320823
6.1183405,4.72324,-0.06574476,0.07729836,-0.05519352,1.5753847,-9.346964,0.320823
6.118259,4.7232814,-0.06787529,0.0762331,-0.048801936,1.6184803,-9.356541,0.272939
6.1181774,4.7233233,-0.06787529,0.0762331,-0.048801936,1.6184803,-9.356541,0.272939
6.1181498,4.723365,-0.07000581,0.074102566,-0.04454088,1.5275006,-9.380483,0.31124622
6.1181226,4.7234063,-0.07000581,0.074102566,-0.04454088,1.5275006,-9.380483,0.31124622
6.1181097,4.7234473,-0.06894055,0.069841504,-0.039214555,1.5035586,-9.313444,0.2825158
6.118097,4.7234883,-0.06894055,0.069841504,-0.039214555,1.5035586,-9.313444,0.2825158
6.1180987,4.7235284,-0.06787529,0.06664571,-0.033888236,1.4939818,-9.3421755,0.272939
6.1181006,4.723568,-0.06787529,0.06664571,-0.033888236,1.4939818,-9.3421755,0.272939
6.1180935,4.72361,-0.06467949,0.061319392,-0.029627176,1.508347,-9.356541,0.33039984
6.118086,4.723656,-0.06467949,0.061319392,-0.029627176,1.508347,-9.356541,0.33039984
6.118082,4.723701,-0.062548965,0.053862542,-0.028561912,1.5131354,-9.3182335,0.2633622
6.118078,4.723746,-0.062548965,0.053862542,-0.028561912,1.5131354,-9.3182335,0.2633622
6.118058,4.723794,-0.05935317,0.046405688,-0.029627176,1.532289,-9.294291,0.29209262
6.1180377,4.723842,-0.05935317,0.046405688,-0.029627176,1.532289,-9.294291,0.29209262
6.118014,4.7238946,-0.05402685,0.038948838,-0.028561912,1.5370775,-9.26556,0.29209262
6.1179895,4.723947,-0.05402685,0.038948838,-0.028561912,1.5370775,-9.26556,0.29209262
6.117964,4.724005,-0.046569996,0.030426722,-0.029627176,1.5370775,-9.255983,0.29688102
6.117937,4.724066,-0.046569996,0.030426722,-0.029627176,1.5370775,-9.255983,0.29688102
6.1178775,4.724125,-0.04017841,0.020839343,-0.031757705,1.5705963,-9.155427,0.24420857
6.1178155,4.724187,-0.04017841,0.020839343,-0.031757705,1.5705963,-9.155427,0.24420857
6.117753,4.7242546,-0.032721557,0.011251962,-0.034953497,1.5562311,-9.165004,0.20111294
6.117692,4.7243214,-0.032721557,0.011251962,-0.034953497,1.5562311,-9.165004,0.20111294
6.1176157,4.7243934,-0.02313418,0.0027298466,-0.036018763,1.5801731,-9.083601,0.24899697
6.117539,4.7244663,-0.02313418,0.0027298466,-0.036018763,1.5801731,-9.083601,0.24899697
6.117462,4.7245474,-0.013546798,-0.0068575335,-0.036018763,1.5610195,-9.059659,0.21547815
6.117385,4.7246294,-0.013546798,-0.0068575335,-0.036018763,1.5610195,-9.059659,0.21547815
6.117309,4.7247195,-0.0028941538,-0.016444914,-0.036018763,1.5275006,-9.016563,0.15322891
6.117233,4.7248106,-0.0028941538,-0.016444914,-0.036018763,1.5275006,-9.016563,0.15322891
6.1171603,4.72491,0.0077584907,-0.02496703,-0.036018763,1.5514427,-8.983045,0.22984336
6.117087,4.725011,0.0077584907,-0.02496703,-0.036018763,1.5514427,-8.983045,0.22984336
6.117004,4.7251167,0.017345872,-0.03242388,-0.036018763,1.5466543,-8.959103,0.20111294
6.1169214,4.7252235,0.017345872,-0.03242388,-0.036018763,1.5466543,-8.959103,0.20111294
6.116952,4.725334,0.027998514,-0.03881547,-0.03282297,1.4939818,-8.963891,0.12928689
6.1169844,4.725444,0.027998514,-0.03881547,-0.03282297,1.4939818,-8.963891,0.12928689
6.1170373,4.72539,0.03545537,-0.043076526,-0.026431382,1.4891934,-8.944737,0.10534488
6.11709,4.725335,0.03545537,-0.043076526,-0.026431382,1.4891934,-8.944737,0.10534488
6.116996,4.725283,0.041846953,-0.04627232,-0.022170324,1.5370775,-8.8777,0.05746084
6.1169024,4.72523,0.041846953,-0.04627232,-0.022170324,1.5370775,-8.8777,0.05746084
6.1167846,4.7251987,0.04823854,-0.050533377,-0.018974531,1.5275006,-8.868123,0.08619126
6.1166677,4.7251663,0.04823854,-0.050533377,-0.018974531,1.5275006,-8.868123,0.08619126
6.116557,4.7251368,0.05356486,-0.05372917,-0.014713474,1.5610195,-8.848969,0.05746084
6.116447,4.725107,0.05356486,-0.05372917,-0.014713474,1.5610195,-8.848969,0.05746084
6.116433,4.725053,0.055695392,-0.057990227,-0.0072566224,1.4939818,-8.839393,0.0047884034
6.1164193,4.7249985,0.055695392,-0.057990227,-0.0072566224,1.4939818,-8.839393,0.0047884034
6.1163883,4.7249455,0.055695392,-0.060120758,0.00020022877,1.508347,-8.796297,0.023942016
6.1163573,4.724893,0.055695392,-0.060120758,0.00020022877,1.508347,-8.796297,0.023942016
6.116311,4.7248464,0.056760654,-0.06118602,0.00765708,1.532289,-8.767567,0.01436521
6.116265,4.7247996,0.056760654,-0.06118602,0.00765708,1.532289,-8.767567,0.01436521
6.11626,4.724744,0.054630127,-0.060120758,0.014048667,1.4987702,-8.734048,-0.038307227
6.1162553,4.7246885,0.054630127,-0.060120758,0.014048667,1.4987702,-8.734048,-0.038307227
6.1162753,4.7246304,0.0524996,-0.057990227,0.021505518,1.4748282,-8.748413,-0.009576807
6.1162953,4.724572,0.0524996,-0.057990227,0.021505518,1.4748282,-8.748413,-0.009576807
6.1163692,4.724515,0.04823854,-0.054794434,0.02896237,1.4460979,-8.738836,0.05267244
6.1164412,4.724459,0.04823854,-0.054794434,0.02896237,1.4460979,-8.738836,0.05267244
6.1165366,4.724402,0.04291222,-0.051598642,0.037484486,1.3694834,-8.762778,-0.05267244
6.1166325,4.7243447,0.04291222,-0.051598642,0.037484486,1.3694834,-8.762778,-0.05267244
6.1167364,4.7242813,0.03652063,-0.04627232,0.04387607,1.3503298,-8.78672,-0.08140286
6.1168394,4.7242193,0.03652063,-0.04627232,0.04387607,1.3503298,-8.78672,-0.08140286
6.1169567,4.724154,0.030129045,-0.04201126,0.04813713,1.3215994,-8.820239,-0.090979666
6.1170735,4.7240887,0.030129045,-0.04201126,0.04813713,1.3215994,-8.820239,-0.090979666
6.1171975,4.7240186,0.023737457,-0.035619672,0.05346345,1.3311762,-8.825027,-0.076614454
6.1173205,4.7239485,0.023737457,-0.035619672,0.05346345,1.3311762,-8.825027,-0.076614454
6.117483,4.723894,0.017345872,-0.031358615,0.05772451,1.2785037,-8.8777,-0.023942016
6.117646,4.7238398,0.017345872,-0.031358615,0.05772451,1.2785037,-8.8777,-0.023942016
6.1177945,4.7237644,0.008823755,-0.026032293,0.0609203,1.2641385,-8.930372,-0.10055647
6.1179414,4.723689,0.008823755,-0.026032293,0.0609203,1.2641385,-8.930372,-0.10055647
6.1180944,4.7236104,0.0024321685,-0.0228365,0.061985567,1.2737153,-8.968679,-0.08140286
6.118247,4.7235317,0.0024321685,-0.0228365,0.061985567,1.2737153,-8.968679,-0.08140286
6.1184063,4.723452,-0.0039594183,-0.019640706,0.0609203,1.2210429,-8.939949,-0.090979666
6.118567,4.7233715,-0.0039594183,-0.019640706,0.0609203,1.2210429,-8.939949,-0.090979666
6.118707,4.723278,-0.009285741,-0.017510178,0.058789775,1.2449849,-8.978256,-0.1388637
6.118849,4.7231836,-0.009285741,-0.017510178,0.058789775,1.2449849,-8.978256,-0.1388637
6.118981,4.7230825,-0.012481534,-0.016444914,0.056659244,1.2497733,-8.968679,-0.16280572
6.1191134,4.7229815,-0.012481534,-0.016444914,0.056659244,1.2497733,-8.968679,-0.16280572
6.119258,4.7228866,-0.014612063,-0.015379649,0.055593982,1.2401965,-8.983045,-0.11492168
6.119403,4.7227907,-0.014612063,-0.015379649,0.055593982,1.2401965,-8.983045,-0.11492168
6.119545,4.7226925,-0.015677327,-0.015379649,0.055593982,1.2354081,-8.983045,-0.12928689
6.1196876,4.7225943,-0.015677327,-0.015379649,0.055593982,1.2354081,-8.983045,-0.12928689
6.1198406,4.7225018,-0.017807856,-0.015379649,0.054528717,1.1731589,-8.987833,-0.12928689
6.119994,4.7224083,-0.017807856,-0.015379649,0.054528717,1.1731589,-8.987833,-0.12928689
6.1201577,4.722316,-0.015677327,-0.015379649,0.054528717,1.2545617,-9.011775,-0.062249243
6.120315,4.7222276,-0.015677327,-0.015379649,0.054528717,1.2545617,-9.011775,-0.062249243
6.1204476,4.7221336,-0.012481534,-0.016444914,0.054528717,1.2449849,-9.021352,-0.1388637
6.1205826,4.7220383,-0.012481534,-0.016444914,0.054528717,1.2449849,-9.021352,-0.1388637
6.120731,4.7219496,-0.009285741,-0.015379649,0.05772451,1.2162545,-9.050082,-0.1340753
6.120879,4.721861,-0.009285741,-0.015379649,0.05772451,1.2162545,-9.050082,-0.1340753
6.121023,4.7217736,-0.0028941538,-0.014314385,0.0609203,1.2737153,-9.064447,-0.11492168
6.121167,4.7216864,-0.0028941538,-0.014314385,0.0609203,1.2737153,-9.064447,-0.11492168
6.1213293,4.72161,0.001366904,-0.014314385,0.06837715,1.2258313,-9.011775,-0.110133275
6.1214924,4.721533,0.001366904,-0.014314385,0.06837715,1.2258313,-9.011775,-0.110133275
6.121668,4.721466,0.005627962,-0.011118591,0.07476874,1.1875241,-9.074024,-0.11492168
6.121843,4.7213993,0.005627962,-0.011118591,0.07476874,1.1875241,-9.074024,-0.11492168
6.122048,4.7213593,0.012019549,-0.0068575335,0.08329086,1.1492168,-9.083601,-0.05267244
6.1222525,4.7213187,0.012019549,-0.0068575335,0.08329086,1.1492168,-9.083601,-0.05267244
6.1224656,4.721281,0.018411135,-0.0047270046,0.09500877,1.1348516,-9.121908,-0.076614454
6.1226783,4.721243,0.018411135,-0.0047270046,0.09500877,1.1348516,-9.121908,-0.076614454
6.1229177,4.7212286,0.023737457,-0.00046594674,0.1088572,1.1109096,-9.165004,-0.023942016
6.1231585,4.7212143,0.023737457,-0.00046594674,0.1088572,1.1109096,-9.165004,-0.023942016
6.1234136,4.721206,0.026933251,0.0027298466,0.12270564,1.0821792,-9.227253,-0.023942016
6.1236672,4.7211986,0.026933251,0.0027298466,0.12270564,1.0821792,-9.227253,-0.023942016
6.1239395,4.721203,0.031194309,0.00592564,0.13655408,1.0342951,-9.303867,-0.009576807
6.1242113,4.721207,0.031194309,0.00592564,0.13655408,1.0342951,-9.303867,-0.009576807
6.1244946,4.7212033,0.033324838,0.009121433,0.15359831,1.0199299,-9.299079,-0.05267244
6.124778,4.7212,0.033324838,0.009121433,0.15359831,1.0199299,-9.299079,-0.05267244
6.125084,4.7212067,0.03545537,0.011251962,0.17170781,1.0055647,-9.346964,-0.023942016
6.12539,4.7212133,0.03545537,0.011251962,0.17170781,1.0055647,-9.346964,-0.023942016
6.1257133,4.7212243,0.037585896,0.011251962,0.18449098,0.94810385,-9.409213,-0.02873042
6.12603,4.721235,0.037585896,0.011251962,0.18449098,0.94810385,-9.409213,-0.02873042
6.1263514,4.7212515,0.039716423,0.011251962,0.19833942,0.89064306,-9.428367,-0.019153614
6.126702,4.7212696,0.039716423,0.011251962,0.19833942,0.89064306,-9.428367,-0.019153614
6.1270533,4.7213,0.041846953,0.012317227,0.21218786,0.90021986,-9.461885,0.02873042
6.1270533,4.7213,0.041846953,0.012317227,0.21218786,0.90021986,-9.461885,0.02873042
6.127453,4.721334,0.041846953,0.012317227,0.21218786,0.90021986,-9.461885,0.02873042
6.127453,4.721334,0.04291222,0.010186698,0.22177523,0.90500826,-9.528923,0.033518825
6.128507,4.7214384,0.045042746,0.008056169,0.23349315,0.89064306,-9.552865,0.090979666
6.128882,4.7214856,0.045042746,0.008056169,0.23349315,0.89064306,-9.552865,0.090979666
6.129283,4.7215433,0.047173277,0.003795111,0.24521105,0.8714894,-9.557653,0.11971009
6.129283,4.7215433,0.047173277,0.003795111,0.24521105,0.8714894,-9.557653,0.11971009
6.1296763,4.721599,0.047173277,0.003795111,0.24521105,0.8714894,-9.557653,0.11971009
6.1301575,4.7216825,0.04823854,0.0005993177,0.25373316,0.8762778,-9.5385,0.17238252
6.1308236,4.7218018,0.05036907,-0.0047270046,0.26332054,0.8762778,-9.615114,0.19632454
6.1312165,4.721874,0.05036907,-0.0047270046,0.26332054,0.8762778,-9.615114,0.19632454
6.1316214,4.7219505,0.054630127,-0.008988062,0.27290794,0.8714894,-9.615114,0.19632454
6.1316214,4.7219505,0.054630127,-0.008988062,0.27290794,0.8714894,-9.615114,0.19632454
6.13244,4.7221084,0.05995645,-0.01324912,0.27823424,0.81402856,-9.615114,0.21068975
6.132853,4.722191,0.05995645,-0.01324912,0.27823424,0.81402856,-9.615114,0.21068975
6.133277,4.7222614,0.06528277,-0.018575443,0.28462583,0.8858546,-9.643845,0.12928689
6.1337004,4.722332,0.06528277,-0.018575443,0.28462583,0.8858546,-9.643845,0.12928689
6.134125,4.7224274,0.06954383,-0.0228365,0.2920827,0.90979666,-9.667787,0.21547815
6.134552,4.722523,0.06954383,-0.0228365,0.2920827,0.90979666,-9.667787,0.21547815
6.134985,4.7226143,0.07273962,-0.028162822,0.29847428,0.8619126,-9.710882,0.19632454
6.135419,4.722705,0.07273962,-0.028162822,0.29847428,0.8619126,-9.710882,0.19632454
6.1358604,4.7228,0.07700068,-0.033489145,0.3069964,0.8571242,-9.753978,0.20111294
6.136302,4.722894,0.07700068,-0.033489145,0.3069964,0.8571242,-9.753978,0.20111294
6.1367517,4.72299,0.08019647,-0.037750203,0.31445324,0.78050977,-9.816227,0.20590134
6.137202,4.7230854,0.08019647,-0.037750203,0.31445324,0.78050977,-9.816227,0.20590134
6.137661,4.723185,0.08126174,-0.04201126,0.32510588,0.7469909,-9.854534,0.23463176
6.13812,4.7232847,0.08126174,-0.04201126,0.32510588,0.7469909,-9.854534,0.23463176
6.138592,4.7233753,0.082327,-0.047337584,0.33469325,0.78529817,-9.950302,0.18195933
6.139064,4.7234654,0.082327,-0.047337584,0.33469325,0.78529817,-9.950302,0.18195933
6.1395407,4.723568,0.082327,-0.050533377,0.34428066,0.7374141,-9.9550905,0.25378537
6.140017,4.7236695,0.082327,-0.050533377,0.34428066,0.7374141,-9.9550905,0.25378537
6.1405067,4.72376,0.07913121,-0.05372917,0.35386804,0.7422025,-10.0748005,0.21547815
6.1409965,4.723851,0.07913121,-0.05372917,0.35386804,0.7422025,-10.0748005,0.21547815
6.1414995,4.7239237,0.074870154,-0.05692496,0.36452067,0.7565677,-10.117896,0.14844051
6.1420026,4.7239966,0.074870154,-0.05692496,0.36452067,0.7565677,-10.117896,0.14844051
6.1425157,4.724066,0.07167436,-0.05692496,0.37410805,0.770933,-10.223241,0.14844051
6.1430283,4.724135,0.07167436,-0.05692496,0.37410805,0.770933,-10.223241,0.14844051
6.1435504,4.7241898,0.0674133,-0.0558597,0.38263017,0.78050977,-10.271125,0.10055647
6.144072,4.724244,0.0674133,-0.0558597,0.38263017,0.78050977,-10.271125,0.10055647
6.1446,4.7242765,0.062086977,-0.05692496,0.3911523,0.81881696,-10.280702,0.02873042
6.145128,4.7243085,0.062086977,-0.05692496,0.3911523,0.81881696,-10.280702,0.02873042
6.1456637,4.7243414,0.055695392,-0.0558597,0.39754388,0.93852705,-10.338163,0.07182605
6.146199,4.724374,0.055695392,-0.0558597,0.39754388,0.93852705,-10.338163,0.07182605
6.146737,4.7243853,0.047173277,-0.052663904,0.40287018,0.58897364,-10.338163,-0.04309563
6.147275,4.7243967,0.047173277,-0.052663904,0.40287018,0.58897364,-10.338163,-0.04309563
6.147818,4.7244344,0.03652063,-0.052663904,0.40500072,0.9624691,-10.582372,0.15801731
6.1483617,4.724472,0.03652063,-0.052663904,0.40500072,0.9624691,-10.582372,0.15801731
6.148884,4.724545,0.02906378,-0.051598642,0.40393546,1.0151415,-10.922348,0.33039984
6.1494055,4.724618,0.02906378,-0.051598642,0.40393546,1.0151415,-10.922348,0.33039984
6.149944,4.7246523,0.026933251,-0.043076526,0.40073967,0.8810662,-10.884041,0.19153613
6.150482,4.724687,0.026933251,-0.043076526,0.40073967,0.8810662,-10.884041,0.19153613
6.1510196,4.7246885,0.02906378,-0.033489145,0.40073967,0.521936,-10.697293,-0.01436521
6.1515574,4.72469,0.02906378,-0.033489145,0.40073967,0.521936,-10.697293,-0.01436521
6.152093,4.7246847,0.02906378,-0.028162822,0.40073967,0.19632454,-10.5680065,-0.12928689
6.1526284,4.72468,0.02906378,-0.028162822,0.40073967,0.19632454,-10.5680065,-0.12928689
6.1531663,4.724676,0.024802722,-0.031358615,0.40073967,0.2825158,-10.6158905,-0.05746084
6.1537027,4.724673,0.024802722,-0.031358615,0.40073967,0.2825158,-10.6158905,-0.05746084
6.1542377,4.7246747,0.015215342,-0.036684938,0.39541334,0.49799395,-10.812215,0.08140286
6.1547728,4.724676,0.015215342,-0.036684938,0.39541334,0.49799395,-10.812215,0.08140286
6.155298,4.724662,0.0045626974,-0.03988073,0.38689122,0.6847417,-10.960655,0.06703765
6.155826,4.7246475,0.0045626974,-0.03988073,0.38689122,0.6847417,-10.960655,0.06703765
6.1563354,4.724607,-0.0028941538,-0.03988073,0.3730428,0.79008657,-10.989386,-0.009576807
6.1568365,4.7245674,-0.0028941538,-0.03988073,0.3730428,0.79008657,-10.989386,-0.009576807
6.15732,4.7245183,-0.006089947,-0.035619672,0.35280275,0.79487497,-10.898406,-0.033518825
6.157805,4.724469,-0.006089947,-0.035619672,0.35280275,0.79487497,-10.898406,-0.033518825
6.158259,4.724405,-0.0114162695,-0.030293351,0.32936695,0.7613561,-10.759542,-0.10055647
6.1587105,4.7243404,-0.0114162695,-0.030293351,0.32936695,0.7613561,-10.759542,-0.10055647
6.159139,4.724268,-0.018873122,-0.02496703,0.3069964,0.6847417,-10.70687,-0.1340753
6.159571,4.724195,-0.018873122,-0.02496703,0.3069964,0.6847417,-10.70687,-0.1340753
6.1599774,4.724109,-0.029525764,-0.021771235,0.28356057,0.5602432,-10.625467,-0.20111294
6.160405,4.7240186,-0.029525764,-0.021771235,0.28356057,0.5602432,-10.625467,-0.20111294
6.1607633,4.723916,-0.041243672,-0.020705972,0.2590595,0.80924016,-10.635044,-0.15322891
6.161123,4.723812,-0.041243672,-0.020705972,0.2590595,0.80924016,-10.635044,-0.15322891
6.161459,4.7236886,-0.052961584,-0.018575443,0.23349315,0.91458505,-10.692505,-0.1340753
6.1617975,4.7235646,-0.052961584,-0.018575443,0.23349315,0.91458505,-10.692505,-0.1340753
6.1620874,4.7234187,-0.06361423,-0.015379649,0.21005733,1.0342951,-10.673351,-0.1388637
6.1623807,4.7232714,-0.06361423,-0.015379649,0.21005733,1.0342951,-10.673351,-0.1388637
6.162674,4.723131,-0.07213634,-0.011118591,0.18768677,1.0055647,-10.658986,-0.062249243
6.162967,4.722991,-0.07213634,-0.011118591,0.18768677,1.0055647,-10.658986,-0.062249243
6.163246,4.7228546,-0.07852793,-0.0068575335,0.16318569,0.9576807,-10.606314,-0.04309563
6.1635256,4.7227187,-0.07852793,-0.0068575335,0.16318569,0.9576807,-10.606314,-0.04309563
6.163804,4.722583,-0.07852793,-0.0068575335,0.16318569,0.9576807,-10.606314,-0.04309563
6.164062,4.7224426,-0.08385425,-0.005792269,0.14081514,0.94810385,-10.6158905,-0.04309563
6.16432,4.722303,-0.08385425,-0.005792269,0.14081514,0.94810385,-10.6158905,-0.04309563
6.16457,4.7221737,-0.08811531,-0.0068575335,0.120575115,0.9528923,-10.606314,0.009576807
6.1648207,4.7220445,-0.08811531,-0.0068575335,0.120575115,0.9528923,-10.606314,0.009576807
6.165065,4.721965,-0.09024584,-0.0068575335,0.106726676,0.94331545,-10.6637745,0.12928689
6.1653104,4.7218857,-0.09024584,-0.0068575335,0.106726676,0.94331545,-10.6637745,0.12928689
6.1655416,4.721815,-0.08811531,-0.005792269,0.0939435,0.9816227,-10.682928,0.1388637
6.1657724,4.721745,-0.08811531,-0.005792269,0.0939435,0.9816227,-10.682928,0.1388637
6.1659927,4.7216854,-0.08172372,-0.005792269,0.08435612,0.9624691,-10.644621,0.14844051
6.166213,4.7216263,-0.08172372,-0.005792269,0.08435612,0.9624691,-10.644621,0.14844051
6.166427,4.7215776,-0.07426687,-0.0068575335,0.08009506,0.89064306,-10.611102,0.16759412
6.1666417,4.7215295,-0.07426687,-0.0068575335,0.08009506,0.89064306,-10.611102,0.16759412
6.166856,4.7214627,-0.06574476,-0.008988062,0.07476874,0.8810662,-10.491392,0.095768064
6.1670713,4.721396,-0.06574476,-0.008988062,0.07476874,0.8810662,-10.491392,0.095768064
6.1672807,4.7213497,-0.05935317,-0.011118591,0.071572945,0.8714894,-10.400413,0.12928689
6.1674905,4.721304,-0.05935317,-0.011118591,0.071572945,0.8714894,-10.400413,0.12928689
6.167699,4.721244,-0.050831053,-0.014314385,0.06944242,0.91937345,-10.309433,0.076614454
6.167914,4.7211823,-0.050831053,-0.014314385,0.06944242,0.91937345,-10.309433,0.076614454
6.1680937,4.721086,-0.043374203,-0.017510178,0.06837715,1.0199299,-10.251971,0.01436521
6.1682816,4.7209854,-0.043374203,-0.017510178,0.06837715,1.0199299,-10.251971,0.01436521
6.168352,4.7208433,-0.04017841,-0.020705972,0.06837715,1.1683705,-10.146626,-0.01436521
6.168422,4.720701,-0.04017841,-0.020705972,0.06837715,1.1683705,-10.146626,-0.01436521
6.1684256,4.7205706,-0.03804788,-0.020705972,0.0641161,1.2545617,-10.079589,-0.05267244
6.1684284,4.7204404,-0.03804788,-0.020705972,0.0641161,1.2545617,-10.079589,-0.05267244
6.1683855,4.72033,-0.03698262,-0.019640706,0.056659244,1.3551182,-9.950302,-0.06703765
6.1683426,4.72022,-0.03698262,-0.019640706,0.056659244,1.3551182,-9.950302,-0.06703765
6.1682625,4.7201414,-0.03698262,-0.019640706,0.049202394,1.3934253,-9.835381,0
6.168182,4.720063,-0.03698262,-0.019640706,0.049202394,1.3934253,-9.835381,0
6.1681223,4.7199516,-0.03804788,-0.017510178,0.039615013,1.4269443,-9.701305,-0.1436521
6.1680627,4.7198405,-0.03804788,-0.017510178,0.039615013,1.4269443,-9.701305,-0.1436521
6.1679807,4.719736,-0.04017841,-0.015379649,0.02896237,1.4748282,-9.619903,-0.12928689
6.1678987,4.719632,-0.04017841,-0.015379649,0.02896237,1.4748282,-9.619903,-0.12928689
6.167812,4.719521,-0.042308938,-0.012183856,0.019374989,1.4891934,-9.586384,-0.16759412
6.167726,4.719411,-0.042308938,-0.012183856,0.019374989,1.4891934,-9.586384,-0.16759412
6.167606,4.719327,-0.04443947,-0.007922798,0.009787609,1.5275006,-9.524135,-0.05746084
6.1674857,4.719243,-0.04443947,-0.007922798,0.009787609,1.5275006,-9.524135,-0.05746084
6.167371,4.719136,-0.046569996,-0.00366174,-0.0008650357,1.5753847,-9.461885,-0.18195933
6.1672564,4.7190294,-0.046569996,-0.00366174,-0.0008650357,1.5753847,-9.461885,-0.18195933
6.1671195,4.718936,-0.050831053,0.0005993177,-0.009387151,1.5849615,-9.423578,-0.10055647
6.1669827,4.718842,-0.050831053,0.0005993177,-0.009387151,1.5849615,-9.423578,-0.10055647
6.166839,4.7187476,-0.05402685,0.00592564,-0.014713474,1.6472107,-9.437943,-0.110133275
6.1666956,4.718653,-0.05402685,0.00592564,-0.014713474,1.6472107,-9.437943,-0.110133275
6.1665483,4.7185583,-0.057222642,0.011251962,-0.017909266,1.6089035,-9.423578,-0.090979666
6.1663995,4.718463,-0.057222642,0.011251962,-0.017909266,1.6089035,-9.423578,-0.090979666
6.1662493,4.718364,-0.05935317,0.01551302,-0.02323559,1.5849615,-9.414001,-0.10055647
6.1660986,4.7182636,-0.05935317,0.01551302,-0.02323559,1.5849615,-9.414001,-0.10055647
6.165948,4.718158,-0.05935317,0.018708814,-0.027496647,1.5849615,-9.3661175,-0.1340753
6.165797,4.718052,-0.05935317,0.018708814,-0.027496647,1.5849615,-9.3661175,-0.1340753
6.1656394,4.717955,-0.0614837,0.022969872,-0.027496647,1.5945383,-9.308656,-0.090979666
6.1654816,4.7178583,-0.0614837,0.022969872,-0.027496647,1.5945383,-9.308656,-0.090979666
6.1653256,4.7177653,-0.06361423,0.028296193,-0.02323559,1.5705963,-9.303867,-0.062249243
6.1651692,4.7176733,-0.06361423,0.028296193,-0.02323559,1.5705963,-9.303867,-0.062249243
6.1650167,4.717578,-0.06574476,0.033622514,-0.020039797,1.5897499,-9.313444,-0.07182605
6.164863,4.7174816,-0.06574476,0.033622514,-0.020039797,1.5897499,-9.313444,-0.07182605
6.164711,4.7173996,-0.06681002,0.037883572,-0.015778739,1.6184803,-9.275137,-0.02873042
6.164558,4.7173166,-0.06681002,0.037883572,-0.015778739,1.6184803,-9.275137,-0.02873042
6.164413,4.7172275,-0.06787529,0.04107937,-0.009387151,1.6041151,-9.346964,-0.047884032
6.1642685,4.7171383,-0.06787529,0.04107937,-0.009387151,1.6041151,-9.346964,-0.047884032
6.164127,4.7170544,-0.06894055,0.04427516,-0.004060829,1.5849615,-9.313444,-0.023942016
6.1639853,4.716971,-0.06894055,0.04427516,-0.004060829,1.5849615,-9.313444,-0.023942016
6.163854,4.7168813,-0.07107108,0.049601484,0.0044612866,1.6232687,-9.313444,-0.047884032
6.163722,4.7167916,-0.07107108,0.049601484,0.0044612866,1.6232687,-9.313444,-0.047884032
6.163596,4.716707,-0.07320161,0.050666746,0.011918138,1.5610195,-9.3182335,-0.01436521
6.1634703,4.7166224,-0.07320161,0.050666746,0.011918138,1.5610195,-9.3182335,-0.01436521
6.1633496,4.7165413,-0.07426687,0.052797277,0.019374989,1.6136919,-9.346964,-0.0047884034
6.163231,4.716461,-0.07426687,0.052797277,0.019374989,1.6136919,-9.346964,-0.0047884034
6.1631246,4.716364,-0.076397404,0.052797277,0.02896237,1.6232687,-9.409213,-0.05746084
6.163018,4.7162676,-0.076397404,0.052797277,0.02896237,1.6232687,-9.409213,-0.05746084
6.1629186,4.716162,-0.07852793,0.052797277,0.03854975,1.5801731,-9.452309,-0.05746084
6.1629186,4.716162,-0.07852793,0.052797277,0.03854975,1.5801731,-9.452309,-0.05746084
6.1627307,4.7159643,-0.08065846,0.053862542,0.047071867,1.541866,-9.471462,-0.023942016
6.1626425,4.715872,-0.08065846,0.053862542,0.047071867,1.541866,-9.471462,-0.023942016
6.162558,4.7157817,-0.08065846,0.052797277,0.055593982,1.532289,-9.519346,-0.0047884034
6.162558,4.7157817,-0.08065846,0.052797277,0.055593982,1.532289,-9.519346,-0.0047884034
6.162401,4.715636,-0.08172372,0.05173201,0.0641161,1.4460979,-9.56723,0.095768064
6.162401,4.715636,-0.08172372,0.05173201,0.0641161,1.4460979,-9.56723,0.095768064
6.1622663,4.715516,-0.08278899,0.050666746,0.073703475,1.4460979,-9.653421,0.02873042
6.162204,4.7154427,-0.08278899,0.050666746,0.073703475,1.4460979,-9.653421,0.02873042
6.162151,4.715343,-0.08491952,0.049601484,0.08329086,1.388637,-9.624691,-0.0047884034
6.1620975,4.7152433,-0.08491952,0.049601484,0.08329086,1.388637,-9.624691,-0.0047884034
6.1620646,4.715118,-0.08705004,0.04853622,0.09287824,1.283292,-9.662998,-0.009576807
6.162031,4.714994,-0.08705004,0.04853622,0.09287824,1.283292,-9.662998,-0.009576807
6.1620135,4.714858,-0.09024584,0.047470953,0.102465615,1.2976574,-9.701305,-0.023942016
6.161995,4.7147226,-0.09024584,0.047470953,0.102465615,1.2976574,-9.701305,-0.023942016
6.162025,4.714714,-0.092376366,0.04427516,0.11524879,1.2593501,-9.720459,0.090979666
6.1620545,4.7147055,-0.092376366,0.04427516,0.11524879,1.2593501,-9.720459,0.090979666
6.162046,4.71465,-0.093441635,0.04107937,0.12377091,1.292869,-9.768343,0.047884032
6.1621265,4.7146516,-0.093441635,0.038948838,0.13122776,1.2162545,-9.825804,0.05267244
6.162189,4.7146525,-0.093441635,0.038948838,0.13122776,1.2162545,-9.825804,0.05267244
6.162257,4.714653,-0.093441635,0.038948838,0.13122776,1.2162545,-9.825804,0.05267244
6.162395,4.7146616,-0.09557216,0.03681831,0.13974987,1.2018893,-9.873688,0.08140286
6.1625285,4.7146697,-0.09557216,0.03681831,0.13974987,1.2018893,-9.873688,0.08140286
6.1627693,4.7146497,-0.09663743,0.032557253,0.14614145,1.1204864,-9.940725,0.08619126
6.16301,4.7146306,-0.09663743,0.032557253,0.14614145,1.1204864,-9.940725,0.08619126
6.163245,4.714617,-0.09557216,0.026165664,0.14933725,1.1061212,-9.969456,0.110133275
6.1634793,4.714603,-0.09557216,0.026165664,0.14933725,1.1061212,-9.969456,0.110133275
6.16376,4.714548,-0.0945069,0.019774077,0.15146779,1.0821792,-10.0269165,0.05746084
6.164044,4.714494,-0.0945069,0.019774077,0.15146779,1.0821792,-10.0269165,0.05746084
6.1643033,4.7144666,-0.092376366,0.014447756,0.15253304,0.9864111,-10.060435,0.14844051
6.164563,4.71444,-0.092376366,0.014447756,0.15253304,0.9864111,-10.060435,0.14844051
6.164832,4.714408,-0.08705004,0.009121433,0.15253304,0.9624691,-10.065224,0.12928689
6.165101,4.714377,-0.08705004,0.009121433,0.15253304,0.9624691,-10.065224,0.12928689
6.1653743,4.714344,-0.08065846,0.0027298466,0.15146779,0.91937345,-10.141838,0.12928689
6.1656475,4.7143116,-0.08065846,0.0027298466,0.15146779,0.91937345,-10.141838,0.12928689
6.1659317,4.714265,-0.07426687,-0.00366174,0.15040252,0.82360536,-10.127473,0.095768064
6.166216,4.7142186,-0.07426687,-0.00366174,0.15040252,0.82360536,-10.127473,0.095768064
6.166502,4.7141705,-0.06787529,-0.007922798,0.14933725,0.79966336,-10.1226845,0.076614454
6.1667876,4.714123,-0.06787529,-0.007922798,0.14933725,0.79966336,-10.1226845,0.076614454
6.1670723,4.714072,-0.060418434,-0.010053327,0.14614145,0.7469909,-10.089166,0.05267244
6.1673574,4.7140226,-0.060418434,-0.010053327,0.14614145,0.7469909,-10.089166,0.05267244
6.167642,4.713973,-0.052961584,-0.012183856,0.1450762,0.7134721,-10.113108,0.033518825
6.167927,4.713924,-0.052961584,-0.012183856,0.1450762,0.7134721,-10.113108,0.033518825
6.168207,4.7138686,-0.043374203,-0.014314385,0.14081514,0.7565677,-10.079589,-0.01436521
6.1684875,4.7138133,-0.043374203,-0.014314385,0.14081514,0.7565677,-10.079589,-0.01436521
6.168763,4.7137947,-0.035917353,-0.015379649,0.1386846,0.80924016,-10.079589,0.062249243
6.169039,4.713776,-0.035917353,-0.015379649,0.1386846,0.80924016,-10.079589,0.062249243
6.16931,4.71373,-0.03059103,-0.017510178,0.13229302,0.80924016,-10.055647,-0.019153614
6.1695814,4.7136836,-0.03059103,-0.017510178,0.13229302,0.80924016,-10.055647,-0.019153614
6.169838,4.713626,-0.0284605,-0.019640706,0.12164038,0.8619126,-10.01734,-0.04309563
6.1700945,4.7135677,-0.0284605,-0.019640706,0.12164038,0.8619126,-10.01734,-0.04309563
6.1703362,4.7135024,-0.024199443,-0.021771235,0.112053,0.866701,-9.988609,-0.06703765
6.170578,4.713437,-0.024199443,-0.021771235,0.112053,0.866701,-9.988609,-0.06703765
6.1708117,4.713377,-0.022068914,-0.0228365,0.102465615,0.8523358,-9.959879,-0.062249243
6.1710453,4.713317,-0.022068914,-0.0228365,0.102465615,0.8523358,-9.959879,-0.062249243
6.171257,4.7132473,-0.018873122,-0.0228365,0.088617176,0.866701,-9.988609,-0.090979666
6.1714687,4.713177,-0.018873122,-0.0228365,0.088617176,0.866701,-9.988609,-0.090979666
6.171675,4.7131257,-0.014612063,-0.0228365,0.07476874,0.8475474,-9.9790325,-0.062249243
