Pitch,Roll,Gyro_X,Gyro_Y,Gyro_Z,Accel_X,Accel_Y,Accel_Z
0.37272632,4.650376,0.039716423,-0.015379649,-0.05412826,-3.4380736,-8.901642,-0.51714754
0.37253335,4.650419,0.037585896,-0.014314385,-0.0498672,-3.41892,-8.858546,-0.5506664
0.37234783,4.65046,0.037585896,-0.014314385,-0.0498672,-3.41892,-8.858546,-0.5506664
0.37221125,4.650421,0.03545537,-0.012183856,-0.04773667,-3.4284968,-8.858546,-0.5793968
0.37207562,4.650381,0.03545537,-0.012183856,-0.04773667,-3.4284968,-8.858546,-0.5793968
0.37190762,4.6504707,0.032259572,-0.01324912,-0.045606144,-3.4141316,-8.805874,-0.5363012
0.37173906,4.65056,0.032259572,-0.01324912,-0.045606144,-3.4141316,-8.805874,-0.5363012
0.37158844,4.650664,0.030129045,-0.01324912,-0.04241035,-3.394978,-8.834604,-0.51714754
0.3714373,4.6507683,0.030129045,-0.01324912,-0.04241035,-3.394978,-8.834604,-0.51714754
0.3713084,4.6507225,0.027998514,-0.012183856,-0.03814929,-3.371036,-8.805874,-0.59376204
0.3711799,4.650676,0.027998514,-0.012183856,-0.03814929,-3.371036,-8.805874,-0.59376204
0.37100255,4.650706,0.025867987,-0.011118591,-0.03814929,-3.3327289,-8.820239,-0.545878
0.3708255,4.650735,0.025867987,-0.011118591,-0.03814929,-3.3327289,-8.820239,-0.545878
0.37072504,4.650668,0.022672193,-0.008988062,-0.037084028,-3.347094,-8.743625,-0.61770403
0.37062508,4.6506004,0.022672193,-0.008988062,-0.037084028,-3.347094,-8.743625,-0.61770403
0.3705496,4.6505237,0.020541664,-0.005792269,-0.031757705,-3.371036,-8.75799,-0.62249243
0.3704746,4.6504464,0.020541664,-0.005792269,-0.031757705,-3.371036,-8.75799,-0.62249243
0.3703167,4.6504307,0.017345872,-0.00366174,-0.026431382,-3.3327289,-8.78672,-0.5650316
0.37015906,4.6504154,0.017345872,-0.00366174,-0.026431382,-3.3327289,-8.78672,-0.5650316
0.37004796,4.6503496,0.0141500775,-0.0025964756,-0.022170324,-3.323152,-8.7532015,-0.60812724
0.36993635,4.650283,0.0141500775,-0.0025964756,-0.022170324,-3.323152,-8.7532015,-0.60812724
0.36984965,4.6502037,0.010954284,-0.0015312112,-0.017909266,-3.347094,-8.762778,-0.61291564
0.36976254,4.6501245,0.010954284,-0.0015312112,-0.017909266,-3.347094,-8.762778,-0.61291564
0.36965287,4.650055,0.0077584907,0.0005993177,-0.014713474,-3.3375173,-8.820239,-0.61291564
0.36954314,4.6499853,0.0077584907,0.0005993177,-0.014713474,-3.3375173,-8.820239,-0.61291564
0.36943007,4.649919,0.0045626974,0.0027298466,-0.009387151,-3.3375173,-8.805874,-0.59855044
0.36931723,4.649852,0.0045626974,0.0027298466,-0.009387151,-3.3375173,-8.805874,-0.59855044
0.36924404,4.649758,0.00030163955,0.00592564,-0.004060829,-3.3375173,-8.781932,-0.63206923
0.36917087,4.649664,0.00030163955,0.00592564,-0.004060829,-3.3375173,-8.781932,-0.63206923
0.36913255,4.649557,-0.0018288894,0.008056169,0.0012654932,-3.371036,-8.815451,-0.6655881
0.36909425,4.6494503,-0.0018288894,0.008056169,0.0012654932,-3.371036,-8.815451,-0.6655881
0.3690403,4.649537,-0.0039594183,0.011251962,0.009787609,-3.41892,-8.844181,-0.545878
0.368986,4.6496243,-0.0039594183,0.011251962,0.009787609,-3.41892,-8.844181,-0.545878
0.36893895,4.6495185,-0.006089947,0.012317227,0.016179197,-3.3806129,-8.858546,-0.62728083
0.36889163,4.6494126,-0.006089947,0.012317227,0.016179197,-3.3806129,-8.858546,-0.62728083
0.3688132,4.649323,-0.010351005,0.012317227,0.021505518,-3.3662477,-8.863335,-0.60333884
0.36873457,4.6492333,-0.010351005,0.012317227,0.021505518,-3.3662477,-8.863335,-0.60333884
0.36868677,4.649125,-0.013546798,0.012317227,0.02683184,-3.3901896,-8.858546,-0.60333884
0.3686385,4.649017,-0.013546798,0.012317227,0.02683184,-3.3901896,-8.858546,-0.60333884
0.3685558,4.6489325,-0.01674259,0.013382491,0.031092897,-3.3806129,-8.872911,-0.58897364
0.36847255,4.6488485,-0.01674259,0.013382491,0.031092897,-3.3806129,-8.872911,-0.58897364
0.36839136,4.6487627,-0.019938385,0.013382491,0.03428869,-3.3901896,-8.872911,-0.58418524
0.36830944,4.648678,-0.019938385,0.013382491,0.03428869,-3.3901896,-8.872911,-0.58418524
0.36820504,4.6486516,-0.022068914,0.012317227,0.03641922,-3.394978,-8.939949,-0.56982
0.3681005,4.6486263,-0.022068914,0.012317227,0.03641922,-3.394978,-8.939949,-0.56982
0.36801493,4.648651,-0.025264706,0.011251962,0.035353955,-3.3806129,-8.939949,-0.5410896
0.36792883,4.648677,-0.025264706,0.011251962,0.035353955,-3.3806129,-8.939949,-0.5410896
0.3678288,4.6486216,-0.027395237,0.011251962,0.03641922,-3.371036,-8.916007,-0.5793968
0.36772773,4.648567,-0.027395237,0.011251962,0.03641922,-3.371036,-8.916007,-0.5793968
0.36763358,4.6485744,-0.027395237,0.009121433,0.037484486,-3.4093432,-8.949526,-0.5602432
0.36753967,4.648582,-0.027395237,0.009121433,0.037484486,-3.4093432,-8.949526,-0.5602432
0.36753687,4.648655,-0.026329972,0.00592564,0.03641922,-3.4237084,-8.925584,-0.5267244
0.3675336,4.6487274,-0.026329972,0.00592564,0.03641922,-3.4237084,-8.925584,-0.5267244
0.36752647,4.648801,-0.025264706,0.0027298466,0.03854975,-3.4332852,-8.968679,-0.521936
0.3675189,4.6488743,-0.025264706,0.0027298466,0.03854975,-3.4332852,-8.968679,-0.521936
0.36751792,4.6489506,-0.025264706,-0.00046594674,0.03854975,-3.4380736,-9.002198,-0.49799395
0.3675166,4.6490264,-0.025264706,-0.00046594674,0.03854975,-3.4380736,-9.002198,-0.49799395
0.36751935,4.6491055,-0.024199443,-0.00366174,0.037484486,-3.4380736,-8.978256,-0.50757074
0.36752167,4.6491847,-0.024199443,-0.00366174,0.037484486,-3.4380736,-8.978256,-0.50757074
0.3675824,4.649269,-0.022068914,-0.005792269,0.03854975,-3.4715924,-8.978256,-0.5315128
0.3676421,4.6493526,-0.022068914,-0.005792269,0.03854975,-3.4715924,-8.978256,-0.5315128
0.3675943,4.64942,-0.018873122,-0.010053327,0.040680278,-3.4715924,-9.006987,-0.5650316
0.36754286,4.6494846,-0.018873122,-0.010053327,0.040680278,-3.4715924,-9.006987,-0.5650316
0.36760882,4.649576,-0.015677327,-0.012183856,0.040680278,-3.4763808,-8.99741,-0.545878
0.36767295,4.649669,-0.015677327,-0.012183856,0.040680278,-3.4763808,-8.99741,-0.545878
0.36767873,4.6497626,-0.014612063,-0.014314385,0.041745543,-3.4524388,-8.987833,-0.5267244
0.36768362,4.649855,-0.014612063,-0.014314385,0.041745543,-3.4524388,-8.987833,-0.5267244
0.3676622,4.649943,-0.0114162695,-0.016444914,0.042810805,-3.4380736,-9.006987,-0.51714754
0.3676402,4.6500306,-0.0114162695,-0.016444914,0.042810805,-3.4380736,-9.006987,-0.51714754
0.3677626,4.6499367,-0.009285741,-0.017510178,0.0460066,-3.5003228,-9.002198,-0.58897364
0.36788413,4.6498423,-0.009285741,-0.017510178,0.0460066,-3.5003228,-9.002198,-0.58897364
0.36789286,4.64974,-0.0071552116,-0.019640706,0.04813713,-3.4476504,-8.963891,-0.59376204
0.36790028,4.649638,-0.0071552116,-0.019640706,0.04813713,-3.4476504,-8.963891,-0.59376204
0.3680868,4.6496615,-0.006089947,-0.021771235,0.049202394,-3.490746,-8.973468,-0.5602432
0.3682728,4.649685,-0.006089947,-0.021771235,0.049202394,-3.490746,-8.973468,-0.5602432
0.36825442,4.6495967,-0.0050246827,-0.0228365,0.05133292,-3.4620156,-9.016563,-0.59376204
0.36823496,4.649509,-0.0050246827,-0.0228365,0.05133292,-3.4620156,-9.016563,-0.59376204
0.36823574,4.6494145,-0.0050246827,-0.02496703,0.05346345,-3.4476504,-8.978256,-0.60333884
0.36823547,4.64932,-0.0050246827,-0.02496703,0.05346345,-3.4476504,-8.978256,-0.60333884
0.36818495,4.6492596,-0.0039594183,-0.028162822,0.055593982,-3.4380736,-8.992621,-0.58897364
0.3681323,4.6491966,-0.0039594183,-0.028162822,0.055593982,-3.4380736,-8.992621,-0.58897364
0.36812118,4.6492925,-0.0039594183,-0.028162822,0.056659244,-3.442862,-8.968679,-0.5410896
0.3681084,4.649389,-0.0039594183,-0.028162822,0.056659244,-3.442862,-8.968679,-0.5410896
0.36814192,4.6492925,-0.0028941538,-0.030293351,0.058789775,-3.4524388,-8.983045,-0.6368576
0.36817476,4.6491957,-0.0028941538,-0.030293351,0.058789775,-3.4524388,-8.983045,-0.6368576
0.36813903,4.6491294,-0.0018288894,-0.031358615,0.0609203,-3.3901896,-8.949526,-0.61291564
0.3681035,4.6490645,-0.0018288894,-0.031358615,0.0609203,-3.3901896,-8.949526,-0.61291564
0.3680421,4.649028,-0.0007636249,-0.03242388,0.061985567,-3.3183637,-8.973468,-0.61770403
0.3679807,4.648992,-0.0007636249,-0.03242388,0.061985567,-3.3183637,-8.973468,-0.61770403
0.36795685,4.648921,-0.0007636249,-0.031358615,0.0641161,-3.3662477,-9.002198,-0.6607997
0.36793274,4.6488495,-0.0007636249,-0.031358615,0.0641161,-3.3662477,-9.002198,-0.6607997
0.36789024,4.6487923,-0.0007636249,-0.030293351,0.0641161,-3.371036,-8.973468,-0.62249243
0.36784795,4.648736,-0.0007636249,-0.030293351,0.0641161,-3.371036,-8.973468,-0.62249243
0.36780474,4.6486807,0.00030163955,-0.029228088,0.06518136,-3.3806129,-8.99741,-0.62249243
0.36776173,4.6486263,0.00030163955,-0.029228088,0.06518136,-3.3806129,-8.99741,-0.62249243
0.36778608,4.6485343,-0.0007636249,-0.029228088,0.06731189,-3.4141316,-8.983045,-0.6847417
0.36780986,4.648443,-0.0007636249,-0.029228088,0.06731189,-3.4141316,-8.983045,-0.6847417
0.3678388,4.648348,-0.0039594183,-0.030293351,0.06944242,-3.4093432,-8.944737,-0.6703765
0.367867,4.6482534,-0.0039594183,-0.030293351,0.06944242,-3.4093432,-8.944737,-0.6703765
0.36790907,4.6481547,-0.0050246827,-0.030293351,0.071572945,-3.4237084,-8.963891,-0.6943185
0.36795065,4.648056,-0.0050246827,-0.030293351,0.071572945,-3.4237084,-8.963891,-0.6943185
0.36790976,4.6480026,-0.0071552116,-0.031358615,0.07476874,-3.4045548,-9.011775,-0.61291564
0.36786842,4.64795,-0.0071552116,-0.031358615,0.07476874,-3.4045548,-9.011775,-0.61291564
0.36781737,4.647917,-0.010351005,-0.029228088,0.08009506,-3.3806129,-8.983045,-0.59855044
0.36776572,4.6478834,-0.010351005,-0.029228088,0.08009506,-3.3806129,-8.983045,-0.59855044
0.36772844,4.647832,-0.0114162695,-0.029228088,0.08329086,-3.3566709,-9.016563,-0.62728083
0.3676906,4.6477795,-0.0114162695,-0.029228088,0.08329086,-3.3566709,-9.016563,-0.62728083
0.36766645,4.6477146,-0.0114162695,-0.029228088,0.08648665,-3.3327289,-9.016563,-0.6560113
0.36764207,4.64765,-0.0114162695,-0.029228088,0.08648665,-3.3327289,-9.016563,-0.6560113
0.3676031,4.6476126,-0.0114162695,-0.026032293,0.09181297,-3.3901896,-9.040505,-0.60812724
0.36756402,4.647576,-0.0114162695,-0.026032293,0.09181297,-3.3901896,-9.040505,-0.60812724
0.36756572,4.6474957,-0.0114162695,-0.023901764,0.09820456,-3.2944214,-9.064447,-0.7278373
0.36756724,4.6474156,-0.0114162695,-0.023901764,0.09820456,-3.2944214,-9.064447,-0.7278373
0.3675735,4.647335,-0.0114162695,-0.020705972,0.104596145,-3.2800562,-9.059659,-0.7326257
0.3675794,4.647255,-0.0114162695,-0.020705972,0.104596145,-3.2800562,-9.059659,-0.7326257
0.36757812,4.6471863,-0.010351005,-0.017510178,0.112053,-3.2609026,-9.107543,-0.7134721
0.36757657,4.64712,-0.010351005,-0.017510178,0.112053,-3.2609026,-9.107543,-0.7134721
0.3676206,4.647025,-0.0071552116,-0.01324912,0.11737932,-3.323152,-9.097966,-0.79966336
0.367664,4.6469307,-0.0071552116,-0.01324912,0.11737932,-3.323152,-9.097966,-0.79966336
0.36772403,4.646827,-0.008220476,-0.008988062,0.12164038,-3.3279405,-9.097966,-0.8523358
0.36778435,4.646723,-0.008220476,-0.008988062,0.12164038,-3.3279405,-9.097966,-0.8523358
0.36784178,4.6466208,-0.010351005,-0.00366174,0.13016249,-3.3901896,-9.136273,-0.7565677
0.36789924,4.646518,-0.010351005,-0.00366174,0.13016249,-3.3901896,-9.136273,-0.7565677
0.3679424,4.6464257,-0.0114162695,0.0005993177,0.1386846,-3.3279405,-9.160215,-0.7565677
0.3679853,4.6463327,-0.0114162695,0.0005993177,0.1386846,-3.3279405,-9.160215,-0.7565677
0.3680131,4.6462593,-0.0114162695,0.0016645822,0.1450762,-3.3087866,-9.188946,-0.7134721
0.36804044,4.646186,-0.0114162695,0.0016645822,0.1450762,-3.3087866,-9.188946,-0.7134721
0.36806592,4.646118,-0.013546798,0.003795111,0.14933725,-3.371036,-9.222465,-0.6799533
0.36809132,4.6460495,-0.013546798,0.003795111,0.14933725,-3.371036,-9.222465,-0.6799533
0.36810282,4.64604,-0.015677327,0.00592564,0.15146779,-3.4141316,-9.279925,-0.60333884
0.36811432,4.6460304,-0.015677327,0.00592564,0.15146779,-3.4141316,-9.279925,-0.60333884
0.36813223,4.646034,-0.01674259,0.0069909045,0.15466358,-3.4237084,-9.323022,-0.58897364
0.36813223,4.646034,-0.01674259,0.0069909045,0.15466358,-3.4237084,-9.323022,-0.58897364
0.36820087,4.646081,-0.017807856,0.0069909045,0.1599899,-3.3662477,-9.323022,-0.5410896
0.36823678,4.646106,-0.017807856,0.0069909045,0.1599899,-3.3662477,-9.323022,-0.5410896
0.36827832,4.646133,-0.019938385,0.008056169,0.16425095,-3.4045548,-9.375694,-0.5315128
0.36827832,4.646133,-0.019938385,0.008056169,0.16425095,-3.4045548,-9.375694,-0.5315128
0.36837372,4.646195,-0.021003649,0.009121433,0.16957727,-3.4332852,-9.294291,-0.545878
0.36837372,4.646195,-0.021003649,0.009121433,0.16957727,-3.4332852,-9.294291,-0.545878
0.3684884,4.6462564,-0.02313418,0.010186698,0.17383833,-3.4572272,-9.303867,-0.58897364
0.36850965,4.6462555,-0.02313418,0.010186698,0.17383833,-3.4572272,-9.303867,-0.58897364
0.36854362,4.6462154,-0.025264706,0.011251962,0.1749036,-3.41892,-9.294291,-0.62249243
0.36857766,4.6461754,-0.025264706,0.011251962,0.1749036,-3.41892,-9.294291,-0.62249243
0.3686124,4.6461535,-0.026329972,0.010186698,0.1749036,-3.371036,-9.299079,-0.59855044
0.36864728,4.6461315,-0.026329972,0.010186698,0.1749036,-3.371036,-9.299079,-0.59855044
0.36870748,4.6460314,-0.029525764,0.011251962,0.1749036,-3.3327289,-9.227253,-0.7278373
0.3687675,4.6459317,-0.029525764,0.011251962,0.1749036,-3.3327289,-9.227253,-0.7278373
0.3688211,4.6458325,-0.033786822,0.011251962,0.17277306,-3.289633,-9.217676,-0.7326257
0.3688747,4.6457334,-0.033786822,0.011251962,0.17277306,-3.289633,-9.217676,-0.7326257
0.36895254,4.6456037,-0.039113145,0.012317227,0.16851202,-3.2800562,-9.165004,-0.8331822
0.36902994,4.6454744,-0.039113145,0.012317227,0.16851202,-3.2800562,-9.165004,-0.8331822
0.36910164,4.6453376,-0.04763526,0.012317227,0.16531622,-3.2369606,-9.126697,-0.842759
0.36917308,4.645201,-0.04763526,0.012317227,0.16531622,-3.2369606,-9.126697,-0.842759
0.36927256,4.645039,-0.056157377,0.014447756,0.16105516,-3.3135753,-9.064447,-0.90021986
0.36937115,4.6448774,-0.056157377,0.014447756,0.16105516,-3.3135753,-9.064447,-0.90021986
0.36945367,4.644711,-0.06467949,0.01551302,0.15572885,-3.2369606,-9.035717,-0.91937345
0.36953565,4.644545,-0.06467949,0.01551302,0.15572885,-3.2369606,-9.035717,-0.91937345
0.36961576,4.644364,-0.076397404,0.017643549,0.14933725,-3.2130187,-8.944737,-0.92895025
0.369695,4.644184,-0.076397404,0.017643549,0.14933725,-3.2130187,-8.944737,-0.92895025
0.36977455,4.6439877,-0.08705004,0.021904606,0.13974987,-3.2130187,-8.858546,-0.94810385
0.36985248,4.6437945,-0.08705004,0.021904606,0.13974987,-3.2130187,-8.858546,-0.94810385
0.36993682,4.6435804,-0.09876795,0.026165664,0.13122776,-3.241749,-8.75799,-0.93852705
0.37002212,4.643364,-0.09876795,0.026165664,0.13122776,-3.241749,-8.75799,-0.93852705
0.37012407,4.6431284,-0.11261639,0.033622514,0.12483617,-3.2800562,-8.6334915,-0.9959879
0.37022522,4.6428947,-0.11261639,0.033622514,0.12483617,-3.2800562,-8.6334915,-0.9959879
0.37035522,4.6426363,-0.13072589,0.04214463,0.120575115,-3.3806129,-8.485051,-1.0821792
0.37048587,4.642377,-0.13072589,0.04214463,0.120575115,-3.3806129,-8.485051,-1.0821792
0.3706213,4.6420946,-0.15309644,0.049601484,0.119509846,-3.3566709,-8.327033,-1.0630256
0.37075603,4.641813,-0.15309644,0.049601484,0.119509846,-3.3566709,-8.327033,-1.0630256
0.37090087,4.641498,-0.18185858,0.05918886,0.12483617,-3.347094,-8.255207,-1.0295067
0.37104553,4.6411834,-0.18185858,0.05918886,0.12483617,-3.347094,-8.255207,-1.0295067
0.37119278,4.64083,-0.21488178,0.07090677,0.13655408,-3.289633,-8.197746,-1.043872
0.37134153,4.6404724,-0.21488178,0.07090677,0.13655408,-3.289633,-8.197746,-1.043872
0.37150088,4.6400776,-0.2532313,0.08475521,0.15040252,-3.265691,-8.154651,-0.9864111
0.37166047,4.639682,-0.2532313,0.08475521,0.15040252,-3.265691,-8.154651,-0.9864111
0.37184674,4.6392384,-0.29371136,0.09860365,0.16744675,-3.289633,-8.130709,-0.94810385
0.37203267,4.638796,-0.29371136,0.09860365,0.16744675,-3.289633,-8.130709,-0.94810385
0.37224314,4.638302,-0.3373872,0.11458261,0.19088256,-3.3135753,-8.130709,-0.9959879
0.372454,4.6378055,-0.3373872,0.11458261,0.19088256,-3.3135753,-8.130709,-0.9959879
0.37272197,4.637244,-0.38425884,0.13056158,0.22070996,-3.3183637,-8.101978,-0.8523358
0.37297985,4.636704,-0.38425884,0.13056158,0.22070996,-3.3183637,-8.101978,-0.8523358
0.3732788,4.6361265,-0.43219572,0.14654055,0.25373316,-3.3039982,-8.106767,-0.7661445
0.37358305,4.6355395,-0.43219572,0.14654055,0.25373316,-3.3039982,-8.106767,-0.7661445
0.3739701,4.6350527,-0.4780021,0.16465004,0.2920827,-3.2369606,-8.130709,-0.60333884
0.37434107,4.6345806,-0.4780021,0.16465004,0.2920827,-3.2369606,-8.130709,-0.60333884
0.37464648,4.634083,-0.521678,0.18595533,0.33469325,-3.2082303,-8.192958,-0.521936
0.37495077,4.6335835,-0.521678,0.18595533,0.33469325,-3.2082303,-8.192958,-0.521936
0.3752253,4.633007,-0.56322324,0.20939115,0.38049963,-3.1124623,-8.173804,-0.5554548
0.37549964,4.6324344,-0.56322324,0.20939115,0.38049963,-3.1124623,-8.173804,-0.5554548
0.37581053,4.6318016,-0.6005075,0.23602276,0.42843655,-3.0358477,-8.1642275,-0.5267244
0.3761208,4.631173,-0.6005075,0.23602276,0.42843655,-3.0358477,-8.1642275,-0.5267244
0.37650743,4.630515,-0.63140017,0.2647849,0.47956923,-3.0262709,-8.12592,-0.44532153
0.37689498,4.629856,-0.63140017,0.2647849,0.47956923,-3.0262709,-8.12592,-0.44532153
0.37727568,4.629115,-0.6612276,0.29887336,0.5317672,-2.992752,-8.0924015,-0.58897364
0.37766138,4.6283684,-0.6612276,0.29887336,0.5317672,-2.992752,-8.0924015,-0.58897364
0.3780786,4.6275654,-0.6878592,0.33402708,0.58289987,-3.0119057,-8.054094,-0.6368576
0.3784987,4.6267633,-0.6878592,0.33402708,0.58289987,-3.0119057,-8.054094,-0.6368576
0.37901455,4.6258016,-0.71236026,0.36811554,0.6382936,-3.064578,-7.9248075,-0.7613561
0.3795143,4.62486,-0.71236026,0.36811554,0.6382936,-3.064578,-7.9248075,-0.7613561
0.38007858,4.6238585,-0.7379266,0.39581242,0.6915569,-2.9496565,-7.8912888,-0.8619126
0.3806482,4.622843,-0.7379266,0.39581242,0.6915569,-2.9496565,-7.8912888,-0.8619126
0.3812983,4.6217823,-0.76668876,0.42244405,0.74482006,-3.074155,-7.929596,-0.90021986
0.3819402,4.6207275,-0.76668876,0.42244405,0.74482006,-3.074155,-7.929596,-0.90021986
0.38266942,4.6196184,-0.7943857,0.45014092,0.80554014,-3.122039,-7.9343843,-0.9816227
0.38339964,4.618502,-0.7943857,0.45014092,0.80554014,-3.122039,-7.9343843,-0.9816227
0.38418895,4.617351,-0.82101727,0.474642,0.86839074,-3.1411927,-7.9822683,-1.0534488
0.38497126,4.6162047,-0.82101727,0.474642,0.86839074,-3.1411927,-7.9822683,-1.0534488
0.38575062,4.6150503,-0.84551835,0.4959473,0.9333719,-3.0358477,-8.0684595,-0.93852705
0.38652602,4.6138973,-0.84551835,0.4959473,0.9333719,-3.0358477,-8.0684595,-0.93852705
0.38737148,4.6127014,-0.8710847,0.51299155,0.99941826,-3.040636,-8.09719,-0.9816227
0.38821897,4.611499,-0.8710847,0.51299155,0.99941826,-3.040636,-8.09719,-0.9816227
0.38912487,4.6102743,-0.8945205,0.5279052,1.06653,-2.9735985,-8.058883,-1.0582372
0.3900376,4.6090374,-0.8945205,0.5279052,1.06653,-2.9735985,-8.058883,-1.0582372
0.39097536,4.607814,-0.9158258,0.5428189,1.1336416,-2.8874073,-8.101978,-1.0007763
0.39191973,4.60658,-0.9158258,0.5428189,1.1336416,-2.8874073,-8.101978,-1.0007763
0.3929231,4.605318,-0.9371311,0.5587979,1.1975574,-2.7820623,-8.015787,-0.9959879
0.3939201,4.604063,-0.9371311,0.5587979,1.1975574,-2.7820623,-8.015787,-0.9959879
0.39497364,4.60279,-0.95630586,0.5747769,1.260408,-2.801216,-7.9822683,-0.94331545
0.39602765,4.601516,-0.95630586,0.5747769,1.260408,-2.801216,-7.9822683,-0.94331545
0.39713347,4.600232,-0.9701543,0.58756006,1.3189976,-2.8299465,-7.9152308,-0.90500826
0.39823928,4.5989485,-0.9701543,0.58756006,1.3189976,-2.8299465,-7.9152308,-0.90500826
0.39945424,4.597744,-0.9786764,0.5971474,1.380783,-3.1794999,-7.9631147,-0.7469909
0.40067434,4.5965314,-0.9786764,0.5971474,1.380783,-3.1794999,-7.9631147,-0.7469909
0.4019792,4.595325,-0.97974163,0.59821266,1.4425683,-3.1890767,-7.8769236,-0.6943185
0.40327635,4.5941215,-0.97974163,0.59821266,1.4425683,-3.1890767,-7.8769236,-0.6943185
0.40468657,4.5929193,-0.9765459,0.59395164,1.5118105,-3.3327289,-7.9583263,-0.6655881
0.4060871,4.5917206,-0.9765459,0.59395164,1.5118105,-3.3327289,-7.9583263,-0.6655881
0.4075662,4.590526,-0.9658932,0.5886253,1.5842484,-3.2944214,-7.905654,-0.5267244
0.40904215,4.5893292,-0.9658932,0.5886253,1.5842484,-3.2944214,-7.905654,-0.5267244
0.41061082,4.588146,-0.94884896,0.583299,1.6620128,-3.3854012,-7.9583263,-0.38307226
0.41217977,4.5869584,-0.94884896,0.583299,1.6620128,-3.3854012,-7.9583263,-0.38307226
0.4138372,4.5857935,-0.9232826,0.57797265,1.7451034,-3.4620156,-7.9631147,-0.31603462
0.41548848,4.584629,-0.9232826,0.57797265,1.7451034,-3.4620156,-7.9631147,-0.31603462
0.4172504,4.5834846,-0.8913247,0.5726463,1.8345857,-3.5913026,-7.9631147,-0.20111294
0.41899908,4.582345,-0.8913247,0.5726463,1.8345857,-3.5913026,-7.9631147,-0.20111294
0.42086062,4.581232,-0.8529752,0.56732,1.9283289,-3.7349546,-7.9248075,-0.20590134
0.4227193,4.580117,-0.8529752,0.56732,1.9283289,-3.7349546,-7.9248075,-0.20590134
0.42469886,4.5790358,-0.8082341,0.5587979,2.025268,-3.9264908,-7.85777,-0.23463176
0.4266676,4.5779557,-0.8082341,0.5587979,2.025268,-3.9264908,-7.85777,-0.23463176
0.42877138,4.57691,-0.7592319,0.54814523,2.1328597,-4.098873,-7.7572136,-0.31603462
0.43086997,4.575863,-0.7592319,0.54814523,2.1328597,-4.098873,-7.7572136,-0.31603462
0.43308878,4.5748587,-0.70809925,0.5342968,2.2447124,-4.1515455,-7.642292,-0.47884035
0.4353199,4.573846,-0.70809925,0.5342968,2.2447124,-4.1515455,-7.642292,-0.47884035
0.43768352,4.572869,-0.6580318,0.5161873,2.3608263,-4.1611223,-7.517793,-0.6607997
0.44004864,4.5718884,-0.6580318,0.5161873,2.3608263,-4.1611223,-7.517793,-0.6607997
0.4425512,4.5709386,-0.60902965,0.49701256,2.484397,-4.0222588,-7.297527,-0.80445176
0.44505307,4.5699873,-0.60902965,0.49701256,2.484397,-4.0222588,-7.297527,-0.80445176
0.44771117,4.5690265,-0.562158,0.47357672,2.613294,-4.036624,-7.07726,-1.0007763
0.45039484,4.568054,-0.562158,0.47357672,2.613294,-4.036624,-7.07726,-1.0007763
0.45316032,4.5671024,-0.51635164,0.45120618,2.743256,-3.7684734,-6.9144545,-1.0821792
0.4559503,4.5661387,-0.51635164,0.45120618,2.743256,-3.7684734,-6.9144545,-1.0821792
0.45883936,4.5651665,-0.4748063,0.43096617,2.8732185,-3.5434184,-6.6846113,-1.1204864
0.46170685,4.564193,-0.4748063,0.43096617,2.8732185,-3.5434184,-6.6846113,-1.1204864
0.46466237,4.563215,-0.43752205,0.41605246,3.0053113,-3.3614593,-6.5122285,-1.1492168
0.46759704,4.5622334,-0.43752205,0.41605246,3.0053113,-3.3614593,-6.5122285,-1.1492168
0.47055343,4.5612974,-0.40236834,0.40753034,3.1352735,-3.0358477,-6.2967505,-1.1540052
0.4735251,4.5603538,-0.40236834,0.40753034,3.1352735,-3.0358477,-6.2967505,-1.1540052
0.47659764,4.559432,-0.37467146,0.4032693,3.265236,-2.6910827,-6.1530986,-1.3982137
0.47966945,4.558506,-0.37467146,0.4032693,3.265236,-2.6910827,-6.1530986,-1.3982137
0.48288497,4.557577,-0.35230088,0.4032693,3.390937,-2.528277,-5.9998693,-1.5753847
0.48609093,4.5566463,-0.35230088,0.4032693,3.390937,-2.528277,-5.9998693,-1.5753847
0.48939744,4.5557218,-0.3373872,0.40433455,3.5113118,-2.2218192,-5.8562174,-1.6472107
0.49271473,4.554788,-0.3373872,0.40433455,3.5113118,-2.2218192,-5.8562174,-1.6472107
0.4961352,4.553843,-0.32779983,0.41285667,3.6220994,-2.030283,-5.741296,-1.8195933
0.49955326,4.5528927,-0.32779983,0.41285667,3.6220994,-2.030283,-5.741296,-1.8195933
0.5030812,4.5519166,-0.32673454,0.42457458,3.7243648,-1.8483237,-5.583278,-1.934515
0.50659287,4.550938,-0.32673454,0.42457458,3.7243648,-1.8483237,-5.583278,-1.934515
0.51019096,4.54993,-0.3341914,0.438423,3.8191733,-1.7525556,-5.45878,-1.9680338
0.5137868,4.548916,-0.3341914,0.438423,3.8191733,-1.7525556,-5.45878,-1.9680338
0.51748437,4.5478525,-0.35017037,0.45440197,3.9054596,-1.5705963,-5.2480903,-2.0733786
0.5211647,4.546787,-0.35017037,0.45440197,3.9054596,-1.5705963,-5.2480903,-2.0733786
0.5249204,4.5456724,-0.37147567,0.47251147,3.9810934,-1.5801731,-5.1906295,-2.0829554
0.52867734,4.544549,-0.37147567,0.47251147,3.9810934,-1.5801731,-5.1906295,-2.0829554
0.53249407,4.5433717,-0.397042,0.49062097,4.0482054,-1.6280571,-4.975151,-2.1547816
0.5363119,4.542185,-0.397042,0.49062097,4.0482054,-1.6280571,-4.975151,-2.1547816
0.5401939,4.5409365,-0.42793468,0.5076652,4.106795,-1.6903064,-4.8458643,-2.1978772
0.5440729,4.5396795,-0.42793468,0.5076652,4.106795,-1.6903064,-4.8458643,-2.1978772
0.54800427,4.5383625,-0.46202314,0.52364415,4.1611233,-1.6232687,-4.745308,-2.2026656
0.551968,4.537024,-0.46202314,0.52364415,4.1611233,-1.6232687,-4.745308,-2.2026656
0.55604756,4.5355954,-0.5014379,0.5406884,4.212256,-1.8148049,-4.7979803,-2.1212628
0.5599652,4.534212,-0.5014379,0.5406884,4.212256,-1.8148049,-4.7979803,-2.1212628
0.5639092,4.5327663,-0.5440485,0.5566674,4.255932,-1.8722657,-4.721366,-2.0350714
0.5639092,4.5327663,-0.5440485,0.5566674,4.255932,-1.8722657,-4.721366,-2.0350714
0.5726963,4.5294867,-0.5898549,0.5737116,4.2953467,-2.135628,-4.721366,-2.0159178
0.5763484,4.5280695,-0.5898549,0.5737116,4.2953467,-2.135628,-4.721366,-2.0159178
0.5763484,4.5280695,-0.5898549,0.5737116,4.2953467,-2.135628,-4.721366,-2.0159178
0.58839214,4.523114,-0.6931855,0.6088653,4.3645887,-2.6001031,-4.7309427,-1.8674773
0.58839214,4.523114,-0.6931855,0.6088653,4.3645887,-2.6001031,-4.7309427,-1.8674773
0.5926995,4.5212703,-0.6931855,0.6088653,4.3645887,-2.6001031,-4.7309427,-1.8674773
0.59664685,4.519509,-0.7507098,0.6280401,4.393351,-2.9592333,-4.7405195,-1.8339585
0.60062647,4.517718,-0.7507098,0.6280401,4.393351,-2.9592333,-4.7405195,-1.8339585
0.60479933,4.515762,-0.81142986,0.64721483,4.417852,-3.3135753,-4.8458643,-1.8818425
0.6089828,4.5137835,-0.81142986,0.64721483,4.417852,-3.3135753,-4.8458643,-1.8818425
0.6131885,4.5117207,-0.87214994,0.65467167,4.434896,-3.4763808,-4.8027687,-1.958457
0.6173966,4.509638,-0.87214994,0.65467167,4.434896,-3.4763808,-4.8027687,-1.958457
0.6216174,4.507482,-0.9318048,0.6514759,4.4466143,-3.5673606,-4.7740383,-1.8435353
0.6258272,4.505311,-0.9318048,0.6514759,4.4466143,-3.5673606,-4.7740383,-1.8435353
0.6300545,4.503064,-0.9903943,0.6450843,4.4519405,-3.6248214,-4.7309427,-1.8195933
0.6343125,4.500779,-0.9903943,0.6450843,4.4519405,-3.6248214,-4.7309427,-1.8195933
0.6385046,4.4984646,-1.0447228,0.639758,4.4508753,-3.691859,-4.663905,-1.7956513
0.6427146,4.496119,-1.0447228,0.639758,4.4508753,-3.691859,-4.663905,-1.7956513
0.64693034,4.4937115,-1.093725,0.63443166,4.4412875,-3.8115692,-4.6112323,-1.7046716
0.6511341,4.491287,-1.093725,0.63443166,4.4412875,-3.8115692,-4.6112323,-1.7046716
0.65537816,4.488824,-1.1374007,0.6312359,4.426374,-4.4723687,-4.7309427,-1.6998832
0.6596291,4.4863324,-1.1374007,0.6312359,4.426374,-4.4723687,-4.7309427,-1.6998832
0.6638843,4.4838085,-1.1789461,0.6248443,4.4040036,-4.697424,-4.6495395,-1.6041151
0.6681345,4.481264,-1.1789461,0.6248443,4.4040036,-4.697424,-4.6495395,-1.6041151
0.6723389,4.47865,-1.2194262,0.6269748,4.378437,-4.55856,-4.654328,-1.6424223
0.67660874,4.47597,-1.2194262,0.6269748,4.378437,-4.55856,-4.654328,-1.6424223
0.68078256,4.4732933,-1.2641673,0.64721483,4.345414,-5.0038815,-4.745308,-1.6136919
0.68488884,4.4706364,-1.2641673,0.64721483,4.345414,-5.0038815,-4.745308,-1.6136919
0.6890176,4.467866,-1.3121042,0.6813033,4.3070645,-5.2624555,-4.951209,-1.5945383
0.6932367,4.4650097,-1.3121042,0.6813033,4.3070645,-5.2624555,-4.951209,-1.5945383
0.6972939,4.462141,-1.3621716,0.72497916,4.255932,-5.717354,-5.1666875,-1.6472107
0.7013383,4.4592566,-1.3621716,0.72497916,4.255932,-5.717354,-5.1666875,-1.6472107
0.705328,4.4562526,-1.4133043,0.7707855,4.1984076,-6.129156,-5.434838,-1.8148049
0.7093763,4.4531775,-1.4133043,0.7707855,4.1984076,-6.129156,-5.434838,-1.8148049
0.7132467,4.4500556,-1.4633718,0.8176572,4.132361,-6.3925185,-5.659893,-2.0254946
0.7171468,4.4468822,-1.4633718,0.8176572,4.132361,-6.3925185,-5.659893,-2.0254946
0.72093797,4.443625,-1.509178,0.8645288,4.0577927,-6.6271505,-6.1195793,-2.111686
0.7247683,4.4403057,-1.509178,0.8645288,4.0577927,-6.6271505,-6.1195793,-2.111686
0.7284402,4.4369264,-1.5464623,0.9103352,3.9778976,-7.2209125,-5.3821654,-2.7389667
0.7321233,4.433506,-1.5464623,0.9103352,3.9778976,-7.2209125,-5.3821654,-2.7389667
0.735687,4.430018,-1.5848119,0.9444236,3.8926766,-7.489063,-4.606444,-3.3039982
0.7392538,4.4264946,-1.5848119,0.9444236,3.8926766,-7.489063,-4.606444,-3.3039982
0.7427538,4.4230113,-1.6412709,0.95933735,3.789346,-6.7372837,-6.813898,-2.0207062
0.74624425,4.41953,-1.6412709,0.95933735,3.789346,-6.7372837,-6.813898,-2.0207062
0.7494586,4.416122,-1.6817509,0.99023,3.6849499,-7.1873937,-7.9391727,-1.3599066
0.7526827,4.4126716,-1.6817509,0.99023,3.6849499,-7.1873937,-7.9391727,-1.3599066
0.755891,4.4090924,-1.6774899,1.0275142,3.584815,-7.920019,-8.75799,-1.1971009
0.75893813,4.405661,-1.6774899,1.0275142,3.584815,-7.920019,-8.75799,-1.1971009
0.7620224,4.4021583,-1.6306182,1.0637332,3.4932024,-9.212888,-8.0924015,-1.8435353
0.765099,4.398633,-1.6306182,1.0637332,3.4932024,-9.212888,-8.0924015,-1.8435353
0.76813793,4.3950295,-1.5624413,1.0850385,3.414373,-10.5440645,-6.7947445,-2.6910827
0.7711754,4.3913975,-1.5624413,1.0850385,3.414373,-10.5440645,-6.7947445,-2.6910827
0.774133,4.3878207,-1.5038518,1.082908,3.341935,-11.281479,-6.5026517,-2.896984
0.77708954,4.3842154,-1.5038518,1.082908,3.341935,-11.281479,-6.5026517,-2.896984
0.77997035,4.380703,-1.4612412,1.0562764,3.2673664,-11.286267,-6.655881,-2.6862943
0.78284395,4.37717,-1.4612412,1.0562764,3.2673664,-11.286267,-6.655881,-2.6862943
0.7856565,4.373721,-1.4260875,1.0168616,3.189602,-11.252748,-7.053318,-2.5474305
0.78845626,4.3702607,-1.4260875,1.0168616,3.189602,-11.252748,-7.053318,-2.5474305
0.79117507,4.3669057,-1.3951948,0.9753163,3.1065114,-11.042058,-7.3310456,-2.3798366
0.79389685,4.36352,-1.3951948,0.9753163,3.1065114,-11.042058,-7.3310456,-2.3798366
0.7965342,4.360231,-1.3611063,0.93803203,3.0180945,-11.018116,-7.5704656,-2.4133554
0.7992299,4.3568425,-1.3611063,0.93803203,3.0180945,-11.018116,-7.5704656,-2.4133554
0.80170286,4.3537207,-1.323822,0.9039436,2.9211555,-11.128249,-7.7907324,-2.360683
0.80423707,4.350497,-1.323822,0.9039436,2.9211555,-11.128249,-7.7907324,-2.360683
0.8066706,4.347372,-1.2854725,0.8741162,2.8178246,-11.36767,-7.848193,-2.3511062
0.8091069,4.344221,-1.2854725,0.8741162,2.8178246,-11.36767,-7.848193,-2.3511062
0.8114507,4.341162,-1.242862,0.8432235,2.714494,-11.678916,-7.85777,-2.5330653
0.81378806,4.33809,-1.242862,0.8432235,2.714494,-11.678916,-7.85777,-2.5330653
0.8160507,4.3350973,-1.1970556,0.81020033,2.6143591,-12.071565,-7.7811556,-2.6671407
0.8183027,4.3320975,-1.1970556,0.81020033,2.6143591,-12.071565,-7.7811556,-2.6671407
0.8204732,4.329202,-1.1459229,0.77398133,2.5163548,-12.430696,-7.7093296,-2.791639
0.82264066,4.326291,-1.1459229,0.77398133,2.5163548,-12.430696,-7.7093296,-2.791639
0.8247367,4.323484,-1.0958555,0.73563176,2.4258075,-12.727576,-7.6135616,-2.825158
0.82682353,4.3206716,-1.0958555,0.73563176,2.4258075,-12.727576,-7.6135616,-2.825158
0.82884103,4.3179693,-1.0489838,0.69728225,2.339521,-12.957419,-7.6710224,-2.767697
0.8311911,4.3148003,-1.0489838,0.69728225,2.339521,-12.957419,-7.6710224,-2.767697
0.8328262,4.3126082,-1.0031775,0.66212857,2.2564304,-13.10586,-7.785944,-2.7964275
0.83476037,4.310001,-1.0031775,0.66212857,2.2564304,-13.10586,-7.785944,-2.7964275
0.83662176,4.307498,-0.9616322,0.6333664,2.1754704,-13.297397,-7.9631147,-2.801216
0.8384825,4.304981,-0.9616322,0.6333664,2.1754704,-13.297397,-7.9631147,-2.801216
0.84028226,4.3025384,-0.9232826,0.61206114,2.09451,-13.498509,-8.145074,-2.9352913
0.8420737,4.300092,-0.9232826,0.61206114,2.09451,-13.498509,-8.145074,-2.9352913
0.8437991,4.297718,-0.8891942,0.59608215,2.0146153,-13.666103,-8.307879,-3.0310593
0.84551823,4.2953386,-0.8891942,0.59608215,2.0146153,-13.666103,-8.307879,-3.0310593
0.84720117,4.292986,-0.856171,0.5811685,1.9336553,-13.809755,-8.571242,-3.2800562
0.848821,4.2907085,-0.856171,0.5811685,1.9336553,-13.809755,-8.571242,-3.2800562
0.85038674,4.288471,-0.824213,0.57158107,1.8484341,-13.934254,-8.714894,-3.4715924
0.85195476,4.2862186,-0.824213,0.57158107,1.8484341,-13.934254,-8.714894,-3.4715924
0.85344654,4.284031,-0.79332036,0.5641242,1.7610824,-14.111424,-8.90643,-3.7014358
0.8549365,4.2818346,-0.79332036,0.5641242,1.7610824,-14.111424,-8.90643,-3.7014358
0.85633576,4.2797303,-0.7592319,0.55773264,1.6684043,-14.111424,-9.136273,-3.7588966
0.85773027,4.2776237,-0.7592319,0.55773264,1.6684043,-14.111424,-9.136273,-3.7588966
0.8590561,4.2755766,-0.7208824,0.5502758,1.5735959,-14.192827,-9.308656,-3.9073372
0.8603574,4.2735586,-0.7208824,0.5502758,1.5735959,-14.192827,-9.308656,-3.9073372
0.86158365,4.2716155,-0.67401075,0.5406884,1.4755915,-14.159308,-9.332599,-4.1371803
0.8628178,4.269652,-0.67401075,0.5406884,1.4755915,-14.159308,-9.332599,-4.1371803
0.8640407,4.2676764,-0.618617,0.52684,1.3743913,-14.101848,-9.3182335,-4.2185836
0.86511415,4.265937,-0.618617,0.52684,1.3743913,-14.101848,-9.3182335,-4.2185836
0.8661478,4.2642484,-0.55683166,0.5076652,1.2699955,-13.8959465,-9.313444,-4.295198
0.86718976,4.2625403,-0.55683166,0.5076652,1.2699955,-13.8959465,-9.313444,-4.295198
0.8681442,4.260974,-0.48758948,0.48742518,1.1613384,-13.642161,-9.370906,-4.333505
0.8691014,4.2593975,-0.48758948,0.48742518,1.1613384,-13.642161,-9.370906,-4.333505
0.869964,4.2579737,-0.41302097,0.4661199,1.0505509,-13.28782,-9.375694,-4.4675803
0.8708205,4.256557,-0.41302097,0.4661199,1.0505509,-13.28782,-9.375694,-4.4675803
0.87159514,4.2552676,-0.33099562,0.44374934,0.9355024,-13.081918,-9.26556,-4.5298295
0.8723734,4.2539716,-0.33099562,0.44374934,0.9355024,-13.081918,-9.26556,-4.5298295
0.873051,4.252836,-0.24364392,0.4213788,0.8183233,-12.904747,-9.208099,-4.5777135
0.8737333,4.2516937,-0.24364392,0.4213788,0.8183233,-12.904747,-9.208099,-4.5777135
0.8743075,4.2506523,-0.15522698,0.3990082,0.70220953,-12.674904,-9.040505,-4.663905
0.8748857,4.2496057,-0.15522698,0.3990082,0.70220953,-12.674904,-9.040505,-4.663905
0.8753632,4.248716,-0.06467949,0.37663767,0.58716094,-12.483368,-8.844181,-4.630386
0.8758441,4.247822,-0.06467949,0.37663767,0.58716094,-12.483368,-8.844181,-4.630386
0.87622935,4.247045,0.026933251,0.35426712,0.47317764,-12.272678,-8.599973,-4.6399627
0.87658924,4.246319,0.026933251,0.35426712,0.47317764,-12.272678,-8.599973,-4.6399627
0.8768342,4.245743,0.1153502,0.32976604,0.36132488,-11.99495,-8.360553,-4.673482
0.87708384,4.2451553,0.1153502,0.32976604,0.36132488,-11.99495,-8.360553,-4.673482
0.8772344,4.244731,0.20163663,0.30526495,0.2526679,-11.712435,-8.121132,-4.654328
0.87738705,4.2443004,0.20163663,0.30526495,0.2526679,-11.712435,-8.121132,-4.654328
0.87746173,4.2440414,0.2825967,0.28076386,0.14614145,-11.449073,-7.819463,-4.5537715
0.87753606,4.243784,0.2825967,0.28076386,0.14614145,-11.449073,-7.819463,-4.5537715
0.8775178,4.243673,0.35716522,0.25839332,0.0460066,-11.056423,-7.5704656,-4.4819455
0.8774995,4.243561,0.35716522,0.25839332,0.0460066,-11.056423,-7.5704656,-4.4819455
0.8774123,4.243599,0.42747268,0.2349575,-0.0498672,-10.769119,-7.2592196,-4.381389
0.87732506,4.2436366,0.42747268,0.2349575,-0.0498672,-10.769119,-7.2592196,-4.381389
0.8771639,4.2438116,0.49351907,0.21152169,-0.13828415,-10.577583,-7.005434,-4.414908
0.877004,4.243986,0.49351907,0.21152169,-0.13828415,-10.577583,-7.005434,-4.414908
0.87679964,4.244294,0.5510434,0.1870206,-0.21711372,-10.366894,-6.6893997,-4.256891
0.8765962,4.2446012,0.5510434,0.1870206,-0.21711372,-10.366894,-6.6893997,-4.256891
0.87635267,4.245021,0.59898025,0.16145425,-0.28316012,-10.342952,-6.4499793,-4.261679
0.8761063,4.245445,0.59898025,0.16145425,-0.28316012,-10.342952,-6.4499793,-4.261679
0.8758142,4.2459626,0.6383951,0.13056158,-0.33961913,-9.950302,-6.2009826,-4.2281604
0.8755221,4.2464805,0.6383951,0.13056158,-0.33961913,-9.950302,-6.2009826,-4.2281604
0.8751723,4.247084,0.670353,0.10179944,-0.38755605,-9.284714,-6.0525417,-4.0940847
0.8748283,4.2476783,0.670353,0.10179944,-0.38755605,-9.284714,-6.0525417,-4.0940847
0.87444204,4.2483454,0.6937888,0.08049415,-0.42590556,-8.781932,-5.947197,-3.8546648
0.8740582,4.249008,0.6937888,0.08049415,-0.42590556,-8.781932,-5.947197,-3.8546648
0.87363845,4.2497168,0.70976776,0.07090677,-0.45679823,-8.346188,-5.770026,-3.6774938
0.8732193,4.250425,0.70976776,0.07090677,-0.45679823,-8.346188,-5.770026,-3.6774938
0.87277514,4.2511563,0.71935517,0.06877624,-0.47916877,-8.087613,-5.626374,-3.6056678
0.8723358,4.2518806,0.71935517,0.06877624,-0.47916877,-8.087613,-5.626374,-3.6056678
0.8718844,4.252622,0.72574675,0.071972035,-0.49514773,-7.881712,-5.3438582,-3.572149
0.8714303,4.253368,0.72574675,0.071972035,-0.49514773,-7.881712,-5.3438582,-3.572149
0.87096596,4.2541084,0.72574675,0.0762331,-0.50793093,-7.61835,-5.104438,-3.53863
0.87050277,4.2548475,0.72574675,0.0762331,-0.50793093,-7.61835,-5.104438,-3.53863
0.8700211,4.2555847,0.7204204,0.08049415,-0.52177936,-7.3549876,-4.9081135,-3.490746
0.869537,4.2563257,0.7204204,0.08049415,-0.52177936,-7.3549876,-4.9081135,-3.490746
0.8690446,4.2570467,0.70763725,0.086885735,-0.5313667,-7.1826053,-4.7500963,-3.4620156
0.86855394,4.2577653,0.70763725,0.086885735,-0.5313667,-7.1826053,-4.7500963,-3.4620156
0.8680347,4.258465,0.6884625,0.09434259,-0.53775835,-6.7947445,-4.6686935,-3.3806129
0.86745393,4.2592473,0.6884625,0.09434259,-0.53775835,-6.7947445,-4.6686935,-3.3806129
0.86745393,4.2592473,0.6884625,0.09434259,-0.53775835,-6.7947445,-4.6686935,-3.3806129
0.86745393,4.2592473,0.6884625,0.09434259,-0.53775835,-6.7947445,-4.6686935,-3.3806129
0.86745393,4.2592473,0.63306874,0.12523526,-0.5409541,-6.459556,-4.5633483,-3.3279405
0.86528975,4.2616706,0.63306874,0.12523526,-0.5409541,-6.459556,-4.5633483,-3.3279405
0.86474407,4.262212,0.59684974,0.1476058,-0.53775835,-6.3206925,-4.525041,-3.2321723
0.86419773,4.262753,0.59684974,0.1476058,-0.53775835,-6.3206925,-4.525041,-3.2321723
0.86358756,4.263278,0.5553044,0.16997637,-0.532432,-6.253655,-4.486734,-3.1842883
0.8630932,4.263704,0.5553044,0.16997637,-0.532432,-6.253655,-4.486734,-3.1842883
0.86252373,4.264111,0.5105633,0.19554271,-0.52177936,-6.090849,-4.462792,-3.1890767
0.8619542,4.264518,0.5105633,0.19554271,-0.52177936,-6.090849,-4.462792,-3.1890767
0.8613886,4.264839,0.46475694,0.22537012,-0.5026046,-6.0238113,-4.4244847,-3.0933087
0.8608243,4.265159,0.46475694,0.22537012,-0.5026046,-6.0238113,-4.4244847,-3.0933087
0.8602557,4.265391,0.41895056,0.25945857,-0.47916877,-5.8705826,-4.4340615,-3.0454245
0.85968596,4.265622,0.41895056,0.25945857,-0.47916877,-5.8705826,-4.4340615,-3.0454245
0.8591147,4.2657604,0.37207893,0.29567757,-0.45040664,-5.7508726,-4.453215,-3.0358477
0.8585454,4.2658973,0.37207893,0.29567757,-0.45040664,-5.7508726,-4.453215,-3.0358477
0.8579861,4.2659364,0.32627258,0.33402708,-0.41844872,-5.7125654,-4.501099,-3.0454245
0.8574246,4.265975,0.32627258,0.33402708,-0.41844872,-5.7125654,-4.501099,-3.0454245
0.85687935,4.26591,0.28153145,0.37344187,-0.38436025,-5.66947,-4.453215,-3.0310593
0.8563353,4.2658453,0.28153145,0.37344187,-0.38436025,-5.66947,-4.453215,-3.0310593
0.85580903,4.2656784,0.23892088,0.41285667,-0.3460107,-5.717354,-4.4819455,-2.9975405
0.85527956,4.2655096,0.23892088,0.41285667,-0.3460107,-5.717354,-4.4819455,-2.9975405
0.85476965,4.265247,0.19844083,0.45120618,-0.3076612,-5.6982,-4.501099,-2.930503
0.854258,4.264983,0.19844083,0.45120618,-0.3076612,-5.6982,-4.501099,-2.930503
0.8537712,4.2646265,0.1632871,0.48742518,-0.26931167,-5.765238,-4.510676,-2.906561
0.853284,4.26427,0.1632871,0.48742518,-0.26931167,-5.765238,-4.510676,-2.906561
0.8528146,4.263833,0.13452496,0.52151364,-0.22776636,-5.841852,-4.6160207,-2.7820623
0.85234535,4.2633967,0.13452496,0.52151364,-0.22776636,-5.841852,-4.6160207,-2.7820623
0.85187775,4.262904,0.11215441,0.5502758,-0.18515578,-5.7748146,-4.6830587,-2.60968
0.8514128,4.2624145,0.11215441,0.5502758,-0.18515578,-5.7748146,-4.6830587,-2.60968
0.8509631,4.261869,0.09617544,0.57584214,-0.14147994,-5.837064,-4.783615,-2.6192567
0.85051334,4.2613244,0.09617544,0.57584214,-0.14147994,-5.837064,-4.783615,-2.6192567
0.85008514,4.260736,0.08552279,0.59608215,-0.09673884,-5.9041014,-4.8602295,-2.6001031
0.84965736,4.26015,0.08552279,0.59608215,-0.09673884,-5.9041014,-4.8602295,-2.6001031
0.84927297,4.2595153,0.07806595,0.60780007,-0.050932467,-6.0046577,-4.8985367,-2.6192567
0.84888756,4.2588806,0.07806595,0.60780007,-0.050932467,-6.0046577,-4.8985367,-2.6192567
0.8485173,4.258238,0.073804885,0.6131264,-0.008321887,-6.0477533,-4.9799395,-2.585738
0.8481481,4.2576,0.073804885,0.6131264,-0.008321887,-6.0477533,-4.9799395,-2.585738
0.8477772,4.257015,0.07060909,0.6152569,0.03428869,-6.019023,-5.032612,-2.4756045
0.84740424,4.2564316,0.07060909,0.6152569,0.03428869,-6.019023,-5.032612,-2.4756045
0.84706974,4.2558312,0.0674133,0.6131264,0.075834006,-5.971139,-5.0278234,-2.4756045
0.84673506,4.2552347,0.0674133,0.6131264,0.075834006,-5.971139,-5.0278234,-2.4756045
0.8464446,4.254721,0.06421751,0.6099306,0.11311826,-5.9902925,-5.085284,-2.3654714
0.84615445,4.25421,0.06421751,0.6099306,0.11311826,-5.9902925,-5.085284,-2.3654714
0.8459081,4.253704,0.062086977,0.60566956,0.14720672,-6.033388,-5.0661306,-2.3558946
0.84566003,4.2531934,0.062086977,0.60566956,0.14720672,-6.033388,-5.0661306,-2.3558946
0.8453408,4.2524276,0.058891185,0.5992779,0.17703412,-6.0764837,-5.0134583,-2.3750482
0.8452328,4.252167,0.058891185,0.5992779,0.17703412,-6.0764837,-5.0134583,-2.3750482
0.8450924,4.251687,0.054630127,0.58969057,0.20260048,-6.0621185,-4.951209,-2.327164
0.8449527,4.251205,0.054630127,0.58969057,0.20260048,-6.0621185,-4.951209,-2.327164
0.844887,4.2507186,0.04823854,0.5769074,0.22070996,-6.105214,-4.9464207,-2.255338
0.84482104,4.2502294,0.04823854,0.5769074,0.22070996,-6.105214,-4.9464207,-2.255338
0.8447992,4.249734,0.040781688,0.5609284,0.23349315,-6.172252,-4.951209,-2.2170308
0.84477735,4.2492433,0.040781688,0.5609284,0.23349315,-6.172252,-4.951209,-2.2170308
0.84474564,4.248767,0.032259572,0.5406884,0.24201526,-6.1530986,-5.0374002,-2.1930888
0.84471387,4.2482867,0.032259572,0.5406884,0.24201526,-6.1530986,-5.0374002,-2.1930888
0.84469354,4.247822,0.024802722,0.51938313,0.24947211,-6.205771,-5.094861,-2.2218192
0.84467304,4.2473555,0.024802722,0.51938313,0.24947211,-6.205771,-5.094861,-2.2218192
0.84468585,4.246901,0.018411135,0.49488202,0.25373316,-6.244078,-5.0996494,-2.1021092
0.84469825,4.2464457,0.018411135,0.49488202,0.25373316,-6.244078,-5.0996494,-2.1021092
0.844735,4.2460117,0.0141500775,0.46505463,0.2558637,-6.3302693,-5.104438,-2.1883004
0.84477115,4.245578,0.0141500775,0.46505463,0.2558637,-6.3302693,-5.104438,-2.1883004
0.84484196,4.245162,0.010954284,0.43416196,0.25692895,-6.445191,-5.0996494,-2.1691468
0.8449128,4.2447453,0.010954284,0.43416196,0.25692895,-6.445191,-5.0996494,-2.1691468
0.8449852,4.244368,0.010954284,0.40113875,0.25799423,-6.3781533,-5.12838,-2.0925324
0.845057,4.243991,0.010954284,0.40113875,0.25799423,-6.3781533,-5.12838,-2.0925324
0.8451443,4.2436514,0.0141500775,0.3670503,0.2590595,-6.3829417,-5.133168,-2.111686
0.8452313,4.2433114,0.0141500775,0.3670503,0.2590595,-6.3829417,-5.133168,-2.111686
0.8453345,4.2430124,0.020541664,0.33189657,0.25799423,-6.411672,-5.1666875,-1.982399
0.84543735,4.2427135,0.020541664,0.33189657,0.25799423,-6.411672,-5.1666875,-1.982399
0.84556943,4.242456,0.030129045,0.29354703,0.25692895,-6.5361705,-5.161899,-1.9488802
0.8457018,4.242197,0.030129045,0.29354703,0.25692895,-6.5361705,-5.161899,-1.9488802
0.84586155,4.2419877,0.043977484,0.25413227,0.25799423,-6.5936313,-5.118803,-1.9871874
0.8460217,4.2417765,0.043977484,0.25413227,0.25799423,-6.5936313,-5.118803,-1.9871874
0.8462006,4.241621,0.05782592,0.21365221,0.26012474,-6.646304,-5.171476,-2.0254946
0.84637934,4.2414646,0.05782592,0.21365221,0.26012474,-6.646304,-5.171476,-2.0254946
0.8465867,4.241359,0.073804885,0.17210689,0.26545107,-6.7803793,-5.21936,-1.9967642
0.846794,4.241254,0.073804885,0.17210689,0.26545107,-6.7803793,-5.21936,-1.9967642
0.8470236,4.2412014,0.08871859,0.13162684,0.2707774,-6.8186865,-5.2241483,-1.8770541
0.8472549,4.241148,0.08871859,0.13162684,0.2707774,-6.8186865,-5.2241483,-1.8770541
0.84750307,4.2411475,0.102567025,0.09434259,0.27610373,-6.6846113,-5.1762643,-1.9153614
0.8477492,4.241147,0.102567025,0.09434259,0.27610373,-6.6846113,-5.1762643,-1.9153614
0.84801954,4.241187,0.11641546,0.060254127,0.28356057,-6.8330517,-5.233725,-1.9009962
0.84829223,4.241227,0.11641546,0.060254127,0.28356057,-6.8330517,-5.233725,-1.9009962
0.8485902,4.241306,0.12919864,0.030426722,0.2888869,-6.8905125,-5.21936,-1.8531121
0.8488835,4.241383,0.12919864,0.030426722,0.2888869,-6.8905125,-5.21936,-1.8531121
0.84920096,4.2414865,0.13985129,0.0069909045,0.2942132,-6.9527617,-5.171476,-1.8483237
0.84951663,4.2415895,0.13985129,0.0069909045,0.2942132,-6.9527617,-5.171476,-1.8483237
0.84983456,4.241722,0.14730814,-0.008988062,0.2952785,-6.9479733,-5.2480903,-1.7812861
0.8501534,4.2418556,0.14730814,-0.008988062,0.2952785,-6.9479733,-5.2480903,-1.7812861
0.8504766,4.2420015,0.15050393,-0.020705972,0.2952785,-7.1395097,-5.3486466,-1.7669208
0.850801,4.2421474,0.15050393,-0.020705972,0.2952785,-7.1395097,-5.3486466,-1.7669208
0.8511251,4.242307,0.15156919,-0.030293351,0.2888869,-7.321469,-5.449203,-1.7190368
0.8514483,4.242466,0.15156919,-0.030293351,0.2888869,-7.321469,-5.449203,-1.7190368
0.85176337,4.2426424,0.15156919,-0.03881547,0.27610373,-7.431602,-5.5641246,-1.8339585
0.8520783,4.2428184,0.15156919,-0.03881547,0.27610373,-7.431602,-5.5641246,-1.8339585
0.8523794,4.2430143,0.15050393,-0.048402846,0.25692895,-7.5561004,-5.674258,-1.8818425
0.85268027,4.2432103,0.15050393,-0.048402846,0.25692895,-7.5561004,-5.674258,-1.8818425
0.8529555,4.2434363,0.1483734,-0.06118602,0.23136261,-7.608773,-5.837064,-1.8626889
0.8532304,4.2436624,0.1483734,-0.06118602,0.23136261,-7.608773,-5.837064,-1.8626889
0.85347974,4.24392,0.14411235,-0.077164985,0.20046994,-7.723695,-5.9998693,-1.8962077
0.8537292,4.2441773,0.14411235,-0.077164985,0.20046994,-7.723695,-5.9998693,-1.8962077
0.8539557,4.244476,0.14411235,-0.09847028,0.16531622,-7.8146744,-6.081272,-1.8914193
0.85418224,4.2447743,0.14411235,-0.09847028,0.16531622,-7.8146744,-6.081272,-1.8914193
0.854374,4.245129,0.14730814,-0.124036625,0.12164038,-7.809886,-6.181829,-1.982399
0.8545658,4.245484,0.14730814,-0.124036625,0.12164038,-7.809886,-6.181829,-1.982399
0.8547229,4.2459025,0.15369973,-0.15279876,0.071572945,-7.771579,-6.1866174,-2.006341
0.85487974,4.246321,0.15369973,-0.15279876,0.071572945,-7.771579,-6.1866174,-2.006341
0.85500044,4.246814,0.1664829,-0.1847567,0.018309724,-7.7093296,-6.196194,-1.8866309
0.8551206,4.247307,0.1664829,-0.1847567,0.018309724,-7.7093296,-6.196194,-1.8866309
0.85521144,4.247884,0.18778819,-0.21884516,-0.037084028,-7.7093296,-6.1100025,-2.0015526
0.85530204,4.2484603,0.18778819,-0.21884516,-0.037084028,-7.7093296,-6.1100025,-2.0015526
0.85537326,4.2491217,0.21655032,-0.25399888,-0.092477776,-7.824251,-5.9998693,-1.9440918
0.8554441,4.2497835,0.21655032,-0.25399888,-0.092477776,-7.824251,-5.9998693,-1.9440918
0.8554969,4.2505407,0.25276932,-0.2923484,-0.14254521,-7.896077,-5.9280434,-2.0111294
0.8555495,4.2512975,0.25276932,-0.2923484,-0.14254521,-7.896077,-5.9280434,-2.0111294
0.8555901,4.252154,0.29431462,-0.33389372,-0.18728632,-7.9822683,-5.8562174,-2.0207062
0.85563064,4.2530103,0.29431462,-0.33389372,-0.18728632,-7.9822683,-5.8562174,-2.0207062
0.85566837,4.2539687,0.34225154,-0.37756956,-0.22244005,-8.087613,-5.8226986,-2.1021092
0.8557061,4.254927,0.34225154,-0.37756956,-0.22244005,-8.087613,-5.8226986,-2.1021092
0.85574794,4.255989,0.39551476,-0.4212454,-0.24587587,-8.1163435,-5.7508726,-2.0973208
0.8557897,4.25705,0.39551476,-0.4212454,-0.24587587,-8.1163435,-5.7508726,-2.0973208
0.8558423,4.258213,0.4509085,-0.46385598,-0.25865903,-8.135497,-5.7125654,-2.111686
0.85589486,4.2593746,0.4509085,-0.46385598,-0.25865903,-8.135497,-5.7125654,-2.111686
0.85597295,4.260619,0.5031065,-0.50327075,-0.25865903,-8.1642275,-5.6646814,-2.1930888
0.8560506,4.2618637,0.5031065,-0.50327075,-0.25865903,-8.1642275,-5.6646814,-2.1930888
0.8561598,4.26318,0.55210865,-0.53948975,-0.24800639,-8.154651,-5.631162,-2.2697031
0.8562689,4.264495,0.55210865,-0.53948975,-0.24800639,-8.154651,-5.631162,-2.2697031
0.85641974,4.2658525,0.59684974,-0.56931716,-0.23096216,-8.101978,-5.5018754,-2.3702598
0.8565705,4.267209,0.59684974,-0.56931716,-0.23096216,-8.101978,-5.5018754,-2.3702598
0.8567589,4.268599,0.6362645,-0.59168774,-0.20752634,-8.078036,-5.434838,-2.432509
0.856948,4.2699943,0.6362645,-0.59168774,-0.20752634,-8.078036,-5.434838,-2.432509
0.857174,4.271421,0.66502666,-0.6087319,-0.18195999,-8.0684595,-5.3582234,-2.4612393
0.85739326,4.272805,0.66502666,-0.6087319,-0.18195999,-8.0684595,-5.3582234,-2.4612393
0.8576465,4.274218,0.68313617,-0.62044984,-0.15745892,-8.073248,-5.377377,-2.5330653
0.8578967,4.275614,0.68313617,-0.62044984,-0.15745892,-8.073248,-5.377377,-2.5330653
0.85816675,4.2770343,0.6937888,-0.6257762,-0.1372189,-8.054094,-5.425261,-2.5139117
0.85843724,4.2784557,0.6937888,-0.6257762,-0.1372189,-8.054094,-5.425261,-2.5139117
0.8587178,4.2798877,0.69591933,-0.6268414,-0.120174654,-8.0924015,-5.5162406,-2.4756045
0.8589987,4.281321,0.69591933,-0.6268414,-0.120174654,-8.0924015,-5.5162406,-2.4756045
0.85929006,4.2827477,0.690593,-0.6257762,-0.107391484,-8.145074,-5.602432,-2.4995465
0.8595813,4.2841725,0.690593,-0.6257762,-0.107391484,-8.145074,-5.602432,-2.4995465
0.8598717,4.2855835,0.6810056,-0.6247109,-0.10099989,-8.159439,-5.717354,-2.5139117
0.86016357,4.286999,0.6810056,-0.6247109,-0.10099989,-8.159439,-5.717354,-2.5139117
0.8604352,4.2884426,0.6671572,-0.6225804,-0.10099989,-8.226477,-5.865794,-2.3989902
0.8607089,4.289895,0.6671572,-0.6225804,-0.10099989,-8.226477,-5.865794,-2.3989902
0.8609749,4.291377,0.650113,-0.6193846,-0.10526095,-8.231265,-5.9807158,-2.4181437
0.8612275,4.2927823,0.650113,-0.6193846,-0.10526095,-8.231265,-5.9807158,-2.4181437
0.8614644,4.2942276,0.634134,-0.6193846,-0.1159136,-8.255207,-6.066907,-2.3798366
0.8618446,4.296548,0.634134,-0.6193846,-0.1159136,-8.255207,-6.066907,-2.3798366
0.8618446,4.296548,0.634134,-0.6193846,-0.1159136,-8.255207,-6.066907,-2.3798366
0.86219853,4.2990456,0.6192203,-0.6247109,-0.13615362,-8.283937,-6.1004257,-2.2409728
0.8623139,4.30005,0.6075024,-0.633233,-0.1638505,-8.236053,-6.1866174,-2.231396
0.8624928,4.3016047,0.6075024,-0.633233,-0.1638505,-8.236053,-6.1866174,-2.231396
0.862637,4.3030763,0.6000455,-0.6406899,-0.19580843,-8.288726,-6.220136,-2.2744915
0.862637,4.3030763,0.6000455,-0.6406899,-0.19580843,-8.288726,-6.220136,-2.2744915
0.86292404,4.3060675,0.597915,-0.65027726,-0.23202743,-8.250419,-6.220136,-2.3415294
0.8630387,4.307527,0.597915,-0.65027726,-0.23202743,-8.250419,-6.220136,-2.3415294
0.8631075,4.3090777,0.59684974,-0.6609299,-0.27250746,-8.255207,-6.291962,-2.2505496
0.8631763,4.3106327,0.59684974,-0.6609299,-0.27250746,-8.255207,-6.291962,-2.2505496
0.8632136,4.31222,0.59684974,-0.6737131,-0.3140528,-8.236053,-6.2871737,-2.2936451
0.8632511,4.3138094,0.59684974,-0.6737131,-0.3140528,-8.236053,-6.2871737,-2.2936451
0.8632608,4.315419,0.59684974,-0.68436575,-0.35453284,-8.312668,-6.26802,-2.2361844
0.8632708,4.317029,0.59684974,-0.68436575,-0.35453284,-8.312668,-6.26802,-2.2361844
0.86325395,4.318658,0.5957845,-0.69288784,-0.39394763,-8.394072,-6.196194,-2.135628
0.8632368,4.320297,0.5957845,-0.69288784,-0.39394763,-8.394072,-6.196194,-2.135628
0.8631738,4.321947,0.5957845,-0.69608366,-0.4333624,-8.532935,-6.2584434,-1.934515
0.86311036,4.3236027,0.5957845,-0.69608366,-0.4333624,-8.532935,-6.2584434,-1.934515
0.8630167,4.325258,0.59471923,-0.6939531,-0.47064665,-8.75799,-6.2967505,-1.9057846
0.86292243,4.326916,0.59471923,-0.6939531,-0.47064665,-8.75799,-6.2967505,-1.9057846
0.8627831,4.3285837,0.59258866,-0.685431,-0.51006144,-8.992621,-6.4739213,-1.8626889
0.8626426,4.3302507,0.59258866,-0.685431,-0.51006144,-8.992621,-6.4739213,-1.8626889
0.8624661,4.331908,0.58832765,-0.6715826,-0.5473457,-9.232041,-6.588843,-1.9201498
0.862289,4.3335643,0.58832765,-0.6715826,-0.5473457,-9.232041,-6.588843,-1.9201498
0.8620647,4.335218,0.5798055,-0.6577341,-0.5856952,-9.452309,-6.8330517,-1.9536686
0.8618398,4.3368697,0.5798055,-0.6577341,-0.5856952,-9.452309,-6.8330517,-1.9536686
0.8615579,4.3385143,0.5670223,-0.6396246,-0.6283058,-9.677363,-7.1634517,-2.0015526
0.8612748,4.34016,0.5670223,-0.6396246,-0.6283058,-9.677363,-7.1634517,-2.0015526
0.860937,4.341794,0.5510434,-0.6247109,-0.6730469,-9.9550905,-7.465121,-2.0207062
0.8605982,4.343429,0.5510434,-0.6247109,-0.6730469,-9.9550905,-7.465121,-2.0207062
0.86020654,4.345059,0.53612965,-0.6161888,-0.72631013,-10.093954,-7.642292,-2.1930888
0.8598147,4.346686,0.53612965,-0.6161888,-0.72631013,-10.093954,-7.642292,-2.1930888
0.8593631,4.348323,0.5233465,-0.61405826,-0.78596497,-10.275913,-7.8290396,-2.255338
0.8589116,4.3499565,0.5233465,-0.61405826,-0.78596497,-10.275913,-7.8290396,-2.255338
0.8583966,4.351612,0.51162857,-0.61831933,-0.8530766,-10.366894,-7.896077,-2.2457612
0.85788107,4.3532653,0.51162857,-0.61831933,-0.8530766,-10.366894,-7.896077,-2.2457612
0.85729754,4.354945,0.5020412,-0.6311025,-0.92977566,-10.381259,-7.929596,-2.2218192
0.85671455,4.356621,0.5020412,-0.6311025,-0.92977566,-10.381259,-7.929596,-2.2218192
0.8560411,4.3583655,0.4988454,-0.6513425,-1.0171273,-10.357317,-8.015787,-2.1260512
0.85537285,4.360092,0.4988454,-0.6513425,-1.0171273,-10.357317,-8.015787,-2.1260512
0.8546214,4.361887,0.49991068,-0.6790394,-1.1108706,-10.304645,-8.034941,-2.1452048
0.8538679,4.3636827,0.49991068,-0.6790394,-1.1108706,-10.304645,-8.034941,-2.1452048
0.8530252,4.3655567,0.50630224,-0.7120626,-1.2110054,-10.213664,-8.001422,-1.9967642
0.85218024,4.3674297,0.50630224,-0.7120626,-1.2110054,-10.213664,-8.001422,-1.9967642
0.8512454,4.3693914,0.5201507,-0.7482816,-1.3164667,-10.189722,-8.001422,-1.9249382
0.85031104,4.3713446,0.5201507,-0.7482816,-1.3164667,-10.189722,-8.001422,-1.9249382
0.84928584,4.3733892,0.5393255,-0.78343534,-1.4261888,-10.242394,-7.943961,-1.8004397
0.84825945,4.3754287,0.5393255,-0.78343534,-1.4261888,-10.242394,-7.943961,-1.8004397
0.84714717,4.377554,0.56382656,-0.81539327,-1.5348458,-10.352529,-7.848193,-1.7190368
0.84603345,4.3796716,0.56382656,-0.81539327,-1.5348458,-10.352529,-7.848193,-1.7190368
0.84482193,4.3818784,0.5893929,-0.8441554,-1.6477638,-10.500969,-7.833828,-1.5801731
0.8436089,4.384077,0.5893929,-0.8441554,-1.6477638,-10.500969,-7.833828,-1.5801731
0.8422998,4.386346,0.61282873,-0.8633302,-1.7596166,-10.745177,-7.8865004,-1.6089035
0.8409889,4.3886056,0.61282873,-0.8633302,-1.7596166,-10.745177,-7.8865004,-1.6089035
0.83958125,4.3909183,0.6309382,-0.8739828,-1.8693389,-11.056423,-7.9966335,-1.6903064
0.8381719,4.3932204,0.6309382,-0.8739828,-1.8693389,-11.056423,-7.9966335,-1.6903064
0.8366637,4.395562,0.64372134,-0.8771786,-1.9758654,-11.382035,-8.192958,-1.7860745
0.8351535,4.397893,0.64372134,-0.8771786,-1.9758654,-11.382035,-8.192958,-1.7860745
0.83354646,4.4002495,0.64691716,-0.8793091,-2.079196,-11.722012,-8.37013,-1.9009962
0.8319392,4.4025917,0.64691716,-0.8793091,-2.079196,-11.722012,-8.37013,-1.9009962
0.8302391,4.4049444,0.64159083,-0.8835702,-2.1835918,-12.042834,-8.537724,-2.0638018
0.82853526,4.407287,0.64159083,-0.8835702,-2.1835918,-12.042834,-8.537724,-2.0638018
0.8267317,4.40965,0.6277424,-0.89315754,-2.2869225,-12.191275,-8.78672,-2.1643584
0.8249291,4.4119945,0.6277424,-0.89315754,-2.2869225,-12.191275,-8.78672,-2.1643584
0.8230295,4.4143543,0.60537183,-0.90913653,-2.3902533,-12.301409,-9.074024,-2.3175871
0.8211277,4.4166994,0.60537183,-0.90913653,-2.3902533,-12.301409,-9.074024,-2.3175871
0.8191227,4.4190707,0.57874024,-0.93257236,-2.497845,-12.368446,-9.26556,-2.2984335
0.81711566,4.4214263,0.57874024,-0.93257236,-2.497845,-12.368446,-9.26556,-2.2984335
0.8150088,4.423799,0.5499781,-0.96133447,-2.6096976,-12.334928,-9.423578,-2.4181437
0.8128998,4.426155,0.5499781,-0.96133447,-2.6096976,-12.334928,-9.423578,-2.4181437
0.8106862,4.42854,0.5190854,-1.0018145,-2.727942,-12.20564,-9.44752,-2.4468741
0.80847025,4.4309077,0.5190854,-1.0018145,-2.727942,-12.20564,-9.44752,-2.4468741
0.80613285,4.433324,0.48925802,-1.0486861,-2.860035,-11.956643,-9.457097,-2.3942018
0.803793,4.4357214,0.48925802,-1.0486861,-2.860035,-11.956643,-9.457097,-2.3942018
0.8013135,4.4381843,0.46156114,-1.1008841,-3.0070412,-11.7268,-9.44752,-2.2888567
0.79883385,4.440624,0.46156114,-1.1008841,-3.0070412,-11.7268,-9.44752,-2.2888567
0.79620016,4.4431367,0.43706006,-1.1530821,-3.1647005,-11.496957,-9.3182335,-2.030283
0.7935639,4.445628,0.43706006,-1.1530821,-3.1647005,-11.496957,-9.3182335,-2.030283
0.7907747,4.4481726,0.41575477,-1.2020843,-3.3330123,-11.329363,-9.279925,-1.9871874
0.7879774,4.4506993,0.41575477,-1.2020843,-3.3330123,-11.329363,-9.279925,-1.9871874
0.7850104,4.4532843,0.3976453,-1.2468253,-3.513042,-11.252748,-9.275137,-1.8195933
0.7820348,4.4558496,0.3976453,-1.2468253,-3.513042,-11.252748,-9.275137,-1.8195933
0.7788746,4.4584646,0.38379684,-1.2809138,-3.7015936,-11.27669,-9.361329,-1.8387469
0.7757114,4.461053,0.38379684,-1.2809138,-3.7015936,-11.27669,-9.361329,-1.8387469
0.7723687,4.46367,0.36888313,-1.3107412,-3.9029288,-11.314998,-9.504981,-1.8818425
0.7690296,4.4662538,0.36888313,-1.3107412,-3.9029288,-11.314998,-9.504981,-1.8818425
0.7654804,4.4688773,0.35290417,-1.3395034,-4.1159816,-11.415554,-9.701305,-1.9488802
0.76191366,4.4714813,0.35290417,-1.3395034,-4.1159816,-11.415554,-9.701305,-1.9488802
0.75816846,4.4740834,0.33585995,-1.370396,-4.337557,-11.439496,-9.883265,-2.183512
0.7544037,4.4766655,0.33585995,-1.370396,-4.337557,-11.439496,-9.883265,-2.183512
0.75043184,4.479258,0.31668517,-1.410876,-4.565523,-11.391612,-10.108319,-2.4181437
0.74645,4.481822,0.31668517,-1.410876,-4.565523,-11.391612,-10.108319,-2.4181437
0.74223095,4.4844074,0.29751042,-1.458813,-4.7966857,-11.271901,-10.299856,-2.6240451
0.7380265,4.4869475,0.29751042,-1.458813,-4.7966857,-11.271901,-10.299856,-2.6240451
0.733584,4.4895144,0.2804662,-1.5131415,-5.0299788,-10.965444,-10.433931,-2.719813
0.7290901,4.492075,0.2804662,-1.5131415,-5.0299788,-10.965444,-10.433931,-2.719813
0.72438025,4.4946423,0.26981354,-1.5738616,-5.262206,-10.630256,-10.477027,-2.834735
0.7196469,4.4971886,0.26981354,-1.5738616,-5.262206,-10.630256,-10.477027,-2.834735
0.7148125,4.499713,0.26981354,-1.6388427,-5.494434,-10.242394,-10.295067,-2.8634653
0.7099253,4.5022326,0.26981354,-1.6388427,-5.494434,-10.242394,-10.295067,-2.8634653
0.70476,4.504835,0.28685778,-1.704889,-5.721335,-9.849746,-10.13705,-2.9496565
0.6995973,4.5074015,0.28685778,-1.704889,-5.721335,-9.849746,-10.13705,-2.9496565
0.6941606,4.5100746,0.3188157,-1.7666744,-5.9450407,-9.500193,-9.935937,-2.9017725
0.6888127,4.5126667,0.3188157,-1.7666744,-5.9450407,-9.500193,-9.935937,-2.9017725
0.6831988,4.515372,0.36781788,-1.825264,-6.1623545,-9.14585,-9.667787,-2.9113493
0.6775869,4.5180364,0.36781788,-1.825264,-6.1623545,-9.14585,-9.667787,-2.9113493
0.6717493,4.520806,0.4359948,-1.8763967,-6.367951,-8.762778,-9.557653,-2.8107927
0.665879,4.523549,0.4359948,-1.8763967,-6.367951,-8.762778,-9.557653,-2.8107927
0.6598803,4.5263643,0.5201507,-1.9211378,-6.559698,-8.470686,-9.409213,-2.7629087
0.6538716,4.529143,0.5201507,-1.9211378,-6.559698,-8.470686,-9.409213,-2.7629087
0.647681,4.532039,0.6202856,-1.9573568,-6.7375975,-8.24563,-9.255983,-2.5953147
0.64147955,4.5348973,0.6202856,-1.9573568,-6.7375975,-8.24563,-9.255983,-2.5953147
0.6351255,4.5378675,0.73213834,-1.9818578,-6.896322,-8.039729,-9.059659,-2.4516625
0.62875915,4.5407977,0.73213834,-1.9818578,-6.896322,-8.039729,-9.059659,-2.4516625
0.6222255,4.543846,0.85357845,-1.9978368,-7.033741,-7.9631147,-8.820239,-2.504335
0.6157502,4.5468216,0.85357845,-1.9978368,-7.033741,-7.9631147,-8.820239,-2.504335
0.60913086,4.5499177,0.9792797,-2.003163,-7.147724,-7.819463,-8.643068,-2.336741
0.6025102,4.552967,0.9792797,-2.003163,-7.147724,-7.819463,-8.643068,-2.336741
0.59579283,4.556109,1.1039156,-1.9978368,-7.23188,-7.809886,-8.432379,-2.336741
0.58906025,4.5592103,1.1039156,-1.9978368,-7.23188,-7.809886,-8.432379,-2.336741
0.58228064,4.5623827,1.2232252,-1.9839884,-7.2862086,-7.728483,-8.231265,-2.2505496
0.5754851,4.565515,1.2232252,-1.9839884,-7.2862086,-7.728483,-8.231265,-2.2505496
0.56865585,4.568714,1.335078,-1.9658788,-7.3128405,-7.489063,-8.09719,-2.0638018
0.56181073,4.5718737,1.335078,-1.9658788,-7.3128405,-7.489063,-8.09719,-2.0638018
0.5549577,4.5750804,1.4352129,-1.9445735,-7.3181667,-7.417237,-7.9487495,-1.982399
0.5481025,4.578243,1.4352129,-1.9445735,-7.3181667,-7.417237,-7.9487495,-1.982399
0.54124737,4.5814433,1.524695,-1.9243336,-7.2989917,-7.1395097,-7.776367,-1.9057846
0.5343832,4.584605,1.524695,-1.9243336,-7.2989917,-7.1395097,-7.776367,-1.9057846
0.527549,4.587796,1.6024594,-1.9030282,-7.2606425,-6.9383965,-7.6470804,-1.7429788
0.5207059,4.590949,1.6024594,-1.9030282,-7.2606425,-6.9383965,-7.6470804,-1.7429788
0.5139069,4.5941133,1.6663753,-1.8817229,-7.2052484,-6.6989765,-7.441179,-1.6711528
0.5070994,4.5972414,1.6663753,-1.8817229,-7.2052484,-6.6989765,-7.441179,-1.6711528
0.50035083,4.6003723,1.7185732,-1.861483,-7.1360064,-6.445191,-7.2113357,-1.5705963
0.49359426,4.6034684,1.7185732,-1.861483,-7.1360064,-6.445191,-7.2113357,-1.5705963
0.48690593,4.606557,1.7558575,-1.8423082,-7.058242,-6.220136,-6.9719152,-1.4652514
0.48020983,4.6096115,1.7558575,-1.8423082,-7.058242,-6.220136,-6.9719152,-1.4652514
0.47358903,4.612648,1.7792933,-1.8241987,-6.9740863,-5.813122,-6.6893997,-1.3024458
0.46696082,4.615652,1.7792933,-1.8241987,-6.9740863,-5.813122,-6.6893997,-1.3024458
0.4604162,4.618624,1.7867501,-1.8050239,-6.8824735,-5.4922986,-6.3781533,-1.1540052
0.45386413,4.6215672,1.7867501,-1.8050239,-6.8824735,-5.4922986,-6.3781533,-1.1540052
0.447398,4.624467,1.7814238,-1.784784,-6.78873,-5.0661306,-6.181829,-0.9816227
0.44091856,4.6273413,1.7814238,-1.784784,-6.78873,-5.0661306,-6.181829,-0.9816227
0.4345407,4.6301584,1.762249,-1.7677397,-6.6928563,-4.6830587,-5.851429,-0.82360536
0.42814994,4.6329513,1.762249,-1.7677397,-6.6928563,-4.6830587,-5.851429,-0.82360536
0.42184696,4.6356926,1.7302911,-1.752826,-6.599113,-4.2281604,-5.6359506,-0.5746084
0.41551858,4.638416,1.7302911,-1.752826,-6.599113,-4.2281604,-5.6359506,-0.5746084
0.40931365,4.64107,1.6866152,-1.7411081,-6.5043044,-3.7588966,-5.377377,-0.320823
0.4030845,4.643707,1.6866152,-1.7411081,-6.5043044,-3.7588966,-5.377377,-0.320823
0.39693654,4.6462793,1.6322868,-1.7272596,-6.409496,-3.3279405,-5.1571107,-0.1436521
0.39693654,4.6462793,1.6322868,-1.7272596,-6.409496,-3.3279405,-5.1571107,-0.1436521
0.39693654,4.6462793,1.6322868,-1.7272596,-6.409496,-3.3279405,-5.1571107,-0.1436521
0.37637758,4.6546216,1.5683709,-1.7091501,-6.320014,-3.0023289,-4.9703627,-0.033518825
0.37262842,4.656097,1.4916719,-1.6889101,-6.235858,-2.6671407,-4.879383,0.08619126
0.36635143,4.6585326,1.4916719,-1.6889101,-6.235858,-2.6671407,-4.879383,0.08619126
0.36034152,4.660783,1.4000591,-1.66867,-6.1538324,-2.384625,-4.7740383,0.21068975
0.35449272,4.6629524,1.4000591,-1.66867,-6.1538324,-2.384625,-4.7740383,0.21068975
0.35449272,4.6629524,1.3009895,-1.6473649,-6.0728726,-2.1739352,-4.7788267,0.35434186
0.34267938,4.6671257,1.3009895,-1.6473649,-6.0728726,-2.1739352,-4.7788267,0.35434186
0.3368789,4.669059,1.1944631,-1.6249943,-5.994043,-2.0207062,-4.7070007,0.4357447
0.33105534,4.6709833,1.1944631,-1.6249943,-5.994043,-2.0207062,-4.7070007,0.4357447
0.32524538,4.672786,1.0804797,-1.5983627,-5.9130826,-1.9057846,-4.7740383,0.50757074
0.31936625,4.6745944,1.0804797,-1.5983627,-5.9130826,-1.9057846,-4.7740383,0.50757074
0.31370962,4.676219,0.96436596,-1.5706657,-5.828927,-1.8914193,-4.7309427,0.50757074
0.3079852,4.677848,0.96436596,-1.5706657,-5.828927,-1.8914193,-4.7309427,0.50757074
0.30232367,4.6793394,0.84505635,-1.5440341,-5.74051,-1.7860745,-4.6686935,0.60333884
0.29663473,4.6808233,0.84505635,-1.5440341,-5.74051,-1.7860745,-4.6686935,0.60333884
0.2910855,4.682152,0.726812,-1.5174025,-5.648897,-1.6376339,-4.582502,0.82360536
0.28550315,4.6834755,0.726812,-1.5174025,-5.648897,-1.6376339,-4.582502,0.82360536
0.28002357,4.684658,0.61069816,-1.4875752,-5.5498276,-1.5227122,-4.534618,1.0390835
0.2745387,4.685829,0.61069816,-1.4875752,-5.5498276,-1.5227122,-4.534618,1.0390835
0.2691374,4.686866,0.4956496,-1.4513562,-5.443301,-1.4077905,-4.606444,1.1875241
0.2637094,4.6878963,0.4956496,-1.4513562,-5.443301,-1.4077905,-4.606444,1.1875241
0.25845143,4.688776,0.38060105,-1.4055498,-5.333579,-1.4221559,-4.759673,1.3551182
0.25316206,4.689651,0.38060105,-1.4055498,-5.333579,-1.4221559,-4.759673,1.3551182
0.24799442,4.690385,0.26448724,-1.3522866,-5.222791,-1.4987702,-4.9799395,1.3215994
0.24280672,4.6911125,0.26448724,-1.3522866,-5.222791,-1.4987702,-4.9799395,1.3215994
0.23775585,4.6916943,0.14411235,-1.2968928,-5.1098733,-1.5849615,-5.291186,1.0965444
0.23268604,4.69227,0.14411235,-1.2968928,-5.1098733,-1.5849615,-5.291186,1.0965444
0.22774214,4.6926985,0.020541664,-1.2414991,-4.9969554,-1.7381904,-5.616797,0.8571242
0.2228298,4.693117,0.020541664,-1.2414991,-4.9969554,-1.7381904,-5.616797,0.8571242
0.21802326,4.6933823,-0.108355336,-1.1861053,-4.8851027,-1.8483237,-5.932832,0.5267244
0.21321943,4.693639,-0.108355336,-1.1861053,-4.8851027,-1.8483237,-5.932832,0.5267244
0.20858641,4.69372,-0.24151339,-1.1339073,-4.7721844,-1.958457,-6.2728086,0.20590134
0.20393685,4.693793,-0.24151339,-1.1339073,-4.7721844,-1.958457,-6.2728086,0.20590134
0.1994456,4.693664,-0.3757367,-1.0827746,-4.6603317,-1.910573,-6.4978633,-0.090979666
0.19485104,4.6935267,-0.3757367,-1.0827746,-4.6603317,-1.910573,-6.4978633,-0.090979666
0.19050789,4.693168,-0.50996006,-1.0305767,-4.548479,-1.8291701,-6.670246,-0.48362875
0.18608868,4.6928015,-0.50996006,-1.0305767,-4.548479,-1.8291701,-6.670246,-0.48362875
0.18172581,4.692261,-0.6409876,-0.9805092,-4.4376917,-1.5753847,-6.7468605,-0.8379706
0.17734121,4.691715,-0.6409876,-0.9805092,-4.4376917,-1.5753847,-6.7468605,-0.8379706
0.1730251,4.691025,-0.76668876,-0.9304418,-4.3354263,-1.1923125,-6.703765,-1.043872
0.1687087,4.6903305,-0.76668876,-0.9304418,-4.3354263,-1.1923125,-6.703765,-1.043872
0.16446273,4.6895094,-0.8849331,-0.8814396,-4.237422,-0.6512229,-6.5505357,-1.364695
0.16021109,4.688683,-0.8849331,-0.8814396,-4.237422,-0.6512229,-6.5505357,-1.364695
0.15601027,4.6877394,-0.9935901,-0.8271112,-4.1479397,-0.05746084,-6.3111157,-1.5227122
0.1517655,4.686782,-0.9935901,-0.8271112,-4.1479397,-0.05746084,-6.3111157,-1.5227122
0.1476677,4.685737,-1.0926597,-0.76532584,-4.065914,0.47884035,-6.1243677,-1.6903064
0.14322929,4.684602,-1.0926597,-0.76532584,-4.065914,0.47884035,-6.1243677,-1.6903064
0.13947614,4.6835423,-1.1778809,-0.69288784,-3.9913456,0.9768343,-5.93762,-1.7477672
0.13542345,4.682395,-1.1778809,-0.69288784,-3.9913456,0.9768343,-5.93762,-1.7477672
0.13146333,4.6811757,-1.2503189,-0.6161888,-3.92743,1.4173675,-5.7125654,-1.9393034
0.12741238,4.679925,-1.2503189,-0.6161888,-3.92743,1.4173675,-5.7125654,-1.9393034
0.12345489,4.678618,-1.3110389,-0.5341634,-3.8699055,1.8195933,-5.57849,-2.0398598
0.1195263,4.6773176,-1.3110389,-0.5341634,-3.8699055,1.8195933,-5.57849,-2.0398598
0.11561912,4.675954,-1.360041,-0.44468123,-3.819838,2.1643584,-5.506664,-2.0398598
0.11168161,4.6745777,-1.360041,-0.44468123,-3.819838,2.1643584,-5.506664,-2.0398598
0.10781049,4.67316,-1.3983905,-0.34774217,-3.7719011,2.3463178,-5.4779334,-2.0733786
0.1039596,4.671748,-1.3983905,-0.34774217,-3.7719011,2.3463178,-5.4779334,-2.0733786
0.10012576,4.670287,-1.4271528,-0.24654204,-3.722899,2.4372973,-5.5737014,-2.0733786
0.09631941,4.6688356,-1.4271528,-0.24654204,-3.722899,2.4372973,-5.5737014,-2.0733786
0.0925503,4.667348,-1.4463274,-0.13895033,-3.670701,2.4229321,-5.6407394,-2.0973208
0.088778004,4.6658583,-1.4463274,-0.13895033,-3.670701,2.4229321,-5.6407394,-2.0973208
0.085059725,4.6643467,-1.4569801,-0.027097559,-3.6078506,2.408567,-5.7365074,-2.078167
0.08134186,4.662834,-1.4569801,-0.027097559,-3.6078506,2.408567,-5.7365074,-2.078167
0.07769697,4.661308,-1.4612412,0.08475521,-3.5311515,2.2122424,-5.861006,-2.006341
0.07405239,4.659781,-1.4612412,0.08475521,-3.5311515,2.2122424,-5.861006,-2.006341
0.07049265,4.6582413,-1.464437,0.19660798,-3.4427345,1.9536686,-6.0285997,-1.9057846
0.06693309,4.656703,-1.464437,0.19660798,-3.4427345,1.9536686,-6.0285997,-1.9057846
0.06347308,4.655152,-1.4676328,0.3041997,-3.3404691,1.7286136,-6.253655,-1.8579005
0.06001314,4.653602,-1.4676328,0.3041997,-3.3404691,1.7286136,-6.253655,-1.8579005
0.056670487,4.6520386,-1.4697633,0.4053998,-3.2254205,1.4652514,-6.483498,-1.9057846
0.053371258,4.6504965,-1.4697633,0.4053998,-3.2254205,1.4652514,-6.483498,-1.9057846
0.050155044,4.6489325,-1.4729592,0.4980778,-3.0922625,1.2689269,-6.7229185,-1.6472107
0.04688713,4.647344,-1.4729592,0.4980778,-3.0922625,1.2689269,-6.7229185,-1.6472107
0.043808926,4.645776,-1.4750897,0.5811685,-2.945256,1.043872,-6.9862804,-1.4891934
0.040739678,4.6442127,-1.4750897,0.5811685,-2.945256,1.043872,-6.9862804,-1.4891934
0.037812646,4.6426463,-1.4793507,0.65254116,-2.7854664,0.89064306,-7.201759,-1.283292
0.03486755,4.6410713,-1.4793507,0.65254116,-2.7854664,0.89064306,-7.201759,-1.283292
0.032103665,4.6395063,-1.484677,0.71326125,-2.615024,0.7757214,-7.40766,-1.1587936
0.029333571,4.6379385,-1.484677,0.71326125,-2.615024,0.7757214,-7.40766,-1.1587936
0.026717251,4.6363873,-1.4868076,0.7633287,-2.4403207,0.7757214,-7.589619,-0.9528923
0.02409979,4.634838,-1.4868076,0.7633287,-2.4403207,0.7757214,-7.589619,-0.9528923
0.0216418,4.6333194,-1.4878728,0.8006129,-2.2634866,0.79487497,-7.728483,-0.7182605
0.019182656,4.6318035,-1.4878728,0.8006129,-2.2634866,0.79487497,-7.728483,-0.7182605
0.016893595,4.630321,-1.4836117,0.825114,-2.0855875,0.79008657,-7.824251,-0.51235914
0.014617867,4.628851,-1.4836117,0.825114,-2.0855875,0.79008657,-7.824251,-0.51235914
0.012523826,4.6274133,-1.4750897,0.83896244,-1.9108843,0.866701,-7.848193,-0.2681506
0.010428083,4.625978,-1.4750897,0.83896244,-1.9108843,0.866701,-7.848193,-0.2681506
0.008514423,4.6245775,-1.4569801,0.8400277,-1.7447029,0.8379706,-7.833828,-0.1340753
0.006599524,4.623178,-1.4569801,0.8400277,-1.7447029,0.8379706,-7.833828,-0.1340753
0.0048462762,4.62181,-1.4292833,0.8293751,-1.5859785,0.9576807,-7.785944,-0.033518825
0.003093468,4.620444,-1.4292833,0.8293751,-1.5859785,0.9576807,-7.785944,-0.033518825
0.0014886892,4.619113,-1.3930643,0.8070045,-1.4368415,1.091756,-7.73806,0.009576807
6.2830696,4.6177845,-1.3930643,0.8070045,-1.4368415,1.091756,-7.73806,0.009576807
6.2816033,4.616501,-1.3472579,0.77398133,-1.2994224,1.3263878,-7.632715,0.11971009
6.2801366,4.6152186,-1.3472579,0.77398133,-1.2994224,1.3263878,-7.632715,0.11971009
6.2787967,4.6139865,-1.2939947,0.73137075,-1.1715907,1.4987702,-7.5848308,0.12449849
6.2774568,4.6127563,-1.2939947,0.73137075,-1.1715907,1.4987702,-7.5848308,0.12449849
6.276224,4.6115813,-1.2311441,0.6813033,-1.0597379,1.7381904,-7.479486,0.06703765
6.2749915,4.610408,-1.2311441,0.6813033,-1.0597379,1.7381904,-7.479486,0.06703765
6.2738585,4.6093035,-1.1608366,0.6248443,-0.96492934,1.910573,-7.4028716,0.1340753
6.272724,4.6081996,-1.1608366,0.6248443,-0.96492934,1.910573,-7.4028716,0.1340753
6.271678,4.607173,-1.0852028,0.56199366,-0.88503456,1.9871874,-7.2927384,0.16759412
6.2706304,4.606146,-1.0852028,0.56199366,-0.88503456,1.9871874,-7.2927384,0.16759412
6.2696548,4.605201,-1.0031775,0.49701256,-0.81898814,2.0207062,-7.28795,0.15801731
6.2686787,4.6042557,-1.0031775,0.49701256,-0.81898814,2.0207062,-7.28795,0.15801731
6.2677627,4.6033955,-0.9158258,0.42883563,-0.7635944,2.0207062,-7.264008,0.08619126
6.266846,4.6025352,-0.9158258,0.42883563,-0.7635944,2.0207062,-7.264008,0.08619126
6.2659836,4.6017647,-0.8263436,0.3606587,-0.7167227,1.982399,-7.2209125,0.06703765
6.2651215,4.600994,-0.8263436,0.3606587,-0.7167227,1.982399,-7.2209125,0.06703765
6.2643027,4.6003084,-0.7379266,0.29035124,-0.67730796,1.9680338,-7.2592196,-0.02873042
6.263484,4.5996227,-0.7379266,0.29035124,-0.67730796,1.9680338,-7.2592196,-0.02873042
6.262707,4.599025,-0.64737916,0.21897852,-0.64108896,1.9871874,-7.2448545,-0.06703765
6.261931,4.598428,-0.64737916,0.21897852,-0.64108896,1.9871874,-7.2448545,-0.06703765
6.261197,4.597915,-0.56109273,0.1508016,-0.6059353,1.934515,-7.240066,-0.095768064
6.2604637,4.5974035,-0.56109273,0.1508016,-0.6059353,1.934515,-7.240066,-0.095768064
6.2597675,4.596971,-0.4780021,0.08475521,-0.57291204,1.8914193,-7.2927384,-0.16759412
6.2590723,4.5965385,-0.4780021,0.08475521,-0.57291204,1.8914193,-7.2927384,-0.16759412
6.2584124,4.59618,-0.39810726,0.021904606,-0.53988886,1.8626889,-7.3645644,-0.2873042
6.257753,4.5958223,-0.39810726,0.021904606,-0.53988886,1.8626889,-7.3645644,-0.2873042
6.2571325,4.5955358,-0.3214082,-0.037750203,-0.5047351,1.8483237,-7.3885064,-0.35434186
6.2565126,4.5952497,-0.3214082,-0.037750203,-0.5047351,1.8483237,-7.3885064,-0.35434186
6.2559276,4.5950246,-0.2500355,-0.093143955,-0.4695814,1.8483237,-7.4507556,-0.50757074
6.255343,4.594799,-0.2500355,-0.093143955,-0.4695814,1.8483237,-7.4507556,-0.50757074
6.254798,4.594635,-0.18079332,-0.14321138,-0.43229714,1.8435353,-7.503428,-0.61291564
6.2542524,4.594471,-0.18079332,-0.14321138,-0.43229714,1.8435353,-7.503428,-0.61291564
6.253746,4.5943637,-0.11687745,-0.19008303,-0.3950129,1.8148049,-7.5800424,-0.6991069
6.2532353,4.5942554,-0.11687745,-0.19008303,-0.3950129,1.8148049,-7.5800424,-0.6991069
6.252774,4.5942087,-0.05509211,-0.23375887,-0.36198968,1.8052281,-7.589619,-0.7182605
6.2523074,4.59416,-0.05509211,-0.23375887,-0.36198968,1.8052281,-7.589619,-0.7182605
6.2518744,4.594163,0.003497433,-0.2742389,-0.33003175,1.8148049,-7.589619,-0.80445176
6.2514415,4.594165,0.003497433,-0.2742389,-0.33003175,1.8148049,-7.589619,-0.80445176
6.251042,4.5942187,0.061021715,-0.30939263,-0.29807383,1.7860745,-7.656657,-0.866701
6.250643,4.5942726,0.061021715,-0.30939263,-0.29807383,1.7860745,-7.656657,-0.866701
6.250276,4.5943727,0.11428493,-0.34241584,-0.27037695,1.7717092,-7.690176,-0.93373865
6.24991,4.5944724,0.11428493,-0.34241584,-0.27037695,1.7717092,-7.690176,-0.93373865
6.249568,4.594616,0.1664829,-0.37011272,-0.2448106,1.6711528,-7.73806,-1.0247183
6.249232,4.594757,0.1664829,-0.37011272,-0.2448106,1.6711528,-7.73806,-1.0247183
6.24892,4.594937,0.2144198,-0.39567906,-0.22137478,1.6424223,-7.7907324,-1.1252748
6.248607,4.5951166,0.2144198,-0.39567906,-0.22137478,1.6424223,-7.7907324,-1.1252748
6.248319,4.5953283,0.2591609,-0.4159191,-0.20113476,1.6089035,-7.843405,-1.2641385
6.248035,4.595537,0.2591609,-0.4159191,-0.20113476,1.6089035,-7.843405,-1.2641385
6.247777,4.5957737,0.2985757,-0.43509385,-0.18195999,1.5370775,-7.9487495,-1.3742718
6.247518,4.596011,0.2985757,-0.43509385,-0.18195999,1.5370775,-7.9487495,-1.3742718
6.2472825,4.5962806,0.33479467,-0.4510728,-0.16278523,1.5610195,-7.991845,-1.412579
6.247045,4.596552,0.33479467,-0.4510728,-0.16278523,1.5610195,-7.991845,-1.412579
6.2468266,4.5968595,0.36781788,-0.46385598,-0.14254521,1.5753847,-8.063671,-1.541866
6.2466245,4.597144,0.36781788,-0.46385598,-0.14254521,1.5753847,-8.063671,-1.541866
6.2464566,4.597447,0.39658,-0.47131285,-0.120174654,1.5562311,-8.00621,-1.8004397
6.2464566,4.597447,0.39658,-0.47131285,-0.120174654,1.5562311,-8.00621,-1.8004397
6.24611,4.598239,0.4210811,-0.4755739,-0.09673884,1.6519991,-8.010999,-1.9297266
6.2460227,4.598439,0.4210811,-0.4755739,-0.09673884,1.6519991,-8.010999,-1.9297266
6.2459006,4.5987844,0.4391906,-0.47663915,-0.07436828,1.7908629,-8.00621,-2.0111294
6.245772,4.599148,0.4391906,-0.47663915,-0.07436828,1.7908629,-8.00621,-2.0111294
6.2456822,4.5994906,0.44984323,-0.47024757,-0.050932467,1.7621324,-7.9583263,-2.15957
6.245591,4.599837,0.44984323,-0.47024757,-0.050932467,1.7621324,-7.9583263,-2.15957
6.245516,4.600209,0.45516956,-0.4574644,-0.025366118,1.8483237,-8.073248,-2.135628
6.245516,4.600209,0.45516956,-0.4574644,-0.025366118,1.8483237,-8.073248,-2.135628
6.2453914,4.600898,0.45516956,-0.4425507,0.00020022877,1.5753847,-7.8386164,-2.432509
6.2453656,4.6012435,0.45516956,-0.4425507,0.00020022877,1.5753847,-7.8386164,-2.432509
6.245349,4.601593,0.44771272,-0.42657173,0.031092897,1.8722657,-8.054094,-2.2409728
6.2453322,4.601946,0.44771272,-0.42657173,0.031092897,1.8722657,-8.054094,-2.2409728
6.245325,4.602296,0.43386427,-0.40739697,0.05772451,1.9728222,-8.537724,-2.0015526
6.245318,4.602655,0.43386427,-0.40739697,0.05772451,1.9728222,-8.537724,-2.0015526
6.245368,4.6029644,0.42534214,-0.38076535,0.089682445,1.5658079,-8.1881695,-2.3223755
6.2454205,4.603291,0.42534214,-0.38076535,0.089682445,1.5658079,-8.1881695,-2.3223755
6.245517,4.603595,0.41255897,-0.35626426,0.12377091,1.3838485,-7.905654,-2.4468741
6.245613,4.6038976,0.41255897,-0.35626426,0.12377091,1.3838485,-7.905654,-2.4468741
6.2457376,4.6041803,0.3880579,-0.334959,0.1567941,1.4413095,-7.9152308,-2.4420857
6.2458606,4.6044602,0.3880579,-0.334959,0.1567941,1.4413095,-7.9152308,-2.4420857
6.246006,4.6047163,0.35609996,-0.31258842,0.19088256,1.5035586,-8.283937,-2.2649148
6.2461524,4.604974,0.35609996,-0.31258842,0.19088256,1.5035586,-8.283937,-2.2649148
6.246314,4.605201,0.31988096,-0.28702208,0.2228405,1.4891934,-8.542512,-1.9919758
6.246476,4.6054287,0.31988096,-0.28702208,0.2228405,1.4891934,-8.542512,-1.9919758
6.2466617,4.605624,0.283662,-0.26039046,0.2526679,1.460463,-8.805874,-1.910573
6.246847,4.6058197,0.283662,-0.26039046,0.2526679,1.460463,-8.805874,-1.910573
6.2470536,4.6059833,0.24850826,-0.23162833,0.27823424,1.388637,-9.054871,-1.8387469
6.24726,4.6061463,0.24850826,-0.23162833,0.27823424,1.388637,-9.054871,-1.8387469
6.247495,4.606276,0.21761559,-0.1996704,0.3038006,1.2354081,-9.150639,-1.8195933
6.2477307,4.606406,0.21761559,-0.1996704,0.3038006,1.2354081,-9.150639,-1.8195933
6.248008,4.6065,0.18885344,-0.1666472,0.3304322,1.0247183,-9.241618,-1.8866309
6.248285,4.606595,0.18885344,-0.1666472,0.3304322,1.0247183,-9.241618,-1.8866309
6.248608,4.6066546,0.16009131,-0.133624,0.35919434,0.79008657,-9.299079,-1.9297266
6.2489276,4.6067142,0.16009131,-0.133624,0.35919434,0.79008657,-9.299079,-1.9297266
6.2492723,4.6067452,0.12919864,-0.1037966,0.38582596,0.7517793,-9.428367,-1.8148049
6.2496214,4.606777,0.12919864,-0.1037966,0.38582596,0.7517793,-9.428367,-1.8148049
6.2499976,4.6067753,0.0972407,-0.07503446,0.4113923,0.6895301,-9.619903,-1.9057846
6.250374,4.606774,0.0972407,-0.07503446,0.4113923,0.6895301,-9.619903,-1.9057846
6.2507687,4.6067424,0.06634804,-0.047337584,0.43163234,0.6751649,-9.667787,-1.8770541
6.2511606,4.6067104,0.06634804,-0.047337584,0.43163234,0.6751649,-9.667787,-1.8770541
6.2515798,4.606648,0.03545537,-0.021771235,0.4508071,0.58897364,-9.768343,-1.9057846
6.252001,4.606584,0.03545537,-0.021771235,0.4508071,0.58897364,-9.768343,-1.9057846
6.252424,4.606493,0.0045626974,0.0016645822,0.4657208,0.61291564,-9.911995,-1.8291701
6.252848,4.606401,0.0045626974,0.0016645822,0.4657208,0.61291564,-9.911995,-1.8291701
6.253302,4.6062765,-0.026329972,0.022969872,0.47637343,0.4261679,-10.065224,-1.7621324
6.253759,4.6061506,-0.026329972,0.022969872,0.47637343,0.4261679,-10.065224,-1.7621324
6.2541986,4.6059995,-0.056157377,0.04214463,0.47743872,0.46926352,-10.261548,-1.6472107
6.2546377,4.6058474,-0.056157377,0.04214463,0.47743872,0.46926352,-10.261548,-1.6472107
6.2550707,4.6056676,-0.08491952,0.0581236,0.47424293,0.44532153,-10.510546,-1.5562311
6.2555046,4.605487,-0.08491952,0.0581236,0.47424293,0.44532153,-10.510546,-1.5562311
6.255982,4.6052823,-0.11048587,0.0762331,0.4678513,0.17717093,-10.534488,-1.6328455
6.256461,4.605076,-0.11048587,0.0762331,0.4678513,0.17717093,-10.534488,-1.6328455
6.256977,4.604858,-0.13392168,0.09434259,0.46039447,-0.08619126,-10.577583,-1.6184803
6.257493,4.604639,-0.13392168,0.09434259,0.46039447,-0.08619126,-10.577583,-1.6184803
6.258015,4.6044044,-0.15629223,0.10819103,0.4508071,-0.12928689,-10.745177,-1.5658079
6.258532,4.604171,-0.15629223,0.10819103,0.4508071,-0.12928689,-10.745177,-1.5658079
6.2590632,4.6039324,-0.17866279,0.116713144,0.43695867,-0.22026655,-10.850522,-1.4652514
6.259594,4.603694,-0.17866279,0.116713144,0.43695867,-0.22026655,-10.850522,-1.4652514
6.2601004,4.6034303,-0.19890282,0.12417,0.41884917,-0.2777274,-10.951078,-1.5562311
6.2606063,4.603166,-0.19890282,0.12417,0.41884917,-0.2777274,-10.951078,-1.5562311
6.261106,4.6028953,-0.21701232,0.13056158,0.40073967,-0.38307226,-10.979809,-1.5227122
6.2616057,4.602624,-0.21701232,0.13056158,0.40073967,-0.38307226,-10.979809,-1.5227122
6.262089,4.6023374,-0.23618707,0.1358879,0.38156492,-0.36870706,-11.085154,-1.5035586
6.2625723,4.6020503,-0.23618707,0.1358879,0.38156492,-0.36870706,-11.085154,-1.5035586
6.26304,4.6017528,-0.25429657,0.14014897,0.36025962,-0.49320555,-11.09473,-1.4987702
6.2635083,4.601456,-0.25429657,0.14014897,0.36025962,-0.49320555,-11.09473,-1.4987702
6.2639546,4.601147,-0.268145,0.14121422,0.3368238,-0.62249243,-11.118672,-1.532289
6.264401,4.6008387,-0.268145,0.14121422,0.3368238,-0.62249243,-11.118672,-1.532289
6.264822,4.60052,-0.2798629,0.14227949,0.3101922,-0.61291564,-11.176133,-1.5227122
6.265243,4.6002016,-0.2798629,0.14227949,0.3101922,-0.61291564,-11.176133,-1.5227122
6.2656407,4.59988,-0.28838503,0.14227949,0.28356057,-0.7613561,-11.137826,-1.5227122
6.2660384,4.5995584,-0.28838503,0.14227949,0.28356057,-0.7613561,-11.137826,-1.5227122
6.2664056,4.599224,-0.29477662,0.14121422,0.2558637,-0.7182605,-11.133038,-1.5610195
6.2667727,4.598891,-0.29477662,0.14121422,0.2558637,-0.7182605,-11.133038,-1.5610195
6.2671103,4.598553,-0.29690716,0.13801843,0.22710156,-0.7517793,-11.09473,-1.5849615
6.2674484,4.5982156,-0.29690716,0.13801843,0.22710156,-0.7517793,-11.09473,-1.5849615
6.2677574,4.5978785,-0.29690716,0.13482264,0.19727415,-0.6991069,-11.09473,-1.5658079
6.2680664,4.597542,-0.29690716,0.13482264,0.19727415,-0.6991069,-11.09473,-1.5658079
6.268336,4.5971985,-0.29264608,0.12949632,0.16425095,-0.6847417,-11.03727,-1.6472107
6.268605,4.596855,-0.29264608,0.12949632,0.16425095,-0.6847417,-11.03727,-1.6472107
6.2688546,4.596532,-0.2862545,0.12523526,0.13335828,-0.6464345,-11.066,-1.5227122
6.269103,4.5962105,-0.2862545,0.12523526,0.13335828,-0.6464345,-11.066,-1.5227122
6.2693114,4.595884,-0.27773237,0.118843675,0.10033509,-0.62249243,-11.003751,-1.6089035
6.26952,4.5955577,-0.27773237,0.118843675,0.10033509,-0.62249243,-11.003751,-1.6089035
6.269698,4.595248,-0.2628187,0.11032156,0.06731189,-0.5506664,-10.951078,-1.5562311
6.269877,4.59494,-0.2628187,0.11032156,0.06731189,-0.5506664,-10.951078,-1.5562311
6.27003,4.5946574,-0.24683972,0.10179944,0.03428869,-0.51714754,-10.893618,-1.4748282
6.2701836,4.594375,-0.24683972,0.10179944,0.03428869,-0.51714754,-10.893618,-1.4748282
6.270305,4.59411,-0.22766495,0.0911468,0.0023307577,-0.50757074,-10.793061,-1.4748282
6.270427,4.593845,-0.22766495,0.0911468,0.0023307577,-0.50757074,-10.793061,-1.4748282
6.2705255,4.59361,-0.20635967,0.08155942,-0.026431382,-0.4405331,-10.692505,-1.4030021
6.270624,4.593375,-0.20635967,0.08155942,-0.026431382,-0.4405331,-10.692505,-1.4030021
6.2706933,4.593157,-0.18292385,0.071972035,-0.05412826,-0.46926352,-10.58716,-1.4317327
6.270763,4.592939,-0.18292385,0.071972035,-0.05412826,-0.46926352,-10.58716,-1.4317327
6.2708154,4.592764,-0.1573575,0.06451519,-0.078629345,-0.47884035,-10.572795,-1.3503298
6.2708683,4.5925884,-0.1573575,0.06451519,-0.078629345,-0.47884035,-10.572795,-1.3503298
6.2708983,4.5924416,-0.13072589,0.057058334,-0.10313042,-0.45010993,-10.457873,-1.316811
6.270928,4.5923,-0.13072589,0.057058334,-0.10313042,-0.45010993,-10.457873,-1.316811
6.2709374,4.5921836,-0.10302901,0.049601484,-0.124435715,-0.40222588,-10.414778,-1.3120226
6.2709465,4.592068,-0.10302901,0.049601484,-0.124435715,-0.40222588,-10.414778,-1.3120226
6.270927,4.591949,-0.075332135,0.04107937,-0.14254521,-0.38307226,-10.34774,-1.4317327
6.270907,4.591829,-0.075332135,0.04107937,-0.14254521,-0.38307226,-10.34774,-1.4317327
6.2708726,4.591741,-0.048700526,0.035753045,-0.16065471,-0.33039984,-10.280702,-1.3790601
6.2708406,4.5916576,-0.048700526,0.035753045,-0.16065471,-0.33039984,-10.280702,-1.3790601
6.270784,4.5915833,-0.022068914,0.031491987,-0.17450315,-0.25378537,-10.242394,-1.4077905
6.2707276,4.59151,-0.022068914,0.031491987,-0.17450315,-0.25378537,-10.242394,-1.4077905
6.2706566,4.591454,0.0024321685,0.026165664,-0.18409052,-0.22026655,-10.16578,-1.412579
6.2705855,4.5913987,0.0024321685,0.026165664,-0.18409052,-0.22026655,-10.16578,-1.412579
6.270478,4.5913415,0.022672193,0.018708814,-0.19261263,-0.1436521,-10.0748005,-1.4796166
6.2703695,4.5912848,0.022672193,0.018708814,-0.19261263,-0.1436521,-10.0748005,-1.4796166
6.27023,4.591235,0.041846953,0.011251962,-0.20113476,-0.110133275,-9.9550905,-1.5658079
6.270092,4.5911875,0.041846953,0.011251962,-0.20113476,-0.110133275,-9.9550905,-1.5658079
6.2699394,4.591156,0.061021715,0.0048603755,-0.21072213,-0.05267244,-9.80665,-1.4891934
6.2697873,4.5911255,0.061021715,0.0048603755,-0.21072213,-0.05267244,-9.80665,-1.4891934
6.269589,4.5911036,0.07806595,-0.00046594674,-0.21711372,0.08140286,-9.710882,-1.484405
6.2693906,4.5910816,0.07806595,-0.00046594674,-0.21711372,0.08140286,-9.710882,-1.484405
6.269182,4.591074,0.09297965,-0.00366174,-0.21924424,0.10534488,-9.552865,-1.4939818
6.268974,4.5910664,0.09297965,-0.00366174,-0.21924424,0.10534488,-9.552865,-1.4939818
6.268749,4.5910716,0.105762824,-0.007922798,-0.21924424,0.16280572,-9.519346,-1.484405
6.268525,4.591077,0.105762824,-0.007922798,-0.21924424,0.16280572,-9.519346,-1.484405
6.268285,4.5910964,0.118545994,-0.012183856,-0.22030951,0.19153613,-9.385271,-1.3694834
6.2680454,4.591115,0.118545994,-0.012183856,-0.22030951,0.19153613,-9.385271,-1.3694834
6.267798,4.591146,0.12919864,-0.01324912,-0.22030951,0.20590134,-9.313444,-1.3790601
6.267559,4.5911756,0.12919864,-0.01324912,-0.22030951,0.20590134,-9.313444,-1.3790601
6.2672777,4.5912256,0.13985129,-0.01324912,-0.21817899,0.29688102,-9.251195,-1.340753
6.267004,4.5912747,0.13985129,-0.01324912,-0.21817899,0.29688102,-9.251195,-1.340753
6.266723,4.591337,0.1483734,-0.01324912,-0.21072213,0.29209262,-9.193734,-1.283292
6.266443,4.5913987,0.1483734,-0.01324912,-0.21072213,0.29209262,-9.193734,-1.283292
6.2661614,4.5914745,0.15689552,-0.014314385,-0.20113476,0.32561144,-9.141062,-1.2785037
6.2658815,4.5915494,0.15689552,-0.014314385,-0.20113476,0.32561144,-9.141062,-1.2785037
6.2656035,4.5916357,0.16541763,-0.01324912,-0.19261263,0.37349546,-9.069236,-1.292869
6.2653265,4.591722,0.16541763,-0.01324912,-0.19261263,0.37349546,-9.069236,-1.292869
6.265056,4.591818,0.17287448,-0.011118591,-0.18195999,0.36870706,-9.021352,-1.2689269
6.2647867,4.5919127,0.17287448,-0.011118591,-0.18195999,0.36870706,-9.021352,-1.2689269
6.264496,4.592048,0.17820081,-0.010053327,-0.16598102,0.40701428,-8.983045,-1.1683705
6.264206,4.592182,0.17820081,-0.010053327,-0.16598102,0.40701428,-8.983045,-1.1683705
6.263942,4.5923085,0.18352713,-0.008988062,-0.1489368,0.4405331,-8.925584,-1.2114661
6.263681,4.592433,0.18352713,-0.008988062,-0.1489368,0.4405331,-8.925584,-1.2114661
6.2634354,4.5925636,0.18778819,-0.005792269,-0.1308273,0.45010993,-8.930372,-1.2114661
6.2631907,4.592694,0.18778819,-0.005792269,-0.1308273,0.45010993,-8.930372,-1.2114661
6.262977,4.592816,0.18991871,-0.0047270046,-0.11058728,0.47405192,-8.8777,-1.2593501
6.2627635,4.5929375,0.18991871,-0.0047270046,-0.11058728,0.47405192,-8.8777,-1.2593501
6.262546,4.593089,0.1931145,-0.00366174,-0.09034725,0.49799395,-8.834604,-1.163582
6.2623296,4.5932393,0.1931145,-0.00366174,-0.09034725,0.49799395,-8.834604,-1.163582
6.2621436,4.593376,0.1931145,-0.0015312112,-0.06904196,0.49799395,-8.78672,-1.2018893
6.2619586,4.593513,0.1931145,-0.0015312112,-0.06904196,0.49799395,-8.78672,-1.2018893
6.2617803,4.5936685,0.19098398,-0.00046594674,-0.046671405,0.50757074,-8.820239,-1.13964
6.261603,4.5938234,0.19098398,-0.00046594674,-0.046671405,0.50757074,-8.820239,-1.13964
6.261436,4.594016,0.18991871,-0.0015312112,-0.027496647,0.50278234,-8.7771435,-1.0390835
6.261436,4.594016,0.18991871,-0.0015312112,-0.027496647,0.50278234,-8.7771435,-1.0390835
6.261436,4.594016,0.18991871,-0.0015312112,-0.027496647,0.50278234,-8.7771435,-1.0390835
6.26095,4.594581,0.18778819,-0.00366174,-0.006191358,0.5410896,-8.714894,-1.091756
6.2608547,4.5947,0.18352713,-0.0025964756,0.012983402,0.545878,-8.700529,-1.0869676
6.2607417,4.5948467,0.18352713,-0.0025964756,0.012983402,0.545878,-8.700529,-1.0869676
6.260635,4.59501,0.18033133,-0.0025964756,0.031092897,0.5746084,-8.6813755,-1.0726024
6.2605186,4.5951867,0.18033133,-0.0025964756,0.031092897,0.5746084,-8.6813755,-1.0726024
6.260436,4.5953526,0.175005,-0.0025964756,0.049202394,0.58897364,-8.743625,-1.0103531
6.260349,4.5955276,0.175005,-0.0025964756,0.049202394,0.58897364,-8.743625,-1.0103531
6.2602725,4.5956984,0.16967869,-0.00366174,0.0641161,0.5554548,-8.7292595,-1.0247183
6.260197,4.595866,0.16967869,-0.00366174,0.0641161,0.5554548,-8.7292595,-1.0247183
6.260141,4.5960455,0.1632871,-0.0047270046,0.08116033,0.58418524,-8.734048,-0.9768343
6.2600846,4.5962243,0.1632871,-0.0047270046,0.08116033,0.58418524,-8.734048,-0.9768343
6.2600436,4.5963845,0.15796077,-0.0025964756,0.09926982,0.5363012,-8.78672,-1.0199299
6.2600026,4.5965443,0.15796077,-0.0025964756,0.09926982,0.5363012,-8.78672,-1.0199299
6.2599864,4.5967298,0.15263446,-0.0025964756,0.11631405,0.50278234,-8.772355,-0.94810385
6.25997,4.5969143,0.15263446,-0.0025964756,0.11631405,0.50278234,-8.772355,-0.94810385
6.259975,4.597105,0.14624287,-0.0015312112,0.13016249,0.47405192,-8.829816,-0.92895025
6.2599797,4.5972953,0.14624287,-0.0015312112,0.13016249,0.47405192,-8.829816,-0.92895025
6.260024,4.5975046,0.13985129,0.0005993177,0.14294566,0.40222588,-8.848969,-0.8810662
6.2600675,4.5977154,0.13985129,0.0005993177,0.14294566,0.40222588,-8.848969,-0.8810662
6.2601132,4.597909,0.1334597,0.0027298466,0.15785937,0.37828386,-8.911219,-0.93373865
6.260158,4.5981016,0.1334597,0.0027298466,0.15785937,0.37828386,-8.911219,-0.93373865
6.2602625,4.5983152,0.12600285,0.0069909045,0.17277306,0.33997664,-8.983045,-0.8571242
6.2603664,4.598528,0.12600285,0.0069909045,0.17277306,0.33997664,-8.983045,-0.8571242
6.260521,4.5987425,0.11641546,0.012317227,0.18449098,0.25378537,-9.083601,-0.8762778
6.2606745,4.598956,0.11641546,0.012317227,0.18449098,0.25378537,-9.083601,-0.8762778
6.2608776,4.59916,0.104697555,0.017643549,0.1962089,0.19153613,-9.212888,-0.8810662
6.2610793,4.5993643,0.104697555,0.017643549,0.1962089,0.19153613,-9.212888,-0.8810662
6.2613506,4.599548,0.09617544,0.026165664,0.20686153,0.076614454,-9.3421755,-0.89543146
6.261609,4.599723,0.09617544,0.026165664,0.20686153,0.076614454,-9.3421755,-0.89543146
6.2618823,4.599896,0.08445753,0.033622514,0.21325313,0.05746084,-9.514558,-0.8762778
6.2621675,4.600077,0.08445753,0.033622514,0.21325313,0.05746084,-9.514558,-0.8762778
6.2624416,4.60024,0.07273962,0.043209895,0.21964471,0.019153614,-9.600749,-0.80924016
6.2627144,4.6004033,0.07273962,0.043209895,0.21964471,0.019153614,-9.600749,-0.80924016
6.2630324,4.600531,0.05995645,0.05173201,0.2228405,-0.076614454,-9.730036,-0.91458505
6.2633533,4.60066,0.05995645,0.05173201,0.2228405,-0.076614454,-9.730036,-0.91458505
6.263666,4.6007767,0.04823854,0.05918886,0.22390577,-0.076614454,-9.907207,-0.92416185
6.2639823,4.600895,0.04823854,0.05918886,0.22390577,-0.076614454,-9.907207,-0.92416185
6.2643185,4.6009836,0.037585896,0.06771098,0.22390577,-0.12928689,-9.974244,-0.9864111
6.264655,4.6010714,0.037585896,0.06771098,0.22390577,-0.12928689,-9.974244,-0.9864111
6.265005,4.6011105,0.025867987,0.0762331,0.22070996,-0.15322891,-10.055647,-1.0965444
6.2653537,4.601149,0.025867987,0.0762331,0.22070996,-0.15322891,-10.055647,-1.0965444
6.2656875,4.601202,0.0141500775,0.08155942,0.21325313,-0.16759412,-10.141838,-1.0342951
6.2660193,4.601254,0.0141500775,0.08155942,0.21325313,-0.16759412,-10.141838,-1.0342951
6.2663484,4.601279,0.00030163955,0.087951005,0.20366573,-0.18195933,-10.141838,-1.0726024
6.2666774,4.6013036,0.00030163955,0.087951005,0.20366573,-0.18195933,-10.141838,-1.0726024
6.266998,4.6013136,-0.0114162695,0.09221206,0.19088256,-0.15801731,-10.170568,-1.0869676
6.2673125,4.601324,-0.0114162695,0.09221206,0.19088256,-0.15801731,-10.170568,-1.0869676
6.267607,4.6013327,-0.025264706,0.09434259,0.1749036,-0.14844051,-10.223241,-1.0630256
6.2678995,4.601342,-0.025264706,0.09434259,0.1749036,-0.14844051,-10.223241,-1.0630256
6.268165,4.6013527,-0.03804788,0.09647312,0.15466358,-0.15801731,-10.199299,-1.0151415
6.268431,4.601364,-0.03804788,0.09647312,0.15466358,-0.15801731,-10.199299,-1.0151415
6.268671,4.601364,-0.05189632,0.09860365,0.13229302,-0.20590134,-10.247183,-0.9911995
6.2689114,4.601364,-0.05189632,0.09860365,0.13229302,-0.20590134,-10.247183,-0.9911995
6.2691298,4.6013465,-0.06681002,0.100734174,0.1088572,-0.23463176,-10.275913,-0.9959879
6.269348,4.6013293,-0.06681002,0.100734174,0.1088572,-0.23463176,-10.275913,-0.9959879
6.269536,4.6013074,-0.07852793,0.10179944,0.08435612,-0.29688102,-10.232818,-0.92895025
6.269723,4.6012855,-0.07852793,0.10179944,0.08435612,-0.29688102,-10.232818,-0.92895025
6.2698956,4.601242,-0.091311105,0.102864705,0.061985567,-0.31124622,-10.247183,-0.9720459
6.270068,4.601199,-0.091311105,0.102864705,0.061985567,-0.31124622,-10.247183,-0.9720459
6.2702026,4.60116,-0.104094274,0.104995236,0.040680278,-0.31124622,-10.213664,-0.866701
6.2703357,4.601122,-0.104094274,0.104995236,0.040680278,-0.31124622,-10.213664,-0.866701
6.270445,4.6010766,-0.11368166,0.10712577,0.020440254,-0.320823,-10.251971,-0.842759
6.270554,4.601032,-0.11368166,0.10712577,0.020440254,-0.320823,-10.251971,-0.842759
6.2706513,4.600976,-0.121138506,0.10712577,0.0044612866,-0.30645782,-10.251971,-0.8762778
6.270748,4.6009207,-0.121138506,0.10712577,0.0044612866,-0.30645782,-10.251971,-0.8762778
6.2708306,4.6008596,-0.1275301,0.10712577,-0.009387151,-0.31603462,-10.247183,-0.866701
6.2709126,4.6007986,-0.1275301,0.10712577,-0.009387151,-0.31603462,-10.247183,-0.866701
6.2709775,4.600736,-0.13179116,0.10712577,-0.02323559,-0.30645782,-10.208876,-0.8475474
6.271042,4.6006737,-0.13179116,0.10712577,-0.02323559,-0.30645782,-10.208876,-0.8475474
6.271098,4.600605,-0.13498695,0.1060605,-0.036018763,-0.31124622,-10.170568,-0.866701
6.2711544,4.6005363,-0.13498695,0.1060605,-0.036018763,-0.31124622,-10.170568,-0.866701
6.271182,4.600478,-0.13711748,0.104995236,-0.045606144,-0.23942018,-10.117896,-0.80445176
6.2712097,4.6004195,-0.13711748,0.104995236,-0.045606144,-0.23942018,-10.117896,-0.80445176
6.271247,4.6003513,-0.1360522,0.10392997,-0.053062994,-0.2633622,-10.0508585,-0.8762778
6.271284,4.6002836,-0.1360522,0.10392997,-0.053062994,-0.2633622,-10.0508585,-0.8762778
6.271312,4.600219,-0.13392168,0.09966891,-0.06158511,-0.22505496,-10.0029745,-0.89064306
6.27134,4.600154,-0.13392168,0.09966891,-0.06158511,-0.22505496,-10.0029745,-0.89064306
6.2713704,4.6000867,-0.13072589,0.09647312,-0.06691143,-0.12449849,-9.964667,-0.9816227
6.2714005,4.6000195,-0.13072589,0.09647312,-0.06691143,-0.12449849,-9.964667,-0.9816227
6.271393,4.5999756,-0.12859535,0.09221206,-0.07117249,-0.076614454,-9.854534,-0.89064306
6.271385,4.5999317,-0.12859535,0.09221206,-0.07117249,-0.076614454,-9.854534,-0.89064306
6.2713785,4.5998874,-0.12646483,0.086885735,-0.076498814,-0.062249243,-9.768343,-0.91937345
6.271372,4.599843,-0.12646483,0.086885735,-0.076498814,-0.062249243,-9.768343,-0.91937345
6.271338,4.5998106,-0.12326904,0.08262468,-0.0828904,0.02873042,-9.706094,-0.9624691
6.2713046,4.5997777,-0.12326904,0.08262468,-0.0828904,0.02873042,-9.706094,-0.9624691
6.2712226,4.599758,-0.11900798,0.07836362,-0.08502093,0.10534488,-9.691729,-1.0007763
6.271141,4.5997386,-0.11900798,0.07836362,-0.08502093,0.10534488,-9.691729,-1.0007763
6.2710476,4.599724,-0.11474692,0.07516783,-0.091412514,0.10534488,-9.615114,-0.90500826
6.2709546,4.5997086,-0.11474692,0.07516783,-0.091412514,0.10534488,-9.615114,-0.90500826
6.2708235,4.599697,-0.1094206,0.069841504,-0.0978041,0.1436521,-9.514558,-0.9768343
6.270694,4.5996857,-0.1094206,0.069841504,-0.0978041,0.1436521,-9.514558,-0.9768343
6.2705297,4.599674,-0.10302901,0.06558045,-0.10206516,0.17717093,-9.452309,-0.9720459
6.2703676,4.5996633,-0.10302901,0.06558045,-0.10206516,0.17717093,-9.452309,-0.9720459
6.270182,4.5996513,-0.09557216,0.05918886,-0.10313042,0.22026655,-9.385271,-0.9528923
6.2699995,4.59964,-0.09557216,0.05918886,-0.10313042,0.22026655,-9.385271,-0.9528923
6.2698283,4.5996428,-0.08598478,0.053862542,-0.10313042,0.22984336,-9.356541,-0.90979666
6.2696576,4.5996456,-0.08598478,0.053862542,-0.10313042,0.22984336,-9.356541,-0.90979666
6.2694554,4.599643,-0.076397404,0.04853622,-0.104195684,0.2825158,-9.337387,-0.93373865
6.2692547,4.5996413,-0.076397404,0.04853622,-0.104195684,0.2825158,-9.337387,-0.93373865
6.2690372,4.5996366,-0.06681002,0.043209895,-0.104195684,0.29688102,-9.255983,-0.9528923
6.2688203,4.5996323,-0.06681002,0.043209895,-0.104195684,0.29688102,-9.255983,-0.9528923
6.268613,4.5996428,-0.056157377,0.03681831,-0.10099989,0.34476504,-9.203311,-0.90500826
6.268406,4.5996532,-0.056157377,0.03681831,-0.10099989,0.34476504,-9.203311,-0.90500826
6.2682195,4.5996866,-0.04443947,0.030426722,-0.0978041,0.33518824,-9.165004,-0.8571242
6.268033,4.59972,-0.04443947,0.030426722,-0.0978041,0.33518824,-9.165004,-0.8571242
6.267829,4.59975,-0.032721557,0.0251004,-0.092477776,0.31124622,-9.169792,-0.93852705
6.267627,4.5997796,-0.032721557,0.0251004,-0.092477776,0.31124622,-9.169792,-0.93852705
6.2674284,4.5998173,-0.021003649,0.018708814,-0.08502093,0.33997664,-9.169792,-0.93373865
6.2672296,4.5998554,-0.021003649,0.018708814,-0.08502093,0.33997664,-9.169792,-0.93373865
6.2670393,4.599906,-0.008220476,0.012317227,-0.077564076,0.2681506,-9.131485,-0.9672575
6.2668495,4.5999575,-0.008220476,0.012317227,-0.077564076,0.2681506,-9.131485,-0.9672575
6.266653,4.600004,0.0045626974,0.0069909045,-0.07010722,0.31603462,-9.150639,-0.9768343
6.2664566,4.6000514,0.0045626974,0.0069909045,-0.07010722,0.31603462,-9.150639,-0.9768343
6.266262,4.600096,0.017345872,0.0016645822,-0.060519844,0.2825158,-9.188946,-1.0103531
6.2660675,4.600141,0.017345872,0.0016645822,-0.060519844,0.2825158,-9.188946,-1.0103531
6.265891,4.60021,0.027998514,-0.0015312112,-0.0498672,0.29209262,-9.222465,-0.9959879
6.2657146,4.6002793,0.027998514,-0.0015312112,-0.0498672,0.29209262,-9.222465,-0.9959879
6.2655373,4.6003137,0.03865116,-0.00366174,-0.03814929,0.29688102,-9.193734,-1.0390835
6.26536,4.6003475,0.03865116,-0.00366174,-0.03814929,0.29688102,-9.193734,-1.0390835
6.2651973,4.600406,0.04823854,-0.005792269,-0.024300855,0.30645782,-9.246407,-1.0295067
6.2650347,4.6004643,0.04823854,-0.005792269,-0.024300855,0.30645782,-9.246407,-1.0295067
6.264906,4.6004686,0.056760654,-0.007922798,-0.010452416,0.2777274,-9.241618,-1.0869676
6.2647777,4.600472,0.056760654,-0.007922798,-0.010452416,0.2777274,-9.241618,-1.0869676
6.2646704,4.6004777,0.06528277,-0.010053327,0.0044612866,0.30645782,-9.251195,-1.1109096
6.264563,4.6004834,0.06528277,-0.010053327,0.0044612866,0.30645782,-9.251195,-1.1109096
6.264466,4.600499,0.07167436,-0.011118591,0.018309724,0.30166942,-9.251195,-1.1013328
6.2643695,4.6005144,0.07167436,-0.011118591,0.018309724,0.30166942,-9.251195,-1.1013328
6.26431,4.6005144,0.075935416,-0.012183856,0.031092897,0.34955344,-9.284714,-1.1875241
6.2642503,4.600514,0.075935416,-0.012183856,0.031092897,0.34955344,-9.284714,-1.1875241
6.264188,4.600529,0.08019647,-0.012183856,0.04387607,0.39264908,-9.289502,-1.1731589
6.2641253,4.600545,0.08019647,-0.012183856,0.04387607,0.39264908,-9.289502,-1.1731589
6.264095,4.6005483,0.082327,-0.011118591,0.055593982,0.41180268,-9.270349,-1.2545617
6.2640643,4.6005516,0.082327,-0.011118591,0.055593982,0.41180268,-9.270349,-1.2545617
6.264036,4.60056,0.08339227,-0.010053327,0.06518136,0.3878607,-9.255983,-1.2066777
6.264008,4.600569,0.08339227,-0.010053327,0.06518136,0.3878607,-9.255983,-1.2066777
6.263997,4.600571,0.082327,-0.010053327,0.073703475,0.37349546,-9.289502,-1.2258313
6.2639866,4.6005735,0.082327,-0.010053327,0.073703475,0.37349546,-9.289502,-1.2258313
6.2640047,4.600566,0.08126174,-0.010053327,0.08222559,0.37349546,-9.227253,-1.3072342
6.2640233,4.6005573,0.08126174,-0.010053327,0.08222559,0.37349546,-9.227253,-1.3072342
6.26403,4.6005564,0.07913121,-0.011118591,0.089682445,0.36870706,-9.284714,-1.2258313
6.264036,4.6005545,0.07913121,-0.011118591,0.089682445,0.36870706,-9.284714,-1.2258313
6.264061,4.600544,0.075935416,-0.011118591,0.0939435,0.34476504,-9.294291,-1.2497733
6.2640853,4.600533,0.075935416,-0.011118591,0.0939435,0.34476504,-9.294291,-1.2497733
6.264121,4.6005163,0.07273962,-0.011118591,0.10033509,0.32561144,-9.241618,-1.2401965
6.264157,4.600501,0.07273962,-0.011118591,0.10033509,0.32561144,-9.241618,-1.2401965
6.264201,4.6004796,0.06954383,-0.008988062,0.104596145,0.33039984,-9.32781,-1.2737153
6.264245,4.600459,0.06954383,-0.008988062,0.104596145,0.33039984,-9.32781,-1.2737153
6.2643847,4.600381,0.061021715,-0.0025964756,0.11418352,0.2825158,-9.375694,-1.1779473
6.2643847,4.600381,0.061021715,-0.0025964756,0.11418352,0.2825158,-9.375694,-1.1779473
6.2643847,4.600381,0.061021715,-0.0025964756,0.11418352,0.2825158,-9.375694,-1.1779473
6.2644114,4.600365,0.061021715,-0.0025964756,0.11418352,0.2825158,-9.375694,-1.1779473
6.2644787,4.60033,0.05782592,-0.0015312112,0.11737932,0.2777274,-9.356541,-1.2497733
6.26455,4.600292,0.05782592,-0.0015312112,0.11737932,0.2777274,-9.356541,-1.2497733
6.264591,4.600266,0.055695392,-0.00046594674,0.120575115,0.2633622,-9.375694,-1.1492168
6.2646384,4.6002355,0.055695392,-0.00046594674,0.120575115,0.2633622,-9.375694,-1.1492168
6.2646384,4.6002355,0.055695392,-0.00046594674,0.120575115,0.2633622,-9.375694,-1.1492168
6.2646933,4.6001945,0.051434334,-0.00046594674,0.12483617,0.32561144,-9.399636,-1.1827357
6.2647295,4.6001678,0.051434334,-0.00046594674,0.12483617,0.32561144,-9.399636,-1.1827357
6.2647853,4.600129,0.047173277,-0.0015312112,0.12803197,0.2777274,-9.428367,-1.1875241
6.264841,4.600091,0.047173277,-0.0015312112,0.12803197,0.2777274,-9.428367,-1.1875241
6.264901,4.6000485,0.043977484,0.0005993177,0.13122776,0.2681506,-9.423578,-1.1779473
6.26496,4.600007,0.043977484,0.0005993177,0.13122776,0.2681506,-9.423578,-1.1779473
6.265069,4.59995,0.040781688,0.0005993177,0.13442355,0.19632454,-9.423578,-1.1587936
6.2651772,4.599893,0.040781688,0.0005993177,0.13442355,0.19632454,-9.423578,-1.1587936
6.2652593,4.5998416,0.039716423,0.0027298466,0.1386846,0.21068975,-9.476251,-1.1348516
6.26534,4.5997906,0.039716423,0.0027298466,0.1386846,0.21068975,-9.476251,-1.1348516
6.2653522,4.599871,0.03865116,0.00592564,0.14081514,0.24899697,-9.504981,-1.0486604
6.2653646,4.5999513,0.03865116,0.00592564,0.14081514,0.24899697,-9.504981,-1.0486604
6.2655168,4.600088,0.037585896,0.008056169,0.14188041,0.16280572,-9.533711,-1.0103531
6.265667,4.6002254,0.037585896,0.008056169,0.14188041,0.16280572,-9.533711,-1.0103531
6.265832,4.600361,0.037585896,0.011251962,0.14294566,0.15801731,-9.552865,-1.0342951
6.2659936,4.6004963,0.037585896,0.011251962,0.14294566,0.15801731,-9.552865,-1.0342951
6.2662015,4.6006207,0.03545537,0.013382491,0.14614145,0.08619126,-9.595961,-0.9672575
6.266408,4.600745,0.03545537,0.013382491,0.14614145,0.08619126,-9.595961,-0.9672575
6.2666507,4.60085,0.033324838,0.01551302,0.14614145,0.05267244,-9.68694,-1.0055647
6.2668905,4.6009545,0.033324838,0.01551302,0.14614145,0.05267244,-9.68694,-1.0055647
6.267131,4.6010575,0.031194309,0.017643549,0.14614145,0.033518825,-9.68694,-0.9911995
6.26737,4.601161,0.031194309,0.017643549,0.14614145,0.033518825,-9.68694,-0.9911995
6.267648,4.60122,0.02906378,0.018708814,0.14720672,-0.04309563,-9.787497,-1.0486604
6.267925,4.6012793,0.02906378,0.018708814,0.14720672,-0.04309563,-9.787497,-1.0486604
6.2681785,4.601369,0.02906378,0.018708814,0.1450762,-0.023942016,-9.773131,-0.9959879
6.2684317,4.6014585,0.02906378,0.018708814,0.1450762,-0.023942016,-9.773131,-0.9959879
6.2686887,4.601541,0.027998514,0.019774077,0.14294566,-0.033518825,-9.849746,-1.0151415
6.268946,4.6016226,0.027998514,0.019774077,0.14294566,-0.033518825,-9.849746,-1.0151415
6.2691803,4.6017203,0.025867987,0.021904606,0.14081514,-0.023942016,-9.840169,-0.9720459
6.269414,4.601818,0.025867987,0.021904606,0.14081514,-0.023942016,-9.840169,-0.9720459
6.269674,4.6018877,0.023737457,0.020839343,0.1386846,-0.06703765,-9.849746,-1.0199299
6.269934,4.6019564,0.023737457,0.020839343,0.1386846,-0.06703765,-9.849746,-1.0199299
6.270184,4.6020317,0.02160693,0.020839343,0.13548881,-0.10534488,-9.864111,-0.9864111
6.270433,4.6021066,0.02160693,0.020839343,0.13548881,-0.10534488,-9.864111,-0.9864111
6.270669,4.60219,0.019476399,0.019774077,0.13122776,-0.076614454,-9.916783,-0.9768343
6.270904,4.6022735,0.019476399,0.019774077,0.13122776,-0.076614454,-9.916783,-0.9768343
6.2711387,4.602351,0.017345872,0.016578285,0.1269667,-0.10534488,-9.883265,-0.9672575
6.2713723,4.60243,0.017345872,0.016578285,0.1269667,-0.10534488,-9.883265,-0.9672575
6.2716017,4.602505,0.015215342,0.01551302,0.120575115,-0.090979666,-9.916783,-0.9816227
6.2718306,4.6025805,0.015215342,0.01551302,0.120575115,-0.090979666,-9.916783,-0.9816227
6.272055,4.6026506,0.013084813,0.014447756,0.112053,-0.1436521,-9.921572,-0.9672575
6.272279,4.60272,0.013084813,0.014447756,0.112053,-0.1436521,-9.921572,-0.9672575
6.2724853,4.6027966,0.010954284,0.013382491,0.103530884,-0.12928689,-9.921572,-0.94331545
6.2726912,4.602873,0.010954284,0.013382491,0.103530884,-0.12928689,-9.921572,-0.94331545
6.2729197,4.602903,0.008823755,0.013382491,0.0939435,-0.16280572,-9.911995,-1.0486604
6.273148,4.602933,0.008823755,0.013382491,0.0939435,-0.16280572,-9.911995,-1.0486604
6.273365,4.6029673,0.0066932263,0.013382491,0.08435612,-0.12928689,-9.92636,-1.043872
6.273581,4.6030016,0.0066932263,0.013382491,0.08435612,-0.12928689,-9.92636,-1.043872
6.273789,4.60304,0.003497433,0.013382491,0.0790298,-0.1436521,-9.916783,-1.0247183
6.2739964,4.603079,0.003497433,0.013382491,0.0790298,-0.1436521,-9.916783,-1.0247183
6.274199,4.6031055,0.001366904,0.014447756,0.06944242,-0.20590134,-9.892841,-1.0295067
6.2744007,4.6031327,0.001366904,0.014447756,0.06944242,-0.20590134,-9.892841,-1.0295067
6.274582,4.603179,-0.0018288894,0.01551302,0.0609203,-0.20590134,-9.964667,-0.9768343
6.2747626,4.603225,-0.0018288894,0.01551302,0.0609203,-0.20590134,-9.964667,-0.9768343
6.2749515,4.6032467,-0.0039594183,0.016578285,0.055593982,-0.21068975,-9.935937,-1.0342951
6.2751393,4.6032677,-0.0039594183,0.016578285,0.055593982,-0.21068975,-9.935937,-1.0342951
6.2753167,4.6033,-0.006089947,0.016578285,0.05026766,-0.20590134,-9.911995,-1.0007763
6.275493,4.603332,-0.006089947,0.016578285,0.05026766,-0.20590134,-9.911995,-1.0007763
6.2756634,4.603361,-0.0071552116,0.016578285,0.041745543,-0.20590134,-9.892841,-1.0055647
6.275832,4.6033897,-0.0071552116,0.016578285,0.041745543,-0.20590134,-9.892841,-1.0055647
6.276001,4.603406,-0.009285741,0.016578285,0.035353955,-0.22505496,-9.888053,-1.0247183
6.276173,4.603423,-0.009285741,0.016578285,0.035353955,-0.22505496,-9.888053,-1.0247183
6.276339,4.6034203,-0.0114162695,0.017643549,0.032158162,-0.21547815,-9.825804,-1.0582372
6.276508,4.603417,-0.0114162695,0.017643549,0.032158162,-0.21547815,-9.825804,-1.0582372
6.2766685,4.603429,-0.0114162695,0.017643549,0.02683184,-0.20590134,-9.840169,-1.0295067
6.2768283,4.603441,-0.0114162695,0.017643549,0.02683184,-0.20590134,-9.840169,-1.0295067
6.2769837,4.6034565,-0.012481534,0.016578285,0.022570781,-0.1340753,-9.787497,-1.0295067
6.277138,4.603472,-0.012481534,0.016578285,0.022570781,-0.1340753,-9.787497,-1.0295067
6.277291,4.603486,-0.012481534,0.014447756,0.019374989,-0.18195933,-9.758766,-1.0199299
6.2774425,4.6035,-0.012481534,0.014447756,0.019374989,-0.18195933,-9.758766,-1.0199299
6.2775865,4.60352,-0.012481534,0.01551302,0.012983402,-0.11971009,-9.725247,-1.0199299
6.2777295,4.60354,-0.012481534,0.01551302,0.012983402,-0.11971009,-9.725247,-1.0199299
6.277838,4.603596,-0.010351005,0.01551302,0.00765708,-0.12928689,-9.720459,-0.94331545
6.277947,4.6036525,-0.010351005,0.01551302,0.00765708,-0.12928689,-9.720459,-0.94331545
6.27809,4.6036425,-0.0114162695,0.013382491,0.0044612866,-0.08619126,-9.662998,-1.0534488
6.278233,4.603633,-0.0114162695,0.013382491,0.0044612866,-0.08619126,-9.662998,-1.0534488
6.2783666,4.603652,-0.010351005,0.012317227,0.0012654932,-0.10055647,-9.639056,-1.0199299
6.278501,4.60367,-0.010351005,0.012317227,0.0012654932,-0.10055647,-9.639056,-1.0199299
6.278604,4.6037264,-0.008220476,0.012317227,-0.0019303001,-0.06703765,-9.615114,-0.9816227
6.278707,4.6037817,-0.008220476,0.012317227,-0.0019303001,-0.06703765,-9.615114,-0.9816227
6.278753,4.603868,-0.006089947,0.009121433,-0.004060829,-0.01436521,-9.562442,-0.93852705
6.2787986,4.603954,-0.006089947,0.009121433,-0.004060829,-0.01436521,-9.562442,-0.93852705
6.2789335,4.603954,-0.0039594183,0.00592564,-0.0051260935,-0.023942016,-9.562442,-1.0390835
6.2790675,4.6039543,-0.0039594183,0.00592564,-0.0051260935,-0.023942016,-9.562442,-1.0390835
6.2790995,4.6040497,0.00030163955,0.00592564,-0.006191358,0.009576807,-9.519346,-0.9624691
6.2791314,4.604145,0.00030163955,0.00592564,-0.006191358,0.009576807,-9.519346,-0.9624691
6.279201,4.6042304,0.0024321685,0.003795111,-0.0072566224,-0.01436521,-9.471462,-0.9720459
6.27927,4.6043158,0.0024321685,0.003795111,-0.0072566224,-0.01436521,-9.471462,-0.9720459
6.279272,4.6044226,0.003497433,0.0016645822,-0.0072566224,0.033518825,-9.461885,-0.9864111
6.2792745,4.60453,0.003497433,0.0016645822,-0.0072566224,0.033518825,-9.461885,-0.9864111
6.2792163,4.6046214,0.0066932263,-0.00046594674,-0.0051260935,0.08140286,-9.41879,-0.94810385
6.2791557,4.6047173,0.0066932263,-0.00046594674,-0.0051260935,0.08140286,-9.41879,-0.94810385
6.2790723,4.6046495,0.012019549,-0.0015312112,-0.0019303001,0.08619126,-9.399636,-1.0630256
6.278988,4.6045814,0.012019549,-0.0015312112,-0.0019303001,0.08619126,-9.399636,-1.0630256
6.2788725,4.60454,0.015215342,-0.0025964756,0.00020022877,0.16280572,-9.351752,-1.0726024
6.2787576,4.604499,0.015215342,-0.0025964756,0.00020022877,0.16280572,-9.351752,-1.0726024
6.2786536,4.6044493,0.017345872,-0.00366174,0.0012654932,0.11492168,-9.3421755,-1.0582372
6.2785516,4.604401,0.017345872,-0.00366174,0.0012654932,0.11492168,-9.3421755,-1.0582372
6.278453,4.604351,0.018411135,-0.0047270046,0.0023307577,0.16280572,-9.323022,-1.091756
6.278354,4.6043005,0.018411135,-0.0047270046,0.0023307577,0.16280572,-9.323022,-1.091756
6.2782474,4.6042624,0.02160693,-0.0068575335,0.0044612866,0.1436521,-9.308656,-1.0630256
6.27814,4.6042237,0.02160693,-0.0068575335,0.0044612866,0.1436521,-9.308656,-1.0630256
6.278083,4.6041594,0.023737457,-0.007922798,0.00765708,0.11492168,-9.303867,-1.1013328
6.2780256,4.6040955,0.023737457,-0.007922798,0.00765708,0.11492168,-9.303867,-1.1013328
6.2779236,4.604065,0.024802722,-0.007922798,0.014048667,0.17238252,-9.32781,-1.0726024
6.277821,4.6040344,0.024802722,-0.007922798,0.014048667,0.17238252,-9.32781,-1.0726024
6.2777443,4.6039886,0.025867987,-0.005792269,0.019374989,0.12928689,-9.3182335,-1.0726024
6.277667,4.6039424,0.025867987,-0.005792269,0.019374989,0.12928689,-9.3182335,-1.0726024
6.2775974,4.603894,0.025867987,-0.0047270046,0.024701312,0.17717093,-9.351752,-1.115698
6.2775273,4.603847,0.025867987,-0.0047270046,0.024701312,0.17717093,-9.351752,-1.115698
6.2774844,4.6037893,0.026933251,-0.0047270046,0.030027634,0.10534488,-9.332599,-1.0773908
6.277441,4.603731,0.026933251,-0.0047270046,0.030027634,0.10534488,-9.332599,-1.0773908
6.2774386,4.6036644,0.02906378,-0.0025964756,0.035353955,0.090979666,-9.3182335,-1.1109096
6.277436,4.603598,0.02906378,-0.0025964756,0.035353955,0.090979666,-9.3182335,-1.1109096
6.277426,4.603535,0.030129045,-0.0015312112,0.041745543,0.10534488,-9.3182335,-1.1109096
6.277416,4.6034727,0.030129045,-0.0015312112,0.041745543,0.10534488,-9.3182335,-1.1109096
6.2774663,4.603403,0.030129045,-0.00046594674,0.049202394,0.05267244,-9.308656,-1.115698
6.2775164,4.6033344,0.030129045,-0.00046594674,0.049202394,0.05267244,-9.308656,-1.115698
6.2776246,4.6032724,0.030129045,-0.00046594674,0.054528717,0,-9.23683,-1.1013328
6.2777324,4.6032104,0.030129045,-0.00046594674,0.054528717,0,-9.23683,-1.1013328
6.2778935,4.6031704,0.030129045,0.0016645822,0.061985567,-0.0047884034,-9.294291,-1.0582372
6.2780538,4.6031303,0.030129045,0.0016645822,0.061985567,-0.0047884034,-9.294291,-1.0582372
6.2782044,4.603079,0.030129045,0.0016645822,0.07050768,0.02873042,-9.294291,-1.0390835
6.2783523,4.6030264,0.030129045,0.0016645822,0.07050768,0.02873042,-9.294291,-1.0390835
6.2783737,4.602966,0.031194309,0.0027298466,0.07476874,0.07182605,-9.251195,-1.0630256
6.278394,4.6029053,0.031194309,0.0027298466,0.07476874,0.07182605,-9.251195,-1.0630256
6.2784615,4.602837,0.031194309,0.0016645822,0.07689927,0.05267244,-9.255983,-1.1109096
6.2785287,4.602769,0.031194309,0.0016645822,0.07689927,0.05267244,-9.255983,-1.1109096
6.2784815,4.6027565,0.032259572,0.0027298466,0.0790298,0.15322891,-9.255983,-1.0582372
6.2784348,4.602744,0.032259572,0.0027298466,0.0790298,0.15322891,-9.255983,-1.0582372
6.2784076,4.602712,0.032259572,0.0027298466,0.08116033,0.16280572,-9.270349,-1.091756
6.2783804,4.60268,0.032259572,0.0027298466,0.08116033,0.16280572,-9.270349,-1.091756
6.27834,4.6026645,0.033324838,0.0027298466,0.08222559,0.16759412,-9.32781,-1.0773908
6.2782993,4.6026483,0.033324838,0.0027298466,0.08222559,0.16759412,-9.32781,-1.0773908
6.278255,4.60264,0.03545537,0.0027298466,0.08222559,0.19153613,-9.313444,-1.0773908
6.2782106,4.6026316,0.03545537,0.0027298466,0.08222559,0.19153613,-9.313444,-1.0773908
6.2781873,4.6026034,0.03865116,0.003795111,0.08222559,0.19153613,-9.370906,-1.1252748
6.278164,4.602576,0.03865116,0.003795111,0.08222559,0.19153613,-9.370906,-1.1252748
6.2781544,4.602542,0.041846953,0.003795111,0.08329086,0.20590134,-9.409213,-1.1683705
6.2781444,4.602508,0.041846953,0.003795111,0.08329086,0.20590134,-9.409213,-1.1683705
6.2781205,4.6024904,0.04610801,0.0027298466,0.08435612,0.19153613,-9.461885,-1.1300632
6.2780967,4.6024723,0.04610801,0.0027298466,0.08435612,0.19153613,-9.461885,-1.1300632
6.2780533,4.602478,0.049303804,0.0027298466,0.087551914,0.11971009,-9.533711,-1.0773908
6.278018,4.6024823,0.049303804,0.0027298466,0.087551914,0.11971009,-9.533711,-1.0773908
6.278051,4.6024437,0.0524996,0.003795111,0.09287824,0.10055647,-9.552865,-1.1300632
6.278051,4.6024437,0.0524996,0.003795111,0.09287824,0.10055647,-9.552865,-1.1300632
6.278051,4.6024437,0.0524996,0.003795111,0.09287824,0.10055647,-9.552865,-1.1300632
6.278051,4.6024437,0.0524996,0.003795111,0.09287824,0.10055647,-9.552865,-1.1300632
6.2782855,4.6022935,0.054630127,0.0048603755,0.104596145,-0.033518825,-9.662998,-1.1109096
6.2784414,4.6023016,0.055695392,0.00592564,0.11631405,-0.047884032,-9.734824,-1.1013328
6.278641,4.6023183,0.055695392,0.00592564,0.11631405,-0.047884032,-9.734824,-1.1013328
6.278875,4.6023374,0.055695392,0.00592564,0.11631405,-0.047884032,-9.734824,-1.1013328
6.2791333,4.6024218,0.054630127,0.008056169,0.12803197,-0.1388637,-9.773131,-1.0390835
6.279394,4.602506,0.054630127,0.008056169,0.12803197,-0.1388637,-9.773131,-1.0390835
6.2796674,4.602558,0.051434334,0.011251962,0.13761935,-0.16759412,-9.773131,-1.0773908
6.279942,4.6026096,0.051434334,0.011251962,0.13761935,-0.16759412,-9.773131,-1.0773908
6.28022,4.602622,0.047173277,0.01551302,0.14720672,-0.19632454,-9.825804,-1.1444284
6.2804937,4.6026335,0.047173277,0.01551302,0.14720672,-0.19632454,-9.825804,-1.1444284
6.280781,4.602706,0.041846953,0.019774077,0.1567941,-0.18674773,-9.873688,-1.0390835
6.281068,4.602778,0.041846953,0.019774077,0.1567941,-0.18674773,-9.873688,-1.0390835
6.2813673,4.602794,0.03652063,0.0251004,0.16638148,-0.15801731,-9.849746,-1.1109096
6.2816668,4.60281,0.03652063,0.0251004,0.16638148,-0.15801731,-9.849746,-1.1109096
6.281955,4.6027856,0.030129045,0.031491987,0.1749036,-0.15801731,-9.840169,-1.163582
6.2822423,4.6027603,0.030129045,0.031491987,0.1749036,-0.15801731,-9.840169,-1.163582
6.2825565,4.6027894,0.022672193,0.038948838,0.18022992,-0.15801731,-9.859323,-1.0773908
6.2828712,4.6028185,0.022672193,0.038948838,0.18022992,-0.15801731,-9.859323,-1.0773908
6.2831683,4.6027784,0.0141500775,0.045340426,0.18555625,-0.17717093,-9.854534,-1.1683705
0.00027937657,4.6027374,0.0141500775,0.045340426,0.18555625,-0.17717093,-9.854534,-1.1683705
0.00057540264,4.602688,0.0077584907,0.053862542,0.18768677,-0.18674773,-9.868899,-1.1779473
0.00087100023,4.6026382,0.0077584907,0.053862542,0.18768677,-0.18674773,-9.868899,-1.1779473
0.0011871768,4.60262,0.001366904,0.06344992,0.1866215,-0.24420857,-9.825804,-1.115698
0.0015033088,4.6026025,0.001366904,0.06344992,0.1866215,-0.24420857,-9.825804,-1.115698
0.0018141211,4.6025677,-0.0028941538,0.07090677,0.1866215,-0.22026655,-9.849746,-1.1348516
0.00212449,4.602533,-0.0028941538,0.07090677,0.1866215,-0.22026655,-9.849746,-1.1348516
0.0024328346,4.6025567,-0.0071552116,0.07942889,0.18555625,-0.20111294,-9.892841,-1.0486604
0.0027373075,4.60258,-0.0071552116,0.07942889,0.18555625,-0.20111294,-9.892841,-1.0486604
0.0030404984,4.602599,-0.0114162695,0.087951005,0.18129519,-0.16280572,-9.92636,-1.0630256
0.0033483342,4.602618,-0.0114162695,0.087951005,0.18129519,-0.16280572,-9.92636,-1.0630256
0.0036301063,4.602656,-0.014612063,0.09327733,0.1749036,-0.16759412,-9.969456,-1.0390835
0.003911108,4.602694,-0.014612063,0.09327733,0.1749036,-0.16759412,-9.969456,-1.0390835
0.004185328,4.602727,-0.015677327,0.09647312,0.16531622,-0.20111294,-9.950302,-1.0295067
0.004461107,4.602761,-0.015677327,0.09647312,0.16531622,-0.20111294,-9.950302,-1.0295067
0.0047101267,4.602811,-0.015677327,0.09860365,0.1567941,-0.16759412,-9.9790325,-1.0199299
0.0049582478,4.6028605,-0.015677327,0.09860365,0.1567941,-0.16759412,-9.9790325,-1.0199299
0.0052109626,4.6028943,-0.015677327,0.10179944,0.14401093,-0.22026655,-10.0029745,-1.0295067
0.005463356,4.6029277,-0.015677327,0.10179944,0.14401093,-0.22026655,-10.0029745,-1.0295067
0.0057114586,4.6029506,-0.014612063,0.102864705,0.13122776,-0.23463176,-9.983821,-1.043872
0.0059593692,4.6029735,-0.014612063,0.102864705,0.13122776,-0.23463176,-9.983821,-1.043872
0.0061930935,4.6030207,-0.012481534,0.102864705,0.119509846,-0.21547815,-10.012551,-1.0199299
0.006404185,4.603064,-0.012481534,0.102864705,0.119509846,-0.21547815,-10.012551,-1.0199299
0.006648371,4.6031184,-0.010351005,0.10179944,0.11098773,-0.2873042,-10.007763,-0.9816227
0.006828925,4.6031594,-0.010351005,0.10179944,0.11098773,-0.2873042,-10.007763,-0.9816227
0.0070115374,4.6032195,-0.009285741,0.09966891,0.10033509,-0.24420857,-10.007763,-0.9672575
0.0071957144,4.6032805,-0.009285741,0.09966891,0.10033509,-0.24420857,-10.007763,-0.9672575
0.0073879026,4.6033287,-0.0071552116,0.09753838,0.088617176,-0.21547815,-9.993398,-1.0247183
0.007582361,4.6033773,-0.0071552116,0.09753838,0.088617176,-0.21547815,-9.993398,-1.0247183
0.007764326,4.603426,-0.0050246827,0.09221206,0.07796454,-0.20590134,-9.931149,-1.0247183
0.00794644,4.6034756,-0.0050246827,0.09221206,0.07796454,-0.20590134,-9.931149,-1.0247183
0.008088616,4.603552,-0.0018288894,0.087951005,0.06944242,-0.20111294,-9.921572,-0.9672575
0.008231815,4.6036296,-0.0018288894,0.087951005,0.06944242,-0.20111294,-9.921572,-0.9672575
0.00830104,4.6037283,0.001366904,0.08368994,0.061985567,-0.10055647,-9.907207,-0.9720459
0.008369817,4.6038275,0.001366904,0.08368994,0.061985567,-0.10055647,-9.907207,-0.9720459
0.008423532,4.60393,0.0045626974,0.07942889,0.05346345,-0.090979666,-9.878476,-0.9911995
0.008476651,4.6040325,0.0045626974,0.07942889,0.05346345,-0.090979666,-9.878476,-0.9911995
0.008420168,4.604112,0.0066932263,0.07516783,0.0460066,-0.062249243,-9.840169,-1.0534488
0.008362229,4.604191,0.0066932263,0.07516783,0.0460066,-0.062249243,-9.840169,-1.0534488
0.0082627665,4.604152,0.008823755,0.069841504,0.035353955,-0.009576807,-9.844957,-1.0965444
