Pitch,Roll,Gyro_X,Gyro_Y,Gyro_Z,Accel_X,Accel_Y,Accel_Z
0.26118925,4.6991625,0.001366904,0.013382491,-0.1489368,-2.3750482,-9.294291,0.023942016
0.26097596,4.699252,0.001366904,0.013382491,-0.1489368,-2.3750482,-9.294291,0.023942016
0.26076314,4.6993394,0.00030163955,0.013382491,-0.1489368,-2.360683,-9.260772,0.023942016
0.26055077,4.6994267,0.00030163955,0.013382491,-0.1489368,-2.360683,-9.260772,0.023942016
0.26033017,4.699509,-0.0018288894,0.012317227,-0.14787152,-2.336741,-9.26556,0.02873042
0.2601095,4.699592,-0.0018288894,0.012317227,-0.14787152,-2.336741,-9.26556,0.02873042
0.25988144,4.6996675,-0.0039594183,0.010186698,-0.145741,-2.3175871,-9.251195,0.01436521
0.25965253,4.6997437,-0.0039594183,0.010186698,-0.145741,-2.3175871,-9.251195,0.01436521
0.2594112,4.699806,-0.008220476,0.010186698,-0.14467573,-2.27928,-9.203311,0
0.25916973,4.699869,-0.008220476,0.010186698,-0.14467573,-2.27928,-9.203311,0
0.258931,4.6999316,-0.0114162695,0.011251962,-0.14254521,-2.3223755,-9.217676,-0.023942016
0.2586968,4.6999936,-0.0114162695,0.011251962,-0.14254521,-2.3223755,-9.217676,-0.023942016
0.25841913,4.699999,-0.014612063,0.012317227,-0.14147994,-2.2601264,-9.217676,-0.08619126
0.25814125,4.7000046,-0.014612063,0.012317227,-0.14147994,-2.2601264,-9.217676,-0.08619126
0.25789225,4.700047,-0.017807856,0.012317227,-0.13934942,-2.3127987,-9.188946,-0.05267244
0.25764367,4.7000904,-0.017807856,0.012317227,-0.13934942,-2.3127987,-9.188946,-0.05267244
0.25741586,4.700145,-0.021003649,0.012317227,-0.1372189,-2.2840683,-9.227253,0.0047884034
0.25718868,4.700199,-0.021003649,0.012317227,-0.1372189,-2.2840683,-9.227253,0.0047884034
0.25695145,4.7002397,-0.025264706,0.011251962,-0.1340231,-2.2409728,-9.23683,0.0047884034
0.25671464,4.700281,-0.025264706,0.011251962,-0.1340231,-2.2409728,-9.23683,0.0047884034
0.25646204,4.7002993,-0.027395237,0.009121433,-0.12869677,-2.2457612,-9.23683,-0.047884032
0.25620973,4.7003174,-0.027395237,0.009121433,-0.12869677,-2.2457612,-9.23683,-0.047884032
0.25600323,4.7003684,-0.0284605,0.008056169,-0.122305185,-2.2744915,-9.255983,0.023942016
0.25579718,4.7004204,-0.0284605,0.008056169,-0.122305185,-2.2744915,-9.255983,0.023942016
0.25558862,4.700466,-0.027395237,0.008056169,-0.11484833,-2.2697031,-9.212888,-0.0047884034
0.25538054,4.7005134,-0.027395237,0.008056169,-0.11484833,-2.2697031,-9.212888,-0.0047884034
0.25517863,4.7005596,-0.027395237,0.0069909045,-0.108456746,-2.2218192,-9.188946,0.023942016
0.25497636,4.700607,-0.027395237,0.0069909045,-0.108456746,-2.2218192,-9.188946,0.023942016
0.2547743,4.7006454,-0.029525764,0.00592564,-0.09993463,-2.2409728,-9.188946,-0.009576807
0.2545729,4.700685,-0.029525764,0.00592564,-0.09993463,-2.2409728,-9.188946,-0.009576807
0.2543491,4.700685,-0.029525764,0.0048603755,-0.09034725,-2.2218192,-9.174581,-0.07182605
0.25412548,4.7006855,-0.029525764,0.0048603755,-0.09034725,-2.2218192,-9.174581,-0.07182605
0.25392017,4.700711,-0.0284605,0.0027298466,-0.08182514,-2.2266076,-9.155427,-0.04309563
0.25372398,4.7007356,-0.0284605,0.0027298466,-0.08182514,-2.2266076,-9.155427,-0.04309563
0.2535158,4.700733,-0.0284605,0.0005993177,-0.07330302,-2.2361844,-9.169792,-0.08140286
0.25330728,4.7007313,-0.0284605,0.0005993177,-0.07330302,-2.2361844,-9.169792,-0.08140286
0.25313896,4.7007704,-0.0284605,-0.00046594674,-0.06371564,-2.2457612,-9.107543,-0.038307227
0.25297114,4.7008104,-0.0284605,-0.00046594674,-0.06371564,-2.2457612,-9.107543,-0.038307227
0.2527868,4.7008176,-0.0284605,-0.0015312112,-0.053062994,-2.183512,-9.11712,-0.062249243
0.2526024,4.7008247,-0.0284605,-0.0015312112,-0.053062994,-2.183512,-9.11712,-0.062249243
0.25243694,4.700843,-0.029525764,-0.0025964756,-0.041345086,-2.1978772,-9.093178,-0.05267244
0.2522712,4.700861,-0.029525764,-0.0025964756,-0.041345086,-2.1978772,-9.093178,-0.05267244
0.25210914,4.700799,-0.03059103,-0.00366174,-0.029627176,-2.1978772,-9.097966,-0.1388637
0.25194663,4.700737,-0.03059103,-0.00366174,-0.029627176,-2.1978772,-9.097966,-0.1388637
0.2517888,4.7007046,-0.03059103,-0.0047270046,-0.017909266,-2.1643584,-9.102755,-0.110133275
0.25163102,4.700672,-0.03059103,-0.0047270046,-0.017909266,-2.1643584,-9.102755,-0.110133275
0.25149453,4.7006817,-0.03059103,-0.0068575335,-0.0072566224,-2.183512,-9.107543,-0.062249243
0.2513582,4.700692,-0.03059103,-0.0068575335,-0.0072566224,-2.183512,-9.107543,-0.062249243
0.25122216,4.700654,-0.03059103,-0.007922798,0.0033960221,-2.135628,-9.121908,-0.11971009
0.2510862,4.7006164,-0.03059103,-0.007922798,0.0033960221,-2.135628,-9.121908,-0.11971009
0.2509593,4.7005863,-0.03059103,-0.010053327,0.012983402,-2.1404164,-9.078813,-0.110133275
0.25083247,4.7005553,-0.03059103,-0.010053327,0.012983402,-2.1404164,-9.078813,-0.110133275
0.25071695,4.7005277,-0.0284605,-0.011118591,0.024701312,-2.135628,-9.088389,-0.110133275
0.25060147,4.7005,-0.0284605,-0.011118591,0.024701312,-2.135628,-9.088389,-0.110133275
0.25050232,4.7004414,-0.027395237,-0.011118591,0.033223428,-2.1930888,-9.069236,-0.1388637
0.25040415,4.700383,-0.027395237,-0.011118591,0.033223428,-2.1930888,-9.069236,-0.1388637
0.2503258,4.700305,-0.026329972,-0.012183856,0.041745543,-2.1643584,-9.083601,-0.17717093
0.25024858,4.7002273,-0.026329972,-0.012183856,0.041745543,-2.1643584,-9.083601,-0.17717093
0.25017443,4.700161,-0.025264706,-0.012183856,0.05133292,-2.1739352,-9.064447,-0.15801731
0.2501,4.700094,-0.025264706,-0.012183856,0.05133292,-2.1739352,-9.064447,-0.15801731
0.25004348,4.7000136,-0.024199443,-0.014314385,0.056659244,-2.1499932,-9.112331,-0.20111294
0.24998036,4.6999235,-0.024199443,-0.014314385,0.056659244,-2.1499932,-9.112331,-0.20111294
0.24994029,4.699845,-0.02313418,-0.014314385,0.06305083,-2.1691468,-9.14585,-0.21068975
0.24989648,4.69976,-0.02313418,-0.014314385,0.06305083,-2.1691468,-9.14585,-0.21068975
0.24985804,4.6996784,-0.022068914,-0.016444914,0.06944242,-2.1452048,-9.165004,-0.22505496
0.24981917,4.6995955,-0.022068914,-0.016444914,0.06944242,-2.1452048,-9.165004,-0.22505496
0.24979132,4.699511,-0.019938385,-0.016444914,0.075834006,-2.1739352,-9.193734,-0.22505496
0.24976303,4.6994257,-0.019938385,-0.016444914,0.075834006,-2.1739352,-9.193734,-0.22505496
0.24973196,4.699353,-0.01674259,-0.017510178,0.08222559,-2.1930888,-9.169792,-0.19153613
0.24970058,4.699281,-0.01674259,-0.017510178,0.08222559,-2.1930888,-9.169792,-0.19153613
0.2496633,4.6992254,-0.013546798,-0.016444914,0.088617176,-2.1787236,-9.246407,-0.18195933
0.2496244,4.6991687,-0.013546798,-0.016444914,0.088617176,-2.1787236,-9.246407,-0.18195933
0.24961784,4.6990933,-0.009285741,-0.014314385,0.09500877,-2.1978772,-9.160215,-0.21068975
0.24961007,4.69901,-0.009285741,-0.014314385,0.09500877,-2.1978772,-9.160215,-0.21068975
0.24958792,4.698928,-0.006089947,-0.01324912,0.102465615,-2.1978772,-9.193734,-0.18674773
0.24958013,4.6989,-0.006089947,-0.01324912,0.102465615,-2.1978772,-9.193734,-0.18674773
0.24959248,4.6988287,-0.0007636249,-0.012183856,0.11418352,-2.1930888,-9.217676,-0.22505496
0.24958712,4.698753,0.005627962,-0.011118591,0.12803197,-2.2026656,-9.198523,-0.1388637
0.24958712,4.698753,0.005627962,-0.011118591,0.12803197,-2.2026656,-9.198523,-0.1388637
0.24958156,4.69875,0.005627962,-0.011118591,0.12803197,-2.2026656,-9.198523,-0.1388637
0.24960066,4.698712,0.010954284,-0.0068575335,0.13974987,-2.1787236,-9.255983,-0.20590134
0.24962178,4.69867,0.010954284,-0.0068575335,0.13974987,-2.1787236,-9.255983,-0.20590134
0.24966055,4.698627,0.017345872,-0.0047270046,0.15146779,-2.1930888,-9.279925,-0.21547815
0.2496989,4.6985846,0.017345872,-0.0047270046,0.15146779,-2.1930888,-9.279925,-0.21547815
0.24978799,4.69852,0.022672193,-0.0025964756,0.16425095,-2.2170308,-9.270349,-0.2873042
0.24987832,4.6984553,0.022672193,-0.0025964756,0.16425095,-2.2170308,-9.270349,-0.2873042
0.24994606,4.6984186,0.026933251,-0.0015312112,0.17916466,-2.2026656,-9.251195,-0.21547815
0.25001496,4.698382,0.026933251,-0.0015312112,0.17916466,-2.2026656,-9.251195,-0.21547815
0.25012887,4.698331,0.033324838,-0.00046594674,0.19514363,-2.2122424,-9.241618,-0.272939
0.25024158,4.698281,0.033324838,-0.00046594674,0.19514363,-2.2122424,-9.241618,-0.272939
0.2503566,4.698242,0.03865116,0.0016645822,0.21005733,-2.1404164,-9.222465,-0.29209262
0.25047117,4.6982045,0.03865116,0.0016645822,0.21005733,-2.1404164,-9.222465,-0.29209262
0.25061128,4.6981616,0.041846953,0.003795111,0.22390577,-2.135628,-9.23683,-0.34476504
0.25075153,4.698119,0.041846953,0.003795111,0.22390577,-2.135628,-9.23683,-0.34476504
0.25088575,4.698093,0.045042746,0.0027298466,0.2377542,-2.1499932,-9.208099,-0.2633622
0.2510196,4.698067,0.045042746,0.0027298466,0.2377542,-2.1499932,-9.208099,-0.2633622
0.25117907,4.6980376,0.049303804,0.003795111,0.2526679,-2.135628,-9.227253,-0.31124622
0.2513377,4.6980085,0.049303804,0.003795111,0.2526679,-2.135628,-9.227253,-0.31124622
0.2515294,4.697971,0.0524996,0.0048603755,0.26438582,-2.183512,-9.174581,-0.33039984
0.25172117,4.697933,0.0524996,0.0048603755,0.26438582,-2.183512,-9.174581,-0.33039984
0.25189242,4.697916,0.05356486,0.00592564,0.277169,-2.0829554,-9.160215,-0.29688102
0.25206327,4.6979,0.05356486,0.00592564,0.277169,-2.0829554,-9.160215,-0.29688102
0.25223523,4.6979027,0.05782592,0.008056169,0.29314795,-2.0925324,-9.193734,-0.24420857
0.25240687,4.6979055,0.05782592,0.008056169,0.29314795,-2.0925324,-9.193734,-0.24420857
0.2526072,4.697898,0.05995645,0.008056169,0.3101922,-2.0973208,-9.217676,-0.2873042
0.25280657,4.6978908,0.05995645,0.008056169,0.3101922,-2.0973208,-9.217676,-0.2873042
0.2530232,4.6978836,0.06315224,0.009121433,0.32404062,-2.1068976,-9.232041,-0.29688102
0.25323984,4.697877,0.06315224,0.009121433,0.32404062,-2.1068976,-9.232041,-0.29688102
0.2534603,4.697888,0.06634804,0.009121433,0.34215012,-2.0685902,-9.160215,-0.25378537
0.2536806,4.697899,0.06634804,0.009121433,0.34215012,-2.0685902,-9.160215,-0.25378537
0.2539219,4.6979084,0.07060909,0.009121433,0.35812908,-2.078167,-9.179369,-0.272939
0.25416306,4.697918,0.07060909,0.009121433,0.35812908,-2.078167,-9.179369,-0.272939
0.2544396,4.6979175,0.075935416,0.009121433,0.37730384,-2.0829554,-9.112331,-0.32561144
0.25471678,4.6979175,0.075935416,0.009121433,0.37730384,-2.0829554,-9.112331,-0.32561144
0.25500017,4.697935,0.08339227,0.010186698,0.3964786,-2.0207062,-9.102755,-0.31124622
0.25528285,4.6979523,0.08339227,0.010186698,0.3964786,-2.0207062,-9.102755,-0.31124622
0.25561067,4.69796,0.091914386,0.012317227,0.41671863,-2.0494366,-9.045294,-0.39264908
0.2559373,4.697967,0.091914386,0.012317227,0.41671863,-2.0494366,-9.045294,-0.39264908
0.25631395,4.6979704,0.102567025,0.013382491,0.43695867,-2.0590134,-8.916007,-0.5315128
0.25669363,4.6979747,0.102567025,0.013382491,0.43695867,-2.0590134,-8.916007,-0.5315128
0.25712147,4.6979837,0.1153502,0.012317227,0.46039447,-2.135628,-8.781932,-0.6512229
0.25754905,4.6979923,0.1153502,0.012317227,0.46039447,-2.135628,-8.781932,-0.6512229
0.25803304,4.698012,0.12813337,0.010186698,0.4870261,-2.27928,-8.652645,-0.7326257
0.25851926,4.6980314,0.12813337,0.010186698,0.4870261,-2.27928,-8.652645,-0.7326257
0.25905484,4.6980667,0.14304708,0.00592564,0.5157882,-2.4420857,-8.576031,-1.0007763
0.25958884,4.698102,0.14304708,0.00592564,0.5157882,-2.4420857,-8.576031,-1.0007763
0.2601951,4.6981626,0.16009131,-0.00366174,0.555203,-2.7964275,-8.441956,-1.0773908
0.2608027,4.6982226,0.16009131,-0.00366174,0.555203,-2.7964275,-8.441956,-1.0773908
0.2614904,4.698316,0.17713554,-0.018575443,0.60313994,-3.2561142,-8.283937,-1.115698
0.26217777,4.698409,0.17713554,-0.018575443,0.60313994,-3.2561142,-8.283937,-1.115698
0.2629069,4.6985188,0.19524503,-0.04201126,0.6627947,-2.9783869,-8.355764,-1.0965444
0.26373973,4.6986437,0.19524503,-0.04201126,0.6627947,-2.9783869,-8.355764,-1.0965444
0.2644295,4.6987567,0.21335453,-0.06757761,0.7384285,-2.7820623,-8.451532,-1.0534488
0.26520854,4.698885,0.21335453,-0.06757761,0.7384285,-2.7820623,-8.451532,-1.0534488
0.26607952,4.6990395,0.2325293,-0.08994816,0.82364964,-2.767697,-8.528147,-0.92895025
0.26695043,4.699194,0.2325293,-0.08994816,0.82364964,-2.767697,-8.528147,-0.92895025
0.2679468,4.6993847,0.25383458,-0.11125345,0.9173929,-3.0023289,-8.576031,-0.8762778
0.26895013,4.699577,0.25383458,-0.11125345,0.9173929,-3.0023289,-8.576031,-0.8762778
0.27000752,4.699786,0.2772704,-0.1368198,1.0217888,-2.815581,-8.652645,-0.91458505
0.27107653,4.699999,0.2772704,-0.1368198,1.0217888,-2.815581,-8.652645,-0.91458505
0.2722537,4.7002387,0.3007062,-0.16132088,1.1368374,-2.7150247,-8.599973,-0.89543146
0.27342948,4.700479,0.3007062,-0.16132088,1.1368374,-2.7150247,-8.599973,-0.89543146
0.2747019,4.700745,0.32414204,-0.18049563,1.2572123,-2.5091233,-8.604761,-0.78529817
0.2759713,4.7010117,0.32414204,-0.18049563,1.2572123,-2.5091233,-8.604761,-0.78529817
0.27734697,4.701302,0.3433168,-0.19753987,1.3829135,-2.3463178,-8.532935,-0.7517793
0.27871934,4.701593,0.3433168,-0.19753987,1.3829135,-2.3463178,-8.532935,-0.7517793
0.28019434,4.701911,0.36355683,-0.21351884,1.5128758,-2.135628,-8.432379,-0.79966336
0.2816766,4.7022314,0.36355683,-0.21351884,1.5128758,-2.135628,-8.432379,-0.79966336
0.2832771,4.702579,0.38592738,-0.22843254,1.6449685,-2.0015526,-8.274361,-0.866701
0.28487146,4.702926,0.38592738,-0.22843254,1.6449685,-2.0015526,-8.274361,-0.866701
0.28659558,4.7033052,0.40936318,-0.24441151,1.7759961,-1.8435353,-8.054094,-0.91458505
0.2883168,4.7036843,0.40936318,-0.24441151,1.7759961,-1.8435353,-8.054094,-0.91458505
0.29017535,4.704092,0.43492955,-0.26145574,1.904893,-1.8483237,-7.8912888,-1.0103531
0.29203254,4.7045,0.43492955,-0.26145574,1.904893,-1.8483237,-7.8912888,-1.0103531
0.2940074,4.7049437,0.46156114,-0.2806305,2.03379,-1.5705963,-7.666234,-1.1444284
0.29598123,4.705389,0.46156114,-0.2806305,2.03379,-1.5705963,-7.666234,-1.1444284
0.29807273,4.7058687,0.48819277,-0.30087054,2.162687,-1.2976574,-7.326257,-1.1971009
0.30016732,4.7063518,0.48819277,-0.30087054,2.162687,-1.2976574,-7.326257,-1.1971009
0.30240807,4.706861,0.51162857,-0.32324108,2.2937145,-1.6519991,-7.4986396,-1.1109096
0.30464303,4.7073703,0.51162857,-0.32324108,2.2937145,-1.6519991,-7.4986396,-1.1109096
0.30700824,4.7079096,0.5329339,-0.35093796,2.4172852,-1.6136919,-7.3071036,-1.2114661
0.30936268,4.7084484,0.5329339,-0.35093796,2.4172852,-1.6136919,-7.3071036,-1.2114661
0.31179816,4.7090163,0.55636966,-0.38822222,2.529138,-1.6232687,-7.216124,-1.1540052
0.31435847,4.7096157,0.55636966,-0.38822222,2.529138,-1.6232687,-7.216124,-1.1540052
0.31693545,4.710241,0.58087075,-0.4329633,2.6441865,-1.3503298,-6.967127,-1.13964
0.3194932,4.7108636,0.58087075,-0.4329633,2.6441865,-1.3503298,-6.967127,-1.13964
0.32213098,4.711532,0.6021761,-0.47663915,2.762431,-0.9672575,-6.8761473,-1.0342951
0.32479447,4.7122097,0.6021761,-0.47663915,2.762431,-0.9672575,-6.8761473,-1.0342951
0.32756498,4.7129283,0.6224161,-0.5117929,2.8828058,-0.7565677,-6.727707,-0.9672575
0.33034864,4.7136526,0.6224161,-0.5117929,2.8828058,-0.7565677,-6.727707,-0.9672575
0.33325008,4.7143993,0.63732976,-0.540555,3.0010502,-1.0247183,-6.6750345,-0.8714894
0.3362085,4.715164,0.63732976,-0.540555,3.0010502,-1.0247183,-6.6750345,-0.8714894
0.3391925,4.715925,0.6490477,-0.57357824,3.1139681,-1.5466543,-6.703765,-0.62728083
0.34216884,4.7166877,0.6490477,-0.57357824,3.1139681,-1.5466543,-6.703765,-0.62728083
0.3452942,4.7175016,0.66289616,-0.6161888,3.230082,-0.5363012,-5.9902925,-0.9768343
0.3483998,4.718314,0.66289616,-0.6161888,3.230082,-0.5363012,-5.9902925,-0.9768343
0.3516222,4.7191863,0.674614,-0.6449509,3.3579137,-0.48841715,-5.995081,-0.47884035
0.35486966,4.7200694,0.674614,-0.6449509,3.3579137,-0.48841715,-5.995081,-0.47884035
0.35819328,4.720953,0.6863319,-0.65453833,3.4889414,-0.48841715,-5.7269306,-0.49799395
0.36154962,4.7218494,0.6863319,-0.65453833,3.4889414,-0.48841715,-5.7269306,-0.49799395
0.36503017,4.7227793,0.69591933,-0.6556036,3.6167731,-0.6703765,-5.770026,-0.24420857
0.36849955,4.72371,0.69591933,-0.6556036,3.6167731,-0.6703765,-5.770026,-0.24420857
0.3721021,4.7246513,0.706572,-0.65986466,3.7403438,-0.9576807,-5.5497594,-0.23942018
0.3757039,4.7255974,0.706572,-0.65986466,3.7403438,-0.9576807,-5.5497594,-0.23942018
0.37941325,4.7266097,0.7182899,-0.67264783,3.8639145,-0.79966336,-5.57849,0.14844051
0.3831328,4.7276297,0.7182899,-0.67264783,3.8639145,-0.79966336,-5.57849,0.14844051
0.38697603,4.728665,0.73426884,-0.6801047,3.9928114,-0.40701428,-5.161899,0.076614454
0.39081475,4.729703,0.73426884,-0.6801047,3.9928114,-0.40701428,-5.161899,0.076614454
0.39479074,4.7307944,0.75024784,-0.68436575,4.119578,-0.6847417,-5.2241483,0.34955344
0.39876553,4.7318907,0.75024784,-0.68436575,4.119578,-0.6847417,-5.2241483,0.34955344
0.40288448,4.733037,0.76622677,-0.685431,4.24741,-0.9672575,-5.1571107,0.58418524
0.4070015,4.734188,0.76622677,-0.685431,4.24741,-0.9672575,-5.1571107,0.58418524
0.41123638,4.735367,0.7800752,-0.68862677,4.369915,-0.91937345,-5.056554,0.7278373
0.4154906,4.7365565,0.7800752,-0.68862677,4.369915,-0.91937345,-5.056554,0.7278373
0.41985932,4.737767,0.7960542,-0.689692,4.491355,-0.8714894,-4.9081135,0.7038953
0.42422175,4.738983,0.7960542,-0.689692,4.491355,-0.8714894,-4.9081135,0.7038953
0.42872202,4.7402472,0.8120332,-0.69075733,4.6095996,-1.4556746,-5.046977,0.91458505
0.43324193,4.7415237,0.8120332,-0.69075733,4.6095996,-1.4556746,-5.046977,0.91458505
0.4378653,4.742817,0.82694685,-0.69608366,4.7267785,-1.0486604,-4.654328,0.89543146
0.44231555,4.744069,0.82694685,-0.69608366,4.7267785,-1.0486604,-4.654328,0.89543146
0.44703877,4.745387,0.84186053,-0.69501835,4.843958,-0.8858546,-4.7261543,1.0342951
0.45193443,4.7467623,0.84186053,-0.69501835,4.843958,-0.8858546,-4.7261543,1.0342951
0.45677698,4.748118,0.855709,-0.68649626,4.9515495,-1.163582,-4.697424,1.0534488
0.46160725,4.7494783,0.855709,-0.68649626,4.9515495,-1.163582,-4.697424,1.0534488
0.4665624,4.750874,0.86742693,-0.6811699,5.049554,-1.6903064,-4.6926355,0.9959879
0.47154856,4.752288,0.86742693,-0.6811699,5.049554,-1.6903064,-4.6926355,0.9959879
0.47658736,4.7537174,0.8791448,-0.685431,5.142232,-1.8004397,-4.582502,0.92895025
0.4816421,4.7551613,0.8791448,-0.685431,5.142232,-1.8004397,-4.582502,0.92895025
0.4867818,4.75663,0.8908627,-0.69288784,5.2370405,-1.6807296,-4.462792,1.067814
0.4919229,4.758109,0.8908627,-0.69288784,5.2370405,-1.6807296,-4.462792,1.067814
0.4971558,4.759609,0.89938486,-0.69288784,5.3318486,-1.6136919,-4.3957543,1.1109096
0.5023852,4.761119,0.89938486,-0.69288784,5.3318486,-1.6136919,-4.3957543,1.1109096
0.50771093,4.7626534,0.9068417,-0.69075733,5.4192004,-1.8626889,-4.390966,1.0342951
0.51302713,4.764198,0.9068417,-0.69075733,5.4192004,-1.8626889,-4.390966,1.0342951
0.5184648,4.765775,0.9153638,-0.69075733,5.506552,-2.1978772,-4.5202527,1.2258313
0.52389276,4.7673626,0.9153638,-0.69075733,5.506552,-2.1978772,-4.5202527,1.2258313
0.52940905,4.7689743,0.92388594,-0.69075733,5.5907083,-2.303222,-4.405331,1.2593501
0.53493196,4.770602,0.92388594,-0.69075733,5.5907083,-2.303222,-4.405331,1.2593501
0.5405295,4.7722526,0.9334733,-0.69075733,5.6727333,-2.2122424,-4.309563,1.484405
0.5461232,4.7739167,0.9334733,-0.69075733,5.6727333,-2.2122424,-4.309563,1.484405
0.55179095,4.775603,0.94199544,-0.689692,5.755824,-2.2936451,-4.31914,1.5945383
0.55179095,4.775603,0.94199544,-0.689692,5.755824,-2.2936451,-4.31914,1.5945383
0.55179095,4.775603,0.94199544,-0.689692,5.755824,-2.2936451,-4.31914,1.5945383
0.55179095,4.775603,0.9494523,-0.6875615,5.831458,-2.4851813,-4.261679,1.7046716
0.5752436,4.7826123,0.9590396,-0.68436575,5.903896,-2.7006595,-4.1371803,1.8579005
0.58132637,4.7844763,0.9590396,-0.68436575,5.903896,-2.7006595,-4.1371803,1.8579005
0.58723336,4.786289,0.9675618,-0.6811699,5.973138,-2.801216,-3.940856,2.078167
0.59346175,4.78822,0.9675618,-0.6811699,5.973138,-2.801216,-3.940856,2.078167
0.5990312,4.7899446,0.97395337,-0.6737131,6.035989,-3.0310593,-3.7253778,2.2840683
0.60486656,4.79177,0.97395337,-0.6737131,6.035989,-3.0310593,-3.7253778,2.2840683
0.6107967,4.793626,0.9792797,-0.665191,6.093513,-3.2225955,-3.691859,2.4899697
0.6168263,4.795532,0.9792797,-0.665191,6.093513,-3.2225955,-3.691859,2.4899697
0.622915,4.797454,0.9792797,-0.65453833,6.1489067,-3.1268275,-3.4332852,2.6910827
0.6290005,4.7993956,0.9792797,-0.65453833,6.1489067,-3.1268275,-3.4332852,2.6910827
0.63513356,4.8013425,0.9760839,-0.6353636,6.1968436,-3.1651347,-3.2561142,3.0023289
0.64126366,4.8033094,0.9760839,-0.6353636,6.1968436,-3.1651347,-3.2561142,3.0023289
0.64745235,4.805272,0.9654312,-0.60553616,6.2373238,-3.193865,-3.1411927,3.3087866
0.6536195,4.8072495,0.9654312,-0.60553616,6.2373238,-3.193865,-3.1411927,3.3087866
0.6598132,4.8091993,0.948387,-0.5650561,6.267151,-3.2848446,-2.9257145,3.7253778
0.66600406,4.8111706,0.948387,-0.5650561,6.267151,-3.2848446,-2.9257145,3.7253778
0.6722221,4.813098,0.92601645,-0.5085971,6.286326,-3.323152,-2.8107927,4.2521024
0.6784369,4.815048,0.92601645,-0.5085971,6.286326,-3.323152,-2.8107927,4.2521024
0.68466705,4.816923,0.8951238,-0.42763698,6.295913,-3.4955344,-2.825158,4.817134
0.6908946,4.818819,0.8951238,-0.42763698,6.295913,-3.4955344,-2.825158,4.817134
0.69712585,4.8206043,0.85357845,-0.31898,6.287391,-3.7732618,-2.7246015,5.2002063
0.70335484,4.8224096,0.85357845,-0.31898,6.287391,-3.7732618,-2.7246015,5.2002063
0.70957214,4.824061,0.7981847,-0.1815609,6.259694,-4.0797195,-2.7246015,5.401319
0.7157874,4.825731,0.7981847,-0.1815609,6.259694,-4.0797195,-2.7246015,5.401319
0.72197807,4.8272076,0.72787726,-0.0228365,6.210692,-4.817134,-2.8921957,5.3342814
0.7281668,4.828701,0.72787726,-0.0228365,6.210692,-4.817134,-2.8921957,5.3342814
0.73431957,4.8299685,0.6405256,0.14441001,6.1446457,-5.6982,-3.098097,4.975151
0.74047107,4.831249,0.6405256,0.14441001,6.1446457,-5.6982,-3.098097,4.975151
0.74658346,4.8322854,0.5371949,0.30846074,6.0594244,-6.301539,-3.4380736,4.5154643
0.75272506,4.8333387,0.5371949,0.30846074,6.0594244,-6.301539,-3.4380736,4.5154643
0.7587446,4.834111,0.41575477,0.46718514,5.9624853,-6.861782,-3.7541082,4.0222588
0.7647449,4.8348904,0.41575477,0.46718514,5.9624853,-6.861782,-3.7541082,4.0222588
0.77067035,4.835376,0.2804662,0.6184527,5.857024,-7.795521,-4.0318356,3.2944214
0.77669007,4.835874,0.2804662,0.6184527,5.857024,-7.795521,-4.0318356,3.2944214
0.7825562,4.836053,0.13239443,0.7590676,5.7483673,-8.911219,-4.309563,2.6384103
0.7884336,4.836234,0.13239443,0.7590676,5.7483673,-8.911219,-4.309563,2.6384103
0.79424727,4.8360996,-0.02313418,0.8794425,5.6407757,-9.969456,-4.5777135,2.0207062
0.80068344,4.835949,-0.02313418,0.8794425,5.6407757,-9.969456,-4.5777135,2.0207062
0.80602306,4.835547,-0.18079332,0.97638154,5.5395756,-10.630256,-4.9081135,1.5466543
0.81176466,4.8351107,-0.18079332,0.97638154,5.5395756,-10.630256,-4.9081135,1.5466543
0.8173851,4.8343987,-0.340583,1.0530806,5.441571,-11.305421,-5.233725,1.1827357
0.8229426,4.833687,-0.340583,1.0530806,5.441571,-11.305421,-5.233725,1.1827357
0.82851106,4.832706,-0.4961116,1.1138006,5.3510237,-11.736377,-5.4683566,0.89064306
0.83414054,4.8317027,-0.4961116,1.1138006,5.3510237,-11.736377,-5.4683566,0.89064306
0.83963907,4.830472,-0.6452486,1.1649333,5.268998,-12.042834,-5.7604494,0.7374141
0.84513706,4.8292274,-0.6452486,1.1649333,5.268998,-12.042834,-5.7604494,0.7374141
0.85054743,4.827755,-0.7858635,1.2107397,5.186973,-12.469003,-5.923255,0.50278234
0.85601115,4.826251,-0.7858635,1.2107397,5.186973,-12.469003,-5.923255,0.50278234
0.8613363,4.8245497,-0.91689104,1.2512197,5.1038823,-12.737153,-6.0285997,0.34476504
0.8666869,4.822821,-0.91689104,1.2512197,5.1038823,-12.737153,-6.0285997,0.34476504
0.87194496,4.8208833,-1.0393965,1.2916999,5.0144,-13.125013,-6.157887,0.15801731
0.87721246,4.8189197,-1.0393965,1.2916999,5.0144,-13.125013,-6.157887,0.15801731
0.88237095,4.816758,-1.1523145,1.3311146,4.9195914,-13.340492,-6.1004257,-0.05267244
0.8876416,4.814524,-1.1523145,1.3311146,4.9195914,-13.340492,-6.1004257,-0.05267244
0.8926058,4.81218,-1.2620368,1.3694642,4.817326,-13.79539,-6.066907,-0.2777274
0.89767975,4.809756,-1.2620368,1.3694642,4.817326,-13.79539,-6.066907,-0.2777274
0.90263534,4.8071437,-1.3653674,1.4078137,4.707604,-14.164097,-6.0477533,-0.35913026
0.9075883,4.8045025,-1.3653674,1.4078137,4.707604,-14.164097,-6.0477533,-0.35913026
0.9124396,4.801656,-1.4623065,1.4504242,4.5904245,-14.250289,-6.033388,-0.4261679
0.91731226,4.7987633,-1.4623065,1.4504242,4.5904245,-14.250289,-6.033388,-0.4261679
0.92202884,4.795686,-1.5539192,1.5036875,4.465789,-14.652514,-6.181829,-0.3878607
0.9267419,4.792575,-1.5539192,1.5036875,4.465789,-14.652514,-6.181829,-0.3878607
0.93128115,4.789277,-1.6391404,1.5718644,4.334761,-15.279796,-6.4308257,-0.320823
0.9358298,4.7859344,-1.6391404,1.5718644,4.334761,-15.279796,-6.4308257,-0.320823
0.94031656,4.782297,-1.7137089,1.654955,4.1984076,-16.079458,-6.8186865,-0.320823
0.94472283,4.7786827,-1.7137089,1.654955,4.1984076,-16.079458,-6.8186865,-0.320823
0.94902396,4.7747946,-1.7765595,1.7486982,4.0620537,-16.94616,-7.1730285,-0.4213795
0.9531006,4.7710667,-1.7765595,1.7486982,4.0620537,-16.94616,-7.1730285,-0.4213795
0.9572568,4.7668843,-1.8255616,1.8467026,3.9256997,-17.57344,-7.723695,-0.62728083
0.96160066,4.762459,-1.8255616,1.8467026,3.9256997,-17.57344,-7.723695,-0.62728083
0.96560025,4.7579756,-1.8607154,1.948968,3.7904112,-18.330008,-8.394072,-1.0199299
0.9695881,4.753449,-1.8607154,1.948968,3.7904112,-18.330008,-8.394072,-1.0199299
0.973446,4.7486444,-1.8862817,2.0491028,3.6593835,-18.856733,-9.107543,-1.4796166
0.97728693,4.7437983,-1.8862817,2.0491028,3.6593835,-18.856733,-9.107543,-1.4796166
0.980971,4.738718,-1.9011954,2.1439114,3.532617,-19.273323,-9.888053,-1.9632454
0.9846437,4.7335854,-1.9011954,2.1439114,3.532617,-19.273323,-9.888053,-1.9632454
0.9881632,4.7282495,-1.9043912,2.2259367,3.4090464,-19.962854,-10.6877165,-2.566584
0.99166965,4.7228594,-1.9043912,2.2259367,3.4090464,-19.962854,-10.6877165,-2.566584
0.9950227,4.717317,-1.8979996,2.2845263,3.286541,-20.341137,-11.353305,-3.1172507
0.9983617,4.711719,-1.8979996,2.2845263,3.286541,-20.341137,-11.353305,-3.1172507
1.0015525,4.7060246,-1.8788248,2.31968,3.1672316,-20.585346,-11.9135475,-3.5769374
1.0047276,4.7002754,-1.8788248,2.31968,3.1672316,-20.585346,-11.9135475,-3.5769374
1.0077575,4.694489,-1.846867,2.3282022,3.052183,-20.499155,-12.406754,-3.8115692
1.0107718,4.688648,-1.846867,2.3282022,3.052183,-20.499155,-12.406754,-3.8115692
1.0136274,4.6828365,-1.7978648,2.311158,2.9339385,-19.416975,-12.679692,-3.691859
1.0164665,4.6769733,-1.7978648,2.311158,2.9339385,-19.416975,-12.679692,-3.691859
1.0191276,4.6711926,-1.7296878,2.2823958,2.7997153,-17.990032,-12.780249,-3.3901896
1.0217713,4.6653647,-1.7296878,2.2823958,2.7997153,-17.990032,-12.780249,-3.3901896
1.0242282,4.659656,-1.6412709,2.2483072,2.642056,-16.836027,-12.50731,-3.1411927
1.0266681,4.653905,-1.6412709,2.2483072,2.642056,-16.836027,-12.50731,-3.1411927
1.0288972,4.6483183,-1.5294181,2.2078273,2.4535043,-15.9022875,-12.133814,-2.906561
1.0311097,4.6426935,-1.5294181,2.2078273,2.4535043,-15.9022875,-12.133814,-2.906561
1.03309,4.6372805,-1.39626,2.1556294,2.2340598,-15.255854,-11.51611,-2.6288335
1.0350549,4.6318345,-1.39626,2.1556294,2.2340598,-15.255854,-11.51611,-2.6288335
1.0367649,4.626658,-1.2439272,2.0885177,1.9869184,-14.709975,-10.836157,-2.3415294
1.0384605,4.621454,-1.2439272,2.0885177,1.9869184,-14.709975,-10.836157,-2.3415294
1.0400245,4.6160903,-1.0766808,2.0075576,1.7184718,-14.140155,-10.151415,-2.1739352
1.0413104,4.6116185,-1.0766808,2.0075576,1.7184718,-14.140155,-10.151415,-2.1739352
1.0424384,4.607092,-0.8955858,1.9148796,1.4329809,-13.790602,-9.509769,-2.0111294
1.0435596,4.6025286,-0.8955858,1.9148796,1.4329809,-13.790602,-9.509769,-2.0111294
1.0443901,4.598381,-0.7091645,1.8104836,1.138968,-13.397953,-8.959103,-1.8148049
1.0452126,4.594212,-0.7091645,1.8104836,1.138968,-13.397953,-8.959103,-1.8148049
1.045743,4.5904827,-0.52061266,1.6965003,0.84175915,-13.081918,-8.508993,-1.5897499
1.0462631,4.586752,-0.52061266,1.6965003,0.84175915,-13.081918,-8.508993,-1.5897499
1.0465014,4.5834904,-0.33312613,1.5707991,0.55094194,-12.86644,-8.169016,-1.4269443
1.0467336,4.580206,-0.33312613,1.5707991,0.55094194,-12.86644,-8.169016,-1.4269443
1.0466995,4.5774307,-0.14883539,1.43338,0.2707774,-12.741941,-7.8386164,-1.2880806
1.0466584,4.5746765,-0.14883539,1.43338,0.2707774,-12.741941,-7.8386164,-1.2880806
1.0463655,4.5724287,0.030129045,1.2853082,0.009787609,-12.473791,-7.589619,-1.1779473
1.0460651,4.5701737,0.030129045,1.2853082,0.009787609,-12.473791,-7.589619,-1.1779473
1.0455585,4.5686054,0.19844083,1.1329755,-0.2267011,-12.310986,-7.374141,-0.93852705
1.0450538,4.567049,0.19844083,1.1329755,-0.2267011,-12.310986,-7.374141,-0.93852705
1.0443933,4.566006,0.3550347,0.97957736,-0.4333624,-12.124237,-7.216124,-0.8714894
1.0437343,4.5649667,0.3550347,0.97957736,-0.4333624,-12.124237,-7.216124,-0.8714894
1.042973,4.564416,0.5020412,0.825114,-0.60913104,-11.975797,-7.038953,-0.79008657
1.0422184,4.5638695,0.5020412,0.825114,-0.60913104,-11.975797,-7.038953,-0.79008657
1.0413783,4.563757,0.63732976,0.6717159,-0.75613755,-11.650186,-6.751649,-0.7038953
1.0405407,4.5636454,0.63732976,0.6717159,-0.75613755,-11.650186,-6.751649,-0.7038953
1.0396836,4.5638885,0.7577047,0.52151364,-0.8743819,-11.463438,-6.3925185,-0.7422025
1.0388291,4.5641294,0.7577047,0.52151364,-0.8743819,-11.463438,-6.3925185,-0.7422025
1.0379415,4.564682,0.8642311,0.37663767,-0.9638641,-11.123461,-6.066907,-0.78050977
1.0370548,4.5652313,0.8642311,0.37663767,-0.9638641,-11.123461,-6.066907,-0.78050977
1.0361366,4.566045,0.95584387,0.23708802,-1.0331063,-10.82658,-5.7604494,-0.8571242
1.0352187,4.566854,0.95584387,0.23708802,-1.0331063,-10.82658,-5.7604494,-0.8571242
1.0342697,4.567937,1.0314777,0.10392997,-1.084239,-10.43872,-5.5641246,-0.8858546
1.0333198,4.569016,1.0314777,0.10392997,-1.084239,-10.43872,-5.5641246,-0.8858546
1.0323546,4.5704117,1.093263,-0.018575443,-1.1172622,-10.041282,-5.315128,-0.7565677
1.0313897,4.5718,1.093263,-0.018575443,-1.1172622,-10.041282,-5.315128,-0.7565677
1.0304226,4.5734076,1.1390693,-0.12936294,-1.1353717,-9.610326,-5.118803,-0.7422025
1.0294552,4.575007,1.1390693,-0.12936294,-1.1353717,-9.610326,-5.118803,-0.7422025
1.028494,4.576822,1.1763536,-0.23056307,-1.1417632,-9.184157,-4.9943047,-0.6895301
1.0275323,4.5786257,1.1763536,-0.23056307,-1.1417632,-9.184157,-4.9943047,-0.6895301
1.0265834,4.5806055,1.2029852,-0.31898,-1.1396327,-8.901642,-4.817134,-0.641646
1.0256338,4.5825744,1.2029852,-0.31898,-1.1396327,-8.901642,-4.817134,-0.641646
1.0247018,4.584686,1.2210947,-0.3978096,-1.12898,-8.580819,-4.6782703,-0.61770403
1.0237741,4.5867734,1.2210947,-0.3978096,-1.12898,-8.580819,-4.6782703,-0.61770403
1.0228488,4.5888987,1.2317474,-0.46811703,-1.1183275,-8.202535,-4.5298295,-0.7134721
1.021909,4.5910425,1.2317474,-0.46811703,-1.1183275,-8.202535,-4.5298295,-0.7134721
1.0209713,4.593343,1.2349432,-0.5299024,-1.1066096,-7.8625584,-4.4101195,-0.6464345
1.0200801,4.5955105,1.2349432,-0.5299024,-1.1066096,-7.8625584,-4.4101195,-0.6464345
1.0191939,4.5977726,1.2317474,-0.58423084,-1.0916958,-7.656657,-4.3382936,-0.62728083
1.0183011,4.600033,1.2317474,-0.58423084,-1.0916958,-7.656657,-4.3382936,-0.62728083
1.0174125,4.602313,1.22216,-0.6311025,-1.0725211,-7.431602,-4.175488,-0.6895301
1.0165179,4.6045947,1.22216,-0.6311025,-1.0725211,-7.431602,-4.175488,-0.6895301
1.0156299,4.6069093,1.2072463,-0.67264783,-1.0544115,-7.3310456,-4.122815,-0.7278373
1.0147446,4.609205,1.2072463,-0.67264783,-1.0544115,-7.3310456,-4.122815,-0.7278373
1.0138483,4.611545,1.1880715,-0.71099734,-1.0394979,-7.067683,-3.9983168,-0.7757214
1.0138483,4.611545,1.1880715,-0.71099734,-1.0394979,-7.067683,-3.9983168,-0.7757214
1.0117809,4.616927,1.1635704,-0.74189,-1.0213884,-6.9144545,-3.9552212,-0.6943185
1.0117809,4.616927,1.1635704,-0.74189,-1.0213884,-6.9144545,-3.9552212,-0.6943185
1.0099924,4.621766,1.1348083,-0.7663911,-1.0022136,-6.8330517,-3.9600096,-0.6943185
1.0093634,4.623457,1.1348083,-0.7663911,-1.0022136,-6.8330517,-3.9600096,-0.6943185
1.0085711,4.625619,1.1039156,-0.7866311,-0.9819736,-6.7803793,-3.9552212,-0.6895301
1.0077367,4.6278853,1.1039156,-0.7866311,-0.9819736,-6.7803793,-3.9552212,-0.6895301
1.0068529,4.6303577,1.0708925,-0.80154485,-0.9596031,-6.703765,-3.916914,-0.63206923
1.0068529,4.6303577,1.0708925,-0.80154485,-0.9596031,-6.703765,-3.916914,-0.63206923
1.0052162,4.6349115,1.0336082,-0.81219745,-0.9329714,-6.7229185,-3.964798,-0.63206923
1.0045154,4.636871,1.0336082,-0.81219745,-0.9329714,-6.7229185,-3.964798,-0.63206923
1.0037334,4.639073,0.9931281,-0.8164585,-0.903144,-6.6654577,-3.9983168,-0.58897364
1.002952,4.641263,0.9931281,-0.8164585,-0.903144,-6.6654577,-3.9983168,-0.58897364
1.002191,4.6434145,0.95264804,-0.81858903,-0.87225133,-6.5984197,-3.9983168,-0.5650316
1.0014265,4.6455674,0.95264804,-0.81858903,-0.87225133,-6.5984197,-3.9983168,-0.5650316
1.000672,4.6476545,0.9111028,-0.81858903,-0.8402934,-6.469133,-4.036624,-0.49799395
0.9999102,4.6497564,0.9111028,-0.81858903,-0.8402934,-6.469133,-4.036624,-0.49799395
0.99916935,4.651781,0.8684922,-0.8132627,-0.8072702,-6.373365,-4.0462008,-0.4165911
0.9984345,4.6537886,0.8684922,-0.8132627,-0.8072702,-6.373365,-4.0462008,-0.4165911
0.9977101,4.655751,0.8226858,-0.8068711,-0.77637756,-6.349423,-4.060566,-0.4165911
0.99698883,4.6577044,0.8226858,-0.8068711,-0.77637756,-6.349423,-4.060566,-0.4165911
0.9962877,4.659588,0.77900994,-0.798349,-0.7486807,-6.220136,-4.003105,-0.3878607
0.995584,4.661478,0.77900994,-0.798349,-0.7486807,-6.220136,-4.003105,-0.3878607
0.9948757,4.663303,0.73426884,-0.7887616,-0.7252449,-6.1626754,-4.027047,-0.36391866
0.9941728,4.665117,0.73426884,-0.7887616,-0.7252449,-6.1626754,-4.027047,-0.36391866
0.9934629,4.6668806,0.68952775,-0.77704376,-0.7050048,-6.0238113,-3.964798,-0.30166942
0.99275964,4.6686335,0.68952775,-0.77704376,-0.7050048,-6.0238113,-3.964798,-0.30166942
0.992038,4.670333,0.64691716,-0.7642606,-0.6890259,-5.827487,-3.9360676,-0.32561144
0.99131596,4.672034,0.64691716,-0.7642606,-0.6890259,-5.827487,-3.9360676,-0.32561144
0.99054396,4.673737,0.60537183,-0.7482816,-0.6794385,-5.674258,-3.8881836,-0.21547815
0.9897763,4.6754236,0.60537183,-0.7482816,-0.6794385,-5.674258,-3.8881836,-0.21547815
0.98905534,4.6769834,0.561696,-0.72910684,-0.67198163,-5.6790466,-3.8402996,-0.25378537
0.98834497,4.6785216,0.561696,-0.72910684,-0.67198163,-5.6790466,-3.8402996,-0.25378537
0.9876576,4.679981,0.521216,-0.70886683,-0.66878587,-5.7029886,-3.8115692,-0.24420857
0.9869715,4.6814413,0.521216,-0.70886683,-0.66878587,-5.7029886,-3.8115692,-0.24420857
0.986327,4.682808,0.48180118,-0.685431,-0.66559005,-5.7843914,-3.8163576,-0.2681506
0.9856842,4.684172,0.48180118,-0.685431,-0.66559005,-5.7843914,-3.8163576,-0.2681506
0.98509383,4.6854687,0.44132113,-0.6609299,-0.6602637,-5.8945246,-3.8163576,-0.23463176
0.9845023,4.6867657,0.44132113,-0.6609299,-0.6602637,-5.8945246,-3.8163576,-0.23463176
0.98395735,4.6880016,0.40190634,-0.6353636,-0.65067637,-5.995081,-3.8067808,-0.22505496
0.9834101,4.6892376,0.40190634,-0.6353636,-0.65067637,-5.995081,-3.8067808,-0.22505496
0.9828973,4.6904187,0.3646221,-0.6066014,-0.63576263,-6.0525417,-3.8355112,-0.18195933
0.98238266,4.6915965,0.3646221,-0.6066014,-0.63576263,-6.0525417,-3.8355112,-0.18195933
0.9819152,4.692842,0.3284031,-0.5746435,-0.6155226,-6.1387334,-3.9456444,-0.062249243
0.9814479,4.6940775,0.3284031,-0.5746435,-0.6155226,-6.1387334,-3.9456444,-0.062249243
0.98099035,4.695279,0.2921841,-0.53948975,-0.5878258,-6.196194,-3.9552212,-0.009576807
0.98053527,4.6964717,0.2921841,-0.53948975,-0.5878258,-6.196194,-3.9552212,-0.009576807
0.9800837,4.6976113,0.25703037,-0.4990097,-0.5558678,-6.220136,-3.9695864,0.05746084
0.9796336,4.698748,0.25703037,-0.4990097,-0.5558678,-6.220136,-3.9695864,0.05746084
0.9792088,4.699791,0.2229419,-0.4542686,-0.5207141,-6.3063273,-4.036624,0.08140286
0.97878563,4.7008305,0.2229419,-0.4542686,-0.5207141,-6.3063273,-4.036624,0.08140286
0.97842634,4.7017217,0.18672292,-0.40526643,-0.4812993,-6.421249,-4.027047,0.062249243
0.9780677,4.702609,0.18672292,-0.40526643,-0.4812993,-6.421249,-4.027047,0.062249243
0.97775865,4.7033587,0.15156919,-0.355199,-0.44188452,-6.4787097,-4.027047,0.038307227
0.9774499,4.7041044,0.15156919,-0.355199,-0.44188452,-6.4787097,-4.027047,0.038307227
0.9771727,4.7047577,0.11641546,-0.30406633,-0.40246972,-6.5744777,-4.0462008,0.08619126
0.9768958,4.705409,0.11641546,-0.30406633,-0.40246972,-6.5744777,-4.0462008,0.08619126
0.9766557,4.705949,0.07806595,-0.25186837,-0.36305496,-6.655881,-4.1036615,0.10055647
0.9764153,4.706488,0.07806595,-0.25186837,-0.36305496,-6.655881,-4.1036615,0.10055647
0.9762155,4.7069035,0.039716423,-0.19860514,-0.32470542,-6.7468605,-4.1276035,0.10534488
0.9760155,4.707319,0.039716423,-0.19860514,-0.32470542,-6.7468605,-4.1276035,0.10534488
0.9758371,4.7076435,0.0024321685,-0.14747244,-0.29168224,-6.8330517,-4.232949,0.1436521
0.9756586,4.7079678,0.0024321685,-0.14747244,-0.29168224,-6.8330517,-4.232949,0.1436521
0.975497,4.708202,-0.034852087,-0.09847028,-0.26078957,-6.9479733,-4.280833,0.22505496
0.9753359,4.7084355,-0.034852087,-0.09847028,-0.26078957,-6.9479733,-4.280833,0.22505496
0.975186,4.7085795,-0.07107108,-0.051598642,-0.23415795,-7.038953,-4.333505,0.30645782
0.9750358,4.708724,-0.07107108,-0.051598642,-0.23415795,-7.038953,-4.333505,0.30645782
0.97492063,4.7087536,-0.1094206,-0.0068575335,-0.21072213,-7.16824,-4.405331,0.272939
0.9748042,4.708783,-0.1094206,-0.0068575335,-0.21072213,-7.16824,-4.405331,0.272939
0.9747194,4.708695,-0.14670485,0.037883572,-0.18941684,-7.2783732,-4.477157,0.21547815
0.9746349,4.7086067,-0.14670485,0.037883572,-0.18941684,-7.2783732,-4.477157,0.21547815
0.97455835,4.708435,-0.18185858,0.08049415,-0.17024209,-7.4746976,-4.572925,0.29688102
0.9744818,4.7082624,-0.18185858,0.08049415,-0.17024209,-7.4746976,-4.572925,0.29688102
0.9744258,4.7079883,-0.21594705,0.1209742,-0.15639365,-7.6231384,-4.6782703,0.25378537
0.9743694,4.707714,-0.21594705,0.1209742,-0.15639365,-7.6231384,-4.6782703,0.25378537
0.97431064,4.7073655,-0.25216603,0.16038899,-0.14147994,-7.690176,-4.76925,0.32561144
0.9742521,4.7070165,-0.25216603,0.16038899,-0.14147994,-7.690176,-4.76925,0.32561144
0.9742185,4.706563,-0.2862545,0.19660798,-0.13189256,-7.819463,-4.9176903,0.19632454
0.9741845,4.7061086,-0.2862545,0.19660798,-0.13189256,-7.819463,-4.9176903,0.19632454
0.9741639,4.705566,-0.32034296,0.22750065,-0.12656625,-7.905654,-5.032612,0.12928689
0.9741425,4.705018,-0.32034296,0.22750065,-0.12656625,-7.905654,-5.032612,0.12928689
0.97413945,4.70438,-0.35123563,0.253067,-0.12550098,-7.967903,-5.1379566,0.04309563
0.97413504,4.7037334,-0.35123563,0.253067,-0.12550098,-7.967903,-5.1379566,0.04309563
0.9741177,4.70306,-0.37680197,0.27330703,-0.12869677,-8.015787,-5.243302,0.038307227
0.97409815,4.7023916,-0.37680197,0.27330703,-0.12869677,-8.015787,-5.243302,0.038307227
0.97406834,4.701663,-0.39810726,0.29035124,-0.14041469,-8.1642275,-5.291186,0.05267244
0.97403693,4.7009463,-0.39810726,0.29035124,-0.14041469,-8.1642275,-5.291186,0.05267244
0.9739693,4.700219,-0.40982518,0.3041997,-0.15319785,-8.303091,-5.434838,0.08140286
0.9739011,4.699504,-0.40982518,0.3041997,-0.15319785,-8.303091,-5.434838,0.08140286
0.9738337,4.698754,-0.41089043,0.3159176,-0.16491576,-8.446744,-5.506664,0.05746084
0.9737569,4.6979218,-0.41089043,0.3159176,-0.16491576,-8.446744,-5.506664,0.05746084
0.97370994,4.697185,-0.4034336,0.32657024,-0.17769894,-8.590396,-5.6215854,-0.033518825
0.97364867,4.6962557,-0.4034336,0.32657024,-0.17769894,-8.590396,-5.6215854,-0.033518825
0.97356224,4.6956015,-0.38851988,0.33402708,-0.18941684,-8.7771435,-5.66947,0.090979666
0.97346246,4.6948533,-0.38851988,0.33402708,-0.18941684,-8.7771435,-5.66947,0.090979666
0.9733407,4.6941433,-0.3640188,0.3393534,-0.19474317,-8.930372,-5.81791,0.11971009
0.97321767,4.6934314,-0.3640188,0.3393534,-0.19474317,-8.930372,-5.81791,0.11971009
0.9730932,4.692752,-0.33206087,0.33828816,-0.19580843,-8.992621,-5.861006,0.11492168
0.9729655,4.69206,-0.33206087,0.33828816,-0.19580843,-8.992621,-5.861006,0.11492168
0.9728616,4.6914253,-0.29584187,0.33189657,-0.18941684,-9.112331,-5.90889,0.08140286
0.97275424,4.690776,-0.29584187,0.33189657,-0.18941684,-9.112331,-5.90889,0.08140286
0.9726529,4.690194,-0.2564271,0.3212439,-0.1787642,-9.203311,-5.9902925,0.08619126
0.9725511,4.689614,-0.2564271,0.3212439,-0.1787642,-9.203311,-5.9902925,0.08619126
0.97245634,4.6891003,-0.21488178,0.30526495,-0.16598102,-9.136273,-5.9759274,0.08140286
0.9723613,4.6885905,-0.21488178,0.30526495,-0.16598102,-9.136273,-5.9759274,0.08140286
0.9723047,4.688121,-0.1722712,0.28395966,-0.15106732,-9.169792,-5.971139,0.009576807
0.9722475,4.6876497,-0.1722712,0.28395966,-0.15106732,-9.169792,-5.971139,0.009576807
0.97219586,4.687276,-0.13285641,0.2615891,-0.13615362,-9.131485,-5.9759274,0.023942016
0.97214305,4.686897,-0.13285641,0.2615891,-0.13615362,-9.131485,-5.9759274,0.023942016
0.9720928,4.686595,-0.0945069,0.2381533,-0.123370446,-9.050082,-5.9424086,0.04309563
0.972043,4.6863036,-0.0945069,0.2381533,-0.123370446,-9.050082,-5.9424086,0.04309563
0.9720148,4.6860666,-0.05935317,0.21365221,-0.11271781,-9.059659,-5.9424086,0.009576807
0.9719859,4.6858315,-0.05935317,0.21365221,-0.11271781,-9.059659,-5.9424086,0.009576807
0.9719497,4.6856794,-0.0284605,0.18808587,-0.10313042,-8.959103,-5.932832,0.019153614
0.97191304,4.6855283,-0.0284605,0.18808587,-0.10313042,-8.959103,-5.932832,0.019153614
0.9718753,4.6854424,-0.0039594183,0.16358478,-0.09673884,-8.844181,-5.8705826,0.033518825
0.9718375,4.6853576,-0.0039594183,0.16358478,-0.09673884,-8.844181,-5.8705826,0.033518825
0.97178775,4.6853313,0.016280606,0.14121422,-0.09673884,-8.805874,-5.7987566,0.16759412
0.97173786,4.6853056,0.016280606,0.14121422,-0.09673884,-8.805874,-5.7987566,0.16759412
0.9716821,4.6853247,0.030129045,0.1209742,-0.10206516,-8.767567,-5.765238,0.19153613
0.9716262,4.6853433,0.030129045,0.1209742,-0.10206516,-8.767567,-5.765238,0.19153613
0.97155577,4.6853986,0.041846953,0.104995236,-0.11484833,-8.743625,-5.741296,0.22505496
0.97148526,4.685454,0.041846953,0.104995236,-0.11484833,-8.743625,-5.741296,0.22505496
0.971382,4.6855364,0.04823854,0.09434259,-0.13508835,-8.7771435,-5.803545,0.30645782
0.9712789,4.6856194,0.04823854,0.09434259,-0.13508835,-8.7771435,-5.803545,0.30645782
0.9711544,4.685709,0.05036907,0.0911468,-0.15852417,-8.901642,-5.865794,0.33039984
0.9710304,4.685798,0.05036907,0.0911468,-0.15852417,-8.901642,-5.865794,0.33039984
0.970881,4.685884,0.05036907,0.09327733,-0.18835159,-9.069236,-5.9519854,0.33039984
0.970731,4.6859703,0.05036907,0.09327733,-0.18835159,-9.069236,-5.9519854,0.33039984
0.97055984,4.686041,0.04610801,0.09753838,-0.22244005,-9.313444,-6.0477533,0.29209262
0.97038764,4.686112,0.04610801,0.09753838,-0.22244005,-9.313444,-6.0477533,0.29209262
0.970191,4.686159,0.037585896,0.104995236,-0.2597243,-9.528923,-6.2392898,0.16280572
0.9699938,4.686206,0.037585896,0.104995236,-0.2597243,-9.528923,-6.2392898,0.16280572
0.96978086,4.6862106,0.025867987,0.11245208,-0.30126962,-9.821015,-6.3781533,0.076614454
0.96956605,4.6862144,0.025867987,0.11245208,-0.30126962,-9.821015,-6.3781533,0.076614454
0.9693089,4.6861935,0.010954284,0.118843675,-0.347076,-10.079589,-6.588843,0.038307227
0.96905214,4.6861715,0.010954284,0.118843675,-0.347076,-10.079589,-6.588843,0.038307227
0.96879107,4.686047,-0.0039594183,0.118843675,-0.3950129,-10.34774,-6.7372837,-0.12928689
0.96852684,4.685922,-0.0039594183,0.118843675,-0.3950129,-10.34774,-6.7372837,-0.12928689
0.9682164,4.6857657,-0.017807856,0.11138682,-0.44614556,-10.472239,-6.909666,-0.17717093
0.9679087,4.685611,-0.017807856,0.11138682,-0.44614556,-10.472239,-6.909666,-0.17717093
0.96753824,4.685395,-0.031656295,0.09860365,-0.50153935,-10.630256,-7.0341644,-0.24899697
0.96716595,4.6851807,-0.031656295,0.09860365,-0.50153935,-10.630256,-7.0341644,-0.24899697
0.9667393,4.685012,-0.04017841,0.07836362,-0.5622594,-10.668563,-7.101202,-0.22505496
0.96631294,4.6848454,-0.04017841,0.07836362,-0.5622594,-10.668563,-7.101202,-0.22505496
0.9658185,4.68479,-0.041243672,0.05173201,-0.6304363,-10.721235,-7.192182,-0.17238252
0.9653209,4.684734,-0.041243672,0.05173201,-0.6304363,-10.721235,-7.192182,-0.17238252
0.96473694,4.6847897,-0.03698262,0.017643549,-0.7028743,-10.70687,-7.177817,-0.11492168
0.9641524,4.684843,-0.03698262,0.017643549,-0.7028743,-10.70687,-7.177817,-0.11492168
0.96347713,4.6849937,-0.027395237,-0.0228365,-0.7795734,-10.620679,-7.225701,-0.12449849
0.96242875,4.68522,-0.027395237,-0.0228365,-0.7795734,-10.620679,-7.225701,-0.12449849
0.9620753,4.68534,-0.010351005,-0.06864287,-0.862664,-10.620679,-7.249643,-0.05267244
0.9612076,4.685634,-0.010351005,-0.06864287,-0.862664,-10.620679,-7.249643,-0.05267244
0.9612076,4.685634,-0.010351005,-0.06864287,-0.862664,-10.620679,-7.249643,-0.05267244
0.959075,4.68653,0.0141500775,-0.1187103,-0.9532115,-10.534488,-7.2831616,0.02873042
0.95844436,4.686839,0.04610801,-0.17090826,-1.0448242,-10.55843,-7.2304893,0.20111294
0.9574519,4.6873245,0.04610801,-0.17090826,-1.0448242,-10.55843,-7.2304893,0.20111294
0.95624334,4.687992,0.08445753,-0.22417149,-1.1428286,-10.534488,-7.225701,0.16280572
0.9552887,4.6885176,0.08445753,-0.22417149,-1.1428286,-10.534488,-7.225701,0.16280572
0.9541424,4.6892114,0.1270681,-0.2774347,-1.2440287,-10.654198,-7.2113357,0.22984336
0.95296603,4.6899204,0.1270681,-0.2774347,-1.2440287,-10.654198,-7.2113357,0.22984336
0.9516858,4.690746,0.16861342,-0.32963267,-1.346294,-10.783484,-7.302315,0.31603462
0.950407,4.6915674,0.16861342,-0.32963267,-1.346294,-10.783484,-7.302315,0.31603462
0.94902456,4.692499,0.20909347,-0.3797001,-1.4496247,-10.874464,-7.3645644,0.35913026
0.9476426,4.693427,0.20909347,-0.3797001,-1.4496247,-10.874464,-7.3645644,0.35913026
0.9461552,4.6944585,0.24531247,-0.42763698,-1.5518901,-10.951078,-7.465121,0.3878607
0.94450605,4.6955967,0.24531247,-0.42763698,-1.5518901,-10.951078,-7.465121,0.3878607
0.94308317,4.696598,0.27620512,-0.47450864,-1.6552207,-11.061212,-7.608773,0.39264908
0.9414958,4.697711,0.27620512,-0.47450864,-1.6552207,-11.061212,-7.608773,0.39264908
0.9398153,4.6989045,0.303902,-0.520315,-1.7585514,-11.209652,-7.728483,0.320823
0.9381384,4.7000895,0.303902,-0.520315,-1.7585514,-11.209652,-7.728483,0.320823
0.9363697,4.7013392,0.32307678,-0.5650561,-1.8629473,-11.353305,-7.8865004,0.21068975
0.93460536,4.7025776,0.32307678,-0.5650561,-1.8629473,-11.353305,-7.8865004,0.21068975
0.93274504,4.7038636,0.33372942,-0.6066014,-1.970539,-11.482592,-8.015787,0.15322891
0.9308849,4.7051387,0.33372942,-0.6066014,-1.970539,-11.482592,-8.015787,0.15322891
0.9289286,4.706453,0.33799046,-0.6449509,-2.074935,-11.60709,-8.09719,0.15322891
0.9269792,4.7077503,0.33799046,-0.6449509,-2.074935,-11.60709,-8.09719,0.15322891
0.9249144,4.709096,0.33372942,-0.68330044,-2.1835918,-11.645397,-8.231265,0.16280572
0.92288405,4.7104063,0.33372942,-0.68330044,-2.1835918,-11.645397,-8.231265,0.16280572
0.92070013,4.7117825,0.3220115,-0.72165,-2.29651,-11.674128,-8.298303,0.22026655
0.91847634,4.713169,0.3220115,-0.72165,-2.29651,-11.674128,-8.298303,0.22026655
0.91614664,4.7145853,0.303902,-0.75893426,-2.4158196,-11.621455,-8.312668,0.39743748
0.9138328,4.715979,0.303902,-0.75893426,-2.4158196,-11.621455,-8.312668,0.39743748
0.91136,4.7174172,0.27940091,-0.80047953,-2.5404556,-11.468226,-8.346188,0.49320555
0.90887237,4.718852,0.27940091,-0.80047953,-2.5404556,-11.468226,-8.346188,0.49320555
0.9062513,4.720297,0.25063878,-0.8388291,-2.6725483,-11.362882,-8.456321,0.51235914
0.90364885,4.7217197,0.25063878,-0.8388291,-2.6725483,-11.362882,-8.456321,0.51235914
0.9008927,4.7231526,0.21761559,-0.87824386,-2.812098,-11.358093,-8.422802,0.545878
0.8981578,4.7245607,0.21761559,-0.87824386,-2.812098,-11.358093,-8.422802,0.545878
0.8952705,4.7259727,0.18246186,-0.9187239,-2.9580393,-11.200075,-8.389283,0.49799395
0.8923857,4.727368,0.18246186,-0.9187239,-2.9580393,-11.200075,-8.389283,0.49799395
0.8893107,4.7287674,0.14198181,-0.9581387,-3.1082416,-11.051635,-8.346188,0.4261679
0.8859539,4.730275,0.14198181,-0.9581387,-3.1082416,-11.051635,-8.346188,0.4261679
0.8831393,4.7314653,0.0972407,-0.99755347,-3.2669659,-10.922348,-8.331821,0.4309563
0.8799788,4.732784,0.0972407,-0.99755347,-3.2669659,-10.922348,-8.331821,0.4309563
0.87664723,4.734101,0.05036907,-1.035903,-3.4299514,-10.726024,-8.331821,0.49320555
0.8733181,4.7353983,0.05036907,-1.035903,-3.4299514,-10.726024,-8.331821,0.49320555
0.8697351,4.7367177,0.00030163955,-1.0731872,-3.6014588,-10.486604,-8.422802,0.61770403
0.86617446,4.7380123,0.00030163955,-1.0731872,-3.6014588,-10.486604,-8.422802,0.61770403
0.86237013,4.7392955,-0.050831053,-1.1072757,-3.7793581,-10.084377,-8.48984,0.7086837
0.858582,4.74056,-0.050831053,-1.1072757,-3.7793581,-10.084377,-8.48984,0.7086837
0.8545824,4.7417855,-0.09983322,-1.1381683,-3.9679098,-9.758766,-8.513782,0.89064306
0.850561,4.743005,-0.09983322,-1.1381683,-3.9679098,-9.758766,-8.513782,0.89064306
0.84635895,4.744175,-0.1456396,-1.1658653,-4.1649837,-9.466674,-8.485051,1.0295067
0.84215355,4.7453322,-0.1456396,-1.1658653,-4.1649837,-9.466674,-8.485051,1.0295067
0.83770055,4.746454,-0.18611965,-1.1935622,-4.371645,-9.121908,-8.5473,1.0534488
0.8332563,4.7475595,-0.18611965,-1.1935622,-4.371645,-9.121908,-8.5473,1.0534488
0.82857925,4.748623,-0.22233863,-1.2201937,-4.583633,-8.676587,-8.504205,1.0390835
0.82391554,4.7496696,-0.22233863,-1.2201937,-4.583633,-8.676587,-8.504205,1.0390835
0.81896305,4.750663,-0.25536183,-1.2414991,-4.8052077,-8.192958,-8.580819,0.93852705
0.8140424,4.751636,-0.25536183,-1.2414991,-4.8052077,-8.192958,-8.580819,0.93852705
0.80884546,4.752553,-0.28412396,-1.2542822,-5.0299788,-7.7667904,-8.528147,0.8475474
0.8036653,4.7534533,-0.28412396,-1.2542822,-5.0299788,-7.7667904,-8.528147,0.8475474
0.7982426,4.7542887,-0.31075558,-1.2596085,-5.2590103,-7.503428,-8.499416,0.7565677
0.7928204,4.755111,-0.31075558,-1.2596085,-5.2590103,-7.503428,-8.499416,0.7565677
0.7871512,4.755868,-0.3341914,-1.2628043,-5.495499,-7.216124,-8.465898,0.6799533
0.7814819,4.756612,-0.3341914,-1.2628043,-5.495499,-7.216124,-8.465898,0.6799533
0.77556974,4.7572865,-0.35549667,-1.2585433,-5.737314,-6.8809357,-8.418014,0.62249243
0.76966345,4.757947,-0.35549667,-1.2585433,-5.737314,-6.8809357,-8.418014,0.62249243
0.7634785,4.7585263,-0.37786725,-1.2446948,-5.9791293,-6.579266,-8.307879,0.50278234
0.75731784,4.759089,-0.37786725,-1.2446948,-5.9791293,-6.579266,-8.307879,0.50278234
0.75090975,4.759581,-0.40130305,-1.221259,-6.2209444,-6.3111157,-8.264784,0.51235914
0.74451435,4.7600584,-0.40130305,-1.221259,-6.2209444,-6.3111157,-8.264784,0.51235914
0.73785156,4.7604694,-0.42793468,-1.18504,-6.461694,-6.253655,-8.264784,0.60812724
0.731209,4.760868,-0.42793468,-1.18504,-6.461694,-6.253655,-8.264784,0.60812724
0.7243355,4.7611914,-0.4566968,-1.1392337,-6.703509,-6.1770406,-8.317456,0.7422025
0.7174838,4.761505,-0.4566968,-1.1392337,-6.703509,-6.1770406,-8.317456,0.7422025
0.7103547,4.761734,-0.48758948,-1.092362,-6.946389,-6.1004257,-8.408437,0.8283938
0.703228,4.7619557,-0.48758948,-1.092362,-6.946389,-6.1004257,-8.408437,0.8283938
0.6959176,4.7620683,-0.5238085,-1.0433599,-7.1914,-6.0285997,-8.470686,0.7661445
0.6885215,4.7621765,-0.5238085,-1.0433599,-7.1914,-6.0285997,-8.470686,0.7661445
0.6809507,4.7621646,-0.56322324,-0.9879661,-7.4342804,-5.865794,-8.676587,0.7230489
0.67337424,4.762148,-0.56322324,-0.9879661,-7.4342804,-5.865794,-8.676587,0.7230489
0.6655231,4.761976,-0.6047686,-0.92724603,-7.67503,-5.899313,-8.805874,0.44532153
0.6576718,4.7617984,-0.6047686,-0.92724603,-7.67503,-5.899313,-8.805874,0.44532153
0.6495874,4.761471,-0.65377074,-0.86865646,-7.9168453,-5.8226986,-8.911219,0.24420857
0.64151233,4.7611365,-0.65377074,-0.86865646,-7.9168453,-5.8226986,-8.911219,0.24420857
0.63322556,4.760643,-0.7059687,-0.8068711,-8.150138,-5.9663506,-9.097966,-0.04309563
0.62495464,4.7601423,-0.7059687,-0.8068711,-8.150138,-5.9663506,-9.097966,-0.04309563
0.6164843,4.759519,-0.7581667,-0.73762894,-8.373843,-6.1004257,-9.241618,-0.11492168
0.6080259,4.7588906,-0.7581667,-0.73762894,-8.373843,-6.1004257,-9.241618,-0.11492168
0.59935725,4.758154,-0.8124951,-0.66838676,-8.587962,-6.229713,-9.490616,-0.023942016
0.5907055,4.757414,-0.8124951,-0.66838676,-8.587962,-6.229713,-9.490616,-0.023942016
0.5818746,4.7565746,-0.8625626,-0.6076667,-8.792493,-6.325481,-9.672575,-0.16280572
0.5730605,4.7557373,-0.8625626,-0.6076667,-8.792493,-6.325481,-9.672575,-0.16280572
0.56408215,4.7548227,-0.90623844,-0.55546874,-8.988502,-6.5984197,-9.998186,-0.076614454
0.55512345,4.7539167,-0.90623844,-0.55546874,-8.988502,-6.5984197,-9.998186,-0.076614454
0.5458636,4.752963,-0.9424574,-0.52244556,-9.172792,-5.9759274,-10.079589,0.14844051
0.5366417,4.7520037,-0.9424574,-0.52244556,-9.172792,-5.9759274,-10.079589,0.14844051
0.5272287,4.7510114,-0.96482795,-0.50646657,-9.351756,-5.659893,-10.151415,-0.21068975
0.5178217,4.750019,-0.96482795,-0.50646657,-9.351756,-5.659893,-10.151415,-0.21068975
0.5081837,4.7490005,-0.98293746,-0.4872918,-9.523264,-5.554548,-10.132261,0.07182605
0.49847183,4.747968,-0.98293746,-0.4872918,-9.523264,-5.554548,-10.132261,0.07182605
0.48881793,4.747016,-0.9967859,-0.46811703,-9.6894455,-5.2480903,-10.213664,0.2873042
0.47900575,4.7460365,-0.9967859,-0.46811703,-9.6894455,-5.2480903,-10.213664,0.2873042
0.4690484,4.745162,-1.0042428,-0.45533386,-9.853496,-4.9416323,-10.28549,0.521936
0.45908985,4.744306,-1.0042428,-0.45533386,-9.853496,-4.9416323,-10.28549,0.521936
0.44901705,4.743469,-0.9999817,-0.4425507,-10.019677,-5.032612,-10.357317,0.46926352
0.43902037,4.7426424,-0.9999817,-0.4425507,-10.019677,-5.032612,-10.357317,0.46926352
0.4288764,4.7418146,-0.9882638,-0.42763698,-10.178402,-5.1235914,-10.548853,0.641646
0.41872814,4.740978,-0.9882638,-0.42763698,-10.178402,-5.1235914,-10.548853,0.641646
0.40831342,4.740163,-0.96908903,-0.44148543,-10.3317995,-3.9217024,-10.371682,1.0007763
0.3979407,4.739357,-0.96908903,-0.44148543,-10.3317995,-3.9217024,-10.371682,1.0007763
0.3873558,4.738551,-0.94458795,-0.4606602,-10.486263,-3.3662477,-10.156203,0.7038953
0.3766929,4.7377462,-0.94458795,-0.4606602,-10.486263,-3.3662477,-10.156203,0.7038953
0.3659327,4.736877,-0.92008686,-0.4574644,-10.63753,-3.6391866,-10.127473,0.19632454
0.35515374,4.736,-0.92008686,-0.4574644,-10.63753,-3.6391866,-10.127473,0.19632454
0.3445115,4.7351904,-0.8977163,-0.4425507,-10.7728195,-4.156334,-10.228029,0.2825158
0.3338483,4.734378,-0.8977163,-0.4425507,-10.7728195,-4.156334,-10.228029,0.2825158
0.3230931,4.7335873,-0.876411,-0.45213807,-10.897455,-4.9176903,-10.496181,0.320823
0.31234872,4.732797,-0.876411,-0.45213807,-10.897455,-4.9176903,-10.496181,0.320823
0.30144796,4.7320743,-0.856171,-0.4958139,-11.016765,-4.146757,-10.103531,0.50278234
0.29053894,4.731345,-0.856171,-0.4958139,-11.016765,-4.146757,-10.103531,0.50278234
0.27938947,4.73072,-0.8306046,-0.56718665,-11.122226,-2.753332,-9.768343,0.7182605
0.2682382,4.730093,-0.8306046,-0.56718665,-11.122226,-2.753332,-9.768343,0.7182605
0.25708386,4.729492,-0.8082341,-0.6108625,-11.1925335,-2.8299465,-9.682152,0.48362875
0.24596553,4.7288795,-0.8082341,-0.6108625,-11.1925335,-2.8299465,-9.682152,0.48362875
0.23483573,4.728255,-0.78479826,-0.6247109,-11.24047,-3.0310593,-9.619903,0.40701428
0.22369914,4.72762,-0.78479826,-0.6247109,-11.24047,-3.0310593,-9.619903,0.40701428
0.21253623,4.7270155,-0.76136243,-0.6438857,-11.2724285,-2.9640217,-9.385271,0.48841715
0.20138794,4.726403,-0.76136243,-0.6438857,-11.2724285,-2.9640217,-9.385271,0.48841715
0.19017975,4.725831,-0.7421877,-0.6673215,-11.27669,-2.3989902,-9.150639,0.48362875
0.17894605,4.7252455,-0.7421877,-0.6673215,-11.27669,-2.3989902,-9.150639,0.48362875
0.16777177,4.7246847,-0.727274,-0.69288784,-11.251123,-2.3558946,-9.030929,0.62728083
0.15670417,4.7241187,-0.727274,-0.69288784,-11.251123,-2.3558946,-9.030929,0.62728083
0.14557685,4.7235136,-0.71449083,-0.72271526,-11.19786,-3.643975,-9.121908,0.45489833
0.13450533,4.7229047,-0.71449083,-0.72271526,-11.19786,-3.643975,-9.121908,0.45489833
0.12345375,4.722297,-0.70383817,-0.7685216,-11.124356,-3.9983168,-8.738836,0.38307226
0.11255644,4.721691,-0.70383817,-0.7685216,-11.124356,-3.9983168,-8.738836,0.38307226
0.101669066,4.7210703,-0.69851184,-0.8441554,-11.028482,-4.831499,-8.010999,-0.009576807
0.09071657,4.7204385,-0.69851184,-0.8441554,-11.028482,-4.831499,-8.010999,-0.009576807
0.07999142,4.719795,-0.70064235,-0.93257236,-10.899586,-4.390966,-7.455544,-0.4213795
0.06915908,4.7191367,-0.70064235,-0.93257236,-10.899586,-4.390966,-7.455544,-0.4213795
0.05832514,4.718445,-0.71875185,-1.015663,-10.732339,-4.4819455,-7.3071036,-0.49320555
0.04792638,4.7177715,-0.71875185,-1.015663,-10.732339,-4.4819455,-7.3071036,-0.49320555
0.037516348,4.71706,-0.74325293,-1.0966231,-10.542722,-3.8642416,-7.0341644,-0.29209262
0.027200643,4.7163444,-0.74325293,-1.0966231,-10.542722,-3.8642416,-7.0341644,-0.29209262
0.017031087,4.7155933,-0.7656235,-1.18504,-10.323277,-4.0653543,-6.9623384,-0.320823
0.006841861,4.7148294,-0.7656235,-1.18504,-10.323277,-4.0653543,-6.9623384,-0.320823
6.2800345,4.714038,-0.783733,-1.2830443,-10.069745,-2.0973208,-6.4068837,-0.06703765
6.2800345,4.714038,-0.783733,-1.2830443,-10.069745,-2.0973208,-6.4068837,-0.06703765
6.2800345,4.714038,-0.783733,-1.2830443,-10.069745,-2.0973208,-6.4068837,-0.06703765
6.2800345,4.714038,-0.7943857,-1.3767877,-9.78745,-1.733402,-6.5505357,-0.076614454
6.2413917,4.710699,-0.80077726,-1.4236592,-9.473197,-1.8626889,-6.5696893,0
6.232181,4.7098436,-0.80077726,-1.4236592,-9.473197,-1.8626889,-6.5696893,0
6.2229295,4.7089653,-0.7954509,-1.4566824,-9.135508,-1.2306197,-6.349423,0.2633622
6.2229295,4.7089653,-0.7954509,-1.4566824,-9.135508,-1.2306197,-6.349423,0.2633622
6.20448,4.707148,-0.77947193,-1.483314,-8.772253,-0.4165911,-6.4068837,0.19632454
6.196804,4.7063713,-0.77947193,-1.483314,-8.772253,-0.4165911,-6.4068837,0.19632454
6.188674,4.70553,-0.7624277,-1.4641393,-8.382366,-0.5554548,-6.4978633,0.39264908
6.179943,4.7046113,-0.7624277,-1.4641393,-8.382366,-0.5554548,-6.4978633,0.39264908
6.1727796,4.7038374,-0.74325293,-1.4087455,-7.9669127,-0.90021986,-6.5744777,0.7230489
6.164974,4.7029815,-0.74325293,-1.4087455,-7.9669127,-0.90021986,-6.5744777,0.7230489
6.164974,4.7029815,-0.74325293,-1.4087455,-7.9669127,-0.90021986,-6.5744777,0.7230489
6.1501737,4.7012777,-0.7240782,-1.3426992,-7.521632,-0.7422025,-6.2584434,0.62728083
6.143296,4.70044,-0.70383817,-1.2691959,-7.04972,-0.8810662,-6.1004257,0.60333884
6.1363363,4.699581,-0.70383817,-1.2691959,-7.04972,-0.8810662,-6.1004257,0.60333884
6.1299357,4.698753,-0.6889245,-1.1882358,-6.554372,-0.7469909,-5.851429,0.62728083
6.123511,4.6979113,-0.6889245,-1.1882358,-6.554372,-0.7469909,-5.851429,0.62728083
6.1159635,4.696847,-0.67827183,-1.0966231,-6.04198,-0.79008657,-5.7365074,0.49799395
6.1116233,4.696229,-0.67827183,-1.0966231,-6.04198,-0.79008657,-5.7365074,0.49799395
6.106261,4.6954126,-0.6729455,-1.0007492,-5.5189347,-0.40701428,-5.497087,0.4213795
6.100894,4.694588,-0.6729455,-1.0007492,-5.5189347,-0.40701428,-5.497087,0.4213795
6.096053,4.6937675,-0.67188025,-0.90487546,-4.9926944,-0.38307226,-5.3486466,0.2825158
6.091165,4.692933,-0.67188025,-0.90487546,-4.9926944,-0.38307226,-5.3486466,0.2825158
6.086841,4.6921554,-0.67401075,-0.814328,-4.4739103,0.4357447,-5.1235914,0.272939
6.0824842,4.691366,-0.67401075,-0.814328,-4.4739103,0.4357447,-5.1235914,0.272939
6.0784936,4.6906185,-0.6772066,-0.7205847,-3.968975,1.1587936,-5.0374002,0.22026655
6.074477,4.6898623,-0.6772066,-0.7205847,-3.968975,1.1587936,-5.0374002,0.22026655
6.0709896,4.6891346,-0.6825329,-0.6087319,-3.492802,1.1300632,-4.8745947,0.19153613
6.0674944,4.688401,-0.6825329,-0.6087319,-3.492802,1.1300632,-4.8745947,0.19153613
6.064403,4.687683,-0.68359816,-0.49794444,-3.0528476,1.2354081,-4.7070007,0.23942018
6.0613036,4.686961,-0.68359816,-0.49794444,-3.0528476,1.2354081,-4.7070007,0.23942018
6.0585647,4.6862383,-0.6825329,-0.3999401,-2.6491125,1.5227122,-4.4723687,0.20590134
6.0558357,4.685517,-0.6825329,-0.3999401,-2.6491125,1.5227122,-4.4723687,0.20590134
6.0534334,4.684787,-0.68040234,-0.31578422,-2.2890532,1.9057846,-4.2521024,0.14844051
6.051029,4.6840553,-0.68040234,-0.31578422,-2.2890532,1.9057846,-4.2521024,0.14844051
6.0489244,4.68333,-0.6793371,-0.24228097,-1.9801264,2.3223755,-4.146757,0.1340753
6.0468245,4.6826053,-0.6793371,-0.24228097,-1.9801264,2.3223755,-4.146757,0.1340753
6.044963,4.6818786,-0.67827183,-0.1815609,-1.728724,2.657564,-4.156334,-0.01436521
6.0431066,4.6811533,-0.67827183,-0.1815609,-1.728724,2.657564,-4.156334,-0.01436521
6.041445,4.6804366,-0.6793371,-0.13468927,-1.5316501,2.9640217,-4.247314,-0.033518825
6.0397825,4.679719,-0.6793371,-0.13468927,-1.5316501,2.9640217,-4.247314,-0.033518825
6.0382595,4.6790037,-0.68359816,-0.10273133,-1.3910352,3.1172507,-4.453215,-0.076614454
6.0367365,4.6782875,-0.68359816,-0.10273133,-1.3910352,3.1172507,-4.453215,-0.076614454
6.035307,4.677571,-0.6867939,-0.08142605,-1.2983571,3.3087866,-4.8698063,-0.16280572
6.033875,4.676852,-0.6867939,-0.08142605,-1.2983571,3.3087866,-4.8698063,-0.16280572
6.0324945,4.676132,-0.69212025,-0.06864287,-1.2461592,3.3901896,-5.257667,-0.17238252
6.0311193,4.675415,-0.69212025,-0.06864287,-1.2461592,3.3901896,-5.257667,-0.17238252
6.0297565,4.674695,-0.70170766,-0.064381815,-1.2301803,3.4524388,-5.755661,-0.076614454
6.0283937,4.6739745,-0.70170766,-0.064381815,-1.2301803,3.4524388,-5.755661,-0.076614454
6.027015,4.6732373,-0.71236026,-0.066512346,-1.2440287,3.4715924,-6.215348,-0.17238252
6.0256386,4.672501,-0.71236026,-0.066512346,-1.2440287,3.4715924,-6.215348,-0.17238252
6.024227,4.6717567,-0.7208824,-0.07396919,-1.2770518,3.323152,-6.655881,-0.15801731
6.0228167,4.671013,-0.7208824,-0.07396919,-1.2770518,3.323152,-6.655881,-0.15801731
6.021363,4.670249,-0.72620875,-0.0856871,-1.3196625,3.1651347,-7.067683,-0.29209262
6.0199084,4.669485,-0.72620875,-0.0856871,-1.3196625,3.1651347,-7.067683,-0.29209262
6.0184064,4.6687264,-0.72833925,-0.10486186,-1.3718604,3.016694,-7.383718,-0.22505496
6.0169034,4.6679673,-0.72833925,-0.10486186,-1.3718604,3.016694,-7.383718,-0.22505496
6.0153456,4.6671863,-0.7240782,-0.12723242,-1.4251236,2.8299465,-7.627927,-0.36391866
6.0137877,4.6664057,-0.7240782,-0.12723242,-1.4251236,2.8299465,-7.627927,-0.36391866
6.0121894,4.6655946,-0.711295,-0.15386403,-1.475191,2.753332,-7.6949644,-0.521936
6.010591,4.6647835,-0.711295,-0.15386403,-1.475191,2.753332,-7.6949644,-0.521936
6.008947,4.66399,-0.69425076,-0.1815609,-1.5188669,2.7246015,-7.6853876,-0.47405192
6.0073004,4.6631966,-0.69425076,-0.1815609,-1.5188669,2.7246015,-7.6853876,-0.47405192
6.005623,4.662414,-0.6697497,-0.20819251,-1.5572164,2.7150247,-7.690176,-0.49799395
6.003944,4.6616306,-0.6697497,-0.20819251,-1.5572164,2.7150247,-7.690176,-0.49799395
6.0022593,4.660839,-0.6367265,-0.23482412,-1.5859785,2.7581203,-7.589619,-0.6895301
6.0005736,4.6600447,-0.6367265,-0.23482412,-1.5859785,2.7581203,-7.589619,-0.6895301
5.9988575,4.6592937,-0.6005075,-0.25825995,-1.6072838,2.8395233,-7.536947,-0.6368576
5.9971414,4.6585417,-0.6005075,-0.25825995,-1.6072838,2.8395233,-7.536947,-0.6368576
5.9954205,4.657811,-0.56109273,-0.27636945,-1.6221975,2.9017725,-7.345411,-0.7565677
5.9937,4.6570797,-0.56109273,-0.27636945,-1.6221975,2.9017725,-7.345411,-0.7565677
5.9919705,4.6563907,-0.5195474,-0.29021788,-1.6264586,3.0550013,-7.2113357,-0.7757214
5.990241,4.6557007,-0.5195474,-0.29021788,-1.6264586,3.0550013,-7.2113357,-0.7757214
5.9885163,4.655052,-0.4780021,-0.30087054,-1.6190017,3.1172507,-7.086837,-0.770933
5.9867926,4.6544023,-0.4780021,-0.30087054,-1.6190017,3.1172507,-7.086837,-0.770933
5.9850836,4.653791,-0.44071785,-0.30513158,-1.6019576,3.2130187,-6.933608,-0.78529817
5.983375,4.6531773,-0.44071785,-0.30513158,-1.6019576,3.2130187,-6.933608,-0.78529817
5.981695,4.6525946,-0.40449885,-0.30406633,-1.5774565,3.2992098,-6.83784,-0.8858546
5.980017,4.652011,-0.40449885,-0.30406633,-1.5774565,3.2992098,-6.83784,-0.8858546
5.978373,4.651457,-0.37147567,-0.29980525,-1.5423027,3.3758245,-6.742072,-0.9672575
5.9767327,4.6509023,-0.37147567,-0.29980525,-1.5423027,3.3758245,-6.742072,-0.9672575
5.9751306,4.650383,-0.3427135,-0.29021788,-1.4986268,3.4524388,-6.6271505,-0.94331545
5.973528,4.6498637,-0.3427135,-0.29021788,-1.4986268,3.4524388,-6.6271505,-0.94331545
5.9719815,4.6493692,-0.32034296,-0.27636945,-1.4432331,3.5194764,-6.5840545,-0.9911995
5.9704347,4.6488743,-0.32034296,-0.27636945,-1.4432331,3.5194764,-6.5840545,-0.9911995
5.9689484,4.6484003,-0.30329874,-0.25719467,-1.3793173,3.5625722,-6.5122285,-1.0247183
5.9674673,4.6479273,-0.30329874,-0.25719467,-1.3793173,3.5625722,-6.5122285,-1.0247183
5.966059,4.647472,-0.29264608,-0.23695466,-1.3047488,3.6343982,-6.555324,-1.0582372
5.96465,4.647015,-0.29264608,-0.23695466,-1.3047488,3.6343982,-6.555324,-1.0582372
5.9633226,4.646572,-0.28518924,-0.21351884,-1.2227234,3.6822822,-6.531382,-1.1061212
5.961975,4.6461225,-0.28518924,-0.21351884,-1.2227234,3.6822822,-6.531382,-1.1061212
5.9607453,4.645699,-0.27666712,-0.18901776,-1.1321759,3.6343982,-6.5984197,-1.091756
5.959466,4.645258,-0.27666712,-0.18901776,-1.1321759,3.6343982,-6.5984197,-1.091756
5.9583516,4.644854,-0.27240607,-0.16451667,-1.0373673,3.739743,-6.6415157,-1.1587936
5.9572086,4.644439,-0.27240607,-0.16451667,-1.0373673,3.739743,-6.6415157,-1.1587936
5.9561687,4.6440396,-0.27027553,-0.14108086,-0.93829775,3.763685,-6.7133417,-1.1444284
5.955118,4.6436357,-0.27027553,-0.14108086,-0.93829775,3.763685,-6.7133417,-1.1444284
5.954172,4.643248,-0.268145,-0.11977556,-0.83709764,3.8115692,-6.9000893,-1.1204864
5.953203,4.64285,-0.268145,-0.11977556,-0.83709764,3.8115692,-6.9000893,-1.1204864
5.95237,4.6424894,-0.268145,-0.10060081,-0.7390933,3.8642416,-7.067683,-1.0007763
5.9515085,4.6421165,-0.268145,-0.10060081,-0.7390933,3.8642416,-7.067683,-1.0007763
5.950744,4.6417665,-0.268145,-0.08036078,-0.6442848,3.8977604,-7.216124,-0.89543146
5.949977,4.641415,-0.268145,-0.08036078,-0.6442848,3.8977604,-7.216124,-0.89543146
5.949291,4.6410794,-0.2660145,-0.062251285,-0.55480254,3.9264908,-7.3789296,-0.8283938
5.948608,4.640745,-0.2660145,-0.062251285,-0.55480254,3.9264908,-7.3789296,-0.8283938
5.948,4.640424,-0.2660145,-0.04627232,-0.47171193,3.8738184,-7.541735,-0.7469909
5.9473977,4.640106,-0.2660145,-0.04627232,-0.47171193,3.8738184,-7.541735,-0.7469909
5.946864,4.639804,-0.26388395,-0.03242388,-0.39820868,3.7493198,-7.699753,-0.6703765
5.9463305,4.6395025,-0.26388395,-0.03242388,-0.39820868,3.7493198,-7.699753,-0.6703765
5.945853,4.639223,-0.26068816,-0.020705972,-0.33855388,3.7349546,-7.9008656,-0.58897364
5.9453754,4.6389437,-0.26068816,-0.020705972,-0.33855388,3.7349546,-7.9008656,-0.58897364
5.944947,4.638672,-0.2564271,-0.012183856,-0.2895517,3.6822822,-8.1163435,-0.61291564
5.9445167,4.638399,-0.2564271,-0.012183856,-0.2895517,3.6822822,-8.1163435,-0.61291564
5.9441323,4.6381464,-0.25110078,-0.005792269,-0.2501369,3.691859,-8.259995,-0.59376204
5.943746,4.637892,-0.25110078,-0.005792269,-0.2501369,3.691859,-8.259995,-0.59376204
5.9433837,4.63764,-0.24577445,-0.00366174,-0.2235053,3.667917,-8.51857,-0.63206923
5.9430203,4.6373878,-0.24577445,-0.00366174,-0.2235053,3.667917,-8.51857,-0.63206923
5.942672,4.6371403,-0.23618707,-0.005792269,-0.20859161,3.715801,-8.724471,-0.6655881
5.942327,4.636896,-0.23618707,-0.005792269,-0.20859161,3.715801,-8.724471,-0.6655881
5.9419837,4.6366463,-0.22553442,-0.008988062,-0.20539582,3.6966474,-8.949526,-0.7278373
5.9416413,4.636398,-0.22553442,-0.008988062,-0.20539582,3.6966474,-8.949526,-0.7278373
5.941299,4.6361265,-0.21062072,-0.019640706,-0.21285266,3.7445314,-9.131485,-0.8475474
5.940961,4.6358595,-0.21062072,-0.019640706,-0.21285266,3.7445314,-9.131485,-0.8475474
5.9406075,4.635601,-0.19357648,-0.029228088,-0.23096216,3.7349546,-9.227253,-0.8571242
5.9402533,4.635342,-0.19357648,-0.029228088,-0.23096216,3.7349546,-9.227253,-0.8571242
5.93989,4.6350784,-0.17333646,-0.040945996,-0.254398,3.7253778,-9.246407,-0.93373865
5.9395294,4.634817,-0.17333646,-0.040945996,-0.254398,3.7253778,-9.246407,-0.93373865
5.9391503,4.6345615,-0.15096591,-0.0558597,-0.2863559,3.6822822,-9.279925,-0.9624691
5.938771,4.634305,-0.15096591,-0.0558597,-0.2863559,3.6822822,-9.279925,-0.9624691
5.9383755,4.6340556,-0.12646483,-0.07183866,-0.32044438,3.6391866,-9.188946,-1.0295067
5.93798,4.633806,-0.12646483,-0.07183866,-0.32044438,3.6391866,-9.188946,-1.0295067
5.9375687,4.6335683,-0.09983322,-0.08781763,-0.3555981,3.5673606,-9.141062,-1.067814
5.9371586,4.6333313,-0.09983322,-0.08781763,-0.3555981,3.5673606,-9.141062,-1.067814
5.9367156,4.633112,-0.07320161,-0.10486186,-0.38968655,3.572149,-9.093178,-1.0965444
5.9362736,4.632893,-0.07320161,-0.10486186,-0.38968655,3.572149,-9.093178,-1.0965444
5.935805,4.6326942,-0.04443947,-0.12084083,-0.42377502,3.5003228,-9.045294,-1.0486604
5.9353366,4.632495,-0.04443947,-0.12084083,-0.42377502,3.5003228,-9.045294,-1.0486604
5.9348154,4.632328,-0.01674259,-0.13255873,-0.45360243,3.5625722,-8.939949,-1.0151415
5.9342947,4.63216,-0.01674259,-0.13255873,-0.45360243,3.5625722,-8.939949,-1.0151415
5.933765,4.632009,0.00988902,-0.14321138,-0.47703823,3.5003228,-8.882488,-1.0342951
5.933238,4.631858,0.00988902,-0.14321138,-0.47703823,3.5003228,-8.882488,-1.0342951
5.9326754,4.631737,0.037585896,-0.14960296,-0.49408248,3.53863,-8.820239,-1.0055647
5.932115,4.631616,0.037585896,-0.14960296,-0.49408248,3.53863,-8.820239,-1.0055647
5.9315434,4.631516,0.05995645,-0.15386403,-0.50580037,3.5051112,-8.762778,-0.9816227
5.9309697,4.6314144,0.05995645,-0.15386403,-0.50580037,3.5051112,-8.762778,-0.9816227
5.9304,4.6313286,0.07806595,-0.1549293,-0.5111267,3.514688,-8.690952,-1.0342951
5.9298325,4.6312423,0.07806595,-0.1549293,-0.5111267,3.514688,-8.690952,-1.0342951
5.929273,4.6311655,0.09297965,-0.15386403,-0.51006144,3.4955344,-8.6095495,-1.1109096
5.9287095,4.6310883,0.09297965,-0.15386403,-0.51006144,3.4955344,-8.6095495,-1.1109096
5.9287095,4.6310883,0.09297965,-0.15386403,-0.51006144,3.4955344,-8.6095495,-1.1109096
5.9274735,4.630941,0.10789335,-0.1517335,-0.5004741,3.442862,-8.537724,-1.1444284
5.927122,4.6309023,0.119611256,-0.14747244,-0.48342985,3.3662477,-8.485051,-1.2689269
5.9266276,4.630847,0.119611256,-0.14747244,-0.48342985,3.3662477,-8.485051,-1.2689269
5.925213,4.63072,0.13772075,-0.1368198,-0.4269708,3.3183637,-8.360553,-1.412579
5.925213,4.63072,0.13772075,-0.1368198,-0.4269708,3.3183637,-8.360553,-1.412579
5.925213,4.63072,0.13772075,-0.1368198,-0.4269708,3.3183637,-8.360553,-1.412579
5.925213,4.63072,0.13772075,-0.1368198,-0.4269708,3.3183637,-8.360553,-1.412579
5.925213,4.63072,0.13772075,-0.1368198,-0.4269708,3.3183637,-8.360553,-1.412579
5.923892,4.6306205,0.14411235,-0.13042821,-0.38649076,3.2992098,-8.283937,-1.4221559
5.923594,4.6306076,0.14730814,-0.121906094,-0.33855388,3.3566709,-8.226477,-1.412579
5.9232388,4.6305923,0.14730814,-0.121906094,-0.33855388,3.3566709,-8.226477,-1.412579
5.922923,4.6305857,0.1483734,-0.110188186,-0.28529066,3.4093432,-8.082825,-1.4413095
5.9226108,4.6305785,0.1483734,-0.110188186,-0.28529066,3.4093432,-8.082825,-1.4413095
5.922341,4.6305785,0.14730814,-0.09740501,-0.22989689,3.4763808,-7.9726915,-1.484405
5.922071,4.630579,0.14730814,-0.09740501,-0.22989689,3.4763808,-7.9726915,-1.484405
5.9218535,4.630582,0.14304708,-0.08462184,-0.17343788,3.5194764,-7.843405,-1.532289
5.9216347,4.630585,0.14304708,-0.08462184,-0.17343788,3.5194764,-7.843405,-1.532289
5.9214587,4.6305904,0.13559023,-0.07183866,-0.120174654,3.572149,-7.714118,-1.4987702
5.921283,4.630595,0.13559023,-0.07183866,-0.120174654,3.572149,-7.714118,-1.4987702
5.9211545,4.630596,0.12387232,-0.057990227,-0.06904196,3.6583402,-7.6375036,-1.6089035
5.921026,4.630596,0.12387232,-0.057990227,-0.06904196,3.6583402,-7.6375036,-1.6089035
5.9209414,4.6305895,0.11002388,-0.044141788,-0.022170324,3.6822822,-7.4842744,-1.6711528
5.9208565,4.630583,0.11002388,-0.044141788,-0.022170324,3.6822822,-7.4842744,-1.6711528
5.9208126,4.6305666,0.09297965,-0.033489145,0.023636047,3.691859,-7.441179,-1.6184803
5.9207683,4.63055,0.09297965,-0.033489145,0.023636047,3.691859,-7.441179,-1.6184803
5.9207563,4.6305223,0.07273962,-0.023901764,0.06518136,3.7349546,-7.393295,-1.5370775
5.9207444,4.630494,0.07273962,-0.023901764,0.06518136,3.7349546,-7.393295,-1.5370775
5.9207654,4.6304545,0.054630127,-0.015379649,0.102465615,3.7349546,-7.3645644,-1.4891934
5.9207864,4.6304145,0.054630127,-0.015379649,0.102465615,3.7349546,-7.3645644,-1.4891934
5.920843,4.630361,0.03652063,-0.0068575335,0.13974987,3.7014358,-7.3166804,-1.4556746
5.9208994,4.630309,0.03652063,-0.0068575335,0.13974987,3.7014358,-7.3166804,-1.4556746
5.9209905,4.630242,0.019476399,0.0005993177,0.17383833,3.7205894,-7.393295,-1.4652514
5.9210806,4.6301756,0.019476399,0.0005993177,0.17383833,3.7205894,-7.393295,-1.4652514
5.921211,4.6300936,0.003497433,0.008056169,0.20686153,3.6152446,-7.393295,-1.4556746
5.92134,4.630012,0.003497433,0.008056169,0.20686153,3.6152446,-7.393295,-1.4556746
5.921516,4.629916,-0.009285741,0.013382491,0.24201526,3.4859576,-7.465121,-1.4652514
5.9216914,4.629821,-0.009285741,0.013382491,0.24201526,3.4859576,-7.465121,-1.4652514
5.9219136,4.629716,-0.019938385,0.017643549,0.28143004,3.3039982,-7.5321584,-1.3024458
5.9221377,4.62961,-0.019938385,0.017643549,0.28143004,3.3039982,-7.5321584,-1.3024458
5.922422,4.6294975,-0.02313418,0.013382491,0.3272364,3.1986535,-7.632715,-1.283292
5.9227176,4.62938,-0.02313418,0.013382491,0.3272364,3.1986535,-7.632715,-1.283292
5.923047,4.6292744,-0.017807856,0.0016645822,0.37943438,3.1507695,-7.714118,-1.1204864
5.9234405,4.6291466,-0.017807856,0.0016645822,0.37943438,3.1507695,-7.714118,-1.1204864
5.9237704,4.6290674,-0.0028941538,-0.007922798,0.44228497,3.145981,-7.785944,-1.0390835
5.924158,4.6289754,-0.0028941538,-0.007922798,0.44228497,3.145981,-7.785944,-1.0390835
5.924609,4.6289086,0.018411135,-0.012183856,0.51472294,3.1028855,-7.9008656,-0.8283938
5.9250607,4.6288424,0.018411135,-0.012183856,0.51472294,3.1028855,-7.9008656,-0.8283938
5.925515,4.628858,0.041846953,-0.01324912,0.58929145,3.1316159,-7.9391727,-0.7038953
5.925977,4.6288757,0.041846953,-0.01324912,0.58929145,3.1316159,-7.9391727,-0.7038953
5.9265122,4.6290035,0.0674133,-0.011118591,0.66599053,3.145981,-7.9822683,-0.61770403
5.92705,4.629131,0.0674133,-0.011118591,0.66599053,3.145981,-7.9822683,-0.61770403
5.9276752,4.6293044,0.09297965,-0.0068575335,0.74055904,3.1651347,-8.049306,-0.59376204
5.9283004,4.6294765,0.09297965,-0.0068575335,0.74055904,3.1651347,-8.049306,-0.59376204
5.9289722,4.629637,0.11641546,-0.0015312112,0.8119317,3.2082303,-8.010999,-0.6368576
5.9296446,4.6297956,0.11641546,-0.0015312112,0.8119317,3.2082303,-8.010999,-0.6368576
5.9303827,4.629982,0.13559023,0.0027298466,0.8769129,3.241749,-8.015787,-0.62249243
5.931119,4.630166,0.13559023,0.0027298466,0.8769129,3.241749,-8.015787,-0.62249243
5.9319205,4.6303587,0.14943866,0.0069909045,0.93869823,3.2465374,-8.030152,-0.641646
5.932723,4.6305504,0.14943866,0.0069909045,0.93869823,3.2465374,-8.030152,-0.641646
5.933564,4.6307173,0.16115656,0.012317227,0.99089617,3.169923,-8.1402855,-0.6991069
5.9344144,4.6308856,0.16115656,0.012317227,0.99089617,3.169923,-8.1402855,-0.6991069
5.9353075,4.63107,0.16754816,0.01551302,1.0356373,3.2465374,-8.159439,-0.6991069
5.936201,4.631255,0.16754816,0.01551302,1.0356373,3.2465374,-8.159439,-0.6991069
5.937162,4.631395,0.17287448,0.017643549,1.070791,3.217807,-8.269572,-0.79966336
5.938118,4.631535,0.17287448,0.017643549,1.070791,3.217807,-8.269572,-0.79966336
5.93912,4.631666,0.17713554,0.016578285,1.0974226,3.2369606,-8.394072,-0.8523358
5.9401264,4.6317987,0.17713554,0.016578285,1.0974226,3.2369606,-8.394072,-0.8523358
5.9411635,4.6319213,0.17820081,0.016578285,1.1134015,3.2609026,-8.576031,-0.90979666
5.9421988,4.632045,0.17820081,0.016578285,1.1134015,3.2609026,-8.576031,-0.90979666
5.9432817,4.632159,0.17926607,0.016578285,1.1229889,3.2130187,-8.75799,-0.92895025
5.9443593,4.6322737,0.17926607,0.016578285,1.1229889,3.2130187,-8.75799,-0.92895025
5.9454575,4.6323876,0.18033133,0.014447756,1.1251194,3.2130187,-8.872911,-0.93852705
5.946535,4.6325,0.18033133,0.014447756,1.1251194,3.2130187,-8.872911,-0.93852705
5.947647,4.632611,0.1813966,0.012317227,1.1187279,3.169923,-9.006987,-0.9768343
5.9487543,4.6327214,0.1813966,0.012317227,1.1187279,3.169923,-9.006987,-0.9768343
5.9498806,4.632834,0.18246186,0.009121433,1.1059448,3.1555579,-9.155427,-0.91458505
5.9509993,4.6329455,0.18246186,0.009121433,1.1059448,3.1555579,-9.155427,-0.91458505
5.952148,4.633068,0.1845924,0.0048603755,1.0878352,3.1028855,-9.26556,-0.8858546
5.953288,4.6331873,0.1845924,0.0048603755,1.0878352,3.1028855,-9.26556,-0.8858546
5.9544497,4.633337,0.18885344,0.0016645822,1.0622689,3.0550013,-9.461885,-0.866701
5.9556174,4.633485,0.18885344,0.0016645822,1.0622689,3.0550013,-9.461885,-0.866701
5.9567747,4.633665,0.19204924,0.0005993177,1.0335068,2.9352913,-9.548077,-0.842759
5.9579296,4.633843,0.19204924,0.0005993177,1.0335068,2.9352913,-9.548077,-0.842759
5.9590573,4.6340218,0.19524503,-0.00046594674,1.0036794,2.873042,-9.696517,-0.8858546
5.9601836,4.6341987,0.19524503,-0.00046594674,1.0036794,2.873042,-9.696517,-0.8858546
5.961292,4.6344094,0.19524503,-0.00046594674,0.9717214,2.815581,-9.816227,-0.79966336
5.9623985,4.6346188,0.19524503,-0.00046594674,0.9717214,2.815581,-9.816227,-0.79966336
5.963478,4.6348486,0.19417977,0.0005993177,0.941894,2.7341783,-9.907207,-0.7326257
5.9645553,4.635077,0.19417977,0.0005993177,0.941894,2.7341783,-9.907207,-0.7326257
5.965606,4.635298,0.19204924,0.0005993177,0.9088708,2.6144683,-10.04607,-0.7565677
5.966648,4.6355166,0.19204924,0.0005993177,0.9088708,2.6144683,-10.04607,-0.7565677
5.9676676,4.6357284,0.18778819,0.0016645822,0.87797815,2.6288335,-10.084377,-0.7757214
5.968681,4.6359377,0.18778819,0.0016645822,0.87797815,2.6288335,-10.084377,-0.7757214
5.9696603,4.636163,0.18352713,0.0027298466,0.84815073,2.5905263,-10.189722,-0.6799533
5.970648,4.63639,0.18352713,0.0027298466,0.84815073,2.5905263,-10.189722,-0.6799533
5.9715943,4.636608,0.17713554,0.0027298466,0.8161928,2.5809495,-10.28549,-0.6799533
5.972545,4.6368265,0.17713554,0.0027298466,0.8161928,2.5809495,-10.28549,-0.6799533
5.973467,4.6370287,0.17074396,0.003795111,0.78530014,2.542642,-10.357317,-0.7278373
5.9743876,4.6372294,0.17074396,0.003795111,0.78530014,2.542642,-10.357317,-0.7278373
5.975281,4.637436,0.16541763,0.003795111,0.7576032,2.528277,-10.419566,-0.6703765
5.9761724,4.637642,0.16541763,0.003795111,0.7576032,2.528277,-10.419566,-0.6703765
5.97704,4.6378326,0.15796077,0.0048603755,0.7320369,2.4708161,-10.443508,-0.7038953
5.9779086,4.638023,0.15796077,0.0048603755,0.7320369,2.4708161,-10.443508,-0.7038953
5.9787507,4.6382065,0.1483734,0.00592564,0.70647055,2.432509,-10.5680065,-0.6895301
5.979592,4.638389,0.1483734,0.00592564,0.70647055,2.432509,-10.5680065,-0.6895301
5.9804115,4.6385555,0.13772075,0.009121433,0.68196946,2.3989902,-10.582372,-0.7230489
5.9812307,4.638722,0.13772075,0.009121433,0.68196946,2.3989902,-10.582372,-0.7230489
5.9820237,4.638879,0.12813337,0.012317227,0.6574684,2.3654714,-10.55843,-0.7182605
5.9828176,4.639035,0.12813337,0.012317227,0.6574684,2.3654714,-10.55843,-0.7182605
5.9835873,4.6391783,0.118545994,0.016578285,0.6329673,2.2936451,-10.548853,-0.7422025
5.9843574,4.6393213,0.118545994,0.016578285,0.6329673,2.2936451,-10.548853,-0.7422025
5.985102,4.6394672,0.10789335,0.020839343,0.6105968,2.3319526,-10.582372,-0.6655881
5.9858475,4.639612,0.10789335,0.020839343,0.6105968,2.3319526,-10.582372,-0.6655881
5.9865685,4.6397524,0.0972407,0.02723093,0.5882262,2.2984335,-10.582372,-0.63206923
5.9872894,4.6398926,0.0972407,0.02723093,0.5882262,2.2984335,-10.582372,-0.63206923
5.987982,4.640033,0.08552279,0.033622514,0.56479037,2.3319526,-10.553641,-0.56982
5.988676,4.640173,0.08552279,0.033622514,0.56479037,2.3319526,-10.553641,-0.56982
5.989347,4.6403065,0.074870154,0.04214463,0.5434851,2.2457612,-10.55843,-0.5363012
5.990017,4.64044,0.074870154,0.04214463,0.5434851,2.2457612,-10.55843,-0.5363012
5.9906645,4.6405663,0.06315224,0.049601484,0.52217984,2.2936451,-10.505757,-0.5267244
5.9913106,4.6406918,0.06315224,0.049601484,0.52217984,2.2936451,-10.505757,-0.5267244
5.9919357,4.640811,0.0524996,0.0581236,0.5008745,2.3175871,-10.472239,-0.5267244
5.99256,4.6409297,0.0524996,0.0581236,0.5008745,2.3175871,-10.472239,-0.5267244
5.9931626,4.64104,0.041846953,0.06664571,0.47956923,2.3175871,-10.414778,-0.5267244
5.9937654,4.6411505,0.041846953,0.06664571,0.47956923,2.3175871,-10.414778,-0.5267244
5.994342,4.641254,0.031194309,0.07516783,0.45506814,2.2888567,-10.400413,-0.50278234
5.994919,4.6413584,0.031194309,0.07516783,0.45506814,2.2888567,-10.400413,-0.50278234
5.995473,4.641445,0.020541664,0.08475521,0.4295018,2.3127987,-10.271125,-0.5650316
5.9960284,4.6415324,0.020541664,0.08475521,0.4295018,2.3127987,-10.271125,-0.5650316
5.996558,4.641621,0.00988902,0.09327733,0.40713125,2.2984335,-10.251971,-0.50278234
5.997082,4.641709,0.00988902,0.09327733,0.40713125,2.2984335,-10.251971,-0.50278234
5.99759,4.6417894,0.001366904,0.10179944,0.38689122,2.360683,-10.151415,-0.5315128
5.998095,4.6418695,0.001366904,0.10179944,0.38689122,2.360683,-10.151415,-0.5315128
5.9985876,4.64193,-0.006089947,0.10925629,0.36771646,2.303222,-10.065224,-0.58897364
5.9990816,4.641991,-0.006089947,0.10925629,0.36771646,2.303222,-10.065224,-0.58897364
5.999563,4.642025,-0.013546798,0.117778406,0.3485417,2.3175871,-9.907207,-0.6751649
6.00004,4.642059,-0.013546798,0.117778406,0.3485417,2.3175871,-9.907207,-0.6751649
6.0005,4.642103,-0.021003649,0.12417,0.333628,2.2840683,-9.859323,-0.60333884
6.0009613,4.642148,-0.021003649,0.12417,0.333628,2.2840683,-9.859323,-0.60333884
6.0014124,4.6421604,-0.027395237,0.13162684,0.32191008,2.2888567,-9.768343,-0.7038953
6.001867,4.6421733,-0.027395237,0.13162684,0.32191008,2.2888567,-9.768343,-0.7038953
6.0023074,4.6421924,-0.03059103,0.13801843,0.3101922,2.255338,-9.730036,-0.6703765
6.002767,4.6422124,-0.03059103,0.13801843,0.3101922,2.255338,-9.730036,-0.6703765
6.003179,4.6422234,-0.034852087,0.14334476,0.30167007,2.2601264,-9.677363,-0.6847417
6.0036077,4.642234,-0.034852087,0.14334476,0.30167007,2.2601264,-9.677363,-0.6847417
6.0040293,4.64223,-0.03698262,0.14867108,0.297409,2.2409728,-9.619903,-0.7326257
6.0044575,4.6422253,-0.03698262,0.14867108,0.297409,2.2409728,-9.619903,-0.7326257
6.004882,4.6422396,-0.03698262,0.1539974,0.2952785,2.2409728,-9.548077,-0.6655881
6.005355,4.642256,-0.03698262,0.1539974,0.2952785,2.2409728,-9.548077,-0.6655881
6.0058217,4.6422606,-0.03698262,0.15825845,0.29953954,2.2649148,-9.437943,-0.6895301
6.006176,4.642265,-0.03698262,0.15825845,0.29953954,2.2649148,-9.437943,-0.6895301
6.0065994,4.642272,-0.034852087,0.16251951,0.30486587,2.2505496,-9.361329,-0.6847417
6.0065994,4.642272,-0.034852087,0.16251951,0.30486587,2.2505496,-9.361329,-0.6847417
6.0065994,4.642272,-0.034852087,0.16251951,0.30486587,2.2505496,-9.361329,-0.6847417
6.0080705,4.642307,-0.033786822,0.16678058,0.313388,2.3223755,-9.275137,-0.6368576
6.008338,4.6423464,-0.031656295,0.17104164,0.32510588,2.3894134,-9.212888,-0.5793968
6.0092134,4.6424937,-0.027395237,0.17530268,0.33788908,2.4181437,-9.11712,-0.56982
6.0092134,4.6424937,-0.027395237,0.17530268,0.33788908,2.4181437,-9.11712,-0.56982
6.0096493,4.6425786,-0.027395237,0.17530268,0.33788908,2.4181437,-9.11712,-0.56982
6.009994,4.642509,-0.024199443,0.18062901,0.34960696,2.5234885,-8.978256,-0.6512229
6.009994,4.642509,-0.024199443,0.18062901,0.34960696,2.5234885,-8.978256,-0.6512229
6.0106063,4.6424065,-0.021003649,0.18595533,0.35919434,2.5809495,-8.901642,-0.63206923
6.0108113,4.6424303,-0.021003649,0.18595533,0.35919434,2.5809495,-8.901642,-0.63206923
6.011024,4.64247,-0.015677327,0.19234692,0.3666512,2.5761611,-8.825027,-0.62249243
6.0112357,4.642508,-0.015677327,0.19234692,0.3666512,2.5761611,-8.825027,-0.62249243
6.011471,4.6425085,-0.010351005,0.19660798,0.37197754,2.6001031,-8.796297,-0.6703765
6.011706,4.642509,-0.010351005,0.19660798,0.37197754,2.6001031,-8.796297,-0.6703765
6.0119457,4.6425095,-0.006089947,0.20086904,0.37410805,2.6384103,-8.75799,-0.6991069
6.012186,4.6425095,-0.006089947,0.20086904,0.37410805,2.6384103,-8.75799,-0.6991069
6.012416,4.6425376,-0.0018288894,0.2051301,0.37836912,2.6767175,-8.710106,-0.6703765
6.012646,4.6425653,-0.0018288894,0.2051301,0.37836912,2.6767175,-8.710106,-0.6703765
6.012876,4.642607,0.0024321685,0.20939115,0.38156492,2.6623523,-8.710106,-0.6512229
6.013106,4.642649,0.0024321685,0.20939115,0.38156492,2.6623523,-8.710106,-0.6512229
6.0133376,4.6426997,0.0077584907,0.21365221,0.3847607,2.6527755,-8.7292595,-0.6464345
6.01357,4.6427503,0.0077584907,0.21365221,0.3847607,2.6527755,-8.7292595,-0.6464345
6.013825,4.6428833,0.015215342,0.216848,0.3911523,2.6767175,-8.734048,-0.50757074
6.014079,4.643016,0.015215342,0.216848,0.3911523,2.6767175,-8.734048,-0.50757074
6.01433,4.6431227,0.023737457,0.21791327,0.40180492,2.6288335,-8.710106,-0.58418524
6.0145764,4.6432266,0.023737457,0.21791327,0.40180492,2.6288335,-8.710106,-0.58418524
6.014851,4.6433744,0.031194309,0.22217433,0.4113923,2.6623523,-8.714894,-0.51235914
6.015121,4.6435194,0.031194309,0.22217433,0.4113923,2.6623523,-8.714894,-0.51235914
6.0154014,4.6436725,0.040781688,0.22537012,0.42417547,2.6288335,-8.6574335,-0.51714754
6.0156837,4.643826,0.040781688,0.22537012,0.42417547,2.6288335,-8.6574335,-0.51714754
6.0159945,4.6440063,0.05036907,0.22750065,0.43908918,2.5809495,-8.66701,-0.49799395
6.0163,4.644183,0.05036907,0.22750065,0.43908918,2.5809495,-8.66701,-0.49799395
6.0166616,4.644397,0.05995645,0.22963117,0.45826393,2.4899697,-8.652645,-0.47405192
6.017021,4.6446095,0.05995645,0.22963117,0.45826393,2.4899697,-8.652645,-0.47405192
6.017415,4.6448402,0.07060909,0.23282696,0.48169976,2.4756045,-8.690952,-0.47884035
6.0178003,4.645066,0.07060909,0.23282696,0.48169976,2.4756045,-8.690952,-0.47884035
6.0182514,4.6453185,0.08126174,0.23602276,0.50620085,2.4229321,-8.710106,-0.46447513
6.0186987,4.6455703,0.08126174,0.23602276,0.50620085,2.4229321,-8.710106,-0.46447513
6.019194,4.6458383,0.09404491,0.23708802,0.534963,2.3989902,-8.7532015,-0.47405192
6.019685,4.646105,0.09404491,0.23708802,0.534963,2.3989902,-8.7532015,-0.47405192
6.0201893,4.64638,0.104697555,0.2381533,0.56692094,2.4133554,-8.7053175,-0.45489833
6.020692,4.646655,0.104697555,0.2381533,0.56692094,2.4133554,-8.7053175,-0.45489833
6.0211725,4.6469126,0.1153502,0.24028382,0.6020746,2.456451,-8.695741,-0.50278234
6.02165,4.6471663,0.1153502,0.24028382,0.6020746,2.456451,-8.695741,-0.50278234
6.0221376,4.6473966,0.12493758,0.24241436,0.6382936,2.4756045,-8.719683,-0.5410896
6.022625,4.647624,0.12493758,0.24241436,0.6382936,2.4756045,-8.719683,-0.5410896
6.0231404,4.6478443,0.13452496,0.24454488,0.6723821,2.4851813,-8.714894,-0.5554548
6.0236564,4.648062,0.13452496,0.24454488,0.6723821,2.4851813,-8.714894,-0.5554548
6.024208,4.648298,0.14198181,0.24454488,0.70647055,2.4756045,-8.791509,-0.5506664
6.024759,4.6485305,0.14198181,0.24454488,0.70647055,2.4756045,-8.791509,-0.5506664
6.0253677,4.6486964,0.1483734,0.24454488,0.7416243,2.456451,-8.8777,-0.61770403
6.025976,4.6488633,0.1483734,0.24454488,0.7416243,2.456451,-8.8777,-0.61770403
6.026642,4.64917,0.15263446,0.24561015,0.7735822,2.4708161,-8.8777,-0.45968673
6.0273037,4.6494737,0.15263446,0.24561015,0.7735822,2.4708161,-8.8777,-0.45968673
6.0280414,4.6496067,0.15263446,0.24561015,0.8023444,2.3702598,-8.973468,-0.59855044
6.0287647,4.649744,0.15263446,0.24561015,0.8023444,2.3702598,-8.973468,-0.59855044
6.029525,4.6498766,0.15156919,0.2466754,0.82684547,2.3894134,-9.074024,-0.61291564
6.030278,4.650014,0.15156919,0.2466754,0.82684547,2.3894134,-9.074024,-0.61291564
6.031184,4.6501546,0.14730814,0.24774067,0.84815073,2.336741,-9.179369,-0.61291564
6.0320807,4.6502886,0.14730814,0.24774067,0.84815073,2.336741,-9.179369,-0.61291564
6.032989,4.650414,0.13985129,0.24880594,0.865195,2.3415294,-9.270349,-0.6368576
6.0338845,4.6505346,0.13985129,0.24880594,0.865195,2.3415294,-9.270349,-0.6368576
6.0348043,4.6506505,0.12919864,0.2498712,0.8726518,2.3175871,-9.385271,-0.6847417
6.0357156,4.650763,0.12919864,0.2498712,0.8726518,2.3175871,-9.385271,-0.6847417
6.0366783,4.6508865,0.11641546,0.25093648,0.87584764,2.2936451,-9.509769,-0.6607997
6.037635,4.651006,0.11641546,0.25093648,0.87584764,2.2936451,-9.509769,-0.6607997
6.0386014,4.651123,0.102567025,0.253067,0.8726518,2.2457612,-9.68694,-0.6943185
6.039565,4.6512375,0.102567025,0.253067,0.8726518,2.2457612,-9.68694,-0.6943185
6.040539,4.651362,0.08871859,0.253067,0.86199915,2.2840683,-9.840169,-0.6512229
6.0415077,4.651483,0.08871859,0.253067,0.86199915,2.2840683,-9.840169,-0.6512229
6.0424767,4.651647,0.07273962,0.25200173,0.84495497,2.2409728,-9.998186,-0.58418524
6.043444,4.65181,0.07273962,0.25200173,0.84495497,2.2409728,-9.998186,-0.58418524
6.044391,4.651936,0.05782592,0.24880594,0.82364964,2.2361844,-10.065224,-0.61770403
6.0453353,4.65206,0.05782592,0.24880594,0.82364964,2.2361844,-10.065224,-0.61770403
6.0462537,4.652171,0.043977484,0.24347961,0.7938222,2.1547816,-10.175357,-0.62249243
6.047173,4.652281,0.043977484,0.24347961,0.7938222,2.1547816,-10.175357,-0.62249243
6.04806,4.652356,0.030129045,0.2349575,0.75866854,2.087744,-10.28549,-0.6799533
6.0489373,4.65243,0.030129045,0.2349575,0.75866854,2.087744,-10.28549,-0.6799533
6.0497785,4.6525173,0.015215342,0.22643538,0.720319,2.0685902,-10.352529,-0.59855044
6.0506244,4.6526046,0.015215342,0.22643538,0.720319,2.0685902,-10.352529,-0.59855044
6.051428,4.6526794,0.0024321685,0.21578273,0.67664313,2.1021092,-10.424355,-0.59376204
6.052226,4.652754,0.0024321685,0.21578273,0.67664313,2.1021092,-10.424355,-0.59376204
6.0529804,4.6528177,-0.009285741,0.20619535,0.6287063,2.0685902,-10.414778,-0.5793968
6.0537314,4.652881,-0.009285741,0.20619535,0.6287063,2.0685902,-10.414778,-0.5793968
6.054488,4.6529455,-0.009285741,0.20619535,0.6287063,2.0685902,-10.414778,-0.5793968
6.0551844,4.653022,-0.019938385,0.19660798,0.5797041,2.0638018,-10.491392,-0.50278234
6.055875,4.653098,-0.019938385,0.19660798,0.5797041,2.0638018,-10.491392,-0.50278234
6.056522,4.6531506,-0.032721557,0.1870206,0.53070194,1.9728222,-10.462662,-0.50757074
6.0571895,4.6531935,-0.043374203,0.17636795,0.4806345,1.9536686,-10.524911,-0.50278234
6.057729,4.6532288,-0.043374203,0.17636795,0.4806345,1.9536686,-10.524911,-0.50278234
6.058298,4.653247,-0.05402685,0.1657153,0.4295018,1.9536686,-10.477027,-0.5315128
6.058844,4.653264,-0.05402685,0.1657153,0.4295018,1.9536686,-10.477027,-0.5315128
6.0593915,4.653282,-0.05402685,0.1657153,0.4295018,1.9536686,-10.477027,-0.5315128
6.059883,4.653303,-0.062548965,0.15506266,0.37836912,1.9440918,-10.453085,-0.47405192
6.060377,4.6533246,-0.062548965,0.15506266,0.37836912,1.9440918,-10.453085,-0.47405192
6.060836,4.6533155,-0.07000581,0.14547528,0.3304322,1.9249382,-10.46745,-0.545878
6.0612903,4.653306,-0.07000581,0.14547528,0.3304322,1.9249382,-10.46745,-0.545878
6.061696,4.653304,-0.07852793,0.13695318,0.28675637,1.934515,-10.433931,-0.48362875
6.0621004,4.653303,-0.07852793,0.13695318,0.28675637,1.934515,-10.433931,-0.48362875
6.0624685,4.653281,-0.08705004,0.12843105,0.2441458,1.8722657,-10.395624,-0.50278234
6.0628366,4.6532598,-0.08705004,0.12843105,0.2441458,1.8722657,-10.395624,-0.50278234
6.063164,4.653233,-0.09663743,0.1209742,0.20579627,1.8579005,-10.314221,-0.47405192
6.063489,4.6532063,-0.09663743,0.1209742,0.20579627,1.8579005,-10.314221,-0.47405192
6.063785,4.653165,-0.10302901,0.11458261,0.17170781,1.8243817,-10.338163,-0.49320555
6.064081,4.653124,-0.10302901,0.11458261,0.17170781,1.8243817,-10.338163,-0.49320555
6.0643535,4.6530533,-0.11048587,0.10819103,0.14081514,1.7908629,-10.251971,-0.5602432
6.064626,4.652983,-0.11048587,0.10819103,0.14081514,1.7908629,-10.251971,-0.5602432
6.0648685,4.6529136,-0.11900798,0.100734174,0.11311826,1.8291701,-10.208876,-0.5267244
6.06511,4.652845,-0.11900798,0.100734174,0.11311826,1.8291701,-10.208876,-0.5267244
6.065335,4.652746,-0.12539956,0.09327733,0.09074771,1.8052281,-10.127473,-0.58897364
6.06556,4.6526475,-0.12539956,0.09327733,0.09074771,1.8052281,-10.127473,-0.58897364
6.06576,4.652568,-0.13072589,0.087951005,0.07263821,1.8195933,-10.079589,-0.51235914
6.065961,4.6524887,-0.13072589,0.087951005,0.07263821,1.8195933,-10.079589,-0.51235914
6.0661535,4.652389,-0.13498695,0.08368994,0.059855036,1.8291701,-9.969456,-0.5554548
6.0663457,4.6522903,-0.13498695,0.08368994,0.059855036,1.8291701,-9.969456,-0.5554548
6.0665317,4.6521688,-0.13711748,0.07942889,0.05026766,1.8243817,-9.859323,-0.59855044
6.0667167,4.652048,-0.13711748,0.07942889,0.05026766,1.8243817,-9.859323,-0.59855044
6.0668936,4.651927,-0.13711748,0.0762331,0.041745543,1.8387469,-9.773131,-0.59376204
6.067071,4.651806,-0.13711748,0.0762331,0.041745543,1.8387469,-9.773131,-0.59376204
6.0672407,4.651691,-0.1360522,0.073037304,0.03428869,1.910573,-9.662998,-0.5793968
6.06741,4.651577,-0.1360522,0.073037304,0.03428869,1.910573,-9.662998,-0.5793968
6.0675645,4.6515017,-0.13392168,0.06877624,0.032158162,1.9153614,-9.581595,-0.521936
6.067719,4.6514273,-0.13392168,0.06877624,0.032158162,1.9153614,-9.581595,-0.521936
6.067882,4.6512904,-0.13179116,0.06558045,0.030027634,1.9249382,-9.461885,-0.59855044
6.068045,4.6511536,-0.13179116,0.06558045,0.030027634,1.9249382,-9.461885,-0.59855044
6.068157,4.6511216,-0.12859535,0.06344992,0.033223428,1.9632454,-9.361329,-0.49320555
6.0682683,4.6510897,-0.12859535,0.06344992,0.033223428,1.9632454,-9.361329,-0.49320555
6.068311,4.651082,-0.12326904,0.062384658,0.03854975,2.0207062,-9.275137,-0.48841715
6.068353,4.6510735,-0.12326904,0.062384658,0.03854975,2.0207062,-9.275137,-0.48841715
6.0683675,4.6510706,-0.11687745,0.062384658,0.041745543,2.054225,-9.26556,-0.44532153
6.068382,4.6510673,-0.11687745,0.062384658,0.041745543,2.054225,-9.26556,-0.44532153
6.068378,4.651066,-0.1094206,0.06344992,0.05026766,2.0925324,-9.150639,-0.39264908
6.068374,4.651065,-0.1094206,0.06344992,0.05026766,2.0925324,-9.150639,-0.39264908
6.068384,4.6510754,-0.09876795,0.06344992,0.061985567,2.0829554,-9.141062,-0.39743748
6.068394,4.6510854,-0.09876795,0.06344992,0.061985567,2.0829554,-9.141062,-0.39743748
6.0684385,4.651112,-0.08811531,0.06558045,0.07050768,2.0398598,-9.078813,-0.30166942
6.068483,4.6511383,-0.08811531,0.06558045,0.07050768,2.0398598,-9.078813,-0.30166942
6.068525,4.651174,-0.077462666,0.06877624,0.08222559,2.0685902,-9.069236,-0.32561144
6.068566,4.6512094,-0.077462666,0.06877624,0.08222559,2.0685902,-9.069236,-0.32561144
6.0685887,4.651248,-0.06361423,0.069841504,0.09820456,2.111686,-8.954314,-0.36391866
6.0686116,4.651287,-0.06361423,0.069841504,0.09820456,2.111686,-8.954314,-0.36391866
6.0686445,4.6513414,-0.04763526,0.071972035,0.112053,2.1404164,-8.978256,-0.34955344
6.068678,4.651396,-0.04763526,0.071972035,0.112053,2.1404164,-8.978256,-0.34955344
6.0686874,4.6514344,-0.033786822,0.073037304,0.13016249,2.1883004,-8.901642,-0.4309563
6.068697,4.6514735,-0.033786822,0.073037304,0.13016249,2.1883004,-8.901642,-0.4309563
6.068697,4.6514735,-0.033786822,0.073037304,0.13016249,2.1883004,-8.901642,-0.4309563
6.068697,4.6514735,-0.008220476,0.074102566,0.16105516,2.2122424,-8.872911,-0.4309563
6.0688066,4.651656,-0.008220476,0.074102566,0.16105516,2.2122424,-8.872911,-0.4309563
6.068844,4.651718,-0.008220476,0.074102566,0.16105516,2.2122424,-8.872911,-0.4309563
6.068894,4.651787,0.003497433,0.074102566,0.17703412,2.1930888,-8.8777,-0.4309563
6.0689487,4.651863,0.003497433,0.074102566,0.17703412,2.1930888,-8.8777,-0.4309563
6.0690026,4.651925,0.0141500775,0.074102566,0.19194783,2.2361844,-8.834604,-0.46926352
6.06906,4.651991,0.0141500775,0.074102566,0.19194783,2.2361844,-8.834604,-0.46926352
6.0691247,4.6520596,0.02160693,0.069841504,0.204731,2.2697031,-8.848969,-0.44532153
6.0691934,4.652133,0.02160693,0.069841504,0.204731,2.2697031,-8.848969,-0.44532153
6.069267,4.652198,0.030129045,0.06558045,0.21538365,2.2649148,-8.882488,-0.49320555
6.0693407,4.652263,0.030129045,0.06558045,0.21538365,2.2649148,-8.882488,-0.49320555
6.0694337,4.65236,0.037585896,0.06344992,0.2228405,2.2840683,-8.920795,-0.4261679
6.069526,4.652456,0.037585896,0.06344992,0.2228405,2.2840683,-8.920795,-0.4261679
6.069621,4.6525464,0.043977484,0.060254127,0.23136261,2.2505496,-8.949526,-0.46926352
6.0697155,4.6526365,0.043977484,0.060254127,0.23136261,2.2505496,-8.949526,-0.46926352
6.06981,4.652692,0.049303804,0.057058334,0.2377542,2.2457612,-8.954314,-0.5554548
6.0699053,4.652747,0.049303804,0.057058334,0.2377542,2.2457612,-8.954314,-0.5554548
6.0700145,4.6528525,0.05356486,0.053862542,0.24201526,2.2170308,-9.011775,-0.46447513
6.070123,4.652958,0.05356486,0.053862542,0.24201526,2.2170308,-9.011775,-0.46447513
6.0702324,4.65306,0.056760654,0.050666746,0.24521105,2.207454,-9.059659,-0.48362875
6.0703416,4.653161,0.056760654,0.050666746,0.24521105,2.207454,-9.059659,-0.48362875
6.070448,4.6532574,0.05995645,0.046405688,0.24521105,2.2026656,-9.112331,-0.50278234
6.0705543,4.6533527,0.05995645,0.046405688,0.24521105,2.2026656,-9.112331,-0.50278234
6.0706587,4.6534386,0.06315224,0.04214463,0.24627632,2.1930888,-9.160215,-0.5267244
6.0707626,4.6535234,0.06315224,0.04214463,0.24627632,2.1930888,-9.160215,-0.5267244
6.070873,4.6536236,0.06528277,0.037883572,0.24840684,2.1547816,-9.232041,-0.51714754
6.070983,4.653723,0.06528277,0.037883572,0.24840684,2.1547816,-9.232041,-0.51714754
6.0710917,4.653821,0.0674133,0.035753045,0.24840684,2.1404164,-9.289502,-0.5267244
6.0712004,4.6539183,0.0674133,0.035753045,0.24840684,2.1404164,-9.289502,-0.5267244
6.0713453,4.6539216,0.06634804,0.033622514,0.24521105,2.0973208,-9.370906,-0.60333884
6.0714893,4.6539254,0.06634804,0.033622514,0.24521105,2.0973208,-9.370906,-0.60333884
6.0716934,4.6539025,0.06528277,0.032557253,0.24308053,2.0733786,-9.404425,-0.6703765
6.071895,4.65388,0.06528277,0.032557253,0.24308053,2.0733786,-9.404425,-0.6703765
6.072015,4.6538987,0.062086977,0.031491987,0.24201526,2.087744,-9.394848,-0.5793968
6.072134,4.653918,0.062086977,0.031491987,0.24201526,2.087744,-9.394848,-0.5793968
6.072344,4.6538873,0.058891185,0.032557253,0.24094999,2.078167,-9.485827,-0.6895301
6.0725527,4.6538563,0.058891185,0.032557253,0.24094999,2.078167,-9.485827,-0.6895301
6.0727806,4.6538205,0.055695392,0.032557253,0.23668894,2.0446482,-9.509769,-0.6655881
6.0730066,4.6537848,0.055695392,0.032557253,0.23668894,2.0446482,-9.509769,-0.6655881
6.0732827,4.6537495,0.05036907,0.03468778,0.23242788,1.9967642,-9.572019,-0.6607997
6.073557,4.653714,0.05036907,0.03468778,0.23242788,1.9967642,-9.572019,-0.6607997
6.073797,4.6536665,0.04291222,0.03681831,0.22816682,2.0159178,-9.591172,-0.7661445
6.0740385,4.6536183,0.04291222,0.03681831,0.22816682,2.0159178,-9.591172,-0.7661445
6.074317,4.653572,0.034390103,0.040014103,0.22070996,1.9536686,-9.662998,-0.7182605
6.074601,4.6535068,0.023737457,0.04427516,0.21218786,1.9488802,-9.715671,-0.79008657
6.074831,4.6534534,0.023737457,0.04427516,0.21218786,1.9488802,-9.715671,-0.79008657
6.075086,4.6533937,0.023737457,0.04427516,0.21218786,1.9488802,-9.715671,-0.79008657
6.075352,4.6533265,0.010954284,0.047470953,0.20260048,1.910573,-9.811439,-0.80445176
6.075616,4.653259,0.010954284,0.047470953,0.20260048,1.910573,-9.811439,-0.80445176
6.075902,4.653189,-0.0039594183,0.052797277,0.1930131,1.8818425,-9.868899,-0.7517793
6.0761724,4.653123,-0.0039594183,0.052797277,0.1930131,1.8818425,-9.868899,-0.7517793
6.0764437,4.6530447,-0.017807856,0.05599307,0.18022992,1.8387469,-9.892841,-0.770933
6.0767164,4.6529655,-0.017807856,0.05599307,0.18022992,1.8387469,-9.892841,-0.770933
6.0769835,4.652881,-0.031656295,0.05918886,0.16851202,1.8195933,-9.9550905,-0.7613561
6.077252,4.652796,-0.031656295,0.05918886,0.16851202,1.8195933,-9.9550905,-0.7613561
6.0775394,4.6527386,-0.046569996,0.062384658,0.15466358,1.7812861,-10.022128,-0.6560113
6.0778246,4.652681,-0.046569996,0.062384658,0.15466358,1.7812861,-10.022128,-0.6560113
6.0780754,4.6525793,-0.060418434,0.06558045,0.13655408,1.7860745,-10.0987425,-0.7517793
6.0783243,4.652478,-0.060418434,0.06558045,0.13655408,1.7860745,-10.0987425,-0.7517793
6.0785685,4.6523795,-0.07426687,0.06877624,0.119509846,1.7429788,-10.1226845,-0.7182605
6.078811,4.6522803,-0.07426687,0.06877624,0.119509846,1.7429788,-10.1226845,-0.7182605
6.079049,4.652192,-0.08705004,0.073037304,0.104596145,1.7669208,-10.117896,-0.6512229
6.0792866,4.6521034,-0.08705004,0.073037304,0.104596145,1.7669208,-10.117896,-0.6512229
6.0795064,4.651996,-0.09770269,0.07516783,0.088617176,1.7429788,-10.160992,-0.6799533
6.0797257,4.6518893,-0.09770269,0.07516783,0.088617176,1.7429788,-10.160992,-0.6799533
6.079926,4.651763,-0.11048587,0.07836362,0.07263821,1.733402,-10.117896,-0.6991069
6.080127,4.6516366,-0.11048587,0.07836362,0.07263821,1.733402,-10.117896,-0.6991069
6.0803137,4.6515107,-0.122203775,0.08262468,0.054528717,1.733402,-10.0987425,-0.6655881
6.0804996,4.6513863,-0.122203775,0.08262468,0.054528717,1.733402,-10.0987425,-0.6655881
6.0806665,4.65124,-0.13072589,0.08368994,0.039615013,1.7238252,-10.108319,-0.7038953
6.0808334,4.6510944,-0.13072589,0.08368994,0.039615013,1.7238252,-10.108319,-0.7038953
6.0809903,4.650949,-0.139248,0.085820474,0.025766576,1.7046716,-10.079589,-0.6799533
6.0811477,4.650804,-0.139248,0.085820474,0.025766576,1.7046716,-10.079589,-0.6799533
6.0812902,4.650667,-0.1456396,0.087951005,0.008722344,1.7046716,-10.103531,-0.6464345
6.0814333,4.650531,-0.1456396,0.087951005,0.008722344,1.7046716,-10.103531,-0.6464345
6.081559,4.6503778,-0.14990065,0.090081535,-0.0051260935,1.6663644,-10.070012,-0.6847417
6.081685,4.650225,-0.14990065,0.090081535,-0.0051260935,1.6663644,-10.070012,-0.6847417
6.0818024,4.6500945,-0.15309644,0.0911468,-0.016844003,1.6472107,-10.0269165,-0.61291564
6.0819197,4.6499643,-0.15309644,0.0911468,-0.016844003,1.6472107,-10.0269165,-0.61291564
6.0820217,4.6498494,-0.15309644,0.090081535,-0.029627176,1.661576,-9.993398,-0.56982
6.082123,4.6497355,-0.15309644,0.090081535,-0.029627176,1.661576,-9.993398,-0.56982
6.0822177,4.64961,-0.15309644,0.090081535,-0.039214555,1.7142484,-9.964667,-0.60333884
6.082312,4.649485,-0.15309644,0.090081535,-0.039214555,1.7142484,-9.964667,-0.60333884
6.082399,4.649338,-0.15203118,0.087951005,-0.046671405,1.6903064,-9.883265,-0.6512229
6.0824857,4.6491904,-0.15203118,0.087951005,-0.046671405,1.6903064,-9.883265,-0.6512229
6.0825653,4.6490836,-0.14777012,0.087951005,-0.050932467,1.6903064,-9.816227,-0.56982
6.082645,4.648977,-0.14777012,0.087951005,-0.050932467,1.6903064,-9.816227,-0.56982
6.082725,4.6488643,-0.14350906,0.087951005,-0.053062994,1.7142484,-9.768343,-0.59376204
6.082805,4.6487527,-0.14350906,0.087951005,-0.053062994,1.7142484,-9.768343,-0.59376204
6.0828857,4.648635,-0.139248,0.086885735,-0.05412826,1.7286136,-9.749189,-0.61291564
6.082966,4.6485176,-0.139248,0.086885735,-0.05412826,1.7286136,-9.749189,-0.61291564
6.0830317,4.648446,-0.13285641,0.085820474,-0.05412826,1.7669208,-9.667787,-0.5506664
6.083098,4.6483755,-0.13285641,0.085820474,-0.05412826,1.7669208,-9.667787,-0.5506664
6.083173,4.6482983,-0.1275301,0.08475521,-0.050932467,1.7669208,-9.648633,-0.56982
6.083248,4.6482224,-0.1275301,0.08475521,-0.050932467,1.7669208,-9.648633,-0.56982
6.0833235,4.648157,-0.122203775,0.08368994,-0.04773667,1.8100165,-9.581595,-0.5746084
6.083399,4.6480927,-0.122203775,0.08368994,-0.04773667,1.8100165,-9.581595,-0.5746084
6.083462,4.6480503,-0.11581218,0.08262468,-0.046671405,1.8435353,-9.548077,-0.56982
6.0835247,4.6480093,-0.11581218,0.08262468,-0.046671405,1.8435353,-9.548077,-0.56982
6.083563,4.647995,-0.1094206,0.08155942,-0.04454088,1.8339585,-9.471462,-0.5363012
6.0836005,4.64798,-0.1094206,0.08155942,-0.04454088,1.8339585,-9.471462,-0.5363012
6.0836596,4.647959,-0.10196375,0.07942889,-0.043475613,1.8674773,-9.399636,-0.58418524
6.0837183,4.6479387,-0.10196375,0.07942889,-0.043475613,1.8674773,-9.399636,-0.58418524
6.0837216,4.6479564,-0.092376366,0.07836362,-0.041345086,1.8818425,-9.356541,-0.5793968
6.083725,4.647974,-0.092376366,0.07836362,-0.041345086,1.8818425,-9.356541,-0.5793968
6.0836577,4.6480045,-0.08385425,0.07836362,-0.04027982,1.8914193,-9.279925,-0.545878
6.083591,4.6480355,-0.08385425,0.07836362,-0.04027982,1.8914193,-9.279925,-0.545878
6.083432,4.647916,-0.075332135,0.0762331,-0.04027982,1.8914193,-9.275137,-0.60333884
6.08327,4.647799,-0.075332135,0.0762331,-0.04027982,1.8914193,-9.275137,-0.60333884
6.083131,4.6478205,-0.06681002,0.0762331,-0.04027982,1.9249382,-9.303867,-0.5746084
6.0829926,4.6478434,-0.06681002,0.0762331,-0.04027982,1.9249382,-9.303867,-0.5746084
6.082847,4.6477304,-0.056157377,0.073037304,-0.04027982,1.958457,-9.241618,-0.6512229
6.0827017,4.647617,-0.056157377,0.073037304,-0.04027982,1.958457,-9.241618,-0.6512229
6.0825257,4.6475496,-0.045504734,0.07090677,-0.039214555,2.0111294,-9.222465,-0.63206923
6.0823503,4.6474833,-0.045504734,0.07090677,-0.039214555,2.0111294,-9.222465,-0.63206923
6.0821705,4.647445,-0.033786822,0.06771098,-0.037084028,2.006341,-9.169792,-0.61291564
6.0819917,4.6474066,-0.033786822,0.06771098,-0.037084028,2.006341,-9.169792,-0.61291564
6.081819,4.6474266,-0.024199443,0.06451519,-0.036018763,2.0254946,-9.155427,-0.5602432
6.081646,4.647447,-0.024199443,0.06451519,-0.036018763,2.0254946,-9.155427,-0.5602432
6.0814924,4.6474986,-0.013546798,0.060254127,-0.031757705,1.9871874,-9.088389,-0.5363012
6.081341,4.647549,-0.013546798,0.060254127,-0.031757705,1.9871874,-9.088389,-0.5363012
6.0811687,4.6475573,-0.0039594183,0.057058334,-0.028561912,2.0446482,-9.088389,-0.58897364
6.080994,4.6475654,-0.0039594183,0.057058334,-0.028561912,2.0446482,-9.088389,-0.58897364
6.080825,4.647584,0.003497433,0.053862542,-0.026431382,2.0254946,-9.074024,-0.58418524
6.0806546,4.6476026,0.003497433,0.053862542,-0.026431382,2.0254946,-9.074024,-0.58418524
6.080488,4.647631,0.008823755,0.05173201,-0.024300855,1.9919758,-9.064447,-0.5793968
6.0803185,4.6476603,0.008823755,0.05173201,-0.024300855,1.9919758,-9.064447,-0.5793968
6.080161,4.6476965,0.015215342,0.049601484,-0.017909266,1.9871874,-9.021352,-0.5746084
6.080002,4.6477327,0.015215342,0.049601484,-0.017909266,1.9871874,-9.021352,-0.5746084
6.0798492,4.6477785,0.020541664,0.047470953,-0.01151768,1.9919758,-9.069236,-0.5746084
6.079693,4.6478243,0.020541664,0.047470953,-0.01151768,1.9919758,-9.069236,-0.5746084
6.079555,4.647895,0.02906378,0.045340426,-0.0051260935,1.9919758,-9.045294,-0.5554548
6.079416,4.6479654,0.02906378,0.045340426,-0.0051260935,1.9919758,-9.045294,-0.5554548
6.079275,4.647999,0.03545537,0.045340426,0.00020022877,2.0015526,-9.054871,-0.59376204
6.079133,4.648032,0.03545537,0.045340426,0.00020022877,2.0015526,-9.054871,-0.59376204
6.0790124,4.6481285,0.041846953,0.04214463,0.009787609,1.9967642,-9.035717,-0.5410896
6.0788937,4.648222,0.041846953,0.04214463,0.009787609,1.9967642,-9.035717,-0.5410896
6.078819,4.6483564,0.049303804,0.04107937,0.018309724,1.9728222,-9.064447,-0.50757074
6.0787444,4.64849,0.049303804,0.04107937,0.018309724,1.9728222,-9.064447,-0.50757074
6.078638,4.648585,0.054630127,0.038948838,0.02683184,1.9967642,-9.088389,-0.5554548
6.0785284,4.6486816,0.054630127,0.038948838,0.02683184,1.9967642,-9.088389,-0.5554548
6.078448,4.6488066,0.061021715,0.03681831,0.03641922,1.9871874,-9.074024,-0.5315128
6.078366,4.648932,0.061021715,0.03681831,0.03641922,1.9871874,-9.074024,-0.5315128
6.078299,4.649087,0.06847856,0.035753045,0.0460066,1.9488802,-9.054871,-0.5363012
6.078242,4.649216,0.06847856,0.035753045,0.0460066,1.9488802,-9.054871,-0.5363012
6.078227,4.649383,0.073804885,0.032557253,0.055593982,1.9536686,-9.069236,-0.49320555
6.078211,4.649551,0.073804885,0.032557253,0.055593982,1.9536686,-9.069236,-0.49320555
6.0781918,4.6497173,0.07806595,0.031491987,0.06305083,2.0015526,-9.088389,-0.46447513
6.0781713,4.6498847,0.07806595,0.031491987,0.06305083,2.0015526,-9.088389,-0.46447513
6.0781713,4.6498847,0.07806595,0.031491987,0.06305083,2.0015526,-9.088389,-0.46447513
6.0781713,4.6498847,0.07806595,0.031491987,0.06305083,2.0015526,-9.088389,-0.46447513
6.0780153,4.65042,0.08445753,0.029361458,0.0790298,1.9680338,-9.078813,-0.56982
6.0780153,4.65042,0.08445753,0.029361458,0.0790298,1.9680338,-9.078813,-0.56982
6.0779247,4.6505537,0.08552279,0.02723093,0.08648665,1.9632454,-9.107543,-0.545878
6.0778904,4.650655,0.08552279,0.02723093,0.08648665,1.9632454,-9.107543,-0.545878
6.077897,4.6508255,0.08552279,0.024035135,0.09181297,1.9488802,-9.107543,-0.51714754
6.077902,4.650999,0.08552279,0.024035135,0.09181297,1.9488802,-9.107543,-0.51714754
6.077865,4.651119,0.08658806,0.020839343,0.09607403,1.9440918,-9.11712,-0.5506664
6.0778255,4.6512423,0.08658806,0.020839343,0.09607403,1.9440918,-9.11712,-0.5506664
6.0778255,4.6512423,0.08658806,0.020839343,0.09607403,1.9440918,-9.11712,-0.5506664
6.077748,4.651391,0.08552279,0.018708814,0.10033509,1.958457,-9.155427,-0.5650316
6.078013,4.651515,0.08445753,0.017643549,0.104596145,1.8914193,-9.136273,-0.5554548
6.0782347,4.651611,0.08445753,0.017643549,0.104596145,1.8914193,-9.136273,-0.5554548
6.0782976,4.6516004,0.082327,0.01551302,0.104596145,1.9201498,-9.160215,-0.58418524
6.078356,4.6515913,0.082327,0.01551302,0.104596145,1.9201498,-9.160215,-0.58418524
6.078356,4.6515913,0.082327,0.01551302,0.104596145,1.9201498,-9.160215,-0.58418524
6.0788183,4.651656,0.08019647,0.014447756,0.106726676,1.8674773,-9.131485,-0.56982
6.078937,4.6516395,0.07700068,0.014447756,0.106726676,1.8818425,-9.174581,-0.6512229
6.079067,4.651621,0.07700068,0.014447756,0.106726676,1.8818425,-9.174581,-0.6512229
6.0792117,4.651601,0.07273962,0.014447756,0.106726676,1.8770541,-9.150639,-0.60812724
6.0793524,4.651581,0.07273962,0.014447756,0.106726676,1.8770541,-9.150639,-0.60812724
6.079552,4.6515784,0.0674133,0.01551302,0.10566141,1.8770541,-9.102755,-0.5602432
6.0797377,4.6515684,0.0674133,0.01551302,0.10566141,1.8770541,-9.102755,-0.5602432
6.0797048,4.651603,0.062086977,0.016578285,0.10140035,1.9488802,-9.112331,-0.56982
6.079672,4.6516376,0.062086977,0.016578285,0.10140035,1.9488802,-9.112331,-0.56982
6.0797296,4.651602,0.056760654,0.018708814,0.09820456,1.9153614,-9.112331,-0.62728083
6.0797863,4.6515665,0.056760654,0.018708814,0.09820456,1.9153614,-9.112331,-0.62728083
6.0798135,4.651535,0.0524996,0.021904606,0.09500877,1.9440918,-9.093178,-0.6368576
6.07984,4.6515036,0.0524996,0.021904606,0.09500877,1.9440918,-9.093178,-0.6368576
6.079846,4.6514754,0.047173277,0.024035135,0.09287824,1.9536686,-9.126697,-0.61770403
6.079851,4.6514482,0.047173277,0.024035135,0.09287824,1.9536686,-9.126697,-0.61770403
6.079916,4.651396,0.040781688,0.026165664,0.09181297,1.9249382,-9.174581,-0.6703765
6.0799804,4.6513433,0.040781688,0.026165664,0.09181297,1.9249382,-9.174581,-0.6703765
6.080059,4.6512833,0.034390103,0.028296193,0.089682445,1.9057846,-9.193734,-0.6368576
6.0801373,4.6512237,0.034390103,0.028296193,0.089682445,1.9057846,-9.193734,-0.6368576
6.080314,4.6511836,0.027998514,0.031491987,0.08648665,1.8626889,-9.275137,-0.60812724
6.0804887,4.651143,0.027998514,0.031491987,0.08648665,1.8626889,-9.275137,-0.60812724
6.0806303,4.6510825,0.023737457,0.032557253,0.08542138,1.8722657,-9.289502,-0.63206923
6.080771,4.651022,0.023737457,0.032557253,0.08542138,1.8722657,-9.289502,-0.63206923
6.080969,4.650987,0.018411135,0.03468778,0.087551914,1.8483237,-9.399636,-0.62249243
6.0811634,4.6509523,0.018411135,0.03468778,0.087551914,1.8483237,-9.399636,-0.62249243
6.0813694,4.6509185,0.013084813,0.035753045,0.089682445,1.8339585,-9.437943,-0.62728083
6.081572,4.6508846,0.013084813,0.035753045,0.089682445,1.8339585,-9.437943,-0.62728083
6.0817943,4.6508636,0.0077584907,0.037883572,0.09500877,1.757344,-9.495404,-0.6368576
6.0820165,4.6508427,0.0077584907,0.037883572,0.09500877,1.757344,-9.495404,-0.6368576
6.0822496,4.6508775,0.0024321685,0.038948838,0.10033509,1.8004397,-9.600749,-0.5650316
6.0824847,4.650913,0.0024321685,0.038948838,0.10033509,1.8004397,-9.600749,-0.5650316
6.08273,4.6509113,-0.0018288894,0.037883572,0.1088572,1.7764976,-9.619903,-0.60333884
6.082976,4.6509094,-0.0018288894,0.037883572,0.1088572,1.7764976,-9.619903,-0.60333884
6.083218,4.6509514,-0.0050246827,0.035753045,0.11524879,1.7429788,-9.672575,-0.5315128
6.083486,4.6509986,-0.0050246827,0.035753045,0.11524879,1.7429788,-9.672575,-0.5315128
6.083704,4.651045,-0.0071552116,0.03468778,0.12164038,1.7669208,-9.739613,-0.51714754
6.0839453,4.6510963,-0.0071552116,0.03468778,0.12164038,1.7669208,-9.739613,-0.51714754
6.0842094,4.6511054,-0.009285741,0.03468778,0.12803197,1.70946,-9.734824,-0.5793968
6.0844736,4.651115,-0.009285741,0.03468778,0.12803197,1.70946,-9.734824,-0.5793968
6.0847354,4.6511517,-0.010351005,0.033622514,0.13335828,1.6998832,-9.749189,-0.521936
6.0849953,4.651188,-0.010351005,0.033622514,0.13335828,1.6998832,-9.749189,-0.521936
6.085257,4.6512327,-0.009285741,0.033622514,0.13974987,1.7190368,-9.749189,-0.51235914
6.085519,4.6512775,-0.009285741,0.033622514,0.13974987,1.7190368,-9.749189,-0.51235914
6.0857964,4.651303,-0.008220476,0.032557253,0.1450762,1.7190368,-9.792285,-0.5554548
6.0860767,4.651328,-0.008220476,0.032557253,0.1450762,1.7190368,-9.792285,-0.5554548
6.086351,4.6513624,-0.009285741,0.031491987,0.14720672,1.7381904,-9.801862,-0.5410896
6.086627,4.651397,-0.009285741,0.031491987,0.14720672,1.7381904,-9.801862,-0.5410896
6.0868983,4.6514378,-0.010351005,0.032557253,0.14720672,1.7477672,-9.816227,-0.5315128
6.0871706,4.651479,-0.010351005,0.032557253,0.14720672,1.7477672,-9.816227,-0.5315128
6.0874534,4.6514792,-0.010351005,0.031491987,0.14401093,1.7812861,-9.801862,-0.59376204
6.087734,4.6514807,-0.010351005,0.031491987,0.14401093,1.7812861,-9.801862,-0.59376204
6.0879664,4.6515512,-0.010351005,0.029361458,0.1386846,1.7717092,-9.821015,-0.46926352
6.0881987,4.651623,-0.010351005,0.029361458,0.1386846,1.7717092,-9.821015,-0.46926352
6.088432,4.6516876,-0.010351005,0.029361458,0.13229302,1.7525556,-9.792285,-0.47884035
6.088665,4.6517534,-0.010351005,0.029361458,0.13229302,1.7525556,-9.792285,-0.47884035
6.0889015,4.6518083,-0.009285741,0.029361458,0.12377091,1.733402,-9.821015,-0.49799395
6.089138,4.651864,-0.009285741,0.029361458,0.12377091,1.733402,-9.821015,-0.49799395
6.0893674,4.6519175,-0.008220476,0.029361458,0.11311826,1.7286136,-9.883265,-0.50278234
6.089596,4.651971,-0.008220476,0.029361458,0.11311826,1.7286136,-9.883265,-0.50278234
6.089796,4.6520414,-0.0071552116,0.028296193,0.102465615,1.7190368,-9.89763,-0.44532153
6.089996,4.652112,-0.0071552116,0.028296193,0.102465615,1.7190368,-9.89763,-0.44532153
6.090194,4.652176,-0.0050246827,0.028296193,0.09074771,1.685518,-9.974244,-0.45489833
6.0903926,4.6522403,-0.0050246827,0.028296193,0.09074771,1.685518,-9.974244,-0.45489833
6.090596,4.6522894,-0.0018288894,0.02723093,0.08009506,1.6519991,-9.907207,-0.49799395
6.0907993,4.652339,-0.0018288894,0.02723093,0.08009506,1.6519991,-9.907207,-0.49799395
6.0909824,4.6524034,0.00030163955,0.02723093,0.07050768,1.6376339,-9.950302,-0.45010993
6.0911655,4.6524677,0.00030163955,0.02723093,0.07050768,1.6376339,-9.950302,-0.45010993
6.0913343,4.6525345,0.0024321685,0.026165664,0.056659244,1.6711528,-9.983821,-0.46447513
6.091503,4.652601,0.0024321685,0.026165664,0.056659244,1.6711528,-9.983821,-0.46447513
6.0916667,4.6526613,0.005627962,0.024035135,0.04387607,1.6376339,-9.935937,-0.47884035
6.0918307,4.6527224,0.005627962,0.024035135,0.04387607,1.6376339,-9.935937,-0.47884035
6.0919952,4.652768,0.00988902,0.021904606,0.033223428,1.6136919,-9.959879,-0.521936
6.09216,4.652814,0.00988902,0.021904606,0.033223428,1.6136919,-9.959879,-0.521936
6.0923057,4.6528783,0.012019549,0.019774077,0.023636047,1.6472107,-9.9550905,-0.48841715
6.092451,4.6529427,0.012019549,0.019774077,0.023636047,1.6472107,-9.9550905,-0.48841715
6.0925927,4.6530046,0.015215342,0.017643549,0.01724446,1.6567876,-9.931149,-0.50278234
6.0927367,4.653068,0.015215342,0.017643549,0.01724446,1.6567876,-9.931149,-0.50278234
6.0928793,4.6531534,0.020541664,0.014447756,0.010852873,1.6950948,-9.911995,-0.49320555
6.092995,4.653223,0.020541664,0.014447756,0.010852873,1.6950948,-9.911995,-0.49320555
6.0931053,4.653321,0.024802722,0.013382491,0.005526551,1.6711528,-9.902418,-0.4357447
6.0932097,4.653413,0.024802722,0.013382491,0.005526551,1.6711528,-9.902418,-0.4357447
6.0933175,4.653507,0.030129045,0.012317227,-0.0029955646,1.685518,-9.849746,-0.46926352
6.0934243,4.6536,0.030129045,0.012317227,-0.0029955646,1.685518,-9.849746,-0.46926352
6.093517,4.653708,0.03652063,0.011251962,-0.0072566224,1.6759412,-9.768343,-0.4405331
6.0936103,4.653816,0.03652063,0.011251962,-0.0072566224,1.6759412,-9.768343,-0.4405331
6.093684,4.6539392,0.041846953,0.011251962,-0.010452416,1.7142484,-9.730036,-0.4309563
6.0937586,4.6540627,0.041846953,0.011251962,-0.010452416,1.7142484,-9.730036,-0.4309563
6.0938253,4.654194,0.047173277,0.009121433,-0.013648209,1.70946,-9.662998,-0.4213795
6.0938916,4.6543245,0.047173277,0.009121433,-0.013648209,1.70946,-9.662998,-0.4213795
6.0939517,4.654462,0.051434334,0.008056169,-0.016844003,1.7381904,-9.662998,-0.4405331
6.094012,4.6545987,0.051434334,0.008056169,-0.016844003,1.7381904,-9.662998,-0.4405331
6.094081,4.6547313,0.0524996,0.0069909045,-0.016844003,1.7046716,-9.648633,-0.4309563
6.094151,4.6548643,0.0524996,0.0069909045,-0.016844003,1.7046716,-9.648633,-0.4309563
6.0942354,4.6549892,0.055695392,0.00592564,-0.017909266,1.6807296,-9.619903,-0.45010993
6.0943203,4.655114,0.055695392,0.00592564,-0.017909266,1.6807296,-9.619903,-0.45010993
6.094362,4.6552634,0.05782592,0.0048603755,-0.017909266,1.7238252,-9.629479,-0.37828386
6.0944037,4.6554127,0.05782592,0.0048603755,-0.017909266,1.7238252,-9.629479,-0.37828386
6.0944347,4.655567,0.05995645,0.00592564,-0.018974531,1.7477672,-9.557653,-0.40222588
6.094466,4.655722,0.05995645,0.00592564,-0.018974531,1.7477672,-9.557653,-0.40222588
6.094502,4.655875,0.058891185,0.0069909045,-0.017909266,1.7477672,-9.56723,-0.40701428
6.0945373,4.6560283,0.058891185,0.0069909045,-0.017909266,1.7477672,-9.56723,-0.40701428
6.094572,4.6561823,0.05995645,0.0048603755,-0.017909266,1.7429788,-9.485827,-0.4165911
6.0946074,4.656336,0.05995645,0.0048603755,-0.017909266,1.7429788,-9.485827,-0.4165911
6.0946274,4.656493,0.05995645,0.00592564,-0.020039797,1.7621324,-9.476251,-0.4213795
6.0946484,4.6566505,0.05995645,0.00592564,-0.020039797,1.7621324,-9.476251,-0.4213795
6.09466,4.6568093,0.05995645,0.00592564,-0.020039797,1.7717092,-9.485827,-0.41180268
6.094672,4.6569695,0.05995645,0.00592564,-0.020039797,1.7717092,-9.485827,-0.41180268
6.0947084,4.6571236,0.062086977,0.00592564,-0.020039797,1.7429788,-9.41879,-0.4357447
6.0947466,4.657282,0.062086977,0.00592564,-0.020039797,1.7429788,-9.41879,-0.4357447
6.0947623,4.6574388,0.062086977,0.00592564,-0.018974531,1.7764976,-9.476251,-0.4357447
6.0947785,4.6575994,0.062086977,0.00592564,-0.018974531,1.7764976,-9.476251,-0.4357447
6.094768,4.657761,0.05995645,0.0069909045,-0.017909266,1.7908629,-9.423578,-0.4213795
6.094758,4.6579223,0.05995645,0.0069909045,-0.017909266,1.7908629,-9.423578,-0.4213795
6.0947847,4.6580796,0.05995645,0.009121433,-0.015778739,1.7717092,-9.452309,-0.44532153
6.0948133,4.6582413,0.05995645,0.009121433,-0.015778739,1.7717092,-9.452309,-0.44532153
6.0947638,4.658394,0.058891185,0.009121433,-0.010452416,1.8195933,-9.370906,-0.4357447
6.0947123,4.6585493,0.058891185,0.009121433,-0.010452416,1.8195933,-9.370906,-0.4357447
6.094665,4.6587043,0.056760654,0.011251962,-0.0072566224,1.8148049,-9.380483,-0.45010993
6.0946174,4.6588593,0.056760654,0.011251962,-0.0072566224,1.8148049,-9.380483,-0.45010993
6.0946555,4.659011,0.05356486,0.011251962,-0.0051260935,1.7812861,-9.452309,-0.45489833
6.0946946,4.6591625,0.05356486,0.011251962,-0.0051260935,1.7812861,-9.452309,-0.45489833
