Pitch,Roll,Gyro_X,Gyro_Y,Gyro_Z,Accel_X,Accel_Y,Accel_Z
0.13184038,4.578604,0.045042746,0.05173201,-0.03814929,-1.3599066,-9.706094,-1.2737153
0.1318678,4.5787296,0.04610801,0.052797277,-0.041345086,-1.3263878,-9.701305,-1.2737153
0.13189621,4.5788517,0.04610801,0.052797277,-0.041345086,-1.3263878,-9.701305,-1.2737153
0.13183643,4.5789914,0.04610801,0.052797277,-0.046671405,-1.292869,-9.720459,-1.2066777
0.1317772,4.579131,0.04610801,0.052797277,-0.046671405,-1.292869,-9.720459,-1.2066777
0.13177542,4.5792637,0.047173277,0.053862542,-0.0498672,-1.3311762,-9.667787,-1.2306197
0.13177453,4.579396,0.047173277,0.053862542,-0.0498672,-1.3311762,-9.667787,-1.2306197
0.13174589,4.579536,0.049303804,0.054927804,-0.053062994,-1.3215994,-9.629479,-1.1779473
0.13171789,4.579676,0.049303804,0.054927804,-0.053062994,-1.3215994,-9.629479,-1.1779473
0.131731,4.579803,0.05036907,0.05599307,-0.056258786,-1.3551182,-9.615114,-1.2066777
0.13174513,4.5799313,0.05036907,0.05599307,-0.056258786,-1.3551182,-9.615114,-1.2066777
0.13172781,4.580069,0.0524996,0.057058334,-0.058389317,-1.364695,-9.586384,-1.1109096
0.13171066,4.5802083,0.0524996,0.057058334,-0.058389317,-1.364695,-9.586384,-1.1109096
0.1317172,4.5803404,0.054630127,0.0581236,-0.059454583,-1.3838485,-9.56723,-1.1492168
0.1317242,4.5804725,0.054630127,0.0581236,-0.059454583,-1.3838485,-9.56723,-1.1492168
0.13171637,4.580612,0.056760654,0.05918886,-0.060519844,-1.3694834,-9.619903,-1.1492168
0.13170922,4.5807514,0.056760654,0.05918886,-0.060519844,-1.3694834,-9.619903,-1.1492168
0.1316829,4.5808997,0.05995645,0.05918886,-0.06158511,-1.340753,-9.581595,-1.1300632
0.13165721,4.581047,0.05995645,0.05918886,-0.06158511,-1.340753,-9.581595,-1.1300632
0.13162573,4.5812,0.06315224,0.05918886,-0.059454583,-1.3359646,-9.572019,-1.1013328
0.13159472,4.581352,0.06315224,0.05918886,-0.059454583,-1.3359646,-9.572019,-1.1013328
0.13155396,4.581511,0.0674133,0.05918886,-0.058389317,-1.3311762,-9.605537,-1.0630256
0.13151377,4.5816693,0.0674133,0.05918886,-0.058389317,-1.3311762,-9.605537,-1.0630256
0.1314496,4.581832,0.06954383,0.060254127,-0.059454583,-1.2880806,-9.639056,-1.0773908
0.13138615,4.581994,0.06954383,0.060254127,-0.059454583,-1.2880806,-9.639056,-1.0773908
0.13132331,4.5821586,0.07167436,0.060254127,-0.060519844,-1.292869,-9.662998,-1.1204864
0.1312611,4.5823236,0.07167436,0.060254127,-0.060519844,-1.292869,-9.662998,-1.1204864
0.1311918,4.5824904,0.073804885,0.05918886,-0.059454583,-1.2689269,-9.572019,-1.1252748
0.13112311,4.5826573,0.073804885,0.05918886,-0.059454583,-1.2689269,-9.572019,-1.1252748
0.13104226,4.5828247,0.073804885,0.057058334,-0.059454583,-1.2497733,-9.586384,-1.0965444
0.13096197,4.5829906,0.073804885,0.057058334,-0.059454583,-1.2497733,-9.586384,-1.0965444
0.13090894,4.5831566,0.07273962,0.054927804,-0.059454583,-1.2880806,-9.576807,-1.1061212
0.13085622,4.583323,0.07273962,0.054927804,-0.059454583,-1.2880806,-9.576807,-1.1061212
0.13083212,4.5834846,0.07273962,0.052797277,-0.058389317,-1.316811,-9.562442,-1.1252748
0.13080855,4.583647,0.07273962,0.052797277,-0.058389317,-1.316811,-9.562442,-1.1252748
0.1307586,4.5838113,0.07060909,0.05173201,-0.05732405,-1.283292,-9.581595,-1.13964
0.13070953,4.583975,0.07060909,0.05173201,-0.05732405,-1.283292,-9.581595,-1.13964
0.13066545,4.584137,0.06847856,0.049601484,-0.05412826,-1.2976574,-9.591172,-1.0582372
0.13062167,4.584299,0.06847856,0.049601484,-0.05412826,-1.2976574,-9.591172,-1.0582372
0.13066153,4.584429,0.06421751,0.046405688,-0.05199773,-1.3311762,-9.533711,-1.1779473
0.13070245,4.5845585,0.06421751,0.046405688,-0.05199773,-1.3311762,-9.533711,-1.1779473
0.13075876,4.5846715,0.05995645,0.04214463,-0.050932467,-1.3934253,-9.5385,-1.1587936
0.13081579,4.5847855,0.05995645,0.04214463,-0.050932467,-1.3934253,-9.5385,-1.1587936
0.1308929,4.5848756,0.05782592,0.03681831,-0.04773667,-1.4077905,-9.504981,-1.1779473
0.1309706,4.5849657,0.05782592,0.03681831,-0.04773667,-1.4077905,-9.504981,-1.1779473
0.13105114,4.5849743,0.054630127,0.030426722,-0.043475613,-1.4077905,-9.428367,-1.2593501
0.13113184,4.584983,0.054630127,0.030426722,-0.043475613,-1.4077905,-9.428367,-1.2593501
0.13121045,4.584978,0.05036907,0.024035135,-0.039214555,-1.3503298,-9.437943,-1.2497733
0.1312888,4.584974,0.05036907,0.024035135,-0.039214555,-1.3503298,-9.437943,-1.2497733
0.13138378,4.585046,0.047173277,0.017643549,-0.037084028,-1.2737153,-9.414001,-1.2018893
0.13148029,4.5851154,0.047173277,0.017643549,-0.037084028,-1.2737153,-9.414001,-1.2018893
0.13147464,4.5852575,0.045042746,0.012317227,-0.03282297,-1.2689269,-9.428367,-1.163582
0.1314701,4.585399,0.045042746,0.012317227,-0.03282297,-1.2689269,-9.428367,-1.163582
0.1313056,4.5854692,0.041846953,0.009121433,-0.029627176,-1.2210429,-9.390059,-1.1923125
0.13113976,4.585539,0.041846953,0.009121433,-0.029627176,-1.2210429,-9.390059,-1.1923125
0.13114013,4.585674,0.03865116,0.0069909045,-0.028561912,-1.2785037,-9.41879,-1.1109096
0.13114087,4.5858097,0.03865116,0.0069909045,-0.028561912,-1.2785037,-9.41879,-1.1109096
0.13116038,4.585937,0.034390103,0.0048603755,-0.028561912,-1.2785037,-9.399636,-1.13964
0.13118064,4.586065,0.034390103,0.0048603755,-0.028561912,-1.2785037,-9.399636,-1.13964
0.13111012,4.5860014,0.032259572,0.003795111,-0.026431382,-1.2354081,-9.351752,-1.2066777
0.13104117,4.5859365,0.032259572,0.003795111,-0.026431382,-1.2354081,-9.351752,-1.2066777
0.13106675,4.585874,0.02906378,0.0027298466,-0.026431382,-1.2545617,-9.380483,-1.2066777
0.13109344,4.58581,0.02906378,0.0027298466,-0.026431382,-1.2545617,-9.380483,-1.2066777
0.13097233,4.585765,0.027998514,-0.00046594674,-0.027496647,-1.2066777,-9.423578,-1.2354081
0.13085169,4.585719,0.027998514,-0.00046594674,-0.027496647,-1.2066777,-9.423578,-1.2354081
0.13086669,4.5856485,0.024802722,-0.0025964756,-0.025366118,-1.2641385,-9.433155,-1.2306197
0.1308821,4.5855775,0.024802722,-0.0025964756,-0.025366118,-1.2641385,-9.433155,-1.2306197
0.13093603,4.585514,0.019476399,-0.0047270046,-0.026431382,-1.2880806,-9.385271,-1.2401965
0.13098975,4.585452,0.019476399,-0.0047270046,-0.026431382,-1.2880806,-9.385271,-1.2401965
0.13100989,4.5853724,0.015215342,-0.0068575335,-0.02323559,-1.2689269,-9.394848,-1.2449849
0.13103013,4.585293,0.015215342,-0.0068575335,-0.02323559,-1.2689269,-9.394848,-1.2449849
0.13097458,4.585207,0.00988902,-0.0068575335,-0.017909266,-1.2306197,-9.423578,-1.2593501
0.13091965,4.5851226,0.00988902,-0.0068575335,-0.017909266,-1.2306197,-9.423578,-1.2593501
0.13089691,4.58503,0.0066932263,-0.008988062,-0.014713474,-1.2449849,-9.428367,-1.292869
0.13087437,4.584938,0.0066932263,-0.008988062,-0.014713474,-1.2449849,-9.428367,-1.292869
0.13083167,4.584844,0.0024321685,-0.007922798,-0.01151768,-1.2018893,-9.437943,-1.3694834
0.130789,4.5847497,0.0024321685,-0.007922798,-0.01151768,-1.2018893,-9.437943,-1.3694834
0.13079026,4.584647,-0.0028941538,-0.0068575335,-0.006191358,-1.2689269,-9.485827,-1.3503298
0.1307915,4.5845447,-0.0028941538,-0.0068575335,-0.006191358,-1.2689269,-9.485827,-1.3503298
0.13081875,4.5844374,-0.009285741,-0.005792269,-0.0008650357,-1.283292,-9.44752,-1.316811
0.13084598,4.58433,-0.009285741,-0.005792269,-0.0008650357,-1.283292,-9.44752,-1.316811
0.13083959,4.5842156,-0.014612063,-0.0047270046,0.0033960221,-1.2497733,-9.519346,-1.3790601
0.13083318,4.5841007,-0.014612063,-0.0047270046,0.0033960221,-1.2497733,-9.519346,-1.3790601
0.1308356,4.583977,-0.018873122,-0.0025964756,0.010852873,-1.2497733,-9.490616,-1.3551182
0.13083784,4.583859,-0.018873122,-0.0025964756,0.010852873,-1.2497733,-9.490616,-1.3551182
0.13084474,4.583731,-0.022068914,-0.0015312112,0.016179197,-1.2545617,-9.524135,-1.3455414
0.13085255,4.5835834,-0.022068914,-0.0015312112,0.016179197,-1.2545617,-9.524135,-1.3455414
0.13083665,4.5834947,-0.024199443,-0.0025964756,0.021505518,-1.2210429,-9.524135,-1.3311762
0.13081363,4.5833673,-0.024199443,-0.0025964756,0.021505518,-1.2210429,-9.524135,-1.3311762
0.13083178,4.5832343,-0.025264706,-0.0025964756,0.02683184,-1.2593501,-9.557653,-1.3455414
0.13084634,4.583126,-0.025264706,-0.0025964756,0.02683184,-1.2593501,-9.557653,-1.3455414
0.13083662,4.583007,-0.024199443,-0.00046594674,0.030027634,-1.2593501,-9.576807,-1.2737153
0.1308255,4.5828867,-0.024199443,-0.00046594674,0.030027634,-1.2593501,-9.576807,-1.2737153
0.13084973,4.5827637,-0.022068914,0.0016645822,0.03641922,-1.2641385,-9.576807,-1.3120226
0.13087334,4.5826406,-0.022068914,0.0016645822,0.03641922,-1.2641385,-9.576807,-1.3120226
0.13088112,4.5825233,-0.018873122,0.0027298466,0.040680278,-1.2449849,-9.548077,-1.316811
0.13088822,4.582406,-0.018873122,0.0027298466,0.040680278,-1.2449849,-9.548077,-1.316811
0.13091713,4.5822897,-0.015677327,0.0027298466,0.044941336,-1.2641385,-9.600749,-1.3311762
0.1309455,4.5821733,-0.015677327,0.0027298466,0.044941336,-1.2641385,-9.600749,-1.3311762
0.1309502,4.582063,-0.013546798,0.003795111,0.049202394,-1.2593501,-9.600749,-1.292869
0.13095355,4.581954,-0.013546798,0.003795111,0.049202394,-1.2593501,-9.600749,-1.292869
0.1309751,4.581843,-0.0114162695,0.0048603755,0.052398186,-1.2401965,-9.605537,-1.3838485
0.13099624,4.581732,-0.0114162695,0.0048603755,0.052398186,-1.2401965,-9.605537,-1.3838485
0.13097495,4.581637,-0.008220476,0.0048603755,0.05346345,-1.2354081,-9.562442,-1.2976574
0.13095276,4.581543,-0.008220476,0.0048603755,0.05346345,-1.2354081,-9.562442,-1.2976574
0.13099746,4.581436,-0.0050246827,0.003795111,0.056659244,-1.2689269,-9.615114,-1.3551182
0.13104153,4.58133,-0.0050246827,0.003795111,0.056659244,-1.2689269,-9.615114,-1.3551182
0.13107565,4.581226,-0.0028941538,0.0048603755,0.05772451,-1.2641385,-9.605537,-1.3263878
0.13110903,4.581122,-0.0028941538,0.0048603755,0.05772451,-1.2641385,-9.605537,-1.3263878
0.13124682,4.5810385,0.00030163955,0.00592564,0.058789775,-1.292869,-9.615114,-1.283292
0.13138258,4.5809536,0.00030163955,0.00592564,0.058789775,-1.292869,-9.615114,-1.283292
0.13150458,4.5808654,0.003497433,0.0069909045,0.05772451,-1.292869,-9.56723,-1.2880806
0.13162448,4.580777,0.003497433,0.0069909045,0.05772451,-1.292869,-9.56723,-1.2880806
0.13173358,4.5808725,0.005627962,0.0069909045,0.054528717,-1.2880806,-9.595961,-1.2593501
0.1318388,4.5809684,0.005627962,0.0069909045,0.054528717,-1.2880806,-9.595961,-1.2593501
0.13198568,4.5810494,0.00988902,0.0069909045,0.05346345,-1.3120226,-9.610326,-1.2497733
0.13213152,4.581131,0.00988902,0.0069909045,0.05346345,-1.3120226,-9.610326,-1.2497733
0.13221133,4.581239,0.012019549,0.00592564,0.054528717,-1.2976574,-9.600749,-1.2258313
0.13228992,4.581348,0.012019549,0.00592564,0.054528717,-1.2976574,-9.600749,-1.2258313
0.13221945,4.5814095,0.0141500775,0.0048603755,0.05346345,-1.2880806,-9.648633,-1.2689269
0.13214521,4.5814657,0.0141500775,0.0048603755,0.05346345,-1.2880806,-9.648633,-1.2689269
0.13205494,4.5814753,0.017345872,0.003795111,0.05026766,-1.2689269,-9.662998,-1.2737153
0.13196488,4.5814834,0.017345872,0.003795111,0.05026766,-1.2689269,-9.662998,-1.2737153
0.13189548,4.5815587,0.019476399,0.0027298466,0.047071867,-1.2593501,-9.648633,-1.2545617
0.13182513,4.581633,0.019476399,0.0027298466,0.047071867,-1.2593501,-9.648633,-1.2545617
0.13188234,4.5817523,0.020541664,0.0016645822,0.04387607,-1.3024458,-9.65821,-1.1827357
0.131939,4.5818715,0.020541664,0.0016645822,0.04387607,-1.3024458,-9.65821,-1.1827357
0.13193554,4.5817957,0.020541664,0.0016645822,0.040680278,-1.2785037,-9.653421,-1.2976574
0.13193122,4.581721,0.020541664,0.0016645822,0.040680278,-1.2785037,-9.653421,-1.2976574
0.13183588,4.581711,0.02160693,-0.00046594674,0.037484486,-1.2737153,-9.65821,-1.2737153
0.13174102,4.5816994,0.02160693,-0.00046594674,0.037484486,-1.2737153,-9.65821,-1.2737153
0.13173918,4.581623,0.020541664,-0.0025964756,0.033223428,-1.2785037,-9.662998,-1.3072342
0.13173665,4.5815463,0.020541664,-0.0025964756,0.033223428,-1.2785037,-9.662998,-1.3072342
0.13174629,4.5814667,0.019476399,-0.00366174,0.030027634,-1.2785037,-9.653421,-1.3311762
0.13175559,4.581387,0.019476399,-0.00366174,0.030027634,-1.2785037,-9.653421,-1.3311762
0.13178907,4.581304,0.017345872,-0.0047270046,0.024701312,-1.2976574,-9.643845,-1.3551182
0.13182224,4.5812216,0.017345872,-0.0047270046,0.024701312,-1.2976574,-9.643845,-1.3551182
0.13183615,4.581137,0.016280606,-0.0047270046,0.018309724,-1.283292,-9.639056,-1.460463
0.13185008,4.581053,0.016280606,-0.0047270046,0.018309724,-1.283292,-9.639056,-1.460463
0.13185394,4.5809684,0.015215342,-0.0047270046,0.014048667,-1.2641385,-9.586384,-1.4700398
0.13185778,4.580883,0.015215342,-0.0047270046,0.014048667,-1.2641385,-9.586384,-1.4700398
0.1318793,4.5807996,0.016280606,-0.005792269,0.00765708,-1.316811,-9.629479,-1.4652514
0.13190076,4.580716,0.016280606,-0.005792269,0.00765708,-1.316811,-9.629479,-1.4652514
0.13192412,4.580635,0.018411135,-0.0068575335,0.0033960221,-1.3215994,-9.572019,-1.460463
0.13194753,4.5805545,0.018411135,-0.0068575335,0.0033960221,-1.3215994,-9.572019,-1.460463
0.13196297,4.5804753,0.020541664,-0.0068575335,-0.0019303001,-1.316811,-9.543288,-1.4796166
0.13197838,4.5803967,0.020541664,-0.0068575335,-0.0019303001,-1.316811,-9.543288,-1.4796166
0.13196765,4.5803194,0.022672193,-0.0068575335,-0.006191358,-1.2689269,-9.543288,-1.508347
0.13195698,4.580242,0.022672193,-0.0068575335,-0.006191358,-1.2689269,-9.543288,-1.508347
0.13194577,4.5801663,0.023737457,-0.005792269,-0.008321887,-1.2689269,-9.500193,-1.4269443
0.13193463,4.5800896,0.023737457,-0.005792269,-0.008321887,-1.2689269,-9.500193,-1.4269443
0.1319004,4.5800095,0.025867987,-0.0047270046,-0.015778739,-1.2401965,-9.490616,-1.4700398
0.13187172,4.5799417,0.025867987,-0.0047270046,-0.015778739,-1.2401965,-9.490616,-1.4700398
0.13183732,4.579872,0.02906378,-0.0015312112,-0.02110506,-1.2401965,-9.476251,-1.484405
0.1318028,4.579802,0.02906378,-0.0015312112,-0.02110506,-1.2401965,-9.476251,-1.484405
0.13175963,4.579735,0.032259572,0.0016645822,-0.024300855,-1.2162545,-9.390059,-1.4796166
0.13171647,4.579667,0.032259572,0.0016645822,-0.024300855,-1.2162545,-9.390059,-1.4796166
0.1316661,4.579601,0.033324838,0.0048603755,-0.028561912,-1.2066777,-9.433155,-1.532289
0.1316153,4.5795336,0.033324838,0.0048603755,-0.028561912,-1.2066777,-9.433155,-1.532289
0.13157076,4.5794625,0.034390103,0.0069909045,-0.031757705,-1.2401965,-9.41879,-1.4939818
0.13153195,4.5794,0.034390103,0.0069909045,-0.031757705,-1.2401965,-9.41879,-1.4939818
0.13147111,4.5793366,0.03545537,0.009121433,-0.034953497,-1.1971009,-9.375694,-1.4748282
0.1314096,4.5792727,0.03545537,0.009121433,-0.034953497,-1.1971009,-9.375694,-1.4748282
0.13134782,4.5792074,0.03545537,0.011251962,-0.037084028,-1.2066777,-9.41879,-1.484405
0.13128616,4.579143,0.03545537,0.011251962,-0.037084028,-1.2066777,-9.41879,-1.484405
0.13122313,4.5790777,0.03545537,0.013382491,-0.04027982,-1.1923125,-9.361329,-1.532289
0.13116023,4.579012,0.03545537,0.013382491,-0.04027982,-1.1923125,-9.361329,-1.532289
0.13111648,4.578944,0.034390103,0.01551302,-0.04241035,-1.2497733,-9.351752,-1.484405
0.13107303,4.578876,0.034390103,0.01551302,-0.04241035,-1.2497733,-9.351752,-1.484405
0.13102347,4.578806,0.032259572,0.017643549,-0.04241035,-1.2306197,-9.32781,-1.5466543
0.13097402,4.5787354,0.032259572,0.017643549,-0.04241035,-1.2306197,-9.32781,-1.5466543
0.13092867,4.578664,0.031194309,0.019774077,-0.04027982,-1.2354081,-9.313444,-1.4987702
0.13088349,4.5785923,0.031194309,0.019774077,-0.04027982,-1.2354081,-9.313444,-1.4987702
0.13082884,4.57852,0.030129045,0.020839343,-0.039214555,-1.2114661,-9.299079,-1.460463
0.13077441,4.5784473,0.030129045,0.020839343,-0.039214555,-1.2114661,-9.299079,-1.460463
0.13071454,4.578375,0.02906378,0.021904606,-0.036018763,-1.1827357,-9.246407,-1.4700398
0.1306548,4.578302,0.02906378,0.021904606,-0.036018763,-1.1827357,-9.246407,-1.4700398
0.13060196,4.5782275,0.027998514,0.022969872,-0.03282297,-1.1875241,-9.203311,-1.4508862
0.13054934,4.578153,0.027998514,0.022969872,-0.03282297,-1.1875241,-9.203311,-1.4508862
0.13051729,4.5780764,0.026933251,0.024035135,-0.029627176,-1.2258313,-9.217676,-1.4460979
0.13048543,4.578,0.026933251,0.024035135,-0.029627176,-1.2258313,-9.217676,-1.4460979
0.13043988,4.577923,0.025867987,0.02723093,-0.026431382,-1.2018893,-9.203311,-1.364695
0.13039482,4.5778456,0.025867987,0.02723093,-0.026431382,-1.2018893,-9.203311,-1.364695
0.13033156,4.577771,0.025867987,0.028296193,-0.022170324,-1.163582,-9.227253,-1.4030021
0.13026851,4.5776973,0.025867987,0.028296193,-0.022170324,-1.163582,-9.227253,-1.4030021
0.13022834,4.57762,0.025867987,0.029361458,-0.017909266,-1.2018893,-9.246407,-1.3742718
0.1301883,4.577543,0.025867987,0.029361458,-0.017909266,-1.2018893,-9.246407,-1.3742718
0.13012855,4.577468,0.023737457,0.029361458,-0.01151768,-1.1540052,-9.232041,-1.3982137
0.13006909,4.5773926,0.023737457,0.029361458,-0.01151768,-1.1540052,-9.232041,-1.3982137
0.12998673,4.577324,0.02160693,0.031491987,-0.0072566224,-1.1444284,-9.232041,-1.3455414
0.12990466,4.5772552,0.02160693,0.031491987,-0.0072566224,-1.1444284,-9.232041,-1.3455414
0.12982138,4.577187,0.019476399,0.032557253,-0.0019303001,-1.1779473,-9.332599,-1.3263878
0.12973823,4.577119,0.019476399,0.032557253,-0.0019303001,-1.1779473,-9.332599,-1.3263878
0.12967302,4.5770407,0.015215342,0.032557253,0.0023307577,-1.1731589,-9.3182335,-1.3455414
0.12960784,4.5769625,0.015215342,0.032557253,0.0023307577,-1.1731589,-9.3182335,-1.3455414
0.12949142,4.5769186,0.012019549,0.032557253,0.00765708,-1.1683705,-9.385271,-1.3072342
0.12937509,4.576875,0.012019549,0.032557253,0.00765708,-1.1683705,-9.385271,-1.3072342
0.12925503,4.576844,0.008823755,0.033622514,0.015113931,-1.1204864,-9.3421755,-1.3024458
0.12913471,4.5768127,0.008823755,0.033622514,0.015113931,-1.1204864,-9.3421755,-1.3024458
0.12901808,4.576847,0.003497433,0.033622514,0.019374989,-1.1013328,-9.375694,-1.2449849
0.12890139,4.5768814,0.003497433,0.033622514,0.019374989,-1.1013328,-9.375694,-1.2449849
0.12880906,4.576938,-0.0007636249,0.033622514,0.022570781,-1.1444284,-9.41879,-1.2354081
0.12871648,4.576995,-0.0007636249,0.033622514,0.022570781,-1.1444284,-9.41879,-1.2354081
0.12862141,4.5770407,-0.0039594183,0.03468778,0.027897105,-1.1348516,-9.485827,-1.2449849
0.12852617,4.577086,-0.0039594183,0.03468778,0.027897105,-1.1348516,-9.485827,-1.2449849
0.1284507,4.5771427,-0.0071552116,0.03468778,0.032158162,-1.13964,-9.457097,-1.2258313
0.12837525,4.577199,-0.0071552116,0.03468778,0.032158162,-1.13964,-9.457097,-1.2258313
0.12829387,4.5772457,-0.008220476,0.03468778,0.03641922,-1.13964,-9.490616,-1.2401965
0.12821253,4.5772924,-0.008220476,0.03468778,0.03641922,-1.13964,-9.490616,-1.2401965
0.12813826,4.577342,-0.010351005,0.03468778,0.03854975,-1.1587936,-9.485827,-1.2449849
0.12806387,4.577391,-0.010351005,0.03468778,0.03854975,-1.1587936,-9.485827,-1.2449849
0.12803079,4.5774627,-0.0114162695,0.035753045,0.03854975,-1.1875241,-9.466674,-1.2306197
0.12799741,4.5775347,-0.0114162695,0.035753045,0.03854975,-1.1875241,-9.466674,-1.2306197
0.12796047,4.5776024,-0.013546798,0.035753045,0.039615013,-1.1683705,-9.514558,-1.2114661
0.12792338,4.57767,-0.013546798,0.035753045,0.039615013,-1.1683705,-9.514558,-1.2114661
0.12787768,4.577734,-0.013546798,0.035753045,0.03854975,-1.1492168,-9.528923,-1.2018893
0.12783185,4.5777984,-0.013546798,0.035753045,0.03854975,-1.1492168,-9.528923,-1.2018893
0.12772799,4.577809,-0.0114162695,0.035753045,0.03641922,-1.1683705,-9.543288,-1.2785037
0.12762405,4.5778193,-0.0114162695,0.035753045,0.03641922,-1.1683705,-9.543288,-1.2785037
0.12759608,4.577896,-0.009285741,0.037883572,0.035353955,-1.1827357,-9.533711,-1.2114661
0.12756811,4.577973,-0.009285741,0.037883572,0.035353955,-1.1827357,-9.533711,-1.2114661
0.12753165,4.5780497,-0.0071552116,0.037883572,0.033223428,-1.1540052,-9.504981,-1.1827357
0.12749511,4.578126,-0.0071552116,0.037883572,0.033223428,-1.1540052,-9.504981,-1.1827357
0.12746005,4.578209,-0.0028941538,0.038948838,0.030027634,-1.1540052,-9.495404,-1.1731589
0.12742485,4.578291,-0.0028941538,0.038948838,0.030027634,-1.1540052,-9.495404,-1.1731589
0.12741818,4.578387,0.003497433,0.040014103,0.02683184,-1.1731589,-9.481039,-1.1061212
0.12741148,4.5784826,0.003497433,0.040014103,0.02683184,-1.1731589,-9.481039,-1.1061212
0.12736668,4.578578,0.00988902,0.040014103,0.022570781,-1.13964,-9.514558,-1.1540052
0.12732217,4.5786715,0.00988902,0.040014103,0.022570781,-1.13964,-9.514558,-1.1540052
0.12728131,4.5787745,0.015215342,0.038948838,0.01724446,-1.1492168,-9.457097,-1.1492168
0.12724039,4.5788774,0.015215342,0.038948838,0.01724446,-1.1492168,-9.457097,-1.1492168
0.12719056,4.5789843,0.020541664,0.038948838,0.011918138,-1.13964,-9.504981,-1.13964
0.1271407,4.579091,0.020541664,0.038948838,0.011918138,-1.13964,-9.504981,-1.13964
0.1271407,4.579091,0.020541664,0.038948838,0.011918138,-1.13964,-9.504981,-1.13964
0.1271407,4.579091,0.020541664,0.038948838,0.011918138,-1.13964,-9.504981,-1.13964
0.1271407,4.579091,0.032259572,0.037883572,0.0023307577,-1.1252748,-9.437943,-1.1492168
0.1271407,4.579091,0.032259572,0.037883572,0.0023307577,-1.1252748,-9.437943,-1.1492168
0.1271407,4.579091,0.03865116,0.037883572,-0.0051260935,-1.13964,-9.409213,-1.1252748
0.1267845,4.5798626,0.03865116,0.037883572,-0.0051260935,-1.13964,-9.409213,-1.1252748
0.126731,4.579995,0.045042746,0.037883572,-0.010452416,-1.13964,-9.385271,-1.0965444
0.12667605,4.5801306,0.045042746,0.037883572,-0.010452416,-1.13964,-9.385271,-1.0965444
0.12657067,4.5802593,0.05036907,0.037883572,-0.014713474,-1.1252748,-9.370906,-1.1731589
0.12646583,4.580386,0.05036907,0.037883572,-0.014713474,-1.1252748,-9.370906,-1.1731589
0.12637573,4.5805216,0.054630127,0.035753045,-0.018974531,-1.1109096,-9.404425,-1.1300632
0.12628351,4.58066,0.054630127,0.035753045,-0.018974531,-1.1109096,-9.404425,-1.1300632
0.12622304,4.580813,0.05995645,0.03468778,-0.025366118,-1.1444284,-9.308656,-1.091756
0.12616268,4.580966,0.05995645,0.03468778,-0.025366118,-1.1444284,-9.308656,-1.091756
0.12609234,4.5811243,0.06528277,0.032557253,-0.03069244,-1.1300632,-9.308656,-1.0726024
0.12602223,4.5812826,0.06528277,0.032557253,-0.03069244,-1.1300632,-9.308656,-1.0726024
0.12593615,4.5814433,0.06954383,0.030426722,-0.034953497,-1.1204864,-9.299079,-1.0965444
0.1258502,4.5816035,0.06954383,0.030426722,-0.034953497,-1.1204864,-9.299079,-1.0965444
0.12578957,4.5817714,0.07167436,0.028296193,-0.036018763,-1.1444284,-9.270349,-1.0534488
0.1257292,4.5819387,0.07167436,0.028296193,-0.036018763,-1.1444284,-9.270349,-1.0534488
0.12559837,4.582087,0.073804885,0.026165664,-0.03814929,-1.0965444,-9.289502,-1.1444284
0.12546748,4.5822353,0.073804885,0.026165664,-0.03814929,-1.0965444,-9.289502,-1.1444284
0.12538315,4.5824065,0.07806595,0.024035135,-0.039214555,-1.1109096,-9.260772,-1.067814
0.12529872,4.5825777,0.07806595,0.024035135,-0.039214555,-1.1109096,-9.260772,-1.067814
0.12515873,4.5827274,0.08019647,0.020839343,-0.039214555,-1.0582372,-9.275137,-1.1252748
0.12501644,4.582879,0.08019647,0.020839343,-0.039214555,-1.0582372,-9.275137,-1.1252748
0.12489837,4.583046,0.08339227,0.018708814,-0.037084028,-1.0965444,-9.255983,-1.1252748
0.12477986,4.583213,0.08339227,0.018708814,-0.037084028,-1.0965444,-9.255983,-1.1252748
0.12467114,4.583379,0.08552279,0.01551302,-0.036018763,-1.0821792,-9.3182335,-1.1013328
0.1245609,4.5835457,0.08552279,0.01551302,-0.036018763,-1.0821792,-9.3182335,-1.1013328
0.12444018,4.5837097,0.08445753,0.014447756,-0.036018763,-1.0295067,-9.303867,-1.067814
0.12431943,4.5838737,0.08445753,0.014447756,-0.036018763,-1.0295067,-9.303867,-1.067814
0.124197565,4.584036,0.08445753,0.010186698,-0.033888236,-1.0965444,-9.289502,-1.1348516
0.124075264,4.5841985,0.08445753,0.010186698,-0.033888236,-1.0965444,-9.289502,-1.1348516
0.12393583,4.584345,0.08339227,0.00592564,-0.029627176,-1.0773908,-9.26556,-1.1444284
0.12379592,4.584491,0.08339227,0.00592564,-0.029627176,-1.0773908,-9.26556,-1.1444284
0.12363454,4.584542,0.08019647,0.0016645822,-0.027496647,-1.0486604,-9.294291,-1.2210429
0.12347406,4.5845914,0.08019647,0.0016645822,-0.027496647,-1.0486604,-9.294291,-1.2210429
0.123310246,4.584657,0.075935416,-0.00366174,-0.025366118,-1.0247183,-9.337387,-1.2114661
0.12314664,4.5847216,0.075935416,-0.00366174,-0.025366118,-1.0247183,-9.337387,-1.2114661
0.12301155,4.5847383,0.074870154,-0.008988062,-0.024300855,-0.9768343,-9.279925,-1.2880806
0.12287687,4.584755,0.074870154,-0.008988062,-0.024300855,-0.9768343,-9.279925,-1.2880806
0.12275786,4.5847583,0.073804885,-0.014314385,-0.024300855,-1.0390835,-9.303867,-1.283292
0.12263924,4.584762,0.073804885,-0.014314385,-0.024300855,-1.0390835,-9.303867,-1.283292
0.12251801,4.58477,0.074870154,-0.019640706,-0.02323559,-1.0773908,-9.332599,-1.2545617
0.1223976,4.5847783,0.074870154,-0.019640706,-0.02323559,-1.0773908,-9.332599,-1.2545617
0.12226394,4.5848,0.07806595,-0.023901764,-0.025366118,-1.0295067,-9.370906,-1.2737153
0.1221305,4.5848203,0.07806595,-0.023901764,-0.025366118,-1.0295067,-9.370906,-1.2737153
0.12197521,4.5848775,0.082327,-0.028162822,-0.025366118,-0.92895025,-9.356541,-1.2497733
0.121819764,4.584934,0.082327,-0.028162822,-0.025366118,-0.92895025,-9.356541,-1.2497733
0.12167776,4.5849743,0.08871859,-0.029228088,-0.026431382,-0.8619126,-9.351752,-1.3263878
0.12153602,4.5850143,0.08871859,-0.029228088,-0.026431382,-0.8619126,-9.351752,-1.3263878
0.121406116,4.5850472,0.09617544,-0.028162822,-0.029627176,-0.91937345,-9.337387,-1.3455414
0.12127675,4.585079,0.09617544,-0.028162822,-0.029627176,-0.91937345,-9.337387,-1.3455414
0.12117041,4.5851016,0.102567025,-0.026032293,-0.03282297,-0.91937345,-9.26556,-1.4269443
0.12106415,4.5851235,0.102567025,-0.026032293,-0.03282297,-0.91937345,-9.26556,-1.4269443
0.12097167,4.585142,0.106828086,-0.02496703,-0.03814929,-0.9576807,-9.294291,-1.484405
0.12087947,4.5851607,0.106828086,-0.02496703,-0.03814929,-0.9576807,-9.294291,-1.484405
0.12080244,4.5851765,0.11002388,-0.023901764,-0.046671405,-1.0486604,-9.299079,-1.4987702
0.12073243,4.585191,0.11002388,-0.023901764,-0.046671405,-1.0486604,-9.299079,-1.4987702
0.12065466,4.5852075,0.11215441,-0.0228365,-0.05519352,-1.0630256,-9.332599,-1.532289
0.12058041,4.585223,0.11215441,-0.0228365,-0.05519352,-1.0630256,-9.332599,-1.532289
0.12049352,4.585239,0.11108914,-0.023901764,-0.06158511,-1.0103531,-9.303867,-1.6424223
0.12040607,4.585255,0.11108914,-0.023901764,-0.06158511,-1.0103531,-9.303867,-1.6424223
0.120309636,4.585268,0.10789335,-0.02496703,-0.0679767,-0.9720459,-9.332599,-1.7238252
0.120212235,4.5852814,0.10789335,-0.02496703,-0.0679767,-0.9720459,-9.332599,-1.7238252
0.120106764,4.58529,0.102567025,-0.027097559,-0.075433545,-0.93852705,-9.437943,-1.8004397
0.11999898,4.585298,0.102567025,-0.027097559,-0.075433545,-0.93852705,-9.437943,-1.8004397
0.119884044,4.5852985,0.09404491,-0.029228088,-0.08395566,-0.92416185,-9.485827,-1.8674773
0.119768955,4.5852985,0.09404491,-0.029228088,-0.08395566,-0.92416185,-9.485827,-1.8674773
0.119640045,4.5852885,0.082327,-0.031358615,-0.09460831,-0.8762778,-9.595961,-1.9488802
0.119508944,4.585278,0.082327,-0.031358615,-0.09460831,-0.8762778,-9.595961,-1.9488802
0.11936674,4.5852537,0.06847856,-0.03455441,-0.108456746,-0.8858546,-9.825804,-2.0398598
0.11922166,4.5852294,0.06847856,-0.03455441,-0.108456746,-0.8858546,-9.825804,-2.0398598
0.11907335,4.585185,0.049303804,-0.036684938,-0.12550098,-0.91458505,-9.916783,-2.2266076
0.11892275,4.5851407,0.049303804,-0.036684938,-0.12550098,-0.91458505,-9.916783,-2.2266076
0.1187597,4.58507,0.023737457,-0.03988073,-0.14361048,-0.93373865,-10.079589,-2.4372973
0.11859614,4.584999,0.023737457,-0.03988073,-0.14361048,-0.93373865,-10.079589,-2.4372973
0.1184113,4.584901,-0.0050246827,-0.04627232,-0.16278523,-0.866701,-10.19451,-2.6048915
0.11822642,4.584802,-0.0050246827,-0.04627232,-0.16278523,-0.866701,-10.19451,-2.6048915
0.11804574,4.58467,-0.03804788,-0.052663904,-0.18302526,-1.1971009,-10.448297,-2.6001031
0.11786496,4.5845375,-0.03804788,-0.052663904,-0.18302526,-1.1971009,-10.448297,-2.6001031
0.11767375,4.5843697,-0.075332135,-0.062251285,-0.20752634,-1.3599066,-10.6637745,-2.4468741
0.11748336,4.584203,-0.075332135,-0.062251285,-0.20752634,-1.3599066,-10.6637745,-2.4468741
0.11725501,4.5840006,-0.11261639,-0.07396919,-0.23309268,-1.2306197,-10.778696,-2.336741
0.11702554,4.5837965,-0.11261639,-0.07396919,-0.23309268,-1.2306197,-10.778696,-2.336741
0.116749376,4.5835614,-0.14883539,-0.08781763,-0.2597243,-1.0199299,-10.884041,-2.3654714
0.11647403,4.583327,-0.14883539,-0.08781763,-0.2597243,-1.0199299,-10.884041,-2.3654714
0.116158836,4.583061,-0.18292385,-0.09633975,-0.29168224,-0.93852705,-10.94629,-2.3415294
0.11584271,4.582795,-0.18292385,-0.09633975,-0.29168224,-0.93852705,-10.94629,-2.3415294
0.115483776,4.5824995,-0.21488178,-0.09953554,-0.3289665,-0.90979666,-11.008539,-2.2744915
0.11512552,4.5822043,-0.21488178,-0.09953554,-0.3289665,-0.90979666,-11.008539,-2.2744915
0.114729285,4.5818796,-0.24364392,-0.09740501,-0.3737076,-0.9624691,-11.061212,-2.3080103
0.11433305,4.5815544,-0.24364392,-0.09740501,-0.3737076,-0.9624691,-11.061212,-2.3080103
0.11390294,4.5812016,-0.26921028,-0.091013424,-0.4216445,-1.067814,-11.027693,-2.3463178
0.11347195,4.580848,-0.26921028,-0.091013424,-0.4216445,-1.067814,-11.027693,-2.3463178
0.11298889,4.5804725,-0.29158083,-0.08142605,-0.47490773,-1.1061212,-11.056423,-2.231396
0.112506,4.5800962,-0.29158083,-0.08142605,-0.47490773,-1.1061212,-11.056423,-2.231396
0.111980505,4.5797033,-0.30862504,-0.07609972,-0.5356278,-1.2258313,-11.061212,-2.3127987
0.111453705,4.5793076,-0.30862504,-0.07609972,-0.5356278,-1.2258313,-11.061212,-2.3127987
0.11085645,4.578903,-0.32034296,-0.07396919,-0.60060894,-1.163582,-11.109096,-2.327164
0.110258706,4.578498,-0.32034296,-0.07396919,-0.60060894,-1.163582,-11.109096,-2.327164
0.10958708,4.578086,-0.32993034,-0.07396919,-0.6698511,-1.115698,-11.161768,-2.255338
0.10891446,4.5776725,-0.32993034,-0.07396919,-0.6698511,-1.115698,-11.161768,-2.255338
0.108154,4.577257,-0.33632192,-0.07609972,-0.7433544,-1.0342951,-11.319786,-2.1787236
0.1073939,4.576841,-0.33632192,-0.07609972,-0.7433544,-1.0342951,-11.319786,-2.1787236
0.10651724,4.5764327,-0.3437788,-0.079295516,-0.82111865,-0.8379706,-11.511322,-2.0446482
0.10565196,4.57603,-0.3437788,-0.079295516,-0.82111865,-0.8379706,-11.511322,-2.0446482
0.10466031,4.5756335,-0.35123563,-0.08249131,-0.90527457,-0.6943185,-11.678916,-1.9536686
0.103652336,4.57523,-0.35123563,-0.08249131,-0.90527457,-0.6943185,-11.678916,-1.9536686
0.10256091,4.5748405,-0.360823,-0.08675237,-0.99475676,-0.6512229,-11.956643,-1.9153614
0.10147294,4.574452,-0.360823,-0.08675237,-0.99475676,-0.6512229,-11.956643,-1.9153614
0.10027658,4.5740666,-0.37360618,-0.08781763,-1.0874348,-0.62249243,-12.210428,-1.8674773
0.099071935,4.5736785,-0.37360618,-0.08781763,-1.0874348,-0.62249243,-12.210428,-1.8674773
0.0977718,4.5732994,-0.39065042,-0.0856871,-1.1843739,-0.56982,-12.473791,-1.8052281
0.09647296,4.5729213,-0.39065042,-0.0856871,-1.1843739,-0.56982,-12.473791,-1.8052281
0.09507932,4.572547,-0.41089043,-0.08462184,-1.2802477,-0.6895301,-12.727576,-1.7429788
0.093681835,4.5721726,-0.41089043,-0.08462184,-1.2802477,-0.6895301,-12.727576,-1.7429788
0.092199706,4.5717945,-0.4396526,-0.08355658,-1.378252,-0.79008657,-13.000515,-1.7142484
0.09071777,4.5714183,-0.4396526,-0.08355658,-1.378252,-0.79008657,-13.000515,-1.7142484
0.089185454,4.5710506,-0.47267577,-0.08462184,-1.475191,-0.8762778,-13.302185,-1.5801731
0.087649725,4.5706825,-0.47267577,-0.08462184,-1.475191,-0.8762778,-13.302185,-1.5801731
0.086044684,4.5702887,-0.50889474,-0.08462184,-1.5689343,-0.866701,-13.536817,-1.4891934
0.084442265,4.569895,-0.50889474,-0.08462184,-1.5689343,-0.866701,-13.536817,-1.4891934
0.08275496,4.569466,-0.54617906,-0.08355658,-1.6616123,-0.8523358,-13.713987,-1.4413095
0.08105649,4.569034,-0.54617906,-0.08355658,-1.6616123,-0.8523358,-13.713987,-1.4413095
0.07881116,4.5684404,-0.5877243,-0.08249131,-1.7521598,-0.8714894,-13.934254,-1.4460979
0.077358276,4.568055,-0.5877243,-0.08249131,-1.7521598,-0.8714894,-13.934254,-1.4460979
0.075680055,4.567589,-0.63353074,-0.08249131,-1.8448378,-1.0103531,-14.12579,-1.5658079
0.07388782,4.5670896,-0.63353074,-0.08249131,-1.8448378,-1.0103531,-14.12579,-1.5658079
0.07197967,4.566533,-0.6825329,-0.0856871,-1.9385811,-1.043872,-14.30775,-1.6089035
0.07007736,4.565976,-0.6825329,-0.0856871,-1.9385811,-1.043872,-14.30775,-1.6089035
0.06810948,4.56536,-0.7379266,-0.093143955,-2.0365853,-1.1923125,-14.499286,-1.6807296
0.06614868,4.5647426,-0.7379266,-0.093143955,-2.0365853,-1.1923125,-14.499286,-1.6807296
0.064113416,4.564065,-0.7954509,-0.105927125,-2.1377854,-1.2354081,-14.652514,-1.7908629
0.062082577,4.563385,-0.7954509,-0.105927125,-2.1377854,-1.2354081,-14.652514,-1.7908629
0.059972446,4.562631,-0.8551057,-0.122971356,-2.2389855,-1.2354081,-14.872781,-1.9776106
0.057869744,4.5618763,-0.8551057,-0.122971356,-2.2389855,-1.2354081,-14.872781,-1.9776106
0.05565626,4.5610676,-0.9179563,-0.14534192,-2.344447,-1.2258313,-15.1696615,-1.958457
0.053442024,4.5602546,-0.9179563,-0.14534192,-2.344447,-1.2258313,-15.1696615,-1.958457
0.051111568,4.559386,-0.9818722,-0.16771246,-2.454169,-1.1348516,-15.490485,-2.006341
0.048787996,4.5585155,-0.9818722,-0.16771246,-2.454169,-1.1348516,-15.490485,-2.006341
0.046371877,4.5575705,-1.045788,-0.19008303,-2.5692177,-1.1204864,-15.71554,-2.1643584
0.043956406,4.5566216,-1.045788,-0.19008303,-2.5692177,-1.1204864,-15.71554,-2.1643584
0.04143874,4.555602,-1.1097039,-0.21351884,-2.6895926,-1.1827357,-15.868769,-2.2026656
0.038925298,4.5545807,-1.1097039,-0.21351884,-2.6895926,-1.1827357,-15.868769,-2.2026656
0.036300294,4.5534806,-1.174685,-0.23695466,-2.8142285,-1.2785037,-16.050728,-2.27928
0.0336812,4.552381,-1.174685,-0.23695466,-2.8142285,-1.2785037,-16.050728,-2.27928
0.03095443,4.5511913,-1.2375357,-0.2593252,-2.940995,-1.388637,-16.098612,-2.4468741
0.02822784,4.5500007,-1.2375357,-0.2593252,-2.940995,-1.388637,-16.098612,-2.4468741
0.02534898,4.5487213,-1.2971904,-0.27849996,-3.0720224,-1.5466543,-16.079458,-2.5474305
0.022518989,4.5474634,-1.2971904,-0.27849996,-3.0720224,-1.5466543,-16.079458,-2.5474305
0.019556068,4.546139,-1.3536495,-0.29341367,-3.20305,-1.6041151,-15.959748,-2.585738
0.019556068,4.546139,-1.3536495,-0.29341367,-3.20305,-1.6041151,-15.959748,-2.585738
0.013297484,4.543339,-1.4015864,-0.29980525,-3.331947,-1.7429788,-15.820885,-2.60968
0.010397809,4.5420427,-1.4015864,-0.29980525,-3.331947,-1.7429788,-15.820885,-2.60968
0.007000205,4.5405445,-1.4420664,-0.29447892,-3.4619093,-1.9632454,-15.720328,-2.5330653
0.007000205,4.5405445,-1.4420664,-0.29447892,-3.4619093,-1.9632454,-15.720328,-2.5330653
0.0007230063,4.537759,-1.4708285,-0.27530417,-3.589741,-2.743755,-15.112201,-3.3375173
6.28056,4.536256,-1.4708285,-0.27530417,-3.589741,-2.743755,-15.112201,-3.3375173
6.277068,4.5347204,-1.4878728,-0.24441151,-3.7122464,-3.1651347,-15.035586,-3.596091
6.273599,4.533192,-1.4878728,-0.24441151,-3.7122464,-3.1651347,-15.035586,-3.596091
6.2700167,4.531674,-1.4995908,-0.2145841,-3.8294256,-3.2944214,-15.279796,-3.0597897
6.2664175,4.5301456,-1.4995908,-0.2145841,-3.8294256,-3.2944214,-15.279796,-3.0597897
6.2627077,4.5286384,-1.5038518,-0.18262617,-3.944474,-3.347094,-15.342045,-2.4660277
6.2590103,4.527133,-1.5038518,-0.18262617,-3.944474,-3.347094,-15.342045,-2.4660277
6.2551727,4.5256433,-1.4900033,-0.14108086,-4.056327,-3.2704794,-15.212758,-2.0973208
6.251401,4.5241756,-1.4900033,-0.14108086,-4.056327,-3.2704794,-15.212758,-2.0973208
6.2474446,4.522718,-1.4559149,-0.08994816,-4.1671143,-3.1316159,-15.035586,-1.9967642
6.2434464,4.52124,-1.4559149,-0.08994816,-4.1671143,-3.1316159,-15.035586,-1.9967642
6.2393684,4.5198345,-1.4026517,-0.028162822,-4.283228,-2.954445,-14.925453,-1.9057846
6.2353244,4.5184374,-1.4026517,-0.028162822,-4.283228,-2.954445,-14.925453,-1.9057846
6.23111,4.5171003,-1.3312789,0.040014103,-4.4099946,-2.7150247,-14.714764,-1.8818425
6.2268844,4.515755,-1.3312789,0.040014103,-4.4099946,-2.7150247,-14.714764,-1.8818425
6.2225227,4.514496,-1.2481883,0.10925629,-4.543153,-2.60968,-14.618996,-1.8531121
6.218175,4.513237,-1.2481883,0.10925629,-4.543153,-2.60968,-14.618996,-1.8531121
6.2136626,4.512072,-1.1555103,0.17849848,-4.684833,-2.4708161,-14.566323,-1.6950948
6.2091603,4.5109057,-1.1555103,0.17849848,-4.684833,-2.4708161,-14.566323,-1.6950948
6.204481,4.509845,-1.0521797,0.2498712,-4.837166,-2.456451,-14.480132,-1.4556746
6.199817,4.5087833,-1.0521797,0.2498712,-4.837166,-2.456451,-14.480132,-1.4556746
6.1949596,4.507835,-0.9392616,0.325505,-4.994825,-2.408567,-14.403518,-1.2210429
6.1901126,4.506884,-0.9392616,0.325505,-4.994825,-2.408567,-14.403518,-1.2210429
6.1850915,4.5060554,-0.81782144,0.40646508,-5.156745,-2.4372973,-14.288596,-1.1683705
6.180081,4.505224,-0.81782144,0.40646508,-5.156745,-2.4372973,-14.288596,-1.1683705
6.174882,4.504515,-0.691055,0.49062097,-5.3197303,-2.5091233,-14.168885,-1.2737153
6.169674,4.503801,-0.691055,0.49062097,-5.3197303,-2.5091233,-14.168885,-1.2737153
6.164321,4.5032105,-0.5642885,0.57584214,-5.482716,-2.7629087,-14.010868,-1.4939818
6.158958,4.5026155,-0.5642885,0.57584214,-5.482716,-2.7629087,-14.010868,-1.4939818
6.153426,4.5021343,-0.44284838,0.655737,-5.644636,-3.1316159,-13.718776,-1.7525556
6.147911,4.501651,-0.44284838,0.655737,-5.644636,-3.1316159,-13.718776,-1.7525556
6.142203,4.501268,-0.33099562,0.72178334,-5.8044257,-3.620033,-13.249513,-2.0159178
6.136518,4.500883,-0.33099562,0.72178334,-5.8044257,-3.620033,-13.249513,-2.0159178
6.1306505,4.500583,-0.23192601,0.76972026,-5.9599543,-4.2281604,-12.674904,-2.3558946
6.1247954,4.5002804,-0.23192601,0.76972026,-5.9599543,-4.2281604,-12.674904,-2.3558946
6.1187954,4.500051,-0.14457433,0.7974171,-6.103765,-4.735731,-11.951855,-2.705448
6.1128016,4.4998183,-0.14457433,0.7974171,-6.103765,-4.735731,-11.951855,-2.705448
6.1066623,4.4996448,-0.07000581,0.80274343,-6.2337275,-4.831499,-11.09473,-2.8921957
6.100535,4.4994683,-0.07000581,0.80274343,-6.2337275,-4.831499,-11.09473,-2.8921957
6.0942903,4.499335,-0.006089947,0.7910255,-6.357298,-4.3718123,-10.189722,-3.1316159
6.088058,4.4991975,-0.006089947,0.7910255,-6.357298,-4.3718123,-10.189722,-3.1316159
6.0816956,4.4990926,0.04823854,0.772916,-6.4755425,-3.5051112,-9.308656,-3.1842883
6.0753393,4.4989834,0.04823854,0.772916,-6.4755425,-3.5051112,-9.308656,-3.1842883
6.068869,4.4988976,0.09404491,0.7590676,-6.5937867,-2.4899697,-8.595184,-3.1364043
6.0624056,4.4988074,0.09404491,0.7590676,-6.5937867,-2.4899697,-8.595184,-3.1364043
6.0557995,4.4987392,0.1334597,0.7590676,-6.7162924,-1.7190368,-8.058883,-2.9831753
6.049201,4.498667,0.1334597,0.7590676,-6.7162924,-1.7190368,-8.058883,-2.9831753
6.042504,4.498624,0.17287448,0.77611184,-6.8462543,-1.2401965,-7.699753,-2.791639
6.03578,4.498577,0.17287448,0.77611184,-6.8462543,-1.2401965,-7.699753,-2.791639
6.028916,4.4985623,0.21015874,0.8112656,-6.981543,-0.9864111,-7.4842744,-2.6862943
6.022059,4.498543,0.21015874,0.8112656,-6.981543,-0.9864111,-7.4842744,-2.6862943
6.0150585,4.4985642,0.24637774,0.86026776,-7.112571,-0.90500826,-7.3549876,-2.5378537
6.0080585,4.498581,0.24637774,0.86026776,-7.112571,-0.90500826,-7.3549876,-2.5378537
6.0009236,4.4986353,0.2804662,0.9188573,-7.2297497,-0.8283938,-7.2927384,-2.5330653
5.9938035,4.498685,0.2804662,0.9188573,-7.2297497,-0.8283938,-7.2927384,-2.5330653
5.98655,4.4987674,0.31135887,0.9827731,-7.335211,-0.7134721,-7.1347213,-2.6048915
5.979311,4.4988456,0.31135887,0.9827731,-7.335211,-0.7134721,-7.1347213,-2.6048915
5.9719577,4.498949,0.33799046,1.0445585,-7.4257584,-0.5506664,-6.933608,-2.7581203
5.964605,4.499049,0.33799046,1.0445585,-7.4257584,-0.5506664,-6.933608,-2.7581203
5.9571695,4.49917,0.35609996,1.1010175,-7.501392,-0.37349546,-6.742072,-2.7964275
5.94972,4.4992876,0.35609996,1.1010175,-7.501392,-0.37349546,-6.742072,-2.7964275
5.9422054,4.4994197,0.36781788,1.1510849,-7.5589166,-0.1340753,-6.493075,-2.791639
5.9346914,4.499549,0.36781788,1.1510849,-7.5589166,-0.1340753,-6.493075,-2.791639
5.92712,4.4996843,0.37101367,1.1947608,-7.602592,0.19153613,-6.3063273,-2.719813
5.91955,4.4998174,0.37101367,1.1947608,-7.602592,0.19153613,-6.3063273,-2.719813
5.911936,4.4999533,0.36888313,1.2309798,-7.6356153,0.49799395,-6.157887,-2.5809495
5.904163,4.5000887,0.36888313,1.2309798,-7.6356153,0.49799395,-6.157887,-2.5809495
5.896538,4.5002193,0.36036104,1.2629377,-7.6526594,0.80445176,-6.033388,-2.4229321
5.888945,4.5003476,0.36036104,1.2629377,-7.6526594,0.80445176,-6.033388,-2.4229321
5.8813944,4.5004654,0.3465126,1.2906346,-7.6526594,1.115698,-5.932832,-2.2984335
5.873746,4.5005836,0.3465126,1.2906346,-7.6526594,1.115698,-5.932832,-2.2984335
5.8660984,4.5006895,0.32946837,1.3140703,-7.6398764,1.3982137,-5.8466406,-2.1930888
5.8584533,4.500794,0.32946837,1.3140703,-7.6398764,1.3982137,-5.8466406,-2.1930888
5.850821,4.500875,0.3070978,1.3321799,-7.616441,1.7525556,-5.765238,-2.1212628
5.843184,4.500955,0.3070978,1.3321799,-7.616441,1.7525556,-5.765238,-2.1212628
5.835546,4.501007,0.28153145,1.3428326,-7.582352,2.111686,-5.7125654,-2.0398598
5.8279343,4.501058,0.28153145,1.3428326,-7.582352,2.111686,-5.7125654,-2.0398598
5.8203506,4.5010824,0.25383458,1.3513546,-7.5397415,2.3750482,-5.650316,-1.8962077
5.812764,4.5011063,0.25383458,1.3513546,-7.5397415,2.3750482,-5.650316,-1.8962077
5.8052077,4.5010943,0.22187665,1.3545505,-7.4864783,2.5953147,-5.5497594,-1.8579005
5.797695,4.5010824,0.22187665,1.3545505,-7.4864783,2.5953147,-5.5497594,-1.8579005
5.790194,4.501033,0.18778819,1.3545505,-7.4183016,2.72939,-5.377377,-1.9919758
5.7826314,4.5009813,0.18778819,1.3545505,-7.4183016,2.72939,-5.377377,-1.9919758
5.7751884,4.5008974,0.15263446,1.3556157,-7.335211,2.815581,-5.070919,-1.9919758
5.7678022,4.500812,0.15263446,1.3556157,-7.335211,2.815581,-5.070919,-1.9919758
5.7604237,4.5006986,0.118545994,1.356681,-7.239337,2.9017725,-4.6591167,-1.9440918
5.753013,4.5005813,0.118545994,1.356681,-7.239337,2.9017725,-4.6591167,-1.9440918
5.745727,4.5004454,0.087653324,1.3577462,-7.1317453,2.9400797,-4.223372,-1.8483237
5.7384524,4.500306,0.087653324,1.3577462,-7.1317453,2.9400797,-4.223372,-1.8483237
5.7312417,4.500163,0.06315224,1.3588115,-7.010305,3.083732,-3.715801,-1.6903064
5.724041,4.5000167,0.06315224,1.3588115,-7.010305,3.083732,-3.715801,-1.6903064
5.716933,4.4998884,0.047173277,1.360942,-6.877147,3.2992098,-3.2130187,-1.5275006
5.709826,4.499757,0.047173277,1.360942,-6.877147,3.2992098,-3.2130187,-1.5275006
5.702829,4.4996758,0.04291222,1.3641378,-6.7333364,3.6727054,-2.8538885,-1.2593501
5.6958327,4.499592,0.04291222,1.3641378,-6.7333364,3.6727054,-2.8538885,-1.2593501
5.688971,4.499565,0.051434334,1.3683989,-6.58633,4.132392,-2.4037786,-1.0534488
5.6821103,4.4995375,0.051434334,1.3683989,-6.58633,4.132392,-2.4037786,-1.0534488
5.675395,4.4995737,0.07167436,1.3726599,-6.437193,4.5920787,-2.111686,-0.81881696
5.66868,4.49961,0.07167436,1.3726599,-6.437193,4.5920787,-2.111686,-0.81881696
5.6621146,4.4997134,0.102567025,1.3737252,-6.2869906,4.960786,-2.030283,-0.61770403
5.655549,4.499818,0.102567025,1.3737252,-6.2869906,4.960786,-2.030283,-0.61770403
5.6491323,4.4999924,0.13985129,1.3694642,-6.139984,5.377377,-2.054225,-0.38307226
5.6427155,4.500169,0.13985129,1.3694642,-6.139984,5.377377,-2.054225,-0.38307226
5.636445,4.5003996,0.17926607,1.356681,-5.9929776,5.717354,-2.1787236,-0.39264908
5.6301746,4.5006332,0.17926607,1.356681,-5.9929776,5.717354,-2.1787236,-0.39264908
5.624052,4.5009193,0.21868086,1.3364409,-5.8470364,6.05733,-2.3319526,-0.34476504
5.617929,4.5012083,0.21868086,1.3364409,-5.8470364,6.05733,-2.3319526,-0.34476504
5.6119585,4.501538,0.25276932,1.3098093,-5.696834,6.253655,-2.504335,-0.36870706
5.606,4.5018697,0.25276932,1.3098093,-5.696834,6.253655,-2.504335,-0.36870706
5.6001763,4.502228,0.27940091,1.2767861,-5.5455666,6.4404025,-2.6910827,-0.47405192
5.594359,4.502588,0.27940091,1.2767861,-5.5455666,6.4404025,-2.6910827,-0.47405192
5.588701,4.502964,0.2985757,1.2363061,-5.390038,6.531382,-2.8682537,-0.51714754
5.583043,4.5033426,0.2985757,1.2363061,-5.390038,6.531382,-2.8682537,-0.51714754
5.5775547,4.50373,0.31348938,1.1894344,-5.225987,6.6271505,-3.064578,-0.5410896
5.572067,4.50412,0.31348938,1.1894344,-5.225987,6.6271505,-3.064578,-0.5410896
5.5667577,4.504518,0.3252073,1.139367,-5.0544796,6.622362,-3.2369606,-0.47884035
5.561449,4.504919,0.3252073,1.139367,-5.0544796,6.622362,-3.2369606,-0.47884035
5.5563254,4.505322,0.33479467,1.0861038,-4.87658,6.5936313,-3.3806129,-0.45489833
5.5512023,4.505728,0.33479467,1.0861038,-4.87658,6.5936313,-3.3806129,-0.45489833
5.5462737,4.506145,0.34544733,1.0360364,-4.6912246,6.679823,-3.4859576,-0.33997664
5.5413446,4.5065646,0.34544733,1.0360364,-4.6912246,6.679823,-3.4859576,-0.33997664
5.536618,4.506998,0.3582305,0.99023,-4.495216,6.7133417,-3.5577838,-0.31603462
5.531963,4.507427,0.3582305,0.99023,-4.495216,6.7133417,-3.5577838,-0.31603462
5.5274467,4.507887,0.37634,0.9486847,-4.28962,6.83784,-3.620033,-0.29209262
5.522867,4.508356,0.37634,0.9486847,-4.28962,6.83784,-3.620033,-0.29209262
5.518551,4.5088625,0.4008411,0.91672677,-4.081893,6.9958572,-3.620033,-0.17717093
5.5142775,4.509367,0.4008411,0.91672677,-4.081893,6.9958572,-3.620033,-0.17717093
5.510173,4.5099425,0.43386427,0.89861727,-3.8688402,7.1251445,-3.620033,-0.08140286
5.506076,4.51052,0.43386427,0.89861727,-3.8688402,7.1251445,-3.620033,-0.08140286
5.502198,4.5111814,0.4786054,0.8900951,-3.6568527,7.2209125,-3.7205894,-0.047884032
5.49832,4.5118465,0.4786054,0.8900951,-3.6568527,7.2209125,-3.7205894,-0.047884032
5.4946446,4.512605,0.5286728,0.8911604,-3.4480608,7.297527,-3.8402996,-0.15801731
5.490973,4.513367,0.5286728,0.8911604,-3.4480608,7.297527,-3.8402996,-0.15801731
5.4874973,4.5142393,0.5830013,0.8996825,-3.2382038,7.393295,-3.98874,-0.23463176
5.4840245,4.515115,0.5830013,0.8996825,-3.2382038,7.393295,-3.98874,-0.23463176
5.4807434,4.516102,0.64159083,0.91353095,-3.0368688,7.465121,-4.19943,-0.4165911
5.4774623,4.5170946,0.64159083,0.91353095,-3.0368688,7.465121,-4.19943,-0.4165911
5.4743724,4.518206,0.7001804,0.92950994,-2.8408601,7.4268136,-4.43885,-0.51235914
5.4712796,4.5193243,0.7001804,0.92950994,-2.8408601,7.4268136,-4.43885,-0.51235914
5.468377,4.5205617,0.7534436,0.9422931,-2.6480472,7.4124484,-4.663905,-0.51235914
5.4654746,4.5218053,0.7534436,0.9422931,-2.6480472,7.4124484,-4.663905,-0.51235914
5.4654746,4.5218053,0.7534436,0.9422931,-2.6480472,7.4124484,-4.663905,-0.51235914
5.4654746,4.5218053,0.8013805,0.95294577,-2.4669523,7.3549876,-4.841076,-0.60812724
5.4575624,4.5262876,0.84505635,0.95933735,-2.2954447,7.273585,-5.080496,-0.61291564
5.4551077,4.527692,0.84505635,0.95933735,-2.2954447,7.273585,-5.080496,-0.61291564
5.4524984,4.529381,0.8844711,0.9604026,-2.1335244,7.2687964,-5.2385135,-0.63206923
5.450365,4.530767,0.8844711,0.9604026,-2.1335244,7.2687964,-5.2385135,-0.63206923
5.4482,4.5323496,0.9185596,0.95827204,-1.9801264,7.1873937,-5.3199162,-0.61770403
5.445976,4.5339828,0.9185596,0.95827204,-1.9801264,7.1873937,-5.3199162,-0.61770403
5.443881,4.535672,0.9473217,0.95188046,-1.837381,7.144298,-5.291186,-0.6655881
5.4417887,4.537366,0.9473217,0.95188046,-1.837381,7.144298,-5.291186,-0.6655881
5.4398193,4.539101,0.97395337,0.9444236,-1.7074187,7.086837,-5.195418,-0.6943185
5.437843,4.540849,0.97395337,0.9444236,-1.7074187,7.086837,-5.195418,-0.6943185
5.4360065,4.542652,0.9995197,0.93803203,-1.5913049,7.015011,-5.1235914,-0.5554548
5.4341664,4.5444665,0.9995197,0.93803203,-1.5913049,7.015011,-5.1235914,-0.5554548
5.4324336,4.546333,1.025086,0.93377095,-1.4879742,7.043741,-4.9176903,-0.39743748
5.4307017,4.5482054,1.025086,0.93377095,-1.4879742,7.043741,-4.9176903,-0.39743748
5.4290648,4.5501323,1.0517176,0.93164045,-1.398492,7.1107793,-4.8985367,-0.29209262
5.4274287,4.5520644,1.0517176,0.93164045,-1.398492,7.1107793,-4.8985367,-0.29209262
5.425883,4.554064,1.0794145,0.93377095,-1.3228582,7.1730285,-4.9703627,-0.10534488
5.4243374,4.5560694,1.0794145,0.93377095,-1.3228582,7.1730285,-4.9703627,-0.10534488
5.4228663,4.558134,1.1028503,0.9390973,-1.2610729,7.2304893,-5.171476,-0.02873042
5.421397,4.5602055,1.1028503,0.9390973,-1.2610729,7.2304893,-5.171476,-0.02873042
5.41998,4.562326,1.1188294,0.9486847,-1.2163317,7.1347213,-5.377377,-0.17238252
5.418565,4.5644526,1.1188294,0.9486847,-1.2163317,7.1347213,-5.377377,-0.17238252
5.4171696,4.566599,1.1241556,0.95827204,-1.1833086,7.019799,-5.497087,-0.50278234
5.415385,4.569358,1.1241556,0.95827204,-1.1833086,7.019799,-5.497087,-0.50278234
5.4143367,4.571012,1.1166987,0.96572894,-1.160938,6.847417,-5.631162,-0.7278373
5.412958,4.5731955,1.1166987,0.96572894,-1.160938,6.847417,-5.631162,-0.7278373
5.4117265,4.575038,1.0964588,0.9689247,-1.1481549,6.7612257,-5.6359506,-0.93852705
5.410499,4.5768914,1.0964588,0.9689247,-1.1481549,6.7612257,-5.6359506,-0.93852705
5.4092703,4.5787635,1.0655661,0.9646636,-1.1449591,6.6606693,-5.6359506,-1.0726024
5.408045,4.580641,1.0655661,0.9646636,-1.1449591,6.6606693,-5.6359506,-1.0726024
5.4067965,4.5824633,1.025086,0.95188046,-1.1502854,6.646304,-5.530606,-1.1204864
5.4055552,4.5842843,1.025086,0.95188046,-1.1502854,6.646304,-5.530606,-1.1204864
5.404279,4.586047,0.98034495,0.93377095,-1.1673297,6.564901,-5.3678,-1.091756
5.4030104,4.587811,0.98034495,0.93377095,-1.1673297,6.564901,-5.3678,-1.091756
5.4016337,4.589526,0.9334733,0.91140044,-1.1939613,6.588843,-5.1475334,-0.842759
5.400265,4.591242,0.9334733,0.91140044,-1.1939613,6.588843,-5.1475334,-0.842759
5.3988047,4.593057,0.88979745,0.88689935,-1.229115,6.6175733,-4.879383,-0.5315128
5.3973446,4.5948744,0.88979745,0.88689935,-1.229115,6.6175733,-4.879383,-0.5315128
5.395879,4.596685,0.8503827,0.86239827,-1.269595,6.751649,-4.5777135,-0.12928689
5.3944144,4.5985017,0.8503827,0.86239827,-1.269595,6.751649,-4.5777135,-0.12928689
5.3929067,4.600259,0.8162942,0.84215826,-1.3132708,6.9623384,-4.2185836,0.12928689
5.391403,4.6020193,0.8162942,0.84215826,-1.3132708,6.9623384,-4.2185836,0.12928689
5.3898563,4.6037326,0.78646684,0.82617927,-1.3654689,7.1873937,-3.964798,0.4405331
5.388311,4.605453,0.78646684,0.82617927,-1.3654689,7.1873937,-3.964798,0.4405331
5.3867145,4.607129,0.76090044,0.8133961,-1.4240583,7.345411,-3.6583402,0.7374141
5.3851156,4.6088147,0.76090044,0.8133961,-1.4240583,7.345411,-3.6583402,0.7374141
5.3834624,4.610464,0.7395952,0.8038087,-1.4837132,7.4842744,-3.4237084,0.9576807
5.381811,4.6121197,0.7395952,0.8038087,-1.4837132,7.4842744,-3.4237084,0.9576807
5.380101,4.613738,0.71935517,0.7931561,-1.5465637,7.4746976,-3.2321723,1.0773908
5.3783913,4.6153646,0.71935517,0.7931561,-1.5465637,7.4746976,-3.2321723,1.0773908
5.3766246,4.6169558,0.6991151,0.77824235,-1.6072838,7.469909,-3.098097,1.2593501
5.3748612,4.6185517,0.6991151,0.77824235,-1.6072838,7.469909,-3.098097,1.2593501
5.3730474,4.620099,0.6788751,0.7569371,-1.6594818,7.575254,-2.9975405,1.3215994
5.3712344,4.621653,0.6788751,0.7569371,-1.6594818,7.575254,-2.9975405,1.3215994
5.3693776,4.623143,0.6565046,0.7271097,-1.7042229,7.632715,-2.815581,1.3024458
5.367523,4.6246376,0.6565046,0.7271097,-1.7042229,7.632715,-2.815581,1.3024458
5.3656344,4.6260605,0.6309382,0.6876949,-1.7425724,7.73806,-2.7629087,1.4077905
5.3637457,4.627489,0.6309382,0.6876949,-1.7425724,7.73806,-2.7629087,1.4077905
5.361832,4.628831,0.6011108,0.6429538,-1.7713345,7.8386164,-2.6719291,1.4173675
5.359917,4.63018,0.6011108,0.6429538,-1.7713345,7.8386164,-2.6719291,1.4173675
5.357994,4.631432,0.57021815,0.5907558,-1.7862482,7.9487495,-2.5905263,1.5035586
5.356074,4.632689,0.57021815,0.5907558,-1.7862482,7.9487495,-2.5905263,1.5035586
5.3541527,4.6338434,0.5350644,0.5342968,-1.7883788,8.101978,-2.6240451,1.5514427
5.3522367,4.635001,0.5350644,0.5342968,-1.7883788,8.101978,-2.6240451,1.5514427
5.3503346,4.636053,0.4967149,0.47570726,-1.7766609,8.2169,-2.7006595,1.6232687
5.3484373,4.637108,0.4967149,0.47570726,-1.7766609,8.2169,-2.7006595,1.6232687
5.346566,4.6380525,0.45516956,0.418183,-1.7500293,8.226477,-2.8060043,1.541866
5.3446994,4.6389995,0.45516956,0.418183,-1.7500293,8.226477,-2.8060043,1.541866
5.342877,4.639838,0.41042846,0.36172396,-1.7084839,8.240842,-2.96881,1.5514427
5.3410606,4.6406784,0.41042846,0.36172396,-1.7084839,8.240842,-2.96881,1.5514427
5.3392954,4.641407,0.3614263,0.3073955,-1.652025,8.231265,-3.122039,1.3934253
5.337534,4.6421366,0.3614263,0.3073955,-1.652025,8.231265,-3.122039,1.3934253
5.3358464,4.642749,0.30816308,0.25519753,-1.5817175,8.197746,-3.2848446,1.2162545
5.334157,4.6433644,0.30816308,0.25519753,-1.5817175,8.197746,-3.2848446,1.2162545
5.3325543,4.643864,0.25063878,0.2051301,-1.4986268,8.202535,-3.490746,1.091756
5.330951,4.644366,0.25063878,0.2051301,-1.4986268,8.202535,-3.490746,1.091756
5.329446,4.6447544,0.19098398,0.15612793,-1.4059489,8.240842,-3.6966474,1.0582372
5.327943,4.645144,0.19098398,0.15612793,-1.4059489,8.240842,-3.6966474,1.0582372
5.326547,4.6454253,0.13132916,0.11032156,-1.3026181,8.303091,-3.9695864,0.9911995
5.3251524,4.645708,0.13132916,0.11032156,-1.3026181,8.303091,-3.9695864,0.9911995
5.323877,4.6458945,0.07273962,0.069841504,-1.1950265,8.303091,-4.285621,0.92895025
5.3226,4.6460814,0.07273962,0.069841504,-1.1950265,8.303091,-4.285621,0.92895025
5.321449,4.646181,0.015215342,0.033622514,-1.0821085,8.293514,-4.6399627,0.8619126
5.3202977,4.646282,0.015215342,0.033622514,-1.0821085,8.293514,-4.6399627,0.8619126
5.319278,4.646304,-0.039113145,-0.00046594674,-0.9670599,8.288726,-4.999093,0.8619126
5.318269,4.6463256,-0.039113145,-0.00046594674,-0.9670599,8.288726,-4.999093,0.8619126
5.317381,4.6462717,-0.09024584,-0.029228088,-0.8530766,8.331821,-5.2768207,0.7326257
5.316494,4.646218,-0.09024584,-0.029228088,-0.8530766,8.331821,-5.2768207,0.7326257
5.315739,4.6460958,-0.13711748,-0.0558597,-0.7412238,8.293514,-5.535394,0.7038953
5.3149867,4.645974,-0.13711748,-0.0558597,-0.7412238,8.293514,-5.535394,0.7038953
5.3143535,4.6457863,-0.17972806,-0.08036078,-0.63256687,8.283937,-5.6646814,0.6560113
5.3137207,4.6455984,-0.17972806,-0.08036078,-0.63256687,8.283937,-5.6646814,0.6560113
5.313198,4.6453495,-0.21594705,-0.10486186,-0.5334973,8.279149,-5.7604494,0.58418524
5.3126755,4.645099,-0.21594705,-0.10486186,-0.5334973,8.279149,-5.7604494,0.58418524
5.312256,4.6447935,-0.24470918,-0.12936294,-0.44294977,8.240842,-5.8322754,0.45489833
5.311837,4.644488,-0.24470918,-0.12936294,-0.44294977,8.240842,-5.8322754,0.45489833
5.3114953,4.644129,-0.26707974,-0.15599456,-0.36625075,8.1881695,-5.7748146,0.46926352
5.3111534,4.6437683,-0.26707974,-0.15599456,-0.36625075,8.1881695,-5.7748146,0.46926352
5.3108687,4.6433616,-0.2830587,-0.1815609,-0.30020434,8.221688,-5.6790466,0.39743748
5.3105855,4.642956,-0.2830587,-0.1815609,-0.30020434,8.221688,-5.6790466,0.39743748
5.310346,4.6425114,-0.29158083,-0.20393145,-0.2448106,8.240842,-5.5641246,0.45010993
5.310107,4.6420674,-0.29158083,-0.20393145,-0.2448106,8.240842,-5.5641246,0.45010993
5.3098955,4.6415863,-0.2979724,-0.22523674,-0.20326528,8.283937,-5.4204726,0.45010993
5.309684,4.641105,-0.2979724,-0.22523674,-0.20326528,8.283937,-5.4204726,0.45010993
5.3094897,4.6405945,-0.3011682,-0.24121572,-0.17130736,8.346188,-5.2768207,0.45010993
5.3092957,4.6400833,-0.3011682,-0.24121572,-0.17130736,8.346188,-5.2768207,0.45010993
5.3091154,4.639554,-0.3011682,-0.25186837,-0.15000206,8.355764,-5.1523223,0.48841715
5.308935,4.6390247,-0.3011682,-0.25186837,-0.15000206,8.355764,-5.1523223,0.48841715
5.3087554,4.638484,-0.3011682,-0.2561294,-0.14147994,8.379706,-4.9799395,0.5746084
5.3085756,4.637943,-0.3011682,-0.2561294,-0.14147994,8.379706,-4.9799395,0.5746084
5.3083878,4.637392,-0.30329874,-0.25719467,-0.14041469,8.451532,-4.9081135,0.51714754
5.3081994,4.636839,-0.30329874,-0.25719467,-0.14041469,8.451532,-4.9081135,0.51714754
5.3079963,4.636283,-0.304364,-0.25399888,-0.14787152,8.48984,-4.76925,0.5267244
5.307793,4.635726,-0.304364,-0.25399888,-0.14787152,8.48984,-4.76925,0.5267244
5.307567,4.635171,-0.30542925,-0.2476073,-0.16491576,8.475474,-4.711789,0.46447513
5.307266,4.63443,-0.30542925,-0.2476073,-0.16491576,8.475474,-4.711789,0.46447513
5.30702,4.6338925,-0.30862504,-0.24228097,-0.18835159,8.475474,-4.654328,0.36870706
5.3068123,4.6334386,-0.30862504,-0.24228097,-0.18835159,8.475474,-4.654328,0.36870706
5.306543,4.632919,-0.31182083,-0.23588939,-0.21711372,8.51857,-4.6160207,0.24899697
5.3062468,4.632346,-0.31182083,-0.23588939,-0.21711372,8.51857,-4.6160207,0.24899697
5.305915,4.631765,-0.31395137,-0.2326936,-0.24800639,8.580819,-4.55856,0.23942018
5.3055835,4.6311836,-0.31395137,-0.2326936,-0.24800639,8.580819,-4.55856,0.23942018
5.305216,4.6305885,-0.31501663,-0.2326936,-0.27889907,8.623915,-4.582502,0.15801731
5.3048487,4.629994,-0.31501663,-0.2326936,-0.27889907,8.623915,-4.582502,0.15801731
5.3044314,4.629362,-0.31714717,-0.23482412,-0.3129875,8.686164,-4.548983,0.095768064
5.3044314,4.629362,-0.31714717,-0.23482412,-0.3129875,8.686164,-4.548983,0.095768064
5.3036127,4.6281443,-0.3160819,-0.23482412,-0.34494546,8.75799,-4.5633483,0.16280572
5.3031807,4.627534,-0.3160819,-0.23482412,-0.34494546,8.75799,-4.5633483,0.16280572
5.302723,4.6269264,-0.31288612,-0.23482412,-0.3737076,8.743625,-4.55856,0.20590134
5.3022656,4.62632,-0.31288612,-0.23482412,-0.3737076,8.743625,-4.55856,0.20590134
5.301783,4.6257143,-0.30649453,-0.23375887,-0.39714342,8.7771435,-4.6351743,0.15322891
5.3013005,4.6251082,-0.30649453,-0.23375887,-0.39714342,8.7771435,-4.6351743,0.15322891
5.3008137,4.6245327,-0.29690716,-0.2294978,-0.41418764,8.7532015,-4.7261543,0.25857377
5.3003263,4.623957,-0.29690716,-0.2294978,-0.41418764,8.7532015,-4.7261543,0.25857377
5.2998247,4.623398,-0.2830587,-0.22417149,-0.42590556,8.748413,-4.7884035,0.16759412
5.2993245,4.6228395,-0.2830587,-0.22417149,-0.42590556,8.748413,-4.7884035,0.16759412
5.298813,4.6222954,-0.26707974,-0.21777989,-0.42910135,8.772355,-4.793192,0.10055647
5.2983046,4.621754,-0.26707974,-0.21777989,-0.42910135,8.772355,-4.793192,0.10055647
5.297785,4.6212177,-0.2500355,-0.20925778,-0.4248403,8.75799,-4.8123455,-0.095768064
5.297264,4.620681,-0.2500355,-0.20925778,-0.4248403,8.75799,-4.8123455,-0.095768064
5.296747,4.6201625,-0.23086074,-0.1996704,-0.4131224,8.719683,-4.8362875,-0.19153613
5.2962327,4.6196465,-0.23086074,-0.1996704,-0.4131224,8.719683,-4.8362875,-0.19153613
5.295723,4.619131,-0.21275125,-0.19221355,-0.39714342,8.690952,-4.855441,-0.320823
5.2952123,4.6186147,-0.21275125,-0.19221355,-0.39714342,8.690952,-4.855441,-0.320823
5.294721,4.618101,-0.19464175,-0.18795249,-0.3737076,8.643068,-4.8506527,-0.40701428
5.2942295,4.617587,-0.19464175,-0.18795249,-0.3737076,8.643068,-4.8506527,-0.40701428
5.293769,4.617027,-0.17759752,-0.1847567,-0.34281492,8.556877,-4.783615,-0.59855044
5.2933025,4.61646,-0.17759752,-0.1847567,-0.34281492,8.556877,-4.783615,-0.59855044
5.2933025,4.61646,-0.17759752,-0.1847567,-0.34281492,8.513782,-4.7261543,-0.6607997
5.2924542,4.6153193,-0.16374908,-0.18582197,-0.30553067,8.513782,-4.7261543,-0.6607997
5.292099,4.614722,-0.15203118,-0.18795249,-0.26505062,8.42759,-4.687847,-0.8523358
5.291736,4.6141095,-0.15203118,-0.18795249,-0.26505062,8.42759,-4.687847,-0.8523358
5.291343,4.6133666,-0.14350906,-0.19114828,-0.22030951,8.461109,-4.606444,-0.89064306
5.2911205,4.612945,-0.14350906,-0.19114828,-0.22030951,8.461109,-4.606444,-0.89064306
5.290866,4.612366,-0.14031327,-0.19647461,-0.17343788,8.465898,-4.5394063,-0.9528923
5.2906055,4.6117735,-0.14031327,-0.19647461,-0.17343788,8.465898,-4.5394063,-0.9528923
5.2903934,4.6111774,-0.14031327,-0.20180093,-0.124435715,8.441956,-4.4436383,-0.9911995
5.290182,4.610582,-0.14031327,-0.20180093,-0.124435715,8.441956,-4.4436383,-0.9911995
5.290015,4.609992,-0.14457433,-0.20712726,-0.07330302,8.480263,-4.4196963,-0.93852705
5.289848,4.6094007,-0.14457433,-0.20712726,-0.07330302,8.480263,-4.4196963,-0.93852705
5.289731,4.608811,-0.15096591,-0.2113883,-0.02110506,8.456321,-4.333505,-0.93373865
5.2896132,4.608221,-0.15096591,-0.2113883,-0.02110506,8.456321,-4.333505,-0.93373865
5.2895503,4.607634,-0.15522698,-0.21351884,0.033223428,8.480263,-4.3143516,-0.93852705
5.2894864,4.607047,-0.15522698,-0.21351884,0.033223428,8.480263,-4.3143516,-0.93852705
5.2894754,4.6064653,-0.16161856,-0.2113883,0.08542138,8.422802,-4.280833,-0.94810385
5.2894645,4.6058807,-0.16161856,-0.2113883,0.08542138,8.422802,-4.280833,-0.94810385
5.2895,4.605306,-0.16907541,-0.20712726,0.13335828,8.494628,-4.271256,-0.9624691
5.2895355,4.604733,-0.16907541,-0.20712726,0.13335828,8.494628,-4.271256,-0.9624691
5.289616,4.604162,-0.17653225,-0.20393145,0.17916466,8.480263,-4.2281604,-0.9768343
5.289697,4.603593,-0.17653225,-0.20393145,0.17916466,8.480263,-4.2281604,-0.9768343
5.2898226,4.6030297,-0.18292385,-0.19860514,0.2228405,8.451532,-4.223372,-0.9959879
5.2899475,4.6024666,-0.18292385,-0.19860514,0.2228405,8.451532,-4.223372,-0.9959879
5.290119,4.601907,-0.18825017,-0.19327882,0.26545107,8.403648,-4.223372,-1.0486604
5.2902913,4.601346,-0.18825017,-0.19327882,0.26545107,8.403648,-4.223372,-1.0486604
5.2905054,4.600789,-0.19251123,-0.18901776,0.30486587,8.422802,-4.2664676,-1.0821792
5.290719,4.600235,-0.19251123,-0.18901776,0.30486587,8.422802,-4.2664676,-1.0821792
5.290967,4.5996914,-0.19570702,-0.1847567,0.34108487,8.42759,-4.3622355,-1.0247183
5.2912135,4.599151,-0.19570702,-0.1847567,0.34108487,8.42759,-4.3622355,-1.0247183
5.291499,4.598608,-0.19677228,-0.1815609,0.3730428,8.432379,-4.3861775,-1.0965444
5.2917843,4.5980678,-0.19677228,-0.1815609,0.3730428,8.432379,-4.3861775,-1.0965444
5.292091,4.597549,-0.19570702,-0.17729984,0.40073967,8.403648,-4.4436383,-1.0055647
5.2923965,4.5970316,-0.19570702,-0.17729984,0.40073967,8.403648,-4.4436383,-1.0055647
5.292733,4.5965185,-0.19251123,-0.17516932,0.426306,8.379706,-4.4723687,-1.0342951
5.2930684,4.596006,-0.19251123,-0.17516932,0.426306,8.379706,-4.4723687,-1.0342951
5.2934194,4.5955153,-0.18931544,-0.17410405,0.44867656,8.37013,-4.534618,-0.94331545
5.293769,4.595027,-0.18931544,-0.17410405,0.44867656,8.37013,-4.534618,-0.94331545
5.294137,4.594551,-0.18292385,-0.17197353,0.46678606,8.384495,-4.5058875,-0.9576807
5.2945037,4.594077,-0.18292385,-0.17197353,0.46678606,8.384495,-4.5058875,-0.9576807
5.294888,4.5936174,-0.175467,-0.16877773,0.48276502,8.355764,-4.5298295,-0.9528923
5.2952704,4.5931597,-0.175467,-0.16877773,0.48276502,8.355764,-4.5298295,-0.9528923
5.2956653,4.5927205,-0.16481435,-0.16451667,0.49448293,8.322245,-4.4963107,-0.9528923
5.296058,4.5922837,-0.16481435,-0.16451667,0.49448293,8.322245,-4.4963107,-0.9528923
5.2964687,4.591859,-0.15096591,-0.16025561,0.5051356,8.269572,-4.477157,-1.0103531
5.2968783,4.5914345,-0.15096591,-0.16025561,0.5051356,8.269572,-4.477157,-1.0103531
5.297292,4.5910373,-0.13711748,-0.15812509,0.5136577,8.192958,-4.429273,-0.9672575
5.2977057,4.59064,-0.13711748,-0.15812509,0.5136577,8.192958,-4.429273,-0.9672575
5.298124,4.590276,-0.122203775,-0.1549293,0.5232451,8.145074,-4.4340615,-0.90500826
5.29854,4.5899124,-0.122203775,-0.1549293,0.5232451,8.145074,-4.4340615,-0.90500826
5.298961,4.589581,-0.10515954,-0.1517335,0.53070194,8.106767,-4.5154643,-0.842759
5.2993813,4.5892525,-0.10515954,-0.1517335,0.53070194,8.106767,-4.5154643,-0.842759
5.2997956,4.5890226,-0.08811531,-0.14853771,0.539224,8.1163435,-4.673482,-0.62249243
5.300209,4.588794,-0.08811531,-0.14853771,0.539224,8.1163435,-4.673482,-0.62249243
5.300641,4.5886617,-0.07107108,-0.14534192,0.54668087,8.087613,-4.9224787,-0.5267244
5.301072,4.5885286,-0.07107108,-0.14534192,0.54668087,8.087613,-4.9224787,-0.5267244
5.301573,4.588515,-0.056157377,-0.14001559,0.5562683,8.12592,-5.2241483,-0.46926352
5.3020697,4.5885,-0.056157377,-0.14001559,0.5562683,8.12592,-5.2241483,-0.46926352
5.30269,4.5885344,-0.043374203,-0.13575453,0.5679862,8.130709,-5.544971,-0.44532153
5.3033066,4.5885687,-0.043374203,-0.13575453,0.5679862,8.130709,-5.544971,-0.44532153
5.304015,4.5885468,-0.03698262,-0.13042821,0.57757354,8.054094,-5.8705826,-0.5363012
5.304723,4.5885262,-0.03698262,-0.13042821,0.57757354,8.054094,-5.8705826,-0.5363012
5.3054605,4.5884213,-0.03804788,-0.12829769,0.5860957,8.015787,-6.1770406,-0.7278373
5.306196,4.5883174,-0.03804788,-0.12829769,0.5860957,8.015787,-6.1770406,-0.7278373
5.306938,4.5881667,-0.042308938,-0.124036625,0.5946178,7.896077,-6.3350577,-0.91937345
5.3076797,4.5880165,-0.042308938,-0.124036625,0.5946178,7.896077,-6.3350577,-0.91937345
5.3084297,4.5878506,-0.052961584,-0.122971356,0.6042052,7.843405,-6.517017,-1.0055647
5.3091784,4.5876865,-0.052961584,-0.122971356,0.6042052,7.843405,-6.517017,-1.0055647
5.309935,4.5875025,-0.06467949,-0.124036625,0.6127273,7.7667904,-6.5744777,-1.067814
5.3106914,4.5873194,-0.06467949,-0.124036625,0.6127273,7.7667904,-6.5744777,-1.067814
5.311454,4.587124,-0.0795932,-0.1251019,0.6180536,7.723695,-6.6415157,-1.0773908
5.312217,4.586928,-0.0795932,-0.1251019,0.6180536,7.723695,-6.6415157,-1.0773908
5.312982,4.586728,-0.093441635,-0.12616715,0.6180536,7.723695,-6.579266,-1.0055647
5.3137455,4.5865283,-0.093441635,-0.12616715,0.6180536,7.723695,-6.579266,-1.0055647
5.3145123,4.586319,-0.104094274,-0.124036625,0.61911887,7.6949644,-6.50744,-0.9959879
5.3152776,4.586112,-0.104094274,-0.124036625,0.61911887,7.6949644,-6.50744,-0.9959879
5.3161597,4.585891,-0.11048587,-0.12084083,0.6148578,7.6710224,-6.4020953,-0.89064306
5.316818,4.585726,-0.11048587,-0.12084083,0.6148578,7.6710224,-6.4020953,-0.89064306
5.3175673,4.5855303,-0.11368166,-0.11551451,0.60313994,7.608773,-6.315904,-0.90979666
5.318485,4.5852904,-0.11368166,-0.11551451,0.60313994,7.608773,-6.315904,-0.90979666
5.319051,4.585167,-0.11261639,-0.109122925,0.5882262,7.5561004,-6.1770406,-0.79008657
5.319782,4.5850067,-0.11261639,-0.109122925,0.5882262,7.5561004,-6.1770406,-0.79008657
5.3205004,4.584898,-0.106224805,-0.10166607,0.57118195,7.61835,-6.0525417,-0.6703765
5.321216,4.584791,-0.106224805,-0.10166607,0.57118195,7.61835,-6.0525417,-0.6703765
5.321911,4.584706,-0.09557216,-0.09207869,0.55094194,7.690176,-5.9424086,-0.6751649
5.3226066,4.5846214,-0.09557216,-0.09207869,0.55094194,7.690176,-5.9424086,-0.6751649
5.323262,4.5846148,-0.08172372,-0.08142605,0.5275061,7.819463,-5.81791,-0.60812724
5.3239164,4.584609,-0.08172372,-0.08142605,0.5275061,7.819463,-5.81791,-0.60812724
5.324477,4.5846972,-0.06361423,-0.07183866,0.49980927,7.9152308,-5.7125654,-0.48841715
5.325036,4.584785,-0.06361423,-0.07183866,0.49980927,7.9152308,-5.7125654,-0.48841715
5.3255205,4.584905,-0.04443947,-0.06544708,0.4689166,8.010999,-5.674258,-0.37349546
5.3260026,4.5850244,-0.04443947,-0.06544708,0.4689166,8.010999,-5.674258,-0.37349546
5.326435,4.585165,-0.024199443,-0.059055492,0.43695867,8.0445175,-5.626374,-0.30166942
5.3268657,4.585306,-0.024199443,-0.059055492,0.43695867,8.0445175,-5.626374,-0.30166942
5.327255,4.585465,-0.0028941538,-0.054794434,0.40500072,8.082825,-5.5976434,-0.23463176
5.3276424,4.585624,-0.0028941538,-0.054794434,0.40500072,8.082825,-5.5976434,-0.23463176
5.327988,4.585796,0.018411135,-0.05372917,0.37197754,8.1402855,-5.554548,-0.12928689
5.3283324,4.585967,0.018411135,-0.05372917,0.37197754,8.1402855,-5.554548,-0.12928689
5.3286414,4.58615,0.039716423,-0.054794434,0.34215012,8.12592,-5.4779334,-0.095768064
5.3289485,4.5863323,0.039716423,-0.054794434,0.34215012,8.12592,-5.4779334,-0.095768064
5.3292227,4.586522,0.061021715,-0.057990227,0.31764904,8.1402855,-5.391742,-0.062249243
5.3294964,4.586711,0.061021715,-0.057990227,0.31764904,8.1402855,-5.391742,-0.062249243
5.329747,4.5869093,0.08126174,-0.062251285,0.29634374,8.12592,-5.3342814,-0.0047884034
5.329997,4.587106,0.08126174,-0.062251285,0.29634374,8.12592,-5.3342814,-0.0047884034
5.3302193,4.587305,0.102567025,-0.06757761,0.28249532,8.106767,-5.185841,-0.05267244
5.33044,4.5875025,0.102567025,-0.06757761,0.28249532,8.106767,-5.185841,-0.05267244
5.330635,4.5876913,0.12387232,-0.07503446,0.27503845,8.12592,-5.00867,-0.10055647
5.33083,4.58788,0.12387232,-0.07503446,0.27503845,8.12592,-5.00867,-0.10055647
5.3310237,4.588073,0.1451776,-0.08355658,0.277169,8.063671,-4.9081135,-0.10055647
5.331209,4.5882573,0.1451776,-0.08355658,0.277169,8.063671,-4.9081135,-0.10055647
5.331404,4.5884533,0.16754816,-0.08994816,0.28675637,8.078036,-4.7405195,-0.08140286
5.331607,4.5886564,0.16754816,-0.08994816,0.28675637,8.078036,-4.7405195,-0.08140286
5.33181,4.5888577,0.19098398,-0.095274486,0.30273533,8.030152,-4.6016555,-0.12449849
5.332011,4.589057,0.19098398,-0.095274486,0.30273533,8.030152,-4.6016555,-0.12449849
5.332232,4.5892687,0.21548507,-0.09847028,0.3272364,7.8386164,-4.3861775,-0.16280572
5.3324533,4.589481,0.21548507,-0.09847028,0.3272364,7.8386164,-4.3861775,-0.16280572
5.3327045,4.5897026,0.2410514,-0.1037966,0.3634554,7.690176,-4.132392,-0.17717093
5.332956,4.5899243,0.2410514,-0.1037966,0.3634554,7.690176,-4.132392,-0.17717093
5.3332496,4.590166,0.26768303,-0.110188186,0.40713125,7.651869,-3.86903,-0.11492168
5.333543,4.5904074,0.26768303,-0.110188186,0.40713125,7.651869,-3.86903,-0.11492168
5.333883,4.590658,0.29644516,-0.1187103,0.45719868,7.6231384,-3.6343982,-0.17238252
5.334222,4.590907,0.29644516,-0.1187103,0.45719868,7.6231384,-3.6343982,-0.17238252
5.3346224,4.5911746,0.32627258,-0.13149348,0.51791877,7.728483,-3.3087866,-0.110133275
5.3350224,4.5914416,0.32627258,-0.13149348,0.51791877,7.728483,-3.3087866,-0.110133275
5.335493,4.591736,0.35716522,-0.14640717,0.5839651,7.85777,-3.0933087,0.023942016
5.335963,4.592029,0.35716522,-0.14640717,0.5839651,7.85777,-3.0933087,0.023942016
5.336508,4.592343,0.38699263,-0.16238615,0.65533787,8.020576,-2.930503,0.08619126
5.337051,4.592655,0.38699263,-0.16238615,0.65533787,8.020576,-2.930503,0.08619126
5.3376703,4.592993,0.41895056,-0.17729984,0.7277759,8.1881695,-2.719813,0.19632454
5.3382883,4.59333,0.41895056,-0.17729984,0.7277759,8.1881695,-2.719813,0.19632454
5.3389826,4.5936875,0.44771272,-0.19008303,0.8023444,8.250419,-2.552219,0.21068975
5.3396764,4.594044,0.44771272,-0.19008303,0.8023444,8.250419,-2.552219,0.21068975
5.34045,4.594424,0.4754096,-0.20180093,0.8811739,8.24563,-2.3702598,0.22984336
5.3412213,4.594802,0.4754096,-0.20180093,0.8811739,8.24563,-2.3702598,0.22984336
5.342076,4.5951896,0.4967149,-0.2145841,0.962134,8.197746,-2.1787236,0.1436521
5.342929,4.5955763,0.4967149,-0.2145841,0.962134,8.197746,-2.1787236,0.1436521
5.3438673,4.595978,0.51375914,-0.22417149,1.0473552,8.101978,-2.0973208,0.12449849
5.344805,4.596379,0.51375914,-0.22417149,1.0473552,8.101978,-2.0973208,0.12449849
5.3458357,4.596787,0.525477,-0.23588939,1.1400332,8.09719,-1.9776106,0.10534488
5.346864,4.597194,0.525477,-0.23588939,1.1400332,8.09719,-1.9776106,0.10534488
5.347994,4.597602,0.5286728,-0.24867256,1.235907,8.0684595,-1.9201498,0.10055647
5.3491216,4.598009,0.5286728,-0.24867256,1.235907,8.0684595,-1.9201498,0.10055647
5.3503494,4.598411,0.52760756,-0.26358625,1.3349766,7.9822683,-1.7860745,0.1436521
5.3515773,4.598812,0.52760756,-0.26358625,1.3349766,7.9822683,-1.7860745,0.1436521
5.3529096,4.5992007,0.525477,-0.28276104,1.437242,7.9152308,-1.6232687,0.17238252
5.354239,4.5995884,0.525477,-0.28276104,1.437242,7.9152308,-1.6232687,0.17238252
5.355681,4.5999527,0.5201507,-0.30406633,1.5437684,7.747637,-1.5035586,0.08140286
5.3571196,4.6003165,0.5201507,-0.30406633,1.5437684,7.747637,-1.5035586,0.08140286
5.358667,4.600652,0.5148244,-0.3285674,1.6513602,7.666234,-1.364695,0
5.3602114,4.6009874,0.5148244,-0.3285674,1.6513602,7.666234,-1.364695,0
5.3602114,4.6009874,0.5148244,-0.3285674,1.6513602,7.666234,-1.364695,0
5.3602114,4.6009874,0.5148244,-0.3285674,1.6513602,7.666234,-1.364695,0
5.3602114,4.6009874,0.5041717,-0.38183063,1.8761309,7.4986396,-1.2306197,-0.20111294
5.367574,4.602128,0.5041717,-0.38183063,1.8761309,7.4986396,-1.2306197,-0.20111294
5.3692493,4.602348,0.4956496,-0.40207064,1.9943753,7.493851,-1.13964,-0.33518824
5.371144,4.602597,0.4956496,-0.40207064,1.9943753,7.493851,-1.13964,-0.33518824
5.373093,4.602814,0.4839317,-0.41698435,2.1158154,7.479486,-1.1971009,-0.521936
5.3751025,4.603039,0.4839317,-0.41698435,2.1158154,7.479486,-1.1971009,-0.521936
5.3772306,4.603242,0.46582222,-0.42763698,2.2361903,7.489063,-1.283292,-0.641646
5.3793707,4.6034455,0.46582222,-0.42763698,2.2361903,7.489063,-1.283292,-0.641646
5.3816175,4.603623,0.44025585,-0.4329633,2.3565652,7.4603324,-1.436521,-0.80445176
5.383876,4.603802,0.44025585,-0.4329633,2.3565652,7.4603324,-1.436521,-0.80445176
5.38625,4.6039505,0.40936318,-0.4361591,2.4769402,7.326257,-1.6328455,-0.9720459
5.388627,4.6041,0.40936318,-0.4361591,2.4769402,7.326257,-1.6328455,-0.9720459
5.391111,4.604211,0.37207893,-0.4393549,2.5930538,7.1586633,-1.9201498,-1.115698
5.39361,4.6043234,0.37207893,-0.4393549,2.5930538,7.1586633,-1.9201498,-1.115698
5.39621,4.6043916,0.32733783,-0.4425507,2.7070372,6.9288197,-2.0973208,-1.2066777
5.398823,4.604461,0.32733783,-0.4425507,2.7070372,6.9288197,-2.0973208,-1.2066777
5.4015474,4.6044817,0.2772704,-0.44787702,2.8210206,6.71813,-2.3223755,-1.2545617
5.404269,4.604503,0.2772704,-0.44787702,2.8210206,6.71813,-2.3223755,-1.2545617
5.4071126,4.604469,0.22400717,-0.45639914,2.9328732,6.540959,-2.5187001,-1.2976574
5.4099493,4.604436,0.22400717,-0.45639914,2.9328732,6.540959,-2.5187001,-1.2976574
5.4128976,4.6043587,0.16967869,-0.46598652,3.0393996,6.4739213,-2.633622,-1.1779473
5.415836,4.604284,0.16967869,-0.46598652,3.0393996,6.4739213,-2.633622,-1.1779473
5.418889,4.604171,0.12174179,-0.4723781,3.1427305,6.4260373,-2.8060043,-1.1013328
5.4219356,4.604061,0.12174179,-0.4723781,3.1427305,6.4260373,-2.8060043,-1.1013328
5.4219356,4.604061,0.07913121,-0.4787697,3.2449958,6.38773,-2.9975405,-0.93373865
5.4282765,4.603795,0.07913121,-0.4787697,3.2449958,6.38773,-2.9975405,-0.93373865
5.431516,4.603643,0.043977484,-0.48196548,3.3376737,6.3589997,-3.1842883,-0.866701
5.4347363,4.6034946,0.043977484,-0.48196548,3.3376737,6.3589997,-3.1842883,-0.866701
5.438013,4.603347,0.017345872,-0.48303074,3.4175687,6.3685765,-3.3806129,-0.7230489
5.441316,4.603199,0.017345872,-0.48303074,3.4175687,6.3685765,-3.3806129,-0.7230489
5.444705,4.6030574,0.00030163955,-0.48196548,3.4889414,6.3446345,-3.643975,-0.62728083
5.448077,4.6029177,0.00030163955,-0.48196548,3.4889414,6.3446345,-3.643975,-0.62728083
5.4515324,4.6028156,-0.006089947,-0.48196548,3.5507267,6.3063273,-3.9217024,-0.40222588
5.454967,4.6027155,-0.006089947,-0.48196548,3.5507267,6.3063273,-3.9217024,-0.40222588
5.4584856,4.6026597,-0.0050246827,-0.48196548,3.605055,6.2249246,-4.2521024,-0.23463176
5.4619894,4.6026034,-0.0050246827,-0.48196548,3.605055,6.2249246,-4.2521024,-0.23463176
5.4655704,4.602599,0.001366904,-0.48303074,3.6508615,6.0381765,-4.55856,-0.10055647
5.469133,4.6025934,0.001366904,-0.48303074,3.6508615,6.0381765,-4.55856,-0.10055647
5.4728007,4.602645,0.0141500775,-0.48835707,3.6881459,5.7843914,-4.88896,0.10534488
5.4764585,4.6026945,0.0141500775,-0.48835707,3.6881459,5.7843914,-4.88896,0.10534488
5.4801893,4.602772,0.031194309,-0.4968792,3.7201037,5.4444146,-5.0661306,0.2633622
5.483917,4.602849,0.031194309,-0.4968792,3.7201037,5.4444146,-5.0661306,0.2633622
5.4877276,4.6029387,0.054630127,-0.51285815,3.7520616,5.046977,-5.243302,0.45968673
5.4915237,4.6030273,0.054630127,-0.51285815,3.7520616,5.046977,-5.243302,0.45968673
5.4953775,4.6031218,0.08339227,-0.5352287,3.7829542,4.697424,-5.3821654,0.63206923
5.4992256,4.6032166,0.08339227,-0.5352287,3.7829542,4.697424,-5.3821654,0.63206923
5.503128,4.603315,0.11641546,-0.5661214,3.8149123,4.4196963,-5.439626,0.79966336
5.5070176,4.603413,0.11641546,-0.5661214,3.8149123,4.4196963,-5.439626,0.79966336
5.5109506,4.603516,0.15583025,-0.6044709,3.845805,4.271256,-5.473145,0.9672575
5.5148697,4.60362,0.15583025,-0.6044709,3.845805,4.271256,-5.473145,0.9672575
5.5188327,4.603734,0.20270188,-0.64814675,3.8766975,4.3526587,-5.48751,1.1348516
5.5227823,4.603849,0.20270188,-0.64814675,3.8766975,4.3526587,-5.48751,1.1348516
5.5267725,4.603974,0.25170404,-0.6939531,3.9086554,4.3766007,-5.4922986,1.2162545
5.53075,4.6041,0.25170404,-0.6939531,3.9086554,4.3766007,-5.4922986,1.2162545
5.534773,4.6042433,0.30603254,-0.7397595,3.9406135,4.462792,-5.5018754,1.3694834
5.5387874,4.6043873,0.30603254,-0.7397595,3.9406135,4.462792,-5.5018754,1.3694834
5.542838,4.604554,0.3646221,-0.78343534,3.9693756,4.390966,-5.544971,1.3120226
5.5468793,4.6047225,0.3646221,-0.78343534,3.9693756,4.390966,-5.544971,1.3120226
5.5509715,4.604915,0.42214635,-0.8260459,3.9960072,4.3382936,-5.5641246,1.13964
5.55505,4.605109,0.42214635,-0.8260459,3.9960072,4.3382936,-5.5641246,1.13964
5.55917,4.6053257,0.4743443,-0.8654607,4.023704,4.295198,-5.535394,0.9864111
5.5632763,4.6055436,0.4743443,-0.8654607,4.023704,4.295198,-5.535394,0.9864111
5.5674334,4.6057844,0.5233465,-0.9038102,4.055662,4.3526587,-5.5401826,0.8523358
5.571575,4.6060257,0.5233465,-0.9038102,4.055662,4.3526587,-5.5401826,0.8523358
5.575753,4.606283,0.561696,-0.9400292,4.08762,4.4196963,-5.386954,0.58418524
5.579916,4.606541,0.561696,-0.9400292,4.08762,4.4196963,-5.386954,0.58418524
5.5841208,4.6068077,0.59045815,-0.9730524,4.1185126,4.43885,-5.2720323,0.34476504
5.588314,4.607075,0.59045815,-0.9730524,4.1185126,4.43885,-5.2720323,0.34476504
5.5925145,4.607341,0.61069816,-1.0018145,4.151536,4.4675803,-4.999093,0.20111294
5.5967035,4.6076074,0.61069816,-1.0018145,4.151536,4.4675803,-4.999093,0.20111294
5.6009173,4.6078625,0.62348133,-1.0273808,4.185624,4.4675803,-4.759673,0.14844051
5.6051245,4.608119,0.62348133,-1.0273808,4.185624,4.4675803,-4.759673,0.14844051
5.609358,4.608359,0.62880766,-1.0476209,4.225039,4.429273,-4.5298295,0.095768064
5.613577,4.6085997,0.62880766,-1.0476209,4.225039,4.429273,-4.5298295,0.095768064
5.6178107,4.6087813,0.62880766,-1.0635998,4.2665844,4.2521024,-4.1802764,-0.2633622
5.622031,4.608964,0.62880766,-1.0635998,4.2665844,4.2521024,-4.1802764,-0.2633622
5.6263103,4.6090317,0.6224161,-1.0795789,4.3102603,3.9312792,-3.916914,-0.6991069
5.6305795,4.609104,0.6224161,-1.0795789,4.3102603,3.9312792,-3.916914,-0.6991069
5.6349525,4.609112,0.6075024,-1.0976883,4.3603277,3.620033,-3.6727054,-1.0295067
5.6393147,4.609125,0.6075024,-1.0976883,4.3603277,3.620033,-3.6727054,-1.0295067
5.643779,4.6090884,0.5798055,-1.1189936,4.4199824,3.3423057,-3.442862,-1.388637
5.6482277,4.6090574,0.5798055,-1.1189936,4.4199824,3.3423057,-3.442862,-1.388637
5.652769,4.608974,0.53826016,-1.1413642,4.491355,3.2273839,-3.122039,-1.7429788
5.657305,4.6088963,0.53826016,-1.1413642,4.491355,3.2273839,-3.122039,-1.7429788
5.661907,4.608762,0.48286644,-1.1616042,4.5733805,3.5290532,-2.791639,-2.0159178
5.6665087,4.6086335,0.48286644,-1.1616042,4.5733805,3.5290532,-2.791639,-2.0159178
5.6711993,4.6084337,0.40936318,-1.1743873,4.663928,3.7205894,-2.6479871,-2.3080103
5.675889,4.608241,0.40936318,-1.1743873,4.663928,3.7205894,-2.6479871,-2.3080103
5.680674,4.6079607,0.31668517,-1.1818442,4.760867,3.7205894,-2.3080103,-2.542642
5.685454,4.607687,0.31668517,-1.1818442,4.760867,3.7205894,-2.3080103,-2.542642
5.690345,4.6073155,0.20802821,-1.1818442,4.8631325,3.5434184,-2.006341,-2.6001031
5.695231,4.6069508,0.20802821,-1.1818442,4.8631325,3.5434184,-2.006341,-2.6001031
5.700223,4.6064863,0.08552279,-1.1722568,4.970724,3.3901896,-1.8052281,-2.3989902
5.7051992,4.60603,0.08552279,-1.1722568,4.970724,3.3901896,-1.8052281,-2.3989902
5.7103033,4.6054726,-0.045504734,-1.1520169,5.0879035,3.3423057,-1.6998832,-2.1739352
5.7153916,4.604924,-0.045504734,-1.1520169,5.0879035,3.3423057,-1.6998832,-2.1739352
5.72062,4.6042824,-0.17866279,-1.1200589,5.2146697,3.2944214,-1.6807296,-1.8818425
5.7258015,4.603654,-0.17866279,-1.1200589,5.2146697,3.2944214,-1.6807296,-1.8818425
5.731161,4.6029205,-0.3075598,-1.0817094,5.347828,2.858677,-1.6998832,-1.8914193
5.7365,4.602198,-0.3075598,-1.0817094,5.347828,2.858677,-1.6998832,-1.8914193
5.7419586,4.601417,-0.43432626,-1.0486861,5.484182,3.0550013,-2.15957,-1.0821792
5.7474008,4.600645,-0.43432626,-1.0486861,5.484182,3.0550013,-2.15957,-1.0821792
5.753039,4.5997505,-0.5589622,-1.0167283,5.626927,2.183512,-2.4899697,-1.0103531
5.7586584,4.598866,-0.5589622,-1.0167283,5.626927,2.183512,-2.4899697,-1.0103531
5.7645116,4.5978794,-0.68040234,-0.9879661,5.780325,1.8100165,-2.96881,-0.7134721
5.7703357,4.596904,-0.68040234,-0.9879661,5.780325,1.8100165,-2.96881,-0.7134721
5.7764664,4.595868,-0.80290776,-0.9666608,5.944376,1.5514427,-3.347094,-0.59855044
5.7825823,4.594839,-0.80290776,-0.9666608,5.944376,1.5514427,-3.347094,-0.59855044
5.7889023,4.593748,-0.9275437,-0.9485513,6.1212096,1.508347,-3.6727054,-0.56982
5.7952094,4.5926642,-0.9275437,-0.9485513,6.1212096,1.508347,-3.6727054,-0.56982
5.80173,4.5914884,-1.0596365,-0.92937654,6.3055005,1.5275006,-4.1611223,-0.60812724
5.808232,4.5903215,-1.0596365,-0.92937654,6.3055005,1.5275006,-4.1611223,-0.60812724
5.814931,4.5890346,-1.2013167,-0.90913653,6.4940524,1.4077905,-4.6351743,-0.7422025
5.82161,4.587756,-1.2013167,-0.90913653,6.4940524,1.4077905,-4.6351743,-0.7422025
5.828501,4.586353,-1.3525842,-0.8899618,6.680474,1.2114661,-5.3438582,-0.89064306
5.835371,4.584957,-1.3525842,-0.8899618,6.680474,1.2114661,-5.3438582,-0.89064306
5.842439,4.5834384,-1.5134392,-0.87611336,6.8658295,0.92895025,-6.0142345,-0.8714894
5.8494864,4.581929,-1.5134392,-0.87611336,6.8658295,0.92895025,-6.0142345,-0.8714894
5.856736,4.5802927,-1.6764246,-0.8675912,7.0469246,0.6368576,-6.871359,-0.6703765
5.863957,4.578668,-1.6764246,-0.8675912,7.0469246,0.6368576,-6.871359,-0.6703765
5.8713737,4.576896,-1.8404753,-0.86652595,7.2194977,0.31124622,-7.7572136,-0.56982
5.878768,4.575135,-1.8404753,-0.86652595,7.2194977,0.31124622,-7.7572136,-0.56982
5.8863378,4.5732346,-2.0002651,-0.8697218,7.3888745,-0.04309563,-8.78672,-0.29688102
5.893884,4.571345,-2.0002651,-0.8697218,7.3888745,-0.04309563,-8.78672,-0.29688102
5.9016933,4.569298,-2.148337,-0.88250494,7.55186,-0.23942018,-9.902418,0.07182605
5.909493,4.5672584,-2.148337,-0.88250494,7.55186,-0.23942018,-9.902418,0.07182605
5.9173875,4.565087,-2.278299,-0.9123323,7.6999316,-0.7134721,-10.630256,-0.6847417
5.9250846,4.5629745,-2.278299,-0.9123323,7.6999316,-0.7134721,-10.630256,-0.6847417
5.9331155,4.5606785,-2.3933475,-0.9464208,7.842677,-1.1348516,-11.63582,-1.436521
5.941138,4.5583906,-2.3933475,-0.9464208,7.842677,-1.1348516,-11.63582,-1.436521
5.949324,4.555982,-2.5041351,-0.9666608,7.987553,-1.283292,-12.607866,-1.9632454
5.9574766,4.553588,-2.5041351,-0.9666608,7.987553,-1.283292,-12.607866,-1.9632454
5.9658103,4.5510783,-2.6064005,-0.9719871,8.127103,-1.3934253,-13.311762,-2.5474305
5.974134,4.5485744,-2.6064005,-0.9719871,8.127103,-1.3934253,-13.311762,-2.5474305
5.9825726,4.5459843,-2.7001438,-0.9645303,8.253869,-1.733402,-13.742718,-3.0119057
5.9909935,4.543402,-2.7001438,-0.9645303,8.253869,-1.733402,-13.742718,-3.0119057
5.9995546,4.540732,-2.7811038,-0.9485513,8.366787,-2.1547816,-13.962984,-3.5769374
6.00808,4.5380745,-2.7811038,-0.9485513,8.366787,-2.1547816,-13.962984,-3.5769374
6.016727,4.535347,-2.846085,-0.9304418,8.46053,-2.528277,-14.044387,-3.9552212
6.025355,4.532626,-2.846085,-0.9304418,8.46053,-2.528277,-14.044387,-3.9552212
6.034051,4.529869,-2.8897607,-0.9133976,8.535099,-2.743755,-14.087482,-4.0653543
6.042728,4.527118,-2.8897607,-0.9133976,8.535099,-2.743755,-14.087482,-4.0653543
6.051486,4.52434,-2.9078703,-0.8974186,8.587297,-2.815581,-13.79539,-4.1946416
6.0602064,4.5215726,-2.9078703,-0.8974186,8.587297,-2.815581,-13.79539,-4.1946416
6.068989,4.518812,-2.8993483,-0.8814396,8.61819,-2.1260512,-14.18325,-3.8546648
6.077743,4.5160584,-2.8993483,-0.8814396,8.61819,-2.1260512,-14.18325,-3.8546648
6.0865216,4.513339,-2.8631291,-0.8537428,8.633103,-2.8203697,-13.785813,-3.9073372
6.0952716,4.510626,-2.8631291,-0.8537428,8.633103,-2.8203697,-13.785813,-3.9073372
6.0952716,4.510626,-2.801344,-0.8164585,8.625647,-2.4612393,-13.977349,-3.6343982
6.113349,4.505151,-2.801344,-0.8164585,8.625647,-2.4612393,-13.977349,-3.6343982
6.1218286,4.5026627,-2.7182531,-0.7845006,8.590493,-1.9393034,-14.5328045,-3.2273839
6.1218286,4.5026627,-2.7182531,-0.7845006,8.590493,-1.9393034,-14.5328045,-3.2273839
6.1218286,4.5026627,-2.7182531,-0.7845006,8.590493,-1.9393034,-14.5328045,-3.2273839
6.1459208,4.495562,-2.608531,-0.7344332,8.530838,-1.484405,-14.499286,-3.1842883
6.156124,4.4927254,-2.4785688,-0.669452,8.443486,-1.2018893,-14.585477,-3.0885203
6.1646476,4.4904017,-2.4785688,-0.669452,8.443486,-1.2018893,-14.585477,-3.0885203
6.173032,4.488243,-2.334758,-0.592753,8.329503,-0.94331545,-14.839262,-2.6910827
6.181404,4.48608,-2.334758,-0.592753,8.329503,-0.94331545,-14.839262,-2.6910827
6.1896195,4.4840817,-2.1792295,-0.5054013,8.194215,-1.0151415,-15.318103,-2.4516625
6.1978626,4.4820685,-2.1792295,-0.5054013,8.194215,-1.0151415,-15.318103,-2.4516625
6.2058764,4.480235,-2.007722,-0.41378856,8.042947,-1.5658079,-15.44739,-2.2840683
6.213909,4.478388,-2.007722,-0.41378856,8.042947,-1.5658079,-15.44739,-2.2840683
6.2217617,4.47672,-1.8170395,-0.33282846,7.877831,-2.2744915,-15.437813,-2.1499932
6.22961,4.4750433,-1.8170395,-0.33282846,7.877831,-2.2744915,-15.437813,-2.1499932
6.237266,4.473563,-1.6114435,-0.27530417,7.6999316,-2.6431987,-15.370775,-1.9393034
6.2449183,4.472073,-1.6114435,-0.27530417,7.6999316,-2.6431987,-15.370775,-1.9393034
6.2523746,4.4707985,-1.3898685,-0.24121572,7.5156407,-2.6479871,-15.452178,-1.7429788
6.259827,4.469514,-1.3898685,-0.24121572,7.5156407,-2.6479871,-15.452178,-1.7429788
6.2670727,4.468453,-1.1640325,-0.21245357,7.326024,-2.4133554,-15.682021,-1.4221559
6.274097,4.4674144,-1.1640325,-0.21245357,7.326024,-2.4133554,-15.682021,-1.4221559
6.2811327,4.4665594,-0.9392616,-0.17836511,7.127885,-2.480393,-15.988479,-1.3694834
0.005197049,4.4656677,-0.9392616,-0.17836511,7.127885,-2.480393,-15.988479,-1.3694834
0.012030737,4.465,-0.72620875,-0.13042821,6.927615,-2.944868,-16.294937,-1.5849615
0.018813347,4.4643273,-0.72620875,-0.13042821,6.927615,-2.944868,-16.294937,-1.5849615
0.025452174,4.463823,-0.5333958,-0.077164985,6.729476,-3.4955344,-16.567875,-2.0254946
0.03213499,4.4633055,-0.5333958,-0.077164985,6.729476,-3.4955344,-16.567875,-2.0254946
0.038584143,4.4629297,-0.37147567,-0.031358615,6.532402,-4.0462008,-16.879122,-2.6001031
0.045044303,4.4625444,-0.37147567,-0.031358615,6.532402,-4.0462008,-16.879122,-2.6001031
0.051294442,4.462268,-0.24470918,-0.0025964756,6.339589,-4.343082,-17.075447,-3.0454245
0.05755576,4.4619813,-0.24470918,-0.0025964756,6.339589,-4.343082,-17.075447,-3.0454245
0.063640185,4.4617715,-0.15096591,0.003795111,6.151037,-4.3766007,-17.195156,-3.4715924
0.06971769,4.4615536,-0.15096591,0.003795111,6.151037,-4.3766007,-17.195156,-3.4715924
0.075624295,4.461387,-0.08811531,-0.008988062,5.96142,-4.381389,-17.180792,-3.6822822
0.08153603,4.4612126,-0.08811531,-0.008988062,5.96142,-4.381389,-17.180792,-3.6822822
0.08725526,4.461069,-0.04763526,-0.037750203,5.763281,-4.1946416,-17.03235,-3.8977604
0.09298544,4.4609184,-0.04763526,-0.037750203,5.763281,-4.1946416,-17.03235,-3.8977604
0.098515615,4.460793,-0.02313418,-0.077164985,5.55875,-4.232949,-16.749836,-3.8259344
0.10405086,4.4606614,-0.02313418,-0.077164985,5.55875,-4.232949,-16.749836,-3.8259344
0.10938801,4.460547,-0.006089947,-0.122971356,5.3414364,-4.405331,-16.481684,-3.8067808
0.11472473,4.460427,-0.006089947,-0.122971356,5.3414364,-4.405331,-16.481684,-3.8067808
0.11985034,4.460335,0.012019549,-0.17516932,5.1124043,-4.525041,-15.993267,-3.5769374
0.12497548,4.460238,0.012019549,-0.17516932,5.1124043,-4.525041,-15.993267,-3.5769374
0.12988284,4.4601836,0.03865116,-0.2294978,4.878046,-4.6351743,-15.485697,-3.2609026
0.13478954,4.460125,0.03865116,-0.2294978,4.878046,-4.6351743,-15.485697,-3.2609026
0.13946627,4.460128,0.07913121,-0.27530417,4.6383615,-4.673482,-15.1936035,-2.858677
0.14414218,4.460128,0.07913121,-0.27530417,4.6383615,-4.673482,-15.1936035,-2.858677
0.14858247,4.4602046,0.13772075,-0.31258842,4.393351,-4.462792,-14.810532,-2.6144683
0.1530218,4.4602795,0.13772075,-0.31258842,4.393351,-4.462792,-14.810532,-2.6144683
0.15720381,4.460458,0.21548507,-0.34561163,4.1387525,-3.9264908,-14.5328045,-2.3558946
0.16138414,4.460635,0.21548507,-0.34561163,4.1387525,-3.9264908,-14.5328045,-2.3558946
0.16529934,4.460932,0.31455466,-0.3615906,3.878828,-3.466804,-14.317327,-2.3127987
0.16920833,4.4612274,0.31455466,-0.3615906,3.878828,-3.466804,-14.317327,-2.3127987
0.17285663,4.461647,0.42747268,-0.3583948,3.6061203,-3.2944214,-14.159308,-2.4516625
0.17649862,4.4620657,0.42747268,-0.3583948,3.6061203,-3.2944214,-14.159308,-2.4516625
0.17988014,4.4626093,0.5510434,-0.3434811,3.3216949,-3.323152,-13.8241205,-2.695871
0.18325923,4.4631524,0.5510434,-0.3434811,3.3216949,-3.323152,-13.8241205,-2.695871
0.18638986,4.463806,0.67994034,-0.3285674,3.028747,-3.514688,-13.445837,-2.9735985
0.18951999,4.4644594,0.67994034,-0.3285674,3.028747,-3.514688,-13.445837,-2.9735985
0.1923816,4.465205,0.8056416,-0.3168495,2.7294078,-3.7110126,-13.043611,-3.217807
0.1951092,4.4659147,0.8056416,-0.3168495,2.7294078,-3.7110126,-13.043611,-3.217807
0.19768256,4.466771,0.92388594,-0.30726212,2.432199,-3.787627,-12.674904,-3.265691
0.2003797,4.4676666,0.92388594,-0.30726212,2.432199,-3.787627,-12.674904,-3.265691
0.20266965,4.4686494,1.0304123,-0.30087054,2.1413817,-3.8115692,-12.459426,-3.122039
0.20494387,4.469624,1.0304123,-0.30087054,2.1413817,-3.8115692,-12.459426,-3.122039
0.20695677,4.47071,1.1241556,-0.29447892,1.8569561,-3.7110126,-12.291832,-3.0789435
0.208984,4.471802,1.1241556,-0.29447892,1.8569561,-3.7110126,-12.291832,-3.0789435
0.21072757,4.472971,1.2040504,-0.28808734,1.5810527,-3.6583402,-12.172121,-3.0885203
0.21247081,4.4741383,1.2040504,-0.28808734,1.5810527,-3.6583402,-12.172121,-3.0885203
0.21395254,4.475379,1.2647705,-0.27956524,1.3136714,-3.643975,-12.129025,-3.0502129
0.21543244,4.4766164,1.2647705,-0.27956524,1.3136714,-3.643975,-12.129025,-3.0502129
0.21665877,4.477889,1.3063159,-0.2742389,1.0580078,-3.6008794,-12.109872,-3.1603463
0.2178811,4.479157,1.3063159,-0.2742389,1.0580078,-3.6008794,-12.109872,-3.1603463
0.21886106,4.4804506,1.3297517,-0.27104312,0.81512755,-3.5242648,-12.0332575,-3.1794999
0.21983875,4.481742,1.3297517,-0.27104312,0.81512755,-3.5242648,-12.0332575,-3.1794999
0.22057036,4.4830265,1.3340127,-0.26678208,0.58716094,-3.4237084,-11.9853735,-3.3087866
0.22131822,4.484343,1.3340127,-0.26678208,0.58716094,-3.4237084,-11.9853735,-3.3087866
0.22185631,4.4856787,1.3222948,-0.26358625,0.37517333,-3.3997664,-11.832145,-3.323152
0.22234471,4.486895,1.3222948,-0.26358625,0.37517333,-3.3997664,-11.832145,-3.323152
0.22264582,4.488121,1.294598,-0.2593252,0.17916466,-3.4332852,-11.659762,-3.4955344
0.22295341,4.4893794,1.294598,-0.2593252,0.17916466,-3.4332852,-11.659762,-3.4955344
0.22308068,4.490592,1.258379,-0.2593252,-0.0008650357,-3.4476504,-11.410766,-3.5338416
0.22320788,4.4918165,1.258379,-0.2593252,-0.0008650357,-3.4476504,-11.410766,-3.5338416
0.22316389,4.4929957,1.2136378,-0.26465154,-0.16491576,-3.265691,-11.180922,-3.5003228
0.22311872,4.49418,1.2136378,-0.26465154,-0.16491576,-3.265691,-11.180922,-3.5003228
0.22291207,4.495314,1.1635704,-0.2742389,-0.3097917,-2.9975405,-10.912771,-3.5482068
0.22270392,4.4964533,1.1635704,-0.2742389,-0.3097917,-2.9975405,-10.912771,-3.5482068
0.22233188,4.4976664,1.1103072,-0.28489155,-0.43762347,-2.8778305,-10.702082,-3.4332852
0.22203438,4.4986343,1.1103072,-0.28489155,-0.43762347,-2.8778305,-10.702082,-3.4332852
0.22156873,4.499673,1.0549134,-0.2923484,-0.5537373,-2.6048915,-10.453085,-3.3806129
0.22110161,4.5007133,1.0549134,-0.2923484,-0.5537373,-2.6048915,-10.453085,-3.3806129
0.22053105,4.5016975,0.9963239,-0.29447892,-0.65387213,-2.4516625,-10.175357,-3.2609026
0.219959,4.502684,0.9963239,-0.29447892,-0.65387213,-2.4516625,-10.175357,-3.2609026
0.21930198,4.503611,0.93560386,-0.29021788,-0.7390933,-2.3654714,-9.935937,-3.107674
0.21864323,4.5045404,0.93560386,-0.29021788,-0.7390933,-2.3654714,-9.935937,-3.107674
0.21791086,4.505403,0.8727532,-0.2774347,-0.8136618,-2.3175871,-9.768343,-3.0933087
0.21717592,4.5062685,0.8727532,-0.2774347,-0.8136618,-2.3175871,-9.768343,-3.0933087
0.21637732,4.5070667,0.80883735,-0.2593252,-0.87331665,-2.2409728,-9.624691,-3.040636
0.21557768,4.507865,0.80883735,-0.2593252,-0.87331665,-2.2409728,-9.624691,-3.040636
0.2147252,4.5085945,0.74385625,-0.24121572,-0.919123,-2.1499932,-9.5385,-3.0933087
0.21386996,4.5093255,0.74385625,-0.24121572,-0.919123,-2.1499932,-9.5385,-3.0933087
0.21297823,4.509988,0.6788751,-0.22417149,-0.9574725,-2.1787236,-9.548077,-3.1268275
0.21208708,4.5106497,0.6788751,-0.22417149,-0.9574725,-2.1787236,-9.548077,-3.1268275
0.21115412,4.511245,0.613894,-0.2113883,-0.98410416,-2.0350714,-9.672575,-3.074155
0.21021828,4.511841,0.613894,-0.2113883,-0.98410416,-2.0350714,-9.672575,-3.074155
0.20924398,4.512373,0.5499781,-0.1996704,-1.0022136,-1.8243817,-9.739613,-3.0502129
0.20827058,4.512904,0.5499781,-0.1996704,-1.0022136,-1.8243817,-9.739613,-3.0502129
0.20727101,4.5133724,0.48712748,-0.18901776,-1.011801,-1.6567876,-9.821015,-3.0119057
0.20626831,4.513842,0.48712748,-0.18901776,-1.011801,-1.6567876,-9.821015,-3.0119057
0.2052468,4.514252,0.42534214,-0.17943038,-1.016062,-1.532289,-9.825804,-2.8921957
0.2042264,4.514661,0.42534214,-0.17943038,-1.016062,-1.532289,-9.825804,-2.8921957
0.20319054,4.515007,0.3614263,-0.1666472,-1.0181926,-1.4317327,-9.830592,-2.8060043
0.20215347,4.5153527,0.3614263,-0.1666472,-1.0181926,-1.4317327,-9.830592,-2.8060043
0.2011044,4.515638,0.29751042,-0.1517335,-1.0171273,-1.5035586,-9.801862,-2.5091233
0.20005243,4.515923,0.29751042,-0.1517335,-1.0171273,-1.5035586,-9.801862,-2.5091233
0.19899298,4.5161514,0.23679034,-0.12936294,-1.0086052,-1.532289,-9.77792,-2.3175871
0.19793071,4.5163794,0.23679034,-0.12936294,-1.0086052,-1.532289,-9.77792,-2.3175871
0.1968514,4.5165706,0.18352713,-0.10060081,-0.9979526,-1.532289,-9.744401,-2.1260512
0.19577092,4.516761,0.18352713,-0.10060081,-0.9979526,-1.532289,-9.744401,-2.1260512
0.19468354,4.516939,0.13985129,-0.06970814,-0.98303884,-1.5131354,-9.753978,-1.9728222
0.1935919,4.517117,0.13985129,-0.06970814,-0.98303884,-1.5131354,-9.753978,-1.9728222
0.19251831,4.517235,0.104697555,-0.03455441,-0.96492934,-1.436521,-9.801862,-2.054225
0.19144505,4.517352,0.104697555,-0.03455441,-0.96492934,-1.436521,-9.801862,-2.054225
0.19039603,4.5174184,0.08019647,0.0048603755,-0.94468933,-1.3742718,-9.873688,-2.1739352
0.18934125,4.517484,0.08019647,0.0048603755,-0.94468933,-1.3742718,-9.873688,-2.1739352
0.1883298,4.517501,0.06421751,0.04214463,-0.92657983,-1.4460979,-10.0269165,-2.3798366
0.18731645,4.517516,0.06421751,0.04214463,-0.92657983,-1.4460979,-10.0269165,-2.3798366
0.18632251,4.5175157,0.056760654,0.07942889,-0.9042093,-1.4796166,-10.141838,-2.3894134
0.18532458,4.517515,0.056760654,0.07942889,-0.9042093,-1.4796166,-10.141838,-2.3894134
0.18437026,4.5174923,0.056760654,0.11564788,-0.882904,-1.5705963,-10.271125,-2.5761611
0.18341523,4.517469,0.056760654,0.11564788,-0.882904,-1.5705963,-10.271125,-2.5761611
0.18248534,4.5174427,0.06421751,0.14973634,-0.86159873,-1.5993267,-10.352529,-2.6527755
0.18155284,4.517417,0.06421751,0.14973634,-0.86159873,-1.5993267,-10.352529,-2.6527755
0.18065447,4.5173926,0.07700068,0.18169427,-0.8381629,-1.7190368,-10.395624,-2.6384103
0.17975764,4.5173683,0.07700068,0.18169427,-0.8381629,-1.7190368,-10.395624,-2.6384103
0.1789032,4.517353,0.09617544,0.21045642,-0.81472707,-1.8339585,-10.34774,-2.7102363
0.17804423,4.517338,0.09617544,0.21045642,-0.81472707,-1.8339585,-10.34774,-2.7102363
0.17722929,4.5173388,0.118545994,0.23389223,-0.79235655,-1.9440918,-10.304645,-2.8107927
0.17640981,4.5173407,0.118545994,0.23389223,-0.79235655,-1.9440918,-10.304645,-2.8107927
0.17561713,4.517366,0.14624287,0.2498712,-0.7721165,-1.982399,-10.156203,-2.8443117
0.17482544,4.5173917,0.14624287,0.2498712,-0.7721165,-1.982399,-10.156203,-2.8443117
0.17401762,4.5174475,0.17607027,0.25093648,-0.75826806,-1.6998832,-10.022128,-2.7629087
0.17320752,4.5175033,0.17607027,0.25093648,-0.75826806,-1.6998832,-10.022128,-2.7629087
0.17242427,4.51759,0.20696294,0.2498712,-0.7508112,-1.7812861,-9.835381,-2.480393
0.17164259,4.5176764,0.20696294,0.2498712,-0.7508112,-1.7812861,-9.835381,-2.480393
0.17087409,4.5177927,0.23785561,0.25519753,-0.74441963,-1.7812861,-9.710882,-2.4277205
0.17010404,4.5179095,0.23785561,0.25519753,-0.74441963,-1.7812861,-9.710882,-2.4277205
0.1693231,4.5180583,0.26981354,0.25732806,-0.7433544,-1.6567876,-9.466674,-2.1978772
0.16854131,4.5182076,0.26981354,0.25732806,-0.7433544,-1.6567876,-9.466674,-2.1978772
0.16854131,4.5182076,0.30283675,0.26265436,-0.7476154,-1.6280571,-9.275137,-2.0398598
0.16694276,4.5185814,0.30283675,0.26265436,-0.7476154,-1.6280571,-9.275137,-2.0398598
0.16610616,4.5188003,0.33479467,0.2711765,-0.7550723,-1.4460979,-9.102755,-1.9632454
0.16610616,4.5188003,0.33479467,0.2711765,-0.7550723,-1.4460979,-9.102755,-1.9632454
0.16610616,4.5188003,0.33479467,0.2711765,-0.7550723,-1.4460979,-9.102755,-1.9632454
0.16330634,4.5195503,0.36675262,0.27650282,-0.769986,-1.4077905,-9.021352,-1.8962077
0.16269845,4.5197444,0.3944495,0.27437228,-0.790226,-1.3934253,-8.930372,-1.982399
0.16182664,4.5200233,0.3944495,0.27437228,-0.790226,-1.3934253,-8.930372,-1.982399
0.16093168,4.5203314,0.4210811,0.2615891,-0.81685764,-1.3982137,-8.8777,-1.910573
0.1600422,4.5206385,0.4210811,0.2615891,-0.81685764,-1.3982137,-8.8777,-1.910573
0.15910842,4.52098,0.44558218,0.24561015,-0.8434892,-1.4077905,-8.825027,-1.7860745
0.15818581,4.521318,0.44558218,0.24561015,-0.8434892,-1.4077905,-8.825027,-1.7860745
0.15731765,4.521676,0.46688747,0.22643538,-0.8701208,-1.4508862,-8.748413,-1.7860745
0.15645625,4.5220346,0.46688747,0.22643538,-0.8701208,-1.4508862,-8.748413,-1.7860745
0.1556418,4.52244,0.48499697,0.20406483,-0.89142615,-1.4652514,-8.614338,-1.7190368
0.15482718,4.5228477,0.48499697,0.20406483,-0.89142615,-1.4652514,-8.614338,-1.7190368
0.15403685,4.5233126,0.49778014,0.18062901,-0.9063398,-1.3838485,-8.556877,-1.6472107
0.1532308,4.523775,0.49778014,0.18062901,-0.9063398,-1.3838485,-8.556877,-1.6472107
0.15239313,4.5243587,0.50630224,0.15825845,-0.91592723,-1.364695,-8.461109,-1.5897499
0.15156537,4.524932,0.50630224,0.15825845,-0.91592723,-1.364695,-8.461109,-1.5897499
0.1506703,4.525535,0.5148244,0.1390837,-0.91805774,-1.3120226,-8.42759,-1.541866
0.14980207,4.5261283,0.5148244,0.1390837,-0.91805774,-1.3120226,-8.42759,-1.541866
0.14890721,4.5267553,0.521216,0.11990894,-0.9169925,-1.3120226,-8.441956,-1.532289
0.14800006,4.527399,0.521216,0.11990894,-0.9169925,-1.3120226,-8.441956,-1.532289
0.1470781,4.528037,0.525477,0.10179944,-0.90847033,-1.2641385,-8.418014,-1.4508862
0.14617258,4.5286674,0.525477,0.10179944,-0.90847033,-1.2641385,-8.418014,-1.4508862
0.14526077,4.529309,0.5286728,0.08368994,-0.8924914,-1.2354081,-8.422802,-1.4413095
0.14434375,4.529958,0.5286728,0.08368994,-0.8924914,-1.2354081,-8.422802,-1.4413095
0.14335337,4.5306444,0.5286728,0.06664571,-0.87225133,-1.1923125,-8.48984,-1.4508862
0.14250675,4.5312347,0.5286728,0.06664571,-0.87225133,-1.1923125,-8.48984,-1.4508862
0.14164759,4.531867,0.52760756,0.050666746,-0.84881556,-1.2114661,-8.604761,-1.4317327
0.14077951,4.532509,0.52760756,0.050666746,-0.84881556,-1.2114661,-8.604761,-1.4317327
0.1399207,4.533145,0.525477,0.035753045,-0.81685764,-1.2018893,-8.734048,-1.484405
0.13906592,4.533781,0.525477,0.035753045,-0.81685764,-1.2018893,-8.734048,-1.484405
0.1383724,4.5344024,0.5233465,0.021904606,-0.7817039,-1.3215994,-8.896853,-1.5466543
0.13768902,4.5350175,0.5233465,0.021904606,-0.7817039,-1.3215994,-8.896853,-1.5466543
0.13707721,4.5354958,0.51802015,0.008056169,-0.74015856,-1.3359646,-9.011775,-1.6472107
0.13646297,4.535972,0.51802015,0.008056169,-0.74015856,-1.3359646,-9.011775,-1.6472107
0.13585232,4.5364113,0.5084328,-0.0047270046,-0.6964827,-1.3503298,-9.112331,-1.7142484
0.1352432,4.536851,0.5084328,-0.0047270046,-0.6964827,-1.3503298,-9.112331,-1.7142484
0.13469143,4.53728,0.49351907,-0.017510178,-0.6496111,-1.4221559,-9.160215,-1.7717092
0.13413991,4.5377097,0.49351907,-0.017510178,-0.6496111,-1.4221559,-9.160215,-1.7717092
0.13364518,4.538126,0.47647485,-0.029228088,-0.59954363,-1.4748282,-9.222465,-1.8052281
0.13315095,4.538542,0.47647485,-0.029228088,-0.59954363,-1.4748282,-9.222465,-1.8052281
0.13271783,4.5389433,0.4573001,-0.03988073,-0.5473457,-1.5945383,-9.212888,-1.8674773
0.13228449,4.539345,0.4573001,-0.03988073,-0.5473457,-1.5945383,-9.212888,-1.8674773
0.13190839,4.5397253,0.43492955,-0.048402846,-0.49408248,-1.6807296,-9.208099,-1.910573
0.13153209,4.5401063,0.43492955,-0.048402846,-0.49408248,-1.6807296,-9.208099,-1.910573
0.13120896,4.540463,0.41362426,-0.05692496,-0.43975398,-1.7046716,-9.198523,-1.9393034
0.13088007,4.540826,0.41362426,-0.05692496,-0.43975398,-1.7046716,-9.198523,-1.9393034
0.13060537,4.5411572,0.39231896,-0.06331655,-0.38968655,-1.7046716,-9.184157,-1.958457
0.13033101,4.5414877,0.39231896,-0.06331655,-0.38968655,-1.7046716,-9.184157,-1.958457
0.13009126,4.5417957,0.37207893,-0.06864287,-0.3460107,-1.5993267,-9.160215,-1.9153614
0.12985112,4.5421042,0.37207893,-0.06864287,-0.3460107,-1.5993267,-9.160215,-1.9153614
0.12964667,4.5423927,0.3550347,-0.07183866,-0.3044654,-1.4556746,-9.169792,-1.8100165
0.12944205,4.5426807,0.3550347,-0.07183866,-0.3044654,-1.4556746,-9.169792,-1.8100165
0.12928067,4.542962,0.34118626,-0.07503446,-0.27357274,-1.4652514,-9.155427,-1.7669208
0.12911908,4.5432425,0.34118626,-0.07503446,-0.27357274,-1.4652514,-9.155427,-1.7669208
0.12896608,4.5435023,0.32946837,-0.07290393,-0.24907166,-1.4987702,-9.088389,-1.8626889
0.12881316,4.5437613,0.32946837,-0.07290393,-0.24907166,-1.4987702,-9.088389,-1.8626889
0.12868537,4.544017,0.3220115,-0.06970814,-0.23096216,-1.5131354,-9.054871,-1.8291701
0.12855764,4.5442724,0.3220115,-0.06970814,-0.23096216,-1.5131354,-9.054871,-1.8291701
0.12844354,4.5445256,0.3188157,-0.066512346,-0.21924424,-1.4748282,-9.064447,-1.7812861
0.12832904,4.5447783,0.3188157,-0.066512346,-0.21924424,-1.4748282,-9.064447,-1.7812861
0.12823562,4.545042,0.31668517,-0.06331655,-0.21604845,-1.4987702,-9.064447,-1.7190368
0.12814155,4.5453057,0.31668517,-0.06331655,-0.21604845,-1.4987702,-9.064447,-1.7190368
0.1280413,4.5455637,0.31561992,-0.059055492,-0.21711372,-1.4413095,-9.088389,-1.6998832
0.12794037,4.545821,0.31561992,-0.059055492,-0.21711372,-1.4413095,-9.088389,-1.6998832
0.12783542,4.54608,0.31561992,-0.05372917,-0.22244005,-1.4221559,-9.169792,-1.685518
0.12772985,4.546339,0.31561992,-0.05372917,-0.22244005,-1.4221559,-9.169792,-1.685518
0.12760162,4.546585,0.31242412,-0.04946811,-0.23202743,-1.4460979,-9.155427,-1.7429788
0.12747328,4.5468307,0.31242412,-0.04946811,-0.23202743,-1.4460979,-9.155427,-1.7429788
0.12734228,4.547076,0.3070978,-0.045207053,-0.2416148,-1.5275006,-9.227253,-1.7764976
0.12720983,4.547323,0.3070978,-0.045207053,-0.2416148,-1.5275006,-9.227253,-1.7764976
0.12706585,4.547556,0.29644516,-0.04201126,-0.25226745,-1.5035586,-9.23683,-1.7669208
0.1269223,4.547787,0.29644516,-0.04201126,-0.25226745,-1.5035586,-9.23683,-1.7669208
0.12676878,4.548006,0.283662,-0.03988073,-0.26078957,-1.5370775,-9.193734,-1.7908629
0.1266149,4.5482244,0.283662,-0.03988073,-0.26078957,-1.5370775,-9.193734,-1.7908629
0.12645596,4.5484314,0.26661775,-0.03881547,-0.27250746,-1.5705963,-9.212888,-1.7812861
0.12629683,4.5486383,0.26661775,-0.03881547,-0.27250746,-1.5705963,-9.212888,-1.7812861
0.12613814,4.548833,0.24531247,-0.03881547,-0.28316012,-1.5993267,-9.179369,-1.7381904
0.12597859,4.5490274,0.24531247,-0.03881547,-0.28316012,-1.5993267,-9.179369,-1.7381904
0.12581855,4.5492096,0.22187665,-0.03881547,-0.29381275,-1.6280571,-9.088389,-1.685518
0.12565804,4.5493913,0.22187665,-0.03881547,-0.29381275,-1.6280571,-9.088389,-1.685518
0.12548557,4.5495453,0.19950609,-0.036684938,-0.30126962,-1.5753847,-8.968679,-1.6759412
0.12531237,4.549699,0.19950609,-0.036684938,-0.30126962,-1.5753847,-8.968679,-1.6759412
0.12513702,4.5498314,0.175005,-0.03242388,-0.30659592,-1.5610195,-8.987833,-1.6519991
0.124960996,4.5499644,0.175005,-0.03242388,-0.30659592,-1.5610195,-8.987833,-1.6519991
0.12477442,4.550071,0.15369973,-0.029228088,-0.3140528,-1.4939818,-8.882488,-1.6280571
0.12458687,4.550178,0.15369973,-0.029228088,-0.3140528,-1.4939818,-8.882488,-1.6280571
0.12438952,4.55026,0.13559023,-0.023901764,-0.31724858,-1.436521,-8.916007,-1.6280571
0.12419224,4.5503426,0.13559023,-0.023901764,-0.31724858,-1.436521,-8.916007,-1.6280571
0.12396692,4.5503907,0.12174179,-0.017510178,-0.31831384,-1.3838485,-8.882488,-1.6950948
0.123741105,4.55044,0.12174179,-0.017510178,-0.31831384,-1.3838485,-8.882488,-1.6950948
0.12350783,4.5504704,0.11002388,-0.011118591,-0.3140528,-1.340753,-8.963891,-1.7046716
0.1232742,4.550502,0.11002388,-0.011118591,-0.3140528,-1.340753,-8.963891,-1.7046716
0.12303705,4.5505195,0.1004365,-0.005792269,-0.3097917,-1.2976574,-8.99741,-1.685518
0.12280064,4.550537,0.1004365,-0.005792269,-0.3097917,-1.2976574,-8.99741,-1.685518
0.12258239,4.550553,0.09297965,0.0005993177,-0.3044654,-1.316811,-9.030929,-1.661576
0.122363396,4.550569,0.09297965,0.0005993177,-0.3044654,-1.316811,-9.030929,-1.661576
0.12220036,4.550624,0.087653324,0.0069909045,-0.29700854,-1.3215994,-9.045294,-1.532289
0.12203662,4.5506787,0.087653324,0.0069909045,-0.29700854,-1.3215994,-9.045294,-1.532289
0.121889286,4.550736,0.08445753,0.011251962,-0.28316012,-1.340753,-9.126697,-1.5370775
0.12174191,4.550793,0.08445753,0.011251962,-0.28316012,-1.340753,-9.126697,-1.5370775
0.121617645,4.5508738,0.08126174,0.017643549,-0.26505062,-1.2880806,-9.141062,-1.4939818
0.1214929,4.550954,0.08126174,0.017643549,-0.26505062,-1.2880806,-9.141062,-1.4939818
0.12136388,4.551088,0.07913121,0.022969872,-0.24587587,-1.3359646,-9.260772,-1.4221559
0.12123565,4.551221,0.07913121,0.022969872,-0.24587587,-1.3359646,-9.260772,-1.4221559
0.12114915,4.551286,0.075935416,0.026165664,-0.2235053,-1.3503298,-9.284714,-1.5275006
0.121064134,4.5513506,0.075935416,0.026165664,-0.2235053,-1.3503298,-9.284714,-1.5275006
0.120981164,4.5514746,0.07167436,0.028296193,-0.19900422,-1.3503298,-9.356541,-1.4317327
0.12089857,4.551598,0.07167436,0.028296193,-0.19900422,-1.3503298,-9.356541,-1.4317327
0.12082861,4.551728,0.06634804,0.029361458,-0.17343788,-1.364695,-9.481039,-1.4173675
0.12075915,4.5518575,0.06634804,0.029361458,-0.17343788,-1.364695,-9.481039,-1.4173675
0.1207236,4.5519753,0.061021715,0.028296193,-0.145741,-1.4173675,-9.572019,-1.4269443
0.12068854,4.552092,0.061021715,0.028296193,-0.145741,-1.4173675,-9.572019,-1.4269443
0.12065971,4.5522194,0.05356486,0.026165664,-0.11697886,-1.4077905,-9.572019,-1.3551182
0.1206313,4.552346,0.05356486,0.026165664,-0.11697886,-1.4077905,-9.572019,-1.3551182
0.12061246,4.552477,0.047173277,0.024035135,-0.08715145,-1.4077905,-9.68694,-1.2976574
0.12059386,4.5526075,0.047173277,0.024035135,-0.08715145,-1.4077905,-9.68694,-1.2976574
0.12059962,4.552734,0.041846953,0.021904606,-0.059454583,-1.3982137,-9.696517,-1.292869
0.12060559,4.5528603,0.041846953,0.021904606,-0.059454583,-1.3982137,-9.696517,-1.292869
0.120637454,4.5529814,0.03652063,0.017643549,-0.033888236,-1.4030021,-9.706094,-1.2880806
0.1206694,4.5531025,0.03652063,0.017643549,-0.033888236,-1.4030021,-9.706094,-1.2880806
0.12074103,4.553213,0.034390103,0.014447756,-0.01151768,-1.3790601,-9.682152,-1.3790601
0.120812766,4.553324,0.034390103,0.014447756,-0.01151768,-1.3790601,-9.682152,-1.3790601
0.12089303,4.553439,0.034390103,0.012317227,0.005526551,-1.3551182,-9.653421,-1.364695
0.12100108,4.5535936,0.034390103,0.012317227,0.005526551,-1.3551182,-9.653421,-1.364695
0.1210953,4.553664,0.03545537,0.008056169,0.021505518,-1.3503298,-9.643845,-1.4508862
0.12121687,4.553755,0.03545537,0.008056169,0.021505518,-1.3503298,-9.643845,-1.4508862
0.12136183,4.5538406,0.03652063,0.0048603755,0.032158162,-1.3790601,-9.682152,-1.4652514
0.12150994,4.553929,0.03652063,0.0048603755,0.032158162,-1.3790601,-9.682152,-1.4652514
0.12168701,4.553968,0.041846953,0.0027298466,0.03854975,-1.3120226,-9.610326,-1.5370775
0.12186501,4.5540066,0.041846953,0.0027298466,0.03854975,-1.3120226,-9.610326,-1.5370775
0.12198822,4.5541315,0.04823854,-0.00046594674,0.037484486,-1.3024458,-9.672575,-1.4508862
0.12211196,4.5542574,0.04823854,-0.00046594674,0.037484486,-1.3024458,-9.672575,-1.4508862
0.12226338,4.5543633,0.054630127,-0.0025964756,0.033223428,-1.316811,-9.615114,-1.4796166
0.12241577,4.5544696,0.054630127,-0.0025964756,0.033223428,-1.316811,-9.615114,-1.4796166
0.12252859,4.554611,0.06315224,-0.0047270046,0.027897105,-1.3215994,-9.677363,-1.4317327
0.1226418,4.554753,0.06315224,-0.0047270046,0.027897105,-1.3215994,-9.677363,-1.4317327
0.12272297,4.5549116,0.07060909,-0.00366174,0.01724446,-1.292869,-9.677363,-1.4173675
0.12280461,4.555071,0.07060909,-0.00366174,0.01724446,-1.292869,-9.677363,-1.4173675
0.12287815,4.5552363,0.08019647,-0.0025964756,0.0023307577,-1.340753,-9.662998,-1.3694834
0.122952044,4.5554023,0.08019647,-0.0025964756,0.0023307577,-1.340753,-9.662998,-1.3694834
0.12305997,4.5555444,0.09084912,-0.00046594674,-0.01151768,-1.3263878,-9.619903,-1.4700398
0.12316866,4.5556855,0.09084912,-0.00046594674,-0.01151768,-1.3263878,-9.619903,-1.4700398
0.123198375,4.555877,0.10150176,0.0016645822,-0.028561912,-1.316811,-9.653421,-1.3551182
0.123228654,4.5560694,0.10150176,0.0016645822,-0.028561912,-1.316811,-9.653421,-1.3551182
0.12322356,4.5562763,0.11215441,0.0027298466,-0.04773667,-1.2737153,-9.653421,-1.3742718
0.123219,4.556484,0.11215441,0.0027298466,-0.04773667,-1.2737153,-9.653421,-1.3742718
0.123219,4.556484,0.11215441,0.0027298466,-0.04773667,-1.2737153,-9.653421,-1.3742718
0.123219,4.556484,0.11215441,0.0027298466,-0.04773667,-1.2737153,-9.653421,-1.3742718
0.123219,4.556484,0.13452496,0.0005993177,-0.08715145,-1.2737153,-9.672575,-1.3551182
0.123018086,4.557444,0.13452496,0.0005993177,-0.08715145,-1.2737153,-9.672575,-1.3551182
0.122912884,4.557662,0.14198181,-0.0015312112,-0.10313042,-1.1923125,-9.65821,-1.4173675
0.12279619,4.5579057,0.14198181,-0.0015312112,-0.10313042,-1.1923125,-9.65821,-1.4173675
0.1227699,4.5581255,0.14943866,-0.0025964756,-0.120174654,-1.2545617,-9.682152,-1.4700398
0.12274603,4.5583496,0.14943866,-0.0025964756,-0.120174654,-1.2545617,-9.682152,-1.4700398
0.12261365,4.5586066,0.15369973,-0.0025964756,-0.1340231,-1.2066777,-9.682152,-1.4030021
0.12261365,4.5586066,0.15369973,-0.0025964756,-0.1340231,-1.2066777,-9.682152,-1.4030021
0.12237735,4.5591154,0.15583025,-0.00366174,-0.145741,-1.2497733,-9.639056,-1.4413095
0.12231784,4.559355,0.15583025,-0.00366174,-0.145741,-1.2497733,-9.639056,-1.4413095
0.12221174,4.5596056,0.15583025,-0.00366174,-0.15639365,-1.2306197,-9.605537,-1.4077905
0.12210821,4.5598564,0.15583025,-0.00366174,-0.15639365,-1.2306197,-9.605537,-1.4077905
0.12199224,4.560107,0.15369973,-0.00366174,-0.16598102,-1.2258313,-9.615114,-1.412579
0.12187796,4.56036,0.15369973,-0.00366174,-0.16598102,-1.2258313,-9.615114,-1.412579
0.12158178,4.5605507,0.15156919,-0.0015312112,-0.17130736,-1.1300632,-9.576807,-1.4508862
0.12127834,4.560744,0.15156919,-0.0015312112,-0.17130736,-1.1300632,-9.576807,-1.4508862
0.121024065,4.560817,0.14943866,0.0005993177,-0.17343788,-1.1731589,-9.610326,-1.4796166
0.12077888,4.5608835,0.14943866,0.0005993177,-0.17343788,-1.1731589,-9.610326,-1.4796166
0.12062457,4.5609307,0.1451776,0.0027298466,-0.17450315,-1.1827357,-9.581595,-1.4987702
0.120471515,4.56098,0.1451776,0.0027298466,-0.17450315,-1.1827357,-9.581595,-1.4987702
0.120278604,4.5610204,0.13772075,0.00592564,-0.17663367,-1.163582,-9.591172,-1.532289
0.120088354,4.561061,0.13772075,0.00592564,-0.17663367,-1.163582,-9.591172,-1.532289
0.11992974,4.561094,0.13132916,0.010186698,-0.17450315,-1.1971009,-9.629479,-1.5945383
0.1197723,4.561127,0.13132916,0.010186698,-0.17450315,-1.1971009,-9.629479,-1.5945383
0.11956917,4.5611544,0.12387232,0.01551302,-0.17237261,-1.1444284,-9.615114,-1.5562311
0.11936887,4.561181,0.12387232,0.01551302,-0.17237261,-1.1444284,-9.615114,-1.5562311
0.11920705,4.5611963,0.1153502,0.019774077,-0.17024209,-1.1779473,-9.562442,-1.6184803
0.11904565,4.561212,0.1153502,0.019774077,-0.17024209,-1.1779473,-9.562442,-1.6184803
0.11887765,4.561217,0.105762824,0.026165664,-0.16491576,-1.1587936,-9.56723,-1.6089035
0.118710935,4.5612216,0.105762824,0.026165664,-0.16491576,-1.1587936,-9.56723,-1.6089035
0.11852163,4.561216,0.09404491,0.033622514,-0.16065471,-1.1252748,-9.519346,-1.5466543
0.11833393,4.56121,0.09404491,0.033622514,-0.16065471,-1.1252748,-9.519346,-1.5466543
0.118142344,4.5611925,0.082327,0.038948838,-0.15852417,-1.1109096,-9.485827,-1.5514427
0.11795191,4.561175,0.082327,0.038948838,-0.15852417,-1.1109096,-9.485827,-1.5514427
0.11771127,4.5611606,0.07060909,0.045340426,-0.15639365,-1.0582372,-9.481039,-1.5275006
0.117472194,4.5611453,0.07060909,0.045340426,-0.15639365,-1.0582372,-9.481039,-1.5275006
0.117342405,4.5611014,0.05782592,0.052797277,-0.15426312,-1.13964,-9.361329,-1.4939818
0.11721424,4.5610576,0.05782592,0.052797277,-0.15426312,-1.13964,-9.361329,-1.4939818
0.117144324,4.5610228,0.047173277,0.062384658,-0.15213259,-1.163582,-9.385271,-1.4700398
0.11707581,4.560988,0.047173277,0.062384658,-0.15213259,-1.163582,-9.385271,-1.4700398
0.11695124,4.560922,0.037585896,0.07090677,-0.15000206,-1.1444284,-9.289502,-1.5227122
0.116828114,4.5608563,0.037585896,0.07090677,-0.15000206,-1.1444284,-9.289502,-1.5227122
0.11653091,4.560871,0.027998514,0.0762331,-0.14787152,-1.067814,-9.270349,-1.4173675
0.11623397,4.5608835,0.027998514,0.0762331,-0.14787152,-1.067814,-9.270349,-1.4173675
0.11599412,4.560976,0.017345872,0.08262468,-0.14787152,-1.0726024,-9.275137,-1.3934253
0.11575766,4.5610704,0.017345872,0.08262468,-0.14787152,-1.0726024,-9.275137,-1.3934253
0.11550065,4.561145,0.0077584907,0.087951005,-0.15000206,-1.0103531,-9.313444,-1.3551182
0.115245074,4.5612197,0.0077584907,0.087951005,-0.15000206,-1.0103531,-9.313444,-1.3551182
0.115005806,4.561293,-0.0018288894,0.09434259,-0.1489368,-0.9672575,-9.289502,-1.2880806
0.11476777,4.561367,-0.0018288894,0.09434259,-0.1489368,-0.9672575,-9.289502,-1.2880806
0.11456145,4.5614424,-0.010351005,0.100734174,-0.14680627,-1.0103531,-9.361329,-1.2641385
0.11435597,4.5615177,-0.010351005,0.100734174,-0.14680627,-1.0103531,-9.361329,-1.2641385
0.11412396,4.5615773,-0.018873122,0.104995236,-0.15000206,-0.9768343,-9.375694,-1.283292
0.113893,4.561637,-0.018873122,0.104995236,-0.15000206,-0.9768343,-9.375694,-1.283292
0.113675505,4.5616918,-0.0284605,0.10819103,-0.15106732,-0.9768343,-9.433155,-1.2354081
0.113458514,4.5617466,-0.0284605,0.10819103,-0.15106732,-0.9768343,-9.433155,-1.2354081
0.11325541,4.5617957,-0.03698262,0.11138682,-0.15106732,-1.0055647,-9.41879,-1.2306197
0.11305291,4.561846,-0.03698262,0.11138682,-0.15106732,-1.0055647,-9.41879,-1.2306197
0.11282086,4.561879,-0.04443947,0.11138682,-0.15000206,-0.9528923,-9.437943,-1.2641385
0.112589866,4.5619125,-0.04443947,0.11138682,-0.15000206,-0.9528923,-9.437943,-1.2641385
0.1123672,4.561942,-0.050831053,0.11032156,-0.14680627,-0.9768343,-9.457097,-1.283292
0.11214551,4.561972,-0.050831053,0.11032156,-0.14680627,-0.9768343,-9.457097,-1.283292
0.11193922,4.5620003,-0.056157377,0.10925629,-0.14467573,-1.0007763,-9.481039,-1.283292
0.11173395,4.5620294,-0.056157377,0.10925629,-0.14467573,-1.0007763,-9.481039,-1.283292
0.11152364,4.5620527,-0.05935317,0.10819103,-0.14147994,-0.94810385,-9.44752,-1.2258313
0.11131444,4.5620756,-0.05935317,0.10819103,-0.14147994,-0.94810385,-9.44752,-1.2258313
0.11112923,4.5621014,-0.0614837,0.1060605,-0.13615362,-0.9720459,-9.457097,-1.1731589
0.11094506,4.562127,-0.0614837,0.1060605,-0.13615362,-0.9720459,-9.457097,-1.1731589
0.11077176,4.5621524,-0.06361423,0.10179944,-0.13295783,-0.9816227,-9.423578,-1.1492168
0.11059911,4.562177,-0.06361423,0.10179944,-0.13295783,-0.9816227,-9.423578,-1.1492168
0.11041871,4.562199,-0.06574476,0.09647312,-0.1308273,-0.94810385,-9.44752,-1.1444284
0.11023926,4.5622215,-0.06574476,0.09647312,-0.1308273,-0.94810385,-9.44752,-1.1444284
0.11004752,4.56224,-0.06574476,0.0911468,-0.1276315,-0.89543146,-9.44752,-1.1492168
0.10985605,4.5622587,-0.06574476,0.0911468,-0.1276315,-0.89543146,-9.44752,-1.1492168
0.1096878,4.562286,-0.062548965,0.086885735,-0.12656625,-0.93373865,-9.476251,-1.0582372
0.10946362,4.5623217,-0.062548965,0.086885735,-0.12656625,-0.93373865,-9.476251,-1.0582372
0.10931787,4.5623455,-0.05935317,0.08368994,-0.123370446,-0.8858546,-9.543288,-1.043872
0.109163895,4.5623713,-0.05935317,0.08368994,-0.123370446,-0.8858546,-9.543288,-1.043872
0.109008044,4.5624046,-0.05509211,0.08049415,-0.11804412,-0.92416185,-9.533711,-1.0630256
0.10885022,4.562439,-0.05509211,0.08049415,-0.11804412,-0.92416185,-9.533711,-1.0630256
0.10867972,4.562476,-0.050831053,0.07729836,-0.11697886,-0.90021986,-9.56723,-1.115698
0.10850941,4.5625134,-0.050831053,0.07729836,-0.11697886,-0.90021986,-9.56723,-1.115698
0.10835035,4.5625563,-0.046569996,0.07516783,-0.11484833,-0.93852705,-9.624691,-1.1300632
0.1081913,4.5626,-0.046569996,0.07516783,-0.11484833,-0.93852705,-9.624691,-1.1300632
0.10802915,4.5626493,-0.04017841,0.074102566,-0.11271781,-0.9528923,-9.56723,-1.2162545
0.10786731,4.562699,-0.04017841,0.074102566,-0.11271781,-0.9528923,-9.56723,-1.2162545
0.10771655,4.5627556,-0.034852087,0.069841504,-0.11165254,-0.9816227,-9.533711,-1.2449849
0.10756655,4.562813,-0.034852087,0.069841504,-0.11165254,-0.9816227,-9.533711,-1.2449849
0.10736114,4.562854,-0.031656295,0.06344992,-0.108456746,-0.91937345,-9.524135,-1.3311762
0.10715625,4.562895,-0.031656295,0.06344992,-0.108456746,-0.91937345,-9.524135,-1.3311762
0.10693335,4.5629263,-0.029525764,0.05599307,-0.108456746,-0.92416185,-9.433155,-1.3599066
0.10671134,4.562958,-0.029525764,0.05599307,-0.108456746,-0.92416185,-9.433155,-1.3599066
0.10649742,4.5629997,-0.026329972,0.049601484,-0.10952201,-0.92416185,-9.380483,-1.3455414
0.106284685,4.563042,-0.026329972,0.049601484,-0.10952201,-0.92416185,-9.380483,-1.3455414
0.10605111,4.563074,-0.022068914,0.043209895,-0.11271781,-0.8714894,-9.356541,-1.340753
0.10581794,4.5631065,-0.022068914,0.043209895,-0.11271781,-0.8714894,-9.356541,-1.340753
0.10559881,4.563158,-0.01674259,0.03681831,-0.11484833,-0.8619126,-9.346964,-1.3072342
0.10538019,4.5632095,-0.01674259,0.03681831,-0.11484833,-0.8619126,-9.346964,-1.3072342
0.10517772,4.563279,-0.0114162695,0.030426722,-0.11910939,-0.8762778,-9.303867,-1.2785037
0.104975805,4.563349,-0.0114162695,0.030426722,-0.11910939,-0.8762778,-9.303867,-1.2785037
0.10478582,4.563432,-0.0050246827,0.0251004,-0.123370446,-0.91458505,-9.289502,-1.292869
0.10459673,4.5635157,-0.0050246827,0.0251004,-0.123370446,-0.91458505,-9.289502,-1.292869
0.10435987,4.5635786,0.00030163955,0.020839343,-0.12550098,-0.8523358,-9.227253,-1.3120226
0.10412341,4.5636415,0.00030163955,0.020839343,-0.12550098,-0.8523358,-9.227253,-1.3120226
0.103883214,4.563712,0.0077584907,0.016578285,-0.12976204,-0.8762778,-9.332599,-1.3359646
0.10364351,4.5637836,0.0077584907,0.016578285,-0.12976204,-0.8762778,-9.332599,-1.3359646
0.10338078,4.563836,0.013084813,0.011251962,-0.13295783,-0.91458505,-9.346964,-1.3790601
0.10311849,4.563889,0.013084813,0.011251962,-0.13295783,-0.91458505,-9.346964,-1.3790601
0.102875546,4.563973,0.018411135,0.0048603755,-0.13508835,-0.9720459,-9.385271,-1.3982137
0.10263811,4.564061,0.018411135,0.0048603755,-0.13508835,-0.9720459,-9.385271,-1.3982137
0.10248893,4.5641866,0.023737457,0.0005993177,-0.13508835,-0.9768343,-9.428367,-1.3790601
0.10234418,4.564312,0.023737457,0.0005993177,-0.13508835,-0.9768343,-9.428367,-1.3790601
0.10209122,4.564392,0.02906378,-0.0025964756,-0.13189256,-0.94810385,-9.509769,-1.4030021
0.101838745,4.5644727,0.02906378,-0.0025964756,-0.13189256,-0.94810385,-9.509769,-1.4030021
0.10159913,4.5645695,0.033324838,-0.0068575335,-0.12976204,-0.9576807,-9.605537,-1.412579
0.10136069,4.5646667,0.033324838,-0.0068575335,-0.12976204,-0.9576807,-9.605537,-1.412579
0.10114516,4.5647817,0.03652063,-0.010053327,-0.12550098,-0.9528923,-9.629479,-1.4030021
