Pitch,Roll,Gyro_X,Gyro_Y,Gyro_Z,Accel_X,Accel_Y,Accel_Z
0.47564387,4.856121,-0.027395237,-0.106992394,-0.05412826,-4.295198,-8.48984,1.0965444
0.47530812,4.856046,-0.026329972,-0.110188186,-0.04773667,-4.247314,-8.48984,1.2114661
0.4751068,4.8560553,-0.026329972,-0.110188186,-0.04773667,-4.247314,-8.48984,1.2114661
0.474953,4.8561573,-0.0284605,-0.11125345,-0.043475613,-4.189853,-8.465898,1.3694834
0.47479898,4.856261,-0.0284605,-0.11125345,-0.043475613,-4.189853,-8.465898,1.3694834
0.47464862,4.8563604,-0.0284605,-0.110188186,-0.037084028,-4.156334,-8.461109,1.3790601
0.47449797,4.856461,-0.0284605,-0.110188186,-0.037084028,-4.156334,-8.461109,1.3790601
0.47433403,4.856535,-0.03059103,-0.108057655,-0.028561912,-4.0940847,-8.39886,1.3120226
0.47416985,4.856609,-0.03059103,-0.108057655,-0.028561912,-4.0940847,-8.39886,1.3120226
0.47401825,4.856685,-0.032721557,-0.10273133,-0.022170324,-4.132392,-8.394072,1.3120226
0.4738666,4.856762,-0.032721557,-0.10273133,-0.022170324,-4.132392,-8.394072,1.3120226
0.47372204,4.8568316,-0.033786822,-0.09633975,-0.013648209,-4.146757,-8.42759,1.3120226
0.47357744,4.8569016,-0.033786822,-0.09633975,-0.013648209,-4.146757,-8.42759,1.3120226
0.47342023,4.8569255,-0.034852087,-0.09207869,-0.006191358,-4.223372,-8.446744,1.2401965
0.47326264,4.856949,-0.034852087,-0.09207869,-0.006191358,-4.223372,-8.446744,1.2401965
0.4731101,4.856955,-0.03804788,-0.08994816,0.00020022877,-4.1802764,-8.465898,1.2306197
0.47295797,4.8569613,-0.03804788,-0.08994816,0.00020022877,-4.1802764,-8.465898,1.2306197
0.47281384,4.8569736,-0.04017841,-0.08781763,0.00765708,-4.232949,-8.499416,1.2449849
0.47267008,4.8569865,-0.04017841,-0.08781763,0.00765708,-4.232949,-8.499416,1.2449849
0.4725472,4.857028,-0.043374203,-0.0856871,0.01724446,-4.175488,-8.499416,1.292869
0.47242388,4.857069,-0.043374203,-0.0856871,0.01724446,-4.175488,-8.499416,1.292869
0.47230163,4.8570814,-0.045504734,-0.08462184,0.027897105,-4.1180267,-8.552089,1.2689269
0.4721794,4.8570943,-0.045504734,-0.08462184,0.027897105,-4.1180267,-8.552089,1.2689269
0.47207707,4.8571315,-0.04763526,-0.08249131,0.037484486,-4.074931,-8.508993,1.3215994
0.4719749,4.857168,-0.04763526,-0.08249131,0.037484486,-4.074931,-8.508993,1.3215994
0.4718773,4.857193,-0.04763526,-0.08036078,0.047071867,-4.0557775,-8.542512,1.3072342
0.4717791,4.8572187,-0.04763526,-0.08036078,0.047071867,-4.0557775,-8.542512,1.3072342
0.47168398,4.8572297,-0.04763526,-0.077164985,0.05346345,-4.0557775,-8.566454,1.283292
0.47158888,4.857241,-0.04763526,-0.077164985,0.05346345,-4.0557775,-8.566454,1.283292
0.47149682,4.857237,-0.049765788,-0.07503446,0.058789775,-4.060566,-8.614338,1.2641385
0.47140512,4.857233,-0.049765788,-0.07503446,0.058789775,-4.060566,-8.614338,1.2641385
0.47132012,4.857238,-0.05189632,-0.07183866,0.06305083,-4.050989,-8.614338,1.292869
0.47123504,4.8572426,-0.05189632,-0.07183866,0.06305083,-4.050989,-8.614338,1.292869
0.47117352,4.8572817,-0.052961584,-0.06864287,0.06837715,-4.0892963,-8.647857,1.3934253
0.47111192,4.8573213,-0.052961584,-0.06864287,0.06837715,-4.0892963,-8.647857,1.3934253
0.47111192,4.8573213,-0.052961584,-0.06864287,0.06837715,-4.0892963,-8.647857,1.3934253
0.4709588,4.857297,-0.052961584,-0.06544708,0.07476874,-4.1036615,-8.6574335,1.2689269
0.4708973,4.8573003,-0.05402685,-0.062251285,0.08329086,-4.098873,-8.662222,1.3072342
0.47083488,4.857304,-0.05402685,-0.062251285,0.08329086,-4.098873,-8.662222,1.3072342
0.47083488,4.857304,-0.05402685,-0.062251285,0.08329086,-4.098873,-8.662222,1.3072342
0.47074148,4.8573456,-0.05402685,-0.057990227,0.09074771,-4.0797195,-8.671799,1.3599066
0.47074148,4.8573456,-0.05402685,-0.057990227,0.09074771,-4.0797195,-8.671799,1.3599066
0.47070023,4.857371,-0.05402685,-0.0558597,0.10033509,-4.074931,-8.6813755,1.3694834
0.47064352,4.857412,-0.05402685,-0.052663904,0.1088572,-4.027047,-8.6334915,1.3742718
0.47064352,4.857412,-0.05402685,-0.052663904,0.1088572,-4.027047,-8.6334915,1.3742718
0.47060055,4.8574605,-0.05402685,-0.048402846,0.11631405,-4.050989,-8.63828,1.388637
0.4705864,4.8574877,-0.05402685,-0.048402846,0.11631405,-4.050989,-8.63828,1.388637
0.47057566,4.857506,-0.05402685,-0.044141788,0.12377091,-4.012682,-8.6334915,1.3742718
0.470565,4.8575244,-0.05402685,-0.044141788,0.12377091,-4.012682,-8.6334915,1.3742718
0.47054756,4.8575077,-0.05509211,-0.03988073,0.12803197,-3.9983168,-8.590396,1.2785037
0.47053003,4.8574915,-0.05509211,-0.03988073,0.12803197,-3.9983168,-8.590396,1.2785037
0.4705193,4.857479,-0.056157377,-0.037750203,0.13335828,-3.916914,-8.585608,1.2976574
0.4705087,4.8574667,-0.056157377,-0.037750203,0.13335828,-3.916914,-8.585608,1.2976574
0.47051492,4.8574843,-0.057222642,-0.033489145,0.13442355,-3.9552212,-8.552089,1.3934253
0.47052103,4.8575025,-0.057222642,-0.033489145,0.13442355,-3.9552212,-8.552089,1.3934253
0.47051018,4.857482,-0.05935317,-0.030293351,0.13229302,-3.940856,-8.532935,1.283292
0.4704992,4.857462,-0.05935317,-0.030293351,0.13229302,-3.940856,-8.532935,1.283292
0.4704863,4.857432,-0.0614837,-0.028162822,0.13122776,-3.9456444,-8.566454,1.2737153
0.47047362,4.857403,-0.0614837,-0.028162822,0.13122776,-3.9456444,-8.566454,1.2737153
0.47046295,4.8573775,-0.06467949,-0.027097559,0.13122776,-3.9217024,-8.5473,1.292869
0.470452,4.8573523,-0.06467949,-0.027097559,0.13122776,-3.9217024,-8.5473,1.292869
0.47045088,4.8573503,-0.06681002,-0.026032293,0.13016249,-3.9456444,-8.5473,1.3694834
0.47044986,4.8573475,-0.06681002,-0.026032293,0.13016249,-3.9456444,-8.5473,1.3694834
0.47044483,4.857338,-0.07000581,-0.02496703,0.12803197,-3.9360676,-8.566454,1.364695
0.47043976,4.8573284,-0.07000581,-0.02496703,0.12803197,-3.9360676,-8.566454,1.364695
0.47042733,4.8573027,-0.07320161,-0.0228365,0.12590143,-3.9695864,-8.508993,1.3072342
0.47041517,4.857277,-0.07320161,-0.0228365,0.12590143,-3.9695864,-8.508993,1.3072342
0.47040436,4.857253,-0.075332135,-0.020705972,0.12483617,-3.9456444,-8.48984,1.3215994
0.47039333,4.8572288,-0.075332135,-0.020705972,0.12483617,-3.9456444,-8.48984,1.3215994
0.47039318,4.8572187,-0.077462666,-0.018575443,0.12590143,-3.9935284,-8.461109,1.3503298
0.47039303,4.8572087,-0.077462666,-0.018575443,0.12590143,-3.9935284,-8.461109,1.3503298
0.47038385,4.857177,-0.0795932,-0.016444914,0.1269667,-4.0701427,-8.413225,1.2737153
0.4703747,4.8571453,-0.0795932,-0.016444914,0.1269667,-4.0701427,-8.413225,1.2737153
0.47038922,4.8571415,-0.08172372,-0.01324912,0.12909722,-4.036624,-8.451532,1.3742718
0.47040373,4.8571386,-0.08172372,-0.01324912,0.12909722,-4.036624,-8.451532,1.3742718
0.4704093,4.8571105,-0.08385425,-0.010053327,0.13548881,-4.0078936,-8.422802,1.3120226
0.4704148,4.857083,-0.08385425,-0.010053327,0.13548881,-4.0078936,-8.422802,1.3120226
0.4704176,4.857027,-0.08385425,-0.0047270046,0.14188041,-4.003105,-8.432379,1.2593501
0.47042018,4.856972,-0.08385425,-0.0047270046,0.14188041,-4.003105,-8.432379,1.2593501
0.47042444,4.856885,-0.08491952,0.0016645822,0.1450762,-3.9839516,-8.499416,1.2114661
0.47042868,4.856798,-0.08491952,0.0016645822,0.1450762,-3.9839516,-8.499416,1.2114661
0.47043663,4.8567305,-0.08811531,0.010186698,0.1450762,-3.9312792,-8.542512,1.283292
0.47044456,4.8566637,-0.08811531,0.010186698,0.1450762,-3.9312792,-8.542512,1.283292
0.47044784,4.856579,-0.091311105,0.019774077,0.14081514,-3.9217024,-8.585608,1.2641385
0.47045127,4.856494,-0.091311105,0.019774077,0.14081514,-3.9217024,-8.585608,1.2641385
0.4704479,4.856389,-0.093441635,0.030426722,0.13335828,-3.916914,-8.66701,1.2401965
0.47044453,4.856284,-0.093441635,0.030426722,0.13335828,-3.916914,-8.66701,1.2401965
0.47043324,4.8561516,-0.0945069,0.04107937,0.12164038,-3.964798,-8.767567,1.1875241
0.47043324,4.8561516,-0.0945069,0.04107937,0.12164038,-3.964798,-8.767567,1.1875241
0.4703992,4.8558993,-0.0945069,0.046405688,0.10779194,-4.027047,-8.825027,1.2593501
0.4703729,4.8557844,-0.0945069,0.046405688,0.10779194,-4.027047,-8.825027,1.2593501
0.47033376,4.855644,-0.0945069,0.050666746,0.09181297,-4.050989,-8.882488,1.2018893
0.4702936,4.855501,-0.0945069,0.050666746,0.09181297,-4.050989,-8.882488,1.2018893
0.4702396,4.8553553,-0.093441635,0.04853622,0.07476874,-4.0462008,-8.930372,1.1779473
0.4701853,4.8552094,-0.093441635,0.04853622,0.07476874,-4.0462008,-8.930372,1.1779473
0.47011602,4.855068,-0.09024584,0.045340426,0.0609203,-4.1036615,-8.901642,1.1923125
0.4700469,4.854928,-0.09024584,0.045340426,0.0609203,-4.1036615,-8.901642,1.1923125
0.46997446,4.854772,-0.08705004,0.038948838,0.049202394,-4.060566,-8.882488,1.1109096
0.46990183,4.854616,-0.08705004,0.038948838,0.049202394,-4.060566,-8.882488,1.1109096
0.46980515,4.8544965,-0.08385425,0.031491987,0.037484486,-4.098873,-8.872911,1.2114661
0.46970826,4.8543773,-0.08385425,0.031491987,0.037484486,-4.098873,-8.872911,1.2114661
0.46959966,4.8542795,-0.08065846,0.026165664,0.027897105,-4.1611223,-8.825027,1.2497733
0.46949148,4.8541827,-0.08065846,0.026165664,0.027897105,-4.1611223,-8.825027,1.2497733
0.46937868,4.8540998,-0.077462666,0.022969872,0.023636047,-4.2664676,-8.781932,1.2593501
0.4692661,4.8540173,-0.077462666,0.022969872,0.023636047,-4.2664676,-8.781932,1.2593501
0.4691578,4.8538985,-0.075332135,0.021904606,0.023636047,-4.295198,-8.662222,1.2066777
0.46904877,4.8537803,-0.075332135,0.021904606,0.023636047,-4.295198,-8.662222,1.2066777
0.4692179,4.853682,-0.075332135,0.024035135,0.027897105,-4.4484267,-8.628703,1.2258313
0.46938738,4.853588,-0.075332135,0.024035135,0.027897105,-4.4484267,-8.628703,1.2258313
0.4695245,4.8534184,-0.07852793,0.031491987,0.03641922,-4.582502,-8.686164,1.1444284
0.46966165,4.8532486,-0.07852793,0.031491987,0.03641922,-4.582502,-8.686164,1.1444284
0.46984974,4.853124,-0.08278899,0.040014103,0.04813713,-4.7979803,-8.767567,1.1971009
0.47003844,4.8529997,-0.08278899,0.040014103,0.04813713,-4.7979803,-8.767567,1.1971009
0.47025016,4.852895,-0.08385425,0.046405688,0.06624663,-4.9799395,-8.872911,1.2497733
0.47046202,4.85279,-0.08385425,0.046405688,0.06624663,-4.9799395,-8.872911,1.2497733
0.4706951,4.8527007,-0.08065846,0.049601484,0.087551914,-5.161899,-8.949526,1.2976574
0.4709286,4.8526115,-0.08065846,0.049601484,0.087551914,-5.161899,-8.949526,1.2976574
0.47118783,4.8525233,-0.076397404,0.046405688,0.11418352,-5.257667,-8.901642,1.2689269
0.4714476,4.852435,-0.076397404,0.046405688,0.11418352,-5.257667,-8.901642,1.2689269
0.4717367,4.852358,-0.07000581,0.04107937,0.1450762,-5.4061074,-8.815451,1.2593501
0.4720262,4.8522806,-0.07000581,0.04107937,0.1450762,-5.4061074,-8.815451,1.2593501
0.4723453,4.8522005,-0.06361423,0.030426722,0.1780994,-5.4779334,-8.748413,1.1540052
0.4726644,4.852121,-0.06361423,0.030426722,0.1780994,-5.4779334,-8.748413,1.1540052
0.47301838,4.852064,-0.060418434,0.016578285,0.21431838,-5.5162406,-8.66701,1.2018893
0.47337323,4.852008,-0.060418434,0.016578285,0.21431838,-5.5162406,-8.66701,1.2018893
0.47376052,4.8519645,-0.057222642,-0.00046594674,0.25053737,-5.4779334,-8.604761,1.1827357
0.47414872,4.851921,-0.057222642,-0.00046594674,0.25053737,-5.4779334,-8.604761,1.1827357
0.47456765,4.851907,-0.052961584,-0.019640706,0.28462583,-5.377377,-8.580819,1.2497733
0.47498652,4.8518925,-0.052961584,-0.019640706,0.28462583,-5.377377,-8.580819,1.2497733
0.47543597,4.8518825,-0.050831053,-0.03988073,0.3187143,-5.2289367,-8.532935,1.1875241
0.47588634,4.8518724,-0.050831053,-0.03988073,0.3187143,-5.2289367,-8.532935,1.1875241
0.47636187,4.851885,-0.050831053,-0.060120758,0.34747645,-5.1140146,-8.513782,1.2258313
0.47683644,4.8518977,-0.050831053,-0.060120758,0.34747645,-5.1140146,-8.513782,1.2258313
0.47733513,4.8518996,-0.049765788,-0.078230254,0.37410805,-5.070919,-8.542512,1.1444284
0.4778327,4.851901,-0.049765788,-0.078230254,0.37410805,-5.070919,-8.542512,1.1444284
0.47835377,4.8519273,-0.048700526,-0.09633975,0.3996744,-5.0278234,-8.470686,1.1779473
0.47887686,4.8519535,-0.048700526,-0.09633975,0.3996744,-5.0278234,-8.470686,1.1779473
0.47941664,4.8519907,-0.048700526,-0.11338398,0.41991442,-4.999093,-8.513782,1.1875241
0.47995526,4.852028,-0.048700526,-0.11338398,0.41991442,-4.999093,-8.513782,1.1875241
0.4805159,4.852071,-0.049765788,-0.12936294,0.44228497,-5.056554,-8.461109,1.1683705
0.48107526,4.8521137,-0.049765788,-0.12936294,0.44228497,-5.056554,-8.461109,1.1683705
0.4816484,4.8521504,-0.048700526,-0.14534192,0.462525,-5.0661306,-8.485051,1.1109096
0.4822237,4.8521867,-0.048700526,-0.14534192,0.462525,-5.0661306,-8.485051,1.1109096
0.4828216,4.8522477,-0.048700526,-0.16025561,0.4870261,-5.1379566,-8.724471,1.2018893
0.48341924,4.852309,-0.048700526,-0.16025561,0.4870261,-5.1379566,-8.724471,1.2018893
0.48403892,4.8524294,-0.050831053,-0.1730388,0.5168535,-5.5401826,-9.188946,1.4652514
0.4846573,4.85255,-0.050831053,-0.1730388,0.5168535,-5.5401826,-9.188946,1.4652514
0.4853136,4.8526516,-0.050831053,-0.1847567,0.5498767,-5.5737014,-8.791509,1.3215994
0.48597243,4.8527546,-0.050831053,-0.1847567,0.5498767,-5.5737014,-8.791509,1.3215994
0.48666698,4.852827,-0.04763526,-0.19434407,0.591422,-6.0142345,-8.590396,1.0007763
0.48736146,4.8528996,-0.04763526,-0.19434407,0.591422,-6.0142345,-8.590396,1.0007763
0.48810378,4.852975,-0.043374203,-0.1996704,0.64361995,-5.913678,-8.561666,0.93852705
0.48884603,4.85305,-0.043374203,-0.1996704,0.64361995,-5.913678,-8.561666,0.93852705
0.48964334,4.8531384,-0.039113145,-0.20925778,0.7011442,-5.755661,-8.580819,0.9720459
0.49043956,4.8532267,-0.039113145,-0.20925778,0.7011442,-5.755661,-8.580819,0.9720459
0.4912977,4.853348,-0.03698262,-0.21671464,0.756538,-5.913678,-8.66701,1.1348516
0.49215755,4.85347,-0.03698262,-0.21671464,0.756538,-5.913678,-8.66701,1.1348516
0.49310648,4.853608,-0.034852087,-0.22417149,0.812997,-6.191406,-8.767567,1.1444284
0.49399218,4.8537383,-0.034852087,-0.22417149,0.812997,-6.191406,-8.767567,1.1444284
0.49495512,4.8538756,-0.033786822,-0.23162833,0.87584764,-6.4068837,-8.848969,1.1013328
0.49592578,4.8540144,-0.033786822,-0.23162833,0.87584764,-6.4068837,-8.848969,1.1013328
0.4969585,4.8541613,-0.032721557,-0.24015045,0.94082874,-6.5601125,-8.911219,1.0630256
0.49799314,4.854308,-0.032721557,-0.24015045,0.94082874,-6.5601125,-8.911219,1.0630256
0.49909195,4.854459,-0.032721557,-0.24973783,1.0090057,-6.7133417,-8.963891,0.9816227
0.5001906,4.85461,-0.032721557,-0.24973783,1.0090057,-6.7133417,-8.963891,0.9816227
0.5013552,4.8547745,-0.029525764,-0.26465154,1.0793132,-6.9048777,-9.150639,0.94331545
0.5025195,4.8549385,-0.029525764,-0.26465154,1.0793132,-6.9048777,-9.150639,0.94331545
0.5037526,4.8551235,-0.024199443,-0.28169575,1.1528164,-7.07726,-9.217676,0.91937345
0.505015,4.8553123,-0.024199443,-0.28169575,1.1528164,-7.07726,-9.217676,0.91937345
0.50629896,4.855523,-0.018873122,-0.3019358,1.231646,-7.3166804,-9.32781,0.9911995
0.507609,4.855738,-0.018873122,-0.3019358,1.231646,-7.3166804,-9.32781,0.9911995
0.50899726,4.8559766,-0.010351005,-0.3253716,1.3126061,-7.489063,-9.452309,0.90500826
0.5103841,4.8562155,-0.010351005,-0.3253716,1.3126061,-7.489063,-9.452309,0.90500826
0.51184696,4.8564887,-0.0028941538,-0.35200322,1.3946314,-7.6614456,-9.481039,0.9576807
0.5133098,4.8567624,-0.0028941538,-0.35200322,1.3946314,-7.6614456,-9.481039,0.9576807
0.51485527,4.857071,0.0066932263,-0.38183063,1.4798526,-7.8529816,-9.581595,0.94810385
0.51640046,4.857381,0.0066932263,-0.38183063,1.4798526,-7.8529816,-9.581595,0.94810385
0.5180273,4.8577266,0.018411135,-0.4148538,1.5714653,-8.063671,-9.65821,0.89543146
0.519657,4.858074,0.018411135,-0.4148538,1.5714653,-8.063671,-9.65821,0.89543146
0.521368,4.858463,0.031194309,-0.45000756,1.6641433,-8.264784,-9.758766,0.89064306
0.52308375,4.8588543,0.031194309,-0.45000756,1.6641433,-8.264784,-9.758766,0.89064306
0.5248884,4.8592887,0.045042746,-0.48942232,1.7632129,-8.437167,-9.864111,0.8379706
0.5266924,4.859725,0.045042746,-0.48942232,1.7632129,-8.437167,-9.864111,0.8379706
0.52859175,4.860207,0.05995645,-0.53096765,1.8676088,-8.595184,-9.907207,0.7517793
0.5304884,4.860691,0.05995645,-0.53096765,1.8676088,-8.595184,-9.907207,0.7517793
0.5304884,4.860691,0.05995645,-0.53096765,1.8676088,-8.595184,-9.907207,0.7517793
0.53466284,4.861803,0.073804885,-0.5746435,1.977331,-8.710106,-10.0029745,0.6607997
0.5352218,4.8619523,0.073804885,-0.5746435,1.977331,-8.710106,-10.0029745,0.6607997
0.5373406,4.862547,0.08871859,-0.6215151,2.0913143,-8.882488,-10.113108,0.6751649
0.5411933,4.863636,0.08871859,-0.6215151,2.0913143,-8.882488,-10.113108,0.6751649
0.54294676,4.8641596,0.10789335,-0.669452,2.2138197,-8.978256,-10.228029,0.8283938
0.54526865,4.864887,0.13026391,-0.7205847,2.3427167,-8.916007,-10.275913,0.8858546
0.54526865,4.864887,0.13026391,-0.7205847,2.3427167,-8.916007,-10.275913,0.8858546
0.55002594,4.866408,0.15902604,-0.7717174,2.4705484,-8.930372,-10.223241,0.7613561
0.55259085,4.8672557,0.15902604,-0.7717174,2.4705484,-8.930372,-10.223241,0.7613561
0.55514324,4.8681355,0.18565765,-0.8260459,2.5983803,-8.954314,-10.213664,0.7182605
0.55514324,4.8681355,0.18565765,-0.8260459,2.5983803,-8.954314,-10.213664,0.7182605
0.55789375,4.869089,0.18565765,-0.8260459,2.5983803,-8.954314,-10.213664,0.7182605
0.562898,4.870899,0.20802821,-0.8857007,2.7283425,-8.916007,-10.16578,0.7230489
0.56565684,4.871921,0.22507244,-0.94961655,2.8583047,-8.7532015,-10.16578,0.6943185
0.56843776,4.8729653,0.22507244,-0.94961655,2.8583047,-8.7532015,-10.16578,0.6943185
0.5713403,4.8740897,0.23998614,-1.0188588,2.984006,-8.623915,-10.079589,0.641646
0.5742285,4.8752165,0.23998614,-1.0188588,2.984006,-8.623915,-10.079589,0.641646
0.57723296,4.8764277,0.25489986,-1.0912968,3.1075766,-8.532935,-9.935937,0.62728083
0.580219,4.8776407,0.25489986,-1.0912968,3.1075766,-8.532935,-9.935937,0.62728083
0.5833251,4.878942,0.27087882,-1.1648,3.2279515,-8.441956,-9.825804,0.50278234
0.586421,4.8802495,0.27087882,-1.1648,3.2279515,-8.441956,-9.825804,0.50278234
0.5896044,4.88164,0.2857925,-1.2414991,3.3430002,-8.307879,-9.720459,0.5315128
0.5927833,4.88304,0.2857925,-1.2414991,3.3430002,-8.307879,-9.720459,0.5315128
0.59606266,4.884533,0.3017715,-1.3192633,3.4591138,-8.159439,-9.648633,0.60812724
0.5993305,4.886033,0.3017715,-1.3192633,3.4591138,-8.159439,-9.648633,0.60812724
0.6026863,4.887618,0.31668517,-1.3959624,3.5794888,-7.9583263,-9.605537,0.61770403
0.60604966,4.889221,0.31668517,-1.3959624,3.5794888,-7.9583263,-9.605537,0.61770403
0.6094968,4.890912,0.33159888,-1.474792,3.6977332,-7.627927,-9.552865,0.6991069
0.61294043,4.8926177,0.33159888,-1.474792,3.6977332,-7.627927,-9.552865,0.6991069
0.6164696,4.8944173,0.34757784,-1.5525563,3.818108,-7.345411,-9.543288,0.8331822
0.6199905,4.8962307,0.34757784,-1.5525563,3.818108,-7.345411,-9.543288,0.8331822
0.6235678,4.8981323,0.36249155,-1.6260595,3.9406135,-6.813898,-9.504981,0.8858546
0.6271359,4.9000516,0.36249155,-1.6260595,3.9406135,-6.813898,-9.504981,0.8858546
0.63078,4.902069,0.38060105,-1.6910406,4.0609884,-6.555324,-9.485827,0.8523358
0.6344154,4.904106,0.38060105,-1.6910406,4.0609884,-6.555324,-9.485827,0.8523358
0.6381176,4.9062448,0.39551476,-1.7496302,4.180298,-6.2392898,-9.5385,0.92416185
0.64181244,4.908404,0.39551476,-1.7496302,4.180298,-6.2392898,-9.5385,0.92416185
0.6455753,4.9106703,0.4061674,-1.8050239,4.2985425,-5.813122,-9.600749,1.0103531
0.6493311,4.9129596,0.4061674,-1.8050239,4.2985425,-5.813122,-9.600749,1.0103531
0.65317625,4.915344,0.4146895,-1.8529608,4.417852,-5.535394,-9.773131,1.0199299
0.65701467,4.9177523,0.4146895,-1.8529608,4.417852,-5.535394,-9.773131,1.0199299
0.6609465,4.920249,0.42214635,-1.8913103,4.536096,-5.3486466,-9.964667,1.0821792
0.66487116,4.922771,0.42214635,-1.8913103,4.536096,-5.3486466,-9.964667,1.0821792
0.6689007,4.9253755,0.43173376,-1.9232683,4.659667,-5.1906295,-10.184934,1.0486604
0.6728588,4.9279647,0.43173376,-1.9232683,4.659667,-5.1906295,-10.184934,1.0486604
0.67699516,4.930683,0.44558218,-1.9456389,4.792825,-5.0517654,-10.481815,1.091756
0.6811978,4.93348,0.44558218,-1.9456389,4.792825,-5.0517654,-10.481815,1.091756
0.6854473,4.936317,0.46369168,-1.9626831,4.931309,-4.8937483,-10.7356,1.1109096
0.68966705,4.939171,0.46369168,-1.9626831,4.931309,-4.8937483,-10.7356,1.1109096
0.69404346,4.9421344,0.48712748,-1.9712052,5.0783157,-4.817134,-10.94629,1.1540052
0.6984239,4.94514,0.48712748,-1.9712052,5.0783157,-4.817134,-10.94629,1.1540052
0.7029302,4.9482307,0.51375914,-1.974401,5.2370405,-4.620809,-11.128249,1.1492168
0.7074223,4.951354,0.51375914,-1.974401,5.2370405,-4.620809,-11.128249,1.1492168
0.71206987,4.954577,0.541456,-1.97014,5.4021564,-4.525041,-11.247959,1.163582
0.7167071,4.957838,0.541456,-1.97014,5.4021564,-4.525041,-11.247959,1.163582
0.72151464,4.961217,0.57447916,-1.9616178,5.5736637,-4.2185836,-11.27669,1.2306197
0.72628736,4.9646206,0.57447916,-1.9616178,5.5736637,-4.2185836,-11.27669,1.2306197
0.73122966,4.968129,0.6075024,-1.9456389,5.751563,-4.122815,-11.252748,1.1971009
0.73616546,4.971686,0.6075024,-1.9456389,5.751563,-4.122815,-11.252748,1.1971009
0.7412661,4.9753456,0.6426561,-1.9243336,5.9283967,-3.9504328,-11.089942,1.115698
0.7463541,4.9790545,0.6426561,-1.9243336,5.9283967,-3.9504328,-11.089942,1.115698
0.75160885,4.9828796,0.67780983,-1.9030282,6.1041656,-3.6487634,-10.836157,1.1444284
0.75683475,4.986746,0.67780983,-1.9030282,6.1041656,-3.6487634,-10.836157,1.1444284
0.7622268,4.99073,0.710833,-1.8795924,6.2735424,-3.4763808,-10.539276,1.1204864
0.7676049,4.99477,0.710833,-1.8795924,6.2735424,-3.4763808,-10.539276,1.1204864
0.7731357,4.9989247,0.74279094,-1.8550913,6.440789,-3.2321723,-10.1226845,1.0869676
0.77865154,5.00314,0.74279094,-1.8550913,6.440789,-3.2321723,-10.1226845,1.0869676
0.7843124,5.007468,0.7736836,-1.8273945,6.5995135,-2.9257145,-9.701305,1.0103531
0.78995156,5.0118575,0.7736836,-1.8273945,6.5995135,-2.9257145,-9.701305,1.0103531
0.79573363,5.016371,0.80031526,-1.7996976,6.74652,-2.657564,-9.179369,1.0151415
0.80150497,5.020959,0.80031526,-1.7996976,6.74652,-2.657564,-9.179369,1.0151415
0.8073894,5.0256486,0.8216205,-1.7698702,6.8796782,-2.4516625,-8.647857,0.9528923
0.81353086,5.0306396,0.8216205,-1.7698702,6.8796782,-2.4516625,-8.647857,0.9528923
0.8194062,5.0354295,0.8344037,-1.7379123,6.9989877,-2.2409728,-8.106767,0.92416185
0.82517433,5.0402226,0.8344037,-1.7379123,6.9989877,-2.2409728,-8.106767,0.92416185
0.83117557,5.0452223,0.84186053,-1.7038238,7.1033835,-2.2361844,-7.5800424,0.8810662
0.8371938,5.050337,0.84186053,-1.7038238,7.1033835,-2.2361844,-7.5800424,0.8810662
0.84327435,5.055518,0.83973,-1.6676048,7.1907353,-2.2601264,-7.153875,0.82360536
0.84935886,5.06081,0.83973,-1.6676048,7.1907353,-2.2601264,-7.153875,0.82360536
0.8554996,5.0661755,0.83120793,-1.6313858,7.267434,-2.327164,-6.799533,0.89543146
0.8616249,5.0716414,0.83120793,-1.6313858,7.267434,-2.327164,-6.799533,0.89543146
0.86778533,5.0771785,0.82055527,-1.5983627,7.337742,-2.4851813,-6.483498,1.067814
0.87396014,5.0828495,0.82055527,-1.5983627,7.337742,-2.4851813,-6.483498,1.067814
0.8801222,5.08855,0.80883735,-1.56747,7.403788,-2.60968,-6.143522,1.091756
0.8862792,5.094373,0.80883735,-1.56747,7.403788,-2.60968,-6.143522,1.091756
0.8924555,5.1002827,0.7981847,-1.5440341,7.469835,-2.705448,-5.803545,1.2210429
0.8986931,5.106388,0.7981847,-1.5440341,7.469835,-2.705448,-5.803545,1.2210429
0.904928,5.1125693,0.7875321,-1.5259247,7.534816,-2.6719291,-5.4539914,1.2066777
0.91109294,5.118825,0.7875321,-1.5259247,7.534816,-2.6719291,-5.4539914,1.2066777
0.9173229,5.125254,0.7758142,-1.5142068,7.5987315,-2.6767175,-5.0613422,1.316811
0.92354316,5.131829,0.7758142,-1.5142068,7.5987315,-2.6767175,-5.0613422,1.316811
0.9297818,5.1385427,0.76090044,-1.5067499,7.6626472,-2.552219,-4.6591167,1.3503298
0.93599033,5.14539,0.76090044,-1.5067499,7.6626472,-2.552219,-4.6591167,1.3503298
0.9422182,5.152391,0.74385625,-1.5014236,7.7233677,-2.3894134,-4.247314,1.3503298
0.94841933,5.1595416,0.74385625,-1.5014236,7.7233677,-2.3894134,-4.247314,1.3503298
0.95464194,5.1668468,0.7236162,-1.4939667,7.780892,-2.2122424,-3.7493198,1.2354081
0.9608358,5.174311,0.7236162,-1.4939667,7.780892,-2.2122424,-3.7493198,1.2354081
0.96703035,5.1819124,0.69804984,-1.4811835,7.829894,-2.1021092,-3.1890767,1.1348516
0.97319436,5.189681,0.69804984,-1.4811835,7.829894,-2.1021092,-3.1890767,1.1348516
0.979366,5.1975994,0.6639614,-1.4620088,7.8725047,-2.0159178,-2.815581,1.115698
0.9854985,5.2056866,0.6639614,-1.4620088,7.8725047,-2.0159178,-2.815581,1.115698
0.9916322,5.21389,0.6213508,-1.4332466,7.9055276,-2.1787236,-2.528277,1.0534488
0.9978272,5.222416,0.6213508,-1.4332466,7.9055276,-2.1787236,-2.528277,1.0534488
1.0038165,5.230791,0.57021815,-1.3959624,7.935355,-2.4851813,-2.2840683,1.1444284
1.0098529,5.2394786,0.57021815,-1.3959624,7.935355,-2.4851813,-2.2840683,1.1444284
1.0159104,5.248287,0.51802015,-1.3512213,7.966248,-2.8682537,-2.231396,1.1492168
1.0219096,5.2572727,0.51802015,-1.3512213,7.966248,-2.8682537,-2.231396,1.1492168
1.0279254,5.2663937,0.46262643,-1.3000885,8.002467,-3.2225955,-2.3654714,1.3024458
1.0338917,5.2757196,0.46262643,-1.3000885,8.002467,-3.2225955,-2.3654714,1.3024458
1.0398763,5.285177,0.41255897,-1.2436296,8.047208,-3.5625722,-2.5809495,1.460463
1.0458093,5.294852,0.41255897,-1.2436296,8.047208,-3.5625722,-2.5809495,1.460463
1.0517709,5.3046455,0.36781788,-1.1818442,8.102602,-3.845088,-2.767697,1.4987702
1.0576905,5.3146906,0.36781788,-1.1818442,8.102602,-3.845088,-2.767697,1.4987702
1.0636258,5.3248672,0.3284031,-1.1147326,8.164387,-3.9312792,-2.9496565,1.5610195
1.0695165,5.3353105,0.3284031,-1.1147326,8.164387,-3.9312792,-2.9496565,1.5610195
1.0754268,5.345925,0.2953799,-1.0401641,8.224042,-3.8833952,-3.0119057,1.6472107
1.0812831,5.3568115,0.2953799,-1.0401641,8.224042,-3.8833952,-3.0119057,1.6472107
1.08717,5.367893,0.26768303,-0.95600814,8.27837,-3.7301662,-3.0023289,1.6998832
1.0929928,5.379253,0.26768303,-0.95600814,8.27837,-3.7301662,-3.0023289,1.6998832
1.0988371,5.390814,0.24211667,-0.8622649,8.317785,-3.572149,-2.7629087,1.7525556
1.1046135,5.4026685,0.24211667,-0.8622649,8.317785,-3.572149,-2.7629087,1.7525556
1.1103989,5.4147058,0.21655032,-0.7568037,8.331634,-3.3566709,-2.2984335,1.70946
1.1161118,5.427052,0.21655032,-0.7568037,8.331634,-3.3566709,-2.2984335,1.70946
1.1218245,5.439579,0.18778819,-0.6396246,8.311394,-3.3135753,-1.7381904,1.6807296
1.127325,5.452116,0.18778819,-0.6396246,8.311394,-3.3135753,-1.7381904,1.6807296
1.1329744,5.465131,0.15050393,-0.5139234,8.256,-3.5003228,-1.2306197,1.5514427
1.1386819,5.478833,0.15050393,-0.5139234,8.256,-3.5003228,-1.2306197,1.5514427
1.1442934,5.49228,0.10150176,-0.38822222,8.1633215,-3.8498764,-0.91458505,1.4030021
1.1497838,5.5060096,0.10150176,-0.38822222,8.1633215,-3.8498764,-0.91458505,1.4030021
1.1553216,5.5195484,0.040781688,-0.26678208,8.038686,-4.6112323,-0.6847417,1.0055647
1.1607988,5.5335093,0.040781688,-0.26678208,8.038686,-4.6112323,-0.6847417,1.0055647
1.1661506,5.547263,-0.026329972,-0.1517335,7.894875,-5.650316,-0.91937345,1.2354081
1.1714135,5.56137,-0.026329972,-0.1517335,7.894875,-5.650316,-0.91937345,1.2354081
1.176577,5.575431,-0.0945069,-0.048402846,7.7468033,-6.4499793,-1.2306197,1.7142484
1.181655,5.58986,-0.0945069,-0.048402846,7.7468033,-6.4499793,-1.2306197,1.7142484
1.1866145,5.6042466,-0.15309644,0.032557253,7.599797,-7.1826053,-1.6184803,2.1308396
1.1914883,5.6189847,-0.15309644,0.032557253,7.599797,-7.1826053,-1.6184803,2.1308396
1.1962038,5.633442,-0.19783755,0.087951005,7.4623775,-7.9487495,-1.9393034,2.4181437
1.200778,5.6481194,-0.19783755,0.087951005,7.4623775,-7.9487495,-1.9393034,2.4181437
1.2051255,5.6627812,-0.22446916,0.11564788,7.337742,-8.6813755,-2.3702598,2.6431987
1.2093813,5.6778083,-0.22446916,0.11564788,7.337742,-8.6813755,-2.3702598,2.6431987
1.213477,5.692978,-0.23938286,0.118843675,7.2365417,-9.193734,-2.743755,2.858677
1.2174828,5.7085085,-0.23938286,0.118843675,7.2365417,-9.193734,-2.743755,2.858677
1.2213396,5.724249,-0.24151339,0.09647312,7.1598425,-9.648633,-3.0358477,2.9640217
1.2250973,5.7403326,-0.24151339,0.09647312,7.1598425,-9.648633,-3.0358477,2.9640217
1.2286886,5.7567472,-0.23192601,0.053862542,7.105514,-9.878476,-3.2369606,3.1364043
1.2321801,5.7735157,-0.23192601,0.053862542,7.105514,-9.878476,-3.2369606,3.1364043
1.2354999,5.7906713,-0.21275125,-0.0047270046,7.075687,-9.916783,-3.4284968,3.2225955
1.2387131,5.8081737,-0.21275125,-0.0047270046,7.075687,-9.916783,-3.4284968,3.2225955
1.2420585,5.8280463,-0.18292385,-0.07503446,7.0639687,-9.873688,-3.4141316,3.2992098
1.2448015,5.8453135,-0.18292385,-0.07503446,7.0639687,-9.873688,-3.4141316,3.2992098
1.2476335,5.864889,-0.14670485,-0.15279876,7.065034,-9.758766,-3.3997664,3.3614593
1.2500817,5.882882,-0.14670485,-0.15279876,7.065034,-9.758766,-3.3997664,3.3614593
1.2525797,5.9032497,-0.107290074,-0.23162833,7.076752,-9.600749,-3.3901896,3.41892
1.2548085,5.9227543,-0.107290074,-0.23162833,7.076752,-9.600749,-3.3901896,3.41892
1.2548085,5.9227543,-0.107290074,-0.23162833,7.076752,-9.600749,-3.3901896,3.41892
1.2587433,5.962946,-0.06467949,-0.30939263,7.100188,-9.3182335,-3.3806129,3.442862
1.2604722,5.983817,-0.019938385,-0.38183063,7.1353416,-9.088389,-3.5051112,3.3327289
1.2620752,6.0051084,-0.019938385,-0.38183063,7.1353416,-9.088389,-3.5051112,3.3327289
1.2634871,6.0268435,0.027998514,-0.44042018,7.180083,-8.963891,-3.7301662,3.3135753
1.2647507,6.0488153,0.027998514,-0.44042018,7.180083,-8.963891,-3.7301662,3.3135753
1.2658229,6.071166,0.075935416,-0.48942232,7.2344112,-8.930372,-4.0701427,3.3662477
1.2667387,6.0937095,0.075935416,-0.48942232,7.2344112,-8.930372,-4.0701427,3.3662477
1.2674638,6.116703,0.1270681,-0.5299024,7.3036532,-8.494628,-4.3766007,3.4284968
1.2680215,6.13968,0.1270681,-0.5299024,7.3036532,-8.494628,-4.3766007,3.4284968
1.2683942,6.1631527,0.18565765,-0.55759925,7.382483,-8.1402855,-4.663905,3.5290532
1.268596,6.186647,0.18565765,-0.55759925,7.382483,-8.1402855,-4.663905,3.5290532
1.268621,6.2104173,0.25063878,-0.56718665,7.4687696,-7.675811,-4.879383,3.596091
1.2684697,6.234344,0.25063878,-0.56718665,7.4687696,-7.675811,-4.879383,3.596091
1.2681496,6.2584915,0.3220115,-0.5618603,7.5550556,-7.1347213,-5.046977,3.572149
1.2676488,6.2826447,0.3220115,-0.5618603,7.5550556,-7.1347213,-5.046977,3.572149
1.2669854,0.023903277,0.39871055,-0.5384245,7.63282,-6.4020953,-5.0134583,3.5003228
1.2661316,0.04839398,0.39871055,-0.5384245,7.63282,-6.4020953,-5.0134583,3.5003228
1.2651443,0.072718926,0.4786054,-0.4958139,7.696736,-5.7125654,-4.7309427,3.3375173
1.2639849,0.09667834,0.4786054,-0.4958139,7.696736,-5.7125654,-4.7309427,3.3375173
1.2626886,0.12077162,0.55850023,-0.43828964,7.7350855,-4.8362875,-4.2281604,3.1651347
1.2612064,0.14476772,0.55850023,-0.43828964,7.7350855,-4.8362875,-4.2281604,3.1651347
1.2596024,0.16873215,0.63519925,-0.36798218,7.7393465,-3.964798,-3.5051112,2.8778305
1.257827,0.1923657,0.63519925,-0.36798218,7.7393465,-3.964798,-3.5051112,2.8778305
1.2559509,0.21577255,0.70763725,-0.28595683,7.6988664,-3.2369606,-2.528277,2.6527755
1.2539048,0.23888873,0.70763725,-0.28595683,7.6988664,-3.2369606,-2.528277,2.6527755
1.2517763,0.26164076,0.77261835,-0.19647461,7.613645,-2.7629087,-1.412579,2.5713725
1.2494848,0.28407773,0.77261835,-0.19647461,7.613645,-2.7629087,-1.412579,2.5713725
1.2471253,0.30607936,0.8258816,-0.108057655,7.4804873,-2.4708161,-0.17717093,2.6288335
1.2446146,0.32772765,0.8258816,-0.108057655,7.4804873,-2.4708161,-0.17717093,2.6288335
1.2420663,0.3489663,0.86955744,-0.020705972,7.306849,-2.3511062,1.1779473,2.695871
1.2393672,0.36990842,0.86955744,-0.020705972,7.306849,-2.3511062,1.1779473,2.695871
1.236705,0.39004755,0.9025806,0.062384658,7.100188,-2.4612393,2.432509,2.7102363
1.2339362,0.40968284,0.9025806,0.062384658,7.100188,-2.4612393,2.432509,2.7102363
1.2311771,0.4287915,0.9270817,0.1358879,6.86796,-2.5761611,3.7493198,2.7820623
1.2282532,0.44786662,0.9270817,0.1358879,6.86796,-2.5761611,3.7493198,2.7820623
1.2254287,0.46585754,0.9387996,0.2019343,6.614427,-2.767697,4.8698063,2.8682537
1.2224954,0.4835528,0.9387996,0.2019343,6.614427,-2.767697,4.8698063,2.8682537
1.2196486,0.50036293,0.9387996,0.2615891,6.348111,-3.0214825,5.9041014,2.944868
1.2166883,0.5169995,0.9387996,0.2615891,6.348111,-3.0214825,5.9041014,2.944868
1.2138368,0.5327379,0.9270817,0.3191134,6.0722075,-3.1842883,6.7564373,2.9783869
1.2108939,0.5482565,0.9270817,0.3191134,6.0722075,-3.1842883,6.7564373,2.9783869
1.2080733,0.5629486,0.90790695,0.3755724,5.7931085,-3.4620156,7.503428,2.9017725
1.2051699,0.5774416,0.90790695,0.3755724,5.7931085,-3.4620156,7.503428,2.9017725
1.2024153,0.5911027,0.8802101,0.43309668,5.510813,-3.7349546,8.226477,2.7629087
1.1995747,0.60465544,0.8802101,0.43309668,5.510813,-3.7349546,8.226477,2.7629087
1.1968898,0.61742705,0.8461216,0.49062097,5.231714,-3.5673606,8.892065,2.6479871
1.194141,0.6300421,0.8461216,0.49062097,5.231714,-3.5673606,8.892065,2.6479871
1.1915579,0.6419559,0.80883735,0.5524063,4.961137,-4.673482,9.260772,2.6527755
1.1889094,0.65376735,0.80883735,0.5524063,4.961137,-4.673482,9.260772,2.6527755
1.1864147,0.66484773,0.7694226,0.60566956,4.6926904,-3.5098996,8.992621,3.892972
1.1838748,0.67578566,0.7694226,0.60566956,4.6926904,-3.5098996,8.992621,3.892972
1.1815135,0.68604755,0.7417257,0.6642591,4.422113,-2.3463178,8.7053175,5.0182467
1.1790974,0.696246,0.7417257,0.6642591,4.422113,-2.3463178,8.7053175,5.0182467
1.1769149,0.7060084,0.71935517,0.788895,4.1579275,-3.8259344,9.270349,4.7979803
1.1746951,0.7156623,0.71935517,0.788895,4.1579275,-3.8259344,9.270349,4.7979803
1.1727399,0.72497636,0.68952775,0.94122785,3.890546,-5.4444146,10.34774,3.9121256
1.1707395,0.7342551,0.68952775,0.94122785,3.890546,-5.4444146,10.34774,3.9121256
1.168994,0.7431435,0.634134,1.0733206,3.6231647,-7.1730285,10.553641,3.4524388
1.167217,0.7519543,0.634134,1.0733206,3.6231647,-7.1730285,10.553641,3.4524388
1.1656636,0.7602547,0.55850023,1.1564113,3.3483264,-7.6375036,10.381259,3.6535518
1.1640723,0.7685399,0.55850023,1.1564113,3.3483264,-7.6375036,10.381259,3.6535518
1.1626828,0.77627283,0.4924538,1.1936955,3.068162,-8.039729,10.443508,3.667917
1.1612687,0.7839522,0.4924538,1.1936955,3.068162,-8.039729,10.443508,3.667917
1.1600497,0.7910701,0.44345164,1.2086092,2.7816057,-7.8050976,10.534488,3.6056678
1.1588018,0.79818743,0.44345164,1.2086092,2.7816057,-7.8050976,10.534488,3.6056678
1.1577554,0.8047573,0.40510213,1.2171314,2.488658,-7.795521,10.5680065,3.4859576
1.1566913,0.8112936,0.40510213,1.2171314,2.488658,-7.795521,10.5680065,3.4859576
1.1558352,0.81734943,0.36355683,1.2363061,2.202102,-8.394072,10.376471,3.2752678
1.1549673,0.8233554,0.36355683,1.2363061,2.202102,-8.394072,10.376471,3.2752678
1.1543076,0.82894367,0.31348938,1.2618724,1.9240679,-9.648633,9.993398,3.1124623
1.1536273,0.83458054,0.31348938,1.2618724,1.9240679,-9.648633,9.993398,3.1124623
1.1531547,0.83969605,0.25703037,1.2757208,1.6534907,-10.70687,9.3421755,3.217807
1.1526691,0.8448196,0.25703037,1.2757208,1.6534907,-10.70687,9.3421755,3.217807
1.152364,0.84952164,0.19950609,1.2703946,1.3967619,-11.971008,8.51857,3.3806129
1.1520457,0.85426724,0.19950609,1.2703946,1.3967619,-11.971008,8.51857,3.3806129
1.15189,0.858409,0.15263446,1.243763,1.1645343,-12.545617,7.848193,3.4141316
1.1517231,0.8626225,0.15263446,1.243763,1.1645343,-12.545617,7.848193,3.4141316
1.1516807,0.86646277,0.11748073,1.2022176,0.9642646,-13.187263,7.2592196,3.4811692
1.1516316,0.87028193,0.11748073,1.2022176,0.9642646,-13.187263,7.2592196,3.4811692
1.1516826,0.8737906,0.09404491,1.1521502,0.7959528,-13.469779,6.9288197,3.394978
1.1517278,0.8772715,0.09404491,1.1521502,0.7959528,-13.469779,6.9288197,3.394978
1.1518645,0.88049215,0.07700068,1.1010175,0.6585337,-13.953407,6.531382,3.289633
1.1519951,0.8836949,0.07700068,1.1010175,0.6585337,-13.953407,6.531382,3.289633
1.1521947,0.8866528,0.06315224,1.0456238,0.54668087,-14.283808,6.191406,3.2800562
1.1523895,0.88960254,0.06315224,1.0456238,0.54668087,-14.283808,6.191406,3.2800562
1.1526508,0.89229923,0.05356486,0.9827731,0.45506814,-14.681245,5.803545,3.2561142
1.1529073,0.8949861,0.05356486,0.9827731,0.45506814,-14.681245,5.803545,3.2561142
1.1532059,0.8974267,0.04823854,0.9082046,0.37836912,-14.939818,5.554548,3.2752678
1.1535,0.89985615,0.04823854,0.9082046,0.37836912,-14.939818,5.554548,3.2752678
1.1537999,0.9020367,0.04823854,0.8197877,0.31658378,-14.810532,5.3486466,3.2609026
1.1540971,0.90420777,0.04823854,0.8197877,0.31658378,-14.810532,5.3486466,3.2609026
1.1543901,0.90613455,0.0524996,0.7228486,0.26545107,-14.69561,5.1666875,3.169923
1.1546798,0.9080569,0.0524996,0.7228486,0.26545107,-14.69561,5.1666875,3.169923
1.1549352,0.90975195,0.058891185,0.619518,0.22177523,-14.504074,5.1666875,2.9975405
1.1551882,0.9114433,0.058891185,0.619518,0.22177523,-14.504074,5.1666875,2.9975405
1.1554133,0.912903,0.06634804,0.5140568,0.18236046,-14.279019,5.046977,2.8060043
1.1556367,0.9143595,0.06634804,0.5140568,0.18236046,-14.279019,5.046977,2.8060043
1.1557986,0.9156234,0.07167436,0.41072613,0.1450762,-14.001291,5.4061074,2.4660277
1.1559594,0.9168858,0.07167436,0.41072613,0.1450762,-14.001291,5.4061074,2.4660277
1.1561155,0.9178761,0.07273962,0.3063302,0.11311826,-14.159308,4.9416323,2.528277
1.1562704,0.91886395,0.07273962,0.3063302,0.11311826,-14.159308,4.9416323,2.528277
1.1562548,0.91969264,0.0674133,0.20406483,0.08435612,-12.11466,5.21936,2.930503
1.1562383,0.920518,0.0674133,0.20406483,0.08435612,-12.11466,5.21936,2.930503
1.1563812,0.92104644,0.058891185,0.15612793,0.075834006,-14.930242,4.390966,2.8778305
1.1565232,0.92157245,0.058891185,0.15612793,0.075834006,-14.930242,4.390966,2.8778305
1.1566417,0.92194575,0.06315224,0.086885735,0.056659244,-15.677233,4.3143516,2.7150247
1.1567595,0.9223167,0.06315224,0.086885735,0.056659244,-15.677233,4.3143516,2.7150247
1.1567861,0.9225012,0.07913121,-0.05372917,0.022570781,-14.781801,4.8123455,2.4181437
1.1568131,0.9226848,0.07913121,-0.05372917,0.022570781,-14.781801,4.8123455,2.4181437
1.1567442,0.9226106,0.087653324,-0.20606199,-0.013648209,-13.570335,4.960786,2.3558946
1.156675,0.9225357,0.087653324,-0.20606199,-0.013648209,-13.570335,4.960786,2.3558946
1.156534,0.9222242,0.08445753,-0.32643688,-0.04454088,-12.885593,4.9416323,2.4899697
1.1563942,0.9219155,0.08445753,-0.32643688,-0.04454088,-12.885593,4.9416323,2.4899697
1.1561489,0.9214324,0.07700068,-0.41059276,-0.07436828,-11.693281,5.1235914,2.6384103
1.1559027,0.92094874,0.07700068,-0.41059276,-0.07436828,-11.693281,5.1235914,2.6384103
1.1556442,0.92033327,0.06634804,-0.45639914,-0.10099989,-11.300632,5.0661306,2.566584
1.1553848,0.9197169,0.06634804,-0.45639914,-0.10099989,-11.300632,5.0661306,2.566584
1.155128,0.9190155,0.0524996,-0.46811703,-0.12656625,-10.802638,4.951209,2.480393
1.1548799,0.91833955,0.0524996,-0.46811703,-0.12656625,-10.802638,4.951209,2.480393
1.1546549,0.91761804,0.03652063,-0.46492124,-0.15532838,-10.529699,4.8841715,2.4277205
1.154427,0.9168875,0.03652063,-0.46492124,-0.15532838,-10.529699,4.8841715,2.4277205
1.1542413,0.91611177,0.02160693,-0.45213807,-0.1936779,-10.280702,4.793192,2.3080103
1.154057,0.9153418,0.02160693,-0.45213807,-0.1936779,-10.280702,4.793192,2.3080103
1.1538945,0.9145041,0.005627962,-0.43402857,-0.23735374,-9.720459,4.7405195,2.360683
1.1537325,0.91367084,0.005627962,-0.43402857,-0.23735374,-9.720459,4.7405195,2.360683
1.1536162,0.9127947,-0.012481534,-0.40420118,-0.28422537,-9.375694,4.6255975,2.3750482
1.1535007,0.9119217,-0.012481534,-0.40420118,-0.28422537,-9.375694,4.6255975,2.3750482
1.1534466,0.9110224,-0.033786822,-0.36052534,-0.33535808,-9.150639,4.4723687,2.3750482
1.1533929,0.91012764,-0.033786822,-0.36052534,-0.33535808,-9.150639,4.4723687,2.3750482
1.1534064,0.90921724,-0.05509211,-0.30726212,-0.38755605,-9.251195,4.3239284,2.4851813
1.1534202,0.90831393,-0.05509211,-0.30726212,-0.38755605,-9.251195,4.3239284,2.4851813
1.1535107,0.9074118,-0.07213634,-0.25293362,-0.44081926,-9.442732,4.0940847,2.542642
1.1535997,0.90651476,-0.07213634,-0.25293362,-0.44081926,-9.442732,4.0940847,2.542642
1.1537647,0.9056256,-0.08705004,-0.20073566,-0.49195194,-9.629479,3.86903,2.5953147
1.15393,0.9047373,-0.08705004,-0.20073566,-0.49195194,-9.629479,3.86903,2.5953147
1.154212,0.9039015,-0.09983322,-0.15066823,-0.53988886,-9.830592,3.691859,2.552219
1.1544926,0.903067,-0.09983322,-0.15066823,-0.53988886,-9.830592,3.691859,2.552219
1.1549307,0.9021801,-0.108355336,-0.10486186,-0.58249944,-10.01734,3.5194764,2.5187001
1.1553626,0.9012996,-0.108355336,-0.10486186,-0.58249944,-10.01734,3.5194764,2.5187001
1.1559144,0.90028715,-0.11474692,-0.064381815,-0.6219142,-10.28549,3.371036,2.5234885
1.1564617,0.89928037,-0.11474692,-0.064381815,-0.6219142,-10.28549,3.371036,2.5234885
1.1570777,0.89818716,-0.120073244,-0.028162822,-0.6528069,-10.520123,3.2369606,2.566584
1.1576908,0.89709914,-0.120073244,-0.028162822,-0.6528069,-10.520123,3.2369606,2.566584
1.1583956,0.8958832,-0.124334306,0.003795111,-0.67730796,-10.702082,3.074155,2.585738
1.1583956,0.8958832,-0.124334306,0.003795111,-0.67730796,-10.702082,3.074155,2.585738
1.1591148,0.89463925,-0.12539956,0.030426722,-0.6986132,-10.936713,2.9592333,2.5713725
1.159781,0.8935448,-0.12539956,0.030426722,-0.6986132,-10.936713,2.9592333,2.5713725
1.1611108,0.89141226,-0.124334306,0.050666746,-0.7124617,-11.085154,2.906561,2.5187001
1.1611108,0.89141226,-0.124334306,0.050666746,-0.7124617,-11.085154,2.906561,2.5187001
1.1625638,0.88914967,-0.120073244,0.06344992,-0.7209838,-11.190498,2.9735985,2.6384103
1.163317,0.88798064,-0.120073244,0.06344992,-0.7209838,-11.190498,2.9735985,2.6384103
1.1640092,0.8869534,-0.11581218,0.071972035,-0.72844064,-11.228806,2.9783869,2.5570073
1.1647387,0.8858701,-0.11581218,0.071972035,-0.72844064,-11.228806,2.9783869,2.5570073
1.1647387,0.8858701,-0.11581218,0.071972035,-0.72844064,-11.228806,2.9783869,2.5570073
1.1662264,0.8836493,-0.11155113,0.0762331,-0.7348322,-11.200075,2.9113493,2.5570073
1.1669736,0.8825553,-0.106224805,0.08049415,-0.7422891,-11.180922,2.9783869,2.5617957
1.167728,0.88144684,-0.106224805,0.08049415,-0.7422891,-11.180922,2.9783869,2.5617957
1.1684868,0.8803298,-0.10515954,0.08368994,-0.7518765,-11.099519,3.0454245,2.6192567
1.169242,0.8792138,-0.10515954,0.08368994,-0.7518765,-11.099519,3.0454245,2.6192567
1.1700208,0.8780334,-0.104094274,0.085820474,-0.769986,-11.013328,2.96881,2.633622
1.1707983,0.8768516,-0.104094274,0.085820474,-0.769986,-11.013328,2.96881,2.633622
1.1715891,0.8756157,-0.10515954,0.087951005,-0.7934218,-11.008539,2.825158,2.6240451
1.1723795,0.8743747,-0.10515954,0.087951005,-0.7934218,-11.008539,2.825158,2.6240451
1.173195,0.8730707,-0.106224805,0.087951005,-0.8232492,-11.046846,2.7341783,2.60968
1.1740099,0.8717627,-0.106224805,0.087951005,-0.8232492,-11.046846,2.7341783,2.60968
1.1748478,0.87037575,-0.107290074,0.08368994,-0.8584029,-11.176133,2.633622,2.6144683
1.1756849,0.868984,-0.107290074,0.08368994,-0.8584029,-11.176133,2.633622,2.6144683
1.1765469,0.8674931,-0.106224805,0.073037304,-0.9010135,-11.27669,2.60968,2.6479871
1.1774073,0.86599815,-0.106224805,0.073037304,-0.9010135,-11.27669,2.60968,2.6479871
1.1782877,0.86437786,-0.10196375,0.053862542,-0.94468933,-11.219229,2.566584,2.6719291
1.1791667,0.8627535,-0.10196375,0.053862542,-0.94468933,-11.219229,2.566584,2.6719291
1.1800578,0.860969,-0.10196375,0.02723093,-0.9894304,-11.166556,2.4708161,2.7341783
1.1809481,0.8591772,-0.10196375,0.02723093,-0.9894304,-11.166556,2.4708161,2.7341783
1.1818464,0.8572222,-0.09876795,-0.007922798,-1.0363021,-11.161768,2.4037786,2.777274
1.1827431,0.85525894,-0.09876795,-0.007922798,-1.0363021,-11.161768,2.4037786,2.777274
1.18364,0.8531193,-0.0945069,-0.051598642,-1.0831738,-11.046846,2.2649148,2.7868507
1.1845372,0.850969,-0.0945069,-0.051598642,-1.0831738,-11.046846,2.2649148,2.7868507
1.1854296,0.8486254,-0.09024584,-0.09953554,-1.12898,-10.936713,2.1883004,2.834735
1.1863194,0.8462738,-0.09024584,-0.09953554,-1.12898,-10.936713,2.1883004,2.834735
1.1871958,0.8437359,-0.08172372,-0.14747244,-1.1705254,-10.697293,2.1021092,2.8874073
1.1880698,0.84118634,-0.08172372,-0.14747244,-1.1705254,-10.697293,2.1021092,2.8874073
1.1889365,0.838475,-0.07320161,-0.19540934,-1.2099402,-10.448297,2.0638018,2.8395233
1.1897997,0.83575416,-0.07320161,-0.19540934,-1.2099402,-10.448297,2.0638018,2.8395233
1.1906509,0.832866,-0.062548965,-0.24228097,-1.2482897,-10.151415,1.982399,2.8203697
1.1915002,0.82996213,-0.062548965,-0.24228097,-1.2482897,-10.151415,1.982399,2.8203697
1.19234,0.82690895,-0.049765788,-0.28276104,-1.2877045,-9.792285,1.9440918,2.7724855
1.1931757,0.82384133,-0.049765788,-0.28276104,-1.2877045,-9.792285,1.9440918,2.7724855
1.1939985,0.82062083,-0.03698262,-0.3168495,-1.3303151,-9.509769,1.8866309,2.825158
1.1948161,0.8173854,-0.03698262,-0.3168495,-1.3303151,-9.509769,1.8866309,2.825158
1.1956307,0.8140201,-0.024199443,-0.34241584,-1.3739909,-9.203311,1.8579005,2.815581
1.1964409,0.81064004,-0.024199443,-0.34241584,-1.3739909,-9.203311,1.8579005,2.815581
1.1972587,0.8071376,-0.014612063,-0.36052534,-1.4208626,-8.954314,1.7717092,2.815581
1.198072,0.80362004,-0.014612063,-0.36052534,-1.4208626,-8.954314,1.7717092,2.815581
1.1989022,0.79998326,-0.0050246827,-0.37224326,-1.4730605,-8.7771435,1.6950948,2.8395233
1.1997283,0.79632276,-0.0050246827,-0.37224326,-1.4730605,-8.7771435,1.6950948,2.8395233
1.200572,0.7925621,0.003497433,-0.37863484,-1.527389,-8.561666,1.6089035,2.8634653
1.2014112,0.7887766,0.003497433,-0.37863484,-1.527389,-8.561666,1.6089035,2.8634653
1.2022822,0.7848745,0.0141500775,-0.3797001,-1.5870438,-8.384495,1.532289,2.8634653
1.2031465,0.7809581,0.0141500775,-0.3797001,-1.5870438,-8.384495,1.532289,2.8634653
1.2040428,0.77691525,0.025867987,-0.3797001,-1.6530902,-8.2169,1.460463,2.9352913
1.2049328,0.77284825,0.025867987,-0.3797001,-1.6530902,-8.2169,1.460463,2.9352913
1.2058511,0.76867485,0.040781688,-0.37863484,-1.7170061,-7.9870567,1.4413095,2.944868
1.2067622,0.7644764,0.040781688,-0.37863484,-1.7170061,-7.9870567,1.4413095,2.944868
1.2077112,0.76014197,0.05782592,-0.3797001,-1.7862482,-7.8290396,1.3599066,2.9640217
1.2086529,0.75578535,0.05782592,-0.3797001,-1.7862482,-7.8290396,1.3599066,2.9640217
1.2096331,0.75128675,0.073804885,-0.37863484,-1.8597515,-7.833828,1.4030021,2.9783869
1.210605,0.7467644,0.073804885,-0.37863484,-1.8597515,-7.833828,1.4030021,2.9783869
1.2116238,0.74209225,0.08871859,-0.37437376,-1.9289937,-7.819463,1.3838485,2.9017725
1.2126317,0.737404,0.08871859,-0.37437376,-1.9289937,-7.819463,1.3838485,2.9017725
1.2136797,0.73258,0.10150176,-0.36585164,-1.99504,-7.833828,1.4413095,2.8778305
1.2147167,0.7277334,0.10150176,-0.36585164,-1.99504,-7.833828,1.4413095,2.8778305
1.2157854,0.72278225,0.11428493,-0.355199,-2.0578907,-7.800309,1.4891934,2.873042
1.2168473,0.7177823,0.11428493,-0.355199,-2.0578907,-7.800309,1.4891934,2.873042
1.217937,0.71270883,0.1270681,-0.33922005,-2.112219,-7.704541,1.5466543,2.8491
1.2190144,0.7076057,0.1270681,-0.33922005,-2.112219,-7.704541,1.5466543,2.8491
1.2201272,0.7024199,0.13878602,-0.31578422,-2.1580255,-7.7093296,1.6041151,2.882619
1.2212248,0.6972196,0.13878602,-0.31578422,-2.1580255,-7.7093296,1.6041151,2.882619
1.2223742,0.6918986,0.1483734,-0.28595683,-2.2006361,-7.7189064,1.6136919,2.8682537
1.2235029,0.68658257,0.1483734,-0.28595683,-2.2006361,-7.7189064,1.6136919,2.8682537
1.2246525,0.6813362,0.15476498,-0.2476073,-2.2347245,-7.762002,1.5849615,2.7964275
1.2257928,0.67604214,0.15476498,-0.2476073,-2.2347245,-7.762002,1.5849615,2.7964275
1.2269884,0.67068285,0.16009131,-0.20180093,-2.2624214,-7.867347,1.5801731,2.7581203
1.2281764,0.6652693,0.16009131,-0.20180093,-2.2624214,-7.867347,1.5801731,2.7581203
1.2294308,0.6598078,0.1664829,-0.1517335,-2.2858572,-8.09719,1.4796166,2.7150247
1.2306727,0.65430427,0.1664829,-0.1517335,-2.2858572,-8.09719,1.4796166,2.7150247
1.2319674,0.64879435,0.17074396,-0.10060081,-2.2986405,-8.312668,1.484405,2.6719291
1.233248,0.64324605,0.17074396,-0.10060081,-2.2986405,-8.312668,1.484405,2.6719291
1.2345748,0.63769335,0.17287448,-0.051598642,-2.3039668,-8.451532,1.4987702,2.6384103
1.2358825,0.6321179,0.17287448,-0.051598642,-2.3039668,-8.451532,1.4987702,2.6384103
1.2372037,0.6266083,0.17393975,-0.0047270046,-2.305032,-8.513782,1.460463,2.753332
1.2385144,0.6210433,0.17393975,-0.0047270046,-2.305032,-8.513782,1.460463,2.753332
1.2398522,0.6155118,0.175005,0.040014103,-2.300771,-8.628703,1.5275006,2.6767175
1.2411759,0.60993814,0.175005,0.040014103,-2.300771,-8.628703,1.5275006,2.6767175
1.2425098,0.60444117,0.17607027,0.08475521,-2.292249,-8.676587,1.5514427,2.681506
1.2438294,0.5989064,0.17607027,0.08475521,-2.292249,-8.676587,1.5514427,2.681506
1.2451851,0.5933779,0.17713554,0.12736578,-2.2837267,-8.710106,1.5035586,2.6431987
1.2465248,0.58781576,0.17713554,0.12736578,-2.2837267,-8.710106,1.5035586,2.6431987
1.2478678,0.5823267,0.175005,0.16784583,-2.2752047,-8.714894,1.5275006,2.6479871
1.249195,0.5768109,0.175005,0.16784583,-2.2752047,-8.714894,1.5275006,2.6479871
1.2505729,0.5712476,0.175005,0.20939115,-2.272009,-8.767567,1.4413095,2.6288335
1.2519333,0.5656504,0.175005,0.20939115,-2.272009,-8.767567,1.4413095,2.6288335
1.2533221,0.56006336,0.17393975,0.25200173,-2.2741394,-8.772355,1.3838485,2.6719291
1.2546946,0.5544402,0.17393975,0.25200173,-2.2741394,-8.772355,1.3838485,2.6719291
1.256117,0.5487727,0.17393975,0.29674283,-2.2837267,-8.820239,1.3215994,2.657564
1.2575227,0.54306537,0.17393975,0.29674283,-2.2837267,-8.820239,1.3215994,2.657564
1.2589736,0.5372951,0.17287448,0.34041867,-2.3071625,-8.863335,1.2737153,2.6719291
1.2604082,0.5314825,0.17287448,0.34041867,-2.3071625,-8.863335,1.2737153,2.6719291
1.2618904,0.5255705,0.17074396,0.37983346,-2.3380551,-8.935161,1.1875241,2.719813
1.263356,0.5196103,0.17074396,0.37983346,-2.3380551,-8.935161,1.1875241,2.719813
1.2648444,0.51356876,0.16861342,0.41392192,-2.3796005,-8.973468,1.2018893,2.7964275
1.2663155,0.5074794,0.16861342,0.41392192,-2.3796005,-8.973468,1.2018893,2.7964275
1.2678416,0.50117314,0.16967869,0.44055355,-2.4328637,-9.097966,1.1587936,2.753332
1.2693648,0.49475154,0.16967869,0.44055355,-2.4328637,-9.097966,1.1587936,2.753332
1.2708621,0.48841068,0.17180921,0.45759776,-2.4957144,-9.279925,1.0965444,2.7341783
1.272474,0.48143607,0.17180921,0.45759776,-2.4957144,-9.279925,1.0965444,2.7341783
1.2740719,0.47446826,0.17393975,0.4661199,-2.5670872,-9.414001,1.1061212,2.6623523
1.2756493,0.46741584,0.17393975,0.4661199,-2.5670872,-9.414001,1.1061212,2.6623523
1.2772319,0.4600501,0.17820081,0.46185884,-2.6437862,-9.524135,1.0965444,2.7246015
1.2787938,0.4525965,0.17820081,0.46185884,-2.6437862,-9.524135,1.0965444,2.7246015
1.2803364,0.44487694,0.1845924,0.44801039,-2.7290072,-9.572019,1.1252748,2.72939
1.2818601,0.43705976,0.1845924,0.44801039,-2.7290072,-9.572019,1.1252748,2.72939
1.2833376,0.42907622,0.19204924,0.42563984,-2.8174243,-9.682152,1.2162545,2.7246015
1.2847906,0.4210606,0.19204924,0.42563984,-2.8174243,-9.682152,1.2162545,2.7246015
1.2862344,0.41308057,0.19950609,0.3968777,-2.9026453,-9.840169,1.3934253,2.7341783
1.2876585,0.40503597,0.19950609,0.3968777,-2.9026453,-9.840169,1.3934253,2.7341783
1.2890811,0.39667842,0.20909347,0.3638545,-2.9868014,-10.022128,1.508347,2.753332
1.2904851,0.38822684,0.20909347,0.3638545,-2.9868014,-10.022128,1.508347,2.753332
1.2919006,0.37948564,0.21655032,0.3276355,-3.065631,-10.328587,1.5562311,2.6910827
1.2932978,0.37060782,0.21655032,0.3276355,-3.065631,-10.328587,1.5562311,2.6910827
1.2946765,0.36135918,0.2229419,0.29354703,-3.1370037,-10.5919485,1.6424223,2.7006595
1.2960224,0.35205328,0.2229419,0.29354703,-3.1370037,-10.5919485,1.6424223,2.7006595
1.2973356,0.34242657,0.23146403,0.25945857,-3.2009194,-10.754754,1.5849615,2.7246015
1.2986236,0.3326667,0.23146403,0.25945857,-3.2009194,-10.754754,1.5849615,2.7246015
1.2998643,0.32262507,0.23998614,0.22856592,-3.2509868,-10.817003,1.4556746,2.777274
1.3010737,0.3124894,0.23998614,0.22856592,-3.2509868,-10.817003,1.4556746,2.777274
1.3022301,0.30209845,0.24850826,0.20726062,-3.2978585,-10.807426,1.2593501,2.8299465
1.3033587,0.29157323,0.24850826,0.20726062,-3.2978585,-10.807426,1.2593501,2.8299465
1.304407,0.28067037,0.2559651,0.19554271,-3.3457954,-10.778696,1.0486604,2.920926
1.3054247,0.26970008,0.2559651,0.19554271,-3.3457954,-10.778696,1.0486604,2.920926
1.3063924,0.25816092,0.26022616,0.19447745,-3.3979933,-10.778696,0.866701,3.0071173
1.3073287,0.24652843,0.26022616,0.19447745,-3.3979933,-10.778696,0.866701,3.0071173
1.3082522,0.23440595,0.2655525,0.20299956,-3.460844,-10.836157,0.7182605,2.9879637
1.3091311,0.22229066,0.2655525,0.20299956,-3.460844,-10.836157,0.7182605,2.9879637
1.3099924,0.20985653,0.27300933,0.21258694,-3.5354125,-10.922348,0.6655881,2.944868
1.3108174,0.19740804,0.27300933,0.21258694,-3.5354125,-10.922348,0.6655881,2.944868
1.3116441,0.18486907,0.2804662,0.216848,-3.6259599,-10.998962,0.7086837,2.930503
1.3124361,0.17225261,0.2804662,0.216848,-3.6259599,-10.998962,0.7086837,2.930503
1.313256,0.15932803,0.29111883,0.21152169,-3.7260947,-11.18571,0.7230489,2.8778305
1.31403,0.14624508,0.29111883,0.21152169,-3.7260947,-11.18571,0.7230489,2.8778305
1.3147572,0.1326979,0.303902,0.19021639,-3.8379476,-11.343728,0.770933,2.8874073
1.3154303,0.119077034,0.303902,0.19021639,-3.8379476,-11.343728,0.770933,2.8874073
1.3160477,0.10490797,0.31668517,0.15186687,-3.956192,-11.468226,0.8331822,2.825158
1.3166093,0.09064915,0.31668517,0.15186687,-3.956192,-11.468226,0.8331822,2.825158
1.3166093,0.09064915,0.31668517,0.15186687,-3.956192,-11.468226,0.8331822,2.825158
1.3166093,0.09064915,0.31668517,0.15186687,-3.956192,-11.468226,0.8331822,2.825158
1.3166093,0.09064915,0.31668517,0.15186687,-3.956192,-11.468226,0.8331822,2.825158
1.3179643,6.281196,0.36036104,-0.062251285,-4.2917504,-12.129025,1.0534488,2.8538885
1.3179643,6.281196,0.36036104,-0.062251285,-4.2917504,-12.129025,1.0534488,2.8538885
1.3179643,6.281196,0.36036104,-0.062251285,-4.2917504,-12.129025,1.0534488,2.8538885
1.3178313,6.2655983,0.37101367,-0.16238615,-4.3791018,-12.172121,1.163582,2.825158
1.3175883,6.249251,0.37101367,-0.16238615,-4.3791018,-12.172121,1.163582,2.825158
1.3171685,6.2332788,0.37740526,-0.27210838,-4.447279,-12.148179,1.2354081,2.8634653
1.3166621,6.216803,0.37740526,-0.27210838,-4.447279,-12.148179,1.2354081,2.8634653
1.3159963,6.201093,0.38060105,-0.38502643,-4.4930854,-11.822568,1.3359646,2.8299465
1.3152459,6.1851034,0.38060105,-0.38502643,-4.4930854,-11.822568,1.3359646,2.8299465
1.3143086,6.1690764,0.37740526,-0.49474865,-4.516521,-11.587936,1.3742718,2.7868507
1.3133037,6.153189,0.37740526,-0.49474865,-4.516521,-11.587936,1.3742718,2.7868507
1.3121244,6.137403,0.36781788,-0.59594876,-4.516521,-11.353305,1.1204864,2.7820623
1.3121244,6.137403,0.36781788,-0.59594876,-4.516521,-11.353305,1.1204864,2.7820623
1.3094853,6.1064024,0.35396942,-0.685431,-4.4930854,-11.166556,0.7565677,2.9592333
1.3080213,6.091394,0.35396942,-0.685431,-4.4930854,-11.166556,0.7565677,2.9592333
1.3064091,6.0766263,0.33905575,-0.7568037,-4.4451485,-10.869676,0.48362875,2.96881
1.3047489,6.062133,0.33905575,-0.7568037,-4.4451485,-10.869676,0.48362875,2.96881
1.3029962,6.048039,0.32733783,-0.80793643,-4.3737755,-10.534488,0.33518824,2.8299465
1.3012005,6.0342174,0.32733783,-0.80793643,-4.3737755,-10.534488,0.33518824,2.8299465
1.2993317,6.020772,0.3188157,-0.834568,-4.2821627,-10.108319,0.2633622,2.7006595
1.2974229,6.0075817,0.3188157,-0.834568,-4.2821627,-10.108319,0.2633622,2.7006595
1.2954369,5.9946275,0.30816308,-0.8388291,-4.1798973,-9.346964,0.2681506,2.5570073
1.2935102,5.98252,0.30816308,-0.8388291,-4.1798973,-9.346964,0.2681506,2.5570073
1.291538,5.970665,0.2985757,-0.81858903,-4.077632,-8.42759,0.39743748,2.432509
1.2895105,5.9588885,0.2985757,-0.81858903,-4.077632,-8.42759,0.39743748,2.432509
1.2874981,5.9475265,0.29005358,-0.77704376,-3.992411,-7.469909,0.5410896,2.336741
1.2854413,5.936287,0.29005358,-0.77704376,-3.992411,-7.469909,0.5410896,2.336741
1.283421,5.9253387,0.27833566,-0.7152584,-3.9338214,-6.5984197,0.7230489,2.2457612
1.2813581,5.9145074,0.27833566,-0.7152584,-3.9338214,-6.5984197,0.7230489,2.2457612
1.2793248,5.903835,0.26022616,-0.64175516,-3.9093204,-5.793968,0.82360536,2.3702598
1.2772487,5.8932643,0.26022616,-0.64175516,-3.9093204,-5.793968,0.82360536,2.3702598
1.2751945,5.8826656,0.23679034,-0.56079507,-3.9210382,-5.0757074,0.842759,2.4229321
1.2731143,5.872251,0.23679034,-0.56079507,-3.9210382,-5.0757074,0.842759,2.4229321
1.271024,5.861603,0.21015874,-0.47770444,-3.968975,-4.6495395,0.7086837,2.7150247
1.2689104,5.851161,0.21015874,-0.47770444,-3.968975,-4.6495395,0.7086837,2.7150247
1.2667923,5.8404675,0.18246186,-0.3967443,-4.047805,-4.343082,0.6560113,2.7341783
1.264639,5.8299294,0.18246186,-0.3967443,-4.047805,-4.343082,0.6560113,2.7341783
1.262469,5.819102,0.15583025,-0.31898,-4.1511354,-4.122815,0.59855044,2.7820623
1.2602615,5.8084335,0.15583025,-0.31898,-4.1511354,-4.122815,0.59855044,2.7820623
1.2580252,5.797458,0.13026391,-0.24654204,-4.270445,-4.0414124,0.5602432,2.791639
1.2557455,5.786625,0.13026391,-0.24654204,-4.270445,-4.0414124,0.5602432,2.791639
1.2534239,5.7754793,0.104697555,-0.17729984,-4.399342,-3.8259344,0.46926352,2.7629087
1.2510856,5.7646117,0.104697555,-0.17729984,-4.399342,-3.8259344,0.46926352,2.7629087
1.2486632,5.753288,0.08019647,-0.11231872,-4.535696,-3.5865142,0.4309563,2.815581
1.2461932,5.7421184,0.08019647,-0.11231872,-4.535696,-3.5865142,0.4309563,2.815581
1.2436674,5.7306523,0.055695392,-0.043076526,-4.6752453,-3.3039982,0.15801731,2.8107927
1.2411025,5.719392,0.055695392,-0.043076526,-4.6752453,-3.3039982,0.15801731,2.8107927
1.2384729,5.7077737,0.032259572,0.03681831,-4.819056,-3.0214825,-0.07182605,2.719813
1.2357998,5.6963577,0.032259572,0.03681831,-4.819056,-3.0214825,-0.07182605,2.719813
1.2330618,5.6845217,0.0066932263,0.1358879,-4.9692583,-2.930503,-0.36870706,2.695871
1.2302866,5.6729307,0.0066932263,0.1358879,-4.9692583,-2.930503,-0.36870706,2.695871
1.2274561,5.660888,-0.022068914,0.25839332,-5.1269174,-2.9735985,-0.6943185,2.6192567
1.2245754,5.649051,-0.022068914,0.25839332,-5.1269174,-2.9735985,-0.6943185,2.6192567
1.2216465,5.636732,-0.052961584,0.40113875,-5.2962947,-3.1603463,-1.0630256,2.5330653
1.2186633,5.624628,-0.052961584,0.40113875,-5.2962947,-3.1603463,-1.0630256,2.5330653
1.2156285,5.6120033,-0.08705004,0.5587979,-5.4752593,-3.5817258,-1.4556746,2.4372973
1.212539,5.599615,-0.08705004,0.5587979,-5.4752593,-3.5817258,-1.4556746,2.4372973
1.2093807,5.5867014,-0.124334306,0.71539176,-5.6627455,-4.237737,-1.7860745,2.384625
1.2061622,5.5740223,-0.124334306,0.71539176,-5.6627455,-4.237737,-1.7860745,2.384625
1.2028583,5.560847,-0.16055329,0.861333,-5.8523626,-4.8123455,-2.1021092,2.2744915
1.1994908,5.5479183,-0.16055329,0.861333,-5.8523626,-4.8123455,-2.1021092,2.2744915
1.196022,5.53458,-0.19251123,0.99023,-6.0398493,-5.439626,-2.408567,2.336741
1.1924933,5.5215263,-0.19251123,0.99023,-6.0398493,-5.439626,-2.408567,2.336741
1.1888266,5.5081167,-0.21701232,1.0914301,-6.22414,-5.7987566,-2.7150247,2.456451
1.185098,5.495002,-0.21701232,1.0914301,-6.22414,-5.7987566,-2.7150247,2.456451
1.1812193,5.4816246,-0.23299128,1.1638681,-6.4063,-6.38773,-2.9017725,2.3319526
1.1772697,5.468526,-0.23299128,1.1638681,-6.4063,-6.38773,-2.9017725,2.3319526
1.173187,5.455167,-0.24364392,1.211805,-6.574612,-7.3071036,-3.0789435,2.054225
1.1690441,5.4421268,-0.24364392,1.211805,-6.574612,-7.3071036,-3.0789435,2.054225
1.164745,5.428952,-0.25429657,1.2352408,-6.726945,-8.025364,-3.347094,1.9919758
1.1603897,5.416099,-0.25429657,1.2352408,-6.726945,-8.025364,-3.347094,1.9919758
1.1559023,5.4033065,-0.2660145,1.2405671,-6.8590374,-8.590396,-3.4572272,1.9680338
1.1513525,5.390797,-0.2660145,1.2405671,-6.8590374,-8.590396,-3.4572272,1.9680338
1.1466485,5.3784204,-0.27879766,1.2299145,-6.9698253,-8.968679,-3.5769374,2.0829554
1.1418873,5.3663263,-0.27879766,1.2299145,-6.9698253,-8.968679,-3.5769374,2.0829554
1.1370113,5.3544407,-0.29158083,1.207544,-7.0603724,-9.3182335,-3.5865142,2.0925324
1.1320853,5.3428383,-0.29158083,1.207544,-7.0603724,-9.3182335,-3.5865142,2.0925324
1.1270609,5.3315067,-0.30542925,1.1766512,-7.1317453,-9.533711,-3.4811692,1.9632454
1.1220225,5.32053,-0.30542925,1.1766512,-7.1317453,-9.533711,-3.4811692,1.9632454
1.1168272,5.309706,-0.32034296,1.1414975,-7.1839433,-9.605537,-3.4620156,1.958457
1.111569,5.299121,-0.32034296,1.1414975,-7.1839433,-9.605537,-3.4620156,1.958457
1.1062405,5.288836,-0.340583,1.1074091,-7.2201624,-9.734824,-3.5194764,1.8339585
1.1009,5.2788644,-0.340583,1.1074091,-7.2201624,-9.734824,-3.5194764,1.8339585
1.0954362,5.2690616,-0.36508408,1.0743859,-7.243598,-9.844957,-3.643975,1.8531121
1.0899205,5.259482,-0.36508408,1.0743859,-7.243598,-9.844957,-3.643975,1.8531121
1.0843358,5.2501407,-0.39278096,1.0413626,-7.2542505,-9.945514,-3.7684734,1.7908629
1.0787241,5.241047,-0.39278096,1.0413626,-7.2542505,-9.945514,-3.7684734,1.7908629
1.0730505,5.232175,-0.4215431,1.0083395,-7.25212,-10.012551,-3.9600096,1.7669208
1.067348,5.2235284,-0.4215431,1.0083395,-7.25212,-10.012551,-3.9600096,1.7669208
1.0615854,5.215081,-0.45243576,0.97425103,-7.235076,-9.959879,-4.146757,1.7190368
1.0558033,5.2068553,-0.45243576,0.97425103,-7.235076,-9.959879,-4.146757,1.7190368
1.0499777,5.1988344,-0.4811979,0.94016254,-7.207379,-9.959879,-4.405331,1.733402
1.0441365,5.191021,-0.4811979,0.94016254,-7.207379,-9.959879,-4.405331,1.733402
1.0382528,5.183393,-0.50996006,0.90713936,-7.166899,-9.816227,-4.6016555,1.8291701
1.0323572,5.1759615,-0.50996006,0.90713936,-7.166899,-9.816227,-4.6016555,1.8291701
1.0264444,5.168728,-0.53872216,0.8730509,-7.1189623,-9.696517,-4.8123455,1.8195933
1.0205288,5.161685,-0.53872216,0.8730509,-7.1189623,-9.696517,-4.8123455,1.8195933
1.0145743,5.154798,-0.5642885,0.83896244,-7.058242,-9.634268,-5.032612,1.7956513
1.008626,5.148096,-0.5642885,0.83896244,-7.058242,-9.634268,-5.032612,1.7956513
1.0026796,5.141582,-0.5877243,0.804874,-6.9879346,-9.552865,-5.243302,1.7908629
0.99671876,5.135214,-0.5877243,0.804874,-6.9879346,-9.552865,-5.243302,1.7908629
0.99077725,5.1290345,-0.60902965,0.772916,-6.9080396,-9.504981,-5.463568,1.7717092
0.9848412,5.1230083,-0.60902965,0.772916,-6.9080396,-9.504981,-5.463568,1.7717092
0.97888786,5.117125,-0.6282044,0.73989284,-6.8185577,-9.466674,-5.78918,1.8387469
0.97294366,5.111384,-0.6282044,0.73989284,-6.8185577,-9.466674,-5.78918,1.8387469
0.9670327,5.1058216,-0.64737916,0.7079349,-6.7162924,-9.495404,-6.105214,1.9632454
0.9611164,5.1003733,-0.64737916,0.7079349,-6.7162924,-9.495404,-6.105214,1.9632454
0.95524216,5.095109,-0.66229284,0.67491174,-6.599113,-9.414001,-6.3829417,1.9871874
0.9493756,5.0899568,-0.66229284,0.67491174,-6.599113,-9.414001,-6.3829417,1.9871874
0.9435405,5.0849724,-0.67401075,0.64401907,-6.469151,-9.351752,-6.6893997,2.030283
0.93771255,5.0800886,-0.67401075,0.64401907,-6.469151,-9.351752,-6.6893997,2.030283
0.93195194,5.075402,-0.6793371,0.6184527,-6.324275,-9.131485,-7.0006456,2.054225
0.92618364,5.0707955,-0.6793371,0.6184527,-6.324275,-9.131485,-7.0006456,2.054225
0.92051303,5.0663824,-0.6793371,0.6003432,-6.1698117,-8.772355,-7.264008,2.0207062
0.91485,5.0620556,-0.6793371,0.6003432,-6.1698117,-8.772355,-7.264008,2.0207062
0.909279,5.057866,-0.67401075,0.5950169,-6.012152,-8.331821,-7.469909,1.8866309
0.90371555,5.0537567,-0.67401075,0.5950169,-6.012152,-8.331821,-7.469909,1.8866309
0.8982748,5.0497923,-0.66548866,0.60460424,-5.8598194,-7.8050976,-7.675811,1.8483237
0.8928517,5.0459094,-0.66548866,0.60460424,-5.8598194,-7.8050976,-7.675811,1.8483237
0.88750905,5.042086,-0.654836,0.6291053,-5.723466,-7.3549876,-7.7667904,1.6472107
0.8820883,5.038272,-0.654836,0.6291053,-5.723466,-7.3549876,-7.7667904,1.6472107
0.8768292,5.0345674,-0.6463139,0.66532433,-5.6094823,-7.0341644,-7.881712,1.5705963
0.8716925,5.031008,-0.6463139,0.66532433,-5.6094823,-7.0341644,-7.881712,1.5705963
0.8665695,5.027444,-0.6409876,0.70686966,-5.52,-6.9048777,-8.010999,1.5658079
0.8613088,5.0238442,-0.6409876,0.70686966,-5.52,-6.9048777,-8.010999,1.5658079
0.85632604,5.0204167,-0.6367265,0.748415,-5.455019,-6.895301,-8.130709,1.5227122
0.85123855,5.0169716,-0.6367265,0.748415,-5.455019,-6.895301,-8.130709,1.5227122
0.84619373,5.013549,-0.6324654,0.7814382,-5.410278,-7.015011,-8.2169,1.4939818
0.8411108,5.010153,-0.6324654,0.7814382,-5.410278,-7.015011,-8.2169,1.4939818
0.83610094,5.0068283,-0.6250086,0.8006129,-5.3804507,-7.2065473,-8.24563,1.5562311
0.8310836,5.003548,-0.6250086,0.8006129,-5.3804507,-7.2065473,-8.24563,1.5562311
0.82606655,5.0003133,-0.61542124,0.8016782,-5.3602104,-7.350199,-8.24563,1.5753847
0.8210533,4.9971266,-0.61542124,0.8016782,-5.3602104,-7.350199,-8.24563,1.5753847
0.81595683,4.9939594,-0.6037033,0.7835687,-5.3484926,-7.4028716,-8.178593,1.5849615
0.8109751,4.9909067,-0.6037033,0.7835687,-5.3484926,-7.4028716,-8.178593,1.5849615
0.8059226,4.987899,-0.5898549,0.74948025,-5.33784,-7.541735,-8.058883,1.6424223
0.8009113,4.984954,-0.5898549,0.74948025,-5.33784,-7.541735,-8.058883,1.6424223
0.79585207,4.982109,-0.5738759,0.69728225,-5.3261223,-7.4363904,-7.9391727,1.7190368
0.79079914,4.979305,-0.5738759,0.69728225,-5.3261223,-7.4363904,-7.9391727,1.7190368
0.78572965,4.9766297,-0.5578969,0.6301706,-5.3112082,-7.1730285,-7.785944,1.7046716
0.78067213,4.9739943,-0.5578969,0.6301706,-5.3112082,-7.1730285,-7.785944,1.7046716
0.7755761,4.971473,-0.54298323,0.5556021,-5.289903,-6.7564373,-7.5321584,1.6136919
0.7704926,4.968989,-0.54298323,0.5556021,-5.289903,-6.7564373,-7.5321584,1.6136919
0.76540744,4.9666266,-0.5291348,0.4799683,-5.266467,-6.4020953,-7.1634517,1.541866
0.7603359,4.9642982,-0.5291348,0.4799683,-5.266467,-6.4020953,-7.1634517,1.541866
0.75523293,4.9620686,-0.521678,0.40966088,-5.2398357,-5.9759274,-6.9240313,1.4413095
0.7501438,4.9598703,-0.521678,0.40966088,-5.2398357,-5.9759274,-6.9240313,1.4413095
0.7501438,4.9598703,-0.525939,0.29248178,-5.1823115,-5.305551,-6.4547677,1.2880806
0.7339999,4.9534345,-0.525939,0.29248178,-5.1823115,-5.305551,-6.4547677,1.2880806
0.7339999,4.9534345,-0.525939,0.29248178,-5.1823115,-5.305551,-6.4547677,1.2880806
0.72965,4.9517355,-0.525939,0.29248178,-5.1823115,-5.305551,-6.4547677,1.2880806
0.7246286,4.949836,-0.53872216,0.24561015,-5.1514187,-5.0613422,-6.2871737,1.2641385
0.71947956,4.947908,-0.53872216,0.24561015,-5.1514187,-5.0613422,-6.2871737,1.2641385
0.71446675,4.946087,-0.5589622,0.2051301,-5.1183953,-4.759673,-6.1243677,1.2497733
0.71446675,4.946087,-0.5589622,0.2051301,-5.1183953,-4.759673,-6.1243677,1.2497733
0.7045389,4.942539,-0.582398,0.17104164,-5.080046,-4.309563,-5.9519854,1.115698
0.6995198,4.940774,-0.582398,0.17104164,-5.080046,-4.309563,-5.9519854,1.115698
0.69452,4.939031,-0.61116016,0.1508016,-5.0374355,-3.7924154,-5.899313,1.0342951
0.6895129,4.9373045,-0.61116016,0.1508016,-5.0374355,-3.7924154,-5.899313,1.0342951
0.6845534,4.935577,-0.6420528,0.14334476,-4.991629,-3.5577838,-5.779603,0.94810385
0.67958164,4.933863,-0.6420528,0.14334476,-4.991629,-3.5577838,-5.779603,0.94810385
0.67465556,4.932175,-0.6772066,0.15186687,-4.9458227,-3.3518825,-5.884948,1.1683705
0.6697223,4.930503,-0.6772066,0.15186687,-4.9458227,-3.3518825,-5.884948,1.1683705
0.6648136,4.9288273,-0.71236026,0.1689111,-4.9000163,-3.3327289,-5.9519854,1.3694834
0.66011816,4.9272413,-0.71236026,0.1689111,-4.9000163,-3.3327289,-5.9519854,1.3694834
0.6552801,4.92558,-0.7421877,0.18489006,-4.859536,-3.0789435,-5.813122,1.388637
0.6502512,4.9238725,-0.7421877,0.18489006,-4.859536,-3.0789435,-5.813122,1.388637
0.64542794,4.9222007,-0.77521086,0.19767325,-4.8201213,-2.6719291,-5.731719,1.4030021
0.6406604,4.9205656,-0.77521086,0.19767325,-4.8201213,-2.6719291,-5.731719,1.4030021
0.6359018,4.9188995,-0.8103646,0.21471748,-4.7775106,-2.5617957,-5.746084,1.5035586
0.6311226,4.9172435,-0.8103646,0.21471748,-4.7775106,-2.5617957,-5.746084,1.5035586
0.6264117,4.9155703,-0.8487141,0.23282696,-4.73277,-2.5474305,-5.6790466,1.5466543
0.621704,4.9139147,-0.8487141,0.23282696,-4.73277,-2.5474305,-5.6790466,1.5466543
0.6170378,4.912224,-0.89025944,0.2466754,-4.684833,-2.4612393,-5.765238,1.541866
0.6123706,4.9105473,-0.89025944,0.2466754,-4.684833,-2.4612393,-5.765238,1.541866
0.60775304,4.908843,-0.9296742,0.25626278,-4.632635,-2.4277205,-5.8801594,1.541866
0.60313416,4.9071536,-0.9296742,0.25626278,-4.632635,-2.4277205,-5.8801594,1.541866
0.5985259,4.9054265,-0.9658932,0.26052386,-4.57298,-2.4133554,-6.0621185,1.5610195
0.5940031,4.9037457,-0.9658932,0.26052386,-4.57298,-2.4133554,-6.0621185,1.5610195
0.5895113,4.9020405,-1.0021123,0.26371965,-4.5026727,-2.4037786,-6.3063273,1.7286136
0.5850229,4.90035,-1.0021123,0.26371965,-4.5026727,-2.4037786,-6.3063273,1.7286136
0.5806051,4.8986416,-1.0351354,0.2647849,-4.4217124,-2.4133554,-6.5936313,1.7381904
0.5761861,4.8969455,-1.0351354,0.2647849,-4.4217124,-2.4133554,-6.5936313,1.7381904
0.57185924,4.89524,-1.0638976,0.26691544,-4.3258386,-2.327164,-6.981492,1.8435353
0.56753564,4.8935485,-1.0638976,0.26691544,-4.3258386,-2.327164,-6.981492,1.8435353
0.56331384,4.8918476,-1.0883986,0.27330703,-4.2161164,-2.2984335,-7.321469,1.9009962
0.5590907,4.8901587,-1.0883986,0.27330703,-4.2161164,-2.2984335,-7.321469,1.9009962
0.55498946,4.888458,-1.1086386,0.28715545,-4.08935,-2.2697031,-7.6853876,1.8770541
0.5508871,4.886768,-1.1086386,0.28715545,-4.08935,-2.2697031,-7.6853876,1.8770541
0.5469196,4.885066,-1.1224871,0.31059128,-3.9508657,-2.2601264,-8.054094,1.8195933
0.5429509,4.8833747,-1.1224871,0.31059128,-3.9508657,-2.2601264,-8.054094,1.8195933
0.5391332,4.88167,-1.1320745,0.34467974,-3.7985327,-2.1643584,-8.537724,1.7764976
0.5353105,4.8799725,-1.1320745,0.34467974,-3.7985327,-2.1643584,-8.537724,1.7764976
0.5316584,4.878268,-1.1363355,0.38835558,-3.6366127,-2.1452048,-8.99741,1.7525556
0.5280014,4.8765707,-1.1363355,0.38835558,-3.6366127,-2.1452048,-8.99741,1.7525556
0.5245105,4.874858,-1.1331397,0.44587985,-3.4704313,-2.030283,-9.452309,1.6759412
0.5210251,4.8731575,-1.1331397,0.44587985,-3.4704313,-2.030283,-9.452309,1.6759412
0.51770586,4.871444,-1.1224871,0.5140568,-3.3063807,-2.111686,-9.868899,1.6041151
0.514385,4.8697395,-1.1224871,0.5140568,-3.3063807,-2.111686,-9.868899,1.6041151
0.5112324,4.868024,-1.1065081,0.5918211,-3.1455257,-2.2649148,-10.366894,1.5610195
0.50807804,4.8663163,-1.1065081,0.5918211,-3.1455257,-2.2649148,-10.366894,1.5610195
0.5050858,4.8646083,-1.0852028,0.67278117,-2.9921277,-2.6862943,-10.783484,1.661576
0.50208884,4.8629065,-1.0852028,0.67278117,-2.9921277,-2.6862943,-10.783484,1.661576
0.49925098,4.8612103,-1.0596365,0.74948025,-2.8461864,-3.1747115,-11.238382,1.6903064
0.49643105,4.859534,-1.0596365,0.74948025,-2.8461864,-3.1747115,-11.238382,1.6903064
0.4937309,4.8578587,-1.0287439,0.8165919,-2.707702,-3.8019924,-11.587936,1.7908629
0.49100748,4.8561788,-1.0287439,0.8165919,-2.707702,-3.8019924,-11.587936,1.7908629
0.48844585,4.854526,-0.99252486,0.8698551,-2.5724134,-4.429273,-11.99495,1.6663644
0.4858951,4.852889,-0.99252486,0.8698551,-2.5724134,-4.429273,-11.99495,1.6663644
0.48347282,4.851265,-0.9499143,0.90926987,-2.433929,-5.291186,-12.3876,1.5897499
0.48103625,4.849641,-0.9499143,0.90926987,-2.433929,-5.291186,-12.3876,1.5897499
0.47877976,4.8480234,-0.90410787,0.93483627,-2.2901185,-6.2105594,-12.785037,1.5227122
0.47652292,4.8464136,-0.90410787,0.93483627,-2.2901185,-6.2105594,-12.785037,1.5227122
0.4746169,4.8448496,-0.8508447,0.94122785,-2.135655,-7.062895,-13.13459,1.5897499
0.47272316,4.843302,-0.8508447,0.94122785,-2.135655,-7.062895,-13.13459,1.5897499
0.4710339,4.841891,-0.78905934,0.93164045,-1.9652127,-7.809886,-13.335704,1.6376339
0.46934244,4.8404865,-0.78905934,0.93164045,-1.9652127,-7.809886,-13.335704,1.6376339
0.4678178,4.8391814,-0.71875185,0.9039436,-1.7798567,-8.346188,-13.469779,1.6807296
0.4663193,4.837905,-0.71875185,0.9039436,-1.7798567,-8.346188,-13.469779,1.6807296
0.46498302,4.836724,-0.6431181,0.86026776,-1.583848,-8.719683,-13.43626,1.7046716
0.46362704,4.8355308,-0.6431181,0.86026776,-1.583848,-8.719683,-13.43626,1.7046716
0.46250132,4.834495,-0.562158,0.804874,-1.382513,-8.978256,-13.335704,1.685518
0.46137673,4.8334646,-0.562158,0.804874,-1.382513,-8.978256,-13.335704,1.685518
0.4604468,4.8325644,-0.48013264,0.7366971,-1.1822433,-9.078813,-13.120225,1.5801731
0.4595029,4.8316536,-0.48013264,0.7366971,-1.1822433,-9.078813,-13.120225,1.5801731
0.45874348,4.8308735,-0.39597675,0.655737,-0.98410416,-9.021352,-12.847286,1.4700398
0.4579835,4.830095,-0.39597675,0.655737,-0.98410416,-9.021352,-12.847286,1.4700398
0.45740157,4.8294477,-0.31501663,0.5641242,-0.79235655,-8.978256,-12.559982,1.3215994
0.45682067,4.828802,-0.31501663,0.5641242,-0.79235655,-8.978256,-12.559982,1.3215994
0.45641014,4.8282905,-0.23938286,0.46398935,-0.6080658,-8.901642,-12.258312,1.2306197
0.45599827,4.8277774,-0.23938286,0.46398935,-0.6080658,-8.901642,-12.258312,1.2306197
0.4557433,4.827402,-0.16694488,0.35000607,-0.43762347,-8.724471,-11.942278,1.1587936
0.45548794,4.827027,-0.16694488,0.35000607,-0.43762347,-8.724471,-11.942278,1.1587936
0.45537496,4.826786,-0.09876795,0.22856592,-0.27996433,-8.566454,-11.659762,1.0821792
0.4552619,4.826545,-0.09876795,0.22856592,-0.27996433,-8.566454,-11.659762,1.0821792
0.45527905,4.826433,-0.03698262,0.09753838,-0.13295783,-8.322245,-11.358093,0.9816227
0.45529634,4.826321,-0.03698262,0.09753838,-0.13295783,-8.322245,-11.358093,0.9816227
0.4554327,4.826336,0.020541664,-0.035619672,0.0033960221,-8.054094,-11.118672,0.90979666
0.45556962,4.82635,0.020541664,-0.035619672,0.0033960221,-8.054094,-11.118672,0.90979666
0.4558181,4.826487,0.07273962,-0.17090826,0.13229302,-7.675811,-10.836157,0.8714894
0.45606622,4.826624,0.07273962,-0.17090826,0.13229302,-7.675811,-10.836157,0.8714894
0.4564172,4.8268743,0.12174179,-0.30513158,0.25373316,-7.1969705,-10.539276,0.79008657
0.45676842,4.8271255,0.12174179,-0.30513158,0.25373316,-7.1969705,-10.539276,0.79008657
0.45721132,4.8274846,0.1664829,-0.4361591,0.36558592,-6.6367273,-10.271125,0.79008657
0.45765293,4.8278427,0.1664829,-0.4361591,0.36558592,-6.6367273,-10.271125,0.79008657
0.45817062,4.8282914,0.20696294,-0.5618603,0.4689166,-5.93762,-10.065224,0.7661445
0.45869145,4.828743,0.20696294,-0.5618603,0.4689166,-5.93762,-10.065224,0.7661445
0.4592608,4.8292675,0.24318193,-0.6758436,0.56052935,-5.3247046,-9.744401,0.770933
0.45982498,4.829788,0.24318193,-0.6758436,0.56052935,-5.3247046,-9.744401,0.770933
0.4603477,4.830374,0.27513987,-0.7802395,0.64148945,-4.6160207,-9.514558,0.7182605
0.46088126,4.8309746,0.27513987,-0.7802395,0.64148945,-4.6160207,-9.514558,0.7182605
0.46137577,4.8316517,0.30283675,-0.8718523,0.7107316,-3.9983168,-9.279925,0.6751649
0.46187854,4.8323402,0.30283675,-0.8718523,0.7107316,-3.9983168,-9.279925,0.6751649
0.46240216,4.8331227,0.32414204,-0.9485513,0.76719064,-3.4141316,-9.078813,0.6799533
0.46292487,4.8339047,0.32414204,-0.9485513,0.76719064,-3.4141316,-9.078813,0.6799533
0.46347582,4.8347573,0.34225154,-1.0103366,0.8140623,-2.8443117,-8.868123,0.6991069
0.46402848,4.8356133,0.34225154,-1.0103366,0.8140623,-2.8443117,-8.868123,0.6991069
0.4646069,4.836512,0.35396942,-1.056143,0.85028124,-2.3558946,-8.662222,0.6703765
0.4646069,4.836512,0.35396942,-1.056143,0.85028124,-2.3558946,-8.662222,0.6703765
0.4657798,4.8383355,0.3614263,-1.0870357,0.88010865,-1.910573,-8.42759,0.6607997
0.46637544,4.839261,0.3614263,-1.0870357,0.88010865,-1.910573,-8.42759,0.6607997
0.46699476,4.840208,0.36568734,-1.10408,0.90460974,-1.5179238,-8.269572,0.62249243
0.46761253,4.841155,0.36568734,-1.10408,0.90460974,-1.5179238,-8.269572,0.62249243
0.46824804,4.8421106,0.36781788,-1.108341,0.9237845,-1.1300632,-8.111555,0.56982
0.4688824,4.843067,0.36781788,-1.108341,0.9237845,-1.1300632,-8.111555,0.56982
0.46953171,4.844019,0.3646221,-1.0987536,0.93869823,-0.81881696,-7.8769236,0.521936
0.4701794,4.8449697,0.3646221,-1.0987536,0.93869823,-0.81881696,-7.8769236,0.521936
0.47083846,4.845903,0.35716522,-1.0742525,0.9472203,-0.58418524,-7.680599,0.44532153
0.47149783,4.8468385,0.35716522,-1.0742525,0.9472203,-0.58418524,-7.680599,0.44532153
0.47216678,4.8477488,0.34757784,-1.0380335,0.95467716,-0.31124622,-7.469909,0.45010993
0.47283486,4.8486605,0.34757784,-1.0380335,0.95467716,-0.31124622,-7.469909,0.45010993
0.4735127,4.849534,0.33159888,-0.9890314,0.95893824,-0.11492168,-7.2927384,0.45010993
0.47418964,4.8504095,0.33159888,-0.9890314,0.95893824,-0.11492168,-7.2927384,0.45010993
0.4748721,4.8512325,0.30922833,-0.9283113,0.95680773,0.062249243,-7.0820484,0.41180268
0.47555378,4.8520565,0.30922833,-0.9283113,0.95680773,0.062249243,-7.0820484,0.41180268
0.47623825,4.852819,0.2825967,-0.85693854,0.95041615,0.1340753,-6.9048777,0.4261679
0.47692192,4.853583,0.2825967,-0.85693854,0.95041615,0.1340753,-6.9048777,0.4261679
0.47692192,4.853583,0.2825967,-0.85693854,0.95041615,0.1340753,-6.9048777,0.4261679
0.47832683,4.855007,0.25383458,-0.77704376,0.94402456,0.18674773,-6.8186865,0.45968673
0.47899348,4.8556113,0.22081138,-0.6918226,0.93230665,0.17717093,-6.6271505,0.47884035
0.479674,4.856229,0.22081138,-0.6918226,0.93230665,0.17717093,-6.6271505,0.47884035
0.48035544,4.8567643,0.18352713,-0.60340565,0.9152624,0.095768064,-6.555324,0.40222588
0.4810373,4.857301,0.18352713,-0.60340565,0.9152624,0.095768064,-6.555324,0.40222588
0.481709,4.8577495,0.14411235,-0.51072764,0.8928918,-0.08140286,-6.4260373,0.4309563
0.48238185,4.858199,0.14411235,-0.51072764,0.8928918,-0.08140286,-6.4260373,0.4309563
0.48304555,4.858558,0.10363229,-0.41698435,0.86945605,-0.32561144,-6.4068837,0.45968673
0.48370692,4.858917,0.10363229,-0.41698435,0.86945605,-0.32561144,-6.4068837,0.45968673
0.4843575,4.8591757,0.061021715,-0.3221758,0.84388965,-0.50757074,-6.4404025,0.36870706
0.4850093,4.8594346,0.061021715,-0.3221758,0.84388965,-0.50757074,-6.4404025,0.36870706
0.48564833,4.8595977,0.018411135,-0.2294978,0.81725806,-0.81881696,-6.4499793,0.38307226
0.48628783,4.859761,0.018411135,-0.2294978,0.81725806,-0.81881696,-6.4499793,0.38307226
0.48690775,4.8598356,-0.025264706,-0.14108086,0.7863654,-0.9768343,-6.6079965,0.46926352
0.48753265,4.859911,-0.025264706,-0.14108086,0.7863654,-0.9768343,-6.6079965,0.46926352
0.48813277,4.85989,-0.06787529,-0.054794434,0.75440747,-1.436521,-6.8426285,0.49799395
0.48873627,4.85987,-0.06787529,-0.054794434,0.75440747,-1.436521,-6.8426285,0.49799395
0.48932454,4.8597546,-0.10515954,0.026165664,0.7192537,-1.7908629,-6.8522053,0.4405331
0.48990458,4.859641,-0.10515954,0.026165664,0.7192537,-1.7908629,-6.8522053,0.4405331
0.48990458,4.859641,-0.10515954,0.026165664,0.7192537,-1.7908629,-6.8522053,0.4405331
0.4910157,4.8592525,-0.14031327,0.09540785,0.67770845,-1.9297266,-6.933608,0.41180268
0.49155307,4.8589764,-0.17440173,0.15612793,0.6329673,-2.1021092,-7.07726,0.39264908
0.49155307,4.8589764,-0.17440173,0.15612793,0.6329673,-2.1021092,-7.07726,0.39264908
0.49222758,4.858629,-0.20635967,0.20726062,0.58076936,-2.3175871,-7.335834,0.50278234
0.49304068,4.8580694,-0.20635967,0.20726062,0.58076936,-2.3175871,-7.335834,0.50278234
0.49348277,4.857668,-0.23618707,0.25093648,0.5200493,-2.480393,-7.489063,0.5793968
0.49348277,4.857668,-0.23618707,0.25093648,0.5200493,-2.480393,-7.489063,0.5793968
0.4943275,4.8568215,-0.2617534,0.289286,0.45293763,-2.5617957,-7.651869,0.48841715
0.49464297,4.856439,-0.2617534,0.289286,0.45293763,-2.5617957,-7.651869,0.48841715
0.49493587,4.855961,-0.28518924,0.3212439,0.38156492,-2.7150247,-7.833828,0.60812724
0.49523166,4.855478,-0.28518924,0.3212439,0.38156492,-2.7150247,-7.833828,0.60812724
0.49546203,4.8549495,-0.30329874,0.34681025,0.3069964,-2.8874073,-7.97748,0.56982
0.49546203,4.8549495,-0.30329874,0.34681025,0.3069964,-2.8874073,-7.97748,0.56982
0.49589837,4.853899,-0.3192777,0.3670503,0.23136261,-3.0119057,-8.145074,0.62728083
0.4960587,4.8533254,-0.3192777,0.3670503,0.23136261,-3.0119057,-8.145074,0.62728083
0.49614537,4.85273,-0.33312613,0.3851598,0.15359831,-3.1124623,-8.322245,0.5602432
0.49622783,4.852161,-0.33312613,0.3851598,0.15359831,-3.1124623,-8.322245,0.5602432
0.4962427,4.8515406,-0.3437788,0.40113875,0.08009506,-3.2800562,-8.456321,0.62728083
0.4962577,4.850894,-0.3437788,0.40113875,0.08009506,-3.2800562,-8.456321,0.62728083
0.4962126,4.8502483,-0.35123563,0.4171177,0.012983402,-3.514688,-8.566454,0.6464345
0.49616703,4.8496065,-0.35123563,0.4171177,0.012983402,-3.514688,-8.566454,0.6464345
0.4960682,4.848937,-0.35656196,0.43096617,-0.04773667,-3.739743,-8.695741,0.6703765
0.49596763,4.8482614,-0.35656196,0.43096617,-0.04773667,-3.739743,-8.695741,0.6703765
0.49580935,4.8475375,-0.35975775,0.44374934,-0.10526095,-3.916914,-8.882488,0.6799533
0.49566117,4.8468637,-0.35975775,0.44374934,-0.10526095,-3.916914,-8.882488,0.6799533
0.49547046,4.8462014,-0.35975775,0.44907564,-0.15639365,-4.122815,-8.935161,0.770933
0.49527088,4.8455114,-0.35975775,0.44907564,-0.15639365,-4.122815,-8.935161,0.770933
0.49504024,4.8448052,-0.35869247,0.45227146,-0.19900422,-4.3047748,-9.016563,0.770933
0.49480936,4.844102,-0.35869247,0.45227146,-0.19900422,-4.3047748,-9.016563,0.770933
0.49455252,4.8433948,-0.35656196,0.45014092,-0.23415795,-4.4723687,-9.064447,0.81881696
0.49429432,4.8426867,-0.35656196,0.45014092,-0.23415795,-4.4723687,-9.064447,0.81881696
0.49403542,4.8419724,-0.35230088,0.4448146,-0.26185483,-4.7022123,-9.232041,0.79008657
0.4937759,4.841257,-0.35230088,0.4448146,-0.26185483,-4.7022123,-9.232041,0.79008657
0.49350378,4.840547,-0.34697458,0.43629247,-0.28422537,-4.8698063,-9.356541,0.866701
0.4932321,4.8398395,-0.34697458,0.43629247,-0.28422537,-4.8698063,-9.356541,0.866701
0.49297157,4.8391414,-0.3395177,0.42244405,-0.29807383,-5.0613422,-9.500193,0.90021986
0.4927117,4.8384438,-0.3395177,0.42244405,-0.29807383,-5.0613422,-9.500193,0.90021986
0.4924897,4.8377657,-0.32993034,0.40753034,-0.30233487,-5.291186,-9.619903,0.866701
0.4922683,4.8370886,-0.32993034,0.40753034,-0.30233487,-5.291186,-9.619903,0.866701
0.4920687,4.8364363,-0.31821242,0.39261663,-0.29913908,-5.4204726,-9.667787,0.8379706
0.49186987,4.835785,-0.31821242,0.39261663,-0.29913908,-5.4204726,-9.667787,0.8379706
0.4917097,4.835168,-0.30542925,0.37770292,-0.2863559,-5.5162406,-9.710882,0.93373865
0.49155015,4.8345494,-0.30542925,0.37770292,-0.2863559,-5.5162406,-9.710882,0.93373865
0.4914231,4.8339663,-0.29158083,0.36491975,-0.26718116,-5.631162,-9.768343,0.93852705
0.49129686,4.8333836,-0.29158083,0.36491975,-0.26718116,-5.631162,-9.768343,0.93852705
0.49120265,4.8328295,-0.27879766,0.35320187,-0.2448106,-5.707777,-9.758766,0.94331545
0.49110934,4.832278,-0.27879766,0.35320187,-0.2448106,-5.707777,-9.758766,0.94331545
0.49104473,4.83175,-0.2660145,0.34467974,-0.22030951,-5.779603,-9.768343,0.93852705
0.49098054,4.8312235,-0.2660145,0.34467974,-0.22030951,-5.779603,-9.768343,0.93852705
0.49093276,4.8307033,-0.25429657,0.33722287,-0.19154738,-5.81791,-9.830592,0.8619126
0.49088573,4.8301835,-0.25429657,0.33722287,-0.19154738,-5.81791,-9.830592,0.8619126
0.49088126,4.829699,-0.24257866,0.32976604,-0.1638505,-5.884948,-9.830592,0.93852705
0.4908773,4.829216,-0.24257866,0.32976604,-0.1638505,-5.884948,-9.830592,0.93852705
0.4909066,4.828756,-0.23086074,0.32337445,-0.1340231,-6.0142345,-9.921572,0.9528923
0.49093628,4.8282967,-0.23086074,0.32337445,-0.1340231,-6.0142345,-9.921572,0.9528923
0.4910056,4.827873,-0.21807757,0.31804812,-0.10206516,-6.114791,-9.964667,1.0247183
0.49107504,4.8274503,-0.21807757,0.31804812,-0.10206516,-6.114791,-9.964667,1.0247183
0.49117634,4.827046,-0.20422913,0.31165653,-0.06904196,-6.205771,-9.983821,1.0055647
0.4912778,4.826642,-0.20422913,0.31165653,-0.06904196,-6.205771,-9.983821,1.0055647
0.49141377,4.826259,-0.18825017,0.3041997,-0.03282297,-6.220136,-10.070012,1.0103531
0.49154976,4.825877,-0.18825017,0.3041997,-0.03282297,-6.220136,-10.070012,1.0103531
0.49172354,4.8255253,-0.17333646,0.29248178,0.0044612866,-6.2392898,-10.079589,1.0390835
0.49189734,4.825174,-0.17333646,0.29248178,0.0044612866,-6.2392898,-10.079589,1.0390835
0.492109,4.8248577,-0.1573575,0.27756807,0.041745543,-6.1770406,-10.108319,1.091756
0.49232024,4.824543,-0.1573575,0.27756807,0.041745543,-6.1770406,-10.108319,1.091756
0.49256685,4.8242526,-0.13818274,0.2615891,0.08009506,-6.133945,-10.089166,1.067814
0.49281356,4.8239627,-0.13818274,0.2615891,0.08009506,-6.133945,-10.089166,1.067814
0.49309018,4.823698,-0.122203775,0.24241436,0.11311826,-6.0238113,-10.012551,1.0534488
0.49336702,4.8234344,-0.122203775,0.24241436,0.11311826,-6.0238113,-10.012551,1.0534488
0.4936715,4.823195,-0.106224805,0.22110906,0.1450762,-5.884948,-9.998186,1.0486604
0.49397632,4.8229556,-0.106224805,0.22110906,0.1450762,-5.884948,-9.998186,1.0486604
0.49430412,4.8227487,-0.089180574,0.19767325,0.17064254,-5.7365074,-9.854534,1.043872
0.4946325,4.822542,-0.089180574,0.19767325,0.17064254,-5.7365074,-9.854534,1.043872
0.49497828,4.8223615,-0.07320161,0.17317216,0.1930131,-5.6359506,-9.792285,1.0342951
0.4953244,4.8221817,-0.07320161,0.17317216,0.1930131,-5.6359506,-9.792285,1.0342951
0.49568385,4.8220243,-0.058287904,0.14867108,0.21112259,-5.449203,-9.710882,1.0390835
0.49604347,4.8218684,-0.058287904,0.14867108,0.21112259,-5.449203,-9.710882,1.0390835
0.49636713,4.821684,-0.04443947,0.12417,0.2260363,-5.3486466,-9.65821,0.9864111
0.49668992,4.821498,-0.04443947,0.12417,0.2260363,-5.3486466,-9.65821,0.9864111
0.4969148,4.821313,-0.032721557,0.09966891,0.23668894,-5.21936,-9.586384,1.0247183
0.49712822,4.8211293,-0.032721557,0.09966891,0.23668894,-5.21936,-9.586384,1.0247183
0.49724305,4.821056,-0.019938385,0.07836362,0.24521105,-5.070919,-9.481039,1.0199299
0.4973577,4.820984,-0.019938385,0.07836362,0.24521105,-5.070919,-9.481039,1.0199299
0.49747816,4.8209367,-0.008220476,0.05918886,0.25373316,-5.00867,-9.414001,1.0103531
0.49759835,4.8208904,-0.008220476,0.05918886,0.25373316,-5.00867,-9.414001,1.0103531
0.49773088,4.820836,0.0024321685,0.043209895,0.25799423,-4.8506527,-9.361329,0.94331545
0.49786294,4.820782,0.0024321685,0.043209895,0.25799423,-4.8506527,-9.361329,0.94331545
0.4979911,4.820753,0.00988902,0.030426722,0.26012474,-4.855441,-9.313444,0.9624691
0.49811897,4.8207245,0.00988902,0.030426722,0.26012474,-4.855441,-9.313444,0.9624691
0.4982386,4.8207517,0.017345872,0.021904606,0.25799423,-4.7788267,-9.3182335,1.0247183
0.49835882,4.8207784,0.017345872,0.021904606,0.25799423,-4.7788267,-9.3182335,1.0247183
0.49847338,4.8208036,0.024802722,0.013382491,0.25479844,-4.7644615,-9.270349,0.9959879
0.4985889,4.8208284,0.024802722,0.013382491,0.25479844,-4.7644615,-9.270349,0.9959879
0.49870065,4.8208857,0.031194309,0.0069909045,0.25053737,-4.759673,-9.198523,1.0247183
0.4988126,4.820942,0.031194309,0.0069909045,0.25053737,-4.759673,-9.198523,1.0247183
0.49891683,4.821014,0.03652063,-0.00046594674,0.24201526,-4.711789,-9.155427,1.0342951
0.49902123,4.8210855,0.03652063,-0.00046594674,0.24201526,-4.711789,-9.155427,1.0342951
0.49912587,4.821191,0.041846953,-0.011118591,0.23349315,-4.630386,-9.121908,1.0965444
0.49922997,4.8212957,0.041846953,-0.011118591,0.23349315,-4.630386,-9.121908,1.0965444
0.49931017,4.8213916,0.04610801,-0.021771235,0.21857944,-4.620809,-9.097966,1.0486604
0.49939016,4.8214874,0.04610801,-0.021771235,0.21857944,-4.620809,-9.097966,1.0486604
0.49945718,4.821605,0.051434334,-0.035619672,0.20260048,-4.5441947,-9.097966,1.091756
0.49952403,4.821723,0.051434334,-0.035619672,0.20260048,-4.5441947,-9.097966,1.091756
0.49956834,4.8218403,0.055695392,-0.048402846,0.18555625,-4.4436383,-9.083601,1.0726024
0.4996125,4.8219566,0.055695392,-0.048402846,0.18555625,-4.4436383,-9.083601,1.0726024
0.4996344,4.8220596,0.061021715,-0.06331655,0.16957727,-4.3957543,-9.035717,0.9864111
0.49965635,4.8221626,0.061021715,-0.06331655,0.16957727,-4.3957543,-9.035717,0.9864111
0.49966225,4.822295,0.06421751,-0.07503446,0.15146779,-4.309563,-9.016563,1.0630256
0.49966815,4.8224277,0.06421751,-0.07503446,0.15146779,-4.309563,-9.016563,1.0630256
0.49965292,4.8225565,0.06634804,-0.08462184,0.13335828,-4.247314,-9.045294,1.0342951
0.4996376,4.8226852,0.06634804,-0.08462184,0.13335828,-4.247314,-9.045294,1.0342951
0.4996046,4.822808,0.07060909,-0.08994816,0.11737932,-4.10845,-8.992621,0.9768343
0.4995716,4.82293,0.07060909,-0.08994816,0.11737932,-4.10845,-8.992621,0.9768343
0.49952176,4.82306,0.074870154,-0.091013424,0.10033509,-4.1132383,-9.016563,1.0007763
0.499472,4.82319,0.074870154,-0.091013424,0.10033509,-4.1132383,-9.016563,1.0007763
0.49940735,4.8233166,0.07913121,-0.08888289,0.08542138,-4.0653543,-9.011775,0.9720459
0.49934262,4.8234425,0.07913121,-0.08888289,0.08542138,-4.0653543,-9.011775,0.9720459
0.4992661,4.8235726,0.082327,-0.08355658,0.07263821,-4.012682,-8.954314,0.9911995
0.4991894,4.8237033,0.082327,-0.08355658,0.07263821,-4.012682,-8.954314,0.9911995
0.49909902,4.8238177,0.08552279,-0.07609972,0.05772451,-4.0222588,-8.973468,0.92416185
0.49900866,4.8239317,0.08552279,-0.07609972,0.05772451,-4.0222588,-8.973468,0.92416185
0.4989,4.82405,0.08871859,-0.066512346,0.03854975,-3.9983168,-8.99741,0.9624691
0.49879003,4.824169,0.08871859,-0.066512346,0.03854975,-3.9983168,-8.99741,0.9624691
0.49865192,4.824308,0.09084912,-0.057990227,0.018309724,-4.012682,-8.944737,1.0247183
0.4985312,4.8244286,0.09084912,-0.057990227,0.018309724,-4.012682,-8.944737,1.0247183
0.49838635,4.8245373,0.09297965,-0.048402846,-0.0008650357,-4.0797195,-8.935161,0.9624691
0.49824223,4.824645,0.09297965,-0.048402846,-0.0008650357,-4.0797195,-8.935161,0.9624691
0.49807984,4.8247433,0.09511018,-0.040945996,-0.02110506,-4.10845,-8.920795,0.93373865
0.49791607,4.8248415,0.09511018,-0.040945996,-0.02110506,-4.10845,-8.920795,0.93373865
0.49773464,4.8249464,0.09830597,-0.035619672,-0.03814929,-4.1706996,-8.858546,0.9624691
0.49755323,4.8250513,0.09830597,-0.035619672,-0.03814929,-4.1706996,-8.858546,0.9624691
0.4973592,4.825148,0.102567025,-0.03242388,-0.05199773,-4.1802764,-8.863335,0.92895025
0.49716488,4.825245,0.102567025,-0.03242388,-0.05199773,-4.1802764,-8.863335,0.92895025
0.49695563,4.8253365,0.104697555,-0.029228088,-0.062650375,-4.232949,-8.839393,0.90979666
0.49675977,4.8254223,0.104697555,-0.029228088,-0.062650375,-4.232949,-8.839393,0.90979666
0.4965474,4.82551,0.106828086,-0.023901764,-0.07223775,-4.295198,-8.7771435,0.91937345
0.49633375,4.8255982,0.106828086,-0.023901764,-0.07223775,-4.295198,-8.7771435,0.91937345
0.49611485,4.825686,0.10789335,-0.017510178,-0.08075987,-4.367024,-8.801085,0.94331545
0.49589473,4.825774,0.10789335,-0.017510178,-0.08075987,-4.367024,-8.801085,0.94331545
0.49566907,4.8258686,0.10895862,-0.0068575335,-0.08608619,-4.5058875,-8.738836,0.9768343
0.4954434,4.825962,0.10895862,-0.0068575335,-0.08608619,-4.5058875,-8.738836,0.9768343
0.49525994,4.825979,0.11002388,0.00592564,-0.08715145,-4.6399627,-8.75799,0.91937345
0.49507713,4.825996,0.11002388,0.00592564,-0.08715145,-4.6399627,-8.75799,0.91937345
0.4949802,4.825979,0.11108914,0.017643549,-0.08821672,-4.7309427,-8.748413,0.8762778
0.49488378,4.825962,0.11108914,0.017643549,-0.08821672,-4.7309427,-8.748413,0.8762778
0.4948582,4.82595,0.11002388,0.029361458,-0.08821672,-4.865018,-8.796297,0.8762778
0.49483293,4.825938,0.11002388,0.029361458,-0.08821672,-4.865018,-8.796297,0.8762778
0.494853,4.825947,0.11002388,0.03681831,-0.08502093,-4.975151,-8.7532015,0.8619126
0.49487293,4.825955,0.11002388,0.03681831,-0.08502093,-4.975151,-8.7532015,0.8619126
0.49487293,4.825955,0.11002388,0.03681831,-0.08502093,-4.975151,-8.7532015,0.8619126
0.49487293,4.825955,0.11002388,0.03681831,-0.08502093,-4.975151,-8.7532015,0.8619126
0.49487293,4.825955,0.11002388,0.03681831,-0.08502093,-4.975151,-8.7532015,0.8619126
0.49512276,4.826124,0.11108914,0.046405688,-0.07330302,-5.133168,-8.78672,0.91458505
0.49513784,4.8261337,0.11108914,0.046405688,-0.07330302,-5.133168,-8.78672,0.91458505
0.49520123,4.8261747,0.11108914,0.045340426,-0.0679767,-5.267244,-8.767567,0.8810662
0.4953391,4.8262815,0.11215441,0.04107937,-0.060519844,-5.3438582,-8.781932,0.9768343
0.49542058,4.826357,0.11215441,0.04107937,-0.060519844,-5.3438582,-8.781932,0.9768343
0.49542058,4.826357,0.11215441,0.032557253,-0.0498672,-5.353435,-8.734048,0.9576807
0.49560392,4.8265133,0.11215441,0.032557253,-0.0498672,-5.353435,-8.734048,0.9576807
0.49570477,4.8266234,0.11321967,0.019774077,-0.04027982,-5.4061074,-8.710106,1.0390835
0.49580646,4.8267345,0.11321967,0.019774077,-0.04027982,-5.4061074,-8.710106,1.0390835
0.4959164,4.8268366,0.1153502,0.0027298466,-0.029627176,-5.363012,-8.767567,0.9768343
0.49602622,4.8269396,0.1153502,0.0027298466,-0.029627176,-5.363012,-8.767567,0.9768343
0.49614537,4.8270893,0.118545994,-0.014314385,-0.016844003,-5.329493,-8.686164,1.0821792
0.49626437,4.827239,0.118545994,-0.014314385,-0.016844003,-5.329493,-8.686164,1.0821792
0.49639592,4.827387,0.118545994,-0.033489145,-0.004060829,-5.281609,-8.6574335,1.0342951
0.49652773,4.827534,0.118545994,-0.033489145,-0.004060829,-5.281609,-8.6574335,1.0342951
0.49666968,4.8276887,0.12174179,-0.051598642,0.00765708,-5.2049947,-8.676587,1.0151415
0.4968113,4.8278427,0.12174179,-0.051598642,0.00765708,-5.2049947,-8.676587,1.0151415
0.49696356,4.828027,0.12493758,-0.06970814,0.022570781,-5.118803,-8.63828,1.0486604
0.49711597,4.828211,0.12493758,-0.06970814,0.022570781,-5.118803,-8.63828,1.0486604
0.49727798,4.8284187,0.1270681,-0.08675237,0.03641922,-5.046977,-8.614338,1.0630256
0.49743962,4.828625,0.1270681,-0.08675237,0.03641922,-5.046977,-8.614338,1.0630256
0.49760732,4.8288574,0.12919864,-0.10166607,0.05026766,-4.9895163,-8.571242,1.0821792
0.49777597,4.82909,0.12919864,-0.10166607,0.05026766,-4.9895163,-8.571242,1.0821792
0.49796727,4.829293,0.13026391,-0.11338398,0.06518136,-4.8698063,-8.504205,1.0055647
0.4981586,4.829494,0.13026391,-0.11338398,0.06518136,-4.8698063,-8.504205,1.0055647
0.49830893,4.8297873,0.12919864,-0.12616715,0.07796454,-4.8027687,-8.48984,1.115698
0.4984601,4.83008,0.12919864,-0.12616715,0.07796454,-4.8027687,-8.48984,1.115698
0.4985794,4.8303957,0.12813337,-0.1368198,0.089682445,-4.7165775,-8.42759,1.1540052
0.49869874,4.8307114,0.12813337,-0.1368198,0.089682445,-4.7165775,-8.42759,1.1540052
0.49876547,4.8310356,0.12813337,-0.14534192,0.103530884,-4.596867,-8.418014,1.1300632
0.49883133,4.8313603,0.12813337,-0.14534192,0.103530884,-4.596867,-8.418014,1.1300632
0.49888578,4.831684,0.12813337,-0.15279876,0.11524879,-4.5298295,-8.389283,1.1683705
0.49893937,4.8320084,0.12813337,-0.15279876,0.11524879,-4.5298295,-8.389283,1.1683705
0.4989619,4.8323145,0.12493758,-0.15812509,0.1269667,-4.414908,-8.341399,1.13964
0.49898347,4.8326187,0.12493758,-0.15812509,0.1269667,-4.414908,-8.341399,1.13964
0.49900576,4.8329153,0.122807056,-0.16025561,0.1386846,-4.3478703,-8.288726,1.1348516
0.499027,4.833212,0.122807056,-0.16025561,0.1386846,-4.3478703,-8.288726,1.1348516
0.49902153,4.833457,0.120676525,-0.15919036,0.148272,-4.2760444,-8.226477,1.0390835
0.49901548,4.8337007,0.120676525,-0.15919036,0.148272,-4.2760444,-8.226477,1.0390835
0.49903333,4.8339663,0.11748073,-0.1549293,0.15785937,-4.271256,-8.264784,1.1013328
0.4990504,4.8342295,0.11748073,-0.1549293,0.15785937,-4.271256,-8.264784,1.1013328
0.4990984,4.834511,0.11321967,-0.15066823,0.16744675,-4.285621,-8.197746,1.1348516
0.49914536,4.8347907,0.11321967,-0.15066823,0.16744675,-4.285621,-8.197746,1.1348516
0.4992095,4.8350697,0.10789335,-0.14427665,0.1749036,-4.261679,-8.178593,1.1731589
0.49927288,4.835348,0.10789335,-0.14427665,0.1749036,-4.261679,-8.178593,1.1731589
0.49932072,4.835594,0.102567025,-0.1368198,0.18342571,-4.2425256,-8.159439,1.1013328
0.49936777,4.8358383,0.102567025,-0.1368198,0.18342571,-4.2425256,-8.159439,1.1013328
0.49943218,4.8360834,0.09617544,-0.12936294,0.19194783,-4.237737,-8.073248,1.0965444
0.49949542,4.836326,0.09617544,-0.12936294,0.19194783,-4.237737,-8.073248,1.0965444
0.4995675,4.836561,0.091914386,-0.121906094,0.20046994,-4.2185836,-8.034941,1.091756
0.4996387,4.8367953,0.091914386,-0.121906094,0.20046994,-4.2185836,-8.034941,1.091756
0.49972883,4.837031,0.08445753,-0.11551451,0.20686153,-4.256891,-8.010999,1.091756
0.499818,4.837266,0.08445753,-0.11551451,0.20686153,-4.256891,-8.010999,1.091756
0.4999271,4.8375025,0.07913121,-0.109122925,0.21325313,-4.223372,-7.97748,1.1300632
0.5000351,4.837738,0.07913121,-0.109122925,0.21325313,-4.223372,-7.97748,1.1300632
0.5001443,4.837961,0.07167436,-0.1037966,0.21751417,-4.175488,-7.943961,1.13964
0.50025254,4.8381834,0.07167436,-0.1037966,0.21751417,-4.175488,-7.943961,1.13964
0.5003569,4.8383937,0.06421751,-0.10166607,0.21751417,-4.1419687,-7.920019,1.13964
0.5004602,4.8386035,0.06421751,-0.10166607,0.21751417,-4.1419687,-7.920019,1.13964
0.50054705,4.838788,0.05782592,-0.09953554,0.21751417,-4.1036615,-7.9822683,1.1300632
0.5006334,4.8389716,0.05782592,-0.09953554,0.21751417,-4.1036615,-7.9822683,1.1300632
0.5007175,4.8391476,0.051434334,-0.09953554,0.21644892,-4.0940847,-7.9631147,1.1252748
0.5008012,4.839323,0.051434334,-0.09953554,0.21644892,-4.0940847,-7.9631147,1.1252748
0.50086844,4.839463,0.045042746,-0.09847028,0.21538365,-4.0174704,-7.953538,1.0726024
0.5009354,4.8396025,0.045042746,-0.09847028,0.21538365,-4.0174704,-7.953538,1.0726024
0.5010007,4.839737,0.03652063,-0.09953554,0.21218786,-3.9456444,-7.9822683,1.1013328
0.5010657,4.8398714,0.03652063,-0.09953554,0.21218786,-3.9456444,-7.9822683,1.1013328
0.50112176,4.8399897,0.02906378,-0.09847028,0.20579627,-3.8594532,-8.015787,1.0965444
0.5011778,4.8401074,0.02906378,-0.09847028,0.20579627,-3.8594532,-8.015787,1.0965444
0.5012266,4.8402205,0.022672193,-0.09633975,0.19727415,-3.8786068,-8.039729,1.1109096
0.5012757,4.8403335,0.022672193,-0.09633975,0.19727415,-3.8786068,-8.039729,1.1109096
0.50131994,4.8404484,0.015215342,-0.09420922,0.18768677,-3.7828386,-8.049306,1.1587936
0.5013633,4.8405614,0.015215342,-0.09420922,0.18768677,-3.7828386,-8.049306,1.1587936
0.50139815,4.840664,0.008823755,-0.09207869,0.17916466,-3.7732618,-8.087613,1.1923125
0.5014333,4.840768,0.008823755,-0.09207869,0.17916466,-3.7732618,-8.087613,1.1923125
0.5014578,4.840849,0.001366904,-0.08781763,0.17277306,-3.6822822,-8.111555,1.13964
0.5014825,4.84093,0.001366904,-0.08781763,0.17277306,-3.6822822,-8.111555,1.13964
0.50149953,4.841008,-0.0028941538,-0.08462184,0.16318569,-3.6535518,-8.145074,1.1731589
0.50151646,4.8410873,-0.0028941538,-0.08462184,0.16318569,-3.6535518,-8.145074,1.1731589
0.5015187,4.841133,-0.009285741,-0.08249131,0.15359831,-3.6296098,-8.149862,1.0534488
0.5015211,4.841179,-0.009285741,-0.08249131,0.15359831,-3.6296098,-8.149862,1.0534488
0.5015157,4.8412294,-0.013546798,-0.078230254,0.14294566,-3.5913026,-8.1402855,1.1204864
0.50150985,4.841283,-0.013546798,-0.078230254,0.14294566,-3.5913026,-8.1402855,1.1204864
0.5014935,4.8413205,-0.017807856,-0.07183866,0.13229302,-3.5673606,-8.236053,1.1061212
0.5014771,4.8413577,-0.017807856,-0.07183866,0.13229302,-3.5673606,-8.236053,1.1061212
0.5014488,4.84138,-0.02313418,-0.06544708,0.120575115,-3.5482068,-8.264784,1.0773908
0.5014205,4.841402,-0.02313418,-0.06544708,0.120575115,-3.5482068,-8.264784,1.0773908
0.50138324,4.8414035,-0.0284605,-0.054794434,0.10992247,-3.5338416,-8.312668,1.0342951
0.5013461,4.841405,-0.0284605,-0.054794434,0.10992247,-3.5338416,-8.312668,1.0342951
0.5012999,4.8413973,-0.031656295,-0.03988073,0.09926982,-3.5434184,-8.350976,1.0534488
0.5012538,4.841389,-0.031656295,-0.03988073,0.09926982,-3.5434184,-8.350976,1.0534488
0.50119907,4.841362,-0.033786822,-0.023901764,0.088617176,-3.5913026,-8.389283,1.0151415
0.50114423,4.841335,-0.033786822,-0.023901764,0.088617176,-3.5913026,-8.389283,1.0151415
0.5010782,4.8413024,-0.035917353,-0.005792269,0.07476874,-3.6296098,-8.446744,1.067814
0.5010122,4.8412704,-0.035917353,-0.005792269,0.07476874,-3.6296098,-8.446744,1.067814
0.5009365,4.84122,-0.03698262,0.011251962,0.06305083,-3.6343982,-8.499416,1.0342951
0.5008608,4.84117,-0.03698262,0.011251962,0.06305083,-3.6343982,-8.499416,1.0342951
0.5007721,4.8411,-0.03804788,0.029361458,0.047071867,-3.739743,-8.494628,1.0007763
0.5006839,4.841031,-0.03804788,0.029361458,0.047071867,-3.739743,-8.494628,1.0007763
0.50057924,4.840946,-0.03804788,0.049601484,0.030027634,-3.7588966,-8.5473,0.9959879
0.50047815,4.840864,-0.03804788,0.049601484,0.030027634,-3.7588966,-8.5473,0.9959879
0.5003569,4.8407845,-0.03804788,0.06664571,0.009787609,-3.8259344,-8.623915,1.0821792
0.50023586,4.840705,-0.03804788,0.06664571,0.009787609,-3.8259344,-8.623915,1.0821792
0.50009406,4.8406157,-0.03804788,0.08262468,-0.012582945,-3.9600096,-8.686164,1.0965444
0.49995264,4.8405275,-0.03804788,0.08262468,-0.012582945,-3.9600096,-8.686164,1.0965444
0.49978694,4.8404164,-0.035917353,0.09540785,-0.039214555,-4.1036615,-8.724471,1.043872
0.4996215,4.8403053,-0.035917353,0.09540785,-0.039214555,-4.1036615,-8.724471,1.043872
0.4994337,4.840192,-0.031656295,0.104995236,-0.06371564,-4.280833,-8.75799,1.0630256
0.49924406,4.8400774,-0.031656295,0.104995236,-0.06371564,-4.280833,-8.75799,1.0630256
0.49903446,4.839967,-0.0284605,0.10819103,-0.08502093,-4.3861775,-8.772355,1.0821792
0.49882516,4.8398557,-0.0284605,0.10819103,-0.08502093,-4.3861775,-8.772355,1.0821792
0.4985991,4.83974,-0.024199443,0.10819103,-0.10313042,-4.4580035,-8.78672,1.0726024
0.49837306,4.839625,-0.024199443,0.10819103,-0.10313042,-4.4580035,-8.78672,1.0726024
0.4981297,4.839534,-0.017807856,0.10712577,-0.11804412,-4.5154643,-8.781932,1.1109096
0.49788252,4.8394413,-0.017807856,0.10712577,-0.11804412,-4.5154643,-8.781932,1.1109096
0.49763402,4.8393373,-0.009285741,0.104995236,-0.12976204,-4.582502,-8.772355,1.0821792
0.49738258,4.839233,-0.009285741,0.104995236,-0.12976204,-4.582502,-8.772355,1.0821792
0.49712673,4.8391967,-0.0018288894,0.102864705,-0.1372189,-4.630386,-8.686164,1.1300632
0.4968714,4.839162,-0.0018288894,0.102864705,-0.1372189,-4.630386,-8.686164,1.1300632
0.496613,4.8390446,0.003497433,0.102864705,-0.14787152,-4.6686935,-8.652645,1.0821792
0.49635437,4.8389273,0.003497433,0.102864705,-0.14787152,-4.6686935,-8.652645,1.0821792
0.49629632,4.838965,0.0077584907,0.10179944,-0.15213259,-4.7644615,-8.643068,1.13964
0.4962397,4.839002,0.0077584907,0.10179944,-0.15213259,-4.7644615,-8.643068,1.13964
0.4962279,4.838999,0.013084813,0.10179944,-0.15426312,-4.8698063,-8.6334915,1.1444284
0.49621633,4.838995,0.013084813,0.10179944,-0.15426312,-4.8698063,-8.6334915,1.1444284
0.49619144,4.8390117,0.016280606,0.09966891,-0.15639365,-4.9320555,-8.662222,1.1875241
0.49616668,4.8390284,0.016280606,0.09966891,-0.15639365,-4.9320555,-8.662222,1.1875241
0.4961643,4.8389826,0.018411135,0.09540785,-0.15532838,-5.0278234,-8.643068,1.0965444
0.49616203,4.8389373,0.018411135,0.09540785,-0.15532838,-5.0278234,-8.643068,1.0965444
0.49616337,4.8389015,0.02160693,0.089016266,-0.15106732,-5.046977,-8.643068,1.1013328
0.49616462,4.838866,0.02160693,0.089016266,-0.15106732,-5.046977,-8.643068,1.1013328
0.49617,4.8388567,0.024802722,0.08262468,-0.14467573,-5.104438,-8.671799,1.1444284
0.4961752,4.8388476,0.024802722,0.08262468,-0.14467573,-5.104438,-8.671799,1.1444284
0.4961904,4.8388305,0.026933251,0.074102566,-0.13508835,-5.161899,-8.676587,1.115698
0.49620563,4.838814,0.026933251,0.074102566,-0.13508835,-5.161899,-8.676587,1.115698
0.49623108,4.8387985,0.02906378,0.06344992,-0.123370446,-5.2289367,-8.676587,1.0965444
0.49625644,4.838783,0.02906378,0.06344992,-0.123370446,-5.2289367,-8.676587,1.0965444
0.49629483,4.8388004,0.032259572,0.052797277,-0.107391484,-5.233725,-8.700529,1.163582
0.49633312,4.8388186,0.032259572,0.052797277,-0.107391484,-5.233725,-8.700529,1.163582
0.4963858,4.8388395,0.034390103,0.04107937,-0.092477776,-5.2145715,-8.695741,1.1444284
0.49643832,4.838861,0.034390103,0.04107937,-0.092477776,-5.2145715,-8.695741,1.1444284
0.4964911,4.8388815,0.034390103,0.04107937,-0.092477776,-5.2145715,-8.695741,1.1444284
0.4965561,4.838886,0.037585896,0.028296193,-0.077564076,-5.209783,-8.671799,1.067814
0.49662125,4.8388896,0.037585896,0.028296193,-0.077564076,-5.209783,-8.671799,1.067814
0.49670208,4.8389225,0.039716423,0.016578285,-0.06158511,-5.1906295,-8.647857,1.115698
0.4967827,4.838955,0.039716423,0.016578285,-0.06158511,-5.1906295,-8.647857,1.115698
0.49687842,4.839019,0.04291222,0.0048603755,-0.04241035,-5.1810527,-8.561666,1.163582
0.49687842,4.839019,0.04291222,0.0048603755,-0.04241035,-5.1810527,-8.561666,1.163582
0.49687842,4.839019,0.045042746,-0.0047270046,-0.025366118,-5.185841,-8.537724,1.1252748
0.49687842,4.839019,0.049303804,-0.016444914,-0.0072566224,-5.161899,-8.523358,1.091756
0.4974074,4.839261,0.049303804,-0.016444914,-0.0072566224,-5.161899,-8.523358,1.091756
0.49753436,4.839319,0.049303804,-0.016444914,-0.0072566224,-5.161899,-8.523358,1.091756
0.49768716,4.8393974,0.05036907,-0.029228088,0.014048667,-5.118803,-8.508993,1.1109096
0.49785593,4.839471,0.051434334,-0.03988073,0.033223428,-5.056554,-8.403648,1.067814
0.49803188,4.8395476,0.051434334,-0.03988073,0.033223428,-5.056554,-8.403648,1.067814
0.49803188,4.8395476,0.051434334,-0.03988073,0.033223428,-5.056554,-8.403648,1.067814
0.49834275,4.839682,0.051434334,-0.03988073,0.033223428,-5.056554,-8.403648,1.067814
0.4985351,4.8397613,0.051434334,-0.04946811,0.05026766,-5.0038815,-8.379706,1.0582372
0.49871635,4.8399086,0.051434334,-0.060120758,0.06731189,-4.855441,-8.346188,1.1683705
0.49889776,4.840055,0.051434334,-0.060120758,0.06731189,-4.855441,-8.346188,1.1683705
0.49909672,4.8401976,0.049303804,-0.06864287,0.08116033,-4.793192,-8.327033,1.1348516
0.49929658,4.8403397,0.049303804,-0.06864287,0.08116033,-4.793192,-8.327033,1.1348516
0.49951044,4.8404746,0.04610801,-0.07609972,0.09181297,-4.745308,-8.264784,1.1109096
0.49972337,4.8406086,0.04610801,-0.07609972,0.09181297,-4.745308,-8.264784,1.1109096
0.49986494,4.840811,0.04291222,-0.08462184,0.10033509,-4.6112323,-8.240842,1.1683705
0.50000584,4.841013,0.04291222,-0.08462184,0.10033509,-4.6112323,-8.240842,1.1683705
0.50009453,4.841221,0.037585896,-0.09207869,0.1088572,-4.525041,-8.2169,1.1492168
0.5001821,4.8414283,0.037585896,-0.09207869,0.1088572,-4.525041,-8.2169,1.1492168
0.5001908,4.8416038,0.032259572,-0.09740501,0.11418352,-4.429273,-8.183381,1.1204864
0.5001983,4.8417773,0.032259572,-0.09740501,0.11418352,-4.429273,-8.183381,1.1204864
0.5001721,4.841908,0.027998514,-0.10166607,0.11737932,-4.3287168,-8.197746,1.1109096
0.5001456,4.842038,0.027998514,-0.10166607,0.11737932,-4.3287168,-8.197746,1.1109096
0.50012773,4.8421803,0.023737457,-0.105927125,0.118444584,-4.2521024,-8.1402855,1.13964
0.50010973,4.8423195,0.023737457,-0.105927125,0.118444584,-4.2521024,-8.1402855,1.13964
0.5000744,4.842412,0.019476399,-0.106992394,0.11737932,-4.1276035,-8.149862,1.0821792
0.5000382,4.8425055,0.019476399,-0.106992394,0.11737932,-4.1276035,-8.149862,1.0821792
0.50000095,4.842598,0.013084813,-0.106992394,0.11524879,-4.0462008,-8.135497,1.0965444
0.4999628,4.8426914,0.013084813,-0.106992394,0.11524879,-4.0462008,-8.135497,1.0965444
0.49992618,4.8427744,0.005627962,-0.1037966,0.11311826,-3.98874,-8.12592,1.1109096
0.4998869,4.842863,0.005627962,-0.1037966,0.11311826,-3.98874,-8.12592,1.1109096
0.4998452,4.842927,-0.0007636249,-0.09953554,0.11098773,-3.9360676,-8.12592,1.0773908
0.49979678,4.842986,-0.008220476,-0.093143955,0.104596145,-3.892972,-8.159439,1.0965444
0.49975118,4.843041,-0.008220476,-0.093143955,0.104596145,-3.892972,-8.159439,1.0965444
0.4997039,4.843098,-0.008220476,-0.093143955,0.104596145,-3.892972,-8.159439,1.0965444
0.49965572,4.843156,-0.01674259,-0.0856871,0.09926982,-3.8786068,-8.149862,1.1444284
0.4996075,4.843213,-0.01674259,-0.0856871,0.09926982,-3.8786068,-8.149862,1.1444284
0.49955052,4.84325,-0.022068914,-0.077164985,0.09181297,-3.8402996,-8.149862,1.1109096
0.49949327,4.8432865,-0.022068914,-0.077164985,0.09181297,-3.8402996,-8.149862,1.1109096
0.4994321,4.843317,-0.029525764,-0.066512346,0.08435612,-3.821146,-8.1402855,1.13964
0.49937063,4.8433475,-0.029525764,-0.066512346,0.08435612,-3.821146,-8.1402855,1.13964
0.49930003,4.8433533,-0.034852087,-0.05372917,0.075834006,-3.8402996,-8.149862,1.0965444
0.4992296,4.843359,-0.034852087,-0.05372917,0.075834006,-3.8402996,-8.149862,1.0965444
0.49914882,4.8433533,-0.039113145,-0.04201126,0.0641161,-3.8307228,-8.250419,1.1109096
0.49906817,4.8433475,-0.039113145,-0.04201126,0.0641161,-3.8307228,-8.250419,1.1109096
0.49897802,4.8433285,-0.045504734,-0.027097559,0.052398186,-3.821146,-8.212111,1.1109096
0.49888808,4.8433084,-0.045504734,-0.027097559,0.052398186,-3.821146,-8.212111,1.1109096
0.49878636,4.8432665,-0.05189632,-0.012183856,0.039615013,-3.845088,-8.24563,1.0869676
0.49868456,4.8432245,-0.05189632,-0.012183856,0.039615013,-3.845088,-8.24563,1.0869676
0.49857482,4.8431797,-0.057222642,0.0016645822,0.027897105,-3.8163576,-8.312668,1.1444284
0.49846467,4.8431354,-0.057222642,0.0016645822,0.027897105,-3.8163576,-8.312668,1.1444284
0.4983401,4.8430643,-0.0614837,0.013382491,0.012983402,-3.821146,-8.322245,1.0773908
0.49821532,4.8429923,-0.0614837,0.013382491,0.012983402,-3.821146,-8.322245,1.0773908
0.49807596,4.842906,-0.06681002,0.0251004,-0.0029955646,-3.8642416,-8.384495,1.0773908
0.49793643,4.84282,-0.06681002,0.0251004,-0.0029955646,-3.8642416,-8.384495,1.0773908
0.49778065,4.8427315,-0.07000581,0.038948838,-0.022170324,-3.9121256,-8.480263,1.1300632
0.49762526,4.8426437,-0.07000581,0.038948838,-0.022170324,-3.9121256,-8.480263,1.1300632
0.49745396,4.8425236,-0.07213634,0.050666746,-0.039214555,-3.9791632,-8.556877,1.0486604
0.497282,4.8424025,-0.07213634,0.050666746,-0.039214555,-3.9791632,-8.556877,1.0486604
0.49709457,4.8422894,-0.07426687,0.060254127,-0.056258786,-4.0078936,-8.604761,1.115698
0.49690685,4.8421764,-0.07426687,0.060254127,-0.056258786,-4.0078936,-8.604761,1.115698
0.49670658,4.8420687,-0.07426687,0.06771098,-0.07117249,-4.0318356,-8.643068,1.1587936
0.496506,4.841961,-0.07426687,0.06771098,-0.07117249,-4.0318356,-8.643068,1.1587936
0.49629188,4.8418465,-0.07320161,0.0762331,-0.08608619,-4.0318356,-8.6574335,1.1492168
0.49607742,4.841732,-0.07320161,0.0762331,-0.08608619,-4.0318356,-8.6574335,1.1492168
0.49584946,4.841605,-0.07213634,0.08368994,-0.09993463,-4.122815,-8.690952,1.1204864
0.4956215,4.841479,-0.07213634,0.08368994,-0.09993463,-4.122815,-8.690952,1.1204864
0.4953836,4.8413568,-0.06894055,0.09221206,-0.11165254,-4.1276035,-8.710106,1.1444284
0.49514574,4.8412347,-0.06894055,0.09221206,-0.11165254,-4.1276035,-8.710106,1.1444284
0.49490094,4.8411202,-0.06681002,0.100734174,-0.121239915,-4.189853,-8.734048,1.1779473
0.4946564,4.841006,-0.06681002,0.100734174,-0.121239915,-4.189853,-8.734048,1.1779473
0.49440345,4.840892,-0.06361423,0.11032156,-0.13189256,-4.223372,-8.724471,1.1827357
0.49415034,4.8407793,-0.06361423,0.11032156,-0.13189256,-4.223372,-8.724471,1.1827357
0.49388433,4.840643,-0.060418434,0.117778406,-0.14254521,-4.223372,-8.781932,1.1252748
0.49361837,4.8405075,-0.060418434,0.117778406,-0.14254521,-4.223372,-8.781932,1.1252748
0.49334678,4.84038,-0.057222642,0.12523526,-0.15000206,-4.2760444,-8.772355,1.1492168
0.49307528,4.8402534,-0.057222642,0.12523526,-0.15000206,-4.2760444,-8.772355,1.1492168
0.4927984,4.840134,-0.052961584,0.13162684,-0.15745892,-4.343082,-8.781932,1.163582
0.4925216,4.8400154,-0.052961584,0.13162684,-0.15745892,-4.343082,-8.781932,1.163582
0.49223906,4.8399,-0.049765788,0.13695318,-0.16491576,-4.367024,-8.75799,1.163582
0.49195647,4.8397856,-0.049765788,0.13695318,-0.16491576,-4.367024,-8.75799,1.163582
0.49166682,4.839673,-0.045504734,0.14014897,-0.17237261,-4.462792,-8.796297,1.1587936
0.49137747,4.8395615,-0.045504734,0.14014897,-0.17237261,-4.462792,-8.796297,1.1587936
0.4910891,4.839468,-0.041243672,0.14014897,-0.17663367,-4.525041,-8.78672,1.1683705
0.49080098,4.839376,-0.041243672,0.14014897,-0.17663367,-4.525041,-8.78672,1.1683705
0.4905033,4.839225,-0.03698262,0.13801843,-0.17982946,-4.5777135,-8.791509,1.0965444
0.49020547,4.8390746,-0.03698262,0.13801843,-0.17982946,-4.5777135,-8.791509,1.0965444
0.48995474,4.838869,-0.033786822,0.13482264,-0.17769894,-4.620809,-8.762778,1.0486604
0.48970425,4.838663,-0.033786822,0.13482264,-0.17769894,-4.620809,-8.762778,1.0486604
0.48947397,4.8384557,-0.029525764,0.12949632,-0.17343788,-4.7022123,-8.801085,1.091756
0.4892456,4.8382473,-0.029525764,0.12949632,-0.17343788,-4.7022123,-8.801085,1.091756
0.48907378,4.8380346,-0.02313418,0.12523526,-0.16811156,-4.7070007,-8.796297,1.067814
0.48890486,4.837822,-0.02313418,0.12523526,-0.16811156,-4.7070007,-8.796297,1.067814
0.48888603,4.83768,-0.019938385,0.1209742,-0.15958944,-4.759673,-8.781932,1.091756
0.4888691,4.837541,-0.019938385,0.1209742,-0.15958944,-4.759673,-8.781932,1.091756
0.48887566,4.8374357,-0.015677327,0.118843675,-0.14680627,-4.793192,-8.781932,1.0965444
0.48888248,4.8373327,-0.015677327,0.118843675,-0.14680627,-4.793192,-8.781932,1.0965444
0.48888868,4.837201,-0.0114162695,0.11564788,-0.13189256,-4.8219223,-8.75799,1.0582372
0.48889568,4.8370705,-0.0114162695,0.11564788,-0.13189256,-4.8219223,-8.75799,1.0582372
0.4888902,4.836917,-0.0071552116,0.11245208,-0.1159136,-4.8267107,-8.762778,1.0103531
0.4888855,4.836764,-0.0071552116,0.11245208,-0.1159136,-4.8267107,-8.762778,1.0103531
0.48889634,4.8366175,-0.0039594183,0.11032156,-0.10206516,-4.8362875,-8.719683,0.9864111
0.48890787,4.836472,-0.0039594183,0.11032156,-0.10206516,-4.8362875,-8.719683,0.9864111
0.488939,4.8363357,-0.0018288894,0.1060605,-0.08608619,-4.841076,-8.7292595,0.9959879
0.48897052,4.8361998,-0.0018288894,0.1060605,-0.08608619,-4.841076,-8.7292595,0.9959879
0.48901397,4.8360686,0.00030163955,0.100734174,-0.07223775,-4.8458643,-8.820239,1.0295067
0.489058,4.835938,0.00030163955,0.100734174,-0.07223775,-4.8458643,-8.820239,1.0295067
0.4891471,4.8358703,0.003497433,0.09434259,-0.060519844,-4.9081135,-8.791509,1.0726024
0.4892361,4.8358035,0.003497433,0.09434259,-0.060519844,-4.9081135,-8.791509,1.0726024
0.4893162,4.8357015,0.005627962,0.086885735,-0.04773667,-4.9416323,-8.796297,1.0007763
0.48939657,4.835599,0.005627962,0.086885735,-0.04773667,-4.9416323,-8.796297,1.0007763
0.4894954,4.8355136,0.00988902,0.07836362,-0.03282297,-5.032612,-8.872911,1.0055647
0.48959434,4.8354273,0.00988902,0.07836362,-0.03282297,-5.032612,-8.872911,1.0055647
0.48971674,4.835373,0.0141500775,0.06771098,-0.018974531,-5.0421886,-8.848969,1.0390835
0.48983914,4.8353186,0.0141500775,0.06771098,-0.018974531,-5.0421886,-8.848969,1.0390835
0.48997617,4.835275,0.018411135,0.057058334,-0.0029955646,-5.0661306,-8.868123,1.0390835
0.49011335,4.835232,0.018411135,0.057058334,-0.0029955646,-5.0661306,-8.868123,1.0390835
0.49026805,4.835212,0.022672193,0.046405688,0.011918138,-5.0613422,-8.810662,1.0534488
0.49042293,4.8351927,0.022672193,0.046405688,0.011918138,-5.0613422,-8.810662,1.0534488
0.49058142,4.8351583,0.027998514,0.035753045,0.027897105,-4.9895163,-8.839393,1.0247183
0.49073976,4.8351245,0.027998514,0.035753045,0.027897105,-4.9895163,-8.839393,1.0247183
0.49091837,4.835112,0.032259572,0.022969872,0.044941336,-4.865018,-8.719683,1.0390835
0.49109775,4.8350997,0.032259572,0.022969872,0.044941336,-4.865018,-8.719683,1.0390835
0.49129206,4.835095,0.03545537,0.010186698,0.058789775,-4.817134,-8.686164,1.0390835
0.49147934,4.8350897,0.03545537,0.010186698,0.058789775,-4.817134,-8.686164,1.0390835
0.49168438,4.8351355,0.040781688,-0.00046594674,0.06944242,-4.783615,-8.652645,1.067814
0.49189255,4.835182,0.040781688,-0.00046594674,0.06944242,-4.783615,-8.652645,1.067814
0.4920248,4.8351355,0.043977484,-0.011118591,0.0790298,-4.7309427,-8.714894,1.0342951
0.49215555,4.835088,0.043977484,-0.011118591,0.0790298,-4.7309427,-8.714894,1.0342951
0.49235287,4.8352194,0.047173277,-0.021771235,0.08542138,-4.7022123,-8.628703,1.0821792
0.49255076,4.835351,0.047173277,-0.021771235,0.08542138,-4.7022123,-8.628703,1.0821792
0.4925874,4.8353148,0.04823854,-0.031358615,0.09074771,-4.620809,-8.623915,1.0007763
0.49262375,4.835278,0.04823854,-0.031358615,0.09074771,-4.620809,-8.623915,1.0007763
0.4925786,4.8353677,0.04823854,-0.040945996,0.09713929,-4.596867,-8.604761,1.067814
0.49253103,4.8354588,0.04823854,-0.040945996,0.09713929,-4.596867,-8.604761,1.067814
0.4924911,4.835572,0.05036907,-0.04946811,0.10033509,-4.534618,-8.614338,1.0869676
0.4924511,4.8356824,0.05036907,-0.04946811,0.10033509,-4.534618,-8.614338,1.0869676
0.4924049,4.8357716,0.05036907,-0.057990227,0.10140035,-4.4819455,-8.6095495,1.067814
0.49235848,4.8358603,0.05036907,-0.057990227,0.10140035,-4.4819455,-8.6095495,1.067814
0.49231428,4.835929,0.051434334,-0.06544708,0.102465615,-4.43885,-8.614338,1.0390835
0.4922703,4.8359966,0.051434334,-0.06544708,0.102465615,-4.43885,-8.614338,1.0390835
0.49222815,4.836115,0.0524996,-0.07183866,0.103530884,-4.3047748,-8.580819,1.1061212
0.49218595,4.8362327,0.0524996,-0.07183866,0.103530884,-4.3047748,-8.580819,1.1061212
0.49213836,4.8363295,0.051434334,-0.077164985,0.102465615,-4.3287168,-8.571242,1.0630256
0.49209034,4.8364267,0.051434334,-0.077164985,0.102465615,-4.3287168,-8.571242,1.0630256
0.49203992,4.836523,0.051434334,-0.08249131,0.10033509,-4.285621,-8.571242,1.0582372
0.49198967,4.836619,0.051434334,-0.08249131,0.10033509,-4.285621,-8.571242,1.0582372
0.4919369,4.836713,0.0524996,-0.08462184,0.09820456,-4.247314,-8.571242,1.0486604
0.4919369,4.836713,0.0524996,-0.08462184,0.09820456,-4.247314,-8.571242,1.0486604
0.49182376,4.8369026,0.051434334,-0.08675237,0.09607403,-4.175488,-8.580819,1.043872
0.49176955,4.8369937,0.051434334,-0.08675237,0.09607403,-4.175488,-8.580819,1.043872
0.49176955,4.8369937,0.051434334,-0.08675237,0.09607403,-4.175488,-8.580819,1.043872
0.49166027,4.8372173,0.05036907,-0.08675237,0.09500877,-4.1946416,-8.561666,1.0965444
0.49160323,4.8373103,0.049303804,-0.0856871,0.09500877,-4.132392,-8.571242,1.0486604
0.49154755,4.8374004,0.049303804,-0.0856871,0.09500877,-4.132392,-8.571242,1.0486604
0.49154755,4.8374004,0.049303804,-0.0856871,0.09500877,-4.132392,-8.571242,1.0486604
0.49148366,4.837516,0.04610801,-0.08462184,0.09181297,-4.156334,-8.504205,1.0869676
0.4913698,4.83769,0.043977484,-0.08142605,0.08648665,-4.146757,-8.51857,1.043872
0.49130017,4.837778,0.043977484,-0.08142605,0.08648665,-4.146757,-8.51857,1.043872
0.491242,4.837842,0.041846953,-0.077164985,0.08542138,-4.1611223,-8.537724,1.0295067
0.4911727,4.8379173,0.041846953,-0.077164985,0.08542138,-4.1611223,-8.537724,1.0295067
0.49111256,4.837982,0.040781688,-0.07183866,0.08329086,-4.1419687,-8.451532,1.0342951
0.49104685,4.8380523,0.040781688,-0.07183866,0.08329086,-4.1419687,-8.451532,1.0342951
0.49097547,4.8381186,0.037585896,-0.064381815,0.08329086,-4.156334,-8.461109,1.0295067
0.49091744,4.838172,0.037585896,-0.064381815,0.08329086,-4.156334,-8.461109,1.0295067
0.49085143,4.838253,0.034390103,-0.059055492,0.08009506,-4.1419687,-8.446744,1.091756
0.49078506,4.838334,0.034390103,-0.059055492,0.08009506,-4.1419687,-8.446744,1.091756
0.49071783,4.838407,0.030129045,-0.051598642,0.07796454,-4.0797195,-8.413225,1.091756
0.49065024,4.83848,0.030129045,-0.051598642,0.07796454,-4.0797195,-8.413225,1.091756
0.49057963,4.838518,0.026933251,-0.044141788,0.07476874,-4.0701427,-8.437167,1.0247183
0.49050903,4.8385563,0.026933251,-0.044141788,0.07476874,-4.0701427,-8.437167,1.0247183
0.4904412,4.838627,0.025867987,-0.035619672,0.07263821,-4.0653543,-8.446744,1.1300632
0.49037302,4.8386974,0.025867987,-0.035619672,0.07263821,-4.0653543,-8.446744,1.1300632
0.49030346,4.838696,0.023737457,-0.026032293,0.06624663,-4.1276035,-8.446744,0.9672575
0.4902342,4.8386946,0.023737457,-0.026032293,0.06624663,-4.1276035,-8.446744,0.9672575
0.4901514,4.838719,0.018411135,-0.016444914,0.059855036,-4.074931,-8.48984,1.0582372
0.49006915,4.8387423,0.018411135,-0.016444914,0.059855036,-4.074931,-8.48984,1.0582372
0.4899792,4.838761,0.015215342,-0.008988062,0.05133292,-4.1276035,-8.465898,1.0630256
0.4898885,4.838779,0.015215342,-0.008988062,0.05133292,-4.1276035,-8.465898,1.0630256
0.48979267,4.83879,0.013084813,-0.0025964756,0.044941336,-4.1659107,-8.480263,1.0630256
0.48969707,4.838801,0.013084813,-0.0025964756,0.044941336,-4.1659107,-8.480263,1.0630256
0.48959646,4.8388176,0.008823755,0.0027298466,0.037484486,-4.156334,-8.499416,1.0965444
0.48949537,4.838835,0.008823755,0.0027298466,0.037484486,-4.156334,-8.499416,1.0965444
