Pitch,Roll,Gyro_X,Gyro_Y,Gyro_Z,Accel_X,Accel_Y,Accel_Z
6.2086616,4.859734,-0.015677327,-0.035619672,0.0460066,0.59376204,-9.500193,1.532289
6.2087564,4.859799,-0.018873122,-0.036684938,0.041745543,0.6464345,-9.533711,1.5227122
6.2088537,4.859866,-0.018873122,-0.036684938,0.041745543,0.6464345,-9.533711,1.5227122
6.20895,4.859929,-0.021003649,-0.036684938,0.037484486,0.62728083,-9.5385,1.541866
6.2090464,4.859993,-0.021003649,-0.036684938,0.037484486,0.62728083,-9.5385,1.541866
6.2091656,4.8600426,-0.022068914,-0.03881547,0.033223428,0.58897364,-9.557653,1.5275006
6.209284,4.8600917,-0.022068914,-0.03881547,0.033223428,0.58897364,-9.557653,1.5275006
6.2094193,4.860123,-0.025264706,-0.04201126,0.031092897,0.59376204,-9.557653,1.4891934
6.2095537,4.860155,-0.025264706,-0.04201126,0.031092897,0.59376204,-9.557653,1.4891934
6.2096763,4.860194,-0.027395237,-0.044141788,0.030027634,0.6464345,-9.581595,1.4748282
6.209798,4.8602333,-0.027395237,-0.044141788,0.030027634,0.6464345,-9.581595,1.4748282
6.20987,4.860291,-0.03059103,-0.04946811,0.02683184,0.6847417,-9.576807,1.4748282
6.2099414,4.8603487,-0.03059103,-0.04946811,0.02683184,0.6847417,-9.576807,1.4748282
6.210036,4.860394,-0.032721557,-0.052663904,0.023636047,0.61770403,-9.562442,1.5227122
6.2101316,4.8604403,-0.032721557,-0.052663904,0.023636047,0.61770403,-9.562442,1.5227122
6.2102113,4.8604894,-0.032721557,-0.05692496,0.020440254,0.6703765,-9.605537,1.484405
6.2102895,4.860538,-0.032721557,-0.05692496,0.020440254,0.6703765,-9.605537,1.484405
6.2103076,4.8605986,-0.033786822,-0.062251285,0.019374989,0.6991069,-9.56723,1.532289
6.2103257,4.8606596,-0.033786822,-0.062251285,0.019374989,0.6991069,-9.56723,1.532289
6.2104225,4.8605423,-0.034852087,-0.066512346,0.018309724,0.6991069,-9.557653,1.4221559
6.2105236,4.860427,-0.034852087,-0.066512346,0.018309724,0.6991069,-9.557653,1.4221559
6.210476,4.8604765,-0.03698262,-0.0707734,0.016179197,0.7326257,-9.5385,1.4748282
6.210428,4.8605266,-0.03698262,-0.0707734,0.016179197,0.7326257,-9.5385,1.4748282
6.210297,4.8604584,-0.03698262,-0.07503446,0.015113931,0.7422025,-9.548077,1.4173675
6.2101655,4.8603907,-0.03698262,-0.07503446,0.015113931,0.7422025,-9.548077,1.4173675
6.2101555,4.860446,-0.03804788,-0.08036078,0.015113931,0.7182605,-9.548077,1.508347
6.2101455,4.8605013,-0.03804788,-0.08036078,0.015113931,0.7182605,-9.548077,1.508347
6.21003,4.8605123,-0.03804788,-0.08462184,0.014048667,0.770933,-9.552865,1.4556746
6.2099147,4.8605237,-0.03804788,-0.08462184,0.014048667,0.770933,-9.552865,1.4556746
6.2097926,4.860525,-0.04017841,-0.08675237,0.014048667,0.7661445,-9.5385,1.4460979
6.209671,4.860527,-0.04017841,-0.08675237,0.014048667,0.7661445,-9.5385,1.4460979
6.2095337,4.860467,-0.041243672,-0.08675237,0.014048667,0.7326257,-9.543288,1.4221559
6.2093954,4.8604097,-0.041243672,-0.08675237,0.014048667,0.7326257,-9.543288,1.4221559
6.209261,4.860343,-0.042308938,-0.0856871,0.016179197,0.7757214,-9.528923,1.412579
6.2091265,4.860277,-0.042308938,-0.0856871,0.016179197,0.7757214,-9.528923,1.412579
6.209026,4.860163,-0.04443947,-0.08355658,0.019374989,0.7374141,-9.562442,1.412579
6.2089233,4.8600507,-0.04443947,-0.08355658,0.019374989,0.7374141,-9.562442,1.412579
6.2088647,4.859913,-0.045504734,-0.08142605,0.022570781,0.7278373,-9.56723,1.412579
6.208802,4.859776,-0.045504734,-0.08142605,0.022570781,0.7278373,-9.56723,1.412579
6.208756,4.8598127,-0.046569996,-0.079295516,0.02683184,0.7517793,-9.562442,1.4652514
6.20871,4.8598504,-0.046569996,-0.079295516,0.02683184,0.7517793,-9.562442,1.4652514
6.208605,4.859841,-0.046569996,-0.077164985,0.033223428,0.79966336,-9.552865,1.4460979
6.2085004,4.8598323,-0.046569996,-0.077164985,0.033223428,0.79966336,-9.552865,1.4460979
6.2084007,4.8598247,-0.045504734,-0.07503446,0.037484486,0.79487497,-9.528923,1.4413095
6.2083015,4.8598185,-0.045504734,-0.07503446,0.037484486,0.79487497,-9.528923,1.4413095
6.2081943,4.8597875,-0.046569996,-0.07290393,0.040680278,0.8283938,-9.562442,1.436521
6.208087,4.8597574,-0.046569996,-0.07290393,0.040680278,0.8283938,-9.562442,1.436521
6.208014,4.859769,-0.048700526,-0.06970814,0.042810805,0.78529817,-9.514558,1.4508862
6.2079406,4.8597813,-0.048700526,-0.06970814,0.042810805,0.78529817,-9.514558,1.4508862
6.2078366,4.859708,-0.049765788,-0.066512346,0.04387607,0.770933,-9.552865,1.412579
6.2077327,4.8596363,-0.049765788,-0.066512346,0.04387607,0.770933,-9.552865,1.412579
6.207628,4.85958,-0.049765788,-0.06331655,0.044941336,0.79008657,-9.591172,1.4221559
6.207523,4.8595257,-0.049765788,-0.06331655,0.044941336,0.79008657,-9.591172,1.4221559
6.207485,4.8595543,-0.050831053,-0.06118602,0.0460066,0.79487497,-9.591172,1.4891934
6.2074475,4.859583,-0.050831053,-0.06118602,0.0460066,0.79487497,-9.591172,1.4891934
6.207419,4.8596153,-0.050831053,-0.057990227,0.047071867,0.7613561,-9.591172,1.4556746
6.207391,4.8596478,-0.050831053,-0.057990227,0.047071867,0.7613561,-9.591172,1.4556746
6.207477,4.859685,-0.05189632,-0.0558597,0.04813713,0.7326257,-9.595961,1.4317327
6.207559,4.8597255,-0.05189632,-0.0558597,0.04813713,0.7326257,-9.595961,1.4317327
6.207475,4.859711,-0.05189632,-0.052663904,0.049202394,0.770933,-9.600749,1.436521
6.2073884,4.859698,-0.05189632,-0.052663904,0.049202394,0.770933,-9.600749,1.436521
6.207306,4.8596864,-0.05189632,-0.051598642,0.05026766,0.78050977,-9.610326,1.4413095
6.2072244,4.8596754,-0.05189632,-0.051598642,0.05026766,0.78050977,-9.610326,1.4413095
6.2074037,4.859643,-0.052961584,-0.04946811,0.05133292,0.7374141,-9.615114,1.4269443
6.2075186,4.8596716,-0.052961584,-0.04946811,0.05133292,0.7374141,-9.615114,1.4269443
6.207569,4.8597136,-0.052961584,-0.048402846,0.052398186,0.7374141,-9.639056,1.460463
6.2076178,4.8597565,-0.052961584,-0.048402846,0.052398186,0.7374141,-9.639056,1.460463
6.207624,4.8597956,-0.052961584,-0.047337584,0.05133292,0.7517793,-9.65821,1.4652514
6.2076297,4.8598347,-0.052961584,-0.047337584,0.05133292,0.7517793,-9.65821,1.4652514
6.2075667,4.859713,-0.05189632,-0.047337584,0.049202394,0.7661445,-9.65821,1.4173675
6.2075014,4.859594,-0.05189632,-0.047337584,0.049202394,0.7661445,-9.65821,1.4173675
6.207401,4.8595314,-0.05189632,-0.047337584,0.047071867,0.79008657,-9.701305,1.436521
6.2073007,4.8594713,-0.05189632,-0.047337584,0.047071867,0.79008657,-9.701305,1.436521
6.2072,4.8594356,-0.05189632,-0.048402846,0.04387607,0.81881696,-9.68694,1.4460979
6.2070994,4.8594007,-0.05189632,-0.048402846,0.04387607,0.81881696,-9.68694,1.4460979
6.2070184,4.859405,-0.052961584,-0.048402846,0.037484486,0.80445176,-9.720459,1.4700398
6.2069383,4.8594103,-0.052961584,-0.048402846,0.037484486,0.80445176,-9.720459,1.4700398
6.206824,4.8593435,-0.050831053,-0.048402846,0.032158162,0.8475474,-9.691729,1.4269443
6.2067094,4.8592777,-0.050831053,-0.048402846,0.032158162,0.8475474,-9.691729,1.4269443
6.2066026,4.859269,-0.048700526,-0.04946811,0.02683184,0.80924016,-9.701305,1.4556746
6.2064967,4.8592615,-0.048700526,-0.04946811,0.02683184,0.80924016,-9.701305,1.4556746
6.2063704,4.8592196,-0.04763526,-0.051598642,0.020440254,0.90021986,-9.706094,1.4460979
6.2062435,4.8591776,-0.04763526,-0.051598642,0.020440254,0.90021986,-9.706094,1.4460979
6.2061095,4.859132,-0.045504734,-0.052663904,0.014048667,0.90021986,-9.725247,1.4413095
6.205976,4.8590856,-0.045504734,-0.052663904,0.014048667,0.90021986,-9.725247,1.4413095
6.2058554,4.85909,-0.04443947,-0.05372917,0.0065918155,0.90979666,-9.643845,1.4939818
6.205735,4.859094,-0.04443947,-0.05372917,0.0065918155,0.90979666,-9.643845,1.4939818
6.205605,4.8589997,-0.042308938,-0.054794434,0.00020022877,0.90021986,-9.730036,1.3838485
6.205475,4.858906,-0.042308938,-0.054794434,0.00020022877,0.90021986,-9.730036,1.3838485
6.2053294,4.8588276,-0.04017841,-0.054794434,-0.0051260935,1.0486604,-9.68694,1.3551182
6.205185,4.8587494,-0.04017841,-0.054794434,-0.0051260935,1.0486604,-9.68694,1.3551182
6.2050247,4.8586864,-0.04017841,-0.054794434,-0.014713474,1.0007763,-9.758766,1.4077905
6.2048645,4.8586245,-0.04017841,-0.054794434,-0.014713474,1.0007763,-9.758766,1.4077905
6.204709,4.8586254,-0.04017841,-0.051598642,-0.02323559,0.9816227,-9.763555,1.5131354
6.204554,4.8586273,-0.04017841,-0.051598642,-0.02323559,0.9816227,-9.763555,1.5131354
6.20441,4.8586497,-0.04017841,-0.04627232,-0.031757705,0.93852705,-9.753978,1.5370775
6.204267,4.858672,-0.04017841,-0.04627232,-0.031757705,0.93852705,-9.753978,1.5370775
6.204082,4.858654,-0.03804788,-0.043076526,-0.04241035,0.93373865,-9.80665,1.4700398
6.203898,4.858637,-0.03804788,-0.043076526,-0.04241035,0.93373865,-9.80665,1.4700398
6.2036967,4.858639,-0.03698262,-0.03988073,-0.05519352,0.91458505,-9.835381,1.4891934
6.20352,4.8586407,-0.03698262,-0.03988073,-0.05519352,0.91458505,-9.835381,1.4891934
6.203345,4.8585367,-0.03698262,-0.036684938,-0.06584617,0.866701,-9.859323,1.4077905
6.203169,4.8584323,-0.03698262,-0.036684938,-0.06584617,0.866701,-9.859323,1.4077905
6.2030125,4.8583126,-0.03698262,-0.033489145,-0.07330302,0.8379706,-9.892841,1.4173675
6.2028546,4.8581905,-0.03698262,-0.033489145,-0.07330302,0.8379706,-9.892841,1.4173675
6.2027617,4.8580546,-0.034852087,-0.030293351,-0.078629345,0.81881696,-9.935937,1.3551182
6.202669,4.8579183,-0.034852087,-0.030293351,-0.078629345,0.81881696,-9.935937,1.3551182
6.2026896,4.8578196,-0.032721557,-0.029228088,-0.0828904,0.7613561,-9.940725,1.4269443
6.2027116,4.8577213,-0.032721557,-0.029228088,-0.0828904,0.7613561,-9.940725,1.4269443
6.202765,4.8576913,-0.0284605,-0.029228088,-0.0828904,0.770933,-9.945514,1.4556746
6.202819,4.8576627,-0.0284605,-0.029228088,-0.0828904,0.770933,-9.945514,1.4556746
6.2027736,4.8575416,-0.024199443,-0.028162822,-0.0828904,0.79487497,-9.931149,1.4221559
6.202731,4.8574195,-0.024199443,-0.028162822,-0.0828904,0.79487497,-9.931149,1.4221559
6.2026634,4.857298,-0.018873122,-0.027097559,-0.08075987,0.79966336,-9.868899,1.4173675
6.2026,4.8571773,-0.018873122,-0.027097559,-0.08075987,0.79966336,-9.868899,1.4173675
6.2024794,4.8570666,-0.014612063,-0.028162822,-0.076498814,0.81402856,-9.907207,1.4317327
6.2023654,4.8569565,-0.014612063,-0.028162822,-0.076498814,0.81402856,-9.907207,1.4317327
6.202267,4.856849,-0.008220476,-0.027097559,-0.07436828,0.8283938,-9.878476,1.340753
6.2021704,4.856742,-0.008220476,-0.027097559,-0.07436828,0.8283938,-9.878476,1.340753
6.2020044,4.856662,-0.0039594183,-0.026032293,-0.07117249,0.8810662,-9.864111,1.3742718
6.2018313,4.8565774,-0.0039594183,-0.026032293,-0.07117249,0.8810662,-9.864111,1.3742718
6.2016783,4.8564987,0.001366904,-0.023901764,-0.0679767,0.8619126,-9.859323,1.3838485
6.201525,4.8564196,0.001366904,-0.023901764,-0.0679767,0.8619126,-9.859323,1.3838485
6.2014737,4.856326,0.0045626974,-0.021771235,-0.062650375,0.80924016,-9.868899,1.3790601
6.2014246,4.8562346,0.0045626974,-0.021771235,-0.062650375,0.80924016,-9.868899,1.3790601
6.2013717,4.856139,0.0066932263,-0.018575443,-0.05519352,0.80924016,-9.883265,1.2880806
6.201319,4.856043,0.0066932263,-0.018575443,-0.05519352,0.80924016,-9.883265,1.2880806
6.201319,4.856043,0.00988902,-0.012183856,-0.04773667,0.82360536,-9.878476,1.3503298
6.2012076,4.8558626,0.00988902,-0.012183856,-0.04773667,0.82360536,-9.878476,1.3503298
6.2011547,4.855778,0.012019549,-0.005792269,-0.041345086,0.82360536,-9.840169,1.364695
6.2011547,4.855778,0.012019549,-0.005792269,-0.041345086,0.82360536,-9.840169,1.364695
6.2008543,4.855668,0.013084813,-0.0015312112,-0.034953497,0.81881696,-9.801862,1.412579
6.2007403,4.855606,0.013084813,-0.0015312112,-0.034953497,0.81881696,-9.801862,1.412579
6.2007403,4.855606,0.013084813,-0.0015312112,-0.034953497,0.81881696,-9.801862,1.412579
6.200639,4.855839,0.015215342,0.0016645822,-0.03069244,0.82360536,-9.80665,1.436521
6.2007017,4.8559318,0.018411135,0.0048603755,-0.026431382,0.79008657,-9.825804,1.4460979
6.200765,4.8560233,0.018411135,0.0048603755,-0.026431382,0.79008657,-9.825804,1.4460979
6.2008405,4.85612,0.023737457,0.008056169,-0.022170324,0.79008657,-9.744401,1.4269443
6.200929,4.8562307,0.023737457,0.008056169,-0.022170324,0.79008657,-9.744401,1.4269443
6.200995,4.8561935,0.027998514,0.011251962,-0.018974531,0.7230489,-9.763555,1.3455414
6.2010756,4.8561487,0.027998514,0.011251962,-0.018974531,0.7230489,-9.763555,1.3455414
6.201144,4.856097,0.032259572,0.014447756,-0.016844003,0.7661445,-9.730036,1.364695
6.2012095,4.8560486,0.032259572,0.014447756,-0.016844003,0.7661445,-9.730036,1.364695
6.2013054,4.8560166,0.03545537,0.018708814,-0.013648209,0.7613561,-9.696517,1.3742718
6.2014008,4.8559847,0.03545537,0.018708814,-0.013648209,0.7613561,-9.696517,1.3742718
6.201481,4.855953,0.034390103,0.022969872,-0.010452416,0.7613561,-9.672575,1.3694834
6.2015705,4.8559175,0.034390103,0.022969872,-0.010452416,0.7613561,-9.672575,1.3694834
6.201644,4.855873,0.03545537,0.02723093,-0.010452416,0.7613561,-9.605537,1.3551182
6.201717,4.8558283,0.03545537,0.02723093,-0.010452416,0.7613561,-9.605537,1.3551182
6.2018347,4.8558216,0.034390103,0.031491987,-0.013648209,0.7422025,-9.643845,1.3742718
6.2019515,4.855814,0.034390103,0.031491987,-0.013648209,0.7422025,-9.643845,1.3742718
6.202046,4.855787,0.034390103,0.03468778,-0.017909266,0.7517793,-9.610326,1.364695
6.2021403,4.855759,0.034390103,0.03468778,-0.017909266,0.7517793,-9.610326,1.364695
6.202225,4.8557262,0.033324838,0.038948838,-0.02323559,0.6943185,-9.586384,1.3215994
6.2023096,4.855694,0.033324838,0.038948838,-0.02323559,0.6943185,-9.586384,1.3215994
6.2023373,4.855634,0.031194309,0.04107937,-0.027496647,0.7422025,-9.576807,1.3024458
6.202365,4.8555756,0.031194309,0.04107937,-0.027496647,0.7422025,-9.576807,1.3024458
6.20247,4.8555746,0.026933251,0.040014103,-0.033888236,0.6991069,-9.528923,1.3551182
6.202575,4.855574,0.026933251,0.040014103,-0.033888236,0.6991069,-9.528923,1.3551182
6.2026577,4.855549,0.024802722,0.038948838,-0.043475613,0.6368576,-9.495404,1.3072342
6.202739,4.855524,0.024802722,0.038948838,-0.043475613,0.6368576,-9.495404,1.3072342
6.202796,4.855481,0.020541664,0.040014103,-0.053062994,0.6464345,-9.519346,1.2880806
6.202853,4.8554373,0.020541664,0.040014103,-0.053062994,0.6464345,-9.519346,1.2880806
6.20293,4.8554287,0.018411135,0.037883572,-0.062650375,0.6560113,-9.495404,1.340753
6.2030067,4.85542,0.018411135,0.037883572,-0.062650375,0.6560113,-9.495404,1.340753
6.2030687,4.8554015,0.016280606,0.033622514,-0.07330302,0.6560113,-9.514558,1.3359646
6.203131,4.855383,0.016280606,0.033622514,-0.07330302,0.6560113,-9.514558,1.3359646
6.2031775,4.8553514,0.013084813,0.030426722,-0.0828904,0.61291564,-9.500193,1.3072342
6.203223,4.8553205,0.013084813,0.030426722,-0.0828904,0.61291564,-9.500193,1.3072342
6.203258,4.855281,0.008823755,0.026165664,-0.091412514,0.5793968,-9.509769,1.2880806
6.2032924,4.855242,0.008823755,0.026165664,-0.091412514,0.5793968,-9.509769,1.2880806
6.2032824,4.8551707,0.005627962,0.019774077,-0.10099989,0.62249243,-9.509769,1.2354081
6.2032723,4.8551,0.005627962,0.019774077,-0.10099989,0.62249243,-9.509769,1.2354081
6.2032866,4.855052,0.0024321685,0.012317227,-0.108456746,0.59855044,-9.524135,1.292869
6.203301,4.8550043,0.0024321685,0.012317227,-0.108456746,0.59855044,-9.524135,1.292869
6.2033176,4.8549643,-0.0007636249,0.0048603755,-0.11378307,0.5793968,-9.524135,1.3072342
6.2033343,4.854925,-0.0007636249,0.0048603755,-0.11378307,0.5793968,-9.524135,1.3072342
6.2033076,4.854848,-0.0028941538,-0.00366174,-0.121239915,0.61770403,-9.514558,1.2449849
6.2032814,4.8547716,-0.0028941538,-0.00366174,-0.121239915,0.61770403,-9.514558,1.2449849
6.203268,4.854708,-0.0050246827,-0.012183856,-0.12869677,0.61770403,-9.548077,1.292869
6.2032557,4.8546476,-0.0050246827,-0.012183856,-0.12869677,0.61770403,-9.548077,1.292869
6.2032022,4.854554,-0.0071552116,-0.020705972,-0.13508835,0.62249243,-9.581595,1.2354081
6.203155,4.8544707,-0.0071552116,-0.020705972,-0.13508835,0.62249243,-9.581595,1.2354081
6.2031126,4.8543897,-0.008220476,-0.028162822,-0.13934942,0.641646,-9.548077,1.2737153
6.203071,4.8543096,-0.008220476,-0.028162822,-0.13934942,0.641646,-9.548077,1.2737153
6.2029724,4.854204,-0.010351005,-0.03455441,-0.14361048,0.7038953,-9.610326,1.2258313
6.2028785,4.8541036,-0.010351005,-0.03455441,-0.14361048,0.7038953,-9.610326,1.2258313
6.202794,4.854004,-0.010351005,-0.03988073,-0.14787152,0.6703765,-9.615114,1.2258313
6.2027125,4.853908,-0.010351005,-0.03988073,-0.14787152,0.6703765,-9.615114,1.2258313
6.202622,4.8538017,-0.010351005,-0.044141788,-0.15000206,0.7278373,-9.643845,1.3024458
6.20254,4.8537045,-0.010351005,-0.044141788,-0.15000206,0.7278373,-9.643845,1.3024458
6.20254,4.8537045,-0.010351005,-0.044141788,-0.15000206,0.7278373,-9.643845,1.3024458
6.202385,4.8535113,-0.010351005,-0.048402846,-0.15000206,0.7374141,-9.600749,1.316811
6.202256,4.853404,-0.008220476,-0.051598642,-0.15000206,0.7469909,-9.610326,1.2114661
6.202131,4.853299,-0.008220476,-0.051598642,-0.15000206,0.7469909,-9.610326,1.2114661
6.2020903,4.8532324,-0.006089947,-0.054794434,-0.1489368,0.6895301,-9.639056,1.316811
6.2020516,4.853167,-0.006089947,-0.054794434,-0.1489368,0.6895301,-9.639056,1.316811
6.2018642,4.853065,-0.0039594183,-0.0558597,-0.145741,0.79966336,-9.591172,1.3263878
6.2016773,4.8529596,-0.0039594183,-0.0558597,-0.145741,0.79966336,-9.591172,1.3263878
6.2015343,4.852854,-0.0039594183,-0.054794434,-0.14254521,0.78529817,-9.581595,1.2641385
6.2013927,4.852748,-0.0039594183,-0.054794434,-0.14254521,0.78529817,-9.581595,1.2641385
6.201267,4.852643,-0.0028941538,-0.05372917,-0.13615362,0.7757214,-9.562442,1.2593501
6.2011423,4.852538,-0.0028941538,-0.05372917,-0.13615362,0.7757214,-9.562442,1.2593501
6.2010484,4.85244,-0.0007636249,-0.052663904,-0.13295783,0.78529817,-9.552865,1.3311762
6.200962,4.8523436,-0.0007636249,-0.052663904,-0.13295783,0.78529817,-9.552865,1.3311762
6.200813,4.852243,0.001366904,-0.04946811,-0.12976204,0.79487497,-9.514558,1.316811
6.200669,4.8521423,0.001366904,-0.04946811,-0.12976204,0.79487497,-9.514558,1.316811
6.200477,4.852053,0.0024321685,-0.044141788,-0.123370446,0.8619126,-9.509769,1.2401965
6.2002873,4.851964,0.0024321685,-0.044141788,-0.123370446,0.8619126,-9.509769,1.2401965
6.2001,4.8518777,0.003497433,-0.03881547,-0.11697886,0.82360536,-9.552865,1.3120226
6.199916,4.8517904,0.003497433,-0.03881547,-0.11697886,0.82360536,-9.552865,1.3120226
6.1997805,4.851695,0.0045626974,-0.03242388,-0.11058728,0.81402856,-9.562442,1.3024458
6.1996455,4.851598,0.0045626974,-0.03242388,-0.11058728,0.81402856,-9.562442,1.3024458
6.199559,4.851503,0.0066932263,-0.026032293,-0.104195684,0.79487497,-9.557653,1.283292
6.1994734,4.851406,0.0066932263,-0.026032293,-0.104195684,0.79487497,-9.557653,1.283292
6.1994886,4.8513536,0.0077584907,-0.017510178,-0.095673576,0.79487497,-9.576807,1.3311762
6.199505,4.8513055,0.0077584907,-0.017510178,-0.095673576,0.79487497,-9.576807,1.3311762
6.1995387,4.851265,0.0077584907,-0.010053327,-0.08821672,0.770933,-9.562442,1.3215994
6.1995716,4.851227,0.0077584907,-0.010053327,-0.08821672,0.770933,-9.562442,1.3215994
6.199626,4.8512573,0.0066932263,-0.00046594674,-0.0828904,0.7326257,-9.572019,1.3503298
6.199682,4.851288,0.0066932263,-0.00046594674,-0.0828904,0.7326257,-9.572019,1.3503298
6.1997437,4.851271,0.0077584907,0.008056169,-0.075433545,0.7038953,-9.600749,1.3215994
6.1998057,4.851255,0.0077584907,0.008056169,-0.075433545,0.7038953,-9.600749,1.3215994
6.1998577,4.851212,0.00988902,0.014447756,-0.06904196,0.6560113,-9.629479,1.2737153
6.1999097,4.851169,0.00988902,0.014447756,-0.06904196,0.6560113,-9.629479,1.2737153
6.1999907,4.8511844,0.00988902,0.020839343,-0.06158511,0.60812724,-9.56723,1.340753
6.200073,4.8512,0.00988902,0.020839343,-0.06158511,0.60812724,-9.56723,1.340753
6.200159,4.8511887,0.010954284,0.02723093,-0.05412826,0.56982,-9.605537,1.2976574
6.200245,4.851177,0.010954284,0.02723093,-0.05412826,0.56982,-9.605537,1.2976574
6.2003407,4.8511686,0.012019549,0.033622514,-0.045606144,0.5315128,-9.557653,1.2880806
6.2004385,4.85116,0.012019549,0.033622514,-0.045606144,0.5315128,-9.557653,1.2880806
6.2005467,4.851181,0.013084813,0.037883572,-0.034953497,0.5554548,-9.504981,1.3359646
6.200657,4.8512025,0.013084813,0.037883572,-0.034953497,0.5554548,-9.504981,1.3359646
6.2007675,4.8511868,0.015215342,0.04107937,-0.027496647,0.521936,-9.562442,1.2641385
6.200878,4.8511715,0.015215342,0.04107937,-0.027496647,0.521936,-9.562442,1.2641385
6.2010045,4.8511825,0.018411135,0.043209895,-0.018974531,0.49799395,-9.490616,1.3024458
6.2011313,4.8511934,0.018411135,0.043209895,-0.018974531,0.49799395,-9.490616,1.3024458
6.2012653,4.851206,0.019476399,0.045340426,-0.01151768,0.46926352,-9.471462,1.2976574
6.2014003,4.8512177,0.019476399,0.045340426,-0.01151768,0.46926352,-9.471462,1.2976574
6.201542,4.8512306,0.02160693,0.046405688,-0.004060829,0.40222588,-9.476251,1.2880806
6.2016826,4.8512425,0.02160693,0.046405688,-0.004060829,0.40222588,-9.476251,1.2880806
6.2018247,4.8512335,0.022672193,0.046405688,0.0033960221,0.4165911,-9.476251,1.2258313
6.201966,4.851224,0.022672193,0.046405688,0.0033960221,0.4165911,-9.476251,1.2258313
6.2021112,4.851212,0.022672193,0.04427516,0.008722344,0.44532153,-9.385271,1.2162545
6.202256,4.8512,0.022672193,0.04427516,0.008722344,0.44532153,-9.385271,1.2162545
6.202397,4.8511786,0.022672193,0.04214463,0.010852873,0.45489833,-9.3421755,1.1875241
6.202538,4.851157,0.022672193,0.04214463,0.010852873,0.45489833,-9.3421755,1.1875241
6.202684,4.8511376,0.023737457,0.04107937,0.015113931,0.48362875,-9.346964,1.2018893
6.2028294,4.851118,0.023737457,0.04107937,0.015113931,0.48362875,-9.346964,1.2018893
6.202971,4.851087,0.02160693,0.037883572,0.018309724,0.51235914,-9.32781,1.1875241
6.2031116,4.851056,0.02160693,0.037883572,0.018309724,0.51235914,-9.32781,1.1875241
6.203242,4.851014,0.020541664,0.032557253,0.01724446,0.5793968,-9.284714,1.1923125
6.2033706,4.850972,0.020541664,0.032557253,0.01724446,0.5793968,-9.284714,1.1923125
6.2034945,4.8509283,0.017345872,0.02723093,0.010852873,0.6655881,-9.270349,1.2449849
6.203618,4.8508844,0.017345872,0.02723093,0.010852873,0.6655881,-9.270349,1.2449849
6.203649,4.850801,0.013084813,0.021904606,0.00020022877,0.7230489,-9.208099,1.2210429
6.2036796,4.8507175,0.013084813,0.021904606,0.00020022877,0.7230489,-9.208099,1.2210429
6.2035837,4.850649,0.0077584907,0.017643549,-0.01151768,0.79008657,-9.155427,1.2258313
6.2034883,4.85058,0.0077584907,0.017643549,-0.01151768,0.79008657,-9.155427,1.2258313
6.2033267,4.850616,0.0024321685,0.012317227,-0.03069244,0.866701,-9.141062,1.3024458
6.203165,4.8506517,0.0024321685,0.012317227,-0.03069244,0.866701,-9.141062,1.3024458
6.202976,4.8506656,-0.0050246827,0.008056169,-0.05412826,0.90500826,-9.136273,1.292869
6.202786,4.8506794,-0.0050246827,0.008056169,-0.05412826,0.90500826,-9.136273,1.292869
6.202571,4.8506484,-0.0114162695,0.003795111,-0.07969461,0.91937345,-9.107543,1.2401965
6.2023554,4.8506174,-0.0114162695,0.003795111,-0.07969461,0.91937345,-9.107543,1.2401965
6.202113,4.8505764,-0.019938385,0.0016645822,-0.107391484,0.90021986,-9.131485,1.2449849
6.2018704,4.8505354,-0.019938385,0.0016645822,-0.107391484,0.90021986,-9.131485,1.2449849
6.2016225,4.8504457,-0.0284605,-0.0025964756,-0.13615362,0.8810662,-9.136273,1.1971009
6.201378,4.8503566,-0.0284605,-0.0025964756,-0.13615362,0.8810662,-9.136273,1.1971009
6.201107,4.8502617,-0.035917353,-0.005792269,-0.16491576,0.89064306,-9.107543,1.1875241
6.201107,4.8502617,-0.035917353,-0.005792269,-0.16491576,0.89064306,-9.107543,1.1875241
6.2003837,4.850063,-0.042308938,-0.008988062,-0.1936779,0.92895025,-9.069236,1.1923125
6.2001224,4.849991,-0.042308938,-0.008988062,-0.1936779,0.92895025,-9.069236,1.1923125
6.1997976,4.849912,-0.049765788,-0.011118591,-0.2235053,0.9672575,-9.069236,1.1971009
6.199428,4.849823,-0.049765788,-0.011118591,-0.2235053,0.9672575,-9.069236,1.1971009
6.199428,4.849823,-0.049765788,-0.011118591,-0.2235053,0.9672575,-9.069236,1.1971009
6.19867,4.849709,-0.05935317,-0.012183856,-0.2533327,1.0869676,-9.02614,1.2449849
6.1982446,4.849633,-0.07107108,-0.010053327,-0.28848645,1.1492168,-8.983045,1.2210429
6.1978188,4.849558,-0.07107108,-0.010053327,-0.28848645,1.1492168,-8.983045,1.2210429
6.197353,4.849477,-0.08385425,-0.005792269,-0.3289665,1.2449849,-8.892065,1.2258313
6.1968865,4.849396,-0.08385425,-0.005792269,-0.3289665,1.2449849,-8.892065,1.2258313
6.196374,4.849322,-0.10089848,0.0016645822,-0.37796864,1.316811,-8.844181,1.3072342
6.1958632,4.849248,-0.10089848,0.0016645822,-0.37796864,1.316811,-8.844181,1.3072342
6.195303,4.849167,-0.11794271,0.009121433,-0.43549293,1.3263878,-8.848969,1.3455414
6.1947403,4.8490868,-0.11794271,0.009121433,-0.43549293,1.3263878,-8.848969,1.3455414
6.194111,4.848978,-0.13711748,0.017643549,-0.4994088,1.316811,-8.839393,1.2976574
6.193483,4.8488703,-0.13711748,0.017643549,-0.4994088,1.316811,-8.839393,1.2976574
6.1927834,4.8487344,-0.1573575,0.02723093,-0.56865096,1.283292,-8.911219,1.2641385
6.192085,4.8485985,-0.1573575,0.02723093,-0.56865096,1.283292,-8.911219,1.2641385
6.1913114,4.8484354,-0.17866279,0.032557253,-0.6442848,1.2354081,-8.954314,1.2401965
6.1905375,4.848273,-0.17866279,0.032557253,-0.6442848,1.2354081,-8.954314,1.2401965
6.1897,4.8481336,-0.19570702,0.03468778,-0.7231143,1.1109096,-8.983045,1.3215994
6.1888638,4.8479958,-0.19570702,0.03468778,-0.7231143,1.1109096,-8.983045,1.3215994
6.187971,4.847865,-0.21275125,0.03468778,-0.80300915,1.0390835,-9.021352,1.3503298
6.1870813,4.847737,-0.21275125,0.03468778,-0.80300915,1.0390835,-9.021352,1.3503298
6.186079,4.847558,-0.22766495,0.028296193,-0.882904,1.163582,-8.978256,1.2976574
6.185077,4.84738,-0.22766495,0.028296193,-0.882904,1.163582,-8.978256,1.2976574
6.1839848,4.84715,-0.24151339,0.019774077,-0.9638641,1.4508862,-8.949526,1.2018893
6.1828923,4.8469205,-0.24151339,0.019774077,-0.9638641,1.4508862,-8.949526,1.2018893
6.1817102,4.8466806,-0.25536183,0.012317227,-1.0533463,1.9249382,-8.944737,1.2114661
6.180528,4.8464413,-0.25536183,0.012317227,-1.0533463,1.9249382,-8.944737,1.2114661
6.1792436,4.846206,-0.27347133,0.009121433,-1.160938,2.4468741,-8.834604,1.4317327
6.177955,4.845971,-0.27347133,0.009121433,-1.160938,2.4468741,-8.834604,1.4317327
6.1765466,4.845724,-0.29477662,0.014447756,-1.2940961,2.8538885,-8.748413,1.5705963
6.1751337,4.845477,-0.29477662,0.014447756,-1.2940961,2.8538885,-8.748413,1.5705963
6.1735697,4.845214,-0.32034296,0.02723093,-1.4517552,3.0214825,-8.686164,1.6950948
6.1719995,4.8449507,-0.32034296,0.02723093,-1.4517552,3.0214825,-8.686164,1.6950948
6.1702704,4.8446717,-0.35123563,0.045340426,-1.6317849,3.0502129,-8.576031,1.8579005
6.1685386,4.8443933,-0.35123563,0.045340426,-1.6317849,3.0502129,-8.576031,1.8579005
6.166613,4.844087,-0.38638934,0.06558045,-1.8288589,2.8682537,-8.6095495,1.8291701
6.164688,4.8437824,-0.38638934,0.06558045,-1.8288589,2.8682537,-8.6095495,1.8291701
6.1625576,4.8434496,-0.42260835,0.08262468,-2.039781,2.7581203,-8.710106,1.8387469
6.1625576,4.8434496,-0.42260835,0.08262468,-2.039781,2.7581203,-8.710106,1.8387469
6.157843,4.842734,-0.45456627,0.09221206,-2.2560298,2.4516625,-8.853758,1.7525556
6.15546,4.8423743,-0.45456627,0.09221206,-2.2560298,2.4516625,-8.853758,1.7525556
6.152974,4.8420076,-0.48332843,0.09434259,-2.4690828,2.2649148,-9.035717,1.6807296
6.1504436,4.841637,-0.48332843,0.09434259,-2.4690828,2.2649148,-9.035717,1.6807296
6.147698,4.8412547,-0.50676423,0.089016266,-2.6778746,1.9057846,-9.232041,1.6089035
6.1449513,4.8408747,-0.50676423,0.089016266,-2.6778746,1.9057846,-9.232041,1.6089035
6.1420527,4.8405037,-0.5238085,0.07729836,-2.8717527,1.5945383,-9.44752,1.6089035
6.13916,4.840135,-0.5238085,0.07729836,-2.8717527,1.5945383,-9.44752,1.6089035
6.1361485,4.8397655,-0.53446114,0.05599307,-3.0528476,1.3838485,-9.586384,1.460463
6.133149,4.839396,-0.53446114,0.05599307,-3.0528476,1.3838485,-9.586384,1.460463
6.1300497,4.8389955,-0.541918,0.02723093,-3.219029,1.2114661,-9.662998,1.4508862
6.1269484,4.8385916,-0.541918,0.02723093,-3.219029,1.2114661,-9.662998,1.4508862
6.123729,4.8381596,-0.5440485,-0.010053327,-3.3702965,1.1348516,-9.720459,1.3838485
6.120508,4.8377266,-0.5440485,-0.010053327,-3.3702965,1.1348516,-9.720459,1.3838485
6.1171584,4.8372674,-0.54511374,-0.0558597,-3.5055852,1.0630256,-9.77792,1.3215994
6.1138086,4.836808,-0.54511374,-0.0558597,-3.5055852,1.0630256,-9.77792,1.3215994
6.1103287,4.836346,-0.5440485,-0.105927125,-3.6302211,1.2401965,-9.80665,1.2976574
6.1068487,4.835884,-0.5440485,-0.105927125,-3.6302211,1.2401965,-9.80665,1.2976574
6.1032176,4.8354626,-0.541918,-0.16025561,-3.743139,1.5610195,-9.873688,1.3599066
6.099592,4.835037,-0.541918,-0.16025561,-3.743139,1.5610195,-9.873688,1.3599066
6.095632,4.8346105,-0.5355264,-0.2145841,-3.8496654,1.9632454,-9.552865,1.2689269
6.0916862,4.834196,-0.5355264,-0.2145841,-3.8496654,1.9632454,-9.552865,1.2689269
6.0876684,4.8338013,-0.53020006,-0.26784733,-3.960453,2.1021092,-9.576807,1.5466543
6.0836596,4.8334093,-0.53020006,-0.26784733,-3.960453,2.1021092,-9.576807,1.5466543
6.0794816,4.8329945,-0.52700424,-0.32111055,-4.0808277,2.825158,-9.950302,1.8722657
6.075307,4.832583,-0.52700424,-0.32111055,-4.0808277,2.825158,-9.950302,1.8722657
6.0709767,4.8321486,-0.51635164,-0.36265585,-4.198007,3.514688,-9.888053,1.7812861
6.0666485,4.8317156,-0.51635164,-0.36265585,-4.198007,3.514688,-9.888053,1.7812861
6.0621924,4.831287,-0.49824214,-0.38502643,-4.314121,3.8738184,-10.0029745,1.6998832
6.057737,4.830859,-0.49824214,-0.38502643,-4.314121,3.8738184,-10.0029745,1.6998832
6.0531597,4.8304353,-0.4748063,-0.39248326,-4.4259734,4.3718123,-9.854534,1.4700398
6.0485826,4.8300123,-0.4748063,-0.39248326,-4.4259734,4.3718123,-9.854534,1.4700398
6.0439,4.829619,-0.44923997,-0.38502643,-4.5325003,4.501099,-9.792285,1.4508862
6.0392175,4.829226,-0.44923997,-0.38502643,-4.5325003,4.501099,-9.792285,1.4508862
6.034436,4.8288736,-0.42793468,-0.36904746,-4.6390266,4.477157,-9.77792,1.6089035
6.0296545,4.8285227,-0.42793468,-0.36904746,-4.6390266,4.477157,-9.77792,1.6089035
6.0247707,4.8281965,-0.40875992,-0.355199,-4.7434225,4.7261543,-9.68694,1.6232687
6.019887,4.827872,-0.40875992,-0.355199,-4.7434225,4.7261543,-9.68694,1.6232687
6.014903,4.8275766,-0.39065042,-0.3402853,-4.8478184,4.8698063,-9.715671,1.6950948
6.0099196,4.827283,-0.39065042,-0.3402853,-4.8478184,4.8698063,-9.715671,1.6950948
6.004831,4.8270125,-0.37467146,-0.33282846,-4.95541,5.2385135,-9.753978,1.8052281
5.999743,4.826745,-0.37467146,-0.33282846,-4.95541,5.2385135,-9.753978,1.8052281
5.99454,4.8264976,-0.35869247,-0.3285674,-5.0715237,5.889736,-9.825804,1.9488802
5.9893374,4.8262525,-0.35869247,-0.3285674,-5.0715237,5.889736,-9.825804,1.9488802
5.9840007,4.8260202,-0.3427135,-0.32643688,-5.2025514,6.540959,-9.768343,1.8531121
5.978664,4.8257904,-0.3427135,-0.32643688,-5.2025514,6.540959,-9.768343,1.8531121
5.973175,4.8255806,-0.32673454,-0.32111055,-5.349558,6.8522053,-9.787497,1.8004397
5.9676967,4.825373,-0.32673454,-0.32111055,-5.349558,6.8522053,-9.787497,1.8004397
5.9620595,4.8251934,-0.31182083,-0.30832738,-5.5061517,6.919243,-9.763555,1.8291701
5.9564223,4.825015,-0.31182083,-0.30832738,-5.5061517,6.919243,-9.763555,1.8291701
5.9506273,4.824871,-0.29584187,-0.28915262,-5.6680717,6.6846113,-9.753978,1.8483237
5.944833,4.82473,-0.29584187,-0.28915262,-5.6680717,6.6846113,-9.753978,1.8483237
5.938884,4.8246226,-0.27453658,-0.2742389,-5.824666,6.727707,-9.68694,1.8195933
5.932935,4.824519,-0.27453658,-0.2742389,-5.824666,6.727707,-9.68694,1.8195933
5.9268403,4.8244495,-0.2500355,-0.2657168,-5.9716725,6.847417,-9.634268,1.7860745
5.920746,4.8243833,-0.2500355,-0.2657168,-5.9716725,6.847417,-9.634268,1.7860745
5.914508,4.824358,-0.22233863,-0.25719467,-6.111222,6.9479733,-9.504981,1.8148049
5.9082828,4.8243365,-0.22233863,-0.25719467,-6.111222,6.9479733,-9.504981,1.8148049
5.9019237,4.824352,-0.19251123,-0.2476073,-6.2379885,6.8522053,-9.346964,1.6424223
5.895565,4.8243713,-0.19251123,-0.2476073,-6.2379885,6.8522053,-9.346964,1.6424223
5.8890834,4.8244104,-0.16694488,-0.24015045,-6.3562326,6.7468605,-9.313444,1.2641385
5.882602,4.8244543,-0.16694488,-0.24015045,-6.3562326,6.7468605,-9.313444,1.2641385
5.8760104,4.8245106,-0.14670485,-0.23482412,-6.465955,6.7372837,-9.270349,0.93852705
5.869419,4.824571,-0.14670485,-0.23482412,-6.465955,6.7372837,-9.270349,0.93852705
5.8627334,4.8246455,-0.13072589,-0.23482412,-6.5618286,6.6654577,-9.251195,0.7757214
5.856048,4.8247237,-0.13072589,-0.23482412,-6.5618286,6.6654577,-9.251195,0.7757214
5.8492823,4.824809,-0.122203775,-0.23908518,-6.643854,6.4978633,-9.299079,0.7038953
5.842483,4.8248987,-0.122203775,-0.23908518,-6.643854,6.4978633,-9.299079,0.7038953
5.835682,4.824999,-0.11581218,-0.24015045,-6.715227,6.3781533,-9.26556,0.6943185
5.8288474,4.8251023,-0.11581218,-0.24015045,-6.715227,6.3781533,-9.26556,0.6943185
5.8219476,4.82522,-0.11048587,-0.24121572,-6.780208,6.459556,-9.150639,0.6847417
5.8150487,4.825341,-0.11048587,-0.24121572,-6.780208,6.459556,-9.150639,0.6847417
5.8080845,4.8254724,-0.107290074,-0.24654204,-6.844124,6.847417,-8.99741,0.60812724
5.8011355,4.8256073,-0.107290074,-0.24654204,-6.844124,6.847417,-8.99741,0.60812724
5.794087,4.8257623,-0.10302901,-0.25719467,-6.9112353,7.2113357,-8.949526,0.7422025
5.78706,4.825922,-0.10302901,-0.25719467,-6.9112353,7.2113357,-8.949526,0.7422025
5.7799554,4.8260956,-0.09663743,-0.27317366,-6.9794126,7.489063,-8.724471,0.78529817
5.772844,4.826274,-0.09663743,-0.27317366,-6.9794126,7.489063,-8.724471,0.78529817
5.7656665,4.826467,-0.08705004,-0.28808734,-7.050785,7.4842744,-8.643068,0.8331822
5.758489,4.826666,-0.08705004,-0.28808734,-7.050785,7.4842744,-8.643068,0.8331822
5.751238,4.826895,-0.07852793,-0.29874,-7.1242886,7.61835,-8.48984,1.067814
5.7439866,4.827131,-0.07852793,-0.29874,-7.1242886,7.61835,-8.48984,1.067814
5.7366896,4.8274446,-0.06574476,-0.30406633,-7.1935306,6.8091097,-8.662222,1.6328455
5.7293944,4.8277683,-0.06574476,-0.30406633,-7.1935306,6.8091097,-8.662222,1.6328455
5.7220864,4.828151,-0.04763526,-0.3136537,-7.255316,6.205771,-8.690952,1.8626889
5.7147856,4.8285446,-0.04763526,-0.3136537,-7.255316,6.205771,-8.690952,1.8626889
5.7074537,4.828967,-0.021003649,-0.33282846,-7.296861,5.9663506,-8.475474,1.7908629
5.7001305,4.8294,-0.021003649,-0.33282846,-7.296861,5.9663506,-8.475474,1.7908629
5.692801,4.829853,0.008823755,-0.36691692,-7.3213625,5.645528,-8.221688,1.6711528
5.685482,4.8303146,0.008823755,-0.36691692,-7.3213625,5.645528,-8.221688,1.6711528
5.6781273,4.8307796,0.039716423,-0.4212454,-7.336276,5.568913,-7.9583263,1.2976574
5.6707926,4.831253,0.039716423,-0.4212454,-7.336276,5.568913,-7.9583263,1.2976574
5.663568,4.8316426,0.06421751,-0.48835707,-7.3426676,5.4300494,-7.848193,0.9720459
5.6563525,4.832017,0.06421751,-0.48835707,-7.3426676,5.4300494,-7.848193,0.9720459
5.649111,4.8322506,0.08126174,-0.56079507,-7.3384066,5.3342814,-7.896077,0.7517793
5.6418767,4.8324976,0.08126174,-0.56079507,-7.3384066,5.3342814,-7.896077,0.7517793
5.634656,4.8327093,0.09617544,-0.6353636,-7.3181667,5.386954,-8.030152,0.7326257
5.627439,4.832931,0.09617544,-0.6353636,-7.3181667,5.386954,-8.030152,0.7326257
5.620237,4.8330975,0.11108914,-0.7078015,-7.2851434,5.3582234,-8.183381,0.5793968
5.612938,4.833273,0.11108914,-0.7078015,-7.2851434,5.3582234,-8.183381,0.5793968
5.605627,4.8333845,0.12493758,-0.77597845,-7.240402,5.48751,-8.1881695,0.39264908
5.5985217,4.8334985,0.12493758,-0.77597845,-7.240402,5.48751,-8.1881695,0.39264908
5.5985217,4.8334985,0.12493758,-0.77597845,-7.240402,5.48751,-8.1881695,0.39264908
5.5839977,4.833626,0.13878602,-0.84202486,-7.182878,5.645528,-8.073248,0.34476504
5.577201,4.8336544,0.1483734,-0.90274495,-7.1189623,5.741296,-8.111555,0.47884035
5.570231,4.833687,0.1483734,-0.90274495,-7.1189623,5.741296,-8.111555,0.47884035
5.563247,4.833693,0.15476498,-0.95600814,-7.0475893,5.645528,-8.288726,0.5602432
5.563247,4.833693,0.15476498,-0.95600814,-7.0475893,5.645528,-8.288726,0.5602432
5.548446,4.8336725,0.15689552,-1.0018145,-6.9698253,5.803545,-8.394072,0.59376204
5.542174,4.833638,0.15689552,-1.0018145,-6.9698253,5.803545,-8.394072,0.59376204
5.535595,4.83354,0.15476498,-1.0433599,-6.8824735,5.6886234,-8.446744,0.4261679
5.528622,4.833435,0.15476498,-1.0433599,-6.8824735,5.6886234,-8.446744,0.4261679
5.521938,4.8332653,0.14624287,-1.0795789,-6.7812734,5.66947,-8.576031,0.25378537
5.5152006,4.8330917,0.14624287,-1.0795789,-6.7812734,5.66947,-8.576031,0.25378537
5.5152006,4.8330917,0.14624287,-1.0795789,-6.7812734,5.66947,-8.576031,0.25378537
5.5152006,4.8330917,0.14624287,-1.0795789,-6.7812734,5.66947,-8.576031,0.25378537
5.4952354,4.8323607,0.1334597,-1.1062105,-6.6683555,5.746084,-8.51857,0.17238252
5.4889,4.8321095,0.11321967,-1.1211241,-6.5479803,6.4547677,-9.102755,0.7278373
5.482526,4.8317976,0.09404491,-1.1200589,-6.421214,6.631939,-9.208099,0.59376204
5.476159,4.8314815,0.09404491,-1.1200589,-6.421214,6.631939,-9.208099,0.59376204
5.4699244,4.831159,0.08552279,-1.0987536,-6.28486,6.6846113,-9.361329,0.63206923
5.4636846,4.8308315,0.08552279,-1.0987536,-6.28486,6.6846113,-9.361329,0.63206923
5.4575706,4.830495,0.07913121,-1.067861,-6.147441,6.612785,-9.394848,0.47884035
5.451512,4.8301563,0.07913121,-1.067861,-6.147441,6.612785,-9.394848,0.47884035
5.445561,4.8298306,0.07913121,-1.0348377,-6.006826,6.8522053,-9.41879,0.545878
5.4396105,4.8294992,0.07913121,-1.0348377,-6.006826,6.8522053,-9.41879,0.545878
5.433808,4.829218,0.08339227,-0.99755347,-5.8651457,6.9144545,-9.41879,0.8858546
5.428011,4.8289313,0.08339227,-0.99755347,-5.8651457,6.9144545,-9.41879,0.8858546
5.4223533,4.8286896,0.089783855,-0.9538776,-5.723466,6.981492,-9.557653,1.0630256
5.41669,4.8284426,0.089783855,-0.9538776,-5.723466,6.981492,-9.557653,1.0630256
5.4111814,4.82825,0.09830597,-0.90487546,-5.582851,7.043741,-9.409213,1.2018893
5.405563,4.8280487,0.09830597,-0.90487546,-5.582851,7.043741,-9.409213,1.2018893
5.400287,4.8279066,0.10789335,-0.8537428,-5.4454317,7.067683,-9.471462,1.2785037
5.39492,4.8277574,0.10789335,-0.8537428,-5.4454317,7.067683,-9.471462,1.2785037
5.3896885,4.827669,0.120676525,-0.8026101,-5.3080125,7.2927384,-9.284714,1.3503298
5.3844514,4.827577,0.120676525,-0.8026101,-5.3080125,7.2927384,-9.284714,1.3503298
5.379357,4.8275332,0.13239443,-0.7568037,-5.1748543,7.1395097,-9.160215,1.3551182
5.3742676,4.8274875,0.13239443,-0.7568037,-5.1748543,7.1395097,-9.160215,1.3551182
5.3693047,4.827488,0.14091654,-0.7120626,-5.0416965,7.029376,-9.054871,1.388637
5.3643465,4.8274865,0.14091654,-0.7120626,-5.0416965,7.029376,-9.054871,1.388637
5.3595233,4.827538,0.14730814,-0.67051727,-4.906408,6.9288197,-8.983045,1.6041151
5.3547053,4.827588,0.14730814,-0.67051727,-4.906408,6.9288197,-8.983045,1.6041151
5.3500204,4.827671,0.15263446,-0.633233,-4.766858,6.8043213,-8.901642,1.6089035
5.345344,4.8277526,0.15263446,-0.633233,-4.766858,6.8043213,-8.901642,1.6089035
5.3408093,4.827853,0.15583025,-0.5991446,-4.6230474,6.751649,-8.614338,1.4173675
5.3362827,4.827953,0.15583025,-0.5991446,-4.6230474,6.751649,-8.614338,1.4173675
5.3319016,4.828068,0.15796077,-0.5714477,-4.476041,6.7324953,-8.461109,1.364695
5.3275204,4.828182,0.15796077,-0.5714477,-4.476041,6.7324953,-8.461109,1.364695
5.323291,4.8283076,0.15689552,-0.5469466,-4.322643,6.8282633,-8.226477,1.3359646
5.3190646,4.828432,0.15689552,-0.5469466,-4.322643,6.8282633,-8.226477,1.3359646
5.314997,4.8285627,0.15476498,-0.52138025,-4.1713753,6.8282633,-7.967903,1.2354081
5.310921,4.8286934,0.15476498,-0.52138025,-4.1713753,6.8282633,-7.967903,1.2354081
5.306986,4.828842,0.1483734,-0.4936834,-4.0201077,6.919243,-7.6853876,1.2737153
5.3030777,4.82899,0.1483734,-0.4936834,-4.0201077,6.919243,-7.6853876,1.2737153
5.2993145,4.82917,0.14304708,-0.4606602,-3.8699055,7.067683,-7.455544,1.3742718
5.295544,4.8293514,0.14304708,-0.4606602,-3.8699055,7.067683,-7.455544,1.3742718
5.291919,4.829567,0.13772075,-0.42337593,-3.7260947,7.2687964,-7.129933,1.3359646
5.288295,4.8297834,0.13772075,-0.42337593,-3.7260947,7.2687964,-7.129933,1.3359646
5.284805,4.830058,0.13878602,-0.38396114,-3.5876105,7.422025,-6.861782,1.4413095
5.281315,4.830334,0.13878602,-0.38396114,-3.5876105,7.422025,-6.861782,1.4413095
5.2779465,4.8306713,0.14198181,-0.3434811,-3.4640398,7.599196,-6.531382,1.4317327
5.274579,4.83101,0.14198181,-0.3434811,-3.4640398,7.599196,-6.531382,1.4317327
5.2713165,4.8314104,0.14624287,-0.3019358,-3.3564482,7.747637,-6.244078,1.340753
5.268058,4.831812,0.14624287,-0.3019358,-3.3564482,7.747637,-6.244078,1.340753
5.2649055,4.832257,0.15156919,-0.26145574,-3.2659006,7.656657,-5.9424086,1.1204864
5.2617464,4.8327045,0.15156919,-0.26145574,-3.2659006,7.656657,-5.9424086,1.1204864
5.258681,4.8331885,0.15689552,-0.22630201,-3.1892016,7.642292,-5.683835,0.94810385
5.2556124,4.8336754,0.15689552,-0.22630201,-3.1892016,7.642292,-5.683835,0.94810385
5.2526283,4.8341475,0.15902604,-0.19540934,-3.1220899,7.627927,-5.5018754,0.6895301
5.2496405,4.834623,0.15902604,-0.19540934,-3.1220899,7.627927,-5.5018754,0.6895301
5.246724,4.835149,0.15796077,-0.16771246,-3.0581741,7.5321584,-5.3965306,0.7230489
5.243805,4.835679,0.15796077,-0.16771246,-3.0581741,7.5321584,-5.3965306,0.7230489
5.2409515,4.8362412,0.15689552,-0.14534192,-2.9942582,7.445967,-5.185841,0.7038953
5.2380986,4.8368077,0.15689552,-0.14534192,-2.9942582,7.445967,-5.185841,0.7038953
5.235307,4.8374014,0.15583025,-0.12723242,-2.9314075,7.335834,-5.0517654,0.6991069
5.2325215,4.8379974,0.15583025,-0.12723242,-2.9314075,7.335834,-5.0517654,0.6991069
5.2297945,4.8386307,0.15263446,-0.11231872,-2.8674917,7.264008,-4.7979803,0.7086837
5.227068,4.8392677,0.15263446,-0.11231872,-2.8674917,7.264008,-4.7979803,0.7086837
5.2244067,4.83991,0.14943866,-0.10060081,-2.8025105,7.2448545,-4.6255975,0.6607997
5.2217507,4.8405533,0.14943866,-0.10060081,-2.8025105,7.2448545,-4.6255975,0.6607997
5.2191567,4.841201,0.14411235,-0.091013424,-2.73966,7.2927384,-4.4196963,0.61291564
5.216563,4.8418503,0.14411235,-0.091013424,-2.73966,7.2927384,-4.4196963,0.61291564
5.214031,4.842426,0.13985129,-0.0856871,-2.6821356,7.369353,-4.261679,0.5267244
5.2114997,4.8430085,0.13985129,-0.0856871,-2.6821356,7.369353,-4.261679,0.5267244
5.2087574,4.8435373,0.13452496,-0.08355658,-2.631003,7.5944076,-3.9456444,0.46926352
5.2060213,4.844055,0.13452496,-0.08355658,-2.631003,7.5944076,-3.9456444,0.46926352
5.203315,4.844612,0.12493758,-0.08036078,-2.586262,7.728483,-3.7349546,0.4261679
5.2006063,4.84517,0.12493758,-0.08036078,-2.586262,7.728483,-3.7349546,0.4261679
5.197935,4.8457365,0.11215441,-0.07609972,-2.5511081,7.8769236,-3.490746,0.37828386
5.1952624,4.8463063,0.11215441,-0.07609972,-2.5511081,7.8769236,-3.490746,0.37828386
5.192611,4.8468733,0.09404491,-0.0707734,-2.526607,7.8529816,-3.2992098,0.34476504
5.189965,4.8474417,0.09404491,-0.0707734,-2.526607,7.8529816,-3.2992098,0.34476504
5.1873317,4.848041,0.07273962,-0.06544708,-2.5084975,7.8290396,-3.1268275,0.41180268
5.184698,4.8486443,0.07273962,-0.06544708,-2.5084975,7.8290396,-3.1268275,0.41180268
5.1820817,4.849205,0.05036907,-0.062251285,-2.4946492,7.7572136,-2.9879637,0.30645782
5.179452,4.8497725,0.05036907,-0.062251285,-2.4946492,7.7572136,-2.9879637,0.30645782
5.176855,4.8503146,0.026933251,-0.062251285,-2.486127,7.656657,-2.8395233,0.2777274
5.1742506,4.850864,0.026933251,-0.062251285,-2.486127,7.656657,-2.8395233,0.2777274
5.1716433,4.8513746,0.0024321685,-0.06544708,-2.4776049,7.6853876,-2.6671407,0.18674773
5.169044,4.851889,0.0024321685,-0.06544708,-2.4776049,7.6853876,-2.6671407,0.18674773
5.166403,4.8523817,-0.022068914,-0.06757761,-2.4712133,7.560889,-2.5953147,0.15801731
5.163866,4.8528595,-0.022068914,-0.06757761,-2.4712133,7.560889,-2.5953147,0.15801731
5.161297,4.853294,-0.048700526,-0.07396919,-2.4669523,7.398083,-2.5187001,0.095768064
5.1587152,4.8537345,-0.048700526,-0.07396919,-2.4669523,7.398083,-2.5187001,0.095768064
5.1561465,4.854121,-0.076397404,-0.08036078,-2.45843,7.1586633,-2.4947581,0.062249243
5.1535783,4.8545103,-0.076397404,-0.08036078,-2.45843,7.1586633,-2.4947581,0.062249243
5.151024,4.8548584,-0.10302901,-0.08462184,-2.4435165,7.1059904,-2.3654714,-0.01436521
5.1484756,4.8552084,-0.10302901,-0.08462184,-2.4435165,7.1059904,-2.3654714,-0.01436521
5.145945,4.8555164,-0.12966062,-0.08781763,-2.4222112,7.1730285,-2.3750482,-0.04309563
5.1434183,4.855828,-0.12966062,-0.08781763,-2.4222112,7.1730285,-2.3750482,-0.04309563
5.1409197,4.8560963,-0.1541617,-0.091013424,-2.39771,7.1634517,-2.336741,-0.090979666
5.13842,4.856368,-0.1541617,-0.091013424,-2.39771,7.1634517,-2.336741,-0.090979666
5.13595,4.8566146,-0.17759752,-0.08994816,-2.3678827,7.038953,-2.2266076,-0.11492168
5.13348,4.8568635,-0.17759752,-0.08994816,-2.3678827,7.038953,-2.2266076,-0.11492168
5.1310453,4.8570843,-0.20209861,-0.08675237,-2.3348594,7.005434,-2.2026656,-0.1340753
5.1286116,4.8573074,-0.20209861,-0.08675237,-2.3348594,7.005434,-2.2026656,-0.1340753
5.1262217,4.857496,-0.22766495,-0.079295516,-2.2997057,7.015011,-2.2170308,-0.22026655
5.1238327,4.857686,-0.22766495,-0.079295516,-2.2997057,7.015011,-2.2170308,-0.22026655
5.121485,4.8578587,-0.2564271,-0.06864287,-2.2602909,6.967127,-2.2361844,-0.21068975
5.119143,4.8580317,-0.2564271,-0.06864287,-2.2602909,6.967127,-2.2361844,-0.21068975
5.116836,4.8582125,-0.28731975,-0.052663904,-2.219811,7.0485296,-2.2744915,-0.12928689
5.11453,4.858394,-0.28731975,-0.052663904,-2.219811,7.0485296,-2.2744915,-0.12928689
5.1122727,4.8585596,-0.31714717,-0.035619672,-2.1835918,7.16824,-2.3798366,-0.17238252
5.110017,4.8587275,-0.31714717,-0.035619672,-2.1835918,7.16824,-2.3798366,-0.17238252
5.107802,4.8588877,-0.34803984,-0.018575443,-2.1484382,7.2304893,-2.5139117,-0.10055647
5.1055927,4.8590493,-0.34803984,-0.018575443,-2.1484382,7.2304893,-2.5139117,-0.10055647
5.1034365,4.859178,-0.37786725,-0.0047270046,-2.119676,7.28795,-2.705448,-0.110133275
5.101283,4.859309,-0.37786725,-0.0047270046,-2.119676,7.28795,-2.705448,-0.110133275
5.0991707,4.859421,-0.4034336,0.00592564,-2.099436,7.273585,-2.8538885,0.02873042
5.0970635,4.8595333,-0.4034336,0.00592564,-2.099436,7.273585,-2.8538885,0.02873042
5.0950403,4.8596206,-0.42473888,0.010186698,-2.079196,7.1347213,-3.0214825,0.090979666
5.0930176,4.8597136,-0.42473888,0.010186698,-2.079196,7.1347213,-3.0214825,0.090979666
5.0910797,4.859844,-0.4417831,0.012317227,-2.0600212,7.029376,-3.2321723,0.16280572
5.089142,4.8599834,-0.4417831,0.012317227,-2.0600212,7.029376,-3.2321723,0.16280572
5.087248,4.860155,-0.4566968,0.011251962,-2.0387158,6.8282633,-3.3758245,0.20111294
5.0853586,4.8603344,-0.4566968,0.011251962,-2.0387158,6.8282633,-3.3758245,0.20111294
5.0835056,4.8605766,-0.47054526,0.0048603755,-2.0142148,6.6367273,-3.5194764,0.38307226
5.0816517,4.8608246,-0.47054526,0.0048603755,-2.0142148,6.6367273,-3.5194764,0.38307226
5.079826,4.8610435,-0.4811979,-0.005792269,-1.9854528,6.5601125,-3.643975,0.4165911
5.078,4.861268,-0.4811979,-0.005792269,-1.9854528,6.5601125,-3.643975,0.4165911
5.0762086,4.861434,-0.48972002,-0.021771235,-1.9481685,6.517017,-3.739743,0.4213795
5.074417,4.8616047,-0.48972002,-0.021771235,-1.9481685,6.517017,-3.739743,0.4213795
5.072662,4.8617105,-0.49504632,-0.04201126,-1.9087536,6.622362,-3.7780502,0.4405331
5.070906,4.86182,-0.49504632,-0.04201126,-1.9087536,6.622362,-3.7780502,0.4405331
5.069186,4.8618636,-0.49824214,-0.06757761,-1.8682736,6.622362,-3.9312792,0.50757074
5.0674667,4.8619103,-0.49824214,-0.06757761,-1.8682736,6.622362,-3.9312792,0.50757074
5.0657864,4.8618712,-0.49824214,-0.09420922,-1.8245978,6.766014,-3.98874,0.51235914
5.064106,4.8618336,-0.49824214,-0.09420922,-1.8245978,6.766014,-3.98874,0.51235914
5.062462,4.8616967,-0.4929158,-0.12084083,-1.7841177,7.005434,-3.9935284,0.45489833
5.0608187,4.861562,-0.4929158,-0.12084083,-1.7841177,7.005434,-3.9935284,0.45489833
5.059207,4.861353,-0.4811979,-0.14640717,-1.7468334,7.1873937,-4.0414124,0.45968673
5.057596,4.861146,-0.4811979,-0.14640717,-1.7468334,7.1873937,-4.0414124,0.45968673
5.056014,4.8609037,-0.4662842,-0.17197353,-1.7127451,7.393295,-4.0653543,0.5793968
5.054432,4.860662,-0.4662842,-0.17197353,-1.7127451,7.393295,-4.0653543,0.5793968
5.0528746,4.8603725,-0.4481747,-0.19753987,-1.6839828,7.6614456,-4.0318356,0.62728083
5.051316,4.8600817,-0.4481747,-0.19753987,-1.6839828,7.6614456,-4.0318356,0.62728083
5.049773,4.8597555,-0.42473888,-0.22097568,-1.6626776,7.872135,-4.084508,0.6895301
5.049773,4.8597555,-0.42473888,-0.22097568,-1.6626776,7.872135,-4.084508,0.6895301
5.049773,4.8597555,-0.42473888,-0.22097568,-1.6626776,7.872135,-4.084508,0.6895301
5.049773,4.8597555,-0.42473888,-0.22097568,-1.6626776,7.872135,-4.084508,0.6895301
5.043447,4.8582654,-0.37786725,-0.26465154,-1.6339154,8.202535,-4.1132383,0.8475474
5.042061,4.8579235,-0.37786725,-0.26465154,-1.6339154,8.202535,-4.1132383,0.8475474
5.040544,4.85751,-0.35443142,-0.28489155,-1.6190017,8.389283,-4.10845,0.8571242
5.03908,4.8571086,-0.35443142,-0.28489155,-1.6190017,8.389283,-4.10845,0.8571242
5.037581,4.8566437,-0.33312613,-0.30300105,-1.6051533,8.456321,-4.132392,0.8283938
5.0360804,4.8561764,-0.33312613,-0.30300105,-1.6051533,8.456321,-4.132392,0.8283938
5.034588,4.85567,-0.31075558,-0.31898,-1.5870438,8.604761,-4.146757,0.82360536
5.0329657,4.855116,-0.31075558,-0.31898,-1.5870438,8.604761,-4.146757,0.82360536
5.031633,4.8546247,-0.29051554,-0.33389372,-1.5646733,8.671799,-4.1180267,0.8283938
5.0301666,4.8540807,-0.29051554,-0.33389372,-1.5646733,8.671799,-4.1180267,0.8283938
5.0287237,4.853491,-0.27240607,-0.3466769,-1.5380416,8.767567,-4.060566,0.7757214
5.0272837,4.8528986,-0.27240607,-0.3466769,-1.5380416,8.767567,-4.060566,0.7757214
5.0258737,4.852292,-0.25536183,-0.3583948,-1.5039532,8.954314,-3.916914,0.79008657
5.0244617,4.8516817,-0.25536183,-0.3583948,-1.5039532,8.954314,-3.916914,0.79008657
5.023089,4.8510485,-0.24044813,-0.3647864,-1.4634731,8.99741,-3.8738184,0.78529817
5.0217137,4.8504095,-0.24044813,-0.3647864,-1.4634731,8.99741,-3.8738184,0.78529817
5.0203886,4.8497453,-0.22873022,-0.36691692,-1.4155363,9.050082,-3.7014358,0.7038953
5.019063,4.849076,-0.22873022,-0.36691692,-1.4155363,9.050082,-3.7014358,0.7038953
5.017788,4.8483963,-0.22020811,-0.36585164,-1.3633382,9.169792,-3.6104562,0.6751649
5.0165153,4.8477125,-0.22020811,-0.36585164,-1.3633382,9.169792,-3.6104562,0.6751649
5.015297,4.847048,-0.21275125,-0.35946006,-1.3047488,9.299079,-3.4715924,0.6512229
5.014077,4.846377,-0.21275125,-0.35946006,-1.3047488,9.299079,-3.4715924,0.6512229
5.012925,4.8457174,-0.2052944,-0.3466769,-1.2418982,9.466674,-3.3614593,0.5793968
5.011773,4.8450527,-0.2052944,-0.3466769,-1.2418982,9.466674,-3.3614593,0.5793968
5.010686,4.8444114,-0.20103334,-0.33069792,-1.176917,9.557653,-3.2369606,0.521936
5.009602,4.843766,-0.20103334,-0.33069792,-1.176917,9.557653,-3.2369606,0.521936
5.0085893,4.8431463,-0.19570702,-0.30726212,-1.1108706,9.672575,-3.193865,0.47884035
5.0075774,4.842523,-0.19570702,-0.30726212,-1.1108706,9.672575,-3.193865,0.47884035
5.0066366,4.8419547,-0.18931544,-0.2774347,-1.0458895,9.811439,-3.0693667,0.4213795
5.005695,4.8413825,-0.18931544,-0.2774347,-1.0458895,9.811439,-3.0693667,0.4213795
5.004795,4.8405867,-0.18292385,-0.24334624,-0.9872999,9.907207,-2.9831753,0.37828386
5.0039196,4.839898,-0.18292385,-0.24334624,-0.9872999,9.907207,-2.9831753,0.37828386
5.0028925,4.8391714,-0.17653225,-0.20393145,-0.92977566,9.921572,-2.920926,0.33997664
5.0018787,4.838414,-0.17653225,-0.20393145,-0.92977566,9.921572,-2.920926,0.33997664
5.0008864,4.8378587,-0.17333646,-0.16025561,-0.878643,9.950302,-2.8299465,0.2873042
4.9998965,4.837291,-0.17333646,-0.16025561,-0.878643,9.950302,-2.8299465,0.2873042
4.998971,4.836811,-0.1722712,-0.11657977,-0.8339018,9.902418,-2.7581203,0.20111294
4.998048,4.8363247,-0.1722712,-0.11657977,-0.8339018,9.902418,-2.7581203,0.20111294
4.99717,4.835957,-0.17440173,-0.07396919,-0.7976828,9.792285,-2.7150247,0.18195933
4.996292,4.83558,-0.17440173,-0.07396919,-0.7976828,9.792285,-2.7150247,0.18195933
4.995416,4.83529,-0.17653225,-0.03242388,-0.7635944,9.720459,-2.7341783,0.20590134
4.9946327,4.8350215,-0.17653225,-0.03242388,-0.7635944,9.720459,-2.7341783,0.20590134
4.9938354,4.8348913,-0.17866279,0.0005993177,-0.7348322,9.624691,-2.6384103,0.20111294
4.993022,4.8347516,-0.17866279,0.0005993177,-0.7348322,9.624691,-2.6384103,0.20111294
4.9922333,4.83471,-0.18292385,0.028296193,-0.70820063,9.581595,-2.6001031,0.20111294
4.9914465,4.834663,-0.18292385,0.028296193,-0.70820063,9.581595,-2.6001031,0.20111294
4.9906845,4.8346806,-0.1871849,0.049601484,-0.6826343,9.433155,-2.4756045,0.12928689
4.9899244,4.834695,-0.1871849,0.049601484,-0.6826343,9.433155,-2.4756045,0.12928689
4.989171,4.8348017,-0.19251123,0.06664571,-0.65919846,9.3421755,-2.432509,0.17717093
4.988423,4.834904,-0.19251123,0.06664571,-0.65919846,9.3421755,-2.432509,0.17717093
4.987708,4.835006,-0.19783755,0.07942889,-0.63576263,9.3421755,-2.4229321,0.1388637
4.986993,4.835107,-0.19783755,0.07942889,-0.63576263,9.3421755,-2.4229321,0.1388637
4.9863124,4.8352184,-0.20103334,0.0911468,-0.61126155,9.203311,-2.2936451,0.019153614
4.985633,4.835329,-0.20103334,0.0911468,-0.61126155,9.203311,-2.2936451,0.019153614
4.9849772,4.835451,-0.20742492,0.100734174,-0.59102154,9.093178,-2.207454,-0.062249243
4.9843225,4.835573,-0.20742492,0.100734174,-0.59102154,9.093178,-2.207454,-0.062249243
4.983699,4.8356895,-0.21381652,0.10819103,-0.56865096,8.920795,-2.1930888,-0.08140286
4.983076,4.835806,-0.21381652,0.10819103,-0.56865096,8.920795,-2.1930888,-0.08140286
4.982475,4.835927,-0.22127336,0.11351735,-0.54628044,8.882488,-2.15957,-0.095768064
4.9818754,4.8360486,-0.22127336,0.11351735,-0.54628044,8.882488,-2.15957,-0.095768064
4.981303,4.836159,-0.22873022,0.116713144,-0.5207141,8.810662,-2.1308396,-0.11971009
4.9807315,4.8362703,-0.22873022,0.116713144,-0.5207141,8.810662,-2.1308396,-0.11971009
4.980187,4.8363695,-0.23938286,0.11990894,-0.49514773,8.662222,-2.0925324,-0.12449849
4.979643,4.8364677,-0.23938286,0.11990894,-0.49514773,8.662222,-2.0925324,-0.12449849
4.979138,4.83654,-0.2500355,0.12310473,-0.46532035,8.585608,-2.111686,-0.1388637
4.9786344,4.836612,-0.2500355,0.12310473,-0.46532035,8.585608,-2.111686,-0.1388637
4.9781704,4.836644,-0.2596229,0.12203947,-0.43549293,8.537724,-2.1547816,-0.12449849
4.977708,4.836677,-0.2596229,0.12203947,-0.43549293,8.537724,-2.1547816,-0.12449849
4.9772954,4.8366528,-0.26921028,0.117778406,-0.403535,8.413225,-2.2170308,-0.047884032
4.9768834,4.836628,-0.26921028,0.117778406,-0.403535,8.413225,-2.2170308,-0.047884032
4.9765263,4.8365517,-0.27666712,0.11245208,-0.36944655,8.360553,-2.2649148,0.033518825
4.9761696,4.8364754,-0.27666712,0.11245208,-0.36944655,8.360553,-2.2649148,0.033518825
4.9759045,4.8363657,-0.28199345,0.10712577,-0.3289665,8.298303,-2.3511062,0.090979666
4.975641,4.8362584,-0.28199345,0.10712577,-0.3289665,8.298303,-2.3511062,0.090979666
4.9754457,4.836124,-0.2894503,0.09860365,-0.2863559,8.240842,-2.4181437,0.090979666
4.975252,4.835991,-0.2894503,0.09860365,-0.2863559,8.240842,-2.4181437,0.090979666
4.975126,4.835847,-0.29584187,0.089016266,-0.2416148,8.192958,-2.4899697,0.110133275
4.9749994,4.835703,-0.29584187,0.089016266,-0.2416148,8.192958,-2.4899697,0.110133275
4.9749317,4.8355236,-0.30010295,0.0762331,-0.19261263,8.264784,-2.5234885,0.14844051
4.974865,4.8353457,-0.30010295,0.0762331,-0.19261263,8.264784,-2.5234885,0.14844051
4.974864,4.83517,-0.30542925,0.06451519,-0.14041469,8.389283,-2.657564,0.19153613
4.974863,4.834995,-0.30542925,0.06451519,-0.14041469,8.389283,-2.657564,0.19153613
4.9749165,4.834777,-0.30969033,0.053862542,-0.08715145,8.494628,-2.7964275,0.20111294
4.9749703,4.83456,-0.30969033,0.053862542,-0.08715145,8.494628,-2.7964275,0.20111294
4.9750776,4.8343005,-0.31395137,0.047470953,-0.03282297,8.576031,-2.9257145,0.20111294
4.9751854,4.8340416,-0.31395137,0.047470953,-0.03282297,8.576031,-2.9257145,0.20111294
4.9753475,4.83374,-0.31395137,0.043209895,0.021505518,8.671799,-3.0502129,0.18674773
4.9755077,4.8334374,-0.31395137,0.043209895,0.021505518,8.671799,-3.0502129,0.18674773
4.975725,4.8332005,-0.31075558,0.04214463,0.073703475,8.801085,-3.2273839,0.31603462
4.9759426,4.832964,-0.31075558,0.04214463,0.073703475,8.801085,-3.2273839,0.31603462
4.9762073,4.8327203,-0.30329874,0.04427516,0.12164038,8.882488,-3.3806129,0.320823
4.9764733,4.832478,-0.30329874,0.04427516,0.12164038,8.882488,-3.3806129,0.320823
4.9767857,4.832282,-0.29264608,0.047470953,0.16957727,9.059659,-3.572149,0.4261679
4.9770966,4.8320866,-0.29264608,0.047470953,0.16957727,9.059659,-3.572149,0.4261679
4.9774437,4.8319798,-0.27773237,0.052797277,0.20899206,9.409213,-3.6104562,0.5793968
4.9777904,4.831872,-0.27773237,0.052797277,0.20899206,9.409213,-3.6104562,0.5793968
4.978166,4.831804,-0.2617534,0.060254127,0.23881947,9.682152,-3.6822822,0.60812724
4.9785423,4.831736,-0.2617534,0.060254127,0.23881947,9.682152,-3.6822822,0.60812724
4.9789352,4.8317366,-0.24470918,0.071972035,0.2558637,9.696517,-3.8067808,0.6847417
4.979327,4.8317375,-0.24470918,0.071972035,0.2558637,9.696517,-3.8067808,0.6847417
4.9797263,4.8318014,-0.2265997,0.08475521,0.26225528,9.691729,-3.9312792,0.7326257
4.980125,4.8318653,-0.2265997,0.08475521,0.26225528,9.691729,-3.9312792,0.7326257
4.9805307,4.831977,-0.20635967,0.09647312,0.26545107,9.548077,-4.060566,0.7374141
4.980945,4.8320904,-0.20635967,0.09647312,0.26545107,9.548077,-4.060566,0.7374141
4.981341,4.8322554,-0.18505438,0.102864705,0.26651633,9.399636,-4.1515455,0.82360536
4.9817457,4.832423,-0.18505438,0.102864705,0.26651633,9.399636,-4.1515455,0.82360536
4.982149,4.8326325,-0.16268381,0.102864705,0.26864687,9.279925,-4.2042184,0.92895025
4.9825535,4.83284,-0.16268381,0.102864705,0.26864687,9.279925,-4.2042184,0.92895025
4.9829645,4.833042,-0.1360522,0.09860365,0.27610373,9.246407,-4.2042184,0.8810662
4.9833794,4.8332453,-0.1360522,0.09860365,0.27610373,9.246407,-4.2042184,0.8810662
4.9838066,4.833461,-0.1094206,0.087951005,0.2920827,9.174581,-4.074931,0.9624691
4.9842224,4.83367,-0.1094206,0.087951005,0.2920827,9.174581,-4.074931,0.9624691
4.9846635,4.833849,-0.08491952,0.0762331,0.3123227,9.179369,-4.0414124,0.91937345
4.985105,4.8340273,-0.08491952,0.0762331,0.3123227,9.179369,-4.0414124,0.91937345
4.985572,4.8341694,-0.0614837,0.06344992,0.33895433,9.222465,-3.9504328,0.8714894
4.986039,4.8343124,-0.0614837,0.06344992,0.33895433,9.222465,-3.9504328,0.8714894
4.986539,4.8344326,-0.03804788,0.052797277,0.37197754,9.260772,-3.8594532,0.8523358
4.987035,4.834552,-0.03804788,0.052797277,0.37197754,9.260772,-3.8594532,0.8523358
4.987566,4.834651,-0.017807856,0.045340426,0.406066,9.23683,-3.7301662,0.79966336
4.988097,4.83475,-0.017807856,0.045340426,0.406066,9.23683,-3.7301662,0.79966336
4.988667,4.8348227,0.00030163955,0.040014103,0.44335026,9.308656,-3.6343982,0.7230489
4.9892354,4.834894,0.00030163955,0.040014103,0.44335026,9.308656,-3.6343982,0.7230489
4.9898496,4.8349323,0.016280606,0.040014103,0.48276502,9.279925,-3.5673606,0.61770403
4.9904637,4.834971,0.016280606,0.040014103,0.48276502,9.279925,-3.5673606,0.61770403
4.9911118,4.8350687,0.030129045,0.04427516,0.5253756,9.303867,-3.41892,0.6703765
4.991761,4.835168,0.030129045,0.04427516,0.5253756,9.303867,-3.41892,0.6703765
4.992455,4.8352776,0.039716423,0.05173201,0.56905144,9.246407,-3.3806129,0.6464345
4.993149,4.835388,0.039716423,0.05173201,0.56905144,9.246407,-3.3806129,0.6464345
4.993882,4.835541,0.04823854,0.061319392,0.61166203,9.26556,-3.3518825,0.6703765
4.994615,4.8356934,0.04823854,0.061319392,0.61166203,9.26556,-3.3518825,0.6703765
4.995392,4.835881,0.055695392,0.071972035,0.6564031,9.255983,-3.3087866,0.6703765
4.996167,4.836069,0.055695392,0.071972035,0.6564031,9.255983,-3.3087866,0.6703765
4.9969807,4.836311,0.061021715,0.08155942,0.70434004,9.217676,-3.1986535,0.6943185
4.997795,4.836554,0.061021715,0.08155942,0.70434004,9.217676,-3.1986535,0.6943185
4.9986734,4.8367505,0.06528277,0.0911468,0.75121164,9.188946,-3.2273839,0.58418524
4.999552,4.8369465,0.06528277,0.0911468,0.75121164,9.188946,-3.2273839,0.58418524
5.0004616,4.83721,0.06847856,0.09966891,0.79701805,9.217676,-3.1411927,0.63206923
5.0013714,4.837476,0.06847856,0.09966891,0.79701805,9.217676,-3.1411927,0.63206923
5.0023274,4.837728,0.07060909,0.10392997,0.83962864,9.188946,-3.074155,0.56982
5.0032864,4.837982,0.07060909,0.10392997,0.83962864,9.188946,-3.074155,0.56982
5.00428,4.838275,0.07273962,0.1060605,0.8790434,9.227253,-3.0310593,0.60333884
5.0052457,4.838562,0.07273962,0.1060605,0.8790434,9.227253,-3.0310593,0.60333884
5.006256,4.8388276,0.07167436,0.1060605,0.9152624,9.212888,-2.954445,0.521936
5.00727,4.8390985,0.07167436,0.1060605,0.9152624,9.212888,-2.954445,0.521936
5.008282,4.839397,0.06954383,0.10179944,0.9461551,9.284714,-2.9161377,0.5602432
5.009292,4.839698,0.06954383,0.10179944,0.9461551,9.284714,-2.9161377,0.5602432
5.0102563,4.8400073,0.0674133,0.09434259,0.97278666,9.294291,-2.777274,0.51235914
5.0102563,4.8400073,0.0674133,0.09434259,0.97278666,9.294291,-2.777274,0.51235914
5.0102563,4.8400073,0.06421751,0.08475521,1.0004835,9.275137,-2.753332,0.46447513
5.0132084,4.840774,0.06421751,0.08475521,1.0004835,9.275137,-2.753332,0.46447513
5.014104,4.8408775,0.05995645,0.07516783,1.0271151,9.275137,-2.7102363,0.4309563
5.0150003,4.840973,0.05995645,0.07516783,1.0271151,9.275137,-2.7102363,0.4309563
5.015901,4.840854,0.05782592,0.06664571,1.0516162,9.279925,-2.5905263,0.35913026
5.015901,4.840854,0.05782592,0.06664571,1.0516162,9.279925,-2.5905263,0.35913026
5.0177145,4.8405843,0.051434334,0.05918886,1.0739868,9.3421755,-2.542642,0.34955344
5.0186496,4.8404155,0.051434334,0.05918886,1.0739868,9.3421755,-2.542642,0.34955344
5.0196075,4.8401895,0.043977484,0.05599307,1.0974226,9.380483,-2.4708161,0.31603462
5.0205216,4.8399773,0.043977484,0.05599307,1.0974226,9.380483,-2.4708161,0.31603462
5.021508,4.8396397,0.03545537,0.05173201,1.1165974,9.461885,-2.384625,0.18674773
5.0225286,4.839296,0.03545537,0.05173201,1.1165974,9.461885,-2.384625,0.18674773
5.0235243,4.8389306,0.025867987,0.046405688,1.1315111,9.595961,-2.3175871,0.1436521
5.0245104,4.8385715,0.025867987,0.046405688,1.1315111,9.595961,-2.3175871,0.1436521
5.0255113,4.8382373,0.018411135,0.043209895,1.1410985,9.77792,-2.2266076,0.20111294
5.026517,4.837904,0.018411135,0.043209895,1.1410985,9.77792,-2.2266076,0.20111294
5.027515,4.8375597,0.012019549,0.038948838,1.1400332,9.902418,-2.087744,0.17238252
5.028513,4.8372183,0.012019549,0.038948838,1.1400332,9.902418,-2.087744,0.17238252
5.029497,4.8368855,0.003497433,0.035753045,1.1283153,9.9550905,-1.9967642,0.20590134
5.030482,4.8365545,0.003497433,0.035753045,1.1283153,9.9550905,-1.9967642,0.20590134
5.0314455,4.83623,-0.0050246827,0.030426722,1.10701,10.04607,-1.934515,0.25378537
5.032407,4.835908,-0.0050246827,0.030426722,1.10701,10.04607,-1.934515,0.25378537
5.033339,4.8355503,-0.012481534,0.021904606,1.0771827,10.0269165,-1.8052281,0.18674773
5.034271,4.835194,-0.012481534,0.021904606,1.0771827,10.0269165,-1.8052281,0.18674773
5.035166,4.834816,-0.019938385,0.010186698,1.0409636,9.969456,-1.8291701,0.20111294
5.0360603,4.8344398,-0.019938385,0.010186698,1.0409636,9.969456,-1.8291701,0.20111294
5.036913,4.834032,-0.0284605,-0.0047270046,1.0004835,9.830592,-1.7621324,0.20590134
5.0377665,4.8336277,-0.0284605,-0.0047270046,1.0004835,9.830592,-1.7621324,0.20590134
5.038577,4.8331833,-0.033786822,-0.021771235,0.9600035,9.758766,-1.7717092,0.20590134
5.039387,4.8327417,-0.033786822,-0.021771235,0.9600035,9.758766,-1.7717092,0.20590134
5.0401583,4.8322344,-0.042308938,-0.043076526,0.92271924,9.643845,-1.7812861,0.17238252
5.0409293,4.83173,-0.042308938,-0.043076526,0.92271924,9.643845,-1.7812861,0.17238252
5.0416703,4.8311734,-0.05189632,-0.064381815,0.8939571,9.533711,-1.8243817,0.19632454
5.04241,4.8306193,-0.05189632,-0.064381815,0.8939571,9.533711,-1.8243817,0.19632454
5.043126,4.830007,-0.062548965,-0.08675237,0.87158656,9.595961,-1.8291701,0.22026655
5.0438414,4.829398,-0.062548965,-0.08675237,0.87158656,9.595961,-1.8291701,0.22026655
5.0445423,4.8287363,-0.07426687,-0.108057655,0.8588034,9.572019,-1.8626889,0.2633622
5.0452423,4.8280773,-0.07426687,-0.108057655,0.8588034,9.572019,-1.8626889,0.2633622
5.0459375,4.8273435,-0.08811531,-0.12723242,0.85560757,9.581595,-1.9536686,0.23942018
5.0466337,4.8266134,-0.08811531,-0.12723242,0.85560757,9.581595,-1.9536686,0.23942018
5.047334,4.825794,-0.104094274,-0.14214613,0.8609339,9.619903,-2.0446482,0.15801731
5.048034,4.8249817,-0.104094274,-0.14214613,0.8609339,9.619903,-2.0446482,0.15801731
5.048752,4.824107,-0.122203775,-0.1517335,0.8747823,9.648633,-2.1643584,0.14844051
5.049468,4.8232393,-0.122203775,-0.1517335,0.8747823,9.648633,-2.1643584,0.14844051
5.050215,4.8223534,-0.14031327,-0.1549293,0.89821815,9.691729,-2.2744915,0.22026655
5.050936,4.821501,-0.14031327,-0.1549293,0.89821815,9.691729,-2.2744915,0.22026655
5.051706,4.8206067,-0.15948802,-0.1517335,0.9312414,9.643845,-2.4516625,0.22505496
5.052474,4.8197203,-0.15948802,-0.1517335,0.9312414,9.643845,-2.4516625,0.22505496
5.0532856,4.8188233,-0.17972806,-0.14534192,0.9695909,9.605537,-2.6240451,0.25857377
5.0540934,4.817938,-0.17972806,-0.14534192,0.9695909,9.605537,-2.6240451,0.25857377
5.0549526,4.8171043,-0.19890282,-0.13468927,1.0164626,9.557653,-2.882619,0.35434186
5.0558095,4.816279,-0.19890282,-0.13468927,1.0164626,9.557653,-2.882619,0.35434186
5.05672,4.815463,-0.21701232,-0.122971356,1.06653,9.56723,-3.0693667,0.35913026
5.0576286,4.8146553,-0.21701232,-0.122971356,1.06653,9.56723,-3.0693667,0.35913026
5.058663,4.8140574,-0.23405655,-0.11231872,1.1197932,9.457097,-3.3423057,0.3878607
5.059682,4.81345,-0.23405655,-0.11231872,1.1197932,9.457097,-3.3423057,0.3878607
5.060971,4.8127165,-0.2500355,-0.10273133,1.1815785,9.385271,-3.6056678,0.44532153
5.062253,4.8119984,-0.2500355,-0.10273133,1.1815785,9.385271,-3.6056678,0.44532153
5.063615,4.811212,-0.2649492,-0.09633975,1.2454944,9.260772,-3.9312792,0.50757074
5.064975,4.8104362,-0.2649492,-0.09633975,1.2454944,9.260772,-3.9312792,0.50757074
5.066409,4.809645,-0.27773237,-0.08994816,1.3168671,9.136273,-4.2664676,0.60812724
5.067833,4.8088675,-0.27773237,-0.08994816,1.3168671,9.136273,-4.2664676,0.60812724
5.0693483,4.808069,-0.29264608,-0.08462184,1.3967619,8.978256,-4.486734,0.6895301
5.0708556,4.8072824,-0.29264608,-0.08462184,1.3967619,8.978256,-4.486734,0.6895301
5.07246,4.806467,-0.30542925,-0.078230254,1.4873095,8.686164,-4.7644615,0.7422025
5.074063,4.8056607,-0.30542925,-0.078230254,1.4873095,8.686164,-4.7644615,0.7422025
5.0757666,4.8048553,-0.31714717,-0.06864287,1.5895748,8.312668,-4.975151,0.8619126
5.07747,4.804056,-0.31714717,-0.06864287,1.5895748,8.312668,-4.975151,0.8619126
5.0792913,4.8032312,-0.32779983,-0.059055492,1.7014276,7.8912888,-5.209783,0.8283938
5.081106,4.802414,-0.32779983,-0.059055492,1.7014276,7.8912888,-5.209783,0.8283938
5.0830574,4.8015738,-0.340583,-0.048402846,1.8271288,7.541735,-5.386954,0.79487497
5.0850024,4.8007426,-0.340583,-0.048402846,1.8271288,7.541735,-5.386954,0.79487497
5.0870943,4.7998886,-0.35230088,-0.03988073,1.9709395,7.273585,-5.568913,0.78529817
5.0891843,4.7990437,-0.35230088,-0.03988073,1.9709395,7.273585,-5.568913,0.78529817
5.0914383,4.79817,-0.3640188,-0.036684938,2.129664,7.067683,-5.731719,0.8571242
5.0936847,4.797307,-0.3640188,-0.036684938,2.129664,7.067683,-5.731719,0.8571242
5.096101,4.7964044,-0.3757367,-0.037750203,2.2969103,6.981492,-5.841852,0.89543146
5.0985165,4.7955117,-0.3757367,-0.037750203,2.2969103,6.981492,-5.841852,0.89543146
5.101112,4.794566,-0.38319355,-0.04201126,2.4737444,6.967127,-5.9280434,0.8475474
5.1036997,4.793635,-0.38319355,-0.04201126,2.4737444,6.967127,-5.9280434,0.8475474
5.106475,4.7926545,-0.38958514,-0.051598642,2.6559045,6.9958572,-5.9998693,0.93852705
5.109247,4.7916875,-0.38958514,-0.051598642,2.6559045,6.9958572,-5.9998693,0.93852705
5.1122046,4.7906647,-0.39171568,-0.064381815,2.83913,7.0485296,-6.172252,0.9768343
5.11515,4.7896595,-0.39171568,-0.064381815,2.83913,7.0485296,-6.172252,0.9768343
5.118295,4.7885942,-0.39171568,-0.077164985,3.0212903,7.101202,-6.2823853,0.9576807
5.1214275,4.7875476,-0.39171568,-0.077164985,3.0212903,7.101202,-6.2823853,0.9576807
5.1247506,4.7864456,-0.38958514,-0.09207869,3.1991894,7.177817,-6.3302693,0.93852705
5.1280537,4.785367,-0.38958514,-0.09207869,3.1991894,7.177817,-6.3302693,0.93852705
5.131543,4.784231,-0.38425884,-0.110188186,3.3728275,7.2831616,-6.4404025,0.91937345
5.135026,4.7831144,-0.38425884,-0.110188186,3.3728275,7.2831616,-6.4404025,0.91937345
5.1386843,4.7819643,-0.3757367,-0.12616715,3.5422046,7.445967,-6.4499793,0.9528923
5.142334,4.7808332,-0.3757367,-0.12616715,3.5422046,7.445967,-6.4499793,0.9528923
5.142334,4.7808332,-0.3757367,-0.12616715,3.5422046,7.445967,-6.4499793,0.9528923
5.1500483,4.7785034,-0.36508408,-0.14214613,3.7041247,7.608773,-6.483498,0.94810385
5.153947,4.7773476,-0.35017037,-0.15705982,3.8532617,7.6710224,-6.4499793,0.80445176
5.1579094,4.7761927,-0.35017037,-0.15705982,3.8532617,7.6710224,-6.4499793,0.80445176
5.1620197,4.7750235,-0.3341914,-0.17090826,3.9970725,7.867347,-6.4068837,0.78050977
5.1661215,4.773877,-0.3341914,-0.17090826,3.9970725,7.867347,-6.4068837,0.78050977
5.1703506,4.772719,-0.31501663,-0.18582197,4.1281,8.0684595,-6.4404025,0.7278373
5.174597,4.7715755,-0.31501663,-0.18582197,4.1281,8.0684595,-6.4404025,0.7278373
5.178954,4.7704444,-0.29477662,-0.19647461,4.2452793,8.236053,-6.4547677,0.7565677
5.183312,4.769333,-0.29477662,-0.19647461,4.2452793,8.236053,-6.4547677,0.7565677
5.187777,4.7682304,-0.2713408,-0.20393145,4.3507404,8.322245,-6.4260373,0.6751649
5.192242,4.767148,-0.2713408,-0.20393145,4.3507404,8.322245,-6.4260373,0.6751649
5.196802,4.7660847,-0.24683972,-0.20925778,4.4444838,8.255207,-6.3589997,0.62249243
5.201362,4.7650404,-0.24683972,-0.20925778,4.4444838,8.255207,-6.3589997,0.62249243
5.2060194,4.7640076,-0.21914284,-0.21351884,4.5286393,8.288726,-6.3063273,0.49320555
5.2106576,4.7629976,-0.21914284,-0.21351884,4.5286393,8.288726,-6.3063273,0.49320555
5.2153807,4.7620173,-0.19144596,-0.21671464,4.603208,8.312668,-6.26802,0.46926352
5.2201037,4.7610555,-0.19144596,-0.21671464,4.603208,8.312668,-6.26802,0.46926352
5.2248907,4.760131,-0.16161856,-0.21991043,4.667124,8.293514,-6.2249246,0.46447513
5.229678,4.759225,-0.16161856,-0.21991043,4.667124,8.293514,-6.2249246,0.46447513
5.23452,4.7583647,-0.12966062,-0.22310622,4.7235827,8.350976,-6.14831,0.47884035
5.2393622,4.7575226,-0.12966062,-0.22310622,4.7235827,8.350976,-6.14831,0.47884035
5.244262,4.756702,-0.0945069,-0.22630201,4.772585,8.360553,-6.0381765,0.36870706
5.249152,4.7559004,-0.0945069,-0.22630201,4.772585,8.360553,-6.0381765,0.36870706
5.254092,4.7551227,-0.057222642,-0.22736728,4.8151956,8.269572,-6.0046577,0.2825158
5.259077,4.754354,-0.057222642,-0.22736728,4.8151956,8.269572,-6.0046577,0.2825158
5.2640095,4.753646,-0.021003649,-0.22736728,4.8514147,8.111555,-6.0285997,0.2777274
5.2689815,4.752946,-0.021003649,-0.22736728,4.8514147,8.111555,-6.0285997,0.2777274
5.273991,4.7522573,0.012019549,-0.22736728,4.8833723,8.025364,-6.0285997,0.16280572
5.279001,4.7515807,0.012019549,-0.22736728,4.8833723,8.025364,-6.0285997,0.16280572
5.2840395,4.750945,0.047173277,-0.22630201,4.9121346,7.9343843,-6.0621185,0.1340753
5.2890882,4.7503195,0.047173277,-0.22630201,4.9121346,7.9343843,-6.0621185,0.1340753
5.2941494,4.7497373,0.08126174,-0.22630201,4.9398317,7.699753,-6.167464,0.10055647
5.2992163,4.7491646,0.08126174,-0.22630201,4.9398317,7.699753,-6.167464,0.10055647
5.3043094,4.7486176,0.1153502,-0.2294978,4.9685936,7.666234,-6.2584434,0.04309563
5.3094077,4.7480803,0.1153502,-0.2294978,4.9685936,7.666234,-6.2584434,0.04309563
5.314537,4.7475758,0.14943866,-0.2326936,4.9952254,7.1730285,-6.291962,-0.038307227
5.319646,4.7470818,0.14943866,-0.2326936,4.9952254,7.1730285,-6.291962,-0.038307227
5.3247924,4.7466426,0.18246186,-0.23801991,5.0239873,7.1059904,-6.469133,0.047884032
5.329954,4.746211,0.18246186,-0.23801991,5.0239873,7.1059904,-6.469133,0.047884032
5.3351264,4.745795,0.21228927,-0.24867256,5.0516844,7.0820484,-6.631939,-0.01436521
5.340299,4.745387,0.21228927,-0.24867256,5.0516844,7.0820484,-6.631939,-0.01436521
5.3455043,4.745014,0.24531247,-0.2593252,5.0783157,7.0006456,-6.799533,0.019153614
5.35071,4.74465,0.24531247,-0.2593252,5.0783157,7.0006456,-6.799533,0.019153614
5.355943,4.744319,0.28153145,-0.26997787,5.106013,7.101202,-6.981492,0.04309563
5.3611765,4.7439966,0.28153145,-0.26997787,5.106013,7.101202,-6.981492,0.04309563
5.366435,4.7437267,0.31988096,-0.2806305,5.1305137,7.1634517,-7.120356,0.16759412
5.371694,4.743465,0.31988096,-0.2806305,5.1305137,7.1634517,-7.120356,0.16759412
5.376962,4.7432475,0.36355683,-0.29021788,5.1454277,6.909666,-7.393295,0.19632454
5.3822412,4.743037,0.36355683,-0.29021788,5.1454277,6.909666,-7.393295,0.19632454
5.387529,4.7428756,0.41255897,-0.3019358,5.1603413,6.7803793,-7.632715,0.25857377
5.3928165,4.7427216,0.41255897,-0.3019358,5.1603413,6.7803793,-7.632715,0.25857377
5.398121,4.742611,0.46369168,-0.3168495,5.1773853,6.7085533,-7.8529816,0.30166942
5.4034247,4.7425075,0.46369168,-0.3168495,5.1773853,6.7085533,-7.8529816,0.30166942
5.408746,4.7424393,0.5148244,-0.334959,5.195495,6.622362,-8.078036,0.31603462
5.4140673,4.742378,0.5148244,-0.334959,5.195495,6.622362,-8.078036,0.31603462
5.4194093,4.7423553,0.56595707,-0.35306847,5.2168,6.4787097,-8.379706,0.35913026
5.4194093,4.7423553,0.56595707,-0.35306847,5.2168,6.4787097,-8.379706,0.35913026
5.4194093,4.7423553,0.618155,-0.37011272,5.246628,6.483498,-8.523358,0.2681506
5.4360137,4.742394,0.618155,-0.37011272,5.246628,6.483498,-8.523358,0.2681506
5.4412394,4.742451,0.6724835,-0.38183063,5.2785854,6.5601125,-8.738836,0.20590134
5.447357,4.742525,0.6724835,-0.38183063,5.2785854,6.5601125,-8.738836,0.20590134
5.451984,4.7426233,0.7289425,-0.38928747,5.311609,6.5840545,-8.920795,0.17717093
5.457247,4.7427397,0.7289425,-0.38928747,5.311609,6.5840545,-8.920795,0.17717093
5.4626822,4.7429066,0.78859735,-0.391418,5.343567,6.742072,-8.920795,0.04309563
5.46815,4.7430787,0.78859735,-0.391418,5.343567,6.742072,-8.920795,0.04309563
5.473648,4.74332,0.8525132,-0.38715693,5.373394,6.981492,-9.045294,0.023942016
5.479145,4.7435646,0.8525132,-0.38715693,5.373394,6.981492,-9.045294,0.023942016
5.4846826,4.7438912,0.9206901,-0.37543905,5.392569,7.129933,-9.136273,0.0047884034
5.4901814,4.744218,0.9206901,-0.37543905,5.392569,7.129933,-9.136273,0.0047884034
5.4956927,4.7446203,0.98886704,-0.3615906,5.39683,7.101202,-9.069236,-0.07182605
5.5011916,4.7450233,0.98886704,-0.3615906,5.39683,7.101202,-9.069236,-0.07182605
5.506699,4.745517,1.0559788,-0.3466769,5.387243,7.297527,-8.959103,0.023942016
5.5122056,4.7460117,1.0559788,-0.3466769,5.387243,7.297527,-8.959103,0.023942016
5.5176992,4.7466087,1.1220251,-0.33282846,5.3701982,7.431602,-8.935161,0.17238252
5.5231924,4.747205,1.1220251,-0.33282846,5.3701982,7.431602,-8.935161,0.17238252
5.5286555,4.747896,1.1848757,-0.3221758,5.3382406,7.2783732,-9.035717,0.25378537
5.534124,4.748587,1.1848757,-0.3221758,5.3382406,7.2783732,-9.035717,0.25378537
5.5395365,4.749342,1.2434653,-0.31791475,5.2934995,7.2065473,-8.973468,0.25857377
5.544954,4.7500963,1.2434653,-0.31791475,5.2934995,7.2065473,-8.973468,0.25857377
5.550323,4.750914,1.2999243,-0.32324108,5.2455626,7.101202,-8.978256,0.30166942
5.5556917,4.7517304,1.2999243,-0.32324108,5.2455626,7.101202,-8.978256,0.30166942
5.5610075,4.7525697,1.3521222,-0.33602425,5.1965604,7.2065473,-8.844181,0.25857377
5.5663204,4.753403,1.3521222,-0.33602425,5.1965604,7.2065473,-8.844181,0.25857377
5.571591,4.754254,1.3989938,-0.35306847,5.151819,7.062895,-8.78672,0.20111294
5.576839,4.7550936,1.3989938,-0.35306847,5.151819,7.062895,-8.78672,0.20111294
5.582037,4.755945,1.4405392,-0.37543905,5.1134696,7.038953,-8.78672,0.17717093
5.5872397,4.7567906,1.4405392,-0.37543905,5.1134696,7.038953,-8.78672,0.17717093
5.592368,4.757642,1.4767581,-0.39354852,5.0772505,6.9288197,-8.7532015,0.08140286
5.5974827,4.758488,1.4767581,-0.39354852,5.0772505,6.9288197,-8.7532015,0.08140286
5.6025352,4.7593465,1.5076509,-0.40633172,5.0516844,6.9623384,-8.700529,-0.04309563
5.6075745,4.760206,1.5076509,-0.40633172,5.0516844,6.9623384,-8.700529,-0.04309563
5.6125927,4.7610893,1.5342824,-0.4148538,5.0325093,6.943185,-8.743625,0.047884032
5.6175957,4.7619743,1.5342824,-0.4148538,5.0325093,6.943185,-8.743625,0.047884032
5.622554,4.7628884,1.5577183,-0.4159191,5.017596,7.0245876,-8.75799,0.06703765
5.627499,4.7638083,1.5577183,-0.4159191,5.017596,7.0245876,-8.75799,0.06703765
5.6324453,4.764755,1.5790236,-0.40846223,5.0080085,6.9000893,-8.7532015,0.047884032
5.637376,4.765705,1.5790236,-0.40846223,5.0080085,6.9000893,-8.7532015,0.047884032
5.642304,4.7667,1.6003288,-0.3946138,5.002682,6.9240313,-8.738836,0.05746084
5.6472235,4.7676992,1.6003288,-0.3946138,5.002682,6.9240313,-8.738836,0.05746084
5.652356,4.768803,1.6216341,-0.37543905,5.0005517,7.0006456,-8.686164,0.095768064
5.657132,4.769836,1.6216341,-0.37543905,5.0005517,7.0006456,-8.686164,0.095768064
5.6618395,4.7709026,1.6429394,-0.35093796,4.997356,6.9527617,-8.599973,0.12449849
5.6666746,4.772003,1.6429394,-0.35093796,4.997356,6.9527617,-8.599973,0.12449849
5.671542,4.773138,1.6631794,-0.3200453,4.99416,6.655881,-8.523358,0.10534488
5.6764097,4.7742777,1.6631794,-0.3200453,4.99416,6.655881,-8.523358,0.10534488
5.681275,4.7754726,1.6823542,-0.2838263,4.988834,6.459556,-8.408437,0.20590134
5.686127,4.7766695,1.6823542,-0.2838263,4.988834,6.459556,-8.408437,0.20590134
5.690986,4.7779016,1.7036595,-0.24654204,4.988834,6.2105594,-8.394072,0.23942018
5.6958504,4.77914,1.7036595,-0.24654204,4.988834,6.2105594,-8.394072,0.23942018
5.700716,4.7804136,1.7238995,-0.2113883,4.9920297,5.9807158,-8.259995,0.24899697
5.7055817,4.7816925,1.7238995,-0.2113883,4.9920297,5.9807158,-8.259995,0.24899697
5.7104807,4.7829943,1.742009,-0.17729984,4.9994864,5.6982,-8.154651,0.21068975
5.7153726,4.7842994,1.742009,-0.17729984,4.9994864,5.6982,-8.154651,0.21068975
5.720316,4.785632,1.7569227,-0.14427665,5.0122695,5.4922986,-8.0924015,0.15801731
5.725227,4.7869606,1.7569227,-0.14427665,5.0122695,5.4922986,-8.0924015,0.15801731
5.730177,4.7883162,1.7697059,-0.11551451,5.027183,5.3199162,-8.020576,0.1340753
5.73512,4.789674,1.7697059,-0.11551451,5.027183,5.3199162,-8.020576,0.1340753
5.7400827,4.7910576,1.7803586,-0.08675237,5.0442276,5.2049947,-7.943961,0.1340753
5.74504,4.7924423,1.7803586,-0.08675237,5.0442276,5.2049947,-7.943961,0.1340753
5.750037,4.793847,1.789946,-0.054794434,5.062337,5.032612,-7.953538,0.08140286
5.755023,4.795252,1.789946,-0.054794434,5.062337,5.032612,-7.953538,0.08140286
5.7600465,4.7966795,1.7974027,-0.021771235,5.0825768,4.879383,-7.929596,0.10055647
5.765073,4.7981114,1.7974027,-0.021771235,5.0825768,4.879383,-7.929596,0.10055647
5.7701044,4.7995605,1.8016639,0.01551302,5.106013,4.8602295,-7.9391727,0.062249243
5.7751403,4.801013,1.8016639,0.01551302,5.106013,4.8602295,-7.9391727,0.062249243
5.7802014,4.8024874,1.8037944,0.054927804,5.128383,4.8123455,-7.97748,0.10055647
5.785257,4.803962,1.8037944,0.054927804,5.128383,4.8123455,-7.97748,0.10055647
5.7903347,4.8054647,1.8080554,0.09753838,5.1454277,4.8123455,-8.0445175,0.12928689
5.7953978,4.8069654,1.8080554,0.09753838,5.1454277,4.8123455,-8.0445175,0.12928689
5.800489,4.808489,1.8112512,0.14014897,5.1603413,4.7309427,-8.169016,0.22026655
5.8055744,4.810013,1.8112512,0.14014897,5.1603413,4.7309427,-8.169016,0.22026655
5.8106766,4.8115582,1.8133818,0.18275954,5.172059,4.5777135,-8.264784,0.4309563
5.8157716,4.8131056,1.8133818,0.18275954,5.172059,4.5777135,-8.264784,0.4309563
5.82089,4.8146706,1.8165776,0.22537012,5.180581,4.4484267,-8.42759,0.59376204
5.8259974,4.816239,1.8165776,0.22537012,5.180581,4.4484267,-8.42759,0.59376204
5.8311605,4.8178163,1.8208386,0.2679807,5.1891036,4.2999864,-8.614338,0.7326257
5.8363004,4.819398,1.8208386,0.2679807,5.1891036,4.2999864,-8.614338,0.7326257
5.8416023,4.8210263,1.8282955,0.3073955,5.1976256,4.0557775,-8.810662,0.8283938
5.846877,4.822636,1.8282955,0.3073955,5.1976256,4.0557775,-8.810662,0.8283938
5.852232,4.824377,1.834687,0.3489408,5.2104087,3.6631286,-9.02614,1.043872
5.8575926,4.826113,1.834687,0.3489408,5.2104087,3.6631286,-9.02614,1.043872
5.8629646,4.827877,1.8421439,0.39261663,5.2306485,3.3039982,-9.174581,1.13964
5.868348,4.829639,1.8421439,0.39261663,5.2306485,3.3039982,-9.174581,1.13964
5.8737617,4.831407,1.8517313,0.43735775,5.264737,2.8299465,-9.26556,1.0869676
5.8791804,4.833172,1.8517313,0.43735775,5.264737,2.8299465,-9.26556,1.0869676
5.884646,4.834961,1.8602533,0.4778378,5.307348,2.5378537,-9.476251,1.1587936
5.890111,4.836745,1.8602533,0.4778378,5.307348,2.5378537,-9.476251,1.1587936
5.895629,4.8385363,1.8687755,0.51512206,5.35635,2.3319526,-9.662998,1.0773908
5.9011464,4.8403225,1.8687755,0.51512206,5.35635,2.3319526,-9.662998,1.0773908
5.9067235,4.842124,1.8762324,0.5492105,5.4117436,2.1978772,-9.758766,1.0965444
5.9122996,4.8439207,1.8762324,0.5492105,5.4117436,2.1978772,-9.758766,1.0965444
5.91794,4.845731,1.8836892,0.5790379,5.4724636,2.1308396,-9.907207,1.1348516
5.9235797,4.847536,1.8836892,0.5790379,5.4724636,2.1308396,-9.907207,1.1348516
5.929282,4.849351,1.8922113,0.60566956,5.533184,2.2744915,-9.950302,1.1492168
5.934984,4.85116,1.8922113,0.60566956,5.533184,2.2744915,-9.950302,1.1492168
5.9407444,4.852996,1.8996682,0.6301706,5.5875125,2.5330653,-10.0269165,1.340753
5.9465103,4.854828,1.8996682,0.6301706,5.5875125,2.5330653,-10.0269165,1.340753
5.9523063,4.8566914,1.9081903,0.65467167,5.627992,2.8682537,-9.921572,1.4700398
5.958109,4.85855,1.9081903,0.65467167,5.627992,2.8682537,-9.921572,1.4700398
5.963868,4.8605003,1.9145819,0.6813033,5.647167,3.1651347,-9.902418,1.6950948
5.9696145,4.8624535,1.9145819,0.6813033,5.647167,3.1651347,-9.902418,1.6950948
5.9753323,4.864427,1.9188429,0.7143265,5.647167,3.1028855,-9.931149,2.1260512
5.9810414,4.866399,1.9188429,0.7143265,5.647167,3.1028855,-9.931149,2.1260512
5.986649,4.868371,1.9188429,0.7622634,5.631188,3.5003228,-9.672575,1.9728222
5.9922466,4.8703346,1.9188429,0.7622634,5.631188,3.5003228,-9.672575,1.9728222
5.9977956,4.8722897,1.9135166,0.8155266,5.592839,3.6631286,-9.44752,1.8914193
6.0033174,4.8742285,1.9135166,0.8155266,5.592839,3.6631286,-9.44752,1.8914193
6.0087967,4.8761644,1.8975376,0.85920244,5.529988,3.763685,-9.375694,1.9201498
6.014262,4.8780894,1.8975376,0.85920244,5.529988,3.763685,-9.375694,1.9201498
6.0196586,4.880002,1.8741019,0.8943562,5.4458323,3.7684734,-9.222465,1.9057846
6.0250425,4.8819036,1.8741019,0.8943562,5.4458323,3.7684734,-9.222465,1.9057846
6.030333,4.8837852,1.8496008,0.92524886,5.348893,3.8402996,-9.064447,1.8770541
6.035639,4.8856673,1.8496008,0.92524886,5.348893,3.8402996,-9.064447,1.8770541
6.0408196,4.887514,1.8208386,0.95188046,5.2370405,3.9312792,-8.882488,1.7860745
6.0460052,4.8893576,1.8208386,0.95188046,5.2370405,3.9312792,-8.882488,1.7860745
6.051071,4.891176,1.789946,0.9774468,5.111339,4.0797195,-8.767567,1.7717092
6.0561366,4.8929915,1.789946,0.9774468,5.111339,4.0797195,-8.767567,1.7717092
6.061074,4.8947816,1.7569227,1.0008826,4.9760504,4.0797195,-8.710106,1.7812861
6.0660105,4.896568,1.7569227,1.0008826,4.9760504,4.0797195,-8.710106,1.7812861
6.070808,4.898327,1.7196385,1.0211227,4.830109,4.036624,-8.66701,1.8243817
6.075606,4.900082,1.7196385,1.0211227,4.830109,4.036624,-8.66701,1.8243817
6.0802546,4.9018083,1.6802237,1.0371016,4.6745806,3.9073372,-8.552089,1.8626889
6.0849037,4.9035306,1.6802237,1.0371016,4.6745806,3.9073372,-8.552089,1.8626889
6.089397,4.9052167,1.6386784,1.0520153,4.5137258,3.787627,-8.465898,1.8339585
6.0938907,4.9068995,1.6386784,1.0520153,4.5137258,3.787627,-8.465898,1.8339585
6.098228,4.9085474,1.5950025,1.0647985,4.3507404,3.5577838,-8.437167,1.8674773
6.102565,4.910192,1.5950025,1.0647985,4.3507404,3.5577838,-8.437167,1.8674773
6.106742,4.911789,1.5491961,1.0733206,4.1866894,3.3854012,-8.360553,1.7669208
6.1109195,4.9133825,1.5491961,1.0733206,4.1866894,3.3854012,-8.360553,1.7669208
6.114938,4.9149294,1.5012592,1.0733206,4.0247693,3.217807,-8.346188,1.7429788
6.1189604,4.916475,1.5012592,1.0733206,4.0247693,3.217807,-8.346188,1.7429788
6.122819,4.9179688,1.452257,1.0658637,3.866045,3.0310593,-8.413225,1.7525556
6.1266813,4.919461,1.452257,1.0658637,3.866045,3.0310593,-8.413225,1.7525556
6.1303916,4.920892,1.4021896,1.0498848,3.712647,2.9113493,-8.42759,1.6328455
6.134102,4.9223194,1.4021896,1.0498848,3.712647,2.9113493,-8.42759,1.6328455
6.137662,4.92369,1.3521222,1.0232532,3.5624447,2.7150247,-8.480263,1.6041151
6.141222,4.925058,1.3521222,1.0232532,3.5624447,2.7150247,-8.480263,1.6041151
6.1446376,4.9263716,1.3073812,0.9817079,3.4207644,2.5378537,-8.508993,1.5753847
6.1480536,4.927683,1.3073812,0.9817079,3.4207644,2.5378537,-8.508993,1.5753847
6.151404,4.92897,1.2637053,0.93164045,3.2886715,2.4229321,-8.5473,1.5705963
6.154702,4.930235,1.2637053,0.93164045,3.2886715,2.4229321,-8.5473,1.5705963
6.1577973,4.9314194,1.2242905,0.8719856,3.1682968,2.2697031,-8.561666,1.5466543
6.1609306,4.9326167,1.2242905,0.8719856,3.1682968,2.2697031,-8.561666,1.5466543
6.1639624,4.9337773,1.190202,0.804874,3.0575092,2.2409728,-8.5473,1.508347
6.1669917,4.9349365,1.190202,0.804874,3.0575092,2.2409728,-8.5473,1.508347
6.1699076,4.9360504,1.1614399,0.73350126,2.9584396,2.1930888,-8.513782,1.4269443
6.1699076,4.9360504,1.1614399,0.73350126,2.9584396,2.1930888,-8.513782,1.4269443
6.17371,4.937502,1.1614399,0.73350126,2.9584396,2.1930888,-8.513782,1.4269443
6.178864,4.9394684,1.1348083,0.65893275,2.871088,2.1643584,-8.437167,1.340753
6.181325,4.9404106,1.1103072,0.5854295,2.7922583,2.1978772,-8.432379,1.3024458
6.184188,4.9415064,1.1103072,0.5854295,2.7922583,2.1978772,-8.432379,1.3024458
6.184188,4.9415064,1.1103072,0.5854295,2.7922583,2.1978772,-8.432379,1.3024458
6.189301,4.9435034,1.0890019,0.5140568,2.7230163,2.4756045,-8.307879,1.3359646
6.1918545,4.944521,1.0698272,0.45014092,2.6569698,2.743755,-8.145074,1.388637
6.194408,4.9455385,1.0698272,0.45014092,2.6569698,2.743755,-8.145074,1.388637
6.196877,4.946547,1.0485219,0.3968777,2.585597,3.0119057,-7.991845,1.532289
6.1993384,4.9475517,1.0485219,0.3968777,2.585597,3.0119057,-7.991845,1.532289
6.20173,4.9485536,1.0229555,0.35852817,2.5067675,3.2800562,-7.795521,1.757344
6.2041135,4.9495525,1.0229555,0.35852817,2.5067675,3.2800562,-7.795521,1.757344
6.2063975,4.9505243,0.9941934,0.33509237,2.4194157,3.394978,-7.699753,1.8626889
6.2086816,4.951497,0.9941934,0.33509237,2.4194157,3.394978,-7.699753,1.8626889
6.210875,4.952447,0.96010494,0.325505,2.320346,3.4380736,-7.656657,2.0207062
6.213068,4.953397,0.96010494,0.325505,2.320346,3.4380736,-7.656657,2.0207062
6.2151604,4.954315,0.9217554,0.32870078,2.214885,3.41892,-7.589619,2.0973208
6.2172523,4.9552326,0.9217554,0.32870078,2.214885,3.41892,-7.589619,2.0973208
6.2192445,4.9561195,0.87807953,0.34148395,2.106228,3.3614593,-7.5225816,2.2984335
6.2212367,4.957006,0.87807953,0.34148395,2.106228,3.3614593,-7.5225816,2.2984335
6.2231197,4.9578514,0.83120793,0.36278924,1.9879837,3.2273839,-7.455544,2.3223755
6.225003,4.958696,0.83120793,0.36278924,1.9879837,3.2273839,-7.455544,2.3223755
6.2267795,4.9594994,0.7779447,0.39048612,1.8676088,3.1268275,-7.359776,2.480393
6.228556,4.960302,0.7779447,0.39048612,1.8676088,3.1268275,-7.359776,2.480393
6.2302227,4.961051,0.7204204,0.42244405,1.7461686,2.906561,-7.350199,2.4372973
6.231889,4.961799,0.7204204,0.42244405,1.7461686,2.906561,-7.350199,2.4372973
6.233444,4.9624934,0.6607656,0.4597283,1.6215327,2.7485435,-7.273585,2.4420857
6.235,4.963187,0.6607656,0.4597283,1.6215327,2.7485435,-7.273585,2.4420857
6.236439,4.963823,0.59898025,0.50127363,1.4915705,2.480393,-7.264008,2.3750482
6.237879,4.9644575,0.59898025,0.50127363,1.4915705,2.480393,-7.264008,2.3750482
6.2392077,4.9650373,0.5350644,0.5428189,1.3637388,2.2170308,-7.2592196,2.4229321
6.2405367,4.965616,0.5350644,0.5428189,1.3637388,2.2170308,-7.2592196,2.4229321
6.2417517,4.966132,0.47008327,0.583299,1.2369722,1.8770541,-7.2783732,2.3175871
6.2429667,4.9666467,0.47008327,0.583299,1.2369722,1.8770541,-7.2783732,2.3175871
6.244076,4.967105,0.4061674,0.619518,1.1155322,1.5705963,-7.2831616,2.2984335
6.245185,4.9675627,0.4061674,0.619518,1.1155322,1.5705963,-7.2831616,2.2984335
6.24619,4.967963,0.3433168,0.6493454,0.998353,1.2545617,-7.335834,2.2601264
6.2471957,4.968363,0.3433168,0.6493454,0.998353,1.2545617,-7.335834,2.2601264
6.2481074,4.9687138,0.2804662,0.67278117,0.885435,0.9864111,-7.40766,2.2888567
6.2490187,4.9690638,0.2804662,0.67278117,0.885435,0.9864111,-7.40766,2.2888567
6.249853,4.9693727,0.21974611,0.68876016,0.77890855,0.7038953,-7.52737,2.327164
6.2506866,4.969681,0.21974611,0.68876016,0.77890855,0.7038953,-7.52737,2.327164
6.251451,4.9699435,0.16115656,0.7004781,0.6809042,0.50278234,-7.603985,2.2984335
6.2522135,4.9702053,0.16115656,0.7004781,0.6809042,0.50278234,-7.603985,2.2984335
6.25296,4.970426,0.104697555,0.70367384,0.58929145,0.25857377,-7.747637,2.327164
6.253704,4.970647,0.104697555,0.70367384,0.58929145,0.25857377,-7.747637,2.327164
6.2544255,4.970805,0.051434334,0.69728225,0.503005,0.10055647,-7.824251,2.2984335
6.255145,4.970964,0.051434334,0.69728225,0.503005,0.10055647,-7.824251,2.2984335
6.255809,4.9710636,0.003497433,0.6813033,0.42204496,0.023942016,-7.9487495,2.3175871
6.2564707,4.9711637,0.003497433,0.6813033,0.42204496,0.023942016,-7.9487495,2.3175871
6.25707,4.971209,-0.041243672,0.6578675,0.34641117,-0.047884032,-8.082825,2.3511062
6.2576685,4.971255,-0.041243672,0.6578675,0.34641117,-0.047884032,-8.082825,2.3511062
6.258205,4.971248,-0.08065846,0.6269748,0.27503845,-0.1388637,-8.183381,2.3702598
6.258741,4.971242,-0.08065846,0.6269748,0.27503845,-0.1388637,-8.183381,2.3702598
6.259188,4.971209,-0.11900798,0.5907558,0.20899206,-0.15322891,-8.408437,2.5234885
6.2596345,4.971176,-0.11900798,0.5907558,0.20899206,-0.15322891,-8.408437,2.5234885
6.260005,4.971114,-0.15096591,0.5502758,0.148272,-0.20111294,-8.537724,2.6431987
6.260375,4.9710526,-0.15096591,0.5502758,0.148272,-0.20111294,-8.537724,2.6431987
6.2607045,4.970947,-0.17972806,0.510861,0.09500877,-0.21547815,-8.566454,2.5234885
6.261033,4.9708414,-0.17972806,0.510861,0.09500877,-0.21547815,-8.566454,2.5234885
6.2613354,4.970645,-0.20742492,0.46931568,0.04387607,-0.39264908,-8.599973,2.27928
6.261638,4.9704485,-0.20742492,0.46931568,0.04387607,-0.39264908,-8.599973,2.27928
6.2618823,4.9702063,-0.23618707,0.42244405,-0.0019303001,-0.37828386,-8.6095495,2.207454
6.262127,4.969964,-0.23618707,0.42244405,-0.0019303001,-0.37828386,-8.6095495,2.207454
6.262311,4.9696746,-0.2628187,0.37024608,-0.04454088,-0.45010993,-8.66701,2.111686
6.2624946,4.969385,-0.2628187,0.37024608,-0.04454088,-0.45010993,-8.66701,2.111686
6.262612,4.9690447,-0.2894503,0.31485233,-0.08182514,-0.4357447,-8.652645,1.9536686
6.262729,4.968704,-0.2894503,0.31485233,-0.08182514,-0.4357447,-8.652645,1.9536686
6.2627993,4.968336,-0.31714717,0.25413227,-0.1159136,-0.4309563,-8.66701,1.9680338
6.2628694,4.967968,-0.31714717,0.25413227,-0.1159136,-0.4309563,-8.66701,1.9680338
6.2629037,4.9675856,-0.34164825,0.19554271,-0.145741,-0.47405192,-8.719683,2.030283
6.2629385,4.9672027,-0.34164825,0.19554271,-0.145741,-0.47405192,-8.719683,2.030283
6.262933,4.966794,-0.36827987,0.13801843,-0.17343788,-0.48841715,-8.796297,2.054225
6.2629275,4.9663863,-0.36827987,0.13801843,-0.17343788,-0.48841715,-8.796297,2.054225
6.262876,4.965938,-0.3938462,0.08155942,-0.19580843,-0.45968673,-8.863335,1.9776106
6.2628245,4.9654903,-0.3938462,0.08155942,-0.19580843,-0.45968673,-8.863335,1.9776106
6.262739,4.9650183,-0.41621676,0.02723093,-0.21604845,-0.4165911,-8.920795,2.0015526
6.2626543,4.964547,-0.41621676,0.02723093,-0.21604845,-0.4165911,-8.920795,2.0015526
6.262538,4.9640512,-0.4396526,-0.023901764,-0.23522322,-0.2681506,-9.083601,2.111686
6.262422,4.963557,-0.4396526,-0.023901764,-0.23522322,-0.2681506,-9.083601,2.111686
6.2622643,4.9630322,-0.4598926,-0.07290393,-0.2565285,-0.10055647,-9.179369,2.1739352
6.262108,4.962509,-0.4598926,-0.07290393,-0.2565285,-0.10055647,-9.179369,2.1739352
6.2618766,4.9619436,-0.47693685,-0.1187103,-0.28102958,0.14844051,-9.3661175,2.3223755
6.261652,4.9613814,-0.47693685,-0.1187103,-0.28102958,0.14844051,-9.3661175,2.3223755
6.2611737,4.960904,-0.48972002,-0.16025561,-0.3097917,0.30645782,-9.471462,2.4181437
6.260697,4.960434,-0.48972002,-0.16025561,-0.3097917,0.30645782,-9.471462,2.4181437
6.260192,4.959978,-0.4993074,-0.19753987,-0.34281492,0.41180268,-9.586384,2.4995465
6.259689,4.959525,-0.4993074,-0.19753987,-0.34281492,0.41180268,-9.586384,2.4995465
6.25914,4.959058,-0.505699,-0.23056307,-0.37690338,0.46926352,-9.730036,2.5330653
6.2585926,4.9585934,-0.505699,-0.23056307,-0.37690338,0.46926352,-9.730036,2.5330653
6.2580256,4.9581494,-0.50889474,-0.2593252,-0.41418764,0.47884035,-9.811439,2.6240451
6.2574615,4.9577074,-0.50889474,-0.2593252,-0.41418764,0.47884035,-9.811439,2.6240451
6.256848,4.95726,-0.50889474,-0.28808734,-0.45253718,0.545878,-9.945514,2.695871
6.2562532,4.956827,-0.50889474,-0.28808734,-0.45253718,0.545878,-9.945514,2.695871
6.2555804,4.9563675,-0.5078295,-0.31258842,-0.48875615,0.60333884,-10.117896,2.7246015
6.254937,4.955929,-0.5078295,-0.31258842,-0.48875615,0.60333884,-10.117896,2.7246015
6.2542515,4.9554915,-0.5046337,-0.33282846,-0.52604043,0.63206923,-10.309433,2.815581
6.2535663,4.9550548,-0.5046337,-0.33282846,-0.52604043,0.63206923,-10.309433,2.815581
6.2528386,4.9546156,-0.5014379,-0.3466769,-0.5590636,0.7613561,-10.46745,2.896984
6.2521133,4.954178,-0.5014379,-0.3466769,-0.5590636,0.7613561,-10.46745,2.896984
6.251353,4.95374,-0.49824214,-0.355199,-0.5899563,0.81402856,-10.611102,2.9352913
6.2505937,4.9533043,-0.49824214,-0.355199,-0.5899563,0.81402856,-10.611102,2.9352913
6.2498064,4.9528723,-0.4929158,-0.35732955,-0.61765313,0.90500826,-10.79785,3.016694
6.2490196,4.9524407,-0.4929158,-0.35732955,-0.61765313,0.90500826,-10.79785,3.016694
6.2482204,4.9520226,-0.48758948,-0.35413375,-0.64321953,0.91458505,-10.893618,3.122039
6.2474527,4.9516206,-0.48758948,-0.35413375,-0.64321953,0.91458505,-10.893618,3.122039
6.2466483,4.951216,-0.4811979,-0.3434811,-0.66559005,0.8858546,-11.089942,3.2321723
6.245814,4.950796,-0.4811979,-0.3434811,-0.66559005,0.8858546,-11.089942,3.2321723
6.2450113,4.950403,-0.47693685,-0.32643688,-0.6847648,0.79008657,-11.200075,3.265691
6.244216,4.9500136,-0.47693685,-0.32643688,-0.6847648,0.79008657,-11.200075,3.265691
6.243416,4.9496317,-0.47054526,-0.30726212,-0.70180905,0.7278373,-11.36767,3.3327289
6.2426124,4.9492474,-0.47054526,-0.30726212,-0.70180905,0.7278373,-11.36767,3.3327289
6.2418323,4.9488783,-0.46415368,-0.2838263,-0.7156575,0.58418524,-11.429919,3.3135753
6.241054,4.9485087,-0.46415368,-0.2838263,-0.7156575,0.58418524,-11.429919,3.3135753
6.2403145,4.948148,-0.45563155,-0.2561294,-0.7231143,0.39264908,-11.568783,3.2704794
6.239577,4.9477863,-0.45563155,-0.2561294,-0.7231143,0.39264908,-11.568783,3.2704794
6.238862,4.9474335,-0.4449789,-0.22736728,-0.7252449,0.2681506,-11.645397,3.371036
6.238148,4.9470806,-0.4449789,-0.22736728,-0.7252449,0.2681506,-11.645397,3.371036
6.2374744,4.9467306,-0.43219572,-0.1996704,-0.7209838,0.110133275,-11.81778,3.3423057
6.236801,4.9463806,-0.43219572,-0.1996704,-0.7209838,0.110133275,-11.81778,3.3423057
6.236157,4.9460425,-0.4151515,-0.17197353,-0.71033114,0.0047884034,-11.822568,3.3327289
6.2355127,4.945704,-0.4151515,-0.17197353,-0.71033114,0.0047884034,-11.822568,3.3327289
6.234892,4.945384,-0.39597675,-0.14534192,-0.6964827,-0.07182605,-11.9135475,3.3997664
6.23427,4.9450636,-0.39597675,-0.14534192,-0.6964827,-0.07182605,-11.9135475,3.3997664
6.2336693,4.944767,-0.37467146,-0.11977556,-0.6805038,-0.11971009,-11.947066,3.466804
6.2330685,4.9444695,-0.37467146,-0.11977556,-0.6805038,-0.11971009,-11.947066,3.466804
6.232507,4.9441843,-0.35123563,-0.09847028,-0.661329,-0.20590134,-11.990162,3.3423057
6.2319474,4.943899,-0.35123563,-0.09847028,-0.661329,-0.20590134,-11.990162,3.3423057
6.231419,4.943635,-0.3256693,-0.079295516,-0.63895845,-0.2633622,-11.975797,3.2992098
6.2308908,4.943371,-0.3256693,-0.079295516,-0.63895845,-0.2633622,-11.975797,3.2992098
6.2303925,4.9431305,-0.29690716,-0.06331655,-0.6165879,-0.36391866,-11.971008,3.2848446
6.2298946,4.94289,-0.29690716,-0.06331655,-0.6165879,-0.36391866,-11.971008,3.2848446
6.2294273,4.9426727,-0.26921028,-0.04946811,-0.59315205,-0.33039984,-11.956643,3.193865
6.2289605,4.9424543,-0.26921028,-0.04946811,-0.59315205,-0.33039984,-11.956643,3.193865
6.2285166,4.942272,-0.23938286,-0.036684938,-0.5675857,-0.35913026,-11.903971,3.2561142
6.2280726,4.94209,-0.23938286,-0.036684938,-0.5675857,-0.35913026,-11.903971,3.2561142
6.227656,4.94194,-0.2084902,-0.028162822,-0.5409541,-0.31124622,-11.87524,3.2369606
6.2272387,4.9417896,-0.2084902,-0.028162822,-0.5409541,-0.31124622,-11.87524,3.2369606
6.226851,4.9416714,-0.175467,-0.019640706,-0.5143225,-0.21068975,-11.812991,3.1651347
6.226463,4.9415536,-0.175467,-0.019640706,-0.5143225,-0.21068975,-11.812991,3.1651347
6.2260904,4.941478,-0.14244379,-0.011118591,-0.4908867,-0.1340753,-11.75553,3.217807
6.2257185,4.941402,-0.14244379,-0.011118591,-0.4908867,-0.1340753,-11.75553,3.217807
6.2253766,4.941353,-0.11048587,-0.00366174,-0.46745086,-0.062249243,-11.621455,3.083732
6.225035,4.941304,-0.11048587,-0.00366174,-0.46745086,-0.062249243,-11.621455,3.083732
6.2247047,4.9412947,-0.0795932,0.0048603755,-0.4482761,0.009576807,-11.525687,3.1124623
6.224375,4.941285,-0.0795932,0.0048603755,-0.4482761,0.009576807,-11.525687,3.1124623
6.224064,4.941304,-0.048700526,0.013382491,-0.4333624,0.047884032,-11.468226,3.0502129
6.223753,4.9413238,-0.048700526,0.013382491,-0.4333624,0.047884032,-11.468226,3.0502129
6.2234497,4.941376,-0.021003649,0.018708814,-0.42057922,0.090979666,-11.348516,3.0502129
6.2234497,4.941376,-0.021003649,0.018708814,-0.42057922,0.090979666,-11.348516,3.0502129
6.222841,4.941501,0.005627962,0.024035135,-0.4099266,0.11492168,-11.300632,3.040636
6.222537,4.9415846,0.005627962,0.024035135,-0.4099266,0.11492168,-11.300632,3.040636
6.222267,4.941674,0.030129045,0.028296193,-0.40033922,0.08140286,-11.204864,2.8874073
6.222019,4.9417567,0.030129045,0.028296193,-0.40033922,0.08140286,-11.204864,2.8874073
6.2217603,4.9418674,0.05356486,0.032557253,-0.39075184,0.090979666,-11.085154,2.8203697
6.2217603,4.9418674,0.05356486,0.032557253,-0.39075184,0.090979666,-11.085154,2.8203697
6.2217603,4.9418674,0.05356486,0.032557253,-0.39075184,0.090979666,-11.085154,2.8203697
6.2210364,4.9421897,0.075935416,0.03681831,-0.38222972,0.038307227,-11.032481,2.767697
6.220821,4.9423084,0.09617544,0.04107937,-0.37264234,0.01436521,-10.951078,2.6384103
6.2206054,4.942427,0.09617544,0.04107937,-0.37264234,0.01436521,-10.951078,2.6384103
6.220392,4.942565,0.11641546,0.04427516,-0.35985917,-0.047884032,-10.730812,2.542642
6.2202024,4.942687,0.11641546,0.04427516,-0.35985917,-0.047884032,-10.730812,2.542642
6.2200117,4.9428406,0.1366555,0.045340426,-0.3492065,-0.08140286,-10.635044,2.542642
6.219817,4.9429965,0.1366555,0.045340426,-0.3492065,-0.08140286,-10.635044,2.542642
6.219643,4.943155,0.15796077,0.045340426,-0.33642334,-0.12449849,-10.477027,2.432509
6.219467,4.943314,0.15796077,0.045340426,-0.33642334,-0.12449849,-10.477027,2.432509
6.219304,4.9434886,0.17393975,0.04427516,-0.32150963,-0.10534488,-10.328587,2.3894134
6.219141,4.943663,0.17393975,0.04427516,-0.32150963,-0.10534488,-10.328587,2.3894134
6.2189937,4.9438477,0.18885344,0.04107937,-0.3044654,-0.02873042,-10.16578,2.336741
6.218846,4.9440327,0.18885344,0.04107937,-0.3044654,-0.02873042,-10.16578,2.336741
6.2187057,4.944205,0.20376715,0.035753045,-0.28742117,-0.023942016,-10.031705,2.1643584
6.21857,4.944371,0.20376715,0.035753045,-0.28742117,-0.023942016,-10.031705,2.1643584
6.218448,4.944566,0.21655032,0.030426722,-0.2714422,0.05746084,-9.825804,2.1930888
6.218322,4.944766,0.21655032,0.030426722,-0.2714422,0.05746084,-9.825804,2.1930888
6.2182064,4.944957,0.22720297,0.022969872,-0.2565285,0.17238252,-9.586384,2.1164744
6.218092,4.9451466,0.22720297,0.022969872,-0.2565285,0.17238252,-9.586384,2.1164744
6.217986,4.945341,0.23465982,0.016578285,-0.24268007,0.24420857,-9.461885,2.1021092
6.2178793,4.9455366,0.23465982,0.016578285,-0.24268007,0.24420857,-9.461885,2.1021092
6.2177715,4.94572,0.2410514,0.010186698,-0.22883163,0.33039984,-9.299079,2.0446482
6.217664,4.9459033,0.2410514,0.010186698,-0.22883163,0.33039984,-9.299079,2.0446482
6.2175198,4.946061,0.24318193,0.0048603755,-0.21817899,0.45489833,-9.141062,1.958457
6.2173758,4.9462185,0.24318193,0.0048603755,-0.21817899,0.45489833,-9.141062,1.958457
6.217203,4.9463673,0.2442472,0.0016645822,-0.2117874,0.545878,-9.011775,1.958457
6.217031,4.946517,0.2442472,0.0016645822,-0.2117874,0.545878,-9.011775,1.958457
6.2168097,4.9466643,0.2442472,-0.0015312112,-0.20752634,0.62728083,-8.863335,1.9776106
6.2165904,4.9468117,0.2442472,-0.0015312112,-0.20752634,0.62728083,-8.863335,1.9776106
6.2163205,4.946968,0.23998614,-0.0015312112,-0.20433055,0.7182605,-8.714894,1.9249382
6.216052,4.947124,0.23998614,-0.0015312112,-0.20433055,0.7182605,-8.714894,1.9249382
6.2157626,4.947284,0.23359455,0.0005993177,-0.20433055,0.79008657,-8.599973,1.8914193
6.2154727,4.9474454,0.23359455,0.0005993177,-0.20433055,0.79008657,-8.599973,1.8914193
6.215154,4.9476185,0.2229419,0.003795111,-0.20646107,0.8714894,-8.513782,1.910573
6.214836,4.947791,0.2229419,0.003795111,-0.20646107,0.8714894,-8.513782,1.910573
6.214516,4.9479494,0.21228927,0.010186698,-0.21285266,0.9576807,-8.456321,1.8387469
6.214166,4.948123,0.21228927,0.010186698,-0.21285266,0.9576807,-8.456321,1.8387469
6.213867,4.948257,0.19950609,0.01551302,-0.22030951,0.9624691,-8.379706,1.8195933
6.213548,4.9483995,0.19950609,0.01551302,-0.22030951,0.9624691,-8.379706,1.8195933
6.213212,4.9485316,0.1845924,0.020839343,-0.23309268,0.9768343,-8.336611,1.8100165
6.212876,4.9486637,0.1845924,0.020839343,-0.23309268,0.9768343,-8.336611,1.8100165
6.2125273,4.948779,0.16754816,0.02723093,-0.24694112,1.0151415,-8.346188,1.7956513
6.212179,4.948894,0.16754816,0.02723093,-0.24694112,1.0151415,-8.346188,1.7956513
6.211815,4.948996,0.15156919,0.032557253,-0.26292008,1.0295067,-8.307879,1.7908629
6.211451,4.9490976,0.15156919,0.032557253,-0.26292008,1.0295067,-8.307879,1.7908629
6.2110705,4.9491816,0.13452496,0.037883572,-0.28209487,1.0390835,-8.346188,1.7956513
6.2106905,4.9492655,0.13452496,0.037883572,-0.28209487,1.0390835,-8.346188,1.7956513
6.210293,4.949332,0.11748073,0.04214463,-0.30233487,1.0534488,-8.331821,1.7812861
6.2098947,4.949399,0.11748073,0.04214463,-0.30233487,1.0534488,-8.331821,1.7812861
6.2094994,4.949434,0.1004365,0.046405688,-0.32044438,1.0295067,-8.355764,1.6950948
6.209104,4.949468,0.1004365,0.046405688,-0.32044438,1.0295067,-8.355764,1.6950948
6.208674,4.949498,0.082327,0.050666746,-0.34068438,1.1109096,-8.446744,1.7717092
6.2082443,4.949528,0.082327,0.050666746,-0.34068438,1.1109096,-8.446744,1.7717092
6.2077947,4.949542,0.06634804,0.052797277,-0.36198968,1.115698,-8.441956,1.7669208
6.2073455,4.9495554,0.06634804,0.052797277,-0.36198968,1.115698,-8.441956,1.7669208
6.2068734,4.9495535,0.05036907,0.053862542,-0.3854255,1.1827357,-8.5473,1.7621324
6.206402,4.949552,0.05036907,0.053862542,-0.3854255,1.1827357,-8.5473,1.7621324
6.205903,4.949539,0.03545537,0.05599307,-0.4099266,1.2066777,-8.561666,1.7812861
6.2054048,4.949526,0.03545537,0.05599307,-0.4099266,1.2066777,-8.561666,1.7812861
6.204881,4.949506,0.022672193,0.05918886,-0.43229714,1.2018893,-8.580819,1.8243817
6.2043576,4.949486,0.022672193,0.05918886,-0.43229714,1.2018893,-8.580819,1.8243817
6.2038164,4.9494505,0.010954284,0.061319392,-0.45573297,1.1444284,-8.561666,1.8243817
6.2032747,4.9494143,0.010954284,0.061319392,-0.45573297,1.1444284,-8.561666,1.8243817
6.202695,4.949387,0.00030163955,0.06558045,-0.4812993,1.1444284,-8.528147,1.910573
6.2021155,4.9493594,0.00030163955,0.06558045,-0.4812993,1.1444284,-8.528147,1.910573
6.201518,4.949317,-0.010351005,0.069841504,-0.5047351,1.091756,-8.542512,1.9153614
6.2009196,4.949275,-0.010351005,0.069841504,-0.5047351,1.091756,-8.542512,1.9153614
6.2003274,4.949198,-0.022068914,0.0762331,-0.5271057,0.9911995,-8.561666,1.8674773
6.199735,4.94912,-0.022068914,0.0762331,-0.5271057,0.9911995,-8.561666,1.8674773
6.199126,4.9490314,-0.032721557,0.08262468,-0.54841095,0.9672575,-8.652645,1.910573
6.1985173,4.9489427,-0.032721557,0.08262468,-0.54841095,0.9672575,-8.652645,1.910573
6.197932,4.948826,-0.043374203,0.087951005,-0.56438994,0.8619126,-8.614338,1.8914193
6.197348,4.9487085,-0.043374203,0.087951005,-0.56438994,0.8619126,-8.614338,1.8914193
6.1967697,4.94858,-0.05189632,0.09540785,-0.57823837,0.81881696,-8.63828,1.934515
6.196193,4.94845,-0.05189632,0.09540785,-0.57823837,0.81881696,-8.63828,1.934515
6.195693,4.9483166,-0.05935317,0.10392997,-0.5899563,0.6751649,-8.671799,1.8866309
6.195194,4.948183,-0.05935317,0.10392997,-0.5899563,0.6751649,-8.671799,1.8866309
6.1947074,4.948049,-0.06574476,0.11032156,-0.5952826,0.61291564,-8.743625,1.8579005
6.194222,4.9479156,-0.06574476,0.11032156,-0.5952826,0.61291564,-8.743625,1.8579005
6.193761,4.947788,-0.07320161,0.116713144,-0.5984784,0.45010993,-8.767567,1.8100165
6.1933,4.9476604,-0.07320161,0.116713144,-0.5984784,0.45010993,-8.767567,1.8100165
6.1928654,4.947549,-0.07852793,0.12310473,-0.5974131,0.34955344,-8.767567,1.8770541
6.192432,4.9474373,-0.07852793,0.12310473,-0.5974131,0.34955344,-8.767567,1.8770541
6.192007,4.9473233,-0.08385425,0.12843105,-0.5920868,0.21068975,-8.825027,1.8339585
6.1915817,4.9472094,-0.08385425,0.12843105,-0.5920868,0.21068975,-8.825027,1.8339585
6.191168,4.9470906,-0.089180574,0.13162684,-0.5814342,0.15801731,-8.839393,1.8100165
6.190754,4.9469724,-0.089180574,0.13162684,-0.5814342,0.15801731,-8.839393,1.8100165
6.19035,4.946844,-0.09557216,0.13375737,-0.5697163,0.05267244,-8.887277,1.7381904
6.1899457,4.9467163,-0.09557216,0.13375737,-0.5697163,0.05267244,-8.887277,1.7381904
6.1895647,4.946588,-0.10196375,0.13482264,-0.5516068,-0.038307227,-8.896853,1.7525556
6.1891828,4.9464593,-0.10196375,0.13482264,-0.5516068,-0.038307227,-8.896853,1.7525556
6.188823,4.946328,-0.108355336,0.13375737,-0.532432,-0.12449849,-8.939949,1.7621324
6.188463,4.9461975,-0.108355336,0.13375737,-0.532432,-0.12449849,-8.939949,1.7621324
6.1881285,4.946064,-0.11474692,0.13269211,-0.5089962,-0.20111294,-8.973468,1.7812861
6.1877937,4.9459305,-0.11474692,0.13269211,-0.5089962,-0.20111294,-8.973468,1.7812861
6.1874847,4.9457912,-0.122203775,0.12949632,-0.48342985,-0.23463176,-8.963891,1.7860745
6.187175,4.9456515,-0.122203775,0.12949632,-0.48342985,-0.23463176,-8.963891,1.7860745
6.186892,4.9455094,-0.1275301,0.12417,-0.45679823,-0.21068975,-8.968679,1.8243817
6.186609,4.9453673,-0.1275301,0.12417,-0.45679823,-0.21068975,-8.968679,1.8243817
6.1863523,4.9452167,-0.13498695,0.116713144,-0.4280361,-0.2681506,-8.978256,1.8100165
6.1860957,4.9450665,-0.13498695,0.116713144,-0.4280361,-0.2681506,-8.978256,1.8100165
6.1858644,4.944911,-0.14137854,0.10819103,-0.40140447,-0.2681506,-8.949526,1.8291701
6.1856327,4.944756,-0.14137854,0.10819103,-0.40140447,-0.2681506,-8.949526,1.8291701
6.1854253,4.944595,-0.14777012,0.10179944,-0.37583813,-0.23942018,-8.944737,1.8435353
6.185218,4.9444337,-0.14777012,0.10179944,-0.37583813,-0.23942018,-8.944737,1.8435353
6.185033,4.944263,-0.1541617,0.09327733,-0.3502718,-0.23942018,-9.006987,1.8435353
6.184848,4.9440937,-0.1541617,0.09327733,-0.3502718,-0.23942018,-9.006987,1.8435353
6.1846833,4.9439116,-0.16161856,0.085820474,-0.3257707,-0.22026655,-9.011775,1.8148049
6.184519,4.9437294,-0.16161856,0.085820474,-0.3257707,-0.22026655,-9.011775,1.8148049
6.1843762,4.9435453,-0.16801015,0.0762331,-0.30340013,-0.15322891,-9.064447,1.8914193
6.1842337,4.9433613,-0.16801015,0.0762331,-0.30340013,-0.15322891,-9.064447,1.8914193
6.1841097,4.9431705,-0.17653225,0.06664571,-0.28316012,-0.110133275,-9.155427,1.9393034
6.183985,4.9429793,-0.17653225,0.06664571,-0.28316012,-0.110133275,-9.155427,1.9393034
6.1838756,4.942777,-0.18398911,0.05599307,-0.26505062,-0.08619126,-9.279925,1.9488802
6.183766,4.9425755,-0.18398911,0.05599307,-0.26505062,-0.08619126,-9.279925,1.9488802
6.1836715,4.942382,-0.19038069,0.047470953,-0.2512022,-0.110133275,-9.3182335,2.0829554
6.183577,4.942189,-0.19038069,0.047470953,-0.2512022,-0.110133275,-9.3182335,2.0829554
6.183488,4.9419804,-0.19570702,0.037883572,-0.2416148,-0.1388637,-9.442732,2.0254946
6.183399,4.9417715,-0.19570702,0.037883572,-0.2416148,-0.1388637,-9.442732,2.0254946
6.183317,4.941557,-0.20209861,0.026165664,-0.23202743,-0.05267244,-9.528923,2.0685902
6.183235,4.9413424,-0.20209861,0.026165664,-0.23202743,-0.05267244,-9.528923,2.0685902
6.183157,4.941113,-0.20742492,0.014447756,-0.2235053,-0.07182605,-9.629479,2.0207062
6.1830783,4.940884,-0.20742492,0.014447756,-0.2235053,-0.07182605,-9.629479,2.0207062
6.1830063,4.9406605,-0.20955546,0.0016645822,-0.21604845,-0.07182605,-9.706094,2.1068976
6.1829348,4.940437,-0.20955546,0.0016645822,-0.21604845,-0.07182605,-9.706094,2.1068976
6.182866,4.9402137,-0.20955546,-0.014314385,-0.20965686,-0.04309563,-9.782708,2.135628
6.1827974,4.93999,-0.20955546,-0.014314385,-0.20965686,-0.04309563,-9.782708,2.135628
6.182728,4.9397545,-0.2084902,-0.03242388,-0.20326528,0.05267244,-9.888053,2.0829554
6.182658,4.939519,-0.2084902,-0.03242388,-0.20326528,0.05267244,-9.888053,2.0829554
6.1825914,4.9392943,-0.2052944,-0.050533377,-0.19900422,0.090979666,-9.950302,2.1691468
6.1825247,4.93907,-0.2052944,-0.050533377,-0.19900422,0.090979666,-9.950302,2.1691468
6.1824555,4.9388466,-0.19996808,-0.0707734,-0.19580843,0.20590134,-10.012551,2.183512
6.182387,4.9386244,-0.19996808,-0.0707734,-0.19580843,0.20590134,-10.012551,2.183512
6.1823144,4.9384,-0.19357648,-0.091013424,-0.1936779,0.30645782,-10.065224,2.1739352
6.1822414,4.938176,-0.19357648,-0.091013424,-0.1936779,0.30645782,-10.065224,2.1739352
6.182164,4.93795,-0.18611965,-0.11231872,-0.19048211,0.36870706,-10.089166,2.1499932
6.182085,4.9377165,-0.18611965,-0.11231872,-0.19048211,0.36870706,-10.089166,2.1499932
6.18201,4.9375114,-0.17653225,-0.13255873,-0.18835159,0.46926352,-10.108319,2.2170308
6.1819353,4.9373064,-0.17653225,-0.13255873,-0.18835159,0.46926352,-10.108319,2.2170308
6.1818514,4.937093,-0.16587962,-0.15279876,-0.18622105,0.60333884,-10.084377,2.1787236
6.1817675,4.93688,-0.16587962,-0.15279876,-0.18622105,0.60333884,-10.084377,2.1787236
6.181688,4.9366894,-0.1541617,-0.17090826,-0.18302526,0.6512229,-10.0748005,2.231396
6.181688,4.9366894,-0.1541617,-0.17090826,-0.18302526,0.6512229,-10.0748005,2.231396
6.181525,4.9363413,-0.14350906,-0.18582197,-0.18089473,0.7422025,-10.079589,2.27928
6.181451,4.936183,-0.14350906,-0.18582197,-0.18089473,0.7422025,-10.079589,2.27928
6.1813655,4.9360614,-0.13179116,-0.19860514,-0.17769894,0.8858546,-10.084377,2.3319526
6.1812825,4.9359446,-0.13179116,-0.19860514,-0.17769894,0.8858546,-10.084377,2.3319526
6.1812825,4.9359446,-0.13179116,-0.19860514,-0.17769894,0.8858546,-10.084377,2.3319526
6.181072,4.935775,-0.120073244,-0.20819251,-0.17450315,1.0151415,-10.0987425,2.3175871
6.180824,4.9356594,-0.106224805,-0.2145841,-0.16811156,1.1348516,-10.0987425,2.27928
6.1804776,4.9355097,-0.106224805,-0.2145841,-0.16811156,1.1348516,-10.0987425,2.27928
6.180135,4.935419,-0.093441635,-0.21671464,-0.16171996,1.3120226,-10.089166,2.327164
6.179792,4.9353294,-0.093441635,-0.21671464,-0.16171996,1.3120226,-10.089166,2.327164
6.179458,4.935265,-0.08065846,-0.21564937,-0.15745892,1.4652514,-10.1226845,2.3989902
6.1791267,4.935202,-0.08065846,-0.21564937,-0.15745892,1.4652514,-10.1226845,2.3989902
6.1788044,4.9351625,-0.06681002,-0.2113883,-0.15426312,1.5227122,-10.055647,2.4420857
6.1784825,4.935124,-0.06681002,-0.2113883,-0.15426312,1.5227122,-10.055647,2.4420857
6.1781564,4.935084,-0.05402685,-0.2028662,-0.15213259,1.5514427,-10.036493,2.384625
6.17783,4.9350443,-0.05402685,-0.2028662,-0.15213259,1.5514427,-10.036493,2.384625
6.1775084,4.9350157,-0.041243672,-0.19221355,-0.1489368,1.5945383,-10.01734,2.3798366
6.1771865,4.9349875,-0.041243672,-0.19221355,-0.1489368,1.5945383,-10.01734,2.3798366
6.1768723,4.93497,-0.029525764,-0.17836511,-0.14361048,1.6663644,-10.0029745,2.3798366
6.176558,4.9349523,-0.029525764,-0.17836511,-0.14361048,1.6663644,-10.0029745,2.3798366
6.176251,4.934947,-0.01674259,-0.16238615,-0.13828415,1.7046716,-9.921572,2.360683
6.1759453,4.934942,-0.01674259,-0.16238615,-0.13828415,1.7046716,-9.921572,2.360683
6.1756496,4.9349465,-0.006089947,-0.14427665,-0.1308273,1.7142484,-9.878476,2.3415294
6.175354,4.9349513,-0.006089947,-0.14427665,-0.1308273,1.7142484,-9.878476,2.3415294
6.175073,4.9349723,0.0045626974,-0.1251019,-0.121239915,1.733402,-9.844957,2.3558946
6.1747923,4.9349933,0.0045626974,-0.1251019,-0.121239915,1.733402,-9.844957,2.3558946
6.1745224,4.9350085,0.0141500775,-0.10273133,-0.11058728,1.7621324,-9.782708,2.2601264
6.1742525,4.935024,0.0141500775,-0.10273133,-0.11058728,1.7621324,-9.782708,2.2601264
6.173999,4.935053,0.022672193,-0.078230254,-0.09993463,1.7381904,-9.730036,2.2601264
6.173745,4.9350815,0.022672193,-0.078230254,-0.09993463,1.7381904,-9.730036,2.2601264
6.173509,4.9351244,0.032259572,-0.051598642,-0.08821672,1.7238252,-9.629479,2.2457612
6.173282,4.9351654,0.032259572,-0.051598642,-0.08821672,1.7238252,-9.629479,2.2457612
6.1730647,4.935217,0.039716423,-0.028162822,-0.07436828,1.7477672,-9.490616,2.2122424
6.172838,4.93527,0.039716423,-0.028162822,-0.07436828,1.7477672,-9.490616,2.2122424
6.1726418,4.9353385,0.04610801,-0.00366174,-0.060519844,1.7621324,-9.385271,2.2361844
6.1724463,4.9354067,0.04610801,-0.00366174,-0.060519844,1.7621324,-9.385271,2.2361844
6.17227,4.935485,0.051434334,0.021904606,-0.046671405,1.7717092,-9.294291,2.231396
6.172092,4.9355636,0.051434334,0.021904606,-0.046671405,1.7717092,-9.294291,2.231396
6.171932,4.9356503,0.054630127,0.046405688,-0.034953497,1.757344,-9.165004,2.2170308
6.1717734,4.9357367,0.054630127,0.046405688,-0.034953497,1.757344,-9.165004,2.2170308
6.1716266,4.9358215,0.056760654,0.071972035,-0.026431382,1.733402,-9.074024,2.15957
6.171479,4.9359055,0.056760654,0.071972035,-0.026431382,1.733402,-9.074024,2.15957
6.171347,4.935995,0.054630127,0.09647312,-0.017909266,1.6950948,-8.968679,2.1547816
6.171215,4.9360843,0.054630127,0.09647312,-0.017909266,1.6950948,-8.968679,2.1547816
6.171093,4.936164,0.0524996,0.11990894,-0.010452416,1.6280571,-8.935161,2.0925324
6.1709704,4.936243,0.0524996,0.11990894,-0.010452416,1.6280571,-8.935161,2.0925324
6.170857,4.936328,0.05036907,0.14121422,-0.0072566224,1.5658079,-8.848969,2.087744
6.1707435,4.936412,0.05036907,0.14121422,-0.0072566224,1.5658079,-8.848969,2.087744
6.1706405,4.9365044,0.047173277,0.16145425,-0.004060829,1.5897499,-8.801085,2.1212628
6.1705375,4.9365964,0.047173277,0.16145425,-0.004060829,1.5897499,-8.801085,2.1212628
6.170439,4.93668,0.040781688,0.17956375,-0.0019303001,1.484405,-8.743625,2.0733786
6.1703405,4.9367633,0.040781688,0.17956375,-0.0019303001,1.484405,-8.743625,2.0733786
6.1702485,4.936844,0.032259572,0.19767325,-0.0008650357,1.436521,-8.714894,2.0733786
6.1701565,4.936925,0.032259572,0.19767325,-0.0008650357,1.436521,-8.714894,2.0733786
6.170071,4.937009,0.024802722,0.21365221,-0.0019303001,1.3263878,-8.748413,2.0829554
6.1699853,4.9370937,0.024802722,0.21365221,-0.0019303001,1.3263878,-8.748413,2.0829554
6.169898,4.9371657,0.015215342,0.22750065,-0.0051260935,1.2689269,-8.772355,2.0638018
6.1698103,4.9372377,0.015215342,0.22750065,-0.0051260935,1.2689269,-8.772355,2.0638018
6.169748,4.9373374,0.0066932263,0.24028382,-0.009387151,1.1731589,-8.738836,2.0925324
6.169685,4.937437,0.0066932263,0.24028382,-0.009387151,1.1731589,-8.738836,2.0925324
6.169589,4.9375095,-0.0018288894,0.2498712,-0.012582945,1.091756,-8.75799,2.0254946
6.1695123,4.9375677,-0.0018288894,0.2498712,-0.012582945,1.091756,-8.75799,2.0254946
6.1695695,4.9376864,-0.009285741,0.25626278,-0.017909266,1.0151415,-8.834604,2.1547816
6.1696267,4.9378057,-0.009285741,0.25626278,-0.017909266,1.0151415,-8.834604,2.1547816
6.1697598,4.937887,-0.017807856,0.25945857,-0.024300855,0.91937345,-8.887277,2.1260512
6.169893,4.9379687,-0.017807856,0.25945857,-0.024300855,0.91937345,-8.887277,2.1260512
6.1700344,4.9380302,-0.024199443,0.2615891,-0.03282297,0.91458505,-8.959103,2.1212628
6.1701756,4.9380913,-0.024199443,0.2615891,-0.03282297,0.91458505,-8.959103,2.1212628
6.1703196,4.9381304,-0.031656295,0.2615891,-0.04241035,0.770933,-9.045294,2.1691468
6.1704636,4.938169,-0.031656295,0.2615891,-0.04241035,0.770933,-9.045294,2.1691468
6.170608,4.938184,-0.039113145,0.25945857,-0.0498672,0.7278373,-9.102755,2.1499932
6.1707525,4.9381986,-0.039113145,0.25945857,-0.0498672,0.7278373,-9.102755,2.1499932
6.1708903,4.9382067,-0.04443947,0.25413227,-0.05519352,0.6464345,-9.160215,2.1787236
6.171023,4.9382153,-0.04443947,0.25413227,-0.05519352,0.6464345,-9.160215,2.1787236
6.1711507,4.938223,-0.049765788,0.24880594,-0.062650375,0.62728083,-9.217676,2.2122424
6.1712837,4.93823,-0.049765788,0.24880594,-0.062650375,0.62728083,-9.217676,2.2122424
6.1714,4.938239,-0.052961584,0.24241436,-0.07010722,0.62249243,-9.260772,2.2457612
6.1715155,4.938248,-0.052961584,0.24241436,-0.07010722,0.62249243,-9.260772,2.2457612
6.1716137,4.9382653,-0.056157377,0.23389223,-0.078629345,0.59376204,-9.3661175,2.336741
6.171713,4.9382825,-0.056157377,0.23389223,-0.078629345,0.59376204,-9.3661175,2.336741
6.1718016,4.9382925,-0.057222642,0.22537012,-0.09034725,0.5267244,-9.404425,2.3415294
6.1718903,4.9383025,-0.057222642,0.22537012,-0.09034725,0.5267244,-9.404425,2.3415294
6.171973,4.938302,-0.057222642,0.216848,-0.09993463,0.48362875,-9.466674,2.3175871
6.172056,4.9383016,-0.057222642,0.216848,-0.09993463,0.48362875,-9.466674,2.3175871
6.172122,4.9383097,-0.057222642,0.20726062,-0.10952201,0.45968673,-9.543288,2.3989902
6.1721883,4.938318,-0.057222642,0.20726062,-0.10952201,0.45968673,-9.543288,2.3989902
6.172246,4.9383183,-0.057222642,0.19554271,-0.11910939,0.39264908,-9.576807,2.384625
6.172304,4.9383183,-0.057222642,0.19554271,-0.11910939,0.39264908,-9.576807,2.384625
6.17235,4.938319,-0.05509211,0.18595533,-0.12976204,0.39743748,-9.600749,2.384625
6.1723957,4.93832,-0.05509211,0.18595533,-0.12976204,0.39743748,-9.600749,2.384625
6.1724377,4.938307,-0.05402685,0.17530268,-0.1372189,0.29209262,-9.662998,2.3319526
6.1724796,4.938294,-0.05402685,0.17530268,-0.1372189,0.29209262,-9.662998,2.3319526
6.1725135,4.9382854,-0.050831053,0.16465004,-0.14254521,0.2873042,-9.672575,2.3511062
6.1725473,4.938277,-0.050831053,0.16465004,-0.14254521,0.2873042,-9.672575,2.3511062
6.17257,4.9382725,-0.04763526,0.15293214,-0.15000206,0.23463176,-9.720459,2.3894134
6.172592,4.9382687,-0.04763526,0.15293214,-0.15000206,0.23463176,-9.720459,2.3894134
6.172607,4.9382734,-0.042308938,0.14227949,-0.15426312,0.22984336,-9.773131,2.432509
6.1726213,4.938278,-0.042308938,0.14227949,-0.15426312,0.22984336,-9.773131,2.432509
6.17263,4.9382863,-0.035917353,0.12949632,-0.15745892,0.20590134,-9.830592,2.4420857
6.172639,4.9382944,-0.035917353,0.12949632,-0.15745892,0.20590134,-9.830592,2.4420857
6.172642,4.9383116,-0.029525764,0.117778406,-0.15852417,0.15801731,-9.821015,2.480393
6.172646,4.9383287,-0.029525764,0.117778406,-0.15852417,0.15801731,-9.821015,2.480393
6.172645,4.9383554,-0.022068914,0.1060605,-0.15852417,0.18195933,-9.849746,2.5091233
6.1726446,4.938382,-0.022068914,0.1060605,-0.15852417,0.18195933,-9.849746,2.5091233
6.1726418,4.9384165,-0.012481534,0.09434259,-0.15745892,0.15322891,-9.849746,2.5187001
6.1726394,4.938452,-0.012481534,0.09434259,-0.15745892,0.15322891,-9.849746,2.5187001
6.17264,4.9384933,-0.0039594183,0.08262468,-0.15213259,0.14844051,-9.868899,2.5187001
6.1726403,4.9385343,-0.0039594183,0.08262468,-0.15213259,0.14844051,-9.868899,2.5187001
6.1726484,4.9385767,0.0045626974,0.07090677,-0.14467573,0.11971009,-9.849746,2.4708161
6.1726565,4.938619,0.0045626974,0.07090677,-0.14467573,0.11971009,-9.849746,2.4708161
6.1726685,4.938676,0.013084813,0.05918886,-0.1340231,0.15322891,-9.844957,2.5234885
