Pitch,Roll,Gyro_X,Gyro_Y,Gyro_Z,Accel_X,Accel_Y,Accel_Z
6.069307,4.7353873,-0.026329972,-0.122971356,-0.045606144,2.3654714,-9.466674,0.31603462
6.069135,4.735377,-0.026329972,-0.122971356,-0.045606144,2.3654714,-9.466674,0.31603462
6.0689716,4.7353773,-0.024199443,-0.1187103,-0.041345086,2.3750482,-9.509769,0.33997664
6.068806,4.735378,-0.024199443,-0.1187103,-0.041345086,2.3750482,-9.509769,0.33997664
6.0686564,4.735391,-0.021003649,-0.11444924,-0.034953497,2.3415294,-9.500193,0.35434186
6.0685053,4.7354045,-0.021003649,-0.11444924,-0.034953497,2.3415294,-9.500193,0.35434186
6.068363,4.735422,-0.01674259,-0.110188186,-0.026431382,2.327164,-9.485827,0.34476504
6.0682206,4.7354403,-0.01674259,-0.110188186,-0.026431382,2.327164,-9.485827,0.34476504
6.0680976,4.7354736,-0.012481534,-0.105927125,-0.018974531,2.3750482,-9.490616,0.41180268
6.067973,4.7355065,-0.012481534,-0.105927125,-0.018974531,2.3750482,-9.490616,0.41180268
6.06783,4.735511,-0.006089947,-0.10273133,-0.008321887,2.3989902,-9.442732,0.29688102
6.0676885,4.7355146,-0.006089947,-0.10273133,-0.008321887,2.3989902,-9.442732,0.29688102
6.067558,4.735531,-0.0018288894,-0.09847028,0.00020022877,2.3894134,-9.481039,0.31124622
6.067426,4.735547,-0.0018288894,-0.09847028,0.00020022877,2.3894134,-9.481039,0.31124622
6.0673122,4.735577,0.003497433,-0.095274486,0.009787609,2.3702598,-9.423578,0.33039984
6.067197,4.735607,0.003497433,-0.095274486,0.009787609,2.3702598,-9.423578,0.33039984
6.067074,4.7356105,0.0077584907,-0.09207869,0.01724446,2.384625,-9.375694,0.25378537
6.0669503,4.7356143,0.0077584907,-0.09207869,0.01724446,2.384625,-9.375694,0.25378537
6.0668497,4.735653,0.013084813,-0.08888289,0.025766576,2.3989902,-9.380483,0.33518824
6.066749,4.7356915,0.013084813,-0.08888289,0.025766576,2.3989902,-9.380483,0.33518824
6.0666404,4.7357054,0.019476399,-0.08462184,0.032158162,2.408567,-9.332599,0.24899697
6.0665317,4.7357187,0.019476399,-0.08462184,0.032158162,2.408567,-9.332599,0.24899697
6.0664306,4.735749,0.024802722,-0.08142605,0.03641922,2.4229321,-9.337387,0.2777274
6.066329,4.735779,0.024802722,-0.08142605,0.03641922,2.4229321,-9.337387,0.2777274
6.066229,4.7358007,0.02906378,-0.07609972,0.040680278,2.4229321,-9.299079,0.24420857
6.066128,4.7358236,0.02906378,-0.07609972,0.040680278,2.4229321,-9.299079,0.24420857
6.066042,4.735874,0.033324838,-0.07290393,0.047071867,2.4181437,-9.299079,0.30645782
6.0659556,4.735924,0.033324838,-0.07290393,0.047071867,2.4181437,-9.299079,0.30645782
6.0658927,4.736006,0.03652063,-0.06970814,0.05026766,2.3463178,-9.270349,0.37349546
6.06583,4.736087,0.03652063,-0.06970814,0.05026766,2.3463178,-9.270349,0.37349546
6.0657473,4.7361436,0.041846953,-0.064381815,0.052398186,2.3702598,-9.23683,0.2873042
6.0656643,4.7362,0.041846953,-0.064381815,0.052398186,2.3702598,-9.23683,0.2873042
6.0655837,4.7362604,0.045042746,-0.06118602,0.054528717,2.4037786,-9.212888,0.29688102
6.065503,4.7363214,0.045042746,-0.06118602,0.054528717,2.4037786,-9.212888,0.29688102
6.0654173,4.7363586,0.04610801,-0.059055492,0.055593982,2.336741,-9.212888,0.22984336
6.065332,4.736396,0.04610801,-0.059055492,0.055593982,2.336741,-9.212888,0.22984336
6.0652504,4.7364516,0.047173277,-0.05692496,0.056659244,2.2888567,-9.198523,0.25857377
6.0651693,4.7365074,0.047173277,-0.05692496,0.056659244,2.2888567,-9.198523,0.25857377
6.0650854,4.7365456,0.04823854,-0.054794434,0.05772451,2.2601264,-9.188946,0.22505496
6.065002,4.736583,0.04823854,-0.054794434,0.05772451,2.2601264,-9.188946,0.22505496
6.064923,4.736646,0.05036907,-0.052663904,0.05772451,2.2170308,-9.179369,0.25378537
6.0648437,4.736709,0.05036907,-0.052663904,0.05772451,2.2170308,-9.179369,0.25378537
6.0647693,4.736717,0.0524996,-0.05372917,0.059855036,2.2505496,-9.155427,0.17238252
6.064695,4.7367253,0.0524996,-0.05372917,0.059855036,2.2505496,-9.155427,0.17238252
6.0646205,4.7367396,0.054630127,-0.054794434,0.061985567,2.3127987,-9.150639,0.16759412
6.0645466,4.736754,0.054630127,-0.054794434,0.061985567,2.3127987,-9.150639,0.16759412
6.06447,4.736784,0.054630127,-0.05692496,0.0641161,2.2361844,-9.126697,0.20590134
6.0643935,4.7368135,0.054630127,-0.05692496,0.0641161,2.2361844,-9.126697,0.20590134
6.0643234,4.7368326,0.05356486,-0.059055492,0.06837715,2.2601264,-9.088389,0.18674773
6.0642533,4.736851,0.05356486,-0.059055492,0.06837715,2.2601264,-9.088389,0.18674773
6.0641866,4.736887,0.05356486,-0.060120758,0.07476874,2.2361844,-9.050082,0.21547815
6.06412,4.7369227,0.05356486,-0.060120758,0.07476874,2.2361844,-9.050082,0.21547815
6.064095,4.736893,0.05356486,-0.062251285,0.08009506,2.2601264,-9.054871,0.06703765
6.0640697,4.736863,0.05356486,-0.062251285,0.08009506,2.2601264,-9.054871,0.06703765
6.0640526,4.7368307,0.05356486,-0.06544708,0.08542138,2.3415294,-9.030929,0
6.064035,4.7367983,0.05356486,-0.06544708,0.08542138,2.3415294,-9.030929,0
6.064012,4.736772,0.051434334,-0.06757761,0.09074771,2.4037786,-9.011775,0.009576807
6.063989,4.736746,0.051434334,-0.06757761,0.09074771,2.4037786,-9.011775,0.009576807
6.0639563,4.7367163,0.04823854,-0.06757761,0.0939435,2.504335,-8.968679,-0.009576807
6.063902,4.736683,0.043977484,-0.06544708,0.0939435,2.5953147,-8.973468,0.019153614
6.063902,4.736683,0.043977484,-0.06544708,0.0939435,2.5953147,-8.973468,0.019153614
6.063902,4.736683,0.043977484,-0.06544708,0.0939435,2.5953147,-8.973468,0.019153614
6.063902,4.736683,0.043977484,-0.06544708,0.0939435,2.5953147,-8.973468,0.019153614
6.063902,4.736683,0.043977484,-0.06544708,0.0939435,2.5953147,-8.973468,0.019153614
6.063733,4.7366047,0.025867987,-0.057990227,0.09074771,2.681506,-9.035717,0.04309563
6.0637083,4.7365904,0.025867987,-0.057990227,0.09074771,2.681506,-9.035717,0.04309563
6.0636697,4.73657,0.016280606,-0.054794434,0.08329086,2.6240451,-9.02614,0.08140286
6.0636215,4.7365437,0.016280606,-0.054794434,0.08329086,2.6240451,-9.02614,0.08140286
6.06356,4.736496,0.005627962,-0.04946811,0.075834006,2.585738,-9.040505,0.062249243
6.063509,4.736457,0.005627962,-0.04946811,0.075834006,2.585738,-9.040505,0.062249243
6.0634427,4.7364078,-0.0050246827,-0.044141788,0.06731189,2.5905263,-9.088389,0.08140286
6.063378,4.7363596,-0.0050246827,-0.044141788,0.06731189,2.5905263,-9.088389,0.08140286
6.0633116,4.7362823,-0.01674259,-0.04201126,0.05772451,2.552219,-9.188946,0.023942016
6.0632463,4.736206,-0.01674259,-0.04201126,0.05772451,2.552219,-9.188946,0.023942016
6.0631676,4.736126,-0.026329972,-0.040945996,0.049202394,2.5330653,-9.227253,0.062249243
6.0630894,4.736046,-0.026329972,-0.040945996,0.049202394,2.5330653,-9.227253,0.062249243
6.063005,4.735955,-0.034852087,-0.03988073,0.041745543,2.4947581,-9.32781,0.076614454
6.06292,4.7358646,-0.034852087,-0.03988073,0.041745543,2.4947581,-9.32781,0.076614454
6.062824,4.7357697,-0.043374203,-0.040945996,0.032158162,2.480393,-9.337387,0.095768064
6.0627275,4.7356753,-0.043374203,-0.040945996,0.032158162,2.480393,-9.337387,0.095768064
6.0626445,4.7355494,-0.049765788,-0.03988073,0.024701312,2.456451,-9.370906,0.0047884034
6.0625615,4.7354236,-0.049765788,-0.03988073,0.024701312,2.456451,-9.370906,0.0047884034
6.0624466,4.7353234,-0.05402685,-0.04201126,0.01724446,2.4660277,-9.375694,0.11971009
6.062331,4.7352233,-0.05402685,-0.04201126,0.01724446,2.4660277,-9.375694,0.11971009
6.0622134,4.735113,-0.058287904,-0.044141788,0.010852873,2.432509,-9.414001,0.11492168
6.0620956,4.7350035,-0.058287904,-0.044141788,0.010852873,2.432509,-9.414001,0.11492168
6.06196,4.734911,-0.06361423,-0.04627232,0.0044612866,2.4133554,-9.423578,0.17717093
6.0618258,4.7348194,-0.06361423,-0.04627232,0.0044612866,2.4133554,-9.423578,0.17717093
6.061698,4.7346954,-0.06787529,-0.047337584,-0.0019303001,2.4037786,-9.44752,0.11492168
6.061569,4.7345705,-0.06787529,-0.047337584,-0.0019303001,2.4037786,-9.44752,0.11492168
6.0614247,4.7344637,-0.07107108,-0.050533377,-0.0072566224,2.4229321,-9.452309,0.15801731
6.061281,4.7343564,-0.07107108,-0.050533377,-0.0072566224,2.4229321,-9.452309,0.15801731
6.0611315,4.7342353,-0.07426687,-0.05372917,-0.015778739,2.4468741,-9.509769,0.1340753
6.060982,4.7341146,-0.07426687,-0.05372917,-0.015778739,2.4468741,-9.509769,0.1340753
6.060819,4.7340345,-0.076397404,-0.05692496,-0.02323559,2.4372973,-9.572019,0.22505496
6.0606546,4.733955,-0.076397404,-0.05692496,-0.02323559,2.4372973,-9.572019,0.22505496
6.060485,4.7338495,-0.07852793,-0.059055492,-0.029627176,2.4756045,-9.572019,0.17717093
6.0603156,4.733744,-0.07852793,-0.059055492,-0.029627176,2.4756045,-9.572019,0.17717093
6.0601344,4.7336597,-0.08172372,-0.062251285,-0.04027982,2.432509,-9.586384,0.22505496
6.0599546,4.733577,-0.08172372,-0.062251285,-0.04027982,2.432509,-9.586384,0.22505496
6.059766,4.733483,-0.08491952,-0.06544708,-0.04773667,2.4660277,-9.639056,0.21547815
6.0595765,4.73339,-0.08491952,-0.06544708,-0.04773667,2.4660277,-9.639056,0.21547815
6.059387,4.7333155,-0.08705004,-0.06864287,-0.05412826,2.4277205,-9.653421,0.24899697
6.059197,4.733242,-0.08705004,-0.06864287,-0.05412826,2.4277205,-9.653421,0.24899697
6.0589967,4.733135,-0.08705004,-0.07183866,-0.059454583,2.4229321,-9.667787,0.19632454
6.058796,4.7330294,-0.08705004,-0.07183866,-0.059454583,2.4229321,-9.667787,0.19632454
6.058594,4.732955,-0.08598478,-0.07503446,-0.06584617,2.384625,-9.677363,0.23463176
6.0583925,4.732881,-0.08598478,-0.07503446,-0.06584617,2.384625,-9.677363,0.23463176
6.0581827,4.732753,-0.08385425,-0.079295516,-0.07330302,2.360683,-9.706094,0.17238252
6.057972,4.732625,-0.08385425,-0.079295516,-0.07330302,2.360683,-9.706094,0.17238252
6.0577607,4.7325535,-0.08065846,-0.08142605,-0.075433545,2.4037786,-9.782708,0.22984336
6.0575504,4.732484,-0.08065846,-0.08142605,-0.075433545,2.4037786,-9.782708,0.22984336
6.057329,4.7323904,-0.075332135,-0.08142605,-0.078629345,2.4037786,-9.734824,0.19632454
6.0571084,4.732298,-0.075332135,-0.08142605,-0.078629345,2.4037786,-9.734824,0.19632454
6.056887,4.732192,-0.07000581,-0.08249131,-0.08182514,2.4612393,-9.730036,0.16759412
6.0566654,4.732087,-0.07000581,-0.08249131,-0.08182514,2.4612393,-9.730036,0.16759412
6.056447,4.7319665,-0.06574476,-0.08355658,-0.08608619,2.5234885,-9.696517,0.11492168
6.0562034,4.7318316,-0.06574476,-0.08355658,-0.08608619,2.5234885,-9.696517,0.11492168
6.0559945,4.731758,-0.0614837,-0.08142605,-0.093543045,2.5474305,-9.682152,0.18195933
6.0557604,4.731676,-0.0614837,-0.08142605,-0.093543045,2.5474305,-9.682152,0.18195933
6.0555162,4.7316003,-0.060418434,-0.078230254,-0.10313042,2.5953147,-9.653421,0.19153613
6.055272,4.7315245,-0.060418434,-0.078230254,-0.10313042,2.5953147,-9.653421,0.19153613
6.05501,4.731447,-0.0614837,-0.07396919,-0.11910939,2.5474305,-9.610326,0.18674773
6.0547495,4.731371,-0.0614837,-0.07396919,-0.11910939,2.5474305,-9.610326,0.18674773
6.054476,4.731304,-0.06467949,-0.06864287,-0.1340231,2.4995465,-9.619903,0.20590134
6.0542016,4.7312374,-0.06467949,-0.06864287,-0.1340231,2.4995465,-9.619903,0.20590134
6.0539303,4.731104,-0.06894055,-0.064381815,-0.1489368,2.3750482,-9.576807,0.12449849
6.0536585,4.7309704,-0.06894055,-0.064381815,-0.1489368,2.3750482,-9.576807,0.12449849
6.053354,4.730877,-0.07426687,-0.062251285,-0.1638505,2.3080103,-9.648633,0.17717093
6.053049,4.730785,-0.07426687,-0.062251285,-0.1638505,2.3080103,-9.648633,0.17717093
6.0530014,4.730651,-0.07852793,-0.062251285,-0.17450315,2.1691468,-9.65821,0.14844051
6.0529547,4.730518,-0.07852793,-0.062251285,-0.17450315,2.1691468,-9.65821,0.14844051
6.052908,4.7304425,-0.0795932,-0.06331655,-0.18302526,2.111686,-9.696517,0.19632454
6.052862,4.7303696,-0.0795932,-0.06331655,-0.18302526,2.111686,-9.696517,0.19632454
6.052811,4.7302713,-0.07852793,-0.06544708,-0.18941684,2.087744,-9.701305,0.16759412
6.0527606,4.730173,-0.07852793,-0.06544708,-0.18941684,2.087744,-9.701305,0.16759412
6.0527062,4.730059,-0.07426687,-0.06864287,-0.18941684,2.030283,-9.749189,0.12928689
6.052652,4.7299457,-0.07426687,-0.06864287,-0.18941684,2.030283,-9.749189,0.12928689
6.0526037,4.7298474,-0.07107108,-0.0707734,-0.18622105,1.9967642,-9.787497,0.14844051
6.052556,4.729749,-0.07107108,-0.0707734,-0.18622105,1.9967642,-9.787497,0.14844051
6.052505,4.729628,-0.06574476,-0.07503446,-0.17982946,1.9488802,-9.792285,0.07182605
6.0524545,4.7295074,-0.06574476,-0.07503446,-0.17982946,1.9488802,-9.792285,0.07182605
6.0524163,4.7294016,-0.0614837,-0.078230254,-0.17237261,1.9249382,-9.801862,0.10534488
6.0523796,4.729299,-0.0614837,-0.078230254,-0.17237261,1.9249382,-9.801862,0.10534488
6.0523496,4.7292,-0.056157377,-0.08142605,-0.16491576,1.9297266,-9.792285,0.10055647
6.0523195,4.7291007,-0.056157377,-0.08142605,-0.16491576,1.9297266,-9.792285,0.10055647
6.0523,4.7290063,-0.049765788,-0.08462184,-0.15426312,1.9680338,-9.758766,0.10534488
6.0522804,4.7289124,-0.049765788,-0.08462184,-0.15426312,1.9680338,-9.758766,0.10534488
6.052269,4.7288113,-0.04443947,-0.08675237,-0.14147994,1.982399,-9.715671,0.08140286
6.052258,4.728711,-0.04443947,-0.08675237,-0.14147994,1.982399,-9.715671,0.08140286
6.0522656,4.728647,-0.04017841,-0.08888289,-0.1308273,2.0590134,-9.696517,0.15322891
6.0522733,4.728584,-0.04017841,-0.08888289,-0.1308273,2.0590134,-9.696517,0.15322891
6.052282,4.728488,-0.035917353,-0.09207869,-0.120174654,2.15957,-9.672575,0.12449849
6.0522904,4.7283936,-0.035917353,-0.09207869,-0.120174654,2.15957,-9.672575,0.12449849
6.0522423,4.7282524,-0.029525764,-0.09420922,-0.11378307,2.207454,-9.667787,0.07182605
6.052195,4.728112,-0.029525764,-0.09420922,-0.11378307,2.207454,-9.667787,0.07182605
6.052084,4.727961,-0.026329972,-0.095274486,-0.106326215,2.2744915,-9.662998,0.090979666
6.0519753,4.7278113,-0.026329972,-0.095274486,-0.106326215,2.2744915,-9.662998,0.090979666
6.0517573,4.727706,-0.024199443,-0.09740501,-0.09993463,2.4037786,-9.653421,0.08619126
6.051542,4.7276015,-0.024199443,-0.09740501,-0.09993463,2.4037786,-9.653421,0.08619126
6.0513215,4.7275124,-0.018873122,-0.10060081,-0.09460831,2.5091233,-9.634268,0.062249243
6.051101,4.7274237,-0.018873122,-0.10060081,-0.09460831,2.5091233,-9.634268,0.062249243
6.0508695,4.7273626,-0.01674259,-0.10273133,-0.092477776,2.6001031,-9.648633,0.10055647
6.0506377,4.7273016,-0.01674259,-0.10273133,-0.092477776,2.6001031,-9.648633,0.10055647
6.050415,4.7272267,-0.013546798,-0.10486186,-0.09034725,2.6144683,-9.610326,0.05267244
6.050193,4.727152,-0.013546798,-0.10486186,-0.09034725,2.6144683,-9.610326,0.05267244
6.049972,4.727078,-0.009285741,-0.106992394,-0.08928198,2.6192567,-9.648633,0.047884032
6.0497503,4.727004,-0.009285741,-0.106992394,-0.08928198,2.6192567,-9.648633,0.047884032
6.049522,4.726945,-0.0050246827,-0.109122925,-0.08608619,2.657564,-9.576807,0.06703765
6.049298,4.7268863,-0.0050246827,-0.109122925,-0.08608619,2.657564,-9.576807,0.06703765
6.0490856,4.7268314,-0.0007636249,-0.110188186,-0.08075987,2.6910827,-9.552865,0.05267244
6.048871,4.726776,-0.0007636249,-0.110188186,-0.08075987,2.6910827,-9.552865,0.05267244
6.048656,4.7267284,0.005627962,-0.11125345,-0.075433545,2.7102363,-9.519346,0.05746084
6.048445,4.726682,0.005627962,-0.11125345,-0.075433545,2.7102363,-9.519346,0.05746084
6.048239,4.7266316,0.00988902,-0.109122925,-0.07223775,2.719813,-9.490616,0.023942016
6.048033,4.726581,0.00988902,-0.109122925,-0.07223775,2.719813,-9.490616,0.023942016
6.0478325,4.7265396,0.015215342,-0.1037966,-0.06691143,2.7868507,-9.461885,0.01436521
6.047629,4.7264967,0.015215342,-0.1037966,-0.06691143,2.7868507,-9.461885,0.01436521
6.0474358,4.7264614,0.019476399,-0.09740501,-0.058389317,2.8203697,-9.404425,0.0047884034
6.0472426,4.726425,0.019476399,-0.09740501,-0.058389317,2.8203697,-9.404425,0.0047884034
6.047054,4.7263947,0.024802722,-0.08675237,-0.05519352,2.7964275,-9.351752,-0.0047884034
6.046865,4.726364,0.024802722,-0.08675237,-0.05519352,2.7964275,-9.351752,-0.0047884034
6.046678,4.726342,0.027998514,-0.07503446,-0.05199773,2.7820623,-9.313444,0.009576807
6.046492,4.726321,0.027998514,-0.07503446,-0.05199773,2.7820623,-9.313444,0.009576807
6.0463114,4.7262993,0.030129045,-0.06331655,-0.048801936,2.7820623,-9.294291,-0.01436521
6.0461307,4.7262774,0.030129045,-0.06331655,-0.048801936,2.7820623,-9.294291,-0.01436521
6.0459495,4.7262607,0.032259572,-0.05372917,-0.04773667,2.7629087,-9.279925,-0.0047884034
6.0457697,4.726244,0.032259572,-0.05372917,-0.04773667,2.7629087,-9.279925,-0.0047884034
6.045587,4.726239,0.033324838,-0.043076526,-0.046671405,2.753332,-9.270349,0.02873042
6.045405,4.7262344,0.033324838,-0.043076526,-0.046671405,2.753332,-9.270349,0.02873042
6.0452266,4.7262197,0.030129045,-0.03455441,-0.045606144,2.7006595,-9.279925,0.009576807
6.0450506,4.726205,0.030129045,-0.03455441,-0.045606144,2.7006595,-9.279925,0.009576807
6.044871,4.7261934,0.027998514,-0.028162822,-0.04454088,2.743755,-9.284714,0.01436521
6.0446925,4.726182,0.027998514,-0.028162822,-0.04454088,2.743755,-9.284714,0.01436521
6.0445185,4.726165,0.026933251,-0.021771235,-0.04454088,2.7389667,-9.3182335,-0.0047884034
6.044343,4.7261477,0.026933251,-0.021771235,-0.04454088,2.7389667,-9.3182335,-0.0047884034
6.0441732,4.726127,0.026933251,-0.014314385,-0.04241035,2.7150247,-9.356541,-0.01436521
6.044004,4.7261066,0.026933251,-0.014314385,-0.04241035,2.7150247,-9.356541,-0.01436521
6.043835,4.7260857,0.025867987,-0.008988062,-0.041345086,2.6671407,-9.399636,0.0047884034
6.043666,4.7260647,0.025867987,-0.008988062,-0.041345086,2.6671407,-9.399636,0.0047884034
6.0434885,4.726081,0.024802722,-0.0047270046,-0.04027982,2.5953147,-9.466674,0.11492168
6.0433083,4.726097,0.024802722,-0.0047270046,-0.04027982,2.5953147,-9.466674,0.11492168
6.0431423,4.7260847,0.025867987,-0.00046594674,-0.036018763,2.528277,-9.481039,0.07182605
6.0429764,4.7260723,0.025867987,-0.00046594674,-0.036018763,2.528277,-9.481039,0.07182605
6.042807,4.7261124,0.027998514,0.0027298466,-0.03069244,2.4947581,-9.495404,0.1436521
6.042636,4.7261534,0.027998514,0.0027298466,-0.03069244,2.4947581,-9.495404,0.1436521
6.0424733,4.726162,0.032259572,0.00592564,-0.027496647,2.5091233,-9.509769,0.10055647
6.041847,4.726198,0.037585896,0.008056169,-0.020039797,2.5187001,-9.495404,0.095768064
6.04184,4.7261987,0.043977484,0.013382491,-0.014713474,2.5187001,-9.495404,0.095768064
6.04184,4.7261987,0.043977484,0.013382491,-0.014713474,2.5187001,-9.495404,0.095768064
6.04184,4.7261987,0.043977484,0.013382491,-0.014713474,2.5187001,-9.495404,0.095768064
6.041695,4.7262177,0.043977484,0.013382491,-0.014713474,2.5187001,-9.495404,0.095768064
6.041695,4.7262177,0.043977484,0.013382491,-0.014713474,2.5187001,-9.495404,0.095768064
6.0414524,4.72616,0.051434334,0.017643549,-0.01151768,2.4851813,-9.528923,0.01436521
6.0413713,4.7262335,0.056760654,0.021904606,-0.0051260935,2.4851813,-9.519346,0.18674773
6.0412583,4.726336,0.056760654,0.021904606,-0.0051260935,2.4851813,-9.519346,0.18674773
6.0411577,4.72647,0.061021715,0.021904606,0.0012654932,2.4995465,-9.461885,0.23463176
6.041056,4.726604,0.061021715,0.021904606,0.0012654932,2.4995465,-9.461885,0.23463176
6.04099,4.7267623,0.06634804,0.020839343,0.0065918155,2.4995465,-9.514558,0.30166942
6.040924,4.726919,0.06634804,0.020839343,0.0065918155,2.4995465,-9.514558,0.30166942
6.0408564,4.727077,0.06954383,0.020839343,0.014048667,2.5187001,-9.581595,0.2825158
6.040789,4.727234,0.06954383,0.020839343,0.014048667,2.5187001,-9.581595,0.2825158
6.040747,4.727403,0.073804885,0.021904606,0.023636047,2.5378537,-9.610326,0.34955344
6.040705,4.7275724,0.073804885,0.021904606,0.023636047,2.5378537,-9.610326,0.34955344
6.0407023,4.7277536,0.07806595,0.0251004,0.033223428,2.4612393,-9.595961,0.36391866
6.040699,4.727935,0.07806595,0.0251004,0.033223428,2.4612393,-9.595961,0.36391866
6.0407343,4.7281265,0.08339227,0.029361458,0.04387607,2.4133554,-9.667787,0.37349546
6.0407696,4.7283187,0.08339227,0.029361458,0.04387607,2.4133554,-9.667787,0.37349546
6.0407953,4.728514,0.08871859,0.032557253,0.055593982,2.4468741,-9.65821,0.33039984
6.0408206,4.7287097,0.08871859,0.032557253,0.055593982,2.4468741,-9.65821,0.33039984
6.040884,4.728915,0.09511018,0.037883572,0.06731189,2.4037786,-9.682152,0.35434186
6.040947,4.729121,0.09511018,0.037883572,0.06731189,2.4037786,-9.682152,0.35434186
6.041028,4.729333,0.1004365,0.04214463,0.08435612,2.3989902,-9.672575,0.34955344
6.0411086,4.7295446,0.1004365,0.04214463,0.08435612,2.3989902,-9.672575,0.34955344
6.041204,4.729765,0.106828086,0.049601484,0.103530884,2.3942018,-9.600749,0.39743748
6.041299,4.7299843,0.106828086,0.049601484,0.103530884,2.3942018,-9.600749,0.39743748
6.0414276,4.730212,0.11321967,0.054927804,0.12164038,2.3463178,-9.56723,0.4213795
6.0415554,4.7304397,0.11321967,0.054927804,0.12164038,2.3463178,-9.56723,0.4213795
6.041733,4.7306724,0.120676525,0.062384658,0.1386846,2.3223755,-9.586384,0.272939
6.0419097,4.730906,0.120676525,0.062384658,0.1386846,2.3223755,-9.586384,0.272939
6.042101,4.7311516,0.12493758,0.06877624,0.15785937,2.2888567,-9.514558,0.35434186
6.0422854,4.731389,0.12493758,0.06877624,0.15785937,2.2888567,-9.514558,0.35434186
6.0424604,4.731639,0.13132916,0.073037304,0.17596887,2.3319526,-9.471462,0.36391866
6.0426335,4.731887,0.13132916,0.073037304,0.17596887,2.3319526,-9.471462,0.36391866
6.042791,4.7321396,0.13559023,0.07729836,0.19088256,2.3942018,-9.457097,0.37349546
6.0429463,4.7323904,0.13559023,0.07729836,0.19088256,2.3942018,-9.457097,0.37349546
6.043121,4.732648,0.13985129,0.08262468,0.204731,2.3750482,-9.442732,0.36870706
6.043294,4.732905,0.13985129,0.08262468,0.204731,2.3750482,-9.442732,0.36870706
6.0434732,4.7331643,0.14198181,0.085820474,0.21644892,2.4133554,-9.394848,0.45968673
6.0436516,4.733423,0.14198181,0.085820474,0.21644892,2.4133554,-9.394848,0.45968673
6.043822,4.7336793,0.14304708,0.0911468,0.22710156,2.408567,-9.380483,0.36870706
6.043991,4.733937,0.14304708,0.0911468,0.22710156,2.408567,-9.380483,0.36870706
6.0441623,4.7341905,0.14411235,0.09434259,0.23562367,2.456451,-9.346964,0.4261679
6.044333,4.7344456,0.14411235,0.09434259,0.23562367,2.456451,-9.346964,0.4261679
6.044502,4.7346973,0.1451776,0.09647312,0.2441458,2.4756045,-9.399636,0.39743748
6.0446706,4.73495,0.1451776,0.09647312,0.2441458,2.4756045,-9.399636,0.39743748
6.044858,4.735208,0.14624287,0.10179944,0.24947211,2.4277205,-9.41879,0.39743748
6.045046,4.7354684,0.14624287,0.10179944,0.24947211,2.4277205,-9.41879,0.39743748
6.045256,4.735735,0.14730814,0.104995236,0.25479844,2.3942018,-9.457097,0.40701428
6.045466,4.736002,0.14730814,0.104995236,0.25479844,2.3942018,-9.457097,0.40701428
6.0456963,4.7362733,0.1483734,0.10819103,0.26012474,2.3511062,-9.423578,0.4165911
6.045927,4.7365465,0.1483734,0.10819103,0.26012474,2.3511062,-9.423578,0.4165911
6.0461597,4.7368174,0.1483734,0.11032156,0.26438582,2.3415294,-9.409213,0.40701428
6.0463924,4.73709,0.1483734,0.11032156,0.26438582,2.3415294,-9.409213,0.40701428
6.0466633,4.737364,0.14730814,0.11138682,0.26971215,2.2697031,-9.375694,0.50278234
6.046933,4.7376375,0.14730814,0.11138682,0.26971215,2.2697031,-9.375694,0.50278234
6.0472183,4.7379136,0.14943866,0.11351735,0.277169,2.2409728,-9.332599,0.36391866
6.0475073,4.7381954,0.14943866,0.11351735,0.277169,2.2409728,-9.332599,0.36391866
6.0478024,4.7384796,0.15156919,0.11564788,0.28249532,2.207454,-9.222465,0.4357447
6.0481415,4.738807,0.15156919,0.11564788,0.28249532,2.207454,-9.222465,0.4357447
6.048408,4.739025,0.15263446,0.117778406,0.28995216,2.1452048,-9.212888,0.37349546
6.0487537,4.7393084,0.15263446,0.117778406,0.28995216,2.1452048,-9.212888,0.37349546
6.0491076,4.7395697,0.15369973,0.118843675,0.2952785,2.0685902,-9.165004,0.40222588
6.0494723,4.73984,0.15369973,0.118843675,0.2952785,2.0685902,-9.165004,0.40222588
6.0498257,4.740115,0.15476498,0.117778406,0.30060482,2.0829554,-9.169792,0.4357447
6.0501766,4.740389,0.15476498,0.117778406,0.30060482,2.0829554,-9.169792,0.4357447
6.0505395,4.740662,0.15476498,0.117778406,0.30806166,2.0494366,-9.083601,0.4357447
6.0509024,4.7409363,0.15476498,0.117778406,0.30806166,2.0494366,-9.083601,0.4357447
6.0512815,4.7412066,0.15369973,0.116713144,0.3155185,2.0494366,-9.040505,0.3878607
6.0516596,4.7414765,0.15369973,0.116713144,0.3155185,2.0494366,-9.040505,0.3878607
6.05206,4.7417374,0.15156919,0.11245208,0.32084483,2.0159178,-9.011775,0.37828386
6.0524592,4.7419977,0.15156919,0.11245208,0.32084483,2.0159178,-9.011775,0.37828386
6.052858,4.74226,0.14943866,0.10925629,0.3304322,1.9728222,-8.949526,0.4357447
6.053258,4.742523,0.14943866,0.10925629,0.3304322,1.9728222,-8.949526,0.4357447
6.053681,4.74277,0.14304708,0.10819103,0.33895433,1.982399,-8.973468,0.38307226
6.054104,4.7430177,0.14304708,0.10819103,0.33895433,1.982399,-8.973468,0.38307226
6.0545487,4.74325,0.1366555,0.10712577,0.34960696,1.9536686,-8.916007,0.36870706
6.0549955,4.7434845,0.1366555,0.10712577,0.34960696,1.9536686,-8.916007,0.36870706
6.0554852,4.7436743,0.12919864,0.1060605,0.35812908,1.934515,-8.90643,0.31603462
6.0559745,4.743864,0.12919864,0.1060605,0.35812908,1.934515,-8.90643,0.31603462
6.056477,4.744045,0.120676525,0.1060605,0.369847,1.9249382,-8.930372,0.320823
6.056979,4.744225,0.120676525,0.1060605,0.369847,1.9249382,-8.930372,0.320823
6.0575085,4.7443576,0.11215441,0.1060605,0.38582596,1.8387469,-8.935161,0.2825158
6.0580373,4.7444887,0.11215441,0.1060605,0.38582596,1.8387469,-8.935161,0.2825158
6.058578,4.7445917,0.10363229,0.102864705,0.40073967,1.7621324,-8.968679,0.24420857
6.059119,4.7446933,0.10363229,0.102864705,0.40073967,1.7621324,-8.968679,0.24420857
6.0596733,4.7447844,0.0972407,0.100734174,0.41565338,1.7956513,-8.983045,0.24420857
6.0602274,4.744874,0.0972407,0.100734174,0.41565338,1.7956513,-8.983045,0.24420857
6.060804,4.744967,0.089783855,0.09966891,0.43482813,1.7812861,-8.983045,0.2633622
6.06138,4.745059,0.089783855,0.09966891,0.43482813,1.7812861,-8.983045,0.2633622
6.0619707,4.745133,0.08339227,0.100734174,0.45293763,1.7669208,-9.069236,0.23942018
6.0625606,4.745206,0.08339227,0.100734174,0.45293763,1.7669208,-9.069236,0.23942018
6.0631733,4.7453275,0.07806595,0.09966891,0.47424293,1.7717092,-9.074024,0.34476504
6.063787,4.74545,0.07806595,0.09966891,0.47424293,1.7717092,-9.074024,0.34476504
6.064427,4.7455454,0.074870154,0.09966891,0.49767873,1.8148049,-9.030929,0.30166942
6.065067,4.74564,0.074870154,0.09966891,0.49767873,1.8148049,-9.030929,0.30166942
6.06573,4.745739,0.07167436,0.10179944,0.5200493,1.9201498,-9.059659,0.30645782
6.0663924,4.7458363,0.07167436,0.10179944,0.5200493,1.9201498,-9.059659,0.30645782
6.0668626,4.746012,0.07060909,0.10392997,0.5402893,2.0733786,-9.155427,0.36870706
6.067328,4.746186,0.07060909,0.10392997,0.5402893,2.0733786,-9.155427,0.36870706
6.067805,4.746355,0.07167436,0.10392997,0.5615946,2.1404164,-9.188946,0.4165911
6.068279,4.746522,0.07167436,0.10392997,0.5615946,2.1404164,-9.188946,0.4165911
6.0687532,4.746678,0.07273962,0.104995236,0.57863885,2.1930888,-9.32781,0.40701428
6.069225,4.7468314,0.07273962,0.104995236,0.57863885,2.1930888,-9.32781,0.40701428
6.069756,4.747014,0.075935416,0.10712577,0.5978136,2.1499932,-9.437943,0.4405331
6.070283,4.7471943,0.075935416,0.10712577,0.5978136,2.1499932,-9.437943,0.4405331
6.070895,4.7473965,0.082327,0.11032156,0.6201841,2.0685902,-9.509769,0.4213795
6.0715003,4.747598,0.082327,0.11032156,0.6201841,2.0685902,-9.509769,0.4213795
6.0722094,4.747797,0.08871859,0.11245208,0.6446852,2.0111294,-9.562442,0.40222588
6.072916,4.747999,0.08871859,0.11245208,0.6446852,2.0111294,-9.562442,0.40222588
6.073725,4.748089,0.09617544,0.11458261,0.6745126,1.9297266,-9.65821,0.320823
6.0745387,4.748177,0.09617544,0.11458261,0.6745126,1.9297266,-9.65821,0.320823
6.075396,4.7482667,0.104697555,0.118843675,0.7117969,1.8243817,-9.682152,0.2873042
6.076232,4.748352,0.104697555,0.118843675,0.7117969,1.8243817,-9.682152,0.2873042
6.077123,4.748452,0.11641546,0.12736578,0.756538,1.7429788,-9.701305,0.2681506
6.078014,4.7485504,0.11641546,0.12736578,0.756538,1.7429788,-9.701305,0.2681506
6.078964,4.7486734,0.12919864,0.1390837,0.8108665,1.6663644,-9.677363,0.2777274
6.0799136,4.748795,0.12919864,0.1390837,0.8108665,1.6663644,-9.677363,0.2777274
6.080924,4.748931,0.14304708,0.15293214,0.87158656,1.5849615,-9.629479,0.25857377
6.0819335,4.7490654,0.14304708,0.15293214,0.87158656,1.5849615,-9.629479,0.25857377
6.0829973,4.749202,0.15689552,0.16997637,0.9333719,1.5849615,-9.68694,0.21068975
6.0840597,4.749337,0.15689552,0.16997637,0.9333719,1.5849615,-9.68694,0.21068975
6.0852084,4.749545,0.17180921,0.19128166,1.0026141,1.5466543,-9.576807,0.36870706
6.086357,4.749753,0.17180921,0.19128166,1.0026141,1.5466543,-9.576807,0.36870706
6.0875764,4.749999,0.18672292,0.21471748,1.0771827,1.5275006,-9.509769,0.4213795
6.088796,4.750245,0.18672292,0.21471748,1.0771827,1.5275006,-9.509769,0.4213795
6.0900974,4.750494,0.20163663,0.23921856,1.1538817,1.5035586,-9.500193,0.38307226
6.0913987,4.7507424,0.20163663,0.23921856,1.1538817,1.5035586,-9.500193,0.38307226
6.092781,4.750987,0.2144198,0.2647849,1.2337765,1.4413095,-9.433155,0.33039984
6.0941634,4.7512302,0.2144198,0.2647849,1.2337765,1.4413095,-9.433155,0.33039984
6.0956287,4.7515173,0.22720297,0.29248178,1.3168671,1.3790601,-9.433155,0.40701428
6.097096,4.751803,0.22720297,0.29248178,1.3168671,1.3790601,-9.433155,0.40701428
6.0986958,4.7520633,0.24211667,0.3212439,1.4031535,1.3742718,-9.461885,0.24899697
6.100188,4.752304,0.24211667,0.3212439,1.4031535,1.3742718,-9.461885,0.24899697
6.101824,4.7526245,0.25809565,0.35000607,1.48944,1.2593501,-9.452309,0.41180268
6.103467,4.752945,0.25809565,0.35000607,1.48944,1.2593501,-9.452309,0.41180268
6.1052,4.7532578,0.27087882,0.37983346,1.5799874,1.1492168,-9.490616,0.32561144
6.1069326,4.753569,0.27087882,0.37983346,1.5799874,1.1492168,-9.490616,0.32561144
6.1087556,4.7538776,0.2825967,0.4085956,1.6758612,1.0151415,-9.576807,0.22505496
6.1105814,4.754185,0.2825967,0.4085956,1.6758612,1.0151415,-9.576807,0.22505496
6.1125064,4.754511,0.29431462,0.43735775,1.7759961,0.92895025,-9.591172,0.23463176
6.114435,4.754835,0.29431462,0.43735775,1.7759961,0.92895025,-9.591172,0.23463176
6.1165066,4.755186,0.30496728,0.46718514,1.880392,0.82360536,-9.65821,0.25857377
6.1185274,4.7555265,0.30496728,0.46718514,1.880392,0.82360536,-9.65821,0.25857377
6.1206527,4.755887,0.31561992,0.4959473,1.9869184,0.7374141,-9.691729,0.30166942
6.122802,4.75625,0.31561992,0.4959473,1.9869184,0.7374141,-9.691729,0.30166942
6.125062,4.7566295,0.3284031,0.5247094,2.098771,0.7278373,-9.773131,0.31603462
6.1273065,4.757004,0.3284031,0.5247094,2.098771,0.7278373,-9.773131,0.31603462
6.1273065,4.757004,0.3284031,0.5247094,2.098771,0.7278373,-9.773131,0.31603462
6.1273065,4.757004,0.3284031,0.5247094,2.098771,0.7278373,-9.773131,0.31603462
6.1273065,4.757004,0.3284031,0.5247094,2.098771,0.7278373,-9.773131,0.31603462
6.138921,4.7589455,0.37527472,0.61632216,2.43646,0.770933,-9.92636,0.47405192
6.13954,4.759053,0.37527472,0.61632216,2.43646,0.770933,-9.92636,0.47405192
6.1419787,4.7594743,0.37527472,0.61632216,2.43646,0.770933,-9.92636,0.47405192
6.1447644,4.759984,0.3944495,0.65041065,2.548313,0.81881696,-10.0748005,0.59855044
6.1476426,4.7605095,0.3944495,0.65041065,2.548313,0.81881696,-10.0748005,0.59855044
6.1502643,4.7609997,0.4146895,0.68556434,2.6601655,0.8379706,-10.189722,0.6464345
6.1530128,4.761512,0.4146895,0.68556434,2.6601655,0.78529817,-10.386047,0.56982
6.156009,4.762046,0.43492955,0.72178334,2.7730837,0.78529817,-10.386047,0.56982
6.1589117,4.7625613,0.43492955,0.72178334,2.7730837,0.78529817,-10.386047,0.56982
6.16194,4.763098,0.4573001,0.76119816,2.8849363,0.770933,-10.5680065,0.5650316
6.164996,4.763636,0.4573001,0.76119816,2.8849363,0.770933,-10.5680065,0.5650316
6.169464,4.76445,0.4807359,0.7984824,2.9978545,0.6799533,-10.793061,0.6512229
6.171332,4.764789,0.4807359,0.7984824,2.9978545,0.6799533,-10.793061,0.6512229
6.1746073,4.765379,0.505237,0.8336361,3.1107724,0.62728083,-10.912771,0.62728083
6.1779165,4.765971,0.505237,0.8336361,3.1107724,0.62728083,-10.912771,0.62728083
6.1813035,4.766548,0.52973807,0.865594,3.22156,0.5746084,-11.089942,0.49799395
6.1846933,4.7671204,0.52973807,0.865594,3.22156,0.5746084,-11.089942,0.49799395
6.1881976,4.7677135,0.557435,0.8943562,3.3334126,0.51235914,-11.247959,0.47405192
6.191707,4.7683015,0.557435,0.8943562,3.3334126,0.51235914,-11.247959,0.47405192
6.1953053,4.768891,0.5851318,0.91992253,3.4452655,0.36391866,-11.420342,0.2825158
6.198908,4.7694755,0.5851318,0.91992253,3.4452655,0.36391866,-11.420342,0.2825158
6.2026134,4.7700744,0.61069816,0.9444236,3.5571182,0.1388637,-11.501745,0.05746084
6.2063155,4.770669,0.61069816,0.9444236,3.5571182,0.1388637,-11.501745,0.05746084
6.210136,4.7712817,0.634134,0.96572894,3.6753626,-0.40701428,-11.774684,-0.37349546
6.2139544,4.7718906,0.634134,0.96572894,3.6753626,-0.40701428,-11.774684,-0.37349546
6.2178783,4.7725024,0.65117824,0.9870342,3.8053248,-0.01436521,-11.971008,-0.4309563
6.2217956,4.773109,0.65117824,0.9870342,3.8053248,-0.01436521,-11.971008,-0.4309563
6.2257895,4.7737255,0.670353,1.0083395,3.9395483,0.7517793,-11.96622,0.22984336
6.2297707,4.7743382,0.670353,1.0083395,3.9395483,0.7517793,-11.96622,0.22984336
6.233753,4.775099,0.6991151,1.0307101,4.0620537,1.1971009,-12.08593,0.8379706
6.237731,4.775852,0.6991151,1.0307101,4.0620537,1.1971009,-12.08593,0.8379706
6.2418423,4.776683,0.7417257,1.0488195,4.16858,0.9768343,-12.018892,0.9672575
6.2459493,4.777504,0.7417257,1.0488195,4.16858,0.9768343,-12.018892,0.9672575
6.2501507,4.778366,0.79711944,1.0658637,4.26978,0.81881696,-11.932701,0.8858546
6.2543488,4.7792177,0.79711944,1.0658637,4.26978,0.81881696,-11.932701,0.8858546
6.258665,4.780155,0.85997003,1.0711901,4.3667192,1.0151415,-12.11466,1.1444284
6.2629776,4.781085,0.85997003,1.0711901,4.3667192,1.0151415,-12.11466,1.1444284
6.2673874,4.7820826,0.92601645,1.066929,4.458332,1.0726024,-12.229582,1.2689269
6.271795,4.783073,0.92601645,1.066929,4.458332,1.0726024,-12.229582,1.2689269
6.2762885,4.7841268,0.9973892,1.0605375,4.5446186,1.2449849,-12.287044,1.316811
6.2807713,4.785172,0.9973892,1.0605375,4.5446186,1.2449849,-12.287044,1.316811
0.0021531233,4.786284,1.0698272,1.0541458,4.6266437,1.4748282,-12.425907,1.3934253
0.0067242566,4.787391,1.0698272,1.0541458,4.6266437,1.4748282,-12.425907,1.3934253
0.01136718,4.7885685,1.1507872,1.05095,4.707604,0.9576807,-12.330139,1.1875241
0.016009353,4.7897396,1.1507872,1.05095,4.707604,0.9576807,-12.330139,1.1875241
0.020734452,4.790999,1.2285515,1.0381669,4.786433,0.9624691,-12.454638,1.3838485
0.025467718,4.7922544,1.2285515,1.0381669,4.786433,0.9624691,-12.454638,1.3838485
0.030257232,4.793577,1.3063159,1.0179269,4.856741,1.1683705,-12.354081,1.3934253
0.03505584,4.794897,1.3063159,1.0179269,4.856741,1.1683705,-12.354081,1.3934253
0.03991213,4.7962823,1.3851454,0.9998174,4.9249177,1.2114661,-12.325351,1.2880806
0.04476363,4.797662,1.3851454,0.9998174,4.9249177,1.2114661,-12.325351,1.2880806
0.049693204,4.799114,1.4629097,0.9891647,4.9952254,1.2114661,-12.119449,1.2258313
0.054613356,4.80056,1.4629097,0.9891647,4.9952254,1.2114661,-12.119449,1.2258313
0.059607185,4.8020787,1.536413,0.98809946,5.063402,1.4508862,-11.971008,1.2497733
0.064601555,4.803593,1.536413,0.98809946,5.063402,1.4508862,-11.971008,1.2497733
0.069674335,4.8051987,1.6067204,1.0019479,5.1305137,1.2210429,-11.856087,1.6136919
0.074746944,4.8068,1.6067204,1.0019479,5.1305137,1.2210429,-11.856087,1.6136919
0.07988972,4.808443,1.6759627,1.0424279,5.2050824,1.3551182,-11.836933,1.2785037
0.085033104,4.8100834,1.6759627,1.0424279,5.2050824,1.3551182,-11.836933,1.2785037
0.09026163,4.811775,1.7398785,1.1074091,5.2839117,1.7142484,-11.779472,1.2114661
0.095496245,4.813465,1.7398785,1.1074091,5.2839117,1.7142484,-11.779472,1.2114661
0.10081008,4.8152113,1.798468,1.1819776,5.3584805,1.8195933,-11.745954,1.3982137
0.10611944,4.816952,1.798468,1.1819776,5.3584805,1.8195933,-11.745954,1.3982137
0.11152904,4.818739,1.8527966,1.2693293,5.4437017,1.2785037,-11.789049,1.412579
0.116939574,4.8205223,1.8527966,1.2693293,5.4437017,1.2785037,-11.789049,1.412579
0.12245196,4.822351,1.9039292,1.356681,5.5342493,0.60333884,-11.774684,1.4891934
0.12796524,4.824175,1.9039292,1.356681,5.5342493,0.60333884,-11.774684,1.4891934
0.13358955,4.826039,1.9539967,1.4365758,5.6354494,0.17238252,-11.784261,1.4987702
0.13921472,4.827897,1.9539967,1.4365758,5.6354494,0.17238252,-11.784261,1.4987702
0.14496408,4.829791,2.0061946,1.5111443,5.751563,-0.095768064,-11.745954,1.436521
0.15076078,4.8316946,2.0061946,1.5111443,5.751563,-0.095768064,-11.745954,1.436521
0.15660723,4.8335795,2.056262,1.5878433,5.883656,-0.34476504,-11.688493,1.1827357
0.16250269,4.835475,2.056262,1.5878433,5.883656,-0.34476504,-11.688493,1.1827357
0.16855682,4.8373904,2.1052642,1.6698687,6.026401,-0.39743748,-11.535264,1.0103531
0.1746127,4.839302,2.1052642,1.6698687,6.026401,-0.39743748,-11.535264,1.0103531
0.18082057,4.8412447,2.144679,1.7540246,6.170212,-0.21068975,-11.382035,1.0534488
0.18703659,4.8431854,2.144679,1.7540246,6.170212,-0.21068975,-11.382035,1.0534488
0.1933812,4.8451443,2.1713107,1.8435068,6.3023047,0.45010993,-11.008539,1.1300632
0.19974056,4.8471026,2.1713107,1.8435068,6.3023047,0.45010993,-11.008539,1.1300632
0.20632222,4.849098,2.1787674,1.9468374,6.4109616,1.1252748,-10.453085,1.5131354
0.21288642,4.851083,2.1787674,1.9468374,6.4109616,1.1252748,-10.453085,1.5131354
0.21947555,4.853013,2.1595926,2.0672123,6.4770083,1.7956513,-9.9550905,1.8626889
0.22583653,4.8548703,2.1595926,2.0672123,6.4770083,1.7956513,-9.9550905,1.8626889
0.23244451,4.8567157,2.112721,2.2046316,6.491922,2.0350714,-9.361329,2.2170308
0.2390809,4.8585615,2.112721,2.2046316,6.491922,2.0350714,-9.361329,2.2170308
0.24569394,4.860293,2.040283,2.355899,6.4588985,2.0638018,-8.882488,2.4133554
0.25230244,4.8620143,2.040283,2.355899,6.4588985,2.0638018,-8.882488,2.4133554
0.2588808,4.863602,1.947605,2.5135581,6.3843303,1.910573,-8.307879,2.5139117
0.26544788,4.865178,1.947605,2.5135581,6.3843303,1.910573,-8.307879,2.5139117
0.27194184,4.866596,1.8400134,2.6712172,6.2799344,1.5753847,-7.819463,2.5139117
0.27847674,4.8680134,1.8400134,2.6712172,6.2799344,1.5753847,-7.819463,2.5139117
0.28484777,4.869243,1.7207037,2.8171585,6.1521025,1.4077905,-7.350199,2.456451
0.29125267,4.870468,1.7207037,2.8171585,6.1521025,1.4077905,-7.350199,2.456451
0.29754555,4.871518,1.5950025,2.947121,6.006161,0.89543146,-6.9479733,2.3558946
0.30382743,4.872553,1.5950025,2.947121,6.006161,0.89543146,-6.9479733,2.3558946
0.30997095,4.8733997,1.4682361,3.0642998,5.8453064,0.80924016,-6.4260373,1.9632454
0.31611606,4.874233,1.4682361,3.0642998,5.8453064,0.80924016,-6.4260373,1.9632454
0.3221164,4.874887,1.3414696,3.1676304,5.6737986,0.36391866,-5.9663506,1.7621324
0.32809985,4.8755255,1.3414696,3.1676304,5.6737986,0.36391866,-5.9663506,1.7621324
0.33393508,4.8759923,1.2200295,3.2517865,5.4916387,-0.05267244,-5.645528,1.5562311
0.33977088,4.876445,1.2200295,3.2517865,5.4916387,-0.05267244,-5.645528,1.5562311
0.34543446,4.876734,1.1049808,3.3188982,5.3062825,-0.4309563,-5.233725,1.3359646
0.35108122,4.8770065,1.1049808,3.3188982,5.3062825,-0.4309563,-5.233725,1.3359646
0.35657194,4.877146,1.000585,3.366835,5.1177306,-0.6703765,-4.8362875,1.3215994
0.36206225,4.8772683,1.000585,3.366835,5.1177306,-0.6703765,-4.8362875,1.3215994
0.36739632,4.877273,0.9025806,3.3977277,4.927048,-0.8523358,-4.381389,1.3599066
0.3727612,4.877261,0.9025806,3.3977277,4.927048,-0.8523358,-4.381389,1.3599066
0.37793928,4.877106,0.81309843,3.4264898,4.7342353,-0.51235914,-3.5482068,1.043872
0.38288048,4.876942,0.81309843,3.4264898,4.7342353,-0.51235914,-3.5482068,1.043872
0.38803455,4.876655,0.7236162,3.4477952,4.5243783,-0.5746084,-2.9640217,1.1061212
0.39317182,4.876351,0.7236162,3.4477952,4.5243783,-0.5746084,-2.9640217,1.1061212
0.39781377,4.8759604,0.6298729,3.4541867,4.2921505,-0.8523358,-2.3989902,1.2018893
0.40252027,4.8755493,0.6298729,3.4541867,4.2921505,-0.8523358,-2.3989902,1.2018893
0.40703177,4.8750153,0.5350644,3.4414036,4.040748,-0.9816227,-1.9536686,1.2497733
0.411609,4.874457,0.5350644,3.4414036,4.040748,-0.9816227,-1.9536686,1.2497733
0.41588154,4.873777,0.43173376,3.4105108,3.7723017,-1.340753,-1.4987702,1.2449849
0.42019027,4.873076,0.43173376,3.4105108,3.7723017,-1.340753,-1.4987702,1.2449849
0.42425466,4.8722353,0.32307678,3.3689656,3.4942677,-1.2737153,-1.0630256,0.82360536
0.42831618,4.87138,0.32307678,3.3689656,3.4942677,-1.2737153,-1.0630256,0.82360536
0.43209767,4.870388,0.20483242,3.310376,3.2045157,-1.1923125,-0.78050977,0.7134721
0.43587986,4.8693805,0.20483242,3.310376,3.2045157,-1.1923125,-0.78050977,0.7134721
0.43932188,4.868245,0.07913121,3.2358074,2.8977196,-1.316811,-0.7182605,0.59376204
0.44277453,4.867091,0.07913121,3.2358074,2.8977196,-1.316811,-0.7182605,0.59376204
0.44592544,4.86578,-0.050831053,3.1505864,2.5749445,-1.8387469,-0.90979666,0.45968673
0.44914168,4.864428,-0.050831053,3.1505864,2.5749445,-1.8387469,-0.90979666,0.45968673
0.45191085,4.862994,-0.17759752,3.0504515,2.239386,-2.1739352,-0.9911995,0.37828386
0.45470136,4.8615355,-0.17759752,3.0504515,2.239386,-2.1739352,-0.9911995,0.37828386
0.45714128,4.859956,-0.30010295,2.9364681,1.8985015,-2.6527755,-1.1971009,0.20590134
0.45958924,4.8583584,-0.30010295,2.9364681,1.8985015,-2.6527755,-1.1971009,0.20590134
0.4616716,4.8566623,-0.41728202,2.8097017,1.5608127,-2.6240451,-1.2497733,-0.009576807
0.46377063,4.8549404,-0.41728202,2.8097017,1.5608127,-2.6240451,-1.2497733,-0.009576807
0.4654745,4.853159,-0.5291348,2.6722825,1.2167323,-2.6479871,-1.4030021,-0.12928689
0.4671997,4.8513436,-0.5291348,2.6722825,1.2167323,-2.6479871,-1.4030021,-0.12928689
0.46853635,4.849488,-0.6324654,2.524211,0.865195,-3.083732,-1.7190368,-0.11971009
0.46986982,4.8476253,-0.6324654,2.524211,0.865195,-3.083732,-1.7190368,-0.11971009
0.47083947,4.845697,-0.72514343,2.3612254,0.5136577,-3.7301662,-1.982399,-0.2633622
0.47179237,4.84379,-0.72514343,2.3612254,0.5136577,-3.7301662,-1.982399,-0.2633622
0.4723751,4.84184,-0.8082341,2.182261,0.16425095,-3.8355112,-2.4037786,-0.35434186
0.4729412,4.8399296,-0.8082341,2.182261,0.16425095,-3.8355112,-2.4037786,-0.35434186
0.4731599,4.837986,-0.8796068,1.985187,-0.17130736,-4.7979803,-3.145981,0.90979666
0.47336334,4.8361435,-0.8796068,1.985187,-0.17130736,-4.7979803,-3.145981,0.90979666
0.47316808,4.8343596,-0.9371311,1.7657425,-0.5047351,-5.046977,-6.6606693,1.9680338
0.47296977,4.8325844,-0.9371311,1.7657425,-0.5047351,-5.046977,-6.6606693,1.9680338
0.47247088,4.8308,-0.9296742,1.5249927,-0.8232492,-5.2863975,-3.9791632,-0.062249243
0.47197047,4.829021,-0.9296742,1.5249927,-0.8232492,-5.2863975,-3.9791632,-0.062249243
0.47113377,4.827389,-0.91476053,1.2565461,-1.1321759,-7.517793,-3.7205894,-0.34476504
0.47029054,4.8257513,-0.91476053,1.2565461,-1.1321759,-7.517793,-3.7205894,-0.34476504
0.46906546,4.8241878,-0.9339353,0.94335836,-1.4315152,-8.537724,-5.21936,0.18195933
0.4647741,4.8197966,-0.94884896,0.58649474,-1.7148756,-7.967903,-4.3047748,-0.50278234
0.4647741,4.8197966,-0.94884896,0.58649474,-1.7148756,-7.967903,-4.3047748,-0.50278234
0.4647741,4.8197966,-0.94884896,0.58649474,-1.7148756,-7.967903,-4.3047748,-0.50278234
0.46233955,4.8181634,-0.97121954,0.21471748,-1.9801264,-7.144298,-5.046977,-0.272939
0.46134466,4.8174973,-0.97121954,0.21471748,-1.9801264,-7.144298,-5.046977,-0.272939
0.4592354,4.8163958,-1.005308,-0.12616715,-2.224072,-6.9527617,-5.554548,-0.22505496
0.4569946,4.815227,-1.005308,-0.12616715,-2.224072,-6.9527617,-5.554548,-0.22505496
0.4548455,4.8143253,-1.0351354,-0.42763698,-2.4531038,-6.14831,-6.0046577,-0.076614454
0.45256045,4.8133674,-1.0351354,-0.42763698,-2.4531038,-6.14831,-6.0046577,-0.076614454
0.44997364,4.8124685,-1.061767,-0.6822352,-2.6640263,-5.837064,-6.6846113,0.12449849
0.4473849,4.81157,-1.061767,-0.6822352,-2.6640263,-5.837064,-6.6846113,0.12449849
0.44413844,4.8106213,-1.077746,-0.89635336,-2.8536432,-6.129156,-7.3789296,0.2777274
0.44181645,4.809943,-1.077746,-0.89635336,-2.8536432,-6.129156,-7.3789296,0.2777274
0.43851027,4.809127,-1.082007,-1.0838399,-3.0230203,-6.105214,-7.9726915,0.46926352
0.4358832,4.808478,-1.082007,-1.0838399,-3.0230203,-6.105214,-7.9726915,0.46926352
0.43273896,4.8078127,-1.0756154,-1.2542822,-3.175353,-5.8466406,-8.403648,0.48841715
0.4295925,4.8071456,-1.0756154,-1.2542822,-3.175353,-5.8466406,-8.403648,0.48841715
0.42630363,4.8065357,-1.0670934,-1.4076803,-3.3085113,-5.755661,-8.978256,0.4309563
0.4230095,4.8059235,-1.0670934,-1.4076803,-3.3085113,-5.755661,-8.978256,0.4309563
0.41958022,4.8053513,-1.0585712,-1.5450994,-3.4182334,-5.6886234,-9.519346,0.29209262
0.41615322,4.8047767,-1.0585712,-1.5450994,-3.4182334,-5.6886234,-9.519346,0.29209262
0.4126269,4.804242,-1.053245,-1.6633438,-3.4981282,-5.683835,-10.070012,0.2825158
0.40910316,4.8037043,-1.053245,-1.6633438,-3.4981282,-5.683835,-10.070012,0.2825158
0.4055204,4.8032064,-1.0511143,-1.7666744,-3.5471303,-5.837064,-11.008539,0.45968673
0.40194088,4.802705,-1.0511143,-1.7666744,-3.5471303,-5.837064,-11.008539,0.45968673
0.3983448,4.8022485,-1.0489838,-1.8604177,-3.5631094,-5.9567738,-11.688493,0.6703765
0.3947517,4.8017883,-1.0489838,-1.8604177,-3.5631094,-5.9567738,-11.688493,0.6703765
0.39117908,4.801385,-1.0393965,-1.9456389,-3.5449998,-6.0621185,-12.368446,0.89543146
0.38760474,4.8009777,-1.0393965,-1.9456389,-3.5449998,-6.0621185,-12.368446,0.89543146
0.3840866,4.8006454,-1.017026,-2.0297947,-3.4917367,-6.301539,-12.832921,1.067814
0.3805728,4.800308,-1.017026,-2.0297947,-3.4917367,-6.301539,-12.832921,1.067814
0.37713546,4.800046,-0.98293746,-2.1086242,-3.4054503,-6.2728086,-13.057976,1.1731589
0.37369862,4.7997775,-0.98293746,-2.1086242,-3.4054503,-6.2728086,-13.057976,1.1731589
0.3703697,4.7995996,-0.9360658,-2.1831927,-3.2882712,-6.2871737,-13.421895,1.3120226
0.36703464,4.7994137,-0.9360658,-2.1831927,-3.2882712,-6.2871737,-13.421895,1.3120226
0.3638206,4.79935,-0.8774763,-2.248174,-3.14233,-5.683835,-13.469779,1.3982137
0.36058775,4.7992744,-0.8774763,-2.248174,-3.14233,-5.683835,-13.469779,1.3982137
0.35756153,4.7992716,-0.81142986,-2.2939804,-2.9708223,-5.243302,-13.31655,1.2258313
0.35455763,4.799254,-0.81142986,-2.2939804,-2.9708223,-5.243302,-13.31655,1.2258313
0.35152563,4.7993608,-0.74325293,-2.31209,-2.771618,-4.865018,-13.364434,1.283292
0.34851953,4.79947,-0.74325293,-2.31209,-2.771618,-4.865018,-13.364434,1.283292
0.345656,4.799604,-0.67401075,-2.3056982,-2.558565,-4.3047748,-13.455414,1.4508862
0.34279466,4.799734,-0.67401075,-2.3056982,-2.558565,-4.3047748,-13.455414,1.4508862
0.3401471,4.7999134,-0.60157275,-2.2737403,-2.3369899,-3.7014358,-13.55597,1.6041151
0.33749995,4.800088,-0.60157275,-2.2737403,-2.3369899,-3.7014358,-13.55597,1.6041151
0.33508202,4.800312,-0.52487373,-2.2172813,-2.1068928,-3.1411927,-13.450625,1.6663644
0.33266383,4.8005314,-0.52487373,-2.2172813,-2.1068928,-3.1411927,-13.450625,1.6663644
0.3304805,4.8008003,-0.44604418,-2.139517,-1.8757305,-2.5761611,-13.532028,1.7717092
0.32829228,4.8010645,-0.44604418,-2.139517,-1.8757305,-2.5761611,-13.532028,1.7717092
0.32635564,4.8013763,-0.36614934,-2.0393822,-1.6403071,-2.2697031,-13.699622,1.8818425
0.32441455,4.8016844,-0.36614934,-2.0393822,-1.6403071,-2.2697031,-13.699622,1.8818425
0.32271618,4.8020334,-0.28518924,-1.9200726,-1.4048836,-1.9680338,-13.790602,1.8962077
0.3210155,4.8023787,-0.28518924,-1.9200726,-1.4048836,-1.9680338,-13.790602,1.8962077
0.3195636,4.80276,-0.2052944,-1.7826533,-1.1694602,-1.8770541,-14.039598,1.9297266
0.31810954,4.8031387,-0.2052944,-1.7826533,-1.1694602,-1.8770541,-14.039598,1.9297266
0.3168992,4.803545,-0.12966062,-1.6303205,-0.9329714,-2.0254946,-14.293385,1.8483237
0.31569317,4.8039465,-0.12966062,-1.6303205,-0.9329714,-2.0254946,-14.293385,1.8483237
0.3147352,4.8043647,-0.057222642,-1.4684004,-0.6911564,-2.2649148,-14.504074,1.6472107
0.31376213,4.8047867,-0.057222642,-1.4684004,-0.6911564,-2.2649148,-14.504074,1.6472107
0.31306478,4.805212,0.008823755,-1.3011539,-0.44081926,-2.7341783,-14.595054,1.4796166
0.3123452,4.8056483,0.008823755,-1.3011539,-0.44081926,-2.7341783,-14.595054,1.4796166
0.31193182,4.8060646,0.073804885,-1.1307116,-0.17769894,-3.265691,-14.633361,1.3024458
0.31151628,4.806481,0.073804885,-1.1307116,-0.17769894,-3.265691,-14.633361,1.3024458
0.3113856,4.806898,0.13559023,-0.9623997,0.09607403,-3.7301662,-14.709975,1.1779473
0.3112604,4.8072968,0.13559023,-0.9623997,0.09607403,-3.7301662,-14.709975,1.1779473
0.31146044,4.8076887,0.1963103,-0.8026101,0.38156492,-4.223372,-14.647726,1.0726024
0.31166893,4.808096,0.1963103,-0.8026101,0.38156492,-4.223372,-14.647726,1.0726024
0.31224895,4.8084793,0.25809565,-0.6513425,0.6755779,-4.55856,-14.542381,0.94331545
0.31282935,4.8088646,0.25809565,-0.6513425,0.6755779,-4.55856,-14.542381,0.94331545
0.31378162,4.8092804,0.3220115,-0.50966233,0.97917825,-4.783615,-14.417883,0.93852705
0.31472373,4.8096933,0.3220115,-0.50966233,0.97917825,-4.783615,-14.417883,0.93852705
0.31600842,4.8101454,0.38912317,-0.37756956,1.2859744,-4.9464207,-14.288596,0.81881696
0.31729975,4.810601,0.38912317,-0.37756956,1.2859744,-4.9464207,-14.288596,0.81881696
0.31889534,4.811095,0.45943063,-0.25825995,1.5895748,-4.9416323,-14.140155,0.78529817
0.32049468,4.811592,0.45943063,-0.25825995,1.5895748,-4.9416323,-14.140155,0.78529817
0.3224068,4.8121414,0.5350644,-0.15066823,1.8857183,-4.975151,-13.953407,0.7661445
0.3243239,4.8126936,0.5350644,-0.15066823,1.8857183,-4.975151,-13.953407,0.7661445
0.32652518,4.813298,0.61282873,-0.05372917,2.174405,-4.9655743,-13.747506,0.61770403
0.32872006,4.813902,0.61282873,-0.05372917,2.174405,-4.9655743,-13.747506,0.61770403
0.33118558,4.814563,0.69165826,0.029361458,2.4535043,-5.0421886,-13.589489,0.59855044
0.33368158,4.8152328,0.69165826,0.029361458,2.4535043,-5.0421886,-13.589489,0.59855044
0.33642143,4.815963,0.77261835,0.09860365,2.7230163,-4.927267,-13.364434,0.51714754
0.3391732,4.816697,0.77261835,0.09860365,2.7230163,-4.927267,-13.364434,0.51714754
0.34217754,4.817501,0.85357845,0.1539974,2.9829407,-4.912902,-13.144167,0.4213795
0.34519255,4.8183093,0.85357845,0.1539974,2.9829407,-4.912902,-13.144167,0.4213795
0.34844777,4.8191867,0.9302775,0.1987385,3.2311473,-4.8362875,-12.904747,0.272939
0.3516858,4.8200617,0.9302775,0.1987385,3.2311473,-4.8362875,-12.904747,0.272939
0.35518828,4.821015,1.004846,0.23389223,3.4697666,-4.8123455,-12.603078,0.25378537
0.3586653,4.821964,1.004846,0.23389223,3.4697666,-4.8123455,-12.603078,0.25378537
0.3624259,4.822999,1.0740882,0.26052386,3.6945374,-4.7644615,-12.378023,0.19153613
0.36609307,4.824011,1.0740882,0.26052386,3.6945374,-4.7644615,-12.378023,0.19153613
0.36998427,4.8250895,1.1369388,0.2828944,3.9107862,-4.807557,-12.176909,0.18674773
0.37392986,4.826186,1.1369388,0.2828944,3.9107862,-4.807557,-12.176909,0.18674773
0.37805665,4.8273377,1.1944631,0.2978081,4.116382,-4.8458643,-11.899182,0.18195933
0.38218278,4.8284926,1.1944631,0.2978081,4.116382,-4.8458643,-11.899182,0.18195933
0.38651755,4.829715,1.2509221,0.3073955,4.3145213,-4.8745947,-11.693281,-0.033518825
0.39084813,4.830939,1.2509221,0.3073955,4.3145213,-4.8745947,-11.693281,-0.033518825
0.39538097,4.832232,1.3063159,0.30846074,4.506269,-4.912902,-11.310209,-0.24420857
0.3999145,4.8335295,1.3063159,0.30846074,4.506269,-4.912902,-11.310209,-0.24420857
0.40461704,4.8349037,1.3617096,0.3010039,4.69056,-4.4963107,-11.468226,-0.22505496
0.40925962,4.8362665,1.3617096,0.3010039,4.69056,-4.4963107,-11.468226,-0.22505496
0.41412625,4.837725,1.4256254,0.28395966,4.8705893,-4.2521024,-10.67814,-0.5554548
0.4189702,4.8391833,1.4256254,0.28395966,4.8705893,-4.2521024,-10.67814,-0.5554548
0.42397314,4.8407316,1.4916719,0.26371965,5.042097,-3.940856,-10.199299,-0.59376204
0.42899805,4.8422933,1.4916719,0.26371965,5.042097,-3.940856,-10.199299,-0.59376204
0.43409988,4.843934,1.552392,0.23921856,5.2008214,-3.2561142,-9.945514,-0.50278234
0.43928108,4.8456087,1.552392,0.23921856,5.2008214,-3.2561142,-9.945514,-0.50278234
0.44447815,4.8473573,1.6056552,0.21045642,5.335045,-2.4037786,-9.380483,-0.21547815
0.4496942,4.8491206,1.6056552,0.21045642,5.335045,-2.4037786,-9.380483,-0.21547815
0.45495296,4.8509746,1.6440047,0.19021639,5.4287877,-1.5514427,-9.093178,0.2681506
0.46025273,4.852852,1.6440047,0.19021639,5.4287877,-1.5514427,-9.093178,0.2681506
0.465556,4.8547974,1.66531,0.18062901,5.465007,-0.5602432,-8.6813755,0.8619126
0.47083688,4.8567443,1.66531,0.18062901,5.465007,-0.5602432,-8.6813755,0.8619126
0.4760959,4.8587246,1.6706363,0.18169427,5.4394407,0.10055647,-8.106767,1.292869
0.48138008,4.8607244,1.6706363,0.18169427,5.4394407,0.10055647,-8.106767,1.292869
0.48657542,4.862715,1.6567879,0.19980377,5.352089,0.49799395,-7.599196,1.6759412
0.49175924,4.8647103,1.6567879,0.19980377,5.352089,0.49799395,-7.599196,1.6759412
0.49683174,4.8666697,1.6237646,0.23282696,5.2050824,0.7374141,-6.9240313,1.8004397
0.5018726,4.8686256,1.6237646,0.23282696,5.2050824,0.7374141,-6.9240313,1.8004397
0.5067586,4.870514,1.5736972,0.27543753,5.0154653,0.6512229,-6.253655,1.7286136
0.5116335,4.872406,1.5736972,0.27543753,5.0154653,0.6512229,-6.253655,1.7286136
0.51629776,4.874197,1.5065856,0.3223092,4.7896295,0.56982,-5.717354,1.6424223
0.5209424,4.875988,1.5065856,0.3223092,4.7896295,0.56982,-5.717354,1.6424223
0.5253718,4.8776665,1.4256254,0.36918083,4.5371614,0.29209262,-5.2720323,1.508347
0.5297872,4.8793464,1.4256254,0.36918083,4.5371614,0.29209262,-5.2720323,1.508347
0.53392434,4.880877,1.3340127,0.41498718,4.264454,0.076614454,-4.8219223,1.2354081
0.5380857,4.8824224,1.3340127,0.41498718,4.264454,0.076614454,-4.8219223,1.2354081
0.541945,4.8838067,1.2360084,0.4597283,3.9778976,-0.1436521,-4.879383,1.1540052
0.54582703,4.8852034,1.2360084,0.4597283,3.9778976,-0.1436521,-4.879383,1.1540052
0.5494031,4.886433,1.1390693,0.5002083,3.681754,-0.39264908,-4.31914,0.81402856
0.55298245,4.8876667,1.1390693,0.5002083,3.681754,-0.39264908,-4.31914,0.81402856
0.55626035,4.8887334,1.0431955,0.5364273,3.3802843,-0.7134721,-3.9312792,0.56982
0.55955154,4.8898063,1.0431955,0.5364273,3.3802843,-0.7134721,-3.9312792,0.56982
0.56256664,4.8907413,0.9409301,0.5641242,3.0745535,-0.94331545,-3.667917,0.60333884
0.5655311,4.8916616,0.9409301,0.5641242,3.0745535,-0.94331545,-3.667917,0.60333884
0.5682167,4.8924456,0.8322732,0.58436424,2.7603004,-1.3838485,-3.3135753,0.61291564
0.5709102,4.8932323,0.8322732,0.58436424,2.7603004,-1.3838485,-3.3135753,0.61291564
0.5733162,4.893936,0.7182899,0.5928863,2.43646,-1.70946,-3.016694,0.7182605
0.57572246,4.894639,0.7182899,0.5928863,2.43646,-1.70946,-3.016694,0.7182605
0.5779628,4.895211,0.59684974,0.58756006,2.098771,-2.207454,-2.8634653,0.81881696
0.580204,4.8957844,0.59684974,0.58756006,2.098771,-2.207454,-2.8634653,0.81881696
0.58214074,4.8961687,0.46795273,0.56838524,1.751495,-2.633622,-2.7006595,0.8714894
0.58407545,4.8965526,0.46795273,0.56838524,1.751495,-2.633622,-2.7006595,0.8714894
0.5856692,4.896775,0.33585995,0.53003573,1.3988924,-2.9735985,-2.7581203,0.90021986
0.58726,4.896996,0.33585995,0.53003573,1.3988924,-2.9735985,-2.7581203,0.90021986
0.5884989,4.8970594,0.20163663,0.4778378,1.0462899,-3.3662477,-2.7964275,0.89543146
0.58975387,4.8971243,0.20163663,0.4778378,1.0462899,-3.3662477,-2.7964275,0.89543146
0.5906457,4.8970375,0.06847856,0.41179138,0.6968832,-3.7062242,-2.8921957,0.80924016
0.59154093,4.8969507,0.06847856,0.41179138,0.6968832,-3.7062242,-2.8921957,0.80924016
0.59222615,4.896678,-0.060418434,0.33402708,0.3549333,-4.146757,-3.098097,0.7757214
0.59305876,4.8958454,-0.18185858,0.24134909,0.024701312,-4.5394063,-3.2992098,0.7230489
0.59305876,4.8958454,-0.18185858,0.24134909,0.024701312,-4.5394063,-3.2992098,0.7230489
0.59305876,4.8958454,-0.18185858,0.24134909,0.024701312,-4.5394063,-3.2992098,0.7230489
0.59305876,4.8958454,-0.18185858,0.24134909,0.024701312,-4.5394063,-3.2992098,0.7230489
0.59305876,4.8958454,-0.18185858,0.24134909,0.024701312,-4.5394063,-3.2992098,0.7230489
0.5924426,4.8942575,-0.4002378,0.0251004,-0.59102154,-5.1810527,-3.787627,0.60812724
0.59232724,4.894127,-0.4002378,0.0251004,-0.59102154,-5.1810527,-3.787627,0.60812724
0.59153277,4.8935266,-0.49504632,-0.09420922,-0.8701208,-5.3342814,-4.10845,0.5554548
0.5899993,4.8923707,-0.49504632,-0.09420922,-0.8701208,-5.3342814,-4.10845,0.5554548
0.58975637,4.892229,-0.578137,-0.21671464,-1.1300454,-5.631162,-4.4340615,0.5315128
0.5891471,4.891873,-0.578137,-0.21671464,-1.1300454,-5.631162,-4.4340615,0.5315128
0.5878778,4.8912563,-0.6527055,-0.3381548,-1.3675994,-5.78918,-4.7740383,0.56982
0.5866176,4.890645,-0.6527055,-0.3381548,-1.3675994,-5.78918,-4.7740383,0.56982
0.58511573,4.89001,-0.71662134,-0.45639914,-1.5859785,-5.913678,-5.142745,0.50757074
0.5836232,4.8893795,-0.71662134,-0.45639914,-1.5859785,-5.913678,-5.142745,0.50757074
0.58189684,4.888727,-0.7720151,-0.56931716,-1.785183,-5.923255,-5.544971,0.46926352
0.5801434,4.8880653,-0.7720151,-0.56931716,-1.785183,-5.923255,-5.544971,0.46926352
0.5782219,4.887404,-0.819952,-0.67477834,-1.966278,-5.793968,-5.8466406,0.4261679
0.57630324,4.8867435,-0.819952,-0.67477834,-1.966278,-5.793968,-5.8466406,0.4261679
0.574184,4.8860598,-0.86362785,-0.7717174,-2.1303287,-5.616797,-6.1866174,0.2825158
0.5720616,4.8853755,-0.86362785,-0.7717174,-2.1303287,-5.616797,-6.1866174,0.2825158
0.56977606,4.884681,-0.9030426,-0.85480803,-2.2752047,-5.4300494,-6.517017,0.40701428
0.5674898,4.883987,-0.9030426,-0.85480803,-2.2752047,-5.4300494,-6.517017,0.40701428
0.5650518,4.883272,-0.9392616,-0.92298496,-2.3987753,-5.281609,-7.0006456,0.5363012
0.5626161,4.882558,-0.9392616,-0.92298496,-2.3987753,-5.281609,-7.0006456,0.5363012
0.5600373,4.8818235,-0.9701543,-0.97944397,-2.510628,-5.0900726,-7.359776,0.7182605
0.55746245,4.8810897,-0.9701543,-0.97944397,-2.510628,-5.0900726,-7.359776,0.7182605
0.554726,4.880332,-0.99252486,-1.0231198,-2.6096976,-5.023035,-7.747637,0.81881696
0.552052,4.87959,-0.99252486,-1.0231198,-2.6096976,-5.023035,-7.747637,0.81881696
0.5492085,4.878827,-1.0085038,-1.0550778,-2.6959841,-4.912902,-8.00621,0.94331545
0.5463835,4.878067,-1.0085038,-1.0550778,-2.6959841,-4.912902,-8.00621,0.94331545
0.5433972,4.8772974,-1.0191565,-1.076383,-2.7737484,-4.711789,-8.2169,0.89064306
0.5404426,4.8765326,-1.0191565,-1.076383,-2.7737484,-4.711789,-8.2169,0.89064306
0.53737146,4.875774,-1.0276786,-1.0881009,-2.8429906,-4.6016555,-8.394072,1.0151415
0.53431356,4.8750143,-1.0276786,-1.0881009,-2.8429906,-4.6016555,-8.394072,1.0151415
0.53113914,4.8742523,-1.0362006,-1.0891662,-2.9037106,-4.4484267,-8.5473,1.0630256
0.5279796,4.873491,-1.0362006,-1.0891662,-2.9037106,-4.4484267,-8.5473,1.0630256
0.5247708,4.8727264,-1.0436575,-1.0817094,-2.9569738,-4.285621,-8.743625,1.0630256
0.5215635,4.8719597,-1.0436575,-1.0817094,-2.9569738,-4.285621,-8.743625,1.0630256
0.5183159,4.8711815,-1.0511143,-1.0657305,-3.0049107,-4.223372,-9.006987,1.0869676
0.51504344,4.870395,-1.0511143,-1.0657305,-3.0049107,-4.223372,-9.006987,1.0869676
0.51175016,4.869583,-1.0585712,-1.0422946,-3.0453908,-4.084508,-9.251195,1.0007763
0.5084743,4.868774,-1.0585712,-1.0422946,-3.0453908,-4.084508,-9.251195,1.0007763
0.5051263,4.867936,-1.0660281,-1.0145977,-3.0816097,-4.0222588,-9.476251,1.0390835
0.50180244,4.8671026,-1.0660281,-1.0145977,-3.0816097,-4.0222588,-9.476251,1.0390835
0.498451,4.8662376,-1.0713544,-0.98370504,-3.114633,-3.9025488,-9.744401,0.93373865
0.49510044,4.865371,-1.0713544,-0.98370504,-3.114633,-3.9025488,-9.744401,0.93373865
0.4917282,4.864484,-1.0734849,-0.95068187,-3.1412647,-3.8977604,-9.940725,0.93852705
0.4883536,4.8635945,-1.0734849,-0.95068187,-3.1412647,-3.8977604,-9.940725,0.93852705
0.4849707,4.862691,-1.0734849,-0.9187239,-3.1636353,-3.8546648,-10.170568,0.94331545
0.48157507,4.8617835,-1.0734849,-0.9187239,-3.1636353,-3.8546648,-10.170568,0.94331545
0.47817793,4.860867,-1.0681586,-0.89102703,-3.1806793,-3.8355112,-10.295067,0.92416185
0.4747815,4.85995,-1.0681586,-0.89102703,-3.1806793,-3.8355112,-10.295067,0.92416185
0.47137976,4.8590164,-1.0596365,-0.86652595,-3.191332,-3.9217024,-10.443508,0.81881696
0.4679827,4.858083,-1.0596365,-0.86652595,-3.191332,-3.9217024,-10.443508,0.81881696
0.4645869,4.857148,-1.0500491,-0.8441554,-3.1934626,-3.9600096,-10.563218,0.8379706
0.46118912,4.8562117,-1.0500491,-0.8441554,-3.1934626,-3.9600096,-10.563218,0.8379706
0.45780888,4.8552823,-1.0351354,-0.8260459,-3.187071,-3.9935284,-10.572795,0.842759
0.45442322,4.8543506,-1.0351354,-0.8260459,-3.187071,-3.9935284,-10.572795,0.842759
0.45105624,4.853426,-1.0191565,-0.814328,-3.1742878,-4.0318356,-10.668563,0.80924016
0.44770414,4.8525047,-1.0191565,-0.814328,-3.1742878,-4.0318356,-10.668563,0.80924016
0.4443638,4.8515873,-1.0042428,-0.8068711,-3.1519172,-4.0892963,-10.759542,0.78050977
0.44104528,4.850675,-1.0042428,-0.8068711,-3.1519172,-4.0892963,-10.759542,0.78050977
0.43773946,4.8497753,-0.98506796,-0.8068711,-3.123155,-4.027047,-10.788273,0.6991069
0.4344322,4.8488736,-0.98506796,-0.8068711,-3.123155,-4.027047,-10.788273,0.6991069
0.43118027,4.8480024,-0.96269745,-0.81219745,-3.085871,-3.9217024,-10.817003,0.59855044
0.42792052,4.847127,-0.96269745,-0.81219745,-3.085871,-3.9217024,-10.817003,0.59855044
0.4246964,4.846288,-0.9413921,-0.81858903,-3.0432603,-3.6727054,-10.793061,0.63206923
0.42146736,4.845447,-0.9413921,-0.81858903,-3.0432603,-3.6727054,-10.793061,0.63206923
0.41827437,4.844644,-0.92221737,-0.8292417,-2.9995844,-3.371036,-10.85531,0.6655881
0.41507614,4.8438387,-0.92221737,-0.8292417,-2.9995844,-3.371036,-10.85531,0.6655881
0.41190895,4.843075,-0.9051731,-0.84202486,-2.9601698,-2.9017725,-10.778696,0.7278373
0.40875182,4.8423123,-0.9051731,-0.84202486,-2.9601698,-2.9017725,-10.778696,0.7278373
0.40559533,4.84158,-0.8891942,-0.8526775,-2.925016,-2.3558946,-10.840945,0.79008657
0.40245178,4.84085,-0.8891942,-0.8526775,-2.925016,-2.3558946,-10.840945,0.79008657
0.39934033,4.840152,-0.876411,-0.8590691,-2.9005148,-1.7860745,-10.788273,0.89543146
0.39620432,4.8394475,-0.876411,-0.8590691,-2.9005148,-1.7860745,-10.788273,0.89543146
0.3931045,4.8387747,-0.8646931,-0.86013436,-2.8909276,-1.2162545,-10.658986,1.0726024
0.38998944,4.8380985,-0.8646931,-0.86013436,-2.8909276,-1.2162545,-10.658986,1.0726024
0.38687435,4.837427,-0.8583015,-0.85480803,-2.8983843,-0.7422025,-10.673351,1.0582372
0.38374394,4.8367524,-0.8583015,-0.85480803,-2.8983843,-0.7422025,-10.673351,1.0582372
0.38060656,4.836084,-0.856171,-0.8430901,-2.920755,-0.40222588,-10.577583,1.2210429
0.37746006,4.8354125,-0.856171,-0.8430901,-2.920755,-0.40222588,-10.577583,1.2210429
0.3742516,4.83473,-0.85404044,-0.8292417,-2.9569738,0.01436521,-10.5919485,1.2258313
0.37110034,4.834059,-0.85404044,-0.8292417,-2.9569738,0.01436521,-10.5919485,1.2258313
0.36788234,4.833373,-0.8551057,-0.81219745,-3.0049107,0.49799395,-10.5440645,1.2210429
0.36468077,4.83269,-0.8551057,-0.81219745,-3.0049107,0.49799395,-10.5440645,1.2210429
0.36140236,4.831994,-0.8551057,-0.79195744,-3.0635004,0.9864111,-10.529699,1.3215994
0.35813743,4.8313007,-0.8551057,-0.79195744,-3.0635004,0.9864111,-10.529699,1.3215994
0.3547943,4.830592,-0.856171,-0.76532584,-3.1370037,1.6519991,-10.386047,1.3503298
0.35145476,4.829883,-0.856171,-0.76532584,-3.1370037,1.6519991,-10.386047,1.3503298
0.34804496,4.8291616,-0.8593668,-0.73123735,-3.235008,2.3463178,-10.218452,1.4748282
0.34460455,4.828433,-0.8593668,-0.73123735,-3.235008,2.3463178,-10.218452,1.4748282
0.3410703,4.827684,-0.86575836,-0.68862677,-3.3575134,2.9735985,-10.093954,1.5610195
0.3375151,4.82693,-0.86575836,-0.68862677,-3.3575134,2.9735985,-10.093954,1.5610195
0.33382523,4.8261414,-0.8796068,-0.63642883,-3.5077157,3.442862,-9.89763,1.6376339
0.33014312,4.8253536,-0.8796068,-0.63642883,-3.5077157,3.442862,-9.89763,1.6376339
0.32629153,4.8245196,-0.9009121,-0.576774,-3.68668,3.8881836,-9.710882,1.6903064
0.32242465,4.8236823,-0.9009121,-0.576774,-3.68668,3.8881836,-9.710882,1.6903064
0.31837413,4.822787,-0.93500054,-0.5171192,-3.8944066,4.2281604,-9.682152,1.6759412
0.3143155,4.821891,-0.93500054,-0.5171192,-3.8944066,4.2281604,-9.682152,1.6759412
0.31004417,4.820927,-0.9754806,-0.45639914,-4.1276994,4.6782703,-9.548077,1.541866
0.30575138,4.8199606,-0.9754806,-0.45639914,-4.1276994,4.6782703,-9.548077,1.541866
0.30122286,4.8189197,-1.0244827,-0.3967443,-4.3876243,4.8458643,-9.605537,1.3742718
0.29670328,4.817883,-1.0244827,-0.3967443,-4.3876243,4.8458643,-9.605537,1.3742718
0.29189083,4.8167605,-1.077746,-0.3370895,-4.6592665,4.721366,-9.643845,1.2880806
0.28710687,4.815647,-1.077746,-0.3370895,-4.6592665,4.721366,-9.643845,1.2880806
0.28193513,4.814432,-1.1310092,-0.28702208,-4.9415617,4.5441947,-9.572019,1.1492168
0.27692553,4.813258,-1.1310092,-0.28702208,-4.9415617,4.5441947,-9.572019,1.1492168
0.27136627,4.8119555,-1.1810766,-0.25080308,-5.2355747,4.2904096,-9.572019,1.0151415
0.26610702,4.8107266,-1.1810766,-0.25080308,-5.2355747,4.2904096,-9.572019,1.0151415
0.2604421,4.8094115,-1.2300788,-0.2294978,-5.530653,4.098873,-9.476251,0.93373865
0.25492397,4.8081346,-1.2300788,-0.2294978,-5.530653,4.098873,-9.476251,0.93373865
0.24894825,4.8067703,-1.2737546,-0.22204095,-5.8299923,3.9743748,-9.351752,0.8810662
0.24301383,4.805421,-1.2737546,-0.22204095,-5.8299923,3.9743748,-9.351752,0.8810662
0.23678009,4.804022,-1.3174305,-0.22523674,-6.1293316,3.5673606,-9.260772,0.7134721
0.23052077,4.8026223,-1.3174305,-0.22523674,-6.1293316,3.5673606,-9.260772,0.7134721
0.22396514,4.8011723,-1.3632369,-0.23482412,-6.42441,3.2944214,-8.968679,0.5267244
0.2174089,4.799728,-1.3632369,-0.23482412,-6.42441,3.2944214,-8.968679,0.5267244
0.21050493,4.7982154,-1.4143696,-0.25186837,-6.715227,2.9640217,-8.7292595,0.2681506
0.20354569,4.7966957,-1.4143696,-0.25186837,-6.715227,2.9640217,-8.7292595,0.2681506
0.19649293,4.7951503,-1.4761549,-0.27104312,-7.002848,2.60968,-8.580819,-0.019153614
0.18937525,4.793596,-1.4761549,-0.27104312,-7.002848,2.60968,-8.580819,-0.019153614
0.1819565,4.791949,-1.5507234,-0.28915262,-7.2851434,2.0446482,-8.437167,-0.37828386
0.17451508,4.7903013,-1.5507234,-0.28915262,-7.2851434,2.0446482,-8.437167,-0.37828386
0.16685753,4.7885685,-1.6359446,-0.30726212,-7.5621123,1.5514427,-8.379706,-0.6703765
0.15916903,4.786833,-1.6359446,-0.30726212,-7.5621123,1.5514427,-8.379706,-0.6703765
0.15122475,4.7849855,-1.733949,-0.32750213,-7.8337545,1.0726024,-8.456321,-0.9911995
0.14325713,4.783137,-1.733949,-0.32750213,-7.8337545,1.0726024,-8.456321,-0.9911995
0.13507651,4.781173,-1.8436711,-0.34987268,-8.09581,0.39743748,-8.6095495,-1.1731589
0.12690578,4.779215,-1.8436711,-0.34987268,-8.09581,0.39743748,-8.6095495,-1.1731589
0.118508846,4.777139,-1.9576545,-0.37543905,-8.345081,-0.05267244,-8.896853,-1.3311762
0.110097714,4.7750626,-1.9576545,-0.37543905,-8.345081,-0.05267244,-8.896853,-1.3311762
0.10148715,4.7728744,-2.075899,-0.41059276,-8.57731,-0.37349546,-9.3421755,-1.3838485
0.09287135,4.770686,-2.075899,-0.41059276,-8.57731,-0.37349546,-9.3421755,-1.3838485
0.084064126,4.768387,-2.1909473,-0.45320335,-8.791428,-0.82360536,-9.902418,-1.4077905
0.07526139,4.7660894,-2.1909473,-0.45320335,-8.791428,-0.82360536,-9.902418,-1.4077905
0.066264935,4.7636905,-2.297474,-0.5085971,-8.988502,-0.8810662,-10.28549,-1.4317327
0.057273444,4.7612934,-2.297474,-0.5085971,-8.988502,-0.8810662,-10.28549,-1.4317327
0.048088945,4.7588015,-2.3965435,-0.5799698,-9.172792,-0.6991069,-10.745177,-1.2593501
0.03891069,4.7563095,-2.3965435,-0.5799698,-9.172792,-0.6991069,-10.745177,-1.2593501
0.029536806,4.7537317,-2.4870908,-0.66625625,-9.353887,-0.2825158,-11.200075,-1.0534488
0.02015179,4.7511473,-2.4870908,-0.66625625,-9.353887,-0.2825158,-11.200075,-1.0534488
0.010584683,4.7484875,-2.5680509,-0.75573844,-9.536047,0.0047884034,-11.664551,-0.78050977
0.0010083187,4.745818,-2.5680509,-0.75573844,-9.536047,0.0047884034,-11.664551,-0.78050977
6.2744718,4.7430754,-2.6426194,-0.8409596,-9.715012,-0.05267244,-12.119449,-0.46926352
6.264736,4.74032,-2.6426194,-0.8409596,-9.715012,-0.05267244,-12.119449,-0.46926352
6.2548823,4.737506,-2.7065353,-0.9283113,-9.887585,-0.08140286,-12.512098,-0.31603462
6.245019,4.73468,-2.7065353,-0.9283113,-9.887585,-0.08140286,-12.512098,-0.31603462
6.245019,4.73468,-2.7065353,-0.9283113,-9.887585,-0.08140286,-12.512098,-0.31603462
6.245019,4.73468,-2.7065353,-0.9283113,-9.887585,-0.08140286,-12.512098,-0.31603462
6.2071166,4.723792,-2.7981482,-1.1157979,-10.186924,-0.33518824,-13.067553,-0.0047884034
6.204531,4.7230487,-2.7981482,-1.1157979,-10.186924,-0.33518824,-13.067553,-0.0047884034
6.1940207,4.7200394,-2.825845,-1.2159327,-10.303038,-0.33997664,-13.445837,0.21068975
6.1831164,4.7169027,-2.825845,-1.2159327,-10.303038,-0.33997664,-13.445837,0.21068975
6.1738086,4.7142224,-2.8396933,-1.3224591,-10.393585,-0.4261679,-13.76666,0.32561144
6.163888,4.7113504,-2.8396933,-1.3224591,-10.393585,-0.4261679,-13.76666,0.32561144
6.1535773,4.7083635,-2.8407586,-1.4375077,-10.464958,-0.5793968,-14.030022,0.51714754
6.14325,4.705352,-2.8407586,-1.4375077,-10.464958,-0.5793968,-14.030022,0.51714754
6.1328607,4.7023244,-2.825845,-1.5610784,-10.515025,-0.047884032,-14.288596,0.60812724
6.122497,4.6992807,-2.825845,-1.5610784,-10.515025,-0.047884032,-14.288596,0.60812724
6.1120996,4.696231,-2.7981482,-1.6921059,-10.5459175,0.12449849,-14.662091,0.8714894
6.1016874,4.6931486,-2.7981482,-1.6921059,-10.5459175,0.12449849,-14.662091,0.8714894
6.091211,4.690064,-2.7608638,-1.8305902,-10.559767,1.3024458,-14.738706,0.93373865
6.0807757,4.6869583,-2.7608638,-1.8305902,-10.559767,1.3024458,-14.738706,0.93373865
6.0703387,4.683868,-2.7076006,-1.9616178,-10.566158,1.9776106,-15.136143,1.1109096
6.0599246,4.680747,-2.7076006,-1.9616178,-10.566158,1.9776106,-15.136143,1.1109096
6.049497,4.6776266,-2.64475,-2.0819926,-10.576811,2.2936451,-15.701175,1.1300632
6.039071,4.674466,-2.64475,-2.0819926,-10.576811,2.2936451,-15.701175,1.1300632
6.0286145,4.6713076,-2.569116,-2.195976,-10.588529,2.3750482,-16.156073,1.2880806
6.018212,4.6681213,-2.569116,-2.195976,-10.588529,2.3750482,-16.156073,1.2880806
6.0078287,4.664959,-2.4785688,-2.3142204,-10.590659,2.408567,-16.601395,1.5849615
5.997426,4.6617436,-2.4785688,-2.3142204,-10.590659,2.408567,-16.601395,1.5849615
5.98708,4.6585593,-2.3731077,-2.4463131,-10.571485,2.4229321,-16.883911,1.7429788
5.976735,4.6553264,-2.3731077,-2.4463131,-10.571485,2.4229321,-16.883911,1.7429788
5.966465,4.6521215,-2.2506022,-2.590124,-10.522482,2.1978772,-17.013197,1.70946
5.9561963,4.6488647,-2.2506022,-2.590124,-10.522482,2.1978772,-17.013197,1.70946
5.9460545,4.645646,-2.117444,-2.7445872,-10.439391,2.0159178,-17.113754,1.7860745
5.9359045,4.6423697,-2.117444,-2.7445872,-10.439391,2.0159178,-17.113754,1.7860745
5.9259186,4.6391273,-1.9746987,-2.9075727,-10.31369,1.7286136,-17.128119,1.70946
5.915945,4.6358304,-1.9746987,-2.9075727,-10.31369,1.7286136,-17.128119,1.70946
5.9061713,4.6325755,-1.8234311,-3.0716233,-10.146443,1.6328455,-17.027563,1.8962077
5.8964205,4.629267,-1.8234311,-3.0716233,-10.146443,1.6328455,-17.027563,1.8962077
5.886619,4.6259093,-1.6636415,-3.2303479,-9.941913,1.508347,-16.965313,2.231396
5.8773756,4.6226807,-1.6636415,-3.2303479,-9.941913,1.508347,-16.965313,2.231396
5.8681054,4.6193953,-1.4985255,-3.3773544,-9.694772,1.4173675,-16.457743,1.8674773
5.85885,4.616048,-1.4985255,-3.3773544,-9.694772,1.4173675,-16.457743,1.8674773
5.8499537,4.612769,-1.3323442,-3.5126429,-9.414607,1.6328455,-15.667656,1.2066777
5.841045,4.609419,-1.3323442,-3.5126429,-9.414607,1.6328455,-15.667656,1.2066777
5.832481,4.6061172,-1.174685,-3.6362135,-9.112072,1.9153614,-14.987702,0.61291564
5.823915,4.6027474,-1.174685,-3.6362135,-9.112072,1.9153614,-14.987702,0.61291564
5.8157167,4.5994267,-1.0319396,-3.7448704,-8.790362,2.4899697,-14.269443,0.20590134
5.8075256,4.5960407,-1.0319396,-3.7448704,-8.790362,2.4899697,-14.269443,0.20590134
5.799687,4.592702,-0.9051731,-3.831157,-8.456934,3.1268275,-13.833697,0.19153613
5.7918644,4.5893006,-0.9051731,-3.831157,-8.456934,3.1268275,-13.833697,0.19153613
5.7843995,4.585946,-0.79118985,-3.8897464,-8.119246,3.4237084,-13.498509,0.11971009
5.7769504,4.58253,-0.79118985,-3.8897464,-8.119246,3.4237084,-13.498509,0.11971009
5.7698765,4.579156,-0.6867939,-3.9195738,-7.7741,3.9504328,-12.674904,-0.56982
5.7628193,4.575722,-0.6867939,-3.9195738,-7.7741,3.9504328,-12.674904,-0.56982
5.7560506,4.572317,-0.59092015,-3.9259655,-7.423628,4.3478703,-12.459426,-0.63206923
5.7493057,4.5688567,-0.59092015,-3.9259655,-7.423628,4.3478703,-12.459426,-0.63206923
5.743083,4.5655603,-0.5014379,-3.9099865,-7.068895,4.8219223,-12.368446,-0.6751649
5.736763,4.562149,-0.5014379,-3.9099865,-7.068895,4.8219223,-12.368446,-0.6751649
5.7308373,4.5588493,-0.4119557,-3.868441,-6.7109656,5.070919,-12.215217,-0.78529817
5.7249103,4.5554876,-0.4119557,-3.868441,-6.7109656,5.070919,-12.215217,-0.78529817
5.719358,4.552254,-0.31821242,-3.8002644,-6.349841,5.2624555,-11.774684,-0.92895025
5.713815,4.5489683,-0.31821242,-3.8002644,-6.349841,5.2624555,-11.774684,-0.92895025
5.708625,4.5458345,-0.22446916,-3.706521,-5.986586,5.60722,-11.343728,-1.0103531
5.7034497,4.5426555,-0.22446916,-3.706521,-5.986586,5.60722,-11.343728,-1.0103531
5.6980915,4.539281,-0.13498695,-3.5850809,-5.623331,5.6790466,-10.5680065,-1.3215994
5.693784,4.5365243,-0.13498695,-3.5850809,-5.623331,5.6790466,-10.5680065,-1.3215994
5.6892614,4.5335965,-0.057222642,-3.437009,-5.261141,5.793968,-10.16578,-1.364695
5.684871,4.53071,-0.057222642,-3.437009,-5.261141,5.793968,-10.16578,-1.364695
5.6808186,4.5280046,0.010954284,-3.2697625,-4.907473,5.923255,-9.610326,-1.5275006
5.676727,4.525235,0.010954284,-3.2697625,-4.907473,5.923255,-9.610326,-1.5275006
5.6729727,4.522633,0.06847856,-3.082276,-4.565523,5.765238,-9.059659,-1.6424223
5.6692243,4.5200057,0.06847856,-3.082276,-4.565523,5.765238,-9.059659,-1.6424223
5.6657124,4.517459,0.11748073,-2.8777452,-4.2342257,5.7604494,-8.504205,-1.9393034
5.662202,4.514881,0.11748073,-2.8777452,-4.2342257,5.7604494,-8.504205,-1.9393034
5.658864,4.5124865,0.15369973,-2.662562,-3.9189076,5.9807158,-7.8769236,-2.0590134
5.655527,4.5100584,0.15369973,-2.662562,-3.9189076,5.9807158,-7.8769236,-2.0590134
5.652413,4.5078526,0.17713554,-2.4367259,-3.6216989,6.114791,-7.3166804,-2.207454
5.649308,4.5056267,0.17713554,-2.4367259,-3.6216989,6.114791,-7.3166804,-2.207454
5.646387,4.503594,0.1845924,-2.2013023,-3.3468606,6.2392898,-6.83784,-2.2649148
5.6434736,4.501544,0.1845924,-2.2013023,-3.3468606,6.2392898,-6.83784,-2.2649148
5.6407785,4.499707,0.18033133,-1.9594873,-3.0933278,6.205771,-6.325481,-2.3223755
5.638089,4.4978557,0.18033133,-1.9594873,-3.0933278,6.205771,-6.325481,-2.3223755
5.635566,4.496177,0.16435237,-1.7198027,-2.8621655,6.081272,-5.9280434,-2.3702598
5.6330523,4.4944897,0.16435237,-1.7198027,-2.8621655,6.081272,-5.9280434,-2.3702598
5.630698,4.4929676,0.14091654,-1.4875752,-2.6501777,5.932832,-5.497087,-2.4756045
5.6283617,4.491444,0.14091654,-1.4875752,-2.6501777,5.932832,-5.497087,-2.4756045
5.626144,4.4900656,0.11321967,-1.2681307,-2.4605606,5.932832,-5.1523223,-2.5953147
5.6239486,4.4886904,0.11321967,-1.2681307,-2.4605606,5.932832,-5.1523223,-2.5953147
5.6218557,4.487447,0.07913121,-1.0604041,-2.2901185,5.90889,-4.7884035,-2.705448
5.6197844,4.486206,0.07913121,-1.0604041,-2.2901185,5.90889,-4.7884035,-2.705448
5.6177855,4.4850683,0.039716423,-0.8633302,-2.1377854,5.659893,-4.429273,-2.825158
5.615834,4.4839506,0.039716423,-0.8633302,-2.1377854,5.659893,-4.429273,-2.825158
5.613989,4.482956,-0.0028941538,-0.67477834,-1.998236,5.3486466,-4.1706996,-2.753332
5.612123,4.4819446,-0.0028941538,-0.67477834,-1.998236,5.3486466,-4.1706996,-2.753332
5.610341,4.4810414,-0.045504734,-0.49794444,-1.8714694,5.1235914,-3.9456444,-2.743755
5.6085567,4.480132,-0.045504734,-0.49794444,-1.8714694,5.1235914,-3.9456444,-2.743755
5.6068673,4.479329,-0.09024584,-0.33389372,-1.7574861,4.8745947,-3.6631286,-2.7581203
5.605169,4.478518,-0.09024584,-0.33389372,-1.7574861,4.8745947,-3.6631286,-2.7581203
5.60354,4.477793,-0.1360522,-0.18049563,-1.6466986,4.5777135,-3.3614593,-2.7341783
5.601918,4.477069,-0.1360522,-0.18049563,-1.6466986,4.5777135,-3.3614593,-2.7341783
5.6003714,4.4764256,-0.18185858,-0.03988073,-1.543368,4.285621,-3.1316159,-2.7006595
5.598823,4.475779,-0.18185858,-0.03988073,-1.543368,4.285621,-3.1316159,-2.7006595
5.597336,4.4752045,-0.2265997,0.085820474,-1.4474941,4.1132383,-2.8874073,-2.5905263
5.59585,4.474629,-0.2265997,0.085820474,-1.4474941,4.1132383,-2.8874073,-2.5905263
5.5944204,4.4741116,-0.2713408,0.19447745,-1.3612077,3.98874,-2.633622,-2.5187001
5.592986,4.4735913,-0.2713408,0.19447745,-1.3612077,3.98874,-2.633622,-2.5187001
5.591602,4.473118,-0.31501663,0.28715545,-1.285574,4.003105,-2.456451,-2.4899697
5.590215,4.4726434,-0.31501663,0.28715545,-1.285574,4.003105,-2.456451,-2.4899697
5.5888686,4.4721994,-0.35869247,0.36172396,-1.2216581,4.012682,-2.3511062,-2.408567
5.587521,4.4717546,-0.35869247,0.36172396,-1.2216581,4.012682,-2.3511062,-2.408567
5.58621,4.471321,-0.40449885,0.4171177,-1.1715907,4.027047,-2.3798366,-2.3558946
5.584902,4.4708877,-0.40449885,0.4171177,-1.1715907,4.027047,-2.3798366,-2.3558946
5.5836163,4.470441,-0.44923997,0.45120618,-1.1332412,4.0078936,-2.456451,-2.3511062
5.58234,4.4699965,-0.44923997,0.45120618,-1.1332412,4.0078936,-2.456451,-2.3511062
5.580946,4.4694724,-0.49185053,0.46398935,-1.1055443,4.027047,-2.6527755,-2.2888567
5.5798264,4.4690504,-0.49185053,0.46398935,-1.1055443,4.027047,-2.6527755,-2.2888567
5.578604,4.4685364,-0.53020006,0.45546725,-1.0821085,4.074931,-2.8634653,-2.3319526
5.5773864,4.4680243,-0.53020006,0.45546725,-1.0821085,4.074931,-2.8634653,-2.3319526
5.57619,4.4674606,-0.5600275,0.42563984,-1.0650642,4.1180267,-3.122039,-2.1978772
5.5749903,4.466895,-0.5600275,0.42563984,-1.0650642,4.1180267,-3.122039,-2.1978772
5.573821,4.4662666,-0.5855938,0.37983346,-1.0544115,4.1371803,-3.41892,-2.1691468
5.5726557,4.465639,-0.5855938,0.37983346,-1.0544115,4.1371803,-3.41892,-2.1691468
5.5715227,4.464941,-0.6047686,0.32017866,-1.043759,4.1946416,-3.7445314,-2.1691468
5.5703893,4.464242,-0.6047686,0.32017866,-1.043759,4.1946416,-3.7445314,-2.1691468
5.569296,4.4634748,-0.6164865,0.25200173,-1.0309758,4.247314,-4.0318356,-2.183512
5.5682054,4.462708,-0.6164865,0.25200173,-1.0309758,4.247314,-4.0318356,-2.183512
5.567162,4.4618783,-0.6218128,0.17849848,-1.0149968,4.271256,-4.271256,-2.1547816
5.5661197,4.461047,-0.6218128,0.17849848,-1.0149968,4.271256,-4.271256,-2.1547816
5.5651183,4.4601607,-0.6218128,0.1060605,-0.9968873,4.405331,-4.4819455,-2.15957
5.564112,4.459268,-0.6218128,0.1060605,-0.9968873,4.405331,-4.4819455,-2.15957
5.56316,4.458334,-0.6143559,0.038948838,-0.975582,4.4723687,-4.76925,-2.0638018
5.562208,4.457398,-0.6143559,0.038948838,-0.975582,4.4723687,-4.76925,-2.0638018
5.561323,4.456437,-0.59731174,-0.02496703,-0.9510809,4.3718123,-4.912902,-2.030283
5.5603952,4.4554276,-0.59731174,-0.02496703,-0.9510809,4.3718123,-4.912902,-2.030283
5.5596004,4.4544873,-0.5760064,-0.0856871,-0.9233841,4.414908,-5.0421886,-1.9680338
5.558769,4.4535007,-0.5760064,-0.0856871,-0.9233841,4.414908,-5.0421886,-1.9680338
5.5580144,4.4525146,-0.55257064,-0.14108086,-0.89036083,4.43885,-5.3247046,-1.958457
5.5572605,4.451526,-0.55257064,-0.14108086,-0.89036083,4.43885,-5.3247046,-1.958457
5.5565796,4.4505434,-0.52487373,-0.19327882,-0.8520113,4.486734,-5.554548,-1.8770541
5.5559034,4.449566,-0.52487373,-0.19327882,-0.8520113,4.486734,-5.554548,-1.8770541
5.5552983,4.448603,-0.49504632,-0.24121572,-0.806205,4.644751,-5.741296,-1.8100165
5.554695,4.4476414,-0.49504632,-0.24121572,-0.806205,4.644751,-5.741296,-1.8100165
5.55418,4.446735,-0.46415368,-0.28595683,-0.7518765,4.912902,-5.9759274,-1.6759412
5.5536637,4.445826,-0.46415368,-0.28595683,-0.7518765,4.912902,-5.9759274,-1.6759412
5.553216,4.445002,-0.43219572,-0.32643688,-0.69328696,5.2049947,-6.2009826,-1.5801731
5.552767,4.4441767,-0.43219572,-0.32643688,-0.69328696,5.2049947,-6.2009826,-1.5801731
5.5523887,4.4433713,-0.39810726,-0.36052534,-0.62937105,5.5258174,-6.4020953,-1.6663644
5.55201,4.442568,-0.39810726,-0.36052534,-0.62937105,5.5258174,-6.4020953,-1.6663644
5.5516915,4.441817,-0.3640188,-0.38715693,-0.5622594,5.803545,-6.5840545,-1.7046716
5.551372,4.4410663,-0.3640188,-0.38715693,-0.5622594,5.803545,-6.5840545,-1.7046716
5.5511236,4.44035,-0.32886508,-0.40526643,-0.49408248,6.090849,-6.727707,-1.8052281
5.5508738,4.439637,-0.32886508,-0.40526643,-0.49408248,6.090849,-6.727707,-1.8052281
5.550689,4.438982,-0.29371136,-0.41165802,-0.41951397,6.2967505,-6.8426285,-1.8722657
5.5504794,4.4382544,-0.29371136,-0.41165802,-0.41951397,6.2967505,-6.8426285,-1.8722657
5.550294,4.437747,-0.25749236,-0.40633172,-0.34068438,6.3781533,-6.8905125,-1.7908629
5.550294,4.437747,-0.25749236,-0.40633172,-0.34068438,6.3781533,-6.8905125,-1.7908629
5.5497766,4.4363647,-0.22127336,-0.391418,-0.2597243,6.6271505,-6.9383965,-1.9393034
5.5496335,4.4360547,-0.22127336,-0.391418,-0.2597243,6.6271505,-6.9383965,-1.9393034
5.5494313,4.435527,-0.18398911,-0.36798218,-0.1755684,6.847417,-6.991069,-1.9536686
5.5492363,4.4350185,-0.18398911,-0.36798218,-0.1755684,6.847417,-6.991069,-1.9536686
5.549106,4.4345813,-0.14350906,-0.33282846,-0.092477776,7.1347213,-6.943185,-1.8818425
5.5489836,4.4341693,-0.14350906,-0.33282846,-0.092477776,7.1347213,-6.943185,-1.8818425
5.548914,4.433829,-0.09983322,-0.28595683,-0.015778739,7.311892,-6.9048777,-1.8579005
5.548854,4.433531,-0.09983322,-0.28595683,-0.015778739,7.311892,-6.9048777,-1.8579005
5.548832,4.433245,-0.060418434,-0.22843254,0.05346345,7.431602,-6.8761473,-1.8770541
5.548832,4.433245,-0.060418434,-0.22843254,0.05346345,7.431602,-6.8761473,-1.8770541
5.548809,4.4328065,-0.022068914,-0.1634514,0.11311826,7.393295,-6.7851677,-1.9009962
5.5488214,4.4327273,-0.022068914,-0.1634514,0.11311826,7.393295,-6.7851677,-1.9009962
5.548916,4.43272,0.012019549,-0.09420922,0.16744675,7.264008,-6.7851677,-1.8531121
5.548933,4.432719,0.012019549,-0.09420922,0.16744675,7.264008,-6.7851677,-1.8531121
5.54904,4.4328446,0.040781688,-0.028162822,0.22070996,7.153875,-6.8426285,-1.8195933
5.549123,4.4329424,0.040781688,-0.028162822,0.22070996,7.153875,-6.8426285,-1.8195933
5.549265,4.433168,0.0674133,0.033622514,0.27610373,7.0006456,-6.9383965,-1.8243817
5.549407,4.4333944,0.0674133,0.033622514,0.27610373,7.0006456,-6.9383965,-1.8243817
5.549625,4.4337473,0.09404491,0.086885735,0.33149746,6.83784,-7.019799,-1.7717092
5.5498424,4.434101,0.09404491,0.086885735,0.33149746,6.83784,-7.019799,-1.7717092
5.550189,4.434577,0.119611256,0.13375737,0.3879565,6.612785,-7.1395097,-1.7764976
5.550519,4.435031,0.119611256,0.13375737,0.3879565,6.612785,-7.1395097,-1.7764976
5.550963,4.435565,0.14624287,0.17423743,0.4476113,6.4404025,-7.2113357,-1.7717092
5.551409,4.4361014,0.14624287,0.17423743,0.4476113,6.4404025,-7.2113357,-1.7717092
5.5519576,4.4366655,0.17393975,0.20619535,0.5115272,6.26802,-7.2592196,-1.8531121
5.552519,4.437241,0.17393975,0.20619535,0.5115272,6.26802,-7.2592196,-1.8531121
5.553136,4.437847,0.20163663,0.23602276,0.57757354,6.1626754,-7.28795,-1.8914193
5.553753,4.4384503,0.20163663,0.23602276,0.57757354,6.1626754,-7.28795,-1.8914193
5.5544376,4.439106,0.23146403,0.2615891,0.64361995,6.1004257,-7.249643,-1.9249382
5.5551243,4.4397607,0.23146403,0.2615891,0.64361995,6.1004257,-7.249643,-1.9249382
5.555875,4.4404645,0.2623567,0.28502494,0.7139274,6.019023,-7.2113357,-1.9488802
5.556626,4.4411654,0.2623567,0.28502494,0.7139274,6.019023,-7.2113357,-1.9488802
5.557432,4.441905,0.2921841,0.3073955,0.7821043,6.0285997,-7.1251445,-1.9776106
5.5582438,4.442645,0.2921841,0.3073955,0.7821043,6.0285997,-7.1251445,-1.9776106
5.559113,4.4434414,0.32094625,0.32657024,0.8470855,6.0046577,-7.019799,-1.9488802
5.559977,4.4442286,0.32094625,0.32657024,0.8470855,6.0046577,-7.019799,-1.9488802
5.5608745,4.4450135,0.34757784,0.34361446,0.90780556,6.0621185,-6.8665705,-1.9728222
5.561768,4.4457912,0.34757784,0.34361446,0.90780556,6.0621185,-6.8665705,-1.9728222
5.5626416,4.4465647,0.36994842,0.35852817,0.9653298,6.105214,-6.7372837,-2.030283
5.5635056,4.4473305,0.36994842,0.35852817,0.9653298,6.105214,-6.7372837,-2.030283
5.564354,4.4481335,0.3880579,0.37344187,1.0164626,6.0956373,-6.555324,-1.9871874
5.5652018,4.448937,0.3880579,0.37344187,1.0164626,6.0956373,-6.555324,-1.9871874
5.566072,4.4497643,0.40190634,0.38622504,1.0580078,6.1243677,-6.4499793,-2.1068976
5.5669475,4.450596,0.40190634,0.38622504,1.0580078,6.1243677,-6.4499793,-2.1068976
5.5678463,4.4514523,0.41149372,0.39581242,1.0931616,6.0956373,-6.277597,-2.1643584
5.568749,4.452311,0.41149372,0.39581242,1.0931616,6.0956373,-6.277597,-2.1643584
5.5696473,4.453189,0.41575477,0.40113875,1.1219237,6.2728086,-6.181829,-2.183512
5.5705495,4.4540687,0.41575477,0.40113875,1.1219237,6.2728086,-6.181829,-2.183512
5.5715218,4.454941,0.41895056,0.4032693,1.1410985,5.8226986,-6.0525417,-2.2936451
5.5724893,4.4558077,0.41895056,0.4032693,1.1410985,5.8226986,-6.0525417,-2.2936451
5.5734124,4.4567027,0.42214635,0.3968777,1.1517512,6.3542113,-6.042965,-2.183512
5.574333,4.457593,0.42214635,0.3968777,1.1517512,6.3542113,-6.042965,-2.183512
5.5752597,4.458466,0.4210811,0.3851598,1.1538817,6.3829417,-5.8562174,-2.2936451
5.5761886,4.4593387,0.4210811,0.3851598,1.1538817,6.3829417,-5.8562174,-2.2936451
5.577129,4.4601884,0.41575477,0.3755724,1.1538817,6.191406,-5.6359506,-2.3654714
5.5780697,4.461037,0.41575477,0.3755724,1.1538817,6.191406,-5.6359506,-2.3654714
5.5790153,4.461858,0.40510213,0.35959345,1.1453595,6.1100025,-5.66947,-2.360683
5.579958,4.462675,0.40510213,0.35959345,1.1453595,6.1100025,-5.66947,-2.360683
5.580872,4.4634686,0.39231896,0.33402708,1.1293806,6.1626754,-5.6359506,-2.1643584
5.5817866,4.46426,0.39231896,0.33402708,1.1293806,6.1626754,-5.6359506,-2.1643584
5.5826826,4.4650097,0.37740526,0.3010039,1.10701,6.3446345,-5.559336,-2.207454
5.583578,4.4657574,0.37740526,0.3010039,1.10701,6.3446345,-5.559336,-2.207454
5.584443,4.466464,0.36249155,0.26371965,1.0793132,6.6893997,-5.439626,-2.2218192
5.58531,4.4671702,0.36249155,0.26371965,1.0793132,6.6893997,-5.439626,-2.2218192
5.5861588,4.4678235,0.3465126,0.23069644,1.0505509,6.823475,-5.497087,-2.3127987
5.5870085,4.4684763,0.3465126,0.23069644,1.0505509,6.823475,-5.497087,-2.3127987
5.587835,4.4690785,0.32733783,0.2051301,1.0196583,6.813898,-5.449203,-2.3463178
5.5886664,4.4696836,0.32733783,0.2051301,1.0196583,6.813898,-5.449203,-2.3463178
5.589463,4.470235,0.30496728,0.18169427,0.9866351,6.9144545,-5.4539914,-2.3894134
5.5902643,4.4707875,0.30496728,0.18169427,0.9866351,6.9144545,-5.4539914,-2.3894134
5.591032,4.471288,0.27940091,0.1571932,0.9472203,7.015011,-5.363012,-2.4181437
5.5917997,4.4717884,0.27940091,0.1571932,0.9472203,7.015011,-5.363012,-2.4181437
5.592526,4.4722347,0.25063878,0.13162684,0.90247923,7.1251445,-5.33907,-2.3702598
5.593251,4.4726806,0.25063878,0.13162684,0.90247923,7.1251445,-5.33907,-2.3702598
5.5939302,4.473072,0.21974611,0.10712577,0.8524118,7.225701,-5.401319,-2.2984335
5.59461,4.4734635,0.21974611,0.10712577,0.8524118,7.225701,-5.401319,-2.2984335
5.5952435,4.473793,0.18672292,0.08155942,0.8002138,7.311892,-5.4300494,-2.2936451
5.595881,4.474124,0.18672292,0.08155942,0.8002138,7.311892,-5.4300494,-2.2936451
5.596459,4.4743943,0.15476498,0.057058334,0.7437548,7.345411,-5.5162406,-2.2170308
5.597041,4.4746656,0.15476498,0.057058334,0.7437548,7.345411,-5.5162406,-2.2170308
5.597579,4.4748755,0.12387232,0.031491987,0.6915569,7.465121,-5.6646814,-2.2601264
5.598117,4.475085,0.12387232,0.031491987,0.6915569,7.465121,-5.6646814,-2.2601264
5.598612,4.475233,0.09297965,0.0048603755,0.6404242,7.445967,-5.813122,-2.2457612
5.5991054,4.47538,0.09297965,0.0048603755,0.6404242,7.445967,-5.813122,-2.2457612
5.599561,4.4754696,0.0674133,-0.020705972,0.59355253,7.398083,-5.884948,-2.2649148
5.6000133,4.475559,0.0674133,-0.020705972,0.59355253,7.398083,-5.884948,-2.2649148
5.600437,4.475597,0.045042746,-0.047337584,0.55094194,7.493851,-5.9902925,-2.303222
5.6008587,4.4756346,0.045042746,-0.047337584,0.55094194,7.493851,-5.9902925,-2.303222
5.6012473,4.475627,0.023737457,-0.07396919,0.5136577,7.503428,-6.090849,-2.2505496
5.6016355,4.4756193,0.023737457,-0.07396919,0.5136577,7.503428,-6.090849,-2.2505496
5.601997,4.475576,0.0045626974,-0.09740501,0.48169976,7.52737,-6.2728086,-2.1643584
5.602357,4.4755325,0.0045626974,-0.09740501,0.48169976,7.52737,-6.2728086,-2.1643584
5.6026926,4.475455,-0.0114162695,-0.11444924,0.45187235,7.517793,-6.339846,-2.1499932
5.603027,4.4753776,-0.0114162695,-0.11444924,0.45187235,7.517793,-6.339846,-2.1499932
5.6033363,4.4752774,-0.027395237,-0.12829769,0.42417547,7.517793,-6.4164605,-2.0590134
5.6036434,4.475178,-0.027395237,-0.12829769,0.42417547,7.517793,-6.4164605,-2.0590134
5.60393,4.4750586,-0.04443947,-0.13788506,0.40180492,7.4268136,-6.579266,-1.958457
5.604217,4.4749403,-0.04443947,-0.13788506,0.40180492,7.4268136,-6.579266,-1.958457
5.604486,4.474808,-0.05935317,-0.14214613,0.38369542,7.5082164,-6.6893997,-1.910573
5.6047573,4.4746757,-0.05935317,-0.14214613,0.38369542,7.5082164,-6.6893997,-1.910573
5.60501,4.4745293,-0.07107108,-0.14321138,0.3666512,7.5704656,-6.775591,-1.9249382
5.6052623,4.4743824,-0.07107108,-0.14321138,0.3666512,7.5704656,-6.775591,-1.9249382
5.605499,4.4742374,-0.08065846,-0.1368198,0.3517375,7.5800424,-6.8091097,-1.8626889
5.605735,4.474092,-0.08065846,-0.1368198,0.3517375,7.5800424,-6.8091097,-1.8626889
5.605954,4.4739485,-0.08705004,-0.122971356,0.34001958,7.479486,-6.9000893,-1.8770541
5.6061773,4.4738035,-0.08705004,-0.122971356,0.34001958,7.479486,-6.9000893,-1.8770541
5.6063857,4.473691,-0.091311105,-0.110188186,0.32936695,7.3789296,-7.1634517,-1.733402
5.6065946,4.473578,-0.091311105,-0.110188186,0.32936695,7.3789296,-7.1634517,-1.733402
5.606829,4.473485,-0.092376366,-0.10273133,0.32297537,7.264008,-7.350199,-1.6232687
5.6070347,4.4734025,-0.092376366,-0.10273133,0.32297537,7.264008,-7.350199,-1.6232687
5.6072392,4.4733424,-0.08705004,-0.09633975,0.32297537,7.2448545,-7.479486,-1.6089035
5.607436,4.4732842,-0.08705004,-0.09633975,0.32297537,7.2448545,-7.479486,-1.6089035
5.607661,4.4732547,-0.0795932,-0.08781763,0.3304322,7.2783732,-7.6470804,-1.5562311
5.607885,4.473225,-0.0795932,-0.08781763,0.3304322,7.2783732,-7.6470804,-1.5562311
5.6081395,4.473242,-0.07000581,-0.07609972,0.34001958,7.1730285,-7.8625584,-1.5131354
5.608391,4.473257,-0.07000581,-0.07609972,0.34001958,7.1730285,-7.8625584,-1.5131354
5.6086645,4.4733133,-0.05509211,-0.062251285,0.3549333,6.981492,-7.9631147,-1.6041151
5.6089396,4.4733686,-0.05509211,-0.062251285,0.3549333,6.981492,-7.9631147,-1.6041151
5.609197,4.4734197,-0.03698262,-0.050533377,0.37197754,7.2304893,-7.9152308,-1.6950948
5.6094546,4.47347,-0.03698262,-0.050533377,0.37197754,7.2304893,-7.9152308,-1.6950948
5.609709,4.4735193,-0.017807856,-0.03455441,0.38902175,7.771579,-7.8529816,-1.7812861
5.6099615,4.4735684,-0.017807856,-0.03455441,0.38902175,7.771579,-7.8529816,-1.7812861
5.6102195,4.473632,-0.0039594183,-0.0015312112,0.406066,8.078036,-7.3310456,-1.8626889
5.6104765,4.473695,-0.0039594183,-0.0015312112,0.406066,8.078036,-7.3310456,-1.8626889
5.6107473,4.473847,0.001366904,0.046405688,0.4177839,8.12592,-7.747637,-1.5610195
5.611015,4.473997,0.001366904,0.046405688,0.4177839,8.12592,-7.747637,-1.5610195
5.611293,4.474228,0.0024321685,0.1060605,0.42097968,7.872135,-8.058883,-1.4077905
5.611572,4.474459,0.0024321685,0.1060605,0.42097968,7.872135,-8.058883,-1.4077905
5.6118298,4.474736,0.008823755,0.16145425,0.41671863,7.4028716,-7.967903,-1.5610195
5.612088,4.475014,0.008823755,0.16145425,0.41671863,7.4028716,-7.967903,-1.5610195
5.612327,4.475333,0.017345872,0.20086904,0.40180492,7.374141,-8.049306,-1.5753847
5.6125655,4.4756513,0.017345872,0.20086904,0.40180492,7.374141,-8.049306,-1.5753847
5.6127973,4.476012,0.024802722,0.23069644,0.3847607,7.302315,-8.1642275,-1.508347
5.61303,4.4763756,0.024802722,0.23069644,0.3847607,7.302315,-8.1642275,-1.508347
5.61329,4.4767895,0.033324838,0.25413227,0.37197754,7.0102224,-8.336611,-1.4556746
5.613549,4.477203,0.033324838,0.25413227,0.37197754,7.0102224,-8.336611,-1.4556746
5.613847,4.477645,0.043977484,0.26904595,0.36239013,6.7564373,-8.513782,-1.4508862
5.614145,4.4780884,0.043977484,0.26904595,0.36239013,6.7564373,-8.513782,-1.4508862
5.614473,4.478547,0.058891185,0.27330703,0.3549333,6.5361705,-8.652645,-1.412579
5.6147976,4.4790006,0.058891185,0.27330703,0.3549333,6.5361705,-8.652645,-1.412579
5.615146,4.4794636,0.07700068,0.26691544,0.34960696,6.315904,-8.7053175,-1.4030021
5.615494,4.479924,0.07700068,0.26691544,0.34960696,6.315904,-8.7053175,-1.4030021
5.615841,4.4803944,0.1004365,0.24880594,0.34641117,6.2345014,-8.690952,-1.3215994
5.6161857,4.48086,0.1004365,0.24880594,0.34641117,6.2345014,-8.690952,-1.3215994
5.6165376,4.481339,0.12493758,0.22430485,0.34641117,6.2728086,-8.614338,-1.364695
5.616887,4.481815,0.12493758,0.22430485,0.34641117,6.2728086,-8.614338,-1.364695
5.617237,4.482296,0.14943866,0.1987385,0.34641117,6.26802,-8.532935,-1.3503298
5.6175857,4.482775,0.14943866,0.1987385,0.34641117,6.26802,-8.532935,-1.3503298
5.6180277,4.4833875,0.17393975,0.17317216,0.34747645,6.244078,-8.422802,-1.3503298
5.61829,4.4837503,0.17393975,0.17317216,0.34747645,6.244078,-8.422802,-1.3503298
5.6186857,4.484276,0.1963103,0.14973634,0.35067225,6.1626754,-8.37013,-1.3742718
5.6190705,4.4847865,0.1963103,0.14973634,0.35067225,6.1626754,-8.37013,-1.3742718
5.6190705,4.4847865,0.1963103,0.14973634,0.35067225,6.1626754,-8.37013,-1.3742718
5.619956,4.4860077,0.21548507,0.13056158,0.35599855,6.181829,-8.231265,-1.3359646
5.6201344,4.4862504,0.2325293,0.11245208,0.36132488,6.1626754,-8.154651,-1.3599066
5.620734,4.487068,0.2325293,0.11245208,0.36132488,6.1626754,-8.154651,-1.3599066
5.620879,4.487263,0.24957353,0.09753838,0.36878175,6.143522,-8.111555,-1.3599066
5.6212463,4.4877586,0.24957353,0.09753838,0.36878175,6.143522,-8.111555,-1.3599066
5.621619,4.4882793,0.26342195,0.087951005,0.37836912,6.2105594,-8.049306,-1.3694834
5.6219993,4.48881,0.26342195,0.087951005,0.37836912,6.2105594,-8.049306,-1.3694834
5.6223726,4.48934,0.2740746,0.08475521,0.38902175,6.2009826,-7.9870567,-1.316811
5.622742,4.4898643,0.2740746,0.08475521,0.38902175,6.2009826,-7.9870567,-1.316811
5.6231346,4.49041,0.2857925,0.085820474,0.40287018,6.196194,-7.929596,-1.4987702
5.6235266,4.4909554,0.2857925,0.085820474,0.40287018,6.196194,-7.929596,-1.4987702
5.6239057,4.4915137,0.2953799,0.086885735,0.4145881,6.215348,-7.85777,-1.3503298
5.6242933,4.492085,0.2953799,0.086885735,0.4145881,6.215348,-7.85777,-1.3503298
5.624655,4.492631,0.30283675,0.089016266,0.42737126,6.253655,-7.833828,-1.4891934
5.625026,4.4931936,0.30283675,0.089016266,0.42737126,6.253655,-7.833828,-1.4891934
5.625402,4.493765,0.31029359,0.0911468,0.44015446,6.2584434,-7.8050976,-1.460463
5.625773,4.4943304,0.31029359,0.0911468,0.44015446,6.2584434,-7.8050976,-1.460463
5.62614,4.494902,0.31775045,0.0911468,0.4540029,6.2728086,-7.7189064,-1.4413095
5.6265054,4.4954724,0.31775045,0.0911468,0.4540029,6.2728086,-7.7189064,-1.4413095
5.6268663,4.4960403,0.32307678,0.089016266,0.46359026,6.2728086,-7.690176,-1.484405
5.627216,4.496591,0.32307678,0.089016266,0.46359026,6.2728086,-7.690176,-1.484405
5.6275635,4.4971433,0.32733783,0.086885735,0.47530818,6.181829,-7.6375036,-1.5801731
5.627917,4.4977055,0.32733783,0.086885735,0.47530818,6.181829,-7.6375036,-1.5801731
5.6282706,4.4982567,0.33053362,0.08475521,0.4838303,6.172252,-7.517793,-1.4987702
5.628622,4.4988036,0.33053362,0.08475521,0.4838303,6.172252,-7.517793,-1.4987702
5.628955,4.499317,0.33372942,0.08155942,0.4891566,6.1770406,-7.4842744,-1.5610195
5.6292887,4.4998293,0.33372942,0.08155942,0.4891566,6.1770406,-7.4842744,-1.5610195
5.6296167,4.5003014,0.33372942,0.07836362,0.4955482,6.143522,-7.369353,-1.5897499
5.629948,4.500774,0.33372942,0.07836362,0.4955482,6.143522,-7.369353,-1.5897499
5.630285,4.5012517,0.33053362,0.074102566,0.5008745,6.1530986,-7.2544312,-1.5275006
5.630624,4.5017314,0.33053362,0.074102566,0.5008745,6.1530986,-7.2544312,-1.5275006
5.6309648,4.502211,0.32946837,0.073037304,0.50407034,6.1626754,-7.2304893,-1.5035586
5.6313086,4.502693,0.32946837,0.073037304,0.50407034,6.1626754,-7.2304893,-1.5035586
5.6316514,4.5031147,0.3252073,0.073037304,0.5072661,6.143522,-7.1634517,-1.6184803
5.6319966,4.503538,0.3252073,0.073037304,0.5072661,6.143522,-7.1634517,-1.6184803
5.63234,4.5039845,0.31988096,0.069841504,0.50833136,6.205771,-7.091625,-1.5179238
5.6326857,4.504432,0.31988096,0.069841504,0.50833136,6.205771,-7.091625,-1.5179238
5.633028,4.5048523,0.31242412,0.06664571,0.5072661,6.220136,-6.9862804,-1.5466543
5.633374,4.5052757,0.31242412,0.06664571,0.5072661,6.220136,-6.9862804,-1.5466543
5.6337166,4.5056663,0.30496728,0.06451519,0.5051356,6.3063273,-6.8809357,-1.6184803
5.6340613,4.5060587,0.30496728,0.06451519,0.5051356,6.3063273,-6.8809357,-1.6184803
5.6344,4.5064335,0.2953799,0.061319392,0.49661347,6.253655,-6.83784,-1.6232687
5.634738,4.5068073,0.2953799,0.061319392,0.49661347,6.253655,-6.83784,-1.6232687
5.6350737,4.507154,0.2857925,0.0581236,0.48809135,6.191406,-6.766014,-1.6711528
5.635411,4.5075026,0.2857925,0.0581236,0.48809135,6.191406,-6.766014,-1.6711528
5.635751,4.5078177,0.2740746,0.052797277,0.47637343,6.0716953,-6.7612257,-1.7286136
5.636081,4.5081244,0.2740746,0.052797277,0.47637343,6.0716953,-6.7612257,-1.7286136
5.636408,4.5084066,0.2623567,0.043209895,0.46039447,5.9663506,-6.766014,-1.7238252
5.636735,4.5086894,0.2623567,0.043209895,0.46039447,5.9663506,-6.766014,-1.7238252
5.6370397,4.508963,0.24957353,0.031491987,0.44548076,5.90889,-6.7612257,-1.6280571
5.637344,4.5092363,0.24957353,0.031491987,0.44548076,5.90889,-6.7612257,-1.6280571
5.637639,4.50948,0.23785561,0.016578285,0.4295018,5.81791,-6.7708025,-1.6136919
5.6379333,4.509723,0.23785561,0.016578285,0.4295018,5.81791,-6.7708025,-1.6136919
5.6382275,4.509927,0.2261377,-0.0025964756,0.41565338,5.7843914,-6.766014,-1.6519991
5.638527,4.510134,0.2261377,-0.0025964756,0.41565338,5.7843914,-6.766014,-1.6519991
5.6388392,4.510327,0.21335453,-0.0228365,0.40180492,5.7843914,-6.7947445,-1.6424223
5.6390977,4.5104856,0.21335453,-0.0228365,0.40180492,5.7843914,-6.7947445,-1.6424223
5.63938,4.51066,0.21335453,-0.0228365,0.40180492,5.7843914,-6.7947445,-1.6424223
5.6396613,4.5107913,0.20057136,-0.043076526,0.3847607,5.741296,-6.847417,-1.6759412
5.639933,4.510893,0.18885344,-0.064381815,0.369847,5.6886234,-6.9383965,-1.6280571
5.640205,4.510995,0.18885344,-0.064381815,0.369847,5.6886234,-6.9383965,-1.6280571
5.6405015,4.5110464,0.17713554,-0.0856871,0.3549333,5.616797,-6.9862804,-1.6903064
5.6407986,4.5110984,0.17713554,-0.0856871,0.3549333,5.616797,-6.9862804,-1.6903064
5.641101,4.511117,0.16754816,-0.110188186,0.34215012,5.5497594,-7.062895,-1.6184803
5.641399,4.5111365,0.16754816,-0.110188186,0.34215012,5.5497594,-7.062895,-1.6184803
5.641638,4.5111623,0.16009131,-0.13575453,0.3304322,5.5880666,-7.1395097,-1.5227122
5.6418767,4.5111885,0.16009131,-0.13575453,0.3304322,5.5880666,-7.1395097,-1.5227122
5.6421957,4.511151,0.15583025,-0.15919036,0.32084483,5.559336,-7.2352777,-1.5705963
5.6425104,4.511114,0.15583025,-0.15919036,0.32084483,5.559336,-7.2352777,-1.5705963
5.6428223,4.5110774,0.15583025,-0.15919036,0.32084483,5.559336,-7.2352777,-1.5705963
5.64305,4.5110598,0.15156919,-0.1847567,0.31125745,5.746084,-7.3310456,-1.5705963
5.6432776,4.511043,0.15156919,-0.1847567,0.31125745,5.746084,-7.3310456,-1.5705963
5.6434803,4.5111027,0.15050393,-0.20819251,0.3038006,5.947197,-7.431602,-1.4939818
5.6436834,4.5111613,0.15050393,-0.20819251,0.3038006,5.947197,-7.431602,-1.4939818
5.643878,4.5111804,0.15050393,-0.22843254,0.29314795,6.253655,-7.465121,-1.5466543
5.644068,4.5111995,0.15050393,-0.22843254,0.29314795,6.253655,-7.465121,-1.5466543
5.644248,4.511202,0.15156919,-0.24121572,0.277169,6.435614,-7.469909,-1.5753847
5.6444325,4.5112047,0.15156919,-0.24121572,0.277169,6.435614,-7.469909,-1.5753847
5.644593,4.511217,0.14943866,-0.24654204,0.25373316,6.421249,-7.4507556,-1.5035586
5.644753,4.511229,0.14943866,-0.24654204,0.25373316,6.421249,-7.4507556,-1.5035586
5.6448836,4.5112157,0.1483734,-0.24867256,0.22497103,6.373365,-7.536947,-1.5801731
5.645015,4.5112033,0.1483734,-0.24867256,0.22497103,6.373365,-7.536947,-1.5801731
5.645122,4.511201,0.1451776,-0.25080308,0.19940469,6.244078,-7.599196,-1.5370775
5.64523,4.511199,0.1451776,-0.25080308,0.19940469,6.244078,-7.599196,-1.5370775
5.6453214,4.5112114,0.14304708,-0.25506416,0.17596887,6.172252,-7.651869,-1.5035586
5.645413,4.5112247,0.14304708,-0.25506416,0.17596887,6.172252,-7.651869,-1.5035586
5.64551,4.511271,0.14304708,-0.262521,0.15466358,6.1626754,-7.7189064,-1.4221559
5.645608,4.5113173,0.14304708,-0.262521,0.15466358,6.1626754,-7.7189064,-1.4221559
5.6456957,4.5113573,0.14411235,-0.27104312,0.14294566,6.133945,-7.776367,-1.4652514
5.6457825,4.5113964,0.14411235,-0.27104312,0.14294566,6.133945,-7.776367,-1.4652514
5.645842,4.5113916,0.14943866,-0.28169575,0.13761935,6.1866174,-7.8386164,-1.5562311
5.6459017,4.511388,0.14943866,-0.28169575,0.13761935,6.1866174,-7.8386164,-1.5562311
5.645968,4.511394,0.15369973,-0.29128313,0.13655408,6.244078,-7.819463,-1.5131354
5.6460347,4.5114,0.15369973,-0.29128313,0.13655408,6.244078,-7.819463,-1.5131354
5.646101,4.5114026,0.16222183,-0.29980525,0.13761935,6.229713,-7.747637,-1.5035586
5.6461687,4.5114055,0.16222183,-0.29980525,0.13761935,6.229713,-7.747637,-1.5035586
5.6462283,4.511348,0.16967869,-0.30300105,0.14081514,6.2823853,-7.747637,-1.6376339
5.6462884,4.51129,0.16967869,-0.30300105,0.14081514,6.2823853,-7.747637,-1.6376339
5.6463585,4.5112844,0.17607027,-0.30300105,0.148272,6.253655,-7.690176,-1.532289
5.6464286,4.5112786,0.17607027,-0.30300105,0.148272,6.253655,-7.690176,-1.532289
5.646504,4.5112557,0.18352713,-0.30087054,0.15785937,6.291962,-7.599196,-1.5801731
5.6465797,4.5112333,0.18352713,-0.30087054,0.15785937,6.291962,-7.599196,-1.5801731
5.646665,4.511201,0.18885344,-0.29341367,0.16744675,6.196194,-7.493851,-1.6136919
5.6467505,4.511168,0.18885344,-0.29341367,0.16744675,6.196194,-7.493851,-1.6136919
5.646846,4.5111847,0.19417977,-0.28489155,0.18022992,6.2871737,-7.469909,-1.5179238
5.646941,4.511201,0.19417977,-0.28489155,0.18022992,6.2871737,-7.469909,-1.5179238
5.6470475,4.5112143,0.1963103,-0.2742389,0.19407836,6.244078,-7.350199,-1.541866
5.6471524,4.5112276,0.1963103,-0.2742389,0.19407836,6.244078,-7.350199,-1.541866
5.6472707,4.5112343,0.19844083,-0.262521,0.20686153,6.2632318,-7.28795,-1.6041151
5.6473885,4.511241,0.19844083,-0.262521,0.20686153,6.2632318,-7.28795,-1.6041151
5.647517,4.5112514,0.20163663,-0.24973783,0.21857944,6.2392898,-7.2783732,-1.6376339
5.647646,4.511262,0.20163663,-0.24973783,0.21857944,6.2392898,-7.2783732,-1.6376339
5.647783,4.5112877,0.20163663,-0.23588939,0.23029736,6.244078,-7.2209125,-1.6232687
5.647919,4.511313,0.20163663,-0.23588939,0.23029736,6.244078,-7.2209125,-1.6232687
5.648066,4.5113525,0.20163663,-0.22204095,0.24308053,6.2392898,-7.2448545,-1.6184803
5.6482115,4.511391,0.20163663,-0.22204095,0.24308053,6.2392898,-7.2448545,-1.6184803
5.6483703,4.5114307,0.20163663,-0.20819251,0.25479844,6.191406,-7.225701,-1.6519991
5.648528,4.51147,0.20163663,-0.20819251,0.25479844,6.191406,-7.225701,-1.6519991
5.6486998,4.511512,0.19950609,-0.19540934,0.2675816,6.1387334,-7.273585,-1.6663644
5.6488695,4.5115533,0.19950609,-0.19540934,0.2675816,6.1387334,-7.273585,-1.6663644
5.649051,4.5116024,0.19737557,-0.1847567,0.27929953,6.1387334,-7.311892,-1.6663644
5.649231,4.5116515,0.19737557,-0.1847567,0.27929953,6.1387334,-7.311892,-1.6663644
5.649423,4.511699,0.19417977,-0.1730388,0.28995216,6.105214,-7.345411,-1.685518
5.6496153,4.511747,0.19417977,-0.1730388,0.28995216,6.105214,-7.345411,-1.685518
5.6498213,4.511795,0.1931145,-0.1634514,0.30060482,6.0381765,-7.3549876,-1.6903064
5.650027,4.5118427,0.1931145,-0.1634514,0.30060482,6.0381765,-7.3549876,-1.6903064
5.650248,4.511891,0.1931145,-0.15386403,0.3123227,5.9902925,-7.3789296,-1.6998832
5.6504693,4.5119395,0.1931145,-0.15386403,0.3123227,5.9902925,-7.3789296,-1.6998832
5.650703,4.511992,0.19417977,-0.14640717,0.32297537,5.9998693,-7.383718,-1.7190368
5.650936,4.512045,0.19417977,-0.14640717,0.32297537,5.9998693,-7.383718,-1.7190368
5.651188,4.512095,0.19417977,-0.14108086,0.33469325,5.9902925,-7.455544,-1.7381904
5.651439,4.5121455,0.19417977,-0.14108086,0.33469325,5.9902925,-7.455544,-1.7381904
5.651689,4.5122137,0.19417977,-0.13468927,0.3453459,5.971139,-7.422025,-1.6903064
5.6519384,4.5122824,0.19417977,-0.13468927,0.3453459,5.971139,-7.422025,-1.6903064
5.6522045,4.512347,0.19417977,-0.12936294,0.3549333,5.947197,-7.445967,-1.70946
5.6524706,4.512412,0.19417977,-0.12936294,0.3549333,5.947197,-7.445967,-1.70946
5.65276,4.5124717,0.19417977,-0.1251019,0.36771646,5.90889,-7.431602,-1.7381904
5.653049,4.5125313,0.19417977,-0.1251019,0.36771646,5.90889,-7.431602,-1.7381904
5.6533384,4.5126033,0.19417977,-0.11977556,0.37730384,5.93762,-7.4124484,-1.7286136
5.653627,4.5126753,0.19417977,-0.11977556,0.37730384,5.93762,-7.4124484,-1.7286136
5.653916,4.5127616,0.19524503,-0.11444924,0.38582596,5.9759274,-7.417237,-1.7142484
5.6542034,4.5128484,0.19524503,-0.11444924,0.38582596,5.9759274,-7.417237,-1.7142484
5.6544867,4.5129604,0.1963103,-0.109122925,0.39541334,5.947197,-7.3645644,-1.6424223
5.6547694,4.513073,0.1963103,-0.109122925,0.39541334,5.947197,-7.3645644,-1.6424223
5.655077,4.5131683,0.19737557,-0.10486186,0.40500072,5.9807158,-7.3645644,-1.7381904
5.655077,4.5131683,0.19737557,-0.10486186,0.40500072,5.9807158,-7.3645644,-1.7381904
5.656268,4.5136995,0.20057136,-0.095274486,0.4092618,6.0956373,-7.264008,-1.685518
5.656268,4.5136995,0.20057136,-0.095274486,0.4092618,6.0956373,-7.264008,-1.685518
5.656268,4.5136995,0.20057136,-0.095274486,0.4092618,6.0956373,-7.264008,-1.685518
5.656549,4.5138245,0.20057136,-0.095274486,0.4092618,6.0956373,-7.264008,-1.685518
5.6568236,4.5139832,0.20057136,-0.08994816,0.406066,6.14831,-7.28795,-1.5897499
5.657111,4.514149,0.20057136,-0.08994816,0.406066,6.14831,-7.28795,-1.5897499
5.657385,4.5142875,0.19844083,-0.08355658,0.3996744,6.181829,-7.3310456,-1.685518
5.657661,4.514427,0.19844083,-0.08355658,0.3996744,6.181829,-7.3310456,-1.685518
5.6581774,4.5147347,0.1963103,-0.077164985,0.38902175,6.2009826,-7.311892,-1.6280571
5.6581774,4.5147347,0.1963103,-0.077164985,0.38902175,6.2009826,-7.311892,-1.6280571
5.6584225,4.514893,0.1931145,-0.07396919,0.37517333,6.1770406,-7.3645644,-1.6041151
5.6586676,4.5150504,0.1931145,-0.07396919,0.37517333,6.1770406,-7.3645644,-1.6041151
5.6589055,4.5151973,0.19098398,-0.07503446,0.36025962,6.143522,-7.431602,-1.6328455
5.6591372,4.5153403,0.19098398,-0.07503446,0.36025962,6.143522,-7.431602,-1.6328455
5.6593533,4.515502,0.18991871,-0.079295516,0.34747645,6.129156,-7.493851,-1.5562311
5.6595707,4.5156646,0.18991871,-0.079295516,0.34747645,6.129156,-7.493851,-1.5562311
5.659781,4.5158114,0.18778819,-0.08675237,0.3368238,6.0716953,-7.5465236,-1.5753847
5.659989,4.5159564,0.18778819,-0.08675237,0.3368238,6.0716953,-7.5465236,-1.5753847
5.660189,4.516091,0.18778819,-0.09420922,0.3272364,6.090849,-7.5800424,-1.5897499
5.6603913,4.516227,0.18778819,-0.09420922,0.3272364,6.090849,-7.5800424,-1.5897499
5.6605883,4.516386,0.18991871,-0.10166607,0.32191008,6.0142345,-7.5944076,-1.5179238
5.6607842,4.516545,0.18991871,-0.10166607,0.32191008,6.0142345,-7.5944076,-1.5179238
5.6609793,4.516694,0.1931145,-0.108057655,0.31977957,5.9663506,-7.632715,-1.5370775
5.6611753,4.516843,0.1931145,-0.108057655,0.31977957,5.9663506,-7.632715,-1.5370775
5.6613736,4.517016,0.19737557,-0.11551451,0.3187143,5.9041014,-7.642292,-1.4939818
5.6615715,4.517188,0.19737557,-0.11551451,0.3187143,5.9041014,-7.642292,-1.4939818
5.661771,4.5173573,0.20483242,-0.121906094,0.31977957,5.861006,-7.599196,-1.4939818
5.661969,4.517525,0.20483242,-0.121906094,0.31977957,5.861006,-7.599196,-1.4939818
5.662176,4.517657,0.21015874,-0.12723242,0.32510588,5.8562174,-7.599196,-1.5514427
5.662383,4.517788,0.21015874,-0.12723242,0.32510588,5.8562174,-7.599196,-1.5514427
5.662602,4.5179195,0.21548507,-0.13149348,0.33575854,5.813122,-7.5800424,-1.5466543
5.662821,4.518051,0.21548507,-0.13149348,0.33575854,5.813122,-7.5800424,-1.5466543
5.6630464,4.5182023,0.22187665,-0.133624,0.34428066,5.8801594,-7.551312,-1.532289
5.6632714,4.518352,0.22187665,-0.133624,0.34428066,5.8801594,-7.551312,-1.532289
5.6635036,4.5185127,0.22826824,-0.133624,0.3517375,5.9424086,-7.469909,-1.5227122
5.663735,4.5186725,0.22826824,-0.133624,0.3517375,5.9424086,-7.469909,-1.5227122
5.6639752,4.5188456,0.23465982,-0.13149348,0.36025962,5.9184666,-7.445967,-1.508347
5.664215,4.519017,0.23465982,-0.13149348,0.36025962,5.9184666,-7.445967,-1.508347
5.6644626,4.5191827,0.23892088,-0.12616715,0.3666512,5.865794,-7.441179,-1.5370775
5.6647105,4.519348,0.23892088,-0.12616715,0.3666512,5.865794,-7.441179,-1.5370775
5.6649656,4.5195146,0.24211667,-0.11977556,0.37410805,5.8083334,-7.465121,-1.541866
5.665221,4.519681,0.24211667,-0.11977556,0.37410805,5.8083334,-7.465121,-1.541866
5.665483,4.5198503,0.2442472,-0.11231872,0.38049963,5.8083334,-7.431602,-1.5514427
5.6657453,4.5200195,0.2442472,-0.11231872,0.38049963,5.8083334,-7.431602,-1.5514427
5.6660075,4.520217,0.24637774,-0.105927125,0.38689122,5.803545,-7.4746976,-1.508347
5.66627,4.5204144,0.24637774,-0.105927125,0.38689122,5.803545,-7.4746976,-1.508347
5.66655,4.5205755,0.24531247,-0.10060081,0.39221755,5.7365074,-7.479486,-1.5705963
5.6668315,4.5207367,0.24531247,-0.10060081,0.39221755,5.7365074,-7.479486,-1.5705963
5.667115,4.520905,0.24531247,-0.09740501,0.39860913,5.6790466,-7.489063,-1.541866
5.6673994,4.521074,0.24531247,-0.09740501,0.39860913,5.6790466,-7.489063,-1.541866
5.6676793,4.5212746,0.24531247,-0.09420922,0.406066,5.645528,-7.5225816,-1.4939818
5.667959,4.521474,0.24531247,-0.09420922,0.406066,5.645528,-7.5225816,-1.4939818
5.6682944,4.5216064,0.24531247,-0.093143955,0.41032705,5.616797,-7.603985,-1.5753847
5.6686287,4.52174,0.24531247,-0.093143955,0.41032705,5.616797,-7.603985,-1.5753847
5.668975,4.521868,0.2442472,-0.095274486,0.41671863,5.559336,-7.503428,-1.5801731
5.66932,4.5219975,0.2442472,-0.095274486,0.41671863,5.559336,-7.503428,-1.5801731
5.669704,4.522112,0.24318193,-0.09633975,0.42311022,5.5401826,-7.541735,-1.6232687
5.670086,4.522227,0.24318193,-0.09633975,0.42311022,5.5401826,-7.541735,-1.6232687
5.670481,4.522341,0.24318193,-0.09740501,0.43056706,5.4922986,-7.5465236,-1.5753847
5.6708746,4.5224557,0.24318193,-0.09740501,0.43056706,5.4922986,-7.5465236,-1.5753847
5.6712894,4.5225663,0.24211667,-0.10060081,0.43908918,5.48751,-7.541735,-1.6089035
5.6717005,4.5226774,0.24211667,-0.10060081,0.43908918,5.48751,-7.541735,-1.6089035
5.672061,4.52281,0.24211667,-0.1037966,0.44654605,5.602432,-7.489063,-1.5993267
5.6724224,4.5229435,0.24211667,-0.1037966,0.44654605,5.602432,-7.489063,-1.5993267
5.6727567,4.523131,0.2410514,-0.10486186,0.45293763,5.6982,-7.4842744,-1.5131354
5.6730857,4.523315,0.2410514,-0.10486186,0.45293763,5.6982,-7.4842744,-1.5131354
5.673424,4.5234823,0.2410514,-0.10486186,0.45613343,5.7987566,-7.431602,-1.5801731
5.673764,4.523651,0.2410514,-0.10486186,0.45613343,5.7987566,-7.431602,-1.5801731
5.674097,4.5238276,0.24318193,-0.10273133,0.45187235,5.9041014,-7.350199,-1.5945383
5.6744304,4.5240045,0.24318193,-0.10273133,0.45187235,5.9041014,-7.350199,-1.5945383
5.674746,4.524205,0.24211667,-0.09847028,0.44228497,6.0764837,-7.2687964,-1.5275006
5.675061,4.524406,0.24211667,-0.09847028,0.44228497,6.0764837,-7.2687964,-1.5275006
5.675358,4.524605,0.23892088,-0.09207869,0.42417547,6.1626754,-7.2209125,-1.5370775
5.675654,4.5248036,0.23892088,-0.09207869,0.42417547,6.1626754,-7.2209125,-1.5370775
5.675923,4.5250115,0.23465982,-0.08462184,0.39860913,6.1530986,-7.16824,-1.4700398
5.676192,4.5252194,0.23465982,-0.08462184,0.39860913,6.1530986,-7.16824,-1.4700398
5.676434,4.5253997,0.23039876,-0.079295516,0.36771646,6.143522,-7.0820484,-1.5897499
5.676675,4.525579,0.23039876,-0.079295516,0.36771646,6.143522,-7.0820484,-1.5897499
5.676877,4.5257607,0.22081138,-0.078230254,0.33149746,6.0956373,-7.1826053,-1.4987702
5.6770797,4.5259433,0.22081138,-0.078230254,0.33149746,6.0956373,-7.1826053,-1.4987702
5.6772523,4.526086,0.20909347,-0.08249131,0.2952785,6.0764837,-7.1969705,-1.5993267
5.6774244,4.526228,0.20909347,-0.08249131,0.2952785,6.0764837,-7.1969705,-1.5993267
5.6775637,4.5263453,0.1963103,-0.093143955,0.2590595,6.0621185,-7.2544312,-1.5993267
5.677703,4.526462,0.1963103,-0.093143955,0.2590595,6.0621185,-7.2544312,-1.5993267
5.6778135,4.526539,0.18246186,-0.106992394,0.22177523,5.9998693,-7.264008,-1.6472107
5.6779237,4.5266156,0.18246186,-0.106992394,0.22177523,5.9998693,-7.264008,-1.6472107
5.678007,4.5266585,0.17180921,-0.124036625,0.1866215,5.923255,-7.297527,-1.6567876
5.67809,4.526702,0.17180921,-0.124036625,0.1866215,5.923255,-7.297527,-1.6567876
5.678152,4.5267096,0.16222183,-0.14321138,0.15466358,5.8945246,-7.311892,-1.6950948
5.678214,4.526717,0.16222183,-0.14321138,0.15466358,5.8945246,-7.311892,-1.6950948
5.6782465,4.5267034,0.15476498,-0.1634514,0.12377091,5.8226986,-7.3406224,-1.6424223
5.678279,4.52669,0.15476498,-0.1634514,0.12377091,5.8226986,-7.3406224,-1.6424223
5.6782856,4.5266576,0.14730814,-0.18262617,0.09713929,5.7748146,-7.302315,-1.6041151
5.6782923,4.5266256,0.14730814,-0.18262617,0.09713929,5.7748146,-7.302315,-1.6041151
5.6782756,4.526566,0.13878602,-0.20393145,0.07476874,5.693412,-7.2831616,-1.5562311
5.6782627,4.526519,0.13878602,-0.20393145,0.07476874,5.693412,-7.2831616,-1.5562311
5.6782503,4.5264196,0.13132916,-0.22417149,0.056659244,5.6886234,-7.321469,-1.6472107
5.678239,4.5263224,0.13132916,-0.22417149,0.056659244,5.6886234,-7.321469,-1.6472107
5.678201,4.5262203,0.12493758,-0.24121572,0.039615013,5.66947,-7.273585,-1.5753847
5.678163,4.5261173,0.12493758,-0.24121572,0.039615013,5.66947,-7.273585,-1.5753847
5.678103,4.5260167,0.118545994,-0.2593252,0.025766576,5.7125654,-7.326257,-1.508347
5.6780424,4.525917,0.118545994,-0.2593252,0.025766576,5.7125654,-7.326257,-1.508347
5.67797,4.525812,0.11108914,-0.27530417,0.014048667,5.746084,-7.321469,-1.4700398
5.677897,4.5257072,0.11108914,-0.27530417,0.014048667,5.746084,-7.321469,-1.4700398
5.6778173,4.5255847,0.105762824,-0.28808734,0.0044612866,5.803545,-7.345411,-1.4891934
5.677738,4.5254626,0.105762824,-0.28808734,0.0044612866,5.803545,-7.345411,-1.4891934
5.677652,4.5253334,0.10150176,-0.29980525,-0.004060829,5.8466406,-7.369353,-1.4796166
5.677565,4.5252037,0.10150176,-0.29980525,-0.004060829,5.8466406,-7.369353,-1.4796166
5.6774745,4.525056,0.09830597,-0.30832738,-0.01151768,5.837064,-7.469909,-1.5131354
5.6773643,4.52489,0.09617544,-0.31578422,-0.018974531,5.8562174,-7.489063,-1.4939818
5.6772747,4.524756,0.09617544,-0.31578422,-0.018974531,5.8562174,-7.489063,-1.4939818
5.6771765,4.5246086,0.09617544,-0.31578422,-0.018974531,5.8562174,-7.489063,-1.4939818
5.677076,4.5244617,0.09617544,-0.3221758,-0.02323559,5.875371,-7.599196,-1.4987702
5.6769767,4.5243173,0.09617544,-0.3221758,-0.02323559,5.875371,-7.599196,-1.4987702
5.6768756,4.524189,0.09511018,-0.32643688,-0.024300855,5.9041014,-7.61835,-1.4460979
5.676774,4.52406,0.09511018,-0.32643688,-0.024300855,5.9041014,-7.61835,-1.4460979
5.676676,4.523942,0.09617544,-0.33282846,-0.025366118,5.93762,-7.7189064,-1.4317327
5.6765776,4.5238247,0.09617544,-0.33282846,-0.025366118,5.93762,-7.7189064,-1.4317327
5.676483,4.5237107,0.09617544,-0.3381548,-0.024300855,5.9280434,-7.795521,-1.436521
5.6763887,4.523597,0.09617544,-0.3381548,-0.024300855,5.9280434,-7.795521,-1.436521
5.676311,4.5235076,0.09830597,-0.3413506,-0.018974531,6.009446,-7.9152308,-1.3982137
5.676234,4.5234184,0.09830597,-0.3413506,-0.018974531,6.009446,-7.9152308,-1.3982137
5.676164,4.523338,0.102567025,-0.3434811,-0.014713474,6.0477533,-7.9583263,-1.388637
5.676095,4.5232577,0.102567025,-0.3434811,-0.014713474,6.0477533,-7.9583263,-1.388637
5.6760235,4.5231643,0.10789335,-0.34454638,-0.0072566224,6.0621185,-7.943961,-1.436521
5.675951,4.5230703,0.10789335,-0.34454638,-0.0072566224,6.0621185,-7.943961,-1.436521
5.6758976,4.5230002,0.11321967,-0.34561163,0.0012654932,6.081272,-7.9583263,-1.3838485
5.6758447,4.522931,0.11321967,-0.34561163,0.0012654932,6.081272,-7.9583263,-1.3838485
5.675799,4.522867,0.118545994,-0.3434811,0.010852873,6.0956373,-8.010999,-1.4077905
5.6757536,4.5228043,0.118545994,-0.3434811,0.010852873,6.0956373,-8.010999,-1.4077905
5.67571,4.522735,0.12387232,-0.3402853,0.021505518,6.1195793,-7.97748,-1.436521
5.675667,4.522666,0.12387232,-0.3402853,0.021505518,6.1195793,-7.97748,-1.436521
5.6756425,4.5226183,0.13026391,-0.3370895,0.035353955,6.133945,-7.9631147,-1.3934253
5.6756177,4.52257,0.13026391,-0.3370895,0.035353955,6.133945,-7.9631147,-1.3934253
5.6755967,4.522518,0.13559023,-0.33069792,0.04813713,6.191406,-7.953538,-1.4317327
5.675576,4.5224667,0.13559023,-0.33069792,0.04813713,6.191406,-7.953538,-1.4317327
5.67557,4.522436,0.14091654,-0.32111055,0.0609203,6.1866174,-7.920019,-1.3934253
5.675564,4.522406,0.14091654,-0.32111055,0.0609203,6.1866174,-7.920019,-1.3934253
5.675567,4.5223885,0.14624287,-0.30939263,0.073703475,6.244078,-7.85777,-1.3694834
5.67557,4.5223703,0.14624287,-0.30939263,0.073703475,6.244078,-7.85777,-1.3694834
5.6755733,4.5223503,0.15263446,-0.29447892,0.08435612,6.373365,-7.85777,-1.4413095
5.6755767,4.52233,0.15263446,-0.29447892,0.08435612,6.373365,-7.85777,-1.4413095
5.6755805,4.52232,0.15796077,-0.2742389,0.09074771,6.517017,-7.747637,-1.4508862
5.675584,4.5223103,0.15796077,-0.2742389,0.09074771,6.517017,-7.747637,-1.4508862
5.675588,4.522326,0.16009131,-0.24973783,0.0939435,6.564901,-7.680599,-1.3982137
5.675592,4.5223417,0.16009131,-0.24973783,0.0939435,6.564901,-7.680599,-1.3982137
5.6755853,4.52238,0.16222183,-0.22097568,0.088617176,6.531382,-7.675811,-1.3934253
5.6755786,4.522418,0.16222183,-0.22097568,0.088617176,6.531382,-7.675811,-1.3934253
5.675477,4.5226164,0.15369973,-0.16025561,0.06731189,6.2871737,-7.699753,-1.412579
5.675477,4.5226164,0.15369973,-0.16025561,0.06731189,6.2871737,-7.699753,-1.412579
5.675477,4.5226164,0.15369973,-0.16025561,0.06731189,6.2871737,-7.699753,-1.412579
5.6754355,4.522689,0.15369973,-0.16025561,0.06731189,6.2871737,-7.699753,-1.412579
5.6754355,4.522689,0.15369973,-0.16025561,0.06731189,6.2871737,-7.699753,-1.412579
5.6754355,4.522689,0.15369973,-0.16025561,0.06731189,6.2871737,-7.699753,-1.412579
5.675238,4.5230074,0.13985129,-0.11125345,0.049202394,6.0621185,-7.785944,-1.460463
5.675211,4.5230412,0.13985129,-0.11125345,0.049202394,6.0621185,-7.785944,-1.460463
5.6751533,4.5231485,0.13452496,-0.095274486,0.044941336,5.9663506,-7.8146744,-1.3934253
5.6750903,4.5232644,0.13452496,-0.095274486,0.044941336,5.9663506,-7.8146744,-1.3934253
5.675006,4.5233517,0.13239443,-0.08036078,0.039615013,5.9424086,-7.824251,-1.4891934
5.6749215,4.5234385,0.13239443,-0.08036078,0.039615013,5.9424086,-7.824251,-1.4891934
5.6748314,4.5235167,0.12919864,-0.06970814,0.03641922,5.932832,-7.8386164,-1.5131354
5.674741,4.5235953,0.12919864,-0.06970814,0.03641922,5.932832,-7.8386164,-1.5131354
5.6746473,4.52369,0.12813337,-0.06118602,0.03428869,5.851429,-7.8290396,-1.4891934
5.674554,4.5237846,0.12813337,-0.06118602,0.03428869,5.851429,-7.8290396,-1.4891934
5.674456,4.5238733,0.1270681,-0.05692496,0.032158162,5.7987566,-7.824251,-1.4987702
5.6743584,4.5239615,0.1270681,-0.05692496,0.032158162,5.7987566,-7.824251,-1.4987702
5.6742706,4.5239973,0.12600285,-0.05692496,0.031092897,5.765238,-7.785944,-1.5514427
5.674183,4.5240335,0.12600285,-0.05692496,0.031092897,5.765238,-7.785944,-1.5514427
5.6740904,4.5240793,0.1270681,-0.059055492,0.030027634,5.7508726,-7.73806,-1.532289
5.6739974,4.5241246,0.1270681,-0.059055492,0.030027634,5.7508726,-7.73806,-1.532289
5.6738977,4.524193,0.12600285,-0.06331655,0.027897105,5.755661,-7.680599,-1.4891934
5.6737976,4.5242605,0.12600285,-0.06331655,0.027897105,5.755661,-7.680599,-1.4891934
5.6736956,4.5243278,0.12387232,-0.06970814,0.024701312,5.770026,-7.6710224,-1.4796166
5.6735935,4.5243945,0.12387232,-0.06970814,0.024701312,5.770026,-7.6710224,-1.4796166
5.6735024,4.5244083,0.12387232,-0.079295516,0.022570781,5.803545,-7.6470804,-1.5658079
