Pitch,Roll,Gyro_X,Gyro_Y,Gyro_Z,Accel_X,Accel_Y,Accel_Z
6.1826224,4.500471,-0.47693685,0.5002083,0.11098773,1.3455414,-8.805874,-2.4277205
6.182554,4.499957,-0.47693685,0.5002083,0.11098773,1.3455414,-8.805874,-2.4277205
6.1824527,4.4994864,-0.47054526,0.50659996,0.12803197,1.7525556,-8.99741,-2.3319526
6.1823506,4.4990125,-0.47054526,0.50659996,0.12803197,1.7525556,-8.99741,-2.3319526
6.182255,4.4985557,-0.46521893,0.5161873,0.1450762,1.9393034,-9.121908,-2.3319526
6.1821575,4.4980974,-0.46521893,0.5161873,0.1450762,1.9393034,-9.121908,-2.3319526
6.1820736,4.4976497,-0.45776206,0.53003573,0.16105516,2.006341,-9.188946,-2.3750482
6.1819897,4.497204,-0.45776206,0.53003573,0.16105516,2.006341,-9.188946,-2.3750482
6.1819143,4.4967723,-0.44923997,0.5460147,0.17596887,1.8962077,-9.251195,-2.3223755
6.181838,4.496338,-0.44923997,0.5460147,0.17596887,1.8962077,-9.251195,-2.3223755
6.181785,4.495898,-0.44284838,0.5609284,0.18981731,1.7190368,-9.251195,-2.4037786
6.181731,4.4954567,-0.44284838,0.5609284,0.18981731,1.7190368,-9.251195,-2.4037786
6.181702,4.495011,-0.43752205,0.5737116,0.204731,1.5658079,-9.212888,-2.432509
6.181672,4.494564,-0.43752205,0.5737116,0.204731,1.5658079,-9.212888,-2.432509
6.18168,4.49411,-0.43432626,0.583299,0.22497103,1.4077905,-9.179369,-2.4660277
6.1816874,4.4936566,-0.43432626,0.583299,0.22497103,1.4077905,-9.179369,-2.4660277
6.18174,4.493195,-0.43113047,0.58969057,0.24627632,1.2785037,-9.136273,-2.528277
6.1817913,4.4927354,-0.43113047,0.58969057,0.24627632,1.2785037,-9.136273,-2.528277
6.181865,4.4922743,-0.43219572,0.5918211,0.26971215,1.292869,-9.14585,-2.5570073
6.181938,4.4918127,-0.43219572,0.5918211,0.26971215,1.292869,-9.14585,-2.5570073
6.1820316,4.491349,-0.4364568,0.5907558,0.2920827,1.2641385,-9.14585,-2.5091233
6.182124,4.4908853,-0.4364568,0.5907558,0.2920827,1.2641385,-9.14585,-2.5091233
6.182257,4.4904127,-0.4385873,0.5886253,0.3123227,1.1683705,-9.093178,-2.5474305
6.18239,4.4899373,-0.4385873,0.5886253,0.3123227,1.1683705,-9.093178,-2.5474305
6.1825805,4.4893584,-0.4417831,0.583299,0.33256274,1.1587936,-9.059659,-2.5809495
6.182704,4.4889793,-0.4417831,0.583299,0.33256274,1.1587936,-9.059659,-2.5809495
6.182818,4.488533,-0.44391364,0.5726463,0.35067225,1.460463,-9.107543,-2.4612393
6.182933,4.48808,-0.44391364,0.5726463,0.35067225,1.460463,-9.107543,-2.4612393
6.183027,4.4876738,-0.44710943,0.5651895,0.3666512,1.6519991,-9.179369,-2.2170308
6.1831207,4.4872675,-0.44710943,0.5651895,0.3666512,1.6519991,-9.179369,-2.2170308
6.1832256,4.4868603,-0.44710943,0.56199366,0.37730384,1.7621324,-9.23683,-2.2457612
6.183329,4.486457,-0.44710943,0.56199366,0.37730384,1.7621324,-9.23683,-2.2457612
6.183441,4.486046,-0.44284838,0.55986315,0.38263017,1.8243817,-9.165004,-2.3127987
6.1835527,4.4856358,-0.44284838,0.55986315,0.38263017,1.8243817,-9.165004,-2.3127987
6.1836658,4.4852333,-0.4385873,0.5587979,0.3847607,1.8052281,-9.097966,-2.27928
6.1837783,4.4848294,-0.4385873,0.5587979,0.3847607,1.8052281,-9.097966,-2.27928
6.183897,4.4844193,-0.43113047,0.5587979,0.3847607,1.6807296,-9.078813,-2.3463178
6.184015,4.4840107,-0.43113047,0.5587979,0.3847607,1.6807296,-9.078813,-2.3463178
6.1841264,4.4836116,-0.42473888,0.55773264,0.38049963,1.5466543,-8.987833,-2.2649148
6.1842384,4.4832106,-0.42473888,0.55773264,0.38049963,1.5466543,-8.987833,-2.2649148
6.184347,4.4828167,-0.41941255,0.5524063,0.37623858,1.3551182,-9.02614,-2.2266076
6.1844544,4.4824257,-0.41941255,0.5524063,0.37623858,1.3551182,-9.02614,-2.2266076
6.184562,4.4820337,-0.4119557,0.5406884,0.37091225,1.2449849,-9.054871,-2.2218192
6.1846695,4.481642,-0.4119557,0.5406884,0.37091225,1.2449849,-9.054871,-2.2218192
6.184763,4.481292,-0.40236834,0.5257747,0.3634554,1.2306197,-9.141062,-2.1643584
6.1848564,4.4809413,-0.40236834,0.5257747,0.3634554,1.2306197,-9.141062,-2.1643584
6.184951,4.480625,-0.39065042,0.5087305,0.35812908,1.316811,-9.179369,-2.1164744
6.1850457,4.4803076,-0.39065042,0.5087305,0.35812908,1.316811,-9.179369,-2.1164744
6.1851377,4.4799933,-0.3757367,0.49062097,0.35386804,1.4173675,-9.174581,-2.1452048
6.1852303,4.4796796,-0.3757367,0.49062097,0.35386804,1.4173675,-9.174581,-2.1452048
6.1853185,4.4793663,-0.3576272,0.47144622,0.34641117,1.484405,-9.136273,-2.2026656
6.1854067,4.4790535,-0.3576272,0.47144622,0.34641117,1.484405,-9.136273,-2.2026656
6.1854906,4.4787602,-0.3373872,0.45120618,0.3368238,1.5801731,-9.045294,-2.1787236
6.1855736,4.4784684,-0.3373872,0.45120618,0.3368238,1.5801731,-9.045294,-2.1787236
6.1856537,4.47821,-0.3160819,0.43096617,0.3272364,1.6424223,-9.016563,-2.0973208
6.1857333,4.477953,-0.3160819,0.43096617,0.3272364,1.6424223,-9.016563,-2.0973208
6.185804,4.4777026,-0.29371136,0.41072613,0.31445324,1.661576,-8.90643,-2.1404164
6.185875,4.4774523,-0.29371136,0.41072613,0.31445324,1.661576,-8.90643,-2.1404164
6.185936,4.4772134,-0.2713408,0.39261663,0.30060482,1.5993267,-8.791509,-2.1691468
6.1859975,4.4769745,-0.2713408,0.39261663,0.30060482,1.5993267,-8.791509,-2.1691468
6.1860533,4.476739,-0.25110078,0.37344187,0.28782162,1.6136919,-8.724471,-2.2361844
6.186109,4.4765043,-0.25110078,0.37344187,0.28782162,1.6136919,-8.724471,-2.2361844
6.186154,4.4762907,-0.23086074,0.35426712,0.27290794,1.6472107,-8.710106,-2.2218192
6.1861987,4.476077,-0.23086074,0.35426712,0.27290794,1.6472107,-8.710106,-2.2218192
6.1862354,4.4758806,-0.21275125,0.33722287,0.26119003,1.6232687,-8.66701,-2.1978772
6.1862717,4.4756875,-0.21275125,0.33722287,0.26119003,1.6232687,-8.66701,-2.1978772
6.186306,4.4755087,-0.19570702,0.32017866,0.25479844,1.6280571,-8.6813755,-2.1978772
6.18634,4.4753313,-0.19570702,0.32017866,0.25479844,1.6280571,-8.6813755,-2.1978772
6.186369,4.475175,-0.18292385,0.3031344,0.24734159,1.5658079,-8.710106,-2.1452048
6.1863985,4.475018,-0.18292385,0.3031344,0.24734159,1.5658079,-8.710106,-2.1452048
6.1864266,4.4748683,-0.16907541,0.28822073,0.24201526,1.541866,-8.686164,-2.1691468
6.186455,4.4747186,-0.16907541,0.28822073,0.24201526,1.541866,-8.686164,-2.1691468
6.186486,4.474589,-0.15629223,0.27330703,0.24201526,1.5035586,-8.748413,-2.1404164
6.186517,4.4744596,-0.15629223,0.27330703,0.24201526,1.5035586,-8.748413,-2.1404164
6.1865535,4.474335,-0.1456396,0.25732806,0.2441458,1.4796166,-8.7292595,-2.1547816
6.1865907,4.4742107,-0.1456396,0.25732806,0.2441458,1.4796166,-8.7292595,-2.1547816
6.1866364,4.474088,-0.13285641,0.24134909,0.24840684,1.3742718,-8.748413,-2.1930888
6.186682,4.473965,-0.13285641,0.24134909,0.24840684,1.3742718,-8.748413,-2.1930888
6.186738,4.4738774,-0.121138506,0.22430485,0.25479844,1.3503298,-8.767567,-2.1068976
6.1867933,4.4737906,-0.121138506,0.22430485,0.25479844,1.3503298,-8.767567,-2.1068976
6.186862,4.4736977,-0.11048587,0.20619535,0.26438582,1.3215994,-8.815451,-2.1691468
6.18693,4.473605,-0.11048587,0.20619535,0.26438582,1.3215994,-8.815451,-2.1691468
6.187013,4.4735293,-0.09876795,0.1870206,0.27503845,1.3599066,-8.801085,-2.1452048
6.1870966,4.473454,-0.09876795,0.1870206,0.27503845,1.3599066,-8.801085,-2.1452048
6.187197,4.473386,-0.08705004,0.1657153,0.28782162,1.388637,-8.820239,-2.15957
6.1872973,4.473318,-0.08705004,0.1657153,0.28782162,1.388637,-8.820239,-2.15957
6.187415,4.4732656,-0.07426687,0.14334476,0.29953954,1.3838485,-8.825027,-2.1452048
6.1875324,4.473213,-0.07426687,0.14334476,0.29953954,1.3838485,-8.825027,-2.1452048
6.187669,4.4731817,-0.060418434,0.1209742,0.3123227,1.388637,-8.848969,-2.1164744
6.187805,4.4731507,-0.060418434,0.1209742,0.3123227,1.388637,-8.848969,-2.1164744
6.187959,4.47313,-0.045504734,0.09647312,0.32510588,1.436521,-8.791509,-2.1068976
6.1881137,4.47311,-0.045504734,0.09647312,0.32510588,1.436521,-8.791509,-2.1068976
6.188286,4.4730897,-0.031656295,0.071972035,0.33788908,1.5370775,-8.686164,-2.135628
6.188457,4.473069,-0.031656295,0.071972035,0.33788908,1.5370775,-8.686164,-2.135628
6.188666,4.473053,-0.01674259,0.047470953,0.3485417,1.5658079,-8.643068,-2.15957
6.188837,4.47304,-0.01674259,0.047470953,0.3485417,1.5658079,-8.643068,-2.15957
6.1890426,4.4730186,-0.0028941538,0.024035135,0.36132488,1.5801731,-8.580819,-2.255338
6.189251,4.4729977,-0.0028941538,0.024035135,0.36132488,1.5801731,-8.580819,-2.255338
6.1894813,4.4729795,0.012019549,0.0016645822,0.37410805,1.6424223,-8.580819,-2.336741
6.189712,4.4729614,0.012019549,0.0016645822,0.37410805,1.6424223,-8.580819,-2.336741
6.1899633,4.47295,0.023737457,-0.018575443,0.38689122,1.6759412,-8.576031,-2.3702598
6.1902127,4.4729385,0.023737457,-0.018575443,0.38689122,1.6759412,-8.576031,-2.3702598
6.19048,4.472935,0.03545537,-0.035619672,0.40073967,1.7238252,-8.446744,-2.3798366
6.190749,4.472932,0.03545537,-0.035619672,0.40073967,1.7238252,-8.446744,-2.3798366
6.1910453,4.472928,0.04823854,-0.052663904,0.41565338,1.757344,-8.51857,-2.528277
6.1913395,4.472924,0.04823854,-0.052663904,0.41565338,1.757344,-8.51857,-2.528277
6.191655,4.4729285,0.058891185,-0.066512346,0.43163234,1.8100165,-8.408437,-2.542642
6.1919694,4.4729333,0.058891185,-0.066512346,0.43163234,1.8100165,-8.408437,-2.542642
6.1923084,4.4729395,0.06954383,-0.077164985,0.44654605,1.9057846,-8.422802,-2.7150247
6.1926503,4.472946,0.06954383,-0.077164985,0.44654605,1.9057846,-8.422802,-2.7150247
6.19301,4.4729533,0.07913121,-0.08462184,0.45826393,1.9009962,-8.360553,-2.8443117
6.193371,4.472961,0.07913121,-0.08462184,0.45826393,1.9009962,-8.360553,-2.8443117
6.1937485,4.472977,0.089783855,-0.08888289,0.4721124,1.9967642,-8.312668,-2.9352913
6.194124,4.472994,0.089783855,-0.08888289,0.4721124,1.9967642,-8.312668,-2.9352913
6.1945233,4.473016,0.1004365,-0.091013424,0.4870261,1.9632454,-8.264784,-3.0358477
6.1945233,4.473016,0.1004365,-0.091013424,0.4870261,1.9632454,-8.264784,-3.0358477
6.195445,4.473069,0.11108914,-0.08994816,0.5008745,2.0590134,-8.1642275,-3.1124623
6.195808,4.473098,0.11108914,-0.08994816,0.5008745,2.0590134,-8.1642275,-3.1124623
6.195808,4.473098,0.11108914,-0.08994816,0.5008745,2.0590134,-8.1642275,-3.1124623
6.196687,4.47319,0.122807056,-0.0856871,0.51472294,2.0638018,-8.0924015,-3.122039
6.1970425,4.473233,0.13452496,-0.078230254,0.53283244,2.0350714,-8.073248,-3.1747115
6.197489,4.4732885,0.13452496,-0.078230254,0.53283244,2.0350714,-8.073248,-3.1747115
6.1979795,4.4733577,0.1451776,-0.066512346,0.5520072,1.9967642,-8.030152,-3.2034419
6.198401,4.473417,0.1451776,-0.066512346,0.5520072,1.9967642,-8.030152,-3.2034419
6.198401,4.473417,0.1451776,-0.066512346,0.5520072,1.9967642,-8.030152,-3.2034419
6.1994066,4.473567,0.15476498,-0.04946811,0.5765083,1.8962077,-8.034941,-3.2513258
6.199886,4.4736414,0.16115656,-0.031358615,0.6084662,1.8100165,-8.039729,-3.2034419
6.200401,4.4737215,0.16115656,-0.031358615,0.6084662,1.8100165,-8.039729,-3.2034419
6.20096,4.4738026,0.16541763,-0.011118591,0.6425547,1.661576,-8.0445175,-3.3423057
6.201523,4.4738846,0.16541763,-0.011118591,0.6425547,1.661576,-8.0445175,-3.3423057
6.2021227,4.4739676,0.16541763,0.011251962,0.68410003,1.5514427,-8.101978,-3.3087866
6.20272,4.47405,0.16541763,0.011251962,0.68410003,1.5514427,-8.101978,-3.3087866
6.203372,4.474129,0.16222183,0.033622514,0.7320369,1.3263878,-8.130709,-3.2225955
6.204024,4.474209,0.16222183,0.033622514,0.7320369,1.3263878,-8.130709,-3.2225955
6.204773,4.4742765,0.15476498,0.053862542,0.78743064,0.7230489,-8.001422,-3.371036
6.2055216,4.474344,0.15476498,0.053862542,0.78743064,0.7230489,-8.001422,-3.371036
6.2063274,4.4744034,0.1451776,0.06771098,0.85028124,0.7469909,-8.015787,-3.514688
6.2071323,4.4744625,0.1451776,0.06771098,0.85028124,0.7469909,-8.015787,-3.514688
6.2079844,4.4745126,0.13239443,0.07729836,0.9237845,1.0486604,-8.058883,-3.4811692
6.208836,4.4745626,0.13239443,0.07729836,0.9237845,1.0486604,-8.058883,-3.4811692
6.209761,4.474599,0.11748073,0.087951005,0.998353,0.9959879,-8.010999,-3.5098996
6.2106857,4.474634,0.11748073,0.087951005,0.998353,0.9959879,-8.010999,-3.5098996
6.211689,4.4746556,0.102567025,0.09966891,1.070791,0.8379706,-7.8625584,-3.6391866
6.212692,4.4746766,0.102567025,0.09966891,1.070791,0.8379706,-7.8625584,-3.6391866
6.21376,4.4746814,0.08552279,0.104995236,1.1442943,0.91458505,-7.714118,-3.6822822
6.214827,4.4746857,0.08552279,0.104995236,1.1442943,0.91458505,-7.714118,-3.6822822
6.2159634,4.47467,0.06421751,0.10925629,1.2177975,0.94331545,-7.4746976,-3.7828386
6.217099,4.4746532,0.06421751,0.10925629,1.2177975,0.94331545,-7.4746976,-3.7828386
6.218301,4.4746127,0.039716423,0.11032156,1.2891703,1.0295067,-7.393295,-3.8307228
6.219499,4.4745717,0.039716423,0.11032156,1.2891703,1.0295067,-7.393295,-3.8307228
6.220754,4.474503,0.00988902,0.11351735,1.3552166,1.1587936,-7.3549876,-3.7684734
6.2220087,4.474434,0.00988902,0.11351735,1.3552166,1.1587936,-7.3549876,-3.7684734
6.2233157,4.4743366,-0.021003649,0.117778406,1.4201977,1.2880806,-7.441179,-3.6631286
6.2246222,4.4742393,-0.021003649,0.117778406,1.4201977,1.2880806,-7.441179,-3.6631286
6.225977,4.4741125,-0.052961584,0.12523526,1.4809178,1.4221559,-7.441179,-3.596091
6.227331,4.473985,-0.052961584,0.12523526,1.4809178,1.4221559,-7.441179,-3.596091
6.228727,4.47383,-0.08705004,0.1358879,1.5416379,1.6184803,-7.4363904,-3.442862
6.2301216,4.4736743,-0.08705004,0.1358879,1.5416379,1.6184803,-7.4363904,-3.442862
6.2315674,4.473487,-0.120073244,0.1476058,1.5991622,1.6519991,-7.445967,-3.442862
6.2330127,4.473299,-0.120073244,0.1476058,1.5991622,1.6519991,-7.445967,-3.442862
6.2344937,4.4730854,-0.15309644,0.16358478,1.6534907,1.7669208,-7.5225816,-3.2561142
6.2359743,4.472871,-0.15309644,0.16358478,1.6534907,1.7669208,-7.5225816,-3.2561142
6.2374945,4.4726286,-0.18398911,0.18062901,1.7035581,1.8291701,-7.489063,-3.2082303
6.239014,4.4723864,-0.18398911,0.18062901,1.7035581,1.8291701,-7.489063,-3.2082303
6.240571,4.4721174,-0.21168599,0.19767325,1.7493645,1.8579005,-7.3406224,-3.1555579
6.2421274,4.4718485,-0.21168599,0.19767325,1.7493645,1.8579005,-7.3406224,-3.1555579
6.243724,4.4715557,-0.23618707,0.21365221,1.7962362,1.8052281,-7.177817,-3.0550013
6.24532,4.471263,-0.23618707,0.21365221,1.7962362,1.8052281,-7.177817,-3.0550013
6.2469563,4.47095,-0.25749236,0.22750065,1.8452382,1.8674773,-7.1251445,-3.0262709
6.248592,4.4706373,-0.25749236,0.22750065,1.8452382,1.8674773,-7.1251445,-3.0262709
6.2502584,4.4703197,-0.27347133,0.2381533,1.8953058,2.2649148,-7.038953,-2.920926
6.2519245,4.4700017,-0.27347133,0.2381533,1.8953058,2.2649148,-7.038953,-2.920926
6.2536316,4.469676,-0.2862545,0.2498712,1.9464384,2.4181437,-6.861782,-2.8299465
6.2553387,4.469349,-0.2862545,0.2498712,1.9464384,2.4181437,-6.861782,-2.8299465
6.2570853,4.46902,-0.29690716,0.26371965,1.9965059,2.3750482,-6.789956,-2.6001031
6.258831,4.4686894,-0.29690716,0.26371965,1.9965059,2.3750482,-6.789956,-2.6001031
6.260621,4.468354,-0.30649453,0.27863333,2.0487037,2.3175871,-6.7468605,-2.4660277
6.2624106,4.4680176,-0.30649453,0.27863333,2.0487037,2.3175871,-6.7468605,-2.4660277
6.26425,4.4676833,-0.31075558,0.29354703,2.106228,2.231396,-6.7229185,-2.3175871
6.266088,4.467347,-0.31075558,0.29354703,2.106228,2.231396,-6.7229185,-2.3175871
6.267981,4.4670057,-0.31714717,0.31165653,2.1680133,2.2984335,-6.6989765,-2.3080103
6.2698736,4.4666624,-0.31714717,0.31165653,2.1680133,2.2984335,-6.6989765,-2.3080103
6.2718234,4.4663134,-0.32460403,0.3308313,2.2329946,2.303222,-6.6989765,-2.2697031
6.273773,4.4659634,-0.32460403,0.3308313,2.2329946,2.303222,-6.6989765,-2.2697031
6.275782,4.465596,-0.33632192,0.35320187,2.299041,2.27928,-6.6989765,-2.336741
6.2777905,4.465227,-0.33632192,0.35320187,2.299041,2.27928,-6.6989765,-2.336741
6.279857,4.4648438,-0.35123563,0.3787682,2.3661525,2.1643584,-6.6846113,-2.2840683
6.2819233,4.4644585,-0.35123563,0.3787682,2.3661525,2.1643584,-6.6846113,-2.2840683
0.0008828637,4.464047,-0.36827987,0.4053998,2.4375253,1.8866309,-6.7229185,-2.2936451
0.0030337784,4.463632,-0.36827987,0.4053998,2.4375253,1.8866309,-6.7229185,-2.2936451
0.0051933513,4.4632015,-0.38851988,0.43096617,2.508898,1.6998832,-6.7612257,-2.3319526
0.0073851007,4.462762,-0.38851988,0.43096617,2.508898,1.6998832,-6.7612257,-2.3319526
0.009639476,4.4622984,-0.40982518,0.45120618,2.5845318,1.388637,-6.823475,-2.2744915
0.011924614,4.4618263,-0.40982518,0.45120618,2.5845318,1.388637,-6.823475,-2.2744915
0.014269077,4.4613266,-0.43113047,0.46185884,2.662296,1.2258313,-6.8282633,-2.327164
0.016841577,4.4607754,-0.43113047,0.46185884,2.662296,1.2258313,-6.8282633,-2.327164
0.019048456,4.4603024,-0.44923997,0.46718514,2.7453868,1.1683705,-6.8043213,-2.2505496
0.021416131,4.4597926,-0.44923997,0.46718514,2.7453868,1.1683705,-6.8043213,-2.2505496
0.023898462,4.4592614,-0.46415368,0.46825042,2.8327384,1.2066777,-6.751649,-2.207454
0.026399735,4.458724,-0.46415368,0.46825042,2.8327384,1.2066777,-6.751649,-2.207454
0.028976925,4.45817,-0.47906736,0.46505463,2.9211555,1.2162545,-6.7612257,-2.231396
0.031573687,4.457608,-0.47906736,0.46505463,2.9211555,1.2162545,-6.7612257,-2.231396
0.034220148,4.457035,-0.4929158,0.46079355,3.0117028,1.292869,-6.7085533,-2.2888567
0.036876164,4.456457,-0.4929158,0.46079355,3.0117028,1.292869,-6.7085533,-2.2888567
0.03962464,4.45587,-0.5046337,0.45333672,3.0990546,1.3694834,-6.670246,-2.1930888
0.042366643,4.4552813,-0.5046337,0.45333672,3.0990546,1.3694834,-6.670246,-2.1930888
0.045199484,4.4546757,-0.5152864,0.44374934,3.185341,1.4556746,-6.6079965,-2.2218192
0.048031297,4.454067,-0.5152864,0.44374934,3.185341,1.4556746,-6.6079965,-2.2218192
0.05094294,4.453452,-0.5238085,0.43522722,3.2684317,1.4748282,-6.540959,-2.1260512
0.05385362,4.4528337,-0.5238085,0.43522722,3.2684317,1.4748282,-6.540959,-2.1260512
0.056856364,4.4522095,-0.5312653,0.42563984,3.3451307,1.5227122,-6.4547677,-1.9776106
0.059828393,4.4515877,-0.5312653,0.42563984,3.3451307,1.5227122,-6.4547677,-1.9776106
0.06288687,4.450948,-0.5408527,0.41392192,3.4196992,1.5801731,-6.2967505,-1.9776106
0.06594446,4.4503045,-0.5408527,0.41392192,3.4196992,1.5801731,-6.2967505,-1.9776106
0.069073856,4.449644,-0.55257064,0.40433455,3.4921372,1.6903064,-6.1195793,-1.9680338
0.07220235,4.4489794,-0.55257064,0.40433455,3.4921372,1.6903064,-6.1195793,-1.9680338
0.0753998,4.448298,-0.5653538,0.3936819,3.5613792,1.8866309,-5.8705826,-1.910573
0.07859634,4.4476132,-0.5653538,0.3936819,3.5613792,1.8866309,-5.8705826,-1.910573
0.081856765,4.4469023,-0.58133274,0.37983346,3.6274257,1.9919758,-5.5497594,-1.9536686
0.08511949,4.4461865,-0.58133274,0.37983346,3.6274257,1.9919758,-5.5497594,-1.9536686
0.08845246,4.4454393,-0.6047686,0.36278924,3.692407,2.135628,-5.1235914,-1.9201498
0.09178106,4.4446883,-0.6047686,0.36278924,3.692407,2.135628,-5.1235914,-1.9201498
0.095177956,4.4438934,-0.63566124,0.34041867,3.7563226,2.2888567,-4.7309427,-2.0446482
0.09857377,4.4430933,-0.63566124,0.34041867,3.7563226,2.2888567,-4.7309427,-2.0446482
0.10203858,4.4422383,-0.67827183,0.31698287,3.8202386,2.3798366,-4.3287168,-2.1547816
0.105498694,4.4413795,-0.67827183,0.31698287,3.8202386,2.3798366,-4.3287168,-2.1547816
0.10903243,4.4404545,-0.7336656,0.29461232,3.886285,2.3080103,-3.98874,-2.1643584
0.112578906,4.439521,-0.7336656,0.29461232,3.886285,2.3080103,-3.98874,-2.1643584
0.116198815,4.4385138,-0.8018425,0.27437228,3.9544618,2.1260512,-3.7828386,-2.0207062
0.119792104,4.4375086,-0.8018425,0.27437228,3.9544618,2.1260512,-3.7828386,-2.0207062
0.123449855,4.4364214,-0.8796068,0.25626278,4.0290303,1.8387469,-3.620033,-1.9057846
0.12709504,4.435333,-0.8796068,0.25626278,4.0290303,1.8387469,-3.620033,-1.9057846
0.13077162,4.434229,-0.8796068,0.25626278,4.0290303,1.8387469,-3.620033,-1.9057846
0.13456896,4.4330225,-0.9637627,0.23921856,4.1089253,1.5179238,-3.5242648,-1.7381904
0.13839425,4.431737,-1.0543102,0.22323959,4.1973424,1.1109096,-3.4763808,-1.5945383
0.14223278,4.430441,-1.0543102,0.22323959,4.1973424,1.1109096,-3.4763808,-1.5945383
0.14613706,4.4290514,-1.1491187,0.20939115,4.2942815,0.6751649,-3.4715924,-1.4700398
0.15010178,4.427634,-1.1491187,0.20939115,4.2942815,0.6751649,-3.4715924,-1.4700398
0.1541617,4.4260974,-1.2439272,0.19767325,4.401873,0.24899697,-3.5051112,-1.5945383
0.158218,4.424556,-1.2439272,0.19767325,4.401873,0.24899697,-3.5051112,-1.5945383
0.16226673,4.42301,-1.2439272,0.19767325,4.401873,0.24899697,-3.5051112,-1.5945383
0.16646561,4.421339,-1.3376706,0.18915112,4.522248,-0.18674773,-3.5051112,-1.532289
0.1706592,4.419662,-1.3376706,0.18915112,4.522248,-0.18674773,-3.5051112,-1.532289
0.17504354,4.417861,-1.428218,0.18275954,4.6543407,-0.545878,-3.4476504,-1.6950948
0.17942202,4.4160523,-1.428218,0.18275954,4.6543407,-0.545878,-3.4476504,-1.6950948
0.18396628,4.414143,-1.5113087,0.17423743,4.7949557,-0.7374141,-3.2800562,-1.7621324
0.18850967,4.4122224,-1.5113087,0.17423743,4.7949557,-0.7374141,-3.2800562,-1.7621324
0.19318187,4.4102097,-1.5858772,0.16784583,4.945158,-0.6607997,-3.0310593,-1.9728222
0.19784418,4.4081893,-1.5858772,0.16784583,4.945158,-0.6607997,-3.0310593,-1.9728222
0.2026437,4.4060698,-1.6583151,0.1689111,5.102817,-0.37349546,-2.72939,-2.0446482
0.2074188,4.403949,-1.6583151,0.1689111,5.102817,-0.37349546,-2.72939,-2.0446482
0.21231051,4.4017363,-1.7254268,0.1838248,5.2658024,0.24899697,-2.4660277,-2.1978772
0.21719699,4.3995132,-1.7254268,0.1838248,5.2658024,0.24899697,-2.4660277,-2.1978772
0.22222145,4.397188,-1.7936037,0.21791327,5.426657,0.4309563,-2.2601264,-2.456451
0.22724041,4.3948503,-1.7936037,0.21791327,5.426657,0.4309563,-2.2601264,-2.456451
0.23241767,4.3923907,-1.8671069,0.27011123,5.5779247,-0.07182605,-2.1021092,-2.777274
0.23758893,4.3899174,-1.8671069,0.27011123,5.5779247,-0.07182605,-2.1021092,-2.777274
0.24290077,4.3873196,-1.9480671,0.32870078,5.723866,-0.521936,-2.0446482,-2.9831753
0.24820608,4.3847055,-1.9480671,0.32870078,5.723866,-0.521936,-2.0446482,-2.9831753
0.25365415,4.3819633,-2.0343535,0.38729033,5.8666115,-1.1875241,-2.0685902,-3.2321723
0.25909498,4.379203,-2.0343535,0.38729033,5.8666115,-1.1875241,-2.0685902,-3.2321723
0.2646642,4.376309,-2.1270316,0.44587985,6.0029655,-1.8483237,-2.1452048,-3.4763808
0.27022567,4.373396,-2.1270316,0.44587985,6.0029655,-1.8483237,-2.1452048,-3.4763808
0.27590543,4.3703403,-2.2271664,0.4980778,6.1361237,-2.4995465,-2.15957,-3.821146
0.2815768,4.3672643,-2.2271664,0.4980778,6.1361237,-2.4995465,-2.15957,-3.821146
0.28741208,4.3640113,-2.3315623,0.5385579,6.2692814,-3.0933087,-2.2266076,-4.295198
0.28741208,4.3640113,-2.3315623,0.5385579,6.2692814,-3.0933087,-2.2266076,-4.295198
0.2991282,4.3573685,-2.4444802,0.56732,6.3971133,-3.643975,-2.3080103,-4.4963107
0.3048738,4.35402,-2.4444802,0.56732,6.3971133,-3.643975,-2.3080103,-4.4963107
0.3108819,4.3504252,-2.5627246,0.58436424,6.521749,-4.2042184,-2.4899697,-4.6591167
0.31652704,4.3470173,-2.5627246,0.58436424,6.521749,-4.2042184,-2.4899697,-4.6591167
0.32262617,4.3432446,-2.6820343,0.58649474,6.642124,-4.5394063,-2.6288335,-4.6495395
0.33259785,4.337,-2.6820343,0.58649474,6.642124,-4.5394063,-2.6288335,-4.6495395
0.3350918,4.3354044,-2.7981482,0.57584214,6.7571726,-4.865018,-2.791639,-4.4723687
0.34124368,4.331444,-2.7981482,0.57584214,6.7571726,-4.865018,-2.791639,-4.4723687
0.34755313,4.327304,-2.911066,0.5609284,6.863699,-5.1235914,-3.0693667,-4.1371803
0.34755313,4.327304,-2.911066,0.5609284,6.863699,-5.1235914,-3.0693667,-4.1371803
0.35987,4.3190994,-3.015462,0.5492105,6.960638,-5.5497594,-3.3087866,-3.6391866
0.36631662,4.31472,-3.015462,0.5492105,6.960638,-5.5497594,-3.3087866,-3.6391866
0.37279737,4.310244,-3.1113358,0.5524063,7.0469246,-6.2009826,-3.715801,-3.241749
0.3799319,4.305212,-3.1986876,0.5726463,7.1161666,-7.0964136,-4.189853,-2.96881
0.38562855,4.301152,-3.1986876,0.5726463,7.1161666,-7.0964136,-4.189853,-2.96881
0.39201146,4.2965593,-3.1986876,0.5726463,7.1161666,-7.0964136,-4.189853,-2.96881
0.39843944,4.291809,-3.2839086,0.61419165,7.1683645,-8.082825,-4.76925,-2.8491
0.40485695,4.2870154,-3.2839086,0.61419165,7.1683645,-8.082825,-4.76925,-2.8491
0.4112387,4.2820897,-3.36913,0.675977,7.1992574,-9.260772,-5.497087,-2.944868
0.41762796,4.2771034,-3.36913,0.675977,7.1992574,-9.260772,-5.497087,-2.944868
0.42396414,4.271967,-3.4554162,0.74948025,7.2088447,-10.328587,-6.325481,-3.4093432
0.4302806,4.2667885,-3.4554162,0.74948025,7.2088447,-10.328587,-6.325481,-3.4093432
0.43653217,4.2614536,-3.538507,0.82404876,7.193931,-11.597513,-7.216124,-3.9791632
0.44275635,4.256081,-3.538507,0.82404876,7.193931,-11.597513,-7.216124,-3.9791632
0.4489008,4.2505493,-3.6226628,0.8911604,7.153451,-12.842498,-8.12592,-4.711789
0.4550229,4.2449718,-3.6226628,0.8911604,7.153451,-12.842498,-8.12592,-4.711789
0.4610737,4.239225,-3.7036228,0.94122785,7.08847,-13.599066,-9.006987,-5.559336
0.46752125,4.23285,-3.7760608,0.9731858,7.000053,-14.116213,-9.916783,-6.277597
0.47287798,4.22749,-3.7760608,0.9731858,7.000053,-14.116213,-9.916783,-6.277597
0.4788223,4.221472,-3.7760608,0.9731858,7.000053,-14.116213,-9.916783,-6.277597
0.48445228,4.21555,-3.8325198,0.99449104,6.8850045,-14.350845,-10.697293,-6.8522053
0.49013153,4.209504,-3.8325198,0.99449104,6.8850045,-14.350845,-10.697293,-6.8522053
0.49565557,4.2034097,-3.8676736,0.99768686,6.742259,-13.972561,-11.295844,-7.455544
0.5011928,4.197226,-3.8676736,0.99768686,6.742259,-13.972561,-11.295844,-7.455544
0.50653726,4.1910534,-3.8783262,0.99236053,6.570751,-13.053187,-11.683704,-7.699753
0.51184535,4.184849,-3.8783262,0.99236053,6.570751,-13.053187,-11.683704,-7.699753
0.5169953,4.178622,-3.8591516,0.9849037,6.36409,-12.258312,-12.023681,-7.9870567
0.52206904,4.172415,-3.8591516,0.9849037,6.36409,-12.258312,-12.023681,-7.9870567
0.5269389,4.1662455,-3.8080187,0.9827731,6.119079,-11.645397,-12.310986,-8.173804
0.53177977,4.160043,-3.8080187,0.9827731,6.119079,-11.645397,-12.310986,-8.173804
0.53635293,4.1539626,-3.7291892,0.9774468,5.8367844,-10.994174,-12.545617,-8.365341
0.54088056,4.147878,-3.7291892,0.9774468,5.8367844,-10.994174,-12.545617,-8.365341
0.5451545,4.1419263,-3.6247933,0.9646636,5.529988,-10.333375,-12.684481,-8.403648
0.5494457,4.135894,-3.6247933,0.9646636,5.529988,-10.333375,-12.684481,-8.403648
0.5533479,4.1300325,-3.5001574,0.9486847,5.2018867,-9.476251,-12.344504,-8.48984
0.5571945,4.1241837,-3.5001574,0.9486847,5.2018867,-9.476251,-12.344504,-8.48984
0.560725,4.118506,-3.3606076,0.94974995,4.8588715,-9.251195,-11.894394,-8.532935
0.56428707,4.1126957,-3.3606076,0.94974995,4.8588715,-9.251195,-11.894394,-8.532935
0.5675209,4.107268,-3.2082748,0.97638154,4.507334,-9.485827,-11.453861,-8.384495
0.5707392,4.101815,-3.2082748,0.97638154,4.507334,-9.485827,-11.453861,-8.384495
0.573681,4.0966287,-3.0442243,1.0115353,4.1536665,-9.619903,-11.061212,-8.12592
0.5766096,4.0914288,-3.0442243,1.0115353,4.1536665,-9.619903,-11.061212,-8.12592
0.57922864,4.0864973,-2.873782,1.0339059,3.8085206,-9.174581,-10.5919485,-7.819463
0.5818333,4.0815663,-2.873782,1.0339059,3.8085206,-9.174581,-10.5919485,-7.819463
0.5841393,4.0768776,-2.6990786,1.0434933,3.4740276,-8.7053175,-9.844957,-7.503428
0.58643675,4.0721836,-2.6990786,1.0434933,3.4740276,-8.7053175,-9.844957,-7.503428
0.5884578,4.067815,-2.52331,1.0605375,3.1501873,-8.805874,-9.332599,-7.101202
0.59046626,4.063442,-2.52331,1.0605375,3.1501873,-8.805874,-9.332599,-7.101202
0.5922059,4.0593395,-2.3496718,1.0850385,2.846587,-8.7053175,-8.738836,-6.7564373
0.59393406,4.055232,-2.3496718,1.0850385,2.846587,-8.7053175,-8.738836,-6.7564373
0.59541374,4.0513597,-2.1802948,1.1084744,2.5621612,-8.494628,-8.106767,-6.6079965
0.59688413,4.0474834,-2.1802948,1.1084744,2.5621612,-8.494628,-8.106767,-6.6079965
0.59812224,4.0438485,-2.0173092,1.1329755,2.299041,-8.418014,-7.5465236,-6.4068837
0.59935206,4.0402107,-2.0173092,1.1329755,2.299041,-8.418014,-7.5465236,-6.4068837
0.6003678,4.036798,-1.8660417,1.1617376,2.0593565,-8.374918,-7.1730285,-6.2823853
0.6013762,4.0333834,-1.8660417,1.1617376,2.0593565,-8.374918,-7.1730285,-6.2823853
0.60219747,4.0301743,-1.7275573,1.1883692,1.8494993,-8.504205,-6.8809357,-6.196194
0.6030113,4.0269666,-1.7275573,1.1883692,1.8494993,-8.504205,-6.8809357,-6.196194
0.6036645,4.023946,-1.6050519,1.2139355,1.6726655,-8.781932,-6.6606693,-6.14831
0.6043122,4.0209208,-1.6050519,1.2139355,1.6726655,-8.781932,-6.6606693,-6.14831
0.60483533,4.0180435,-1.4963949,1.2341756,1.5331157,-9.136273,-6.5265937,-6.090849
0.60534835,4.0151906,-1.4963949,1.2341756,1.5331157,-9.136273,-6.5265937,-6.090849
0.60577476,4.0124555,-1.4037169,1.2501545,1.4393725,-9.356541,-6.4164605,-6.0525417
0.6061967,4.0097146,-1.4037169,1.2501545,1.4393725,-9.356541,-6.4164605,-6.0525417
0.6065625,4.007079,-1.3259526,1.2618724,1.385044,-9.586384,-6.3206925,-5.923255
0.60692346,4.0044413,-1.3259526,1.2618724,1.385044,-9.586384,-6.3206925,-5.923255
0.60725933,4.001879,-1.2599062,1.268264,1.3658693,-9.816227,-6.2345014,-5.770026
0.6075902,3.9993167,-1.2599062,1.268264,1.3658693,-9.816227,-6.2345014,-5.770026
0.607922,3.996793,-1.2098387,1.2714598,1.376522,-9.883265,-6.143522,-5.631162
0.6082473,3.9942813,-1.2098387,1.2714598,1.376522,-9.883265,-6.143522,-5.631162
0.60859436,3.9917994,-1.170424,1.2671988,1.4106103,-9.974244,-6.129156,-5.434838
0.60893685,3.9893143,-1.170424,1.2671988,1.4106103,-9.974244,-6.129156,-5.434838
0.6093241,3.9868417,-1.1405966,1.2533504,1.4660041,-9.931149,-5.971139,-5.2480903
0.60970646,3.9843678,-1.1405966,1.2533504,1.4660041,-9.931149,-5.971139,-5.2480903
0.61014664,3.9818997,-1.1192913,1.2299145,1.5309852,-9.782708,-5.8226986,-5.023035
0.610585,3.9794111,-1.1192913,1.2299145,1.5309852,-9.782708,-5.8226986,-5.023035
0.61108685,3.9769378,-1.1054429,1.2000871,1.6012927,-9.591172,-5.583278,-4.8602295
0.6115836,3.974463,-1.1054429,1.2000871,1.6012927,-9.591172,-5.583278,-4.8602295
0.61214745,3.9719896,-1.0969207,1.1649333,1.6705348,-9.361329,-5.3965306,-4.654328
0.61270857,3.9695044,-1.0969207,1.1649333,1.6705348,-9.361329,-5.3965306,-4.654328
0.61334115,3.9670029,-1.0905292,1.1244533,1.7333854,-9.074024,-5.142745,-4.572925
0.6139647,3.9645145,-1.0905292,1.1244533,1.7333854,-9.074024,-5.142745,-4.572925
0.6146537,3.96201,-1.0873333,1.082908,1.7866488,-8.671799,-4.865018,-4.4915223
0.6153383,3.9595008,-1.0873333,1.082908,1.7866488,-8.671799,-4.865018,-4.4915223
0.6160814,3.9569788,-1.0873333,1.0402974,1.8303245,-8.350976,-4.5633483,-4.3239284
0.6168157,3.9544663,-1.0873333,1.0402974,1.8303245,-8.350976,-4.5633483,-4.3239284
0.6175969,3.9519541,-1.089464,0.99768686,1.8622825,-8.020576,-4.295198,-4.333505
0.61837626,3.9494288,-1.089464,0.99768686,1.8622825,-8.020576,-4.295198,-4.333505
0.61919296,3.9469006,-1.0947902,0.9550763,1.8782614,-7.809886,-4.0653543,-4.333505
0.62000424,3.9443698,-1.0947902,0.9550763,1.8782614,-7.809886,-4.0653543,-4.333505
0.6208436,3.9418387,-1.1033124,0.9124657,1.8814572,-7.690176,-3.892972,-4.4005427
0.62167805,3.9393039,-1.1033124,0.9124657,1.8814572,-7.690176,-3.892972,-4.4005427
0.6225343,3.9367738,-1.1160955,0.8677246,1.8750657,-7.6949644,-3.7828386,-4.4580035
0.62338555,3.9342403,-1.1160955,0.8677246,1.8750657,-7.6949644,-3.7828386,-4.4580035
0.6242563,3.931721,-1.1320745,0.8176572,1.860152,-7.7811556,-3.7924154,-4.486734
0.6251223,3.9291983,-1.1320745,0.8176572,1.860152,-7.7811556,-3.7924154,-4.486734
0.6260031,3.926702,-1.1491187,0.7643939,1.8377814,-8.149862,-3.8546648,-4.4005427
0.6268801,3.9241998,-1.1491187,0.7643939,1.8377814,-8.149862,-3.8546648,-4.4005427
0.6277597,3.9217803,-1.1640325,0.7079349,1.8122151,-7.005434,-4.721366,-3.9217024
0.6286352,3.9193556,-1.1640325,0.7079349,1.8122151,-7.005434,-4.721366,-3.9217024
0.6295409,3.9168997,-1.170424,0.66106325,1.7962362,-9.11712,-4.0557775,-4.6926355
0.6304421,3.9144406,-1.170424,0.66106325,1.7962362,-9.11712,-4.0557775,-4.6926355
0.63137335,3.9119813,-1.1800114,0.6109958,1.7930403,-9.634268,-3.7349546,-4.9895163
0.63230026,3.9095187,-1.1800114,0.6109958,1.7930403,-9.634268,-3.7349546,-4.9895163
0.6332663,3.9071288,-1.2034472,0.5279052,1.783453,-8.422802,-4.8219223,-4.2185836
0.63422817,3.9047356,-1.2034472,0.5279052,1.783453,-8.422802,-4.8219223,-4.2185836
0.635228,3.9023793,-1.2226219,0.44587985,1.7642782,-8.920795,-5.1906295,-4.209007
0.6362234,3.9000201,-1.2226219,0.44587985,1.7642782,-8.920795,-5.1906295,-4.209007
0.6372432,3.8977005,-1.2322093,0.37983346,1.7397771,-9.26556,-5.473145,-4.285621
0.63826203,3.8953707,-1.2322093,0.37983346,1.7397771,-9.26556,-5.473145,-4.285621
0.63929594,3.8930933,-1.2343398,0.32017866,1.711015,-9.193734,-5.6790466,-4.3766007
0.6403272,3.8908103,-1.2343398,0.32017866,1.711015,-9.193734,-5.6790466,-4.3766007
0.6413605,3.8885727,-1.2354051,0.27437228,1.6758612,-9.41879,-6.081272,-4.4436383
0.64239,3.886332,-1.2354051,0.27437228,1.6758612,-9.41879,-6.081272,-4.4436383
0.6434086,3.884131,-1.2332746,0.24454488,1.6353812,-9.816227,-6.4882865,-4.6399627
0.6444237,3.8819273,-1.2332746,0.24454488,1.6353812,-9.816227,-6.4882865,-4.6399627
0.64542055,3.8797612,-1.2300788,0.22323959,1.5917053,-10.228029,-6.9144545,-4.9559975
0.646421,3.8775768,-1.2300788,0.22323959,1.5917053,-10.228029,-6.9144545,-4.9559975
0.6474329,3.8753648,-1.2279483,0.20086904,1.5437684,-10.630256,-7.297527,-5.363012
0.6483852,3.8732738,-1.2279483,0.20086904,1.5437684,-10.630256,-7.297527,-5.363012
0.6493068,3.8712435,-1.2236872,0.17423743,1.4830483,-10.94629,-7.9104424,-5.583278
0.6502424,3.869173,-1.2236872,0.17423743,1.4830483,-10.94629,-7.9104424,-5.583278
0.65116125,3.8671517,-1.2162304,0.14014897,1.4106103,-11.434708,-8.020576,-6.0046577
0.6520772,3.8651283,-1.2162304,0.14014897,1.4106103,-11.434708,-8.020576,-6.0046577
0.65297496,3.8631809,-1.202382,0.09434259,1.3264545,-11.224017,-7.771579,-6.3781533
0.6538712,3.86123,-1.202382,0.09434259,1.3264545,-11.224017,-7.771579,-6.3781533
0.65471464,3.8594155,-1.190664,0.032557253,1.2252543,-10.371682,-8.710106,-6.1004257
0.6555551,3.857601,-1.190664,0.032557253,1.2252543,-10.371682,-8.710106,-6.1004257
0.6563504,3.8558838,-1.1736197,-0.008988062,1.1240542,-11.104307,-9.821015,-5.6982
0.6571494,3.8541532,-1.1736197,-0.008988062,1.1240542,-11.104307,-9.821015,-5.6982
0.65789783,3.8525681,-1.1288787,-0.051598642,1.0196583,-11.133038,-10.204087,-5.6407394
0.658645,3.8509815,-1.1288787,-0.051598642,1.0196583,-11.133038,-10.204087,-5.6407394
0.65936697,3.8495696,-1.0489838,-0.11444924,0.9003487,-10.692505,-9.509769,-5.995081
0.66008997,3.8481526,-1.0489838,-0.11444924,0.9003487,-10.692505,-9.509769,-5.995081
0.66078293,3.8469362,-0.9552406,-0.17836511,0.7735822,-10.448297,-8.901642,-6.3446345
0.6614737,3.8457212,-0.9552406,-0.17836511,0.7735822,-10.448297,-8.901642,-6.3446345
0.6621225,3.8447053,-0.8625626,-0.23588939,0.63722837,-10.189722,-8.561666,-6.2488666
0.66277117,3.843688,-0.8625626,-0.23588939,0.63722837,-10.189722,-8.561666,-6.2488666
0.6634309,3.8427799,-0.77308035,-0.28808734,0.4923524,-9.749189,-8.394072,-6.042965
0.663972,3.8420343,-0.77308035,-0.28808734,0.4923524,-9.749189,-8.394072,-6.042965
0.66450095,3.8414319,-0.68040234,-0.33602425,0.34108487,-9.222465,-7.752425,-6.133945
0.66502136,3.840839,-0.68040234,-0.33602425,0.34108487,-9.222465,-7.752425,-6.133945
0.6664381,3.8397675,-0.505699,-0.38928747,0.024701312,-8.374918,-6.7085533,-6.2584434
0.6664381,3.8397675,-0.505699,-0.38928747,0.024701312,-8.374918,-6.7085533,-6.2584434
0.6664381,3.8397675,-0.505699,-0.38928747,0.024701312,-8.374918,-6.7085533,-6.2584434
0.66677636,3.8397038,-0.4300652,-0.391418,-0.13615362,-8.0684595,-6.3829417,-6.2488666
0.6669209,3.8396769,-0.4300652,-0.391418,-0.13615362,-8.0684595,-6.3829417,-6.2488666
0.6672009,3.839625,-0.4300652,-0.391418,-0.13615362,-8.0684595,-6.3829417,-6.2488666
0.66740155,3.8397303,-0.3618883,-0.38076535,-0.29487804,-7.843405,-6.1100025,-6.315904
0.6675685,3.8398185,-0.3618883,-0.38076535,-0.29487804,-7.843405,-6.1100025,-6.315904
0.66764975,3.8400433,-0.30010295,-0.35946006,-0.44614556,-7.666234,-5.889736,-6.3925185
0.6677312,3.8402689,-0.30010295,-0.35946006,-0.44614556,-7.666234,-5.889736,-6.3925185
0.66770595,3.8406088,-0.2383176,-0.32643688,-0.58676046,-7.6135616,-5.746084,-6.373365
0.6676808,3.840948,-0.2383176,-0.32643688,-0.58676046,-7.6135616,-5.746084,-6.373365
0.66756105,3.8413637,-0.17866279,-0.28702208,-0.71139646,-7.7189064,-5.568913,-6.4643445
0.66744107,3.8417785,-0.17866279,-0.28702208,-0.71139646,-7.7189064,-5.568913,-6.4643445
0.6672311,3.8422446,-0.122203775,-0.2476073,-0.81685764,-7.7572136,-5.415684,-6.655881
0.66702193,3.8427074,-0.122203775,-0.2476073,-0.81685764,-7.7572136,-5.415684,-6.655881
0.6667284,3.8432312,-0.06681002,-0.20819251,-0.89781773,-7.7189064,-5.2863975,-6.6846113
0.66643465,3.8437533,-0.06681002,-0.20819251,-0.89781773,-7.7189064,-5.2863975,-6.6846113
0.66607046,3.8443263,-0.010351005,-0.16984299,-0.955342,-7.7572136,-5.1906295,-6.7612257
0.66570556,3.8448982,-0.010351005,-0.16984299,-0.955342,-7.7572136,-5.1906295,-6.7612257
0.6652812,3.8455122,0.047173277,-0.12829769,-0.99049574,-7.800309,-5.118803,-6.847417
0.6648561,3.846125,0.047173277,-0.12829769,-0.99049574,-7.800309,-5.118803,-6.847417
0.6643896,3.8467793,0.105762824,-0.08675237,-1.0032789,-7.73806,-5.0374002,-6.789956
0.6639228,3.8474317,0.105762824,-0.08675237,-1.0032789,-7.73806,-5.0374002,-6.789956
0.66341746,3.8481078,0.16754816,-0.04627232,-0.99901783,-7.541735,-4.912902,-6.7612257
0.6629136,3.8487797,0.16754816,-0.04627232,-0.99901783,-7.541735,-4.912902,-6.7612257
0.66236293,3.8494523,0.22720297,-0.0047270046,-0.9819736,-7.1873937,-4.7644615,-6.7708025
0.66181177,3.850124,0.22720297,-0.0047270046,-0.9819736,-7.1873937,-4.7644615,-6.7708025
0.66121715,3.8507936,0.2825967,0.04427516,-0.9510809,-6.919243,-4.606444,-6.7947445
0.6606215,3.8514636,0.2825967,0.04427516,-0.9510809,-6.919243,-4.606444,-6.7947445
0.6599998,3.8521204,0.3284031,0.102864705,-0.91166615,-6.7803793,-4.534618,-6.766014
0.65937704,3.8527777,0.3284031,0.102864705,-0.91166615,-6.7803793,-4.534618,-6.766014
0.65873265,3.8534052,0.36355683,0.1689111,-0.86159873,-6.7324953,-4.453215,-6.7803793
0.6580891,3.8540318,0.36355683,0.1689111,-0.86159873,-6.7324953,-4.453215,-6.7803793
0.65743095,3.8546147,0.39018843,0.24347961,-0.7998134,-6.727707,-4.4196963,-6.71813
0.6567782,3.8551927,0.39018843,0.24347961,-0.7998134,-6.727707,-4.4196963,-6.71813
0.6561042,3.8557081,0.40510213,0.3212439,-0.72844064,-6.7324953,-4.390966,-6.7708025
0.6554388,3.856217,0.40510213,0.3212439,-0.72844064,-6.7324953,-4.390966,-6.7708025
0.6547619,3.8566518,0.41042846,0.4032693,-0.65067637,-6.8043213,-4.3239284,-6.751649
0.65409386,3.857081,0.41042846,0.4032693,-0.65067637,-6.8043213,-4.3239284,-6.751649
0.6534148,3.857422,0.40510213,0.4842294,-0.56865096,-6.8809357,-4.237737,-6.7803793
0.6527431,3.8577595,0.40510213,0.4842294,-0.56865096,-6.8809357,-4.237737,-6.7803793
0.6520612,3.8579931,0.39018843,0.5641242,-0.48023403,-6.8282633,-4.0653543,-6.7564373
0.65138656,3.8582244,0.39018843,0.5641242,-0.48023403,-6.8282633,-4.0653543,-6.7564373
0.65068847,3.858336,0.36568734,0.6429538,-0.39075184,-6.5505357,-3.8833952,-6.7947445
0.64998233,3.8584495,0.36568734,0.6429538,-0.39075184,-6.5505357,-3.8833952,-6.7947445
0.6492716,3.8584359,0.33159888,0.7228486,-0.30553067,-6.2392898,-3.6008794,-6.8330517
0.64856005,3.8584223,0.33159888,0.7228486,-0.30553067,-6.2392898,-3.6008794,-6.8330517
0.6478276,3.8582733,0.283662,0.8038087,-0.22137478,-5.947197,-3.4045548,-6.9144545
0.64709276,3.8581243,0.283662,0.8038087,-0.22137478,-5.947197,-3.4045548,-6.9144545
0.6463318,3.857835,0.22507244,0.8858341,-0.14787152,-5.683835,-3.265691,-6.9767036
0.6455712,3.8575468,0.22507244,0.8858341,-0.14787152,-5.683835,-3.265691,-6.9767036
0.64478034,3.8571177,0.15689552,0.9646636,-0.08821672,-5.530606,-3.145981,-7.0964136
0.6439898,3.8566895,0.15689552,0.9646636,-0.08821672,-5.530606,-3.145981,-7.0964136
0.6431751,3.8561254,0.08126174,1.0434933,-0.039214555,-5.410896,-3.0885203,-7.0964136
0.6423557,3.8555589,0.08126174,1.0434933,-0.039214555,-5.410896,-3.0885203,-7.0964136
0.6414973,3.8548527,-0.0028941538,1.1180618,-0.0051260935,-5.391742,-3.1411927,-7.0964136
0.6406431,3.8541512,-0.0028941538,1.1180618,-0.0051260935,-5.391742,-3.1411927,-7.0964136
0.6397538,3.8533201,-0.08811531,1.1830429,0.018309724,-5.4539914,-3.2082303,-7.120356
0.63886434,3.8524902,-0.08811531,1.1830429,0.018309724,-5.4539914,-3.2082303,-7.120356
0.6379477,3.8515415,-0.1722712,1.2405671,0.035353955,-5.5737014,-3.3375173,-7.0341644
0.6370269,3.8505907,-0.1722712,1.2405671,0.035353955,-5.5737014,-3.3375173,-7.0341644
0.6360915,3.8495393,-0.2532313,1.2863735,0.044941336,-5.746084,-3.5625722,-6.885724
0.6351529,3.8484867,-0.2532313,1.2863735,0.044941336,-5.746084,-3.5625722,-6.885724
0.6342031,3.8473415,-0.32993034,1.3183315,0.05133292,-5.8945246,-3.8498764,-6.727707
0.63325214,3.8461971,-0.32993034,1.3183315,0.05133292,-5.8945246,-3.8498764,-6.727707
0.6322906,3.8449779,-0.39810726,1.3375062,0.05133292,-5.9902925,-4.1515455,-6.6415157
0.631333,3.8437655,-0.39810726,1.3375062,0.05133292,-5.9902925,-4.1515455,-6.6415157
0.6303888,3.8424952,-0.4598926,1.3428326,0.049202394,-6.1004257,-4.414908,-6.4739213
0.62944436,3.841226,-0.4598926,1.3428326,0.049202394,-6.1004257,-4.414908,-6.4739213
0.6285252,3.8399234,-0.5110253,1.3364409,0.04387607,-6.2105594,-4.548983,-6.3781533
0.6276059,3.8386233,-0.5110253,1.3364409,0.04387607,-6.2105594,-4.548983,-6.3781533
0.62672675,3.837328,-0.55470115,1.3225925,0.037484486,-6.229713,-4.7548847,-6.229713
0.62584656,3.8360355,-0.55470115,1.3225925,0.037484486,-6.229713,-4.7548847,-6.229713
0.624973,3.8348742,-0.5919854,1.2991567,0.033223428,-6.26802,-5.1666875,-5.899313
0.624097,3.8337145,-0.5919854,1.2991567,0.033223428,-6.26802,-5.1666875,-5.899313
0.62313807,3.832484,-0.61755174,1.2735903,0.02896237,-6.5122285,-5.473145,-5.645528
0.62230873,3.8314226,-0.61755174,1.2735903,0.02896237,-6.5122285,-5.473145,-5.645528
0.6214724,3.8303294,-0.6303349,1.243763,0.02896237,-6.933608,-5.731719,-5.511452
0.6206093,3.829204,-0.6303349,1.243763,0.02896237,-6.933608,-5.731719,-5.511452
0.619781,3.8281002,-0.6282044,1.2011523,0.031092897,-7.1107793,-5.81791,-5.497087
0.61895096,3.826997,-0.6282044,1.2011523,0.031092897,-7.1107793,-5.81791,-5.497087
0.61816764,3.825941,-0.61329067,1.1446934,0.030027634,-7.16824,-5.8466406,-5.521029
0.6173804,3.824882,-0.61329067,1.1446934,0.030027634,-7.16824,-5.8466406,-5.521029
0.61663985,3.8238704,-0.5898549,1.082908,0.025766576,-7.3789296,-5.861006,-5.530606
0.6158987,3.8228602,-0.5898549,1.082908,0.025766576,-7.3789296,-5.861006,-5.530606
0.6151954,3.8219247,-0.562158,1.014731,0.014048667,-7.225701,-5.9567738,-5.511452
0.6144895,3.8209872,-0.562158,1.014731,0.014048667,-7.225701,-5.9567738,-5.511452
0.61381257,3.8201475,-0.5312653,0.94335836,-0.0029955646,-7.101202,-6.411672,-5.377377
0.6131352,3.8193088,-0.5312653,0.94335836,-0.0029955646,-7.101202,-6.411672,-5.377377
0.61248523,3.8185577,-0.48972002,0.8730509,-0.022170324,-7.249643,-7.005434,-5.1571107
0.611835,3.8178074,-0.48972002,0.8730509,-0.022170324,-7.249643,-7.005434,-5.1571107
0.6112235,3.8171673,-0.43113047,0.7984824,-0.045606144,-7.3406224,-7.441179,-5.046977
0.6106088,3.816525,-0.43113047,0.7984824,-0.045606144,-7.3406224,-7.441179,-5.046977
0.6100444,3.816015,-0.35017037,0.7175223,-0.07436828,-7.5082164,-7.445967,-5.185841
0.60947526,3.8155015,-0.35017037,0.7175223,-0.07436828,-7.5082164,-7.445967,-5.185841
0.6089612,3.8151464,-0.25429657,0.6312359,-0.11165254,-7.4986396,-7.1634517,-5.631162
0.60844696,3.8147907,-0.25429657,0.6312359,-0.11165254,-7.4986396,-7.1634517,-5.631162
0.60797936,3.8145967,-0.15203118,0.5428189,-0.15639365,-7.40766,-6.7947445,-6.0956373
0.6075115,3.814402,-0.15203118,0.5428189,-0.15639365,-7.40766,-6.7947445,-6.0956373
0.6070979,3.8143623,-0.05509211,0.45333672,-0.20539582,-7.359776,-6.4739213,-6.4882865
0.6066828,3.8143222,-0.05509211,0.45333672,-0.20539582,-7.359776,-6.4739213,-6.4882865
0.6063088,3.8144305,0.032259572,0.3670503,-0.25546324,-7.192182,-6.2823853,-6.655881
0.6059367,3.8145382,0.032259572,0.3670503,-0.25546324,-7.192182,-6.2823853,-6.655881
0.6055984,3.8147855,0.11108914,0.28502494,-0.31192225,-7.062895,-6.1195793,-6.7947445
0.6052509,3.815039,0.11108914,0.28502494,-0.31192225,-7.062895,-6.1195793,-6.7947445
0.6049471,3.815416,0.1813966,0.20406483,-0.37157705,-6.7947445,-5.995081,-7.029376
0.60464376,3.8157926,0.1813966,0.20406483,-0.37157705,-6.7947445,-5.995081,-7.029376
0.6043336,3.8163278,0.24637774,0.12843105,-0.4333624,-6.588843,-5.971139,-7.07726
0.60402393,3.8168628,0.24637774,0.12843105,-0.4333624,-6.588843,-5.971139,-7.07726
0.6036495,3.8175583,0.30603254,0.060254127,-0.49834353,-6.363788,-6.1243677,-7.019799
0.6032766,3.8182511,0.30603254,0.060254127,-0.49834353,-6.363788,-6.1243677,-7.019799
0.6029053,3.8190644,0.36781788,-0.0015312112,-0.5633247,-6.277597,-6.5361705,-6.766014
0.6025343,3.8198764,0.36781788,-0.0015312112,-0.5633247,-6.277597,-6.5361705,-6.766014
0.60217726,3.8208172,0.44025585,-0.05692496,-0.62297946,-6.3685765,-6.646304,-6.71813
0.60182077,3.8217554,0.44025585,-0.05692496,-0.62297946,-6.3685765,-6.646304,-6.71813
0.60149854,3.8228228,0.5201507,-0.11231872,-0.68369955,-6.564901,-6.3542113,-6.895301
0.60117364,3.8238988,0.5201507,-0.11231872,-0.68369955,-6.564901,-6.3542113,-6.895301
0.6008421,3.82511,0.6043066,-0.1730388,-0.74655014,-6.3685765,-6.143522,-6.943185
0.6005107,3.8263211,0.6043066,-0.1730388,-0.74655014,-6.3685765,-6.143522,-6.943185
0.60018903,3.8276715,0.6842014,-0.2294978,-0.806205,-6.3111157,-6.066907,-6.861782
0.5998683,3.8290186,0.6842014,-0.2294978,-0.806205,-6.3111157,-6.066907,-6.861782
0.59956396,3.8304834,0.7587699,-0.27849996,-0.85733765,-6.38773,-6.1387334,-6.8282633
0.5992597,3.8319473,0.7587699,-0.27849996,-0.85733765,-6.38773,-6.1387334,-6.8282633
0.5989796,3.8335063,0.8280121,-0.3200453,-0.8967524,-6.5457473,-6.2632318,-6.6175733
0.598699,3.8350644,0.8280121,-0.3200453,-0.8967524,-6.5457473,-6.2632318,-6.6175733
0.59843755,3.8367138,0.8951238,-0.35946006,-0.92657983,-6.7708025,-6.411672,-6.555324
0.5981753,3.8383622,0.8951238,-0.35946006,-0.92657983,-6.7708025,-6.411672,-6.555324
0.5979293,3.8401055,0.9633007,-0.3999401,-0.9489504,-6.871359,-6.5122285,-6.483498
0.59768224,3.8418474,0.9633007,-0.3999401,-0.9489504,-6.871359,-6.5122285,-6.483498
0.5974592,3.8436832,1.0314777,-0.44468123,-0.9638641,-6.9383965,-6.5744777,-6.4499793
0.5972349,3.8455176,1.0314777,-0.44468123,-0.9638641,-6.9383965,-6.5744777,-6.4499793
0.5970374,3.8474472,1.1007198,-0.49155286,-0.9734515,-6.919243,-6.588843,-6.483498
0.5968387,3.849375,1.1007198,-0.49155286,-0.9734515,-6.919243,-6.588843,-6.483498
0.59666854,3.8513935,1.1688968,-0.536294,-0.9787778,-6.8426285,-6.531382,-6.483498
0.5964974,3.8534102,1.1688968,-0.536294,-0.9787778,-6.8426285,-6.531382,-6.483498
0.5963546,3.8555171,1.2338779,-0.58423084,-0.98303884,-6.7612257,-6.50744,-6.421249
0.59621054,3.8576226,1.2338779,-0.58423084,-0.98303884,-6.7612257,-6.50744,-6.421249
0.5960967,3.8598137,1.2977937,-0.63003725,-0.9883652,-6.679823,-6.4308257,-6.411672
0.5959809,3.8620145,1.2977937,-0.63003725,-0.9883652,-6.679823,-6.4308257,-6.411672
0.5958987,3.8642807,1.3585138,-0.67264783,-0.9936915,-6.703765,-6.397307,-6.483498
0.5958159,3.8665354,1.3585138,-0.67264783,-0.9936915,-6.703765,-6.397307,-6.483498
0.59576064,3.868869,1.4171034,-0.7120626,-0.99901783,-6.71813,-6.3781533,-6.4787097
0.59570444,3.8712072,1.4171034,-0.7120626,-0.99901783,-6.71813,-6.3781533,-6.4787097
0.5956781,3.87361,1.4735624,-0.75147736,-1.0043441,-6.789956,-6.3829417,-6.5026517
0.5956509,3.8760123,1.4735624,-0.75147736,-1.0043441,-6.789956,-6.3829417,-6.5026517
0.5956509,3.8760123,1.4735624,-0.75147736,-1.0043441,-6.789956,-6.3829417,-6.5026517
0.5956548,3.881818,1.5811541,-0.83669853,-1.0171273,-6.789956,-6.421249,-6.493075
0.5956687,3.8835707,1.5811541,-0.83669853,-1.0171273,-6.789956,-6.421249,-6.493075
0.59568787,3.8861144,1.5811541,-0.83669853,-1.0171273,-6.789956,-6.421249,-6.493075
0.5957322,3.888857,1.6344173,-0.8835702,-1.0267147,-6.7468605,-6.397307,-6.4164605
0.59577537,3.8915884,1.6344173,-0.8835702,-1.0267147,-6.7468605,-6.397307,-6.4164605
0.59583414,3.894181,1.6876805,-0.92937654,-1.0384326,-6.766014,-6.4404025,-6.38773
0.5958963,3.89699,1.6876805,-0.92937654,-1.0384326,-6.766014,-6.4404025,-6.38773
0.5958963,3.89699,1.6876805,-0.92937654,-1.0384326,-6.766014,-6.4404025,-6.38773
0.59604645,3.9021966,1.742009,-0.97518295,-1.0490853,-6.71813,-6.435614,-6.363788
0.59614414,3.9050584,1.798468,-1.019924,-1.0639989,-6.7468605,-6.4643445,-6.3302693
0.5962436,3.908023,1.798468,-1.019924,-1.0639989,-6.7468605,-6.4643445,-6.3302693
0.5963713,3.910943,1.8559923,-1.0657305,-1.0810432,-7.0581064,-6.445191,-6.3542113
0.5964962,3.9138534,1.8559923,-1.0657305,-1.0810432,-7.0581064,-6.445191,-6.3542113
0.59663135,3.9168887,1.9124514,-1.1115367,-1.1002179,-7.1155677,-6.5265937,-6.2728086
0.5967656,3.91996,1.9124514,-1.1115367,-1.1002179,-7.1155677,-6.5265937,-6.2728086
0.59689337,3.92305,1.9678451,-1.1552126,-1.120458,-6.8905125,-6.6175733,-6.196194
0.5970206,3.9261773,1.9678451,-1.1552126,-1.120458,-6.8905125,-6.6175733,-6.196194
0.59715104,3.929389,2.0221736,-1.1946274,-1.1396327,-6.8043213,-6.6415157,-6.1530986
0.59727967,3.93261,2.0221736,-1.1946274,-1.1396327,-6.8043213,-6.6415157,-6.1530986
0.59741765,3.9358907,2.0754368,-1.2276506,-1.1620033,-6.813898,-6.646304,-6.2392898
0.5975541,3.9391727,2.0754368,-1.2276506,-1.1620033,-6.813898,-6.646304,-6.2392898
0.5976988,3.9425092,2.1265695,-1.2596085,-1.1886349,-6.9479733,-6.6415157,-6.301539
0.59784156,3.945866,2.1265695,-1.2596085,-1.1886349,-6.9479733,-6.6415157,-6.301539
0.5979835,3.9492183,2.1755717,-1.2915665,-1.2195276,-7.120356,-6.588843,-6.363788
0.5981219,3.9525983,2.1755717,-1.2915665,-1.2195276,-7.120356,-6.588843,-6.363788
0.59825414,3.9560556,2.2224433,-1.3267202,-1.2536161,-6.943185,-6.603208,-6.3206925
0.5983813,3.9595048,2.2224433,-1.3267202,-1.2536161,-6.943185,-6.603208,-6.3206925
0.59850085,3.9630103,2.2661192,-1.3618739,-1.2887697,-6.8569937,-6.5265937,-6.2871737
0.59861803,3.9666507,2.2661192,-1.3618739,-1.2887697,-6.8569937,-6.5265937,-6.2871737
0.59871423,3.9701395,2.309795,-1.3948971,-1.326054,-6.71813,-6.4164605,-6.2105594
0.5988031,3.973688,2.309795,-1.3948971,-1.326054,-6.71813,-6.4164605,-6.2105594
0.59885025,3.9772296,2.3492098,-1.4268551,-1.3675994,-6.4164605,-6.1770406,-6.1243677
0.5988863,3.980803,2.3492098,-1.4268551,-1.3675994,-6.4164605,-6.1770406,-6.1243677
0.5988476,3.9844277,2.386494,-1.4545519,-1.4123404,-6.0764837,-5.9807158,-6.1100025
0.59879947,3.9880629,2.386494,-1.4545519,-1.4123404,-6.0764837,-5.9807158,-6.1100025
0.5987006,3.9917464,2.4163215,-1.4737266,-1.4602773,-5.7748146,-5.6886234,-5.985504
0.59859383,3.995429,2.4163215,-1.4737266,-1.4602773,-5.7748146,-5.6886234,-5.985504
0.59843355,3.9991763,2.4408226,-1.4843793,-1.5103447,-5.535394,-5.530606,-5.875371
0.5982666,4.0029,2.4408226,-1.4843793,-1.5103447,-5.535394,-5.530606,-5.875371
0.59805286,4.0066824,2.4568014,-1.4865099,-1.5657386,-5.4204726,-5.33907,-5.779603
0.5978317,4.010456,2.4568014,-1.4865099,-1.5657386,-5.4204726,-5.33907,-5.779603
0.5975563,4.0142612,2.4642584,-1.4811835,-1.6232628,-5.33907,-5.2385135,-5.683835
0.5972729,4.0180655,2.4642584,-1.4811835,-1.6232628,-5.33907,-5.2385135,-5.683835
0.59692776,4.0218983,2.4631932,-1.4652046,-1.6807871,-5.3007627,-5.1762643,-5.616797
0.5965773,4.0256987,2.4631932,-1.4652046,-1.6807871,-5.3007627,-5.1762643,-5.616797
0.596172,4.0295143,2.454671,-1.4407035,-1.7372462,-5.463568,-5.2049947,-5.6215854
0.5957588,4.03332,2.454671,-1.4407035,-1.7372462,-5.463568,-5.2049947,-5.6215854
0.5952898,4.037133,2.438692,-1.4119414,-1.7947704,-5.674258,-5.3678,-5.583278
0.5948127,4.040937,2.438692,-1.4119414,-1.7947704,-5.674258,-5.3678,-5.583278
0.5942881,4.04473,2.418452,-1.3821139,-1.8490989,-5.9519854,-5.48751,-5.57849
0.593754,4.0485196,2.418452,-1.3821139,-1.8490989,-5.9519854,-5.48751,-5.57849
0.59317136,4.052295,2.3928857,-1.3533518,-1.9002316,-6.196194,-5.7029886,-5.5641246
0.5925789,4.0560665,2.3928857,-1.3533518,-1.9002316,-6.196194,-5.7029886,-5.5641246
0.5919372,4.059823,2.3619928,-1.329916,-1.9481685,-6.38773,-5.923255,-5.568913
0.5912869,4.063567,2.3619928,-1.329916,-1.9481685,-6.38773,-5.923255,-5.568913
0.59058917,4.067301,2.330035,-1.3075454,-1.9939748,-6.5505357,-6.0956373,-5.535394
0.58988273,4.0710206,2.330035,-1.3075454,-1.9939748,-6.5505357,-6.0956373,-5.535394
0.589127,4.07472,2.2959466,-1.293697,-2.0376506,-6.5840545,-6.3446345,-5.544971
0.5883613,4.0784125,2.2959466,-1.293697,-2.0376506,-6.5840545,-6.3446345,-5.544971
0.58755505,4.0820827,2.261858,-1.2873054,-2.0770655,-6.655881,-6.5457473,-5.568913
0.5867395,4.085742,2.261858,-1.2873054,-2.0770655,-6.655881,-6.5457473,-5.568913
0.5858848,4.0893903,2.2320306,-1.2862401,-2.1143496,-6.6079965,-6.6654577,-5.521029
0.5850215,4.0930243,2.2320306,-1.2862401,-2.1143496,-6.6079965,-6.6654577,-5.521029
0.58411837,4.096645,2.205399,-1.2905012,-2.1484382,-6.564901,-6.7612257,-5.535394
0.5832058,4.1002545,2.205399,-1.2905012,-2.1484382,-6.564901,-6.7612257,-5.535394
0.58225334,4.103849,2.1840937,-1.2968928,-2.1835918,-6.5122285,-6.7803793,-5.544971
0.5812907,4.1074367,2.1840937,-1.2968928,-2.1835918,-6.5122285,-6.7803793,-5.544971
0.5803135,4.11104,2.1670496,-1.3054149,-2.2187457,-6.631939,-6.9527617,-5.4444146
0.5793277,4.114629,2.1670496,-1.3054149,-2.2187457,-6.631939,-6.9527617,-5.4444146
0.5783194,4.1182327,2.1521358,-1.3139371,-2.2538993,-6.7564373,-7.091625,-5.3965306
0.57730055,4.121828,2.1521358,-1.3139371,-2.2538993,-6.7564373,-7.091625,-5.3965306
0.57626283,4.125458,2.1436138,-1.3245896,-2.2901185,-6.9383965,-7.1826053,-5.243302
0.57521534,4.129078,2.1436138,-1.3245896,-2.2901185,-6.9383965,-7.1826053,-5.243302
0.5741404,4.132714,2.1382873,-1.3352423,-2.3263373,-7.120356,-7.398083,-5.2385135
0.5730519,4.1363535,2.1382873,-1.3352423,-2.3263373,-7.120356,-7.398083,-5.2385135
0.5719354,4.1400194,2.1350915,-1.3469602,-2.361491,-7.345411,-7.675811,-5.2002063
0.57081026,4.143674,2.1350915,-1.3469602,-2.361491,-7.345411,-7.675811,-5.2002063
0.569651,4.1473613,2.1350915,-1.3586781,-2.3966448,-7.560889,-7.881712,-5.118803
0.56848365,4.151037,2.1350915,-1.3586781,-2.3966448,-7.560889,-7.881712,-5.118803
0.5672817,4.1547413,2.1382873,-1.3735918,-2.433929,-7.6614456,-8.145074,-5.133168
0.5660716,4.158434,2.1382873,-1.3735918,-2.433929,-7.6614456,-8.145074,-5.133168
0.56482226,4.1621704,2.1478748,-1.3927666,-2.4765396,-7.656657,-8.365341,-5.0613422
0.5635649,4.1658955,2.1478748,-1.3927666,-2.4765396,-7.656657,-8.365341,-5.0613422
0.56226593,4.169661,2.1595926,-1.4162024,-2.5255418,-7.690176,-8.485051,-5.00867
0.5609592,4.173414,2.1595926,-1.4162024,-2.5255418,-7.690176,-8.485051,-5.00867
0.5596088,4.177214,2.176637,-1.4417688,-2.5777397,-7.728483,-8.6095495,-4.9703627
0.55825037,4.181001,2.176637,-1.4417688,-2.5777397,-7.728483,-8.6095495,-4.9703627
0.5568492,4.1848392,2.1990075,-1.4705309,-2.631003,-7.7428484,-8.738836,-4.9559975
0.55544,4.1886635,2.1990075,-1.4705309,-2.631003,-7.7428484,-8.738836,-4.9559975
0.55398965,4.1925287,2.225639,-1.5014236,-2.6895926,-7.73806,-8.7532015,-4.960786
0.55252475,4.1963954,2.225639,-1.5014236,-2.6895926,-7.73806,-8.7532015,-4.960786
0.5510138,4.2003098,2.257597,-1.5365773,-2.7556388,-7.714118,-8.7532015,-4.975151
0.5494919,4.204214,2.257597,-1.5365773,-2.7556388,-7.714118,-8.7532015,-4.975151
0.5479197,4.208188,2.2959466,-1.5749269,-2.8238158,-7.6710224,-8.734048,-4.8362875
0.5463377,4.2121477,2.2959466,-1.5749269,-2.8238158,-7.6710224,-8.734048,-4.8362875
0.54470086,4.2161827,2.3374918,-1.6164721,-2.8941233,-7.541735,-8.6334915,-4.7979803
0.5430568,4.220194,2.3374918,-1.6164721,-2.8941233,-7.541735,-8.6334915,-4.7979803
0.541355,4.2242923,2.3801024,-1.6612133,-2.9665613,-7.398083,-8.566454,-4.687847
0.5396439,4.2283707,2.3801024,-1.6612133,-2.9665613,-7.398083,-8.566454,-4.687847
0.5378764,4.2325315,2.426974,-1.7059543,-3.0400646,-7.249643,-8.508993,-4.582502
0.5360973,4.236676,2.426974,-1.7059543,-3.0400646,-7.249643,-8.508993,-4.582502
0.5342561,4.2409134,2.4727805,-1.7506955,-3.1167636,-7.2065473,-8.403648,-4.3526587
0.5324031,4.2451334,2.4727805,-1.7506955,-3.1167636,-7.2065473,-8.403648,-4.3526587
0.53048956,4.2494364,2.5207174,-1.7943712,-3.191332,-7.1969705,-8.298303,-4.209007
0.5285636,4.2537227,2.5207174,-1.7943712,-3.191332,-7.1969705,-8.298303,-4.209007
0.5265784,4.258089,2.5686543,-1.8380471,-3.2627048,-7.489063,-8.183381,-4.060566
0.5245803,4.262439,2.5686543,-1.8380471,-3.2627048,-7.489063,-8.183381,-4.060566
0.52252614,4.266867,2.6144607,-1.8806577,-3.328751,-7.3166804,-8.106767,-3.8786068
0.5204592,4.2712774,2.6144607,-1.8806577,-3.328751,-7.3166804,-8.106767,-3.8786068
0.5183327,4.275771,2.6549406,-1.9190072,-3.3894713,-7.005434,-8.202535,-3.6056678
0.51619387,4.2802463,2.6549406,-1.9190072,-3.3894713,-7.005434,-8.202535,-3.6056678
0.5139973,4.28478,2.6911597,-1.9498999,-3.4480608,-6.8569937,-8.226477,-3.490746
0.5117882,4.2892947,2.6911597,-1.9498999,-3.4480608,-6.8569937,-8.226477,-3.490746
0.50951916,4.2938566,2.720987,-1.9765315,-3.5066504,-6.8330517,-8.231265,-3.3662477
0.5072418,4.2983904,2.720987,-1.9765315,-3.5066504,-6.8330517,-8.231265,-3.3662477
0.504891,4.302983,2.7422924,-1.9978368,-3.5631094,-6.9000893,-8.346188,-3.1842883
0.50253195,4.3075466,2.7422924,-1.9978368,-3.5631094,-6.9000893,-8.346188,-3.1842883
0.5001086,4.312146,2.7604017,-2.0212727,-3.6195683,-7.015011,-8.394072,-2.9352913
0.4976721,4.3167257,2.7604017,-2.0212727,-3.6195683,-7.015011,-8.394072,-2.9352913
0.4951766,4.3213305,2.7721198,-2.0479043,-3.6738968,-7.177817,-8.480263,-2.7629087
0.49266782,4.3259153,2.7721198,-2.0479043,-3.6738968,-7.177817,-8.480263,-2.7629087
0.49010098,4.3305182,2.777446,-2.0777316,-3.7282255,-7.3885064,-8.561666,-2.566584
0.48752064,4.3351016,2.777446,-2.0777316,-3.7282255,-7.3885064,-8.561666,-2.566584
0.484884,4.339702,2.7785113,-2.11182,-3.7793581,-7.422025,-8.671799,-2.3415294
0.48223364,4.344283,2.7785113,-2.11182,-3.7793581,-7.422025,-8.671799,-2.3415294
0.47953582,4.34887,2.7753155,-2.1501696,-3.8294256,-7.5082164,-8.772355,-2.336741
0.4768241,4.353436,2.7753155,-2.1501696,-3.8294256,-7.5082164,-8.772355,-2.336741
0.47398436,4.3581405,2.7678587,-2.1895845,-3.8762972,-7.5082164,-8.815451,-2.3175871
0.4712524,4.362623,2.7678587,-2.1895845,-3.8762972,-7.5082164,-8.815451,-2.3175871
0.46844134,4.3671517,2.7540102,-2.227934,-3.9252994,-7.422025,-8.767567,-2.3558946
0.46565345,4.3716006,2.7540102,-2.227934,-3.9252994,-7.422025,-8.767567,-2.3558946
0.46277365,4.3761005,2.7337701,-2.2673488,-3.9796278,-7.249643,-8.719683,-2.4660277
0.45987993,4.3805785,2.7337701,-2.2673488,-3.9796278,-7.249643,-8.719683,-2.4660277
0.45691335,4.3850627,2.705008,-2.3067634,-4.0350213,-7.0245876,-8.710106,-2.5474305
0.45395923,4.389485,2.705008,-2.3067634,-4.0350213,-7.0245876,-8.710106,-2.5474305
0.45096144,4.393859,2.671985,-2.3461783,-4.0904155,-6.8330517,-8.576031,-2.7102363
0.44794348,4.398219,2.671985,-2.3461783,-4.0904155,-6.8330517,-8.576031,-2.7102363
0.4448435,4.4025693,2.6357658,-2.3823972,-4.1522007,-6.71813,-8.480263,-2.791639
0.44174722,4.4068713,2.6357658,-2.3823972,-4.1522007,-6.71813,-8.480263,-2.791639
0.43859065,4.411116,2.5963511,-2.4207468,-4.2161164,-6.6893997,-8.2169,-2.9783869
0.43541238,4.4153476,2.5963511,-2.4207468,-4.2161164,-6.6893997,-8.2169,-2.9783869
0.43216893,4.419541,2.5580015,-2.4590962,-4.280032,-6.2249246,-8.130709,-2.920926
0.42891026,4.423712,2.5580015,-2.4590962,-4.280032,-6.2249246,-8.130709,-2.920926
0.4255851,4.4278374,2.5207174,-2.4953153,-4.341818,-5.6982,-8.078036,-2.896984
0.42225114,4.4319324,2.5207174,-2.4953153,-4.341818,-5.6982,-8.078036,-2.896984
0.41882172,4.4360137,2.4898248,-2.5251427,-4.4046683,-5.353435,-7.920019,-2.8778305
0.415404,4.4400396,2.4898248,-2.5251427,-4.4046683,-5.353435,-7.920019,-2.8778305
0.4119036,4.4440465,2.4685194,-2.546448,-4.467519,-5.2863975,-7.785944,-2.8921957
0.4083878,4.448031,2.4685194,-2.546448,-4.467519,-5.2863975,-7.785944,-2.8921957
0.4043172,4.4525146,2.4514751,-2.5634923,-4.529304,-4.951209,-7.642292,-2.777274
0.4043172,4.4525146,2.4514751,-2.5634923,-4.529304,-4.951209,-7.642292,-2.777274
0.4043172,4.4525146,2.4514751,-2.5634923,-4.529304,-4.951209,-7.642292,-2.777274
0.3922517,4.4654517,2.4333656,-2.5741448,-4.6347656,-4.2664676,-7.4268136,-2.753332
0.38997057,4.467769,2.4333656,-2.5741448,-4.6347656,-4.2664676,-7.4268136,-2.753332
0.38621324,4.4715576,2.4333656,-2.5741448,-4.6347656,-4.2664676,-7.4268136,-2.753332
0.38196254,4.4757466,2.431235,-2.5688186,-4.6795063,-4.0174704,-7.359776,-2.6001031
0.37863606,4.4789953,2.431235,-2.5688186,-4.6795063,-4.0174704,-7.359776,-2.6001031
0.3747473,4.4827013,2.431235,-2.5528395,-4.7167907,-3.8833952,-7.3310456,-2.657564
0.37081456,4.486416,2.431235,-2.5528395,-4.7167907,-3.8833952,-7.3310456,-2.657564
0.36682707,4.490115,2.4333656,-2.5272732,-4.7423573,-3.8546648,-7.345411,-2.6240451
0.36283135,4.4937897,2.4333656,-2.5272732,-4.7423573,-3.8546648,-7.345411,-2.6240451
0.3587944,4.4974422,2.435496,-2.4963806,-4.758336,-3.916914,-7.417237,-2.657564
0.35467267,4.5011387,2.435496,-2.4963806,-4.758336,-3.916914,-7.417237,-2.657564
0.35065827,4.5046654,2.438692,-2.4644227,-4.762597,-3.6296098,-7.4363904,-2.6862943
0.3465801,4.508218,2.438692,-2.4644227,-4.762597,-3.6296098,-7.4363904,-2.6862943
0.34248024,4.5117383,2.442953,-2.4292688,-4.7562056,-3.5290532,-7.455544,-2.7581203
0.3383289,4.5152736,2.442953,-2.4292688,-4.7562056,-3.5290532,-7.455544,-2.7581203
0.33419842,4.5187483,2.4440184,-2.3877237,-4.737031,-3.4380736,-7.513005,-2.801216
0.3300584,4.5222025,2.4440184,-2.3877237,-4.737031,-3.4380736,-7.513005,-2.801216
0.32591793,4.5256166,2.4408226,-2.336591,-4.706138,-3.371036,-7.493851,-2.906561
0.32176834,4.529012,2.4408226,-2.336591,-4.706138,-3.371036,-7.493851,-2.906561
0.31763777,4.532352,2.4344308,-2.2790666,-4.665658,-3.2225955,-7.431602,-2.96881
0.31348616,4.535684,2.4344308,-2.2790666,-4.665658,-3.2225955,-7.431602,-2.96881
0.30935308,4.538965,2.4291046,-2.220477,-4.616656,-3.0023289,-7.4268136,-3.1028855
0.30520368,4.5422354,2.4291046,-2.220477,-4.616656,-3.0023289,-7.4268136,-3.1028855
0.3010903,4.5454497,2.4205825,-2.1586916,-4.5591316,-2.7820623,-7.350199,-3.098097
0.29697758,4.5486407,2.4205825,-2.1586916,-4.5591316,-2.7820623,-7.350199,-3.098097
0.2928825,4.551794,2.4099298,-2.0937107,-4.496281,-2.5905263,-7.369353,-3.0358477
0.28878877,4.5549254,2.4099298,-2.0937107,-4.496281,-2.5905263,-7.369353,-3.0358477
0.28473535,4.5580025,2.3960814,-2.0212727,-4.429169,-2.4660277,-7.479486,-2.944868
0.28067562,4.5610642,2.3960814,-2.0212727,-4.429169,-2.4660277,-7.479486,-2.944868
0.2766707,4.5640616,2.3769066,-1.9445735,-4.3577967,-2.384625,-7.61835,-2.8395233
0.27264398,4.5670567,2.3769066,-1.9445735,-4.3577967,-2.384625,-7.61835,-2.8395233
0.2686795,4.569982,2.3534708,-1.8593525,-4.2810974,-2.3702598,-7.848193,-2.753332
0.2647101,4.572894,2.3534708,-1.8593525,-4.2810974,-2.3702598,-7.848193,-2.753332
0.26080388,4.575733,2.3236434,-1.7688049,-4.2033334,-2.4277205,-8.111555,-2.7246015
0.25688532,4.5785656,2.3236434,-1.7688049,-4.2033334,-2.4277205,-8.111555,-2.7246015
0.2530389,4.58132,2.2874243,-1.6750617,-4.126634,-2.6144683,-8.236053,-2.777274
0.24918836,4.584063,2.2874243,-1.6750617,-4.126634,-2.6144683,-8.236053,-2.777274
0.24540232,4.5867233,2.244814,-1.5791879,-4.0510006,-2.7006595,-8.336611,-2.873042
0.24160485,4.589378,2.244814,-1.5791879,-4.0510006,-2.7006595,-8.336611,-2.873042
0.23786561,4.591944,2.1915507,-1.4865099,-3.9785626,-2.7724855,-8.346188,-3.0023289
0.23413776,4.59449,2.1915507,-1.4865099,-3.9785626,-2.7724855,-8.346188,-3.0023289
0.2304473,4.596947,2.1276348,-1.3970276,-3.9135814,-2.743755,-8.346188,-3.0454245
0.2267536,4.5993953,2.1276348,-1.3970276,-3.9135814,-2.743755,-8.346188,-3.0454245
0.22310272,4.601742,2.056262,-1.3139371,-3.8539267,-2.6479871,-8.288726,-3.0597897
0.21944913,4.6040797,2.056262,-1.3139371,-3.8539267,-2.6479871,-8.288726,-3.0597897
0.21582535,4.606312,1.9774325,-1.2383033,-3.802794,-2.432509,-8.288726,-3.0885203
0.2121993,4.6085362,1.9774325,-1.2383033,-3.802794,-2.432509,-8.288726,-3.0885203
0.20859684,4.610659,1.8954071,-1.1711916,-3.7580528,-2.303222,-8.221688,-3.0262709
0.20499972,4.6127706,1.8954071,-1.1711916,-3.7580528,-2.303222,-8.221688,-3.0262709
0.20141941,4.6147804,1.8133818,-1.1147326,-3.7239642,-2.0494366,-8.121132,-2.873042
0.19783758,4.6167836,1.8133818,-1.1147326,-3.7239642,-2.0494366,-8.121132,-2.873042
0.1942654,4.6186914,1.7345521,-1.0689262,-3.6983979,-1.8195933,-8.111555,-2.6288335
0.19069928,4.6205893,1.7345521,-1.0689262,-3.6983979,-1.8195933,-8.111555,-2.6288335
0.18711324,4.6224084,1.6599836,-1.0305767,-3.6813538,-1.5466543,-8.0684595,-2.3654714
0.18354811,4.6242104,1.6599836,-1.0305767,-3.6813538,-1.5466543,-8.0684595,-2.3654714
0.17995839,4.6259413,1.5907415,-0.99968404,-3.6728315,-1.3551182,-7.9726915,-2.1212628
0.17637937,4.6276603,1.5907415,-0.99968404,-3.6728315,-1.3551182,-7.9726915,-2.1212628
0.17278375,4.62931,1.5268255,-0.9730524,-3.6685705,-1.2210429,-7.9343843,-1.8818425
0.16919586,4.630951,1.5268255,-0.9730524,-3.6685705,-1.2210429,-7.9343843,-1.8818425
0.16559234,4.63253,1.4703666,-0.9517471,-3.6685705,-1.1683705,-7.8529816,-1.5897499
0.16199374,4.634102,1.4703666,-0.9517471,-3.6685705,-1.1683705,-7.8529816,-1.5897499
0.15842852,4.6356134,1.4202992,-0.93896395,-3.6696358,-1.3742718,-7.690176,-1.3838485
0.15485415,4.637125,1.4202992,-0.93896395,-3.6696358,-1.3742718,-7.690176,-1.3838485
0.15126434,4.6385837,1.375558,-0.93257236,-3.6696358,-1.2114661,-7.699753,-1.1013328
0.14767462,4.640039,1.375558,-0.93257236,-3.6696358,-1.2114661,-7.699753,-1.1013328
0.14400686,4.641468,1.335078,-0.93257236,-3.662179,-0.79487497,-7.723695,-0.8714894
0.14033282,4.642892,1.335078,-0.93257236,-3.662179,-0.79487497,-7.723695,-0.8714894
0.13661422,4.6443586,1.3009895,-0.9347029,-3.6515262,-0.47884035,-7.723695,-0.5363012
0.13289012,4.6458178,1.3009895,-0.9347029,-3.6515262,-0.47884035,-7.723695,-0.5363012
0.12918861,4.647269,1.2722274,-0.9336376,-3.6398084,-0.45968673,-7.6710224,-0.40701428
0.1254775,4.648715,1.2722274,-0.9336376,-3.6398084,-0.45968673,-7.6710224,-0.40701428
0.12179298,4.6501493,1.2466611,-0.9336376,-3.6259599,-0.33997664,-7.627927,-0.272939
0.118110284,4.6515765,1.2466611,-0.9336376,-3.6259599,-0.33997664,-7.627927,-0.272939
0.1144538,4.652999,1.2242905,-0.9357681,-3.6089158,-0.30645782,-7.690176,-0.11971009
0.11081091,4.6544113,1.2242905,-0.9357681,-3.6089158,-0.30645782,-7.690176,-0.11971009
0.10717336,4.6558075,1.2040504,-0.9421597,-3.58548,-0.31603462,-7.690176,-0.11971009
0.10351691,4.6572065,1.2040504,-0.9421597,-3.58548,-0.31603462,-7.690176,-0.11971009
0.09988074,4.6585855,1.1838105,-0.9517471,-3.5577831,-0.45489833,-7.6853876,-0.20590134
0.09627349,4.6599503,1.1838105,-0.9517471,-3.5577831,-0.45489833,-7.6853876,-0.20590134
0.09276701,4.6612825,1.1625051,-0.9666608,-3.521564,-0.6703765,-7.6135616,-0.33997664
0.08924157,4.662633,1.1625051,-0.9666608,-3.521564,-0.6703765,-7.6135616,-0.33997664
0.08578732,4.6639676,1.1380041,-0.9879661,-3.477888,-0.6703765,-7.6135616,-0.34476504
0.08240613,4.665298,1.1380041,-0.9879661,-3.477888,-0.6703765,-7.6135616,-0.34476504
0.07890831,4.6665382,1.1071115,-1.0145977,-3.424625,-0.2777274,-7.776367,-0.25378537
0.07541222,4.6677723,1.1071115,-1.0145977,-3.424625,-0.2777274,-7.776367,-0.25378537
0.07192428,4.6689754,1.0708925,-1.0380335,-3.3713617,-0.02873042,-7.872135,-0.21068975
0.068496734,4.6701517,1.0708925,-1.0380335,-3.3713617,-0.02873042,-7.872135,-0.21068975
0.06509283,4.6712837,1.0304123,-1.056143,-3.3191638,0.21068975,-7.881712,-0.20590134
0.06168389,4.672412,1.0304123,-1.056143,-3.3191638,0.21068975,-7.881712,-0.20590134
0.058328215,4.673498,0.9878018,-1.0710567,-3.2669659,0.33518824,-7.8529816,-0.15322891
0.05497096,4.6745796,0.9878018,-1.0710567,-3.2669659,0.33518824,-7.8529816,-0.15322891
0.051660124,4.6755967,0.9398649,-1.0849051,-3.2158332,0.5267244,-7.723695,-0.20111294
0.04834783,4.676609,0.9398649,-1.0849051,-3.2158332,0.5267244,-7.723695,-0.20111294
0.04508752,4.6775546,0.88979745,-1.0955578,-3.1678963,0.7086837,-7.5800424,-0.2633622
0.041777,4.6785088,0.88979745,-1.0955578,-3.1678963,0.7086837,-7.5800424,-0.2633622
0.038553935,4.6793957,0.83653426,-1.0998188,-3.1220899,0.80924016,-7.441179,-0.23942018
0.035320073,4.6802797,0.83653426,-1.0998188,-3.1220899,0.80924016,-7.441179,-0.23942018
0.032138713,4.681101,0.77900994,-1.1008841,-3.078414,0.92416185,-7.359776,-0.22026655
0.028956292,4.6819177,0.77900994,-1.1008841,-3.078414,0.92416185,-7.359776,-0.22026655
0.025811547,4.6826754,0.7214857,-1.0976883,-3.0368688,1.1061212,-7.1873937,-0.19632454
0.022672076,4.6834264,0.7214857,-1.0976883,-3.0368688,1.1061212,-7.1873937,-0.19632454
0.01957066,4.684114,0.66502666,-1.0881009,-2.9942582,1.2354081,-7.1251445,-0.22984336
0.016465275,4.684798,0.66502666,-1.0881009,-2.9942582,1.2354081,-7.1251445,-0.22984336
0.013416317,4.685438,0.61282873,-1.0753177,-2.9516475,1.3934253,-7.067683,-0.062249243
0.010357361,4.686076,0.61282873,-1.0753177,-2.9516475,1.3934253,-7.067683,-0.062249243
0.0073527815,4.6866665,0.56276125,-1.056143,-2.9079716,1.5275006,-7.086837,0.047884032
0.004329338,4.687258,0.56276125,-1.056143,-2.9079716,1.5275006,-7.086837,0.047884032
0.0013608224,4.687798,0.5148244,-1.0327072,-2.8653612,1.6041151,-7.192182,0.10055647
6.2815714,4.688336,0.5148244,-1.0327072,-2.8653612,1.6041151,-7.192182,0.10055647
6.2786436,4.688829,0.4722138,-1.0060756,-2.82062,1.6711528,-7.2113357,0.1340753
6.275709,4.6893206,0.4722138,-1.0060756,-2.82062,1.6711528,-7.2113357,0.1340753
6.272827,4.689768,0.4359948,-0.97518295,-2.7748137,1.7860745,-7.264008,0.110133275
6.269939,4.6902137,0.4359948,-0.97518295,-2.7748137,1.7860745,-7.264008,0.110133275
6.2670975,4.6906166,0.40403688,-0.94109446,-2.7268767,1.8914193,-7.2448545,0.019153614
6.264258,4.691016,0.40403688,-0.94109446,-2.7268767,1.8914193,-7.2448545,0.019153614
6.2614613,4.6913877,0.37634,-0.9016797,-2.6778746,1.9249382,-7.225701,0.033518825
6.25867,4.691756,0.37634,-0.9016797,-2.6778746,1.9249382,-7.225701,0.033518825
6.255925,4.692093,0.35290417,-0.8590691,-2.6278071,1.9201498,-7.225701,-0.047884032
6.253175,4.6924276,0.35290417,-0.8590691,-2.6278071,1.9201498,-7.225701,-0.047884032
6.250482,4.6927295,0.33053362,-0.8196543,-2.578805,2.0111294,-7.1634517,-0.15801731
6.247772,4.69303,0.33053362,-0.8196543,-2.578805,2.0111294,-7.1634517,-0.15801731
6.2451234,4.693304,0.31029359,-0.7813048,-2.5276723,2.0398598,-7.1730285,-0.20590134
6.242469,4.6935763,0.31029359,-0.7813048,-2.5276723,2.0398598,-7.1730285,-0.20590134
6.239869,4.693819,0.2921841,-0.74189,-2.4776049,2.1260512,-7.120356,-0.34476504
6.237264,4.69406,0.2921841,-0.74189,-2.4776049,2.1260512,-7.120356,-0.34476504
6.2347164,4.694272,0.2772704,-0.7035405,-2.4275374,1.9871874,-7.062895,-0.49320555
6.232166,4.694482,0.2772704,-0.7035405,-2.4275374,1.9871874,-7.062895,-0.49320555
6.2296667,4.6946754,0.2623567,-0.66838676,-2.3753395,2.078167,-7.0581064,-0.521936
6.227168,4.694867,0.2623567,-0.66838676,-2.3753395,2.078167,-7.0581064,-0.521936
6.2247186,4.6950483,0.2442472,-0.6353636,-2.3231416,2.3894134,-7.1251445,-0.47405192
6.2222714,4.6952276,0.2442472,-0.6353636,-2.3231416,2.3894134,-7.1251445,-0.47405192
6.2198544,4.6953883,0.22507244,-0.60340565,-2.2709436,2.5474305,-7.2592196,-0.51714754
6.2174783,4.6955442,0.22507244,-0.60340565,-2.2709436,2.5474305,-7.2592196,-0.51714754
6.2151246,4.6956925,0.20589767,-0.5703824,-2.219811,2.7629087,-7.393295,-0.40701428
6.2127757,4.695839,0.20589767,-0.5703824,-2.219811,2.7629087,-7.393295,-0.40701428
6.2104726,4.6959734,0.18672292,-0.53735924,-2.1729393,2.7006595,-7.4986396,-0.29688102
6.2081695,4.6961064,0.18672292,-0.53735924,-2.1729393,2.7006595,-7.4986396,-0.29688102
6.2059135,4.696226,0.16541763,-0.50327075,-2.1250024,2.552219,-7.603985,-0.19153613
6.2036576,4.6963444,0.16541763,-0.50327075,-2.1250024,2.552219,-7.603985,-0.19153613
6.201448,4.696443,0.14304708,-0.47024757,-2.0781307,2.27928,-7.6949644,-0.16759412
6.1992383,4.696541,0.14304708,-0.47024757,-2.0781307,2.27928,-7.6949644,-0.16759412
6.197075,4.6966248,0.122807056,-0.44148543,-2.031259,2.0111294,-7.752425,-0.10534488
6.1949115,4.6967077,0.122807056,-0.44148543,-2.031259,2.0111294,-7.752425,-0.10534488
6.1928005,4.696784,0.10363229,-0.41698435,-1.9801264,1.8291701,-7.7428484,-0.01436521
6.1906896,4.6968603,0.10363229,-0.41698435,-1.9801264,1.8291701,-7.7428484,-0.01436521
6.188647,4.696946,0.08552279,-0.3946138,-1.9236674,1.5370775,-7.8050976,0.1388637
6.1866045,4.697032,0.08552279,-0.3946138,-1.9236674,1.5370775,-7.8050976,0.1388637
6.1866045,4.697032,0.08552279,-0.3946138,-1.9236674,1.5370775,-7.8050976,0.1388637
6.1866045,4.697032,0.08552279,-0.3946138,-1.9236674,1.5370775,-7.8050976,0.1388637
6.180049,4.6973042,0.0524996,-0.36052534,-1.8022273,1.3215994,-7.881712,0.22984336
6.179009,4.6973486,0.0524996,-0.36052534,-1.8022273,1.3215994,-7.881712,0.22984336
6.1770453,4.6974087,0.040781688,-0.35306847,-1.7415072,1.5466543,-7.9391727,0.22984336
6.1752286,4.697464,0.040781688,-0.35306847,-1.7415072,1.5466543,-7.9391727,0.22984336
6.173437,4.6974936,0.030129045,-0.34774217,-1.6786566,1.7525556,-7.9152308,0.16759412
6.1715565,4.6975245,0.030129045,-0.34774217,-1.6786566,1.7525556,-7.9152308,0.16759412
6.1699567,4.6975355,0.020541664,-0.3413506,-1.6179365,1.9536686,-7.881712,0.14844051
6.1682234,4.697547,0.020541664,-0.3413506,-1.6179365,1.9536686,-7.881712,0.14844051
6.1665444,4.697549,0.012019549,-0.334959,-1.5625427,2.0733786,-7.872135,0.16280572
6.1648555,4.697551,0.012019549,-0.334959,-1.5625427,2.0733786,-7.872135,0.16280572
6.1632214,4.697544,0.0045626974,-0.32963267,-1.5124753,2.1404164,-7.8529816,0.16759412
6.1615806,4.6975374,0.0045626974,-0.32963267,-1.5124753,2.1404164,-7.8529816,0.16759412
6.159989,4.6975203,0.00030163955,-0.32324108,-1.4634731,2.111686,-7.8050976,0.10055647
6.1584005,4.697503,0.00030163955,-0.32324108,-1.4634731,2.111686,-7.8050976,0.10055647
6.156847,4.697482,-0.0028941538,-0.3168495,-1.418732,2.15957,-7.8386164,0.095768064
6.155292,4.6974607,-0.0028941538,-0.3168495,-1.418732,2.15957,-7.8386164,0.095768064
6.1537914,4.697429,-0.0039594183,-0.31152317,-1.3729256,2.1404164,-7.85777,0.009576807
6.1522927,4.6973977,-0.0039594183,-0.31152317,-1.3729256,2.1404164,-7.85777,0.009576807
6.1508293,4.6973634,-0.0050246827,-0.30832738,-1.3292499,2.2505496,-7.833828,0.0047884034
6.149368,4.6973286,-0.0050246827,-0.30832738,-1.3292499,2.2505496,-7.833828,0.0047884034
6.147946,4.697288,-0.006089947,-0.30619684,-1.2887697,2.303222,-7.833828,-0.033518825
6.146525,4.6972475,-0.006089947,-0.30619684,-1.2887697,2.303222,-7.833828,-0.033518825
6.1451406,4.697209,-0.006089947,-0.30619684,-1.2504202,2.3175871,-7.8912888,-0.0047884034
6.143758,4.6971707,-0.006089947,-0.30619684,-1.2504202,2.3175871,-7.8912888,-0.0047884034
6.142411,4.697126,-0.0071552116,-0.30513158,-1.2142012,2.3942018,-7.9487495,-0.047884032
6.141063,4.6970806,-0.0071552116,-0.30513158,-1.2142012,2.3942018,-7.9487495,-0.047884032
6.139588,4.6970396,-0.0050246827,-0.30619684,-1.1779822,2.3942018,-8.020576,0.009576807
6.1383934,4.6970057,-0.0050246827,-0.30619684,-1.1779822,2.3942018,-8.020576,0.009576807
6.1371427,4.696969,-0.0039594183,-0.30619684,-1.1438938,2.3750482,-8.039729,-0.0047884034
6.1359057,4.696932,-0.0039594183,-0.30619684,-1.1438938,2.3750482,-8.039729,-0.0047884034
6.134637,4.696887,-0.0018288894,-0.30619684,-1.1098053,2.2936451,-8.058883,-0.08140286
6.133388,4.6968417,-0.0018288894,-0.30619684,-1.1098053,2.2936451,-8.058883,-0.08140286
6.1321826,4.696799,0.0024321685,-0.30619684,-1.0746516,2.2888567,-8.054094,-0.10055647
6.1309743,4.6967554,0.0024321685,-0.30619684,-1.0746516,2.2888567,-8.054094,-0.10055647
6.1298056,4.696725,0.0045626974,-0.30619684,-1.0363021,2.2361844,-8.1163435,-0.023942016
6.1286383,4.6966944,0.0045626974,-0.30619684,-1.0363021,2.2361844,-8.1163435,-0.023942016
6.12751,4.6966505,0.0066932263,-0.30406633,-0.9968873,2.2888567,-8.154651,-0.12928689
6.126378,4.696607,0.0066932263,-0.30406633,-0.9968873,2.2888567,-8.154651,-0.12928689
6.1252837,4.6965666,0.00988902,-0.30087054,-0.9596031,2.3798366,-8.159439,-0.12928689
6.1241894,4.6965256,0.00988902,-0.30087054,-0.9596031,2.3798366,-8.159439,-0.12928689
6.1231318,4.6964703,0.010954284,-0.29660946,-0.9233841,2.3894134,-8.197746,-0.25378537
6.1220746,4.6964145,0.010954284,-0.29660946,-0.9233841,2.3894134,-8.197746,-0.25378537
6.121043,4.696353,0.0077584907,-0.29128313,-0.8892956,2.4420857,-8.250419,-0.2777274
6.119991,4.6962905,0.0077584907,-0.29128313,-0.8892956,2.4420857,-8.250419,-0.2777274
6.1190352,4.696226,0.005627962,-0.28808734,-0.85733765,2.3942018,-8.279149,-0.29209262
6.1180468,4.6961603,0.005627962,-0.28808734,-0.85733765,2.3942018,-8.279149,-0.29209262
6.117019,4.696062,0.001366904,-0.28489155,-0.82751024,2.3702598,-8.317456,-0.44532153
6.116128,4.6959767,0.001366904,-0.28489155,-0.82751024,2.3702598,-8.317456,-0.44532153
6.1152215,4.6958766,-0.0050246827,-0.2806305,-0.8019439,2.3511062,-8.350976,-0.48362875
6.1142983,4.6957736,-0.0050246827,-0.2806305,-0.8019439,2.3511062,-8.350976,-0.48362875
6.113395,4.695672,-0.013546798,-0.27636945,-0.78063864,2.3750482,-8.422802,-0.41180268
6.1124854,4.695569,-0.013546798,-0.27636945,-0.78063864,2.3750482,-8.422802,-0.41180268
6.1116138,4.6954346,-0.024199443,-0.27210838,-0.7614639,2.3511062,-8.432379,-0.60333884
6.110742,4.695299,-0.024199443,-0.27210838,-0.7614639,2.3511062,-8.432379,-0.60333884
6.1098933,4.6951494,-0.034852087,-0.26891258,-0.74441963,2.327164,-8.456321,-0.641646
6.1090436,4.6949987,-0.034852087,-0.26891258,-0.74441963,2.327164,-8.456321,-0.641646
6.1082125,4.694839,-0.046569996,-0.26465154,-0.7252449,2.3319526,-8.494628,-0.61770403
6.10738,4.6946783,-0.046569996,-0.26465154,-0.7252449,2.3319526,-8.494628,-0.61770403
6.1065655,4.6945086,-0.056157377,-0.2593252,-0.7092659,2.3463178,-8.499416,-0.62728083
6.10575,4.6943383,-0.056157377,-0.2593252,-0.7092659,2.3463178,-8.499416,-0.62728083
6.1049457,4.6941595,-0.06787529,-0.25293362,-0.697548,2.3511062,-8.523358,-0.60333884
6.10414,4.6939797,-0.06787529,-0.25293362,-0.697548,2.3511062,-8.523358,-0.60333884
6.1033444,4.6937933,-0.077462666,-0.24441151,-0.68583006,2.4037786,-8.523358,-0.60812724
6.1025496,4.6936073,-0.077462666,-0.24441151,-0.68583006,2.4037786,-8.523358,-0.60812724
6.1017685,4.6934156,-0.08491952,-0.23801991,-0.6730469,2.4133554,-8.595184,-0.59855044
6.1009846,4.6932225,-0.08491952,-0.23801991,-0.6730469,2.4133554,-8.595184,-0.59855044
6.100206,4.6930294,-0.092376366,-0.22843254,-0.6623943,2.4420857,-8.614338,-0.5506664
6.0994296,4.6928368,-0.092376366,-0.22843254,-0.6623943,2.4420857,-8.614338,-0.5506664
6.098659,4.692642,-0.09663743,-0.21884516,-0.6528069,2.4468741,-8.614338,-0.5315128
6.0978923,4.692449,-0.09663743,-0.21884516,-0.6528069,2.4468741,-8.614338,-0.5315128
6.0971246,4.6922503,-0.10089848,-0.2113883,-0.64321953,2.456451,-8.662222,-0.5315128
6.096365,4.692053,-0.10089848,-0.2113883,-0.64321953,2.456451,-8.662222,-0.5315128
6.0956078,4.691869,-0.10302901,-0.20499672,-0.6336321,2.4372973,-8.734048,-0.41180268
6.094852,4.6916847,-0.10302901,-0.20499672,-0.6336321,2.4372973,-8.734048,-0.41180268
6.0941052,4.6914883,-0.10302901,-0.19860514,-0.62297946,2.384625,-8.7771435,-0.46926352
6.0933633,4.691293,-0.10302901,-0.19860514,-0.62297946,2.384625,-8.7771435,-0.46926352
6.09263,4.691106,-0.10196375,-0.19540934,-0.6133921,2.3415294,-8.90643,-0.40701428
6.091896,4.690918,-0.10196375,-0.19540934,-0.6133921,2.3415294,-8.90643,-0.40701428
6.0911703,4.6907296,-0.09770269,-0.19540934,-0.6059353,2.3127987,-8.983045,-0.4165911
6.09045,4.690542,-0.09770269,-0.19540934,-0.6059353,2.3127987,-8.983045,-0.4165911
6.0897427,4.690344,-0.09024584,-0.20073566,-0.60060894,2.2936451,-9.069236,-0.50278234
6.0890393,4.690146,-0.09024584,-0.20073566,-0.60060894,2.2936451,-9.069236,-0.50278234
6.088362,4.689936,-0.08278899,-0.2113883,-0.59634787,2.2170308,-9.174581,-0.58897364
6.0876856,4.689726,-0.08278899,-0.2113883,-0.59634787,2.2170308,-9.174581,-0.58897364
6.087011,4.6895237,-0.07213634,-0.22630201,-0.5974131,2.2840683,-9.193734,-0.6464345
6.086336,4.689321,-0.07213634,-0.22630201,-0.5974131,2.2840683,-9.193734,-0.6464345
6.0856395,4.6891375,-0.057222642,-0.24441151,-0.6038047,2.3702598,-9.193734,-0.60333884
6.084943,4.6889534,-0.057222642,-0.24441151,-0.6038047,2.3702598,-9.193734,-0.60333884
6.0842443,4.6887774,-0.041243672,-0.26784733,-0.6133921,2.408567,-9.212888,-0.6655881
6.083546,4.6886005,-0.041243672,-0.26784733,-0.6133921,2.408567,-9.212888,-0.6655881
6.0828214,4.6884446,-0.025264706,-0.29341367,-0.62511003,2.4420857,-9.179369,-0.5793968
6.082099,4.688288,-0.025264706,-0.29341367,-0.62511003,2.4420857,-9.179369,-0.5793968
6.0813627,4.6881437,-0.0071552116,-0.3200453,-0.63895845,2.4612393,-9.155427,-0.59376204
6.080627,4.6879983,-0.0071552116,-0.3200453,-0.63895845,2.4612393,-9.155427,-0.59376204
6.0798693,4.6878715,0.010954284,-0.34774217,-0.65387213,2.5474305,-9.11712,-0.58418524
6.079112,4.6877437,0.010954284,-0.34774217,-0.65387213,2.5474305,-9.11712,-0.58418524
6.078337,4.687629,0.030129045,-0.3733085,-0.67198163,2.5761611,-9.074024,-0.60333884
6.0775657,4.687515,0.030129045,-0.3733085,-0.67198163,2.5761611,-9.074024,-0.60333884
6.076757,4.6874304,0.051434334,-0.4010054,-0.69009113,2.7341783,-9.011775,-0.5363012
6.0759516,4.687346,0.051434334,-0.4010054,-0.69009113,2.7341783,-9.011775,-0.5363012
6.0751204,4.6872854,0.07167436,-0.42976752,-0.71033114,2.8921957,-8.930372,-0.50278234
6.0742893,4.6872244,0.07167436,-0.42976752,-0.71033114,2.8921957,-8.930372,-0.50278234
6.0734344,4.6871824,0.091914386,-0.45533386,-0.7327017,2.9113493,-8.949526,-0.46447513
6.0725794,4.68714,0.091914386,-0.45533386,-0.7327017,2.9113493,-8.949526,-0.46447513
6.0717025,4.6871195,0.11321967,-0.4755739,-0.7529417,2.8778305,-8.930372,-0.4165911
6.070825,4.687098,0.11321967,-0.4755739,-0.7529417,2.8778305,-8.930372,-0.4165911
6.069924,4.687109,0.13239443,-0.49155286,-0.77424705,2.7724855,-8.916007,-0.2873042
6.0690236,4.68712,0.13239443,-0.49155286,-0.77424705,2.7724855,-8.916007,-0.2873042
6.068109,4.687147,0.15263446,-0.5022055,-0.7880955,2.6144683,-8.935161,-0.2777274
6.0671964,4.687174,0.15263446,-0.5022055,-0.7880955,2.6144683,-8.935161,-0.2777274
6.066272,4.6872187,0.175005,-0.5139234,-0.79661757,2.6144683,-8.925584,-0.2825158
6.065349,4.6872635,0.175005,-0.5139234,-0.79661757,2.6144683,-8.925584,-0.2825158
6.06442,4.6873293,0.1963103,-0.52883714,-0.8019439,2.7006595,-8.968679,-0.2681506
6.063493,4.687394,0.1963103,-0.52883714,-0.8019439,2.7006595,-8.968679,-0.2681506
6.062559,4.6874905,0.21974611,-0.54907715,-0.8072702,3.122039,-8.930372,-0.19153613
6.0616274,4.6875863,0.21974611,-0.54907715,-0.8072702,3.122039,-8.930372,-0.19153613
6.0606823,4.6876917,0.24211667,-0.576774,-0.8200534,3.1890767,-8.944737,-0.23942018
6.0597367,4.687796,0.24211667,-0.576774,-0.8200534,3.1890767,-8.944737,-0.23942018
6.058777,4.6879287,0.26448724,-0.59594876,-0.8360324,2.9735985,-8.983045,-0.16759412
6.0578165,4.6880603,0.26448724,-0.59594876,-0.8360324,2.9735985,-8.983045,-0.16759412
6.056843,4.688211,0.28685778,-0.60553616,-0.84881556,2.834735,-8.939949,-0.17717093
6.0558724,4.68836,0.28685778,-0.60553616,-0.84881556,2.834735,-8.939949,-0.17717093
6.054887,4.6885223,0.30816308,-0.6076667,-0.8584029,2.360683,-9.078813,-0.22026655
6.053903,4.688682,0.30816308,-0.6076667,-0.8584029,2.360683,-9.078813,-0.22026655
6.053009,4.6889563,0.32627258,-0.60340565,-0.8562724,2.1452048,-9.02614,-0.14844051
6.052124,4.689233,0.32627258,-0.60340565,-0.8562724,2.1452048,-9.02614,-0.14844051
6.051435,4.6894436,0.34544733,-0.5980793,-0.84135866,2.0159178,-9.050082,-0.20111294
6.0507455,4.6896515,0.34544733,-0.5980793,-0.84135866,2.0159178,-9.050082,-0.20111294
6.049922,4.6899734,0.3646221,-0.592753,-0.8157923,2.1739352,-9.11712,-0.12449849
6.049091,4.690302,0.3646221,-0.592753,-0.8157923,2.1739352,-9.11712,-0.12449849
6.048197,4.690537,0.38379684,-0.5980793,-0.790226,2.9975405,-9.006987,-0.17238252
6.0472784,4.6907783,0.38379684,-0.5980793,-0.790226,2.9975405,-9.006987,-0.17238252
6.046385,4.6910453,0.40510213,-0.61192775,-0.7753123,2.9735985,-9.011775,-0.110133275
6.045486,4.6913133,0.40510213,-0.61192775,-0.7753123,2.9735985,-9.011775,-0.110133275
6.044621,4.691635,0.41895056,-0.60340565,-0.76039857,2.4899697,-9.150639,-0.076614454
6.0437546,4.691957,0.41895056,-0.60340565,-0.76039857,2.4899697,-9.150639,-0.076614454
6.0431266,4.692314,0.43066847,-0.576774,-0.7390933,2.0254946,-9.227253,-0.033518825
6.0425,4.69267,0.43066847,-0.576774,-0.7390933,2.0254946,-9.227253,-0.033518825
6.0419326,4.693008,0.4391906,-0.5522729,-0.7060701,1.8052281,-9.284714,-0.05746084
6.041366,4.693344,0.4391906,-0.5522729,-0.7060701,1.8052281,-9.284714,-0.05746084
6.040853,4.6936646,0.44664744,-0.536294,-0.66559005,1.8866309,-9.308656,-0.1436521
6.0403366,4.693987,0.44664744,-0.536294,-0.66559005,1.8866309,-9.308656,-0.1436521
6.0398574,4.694289,0.45197377,-0.5267066,-0.6283058,2.1691468,-9.337387,-0.18674773
6.039376,4.6945906,0.45197377,-0.5267066,-0.6283058,2.1691468,-9.337387,-0.18674773
6.038928,4.694895,0.45516956,-0.5181845,-0.59421736,2.2170308,-9.3661175,-0.18195933
6.0384774,4.695197,0.45516956,-0.5181845,-0.59421736,2.2170308,-9.3661175,-0.18195933
6.038012,4.695446,0.4541043,-0.5054013,-0.5590636,2.1787236,-9.414001,-0.30645782
6.0375547,4.6956906,0.4541043,-0.5054013,-0.5590636,2.1787236,-9.414001,-0.30645782
6.0370026,4.6959467,0.45197377,-0.4926181,-0.52604043,2.2840683,-9.394848,-0.37828386
6.036562,4.696152,0.45197377,-0.4926181,-0.52604043,2.2840683,-9.394848,-0.37828386
6.036562,4.696152,0.45197377,-0.4926181,-0.52604043,2.2840683,-9.394848,-0.37828386
6.035701,4.696636,0.44771272,-0.48196548,-0.49621302,2.1739352,-9.399636,-0.38307226
6.0353436,4.6968527,0.44025585,-0.46598652,-0.46745086,2.0590134,-9.3661175,-0.48841715
6.034928,4.6971035,0.44025585,-0.46598652,-0.46745086,2.0590134,-9.3661175,-0.48841715
6.034592,4.6973333,0.42960322,-0.44787702,-0.44081926,2.0015526,-9.337387,-0.44532153
6.034271,4.697553,0.42960322,-0.44787702,-0.44081926,2.0015526,-9.337387,-0.44532153
6.034271,4.697553,0.42960322,-0.44787702,-0.44081926,2.0015526,-9.337387,-0.44532153
6.034271,4.697553,0.42960322,-0.44787702,-0.44081926,2.0015526,-9.337387,-0.44532153
6.034271,4.697553,0.42960322,-0.44787702,-0.44081926,2.0015526,-9.337387,-0.44532153
6.0328407,4.698503,0.40723267,-0.41059276,-0.38329497,2.0685902,-9.141062,-0.5410896
6.032649,4.6986275,0.39231896,-0.38928747,-0.3502718,2.135628,-9.069236,-0.49320555
6.0323434,4.6988263,0.39231896,-0.38928747,-0.3502718,2.135628,-9.069236,-0.49320555
6.0320325,4.6990066,0.37527472,-0.36372113,-0.32150963,2.2649148,-9.016563,-0.5602432
6.0317316,4.6991816,0.37527472,-0.36372113,-0.32150963,2.2649148,-9.016563,-0.5602432
6.031424,4.699348,0.35716522,-0.3381548,-0.29168224,2.4037786,-8.978256,-0.5506664
6.031117,4.6995144,0.35716522,-0.3381548,-0.29168224,2.4037786,-8.978256,-0.5506664
6.0308013,4.6996756,0.3369252,-0.31045792,-0.26398537,2.5139117,-8.925584,-0.47405192
6.030489,4.699836,0.3369252,-0.31045792,-0.26398537,2.5139117,-8.925584,-0.47405192
6.0301743,4.6999917,0.31561992,-0.2774347,-0.2416148,2.566584,-8.930372,-0.3878607
6.029866,4.700145,0.31561992,-0.2774347,-0.2416148,2.566584,-8.930372,-0.3878607
6.0295696,4.7002873,0.2921841,-0.24228097,-0.22030951,2.6192567,-8.935161,-0.4213795
6.02927,4.700432,0.2921841,-0.24228097,-0.22030951,2.6192567,-8.935161,-0.4213795
6.0289636,4.700578,0.26874828,-0.20606199,-0.20326528,2.695871,-8.949526,-0.33039984
6.028657,4.700724,0.26874828,-0.20606199,-0.20326528,2.695871,-8.949526,-0.33039984
6.028356,4.7008624,0.24637774,-0.16877773,-0.19154738,2.681506,-9.016563,-0.2825158
6.028054,4.701001,0.24637774,-0.16877773,-0.19154738,2.681506,-9.016563,-0.2825158
6.027794,4.701108,0.22507244,-0.12936294,-0.17982946,2.5905263,-9.045294,-0.320823
6.027533,4.701215,0.22507244,-0.12936294,-0.17982946,2.5905263,-9.045294,-0.320823
6.0273194,4.701295,0.20163663,-0.08888289,-0.16917682,2.4851813,-9.131485,-0.29688102
6.0271063,4.7013755,0.20163663,-0.08888289,-0.16917682,2.4851813,-9.131485,-0.29688102
6.026944,4.701438,0.17926607,-0.050533377,-0.15639365,2.4133554,-9.155427,-0.31603462
6.026782,4.701501,0.17926607,-0.050533377,-0.15639365,2.4133554,-9.155427,-0.31603462
6.026718,4.701568,0.15689552,-0.016444914,-0.14361048,2.2888567,-9.255983,-0.23942018
6.026654,4.7016354,0.15689552,-0.016444914,-0.14361048,2.2888567,-9.255983,-0.23942018
6.0266137,4.701694,0.13452496,0.017643549,-0.12869677,2.2026656,-9.3661175,-0.31603462
6.0265737,4.7017527,0.13452496,0.017643549,-0.12869677,2.2026656,-9.3661175,-0.31603462
6.0265822,4.701829,0.11321967,0.050666746,-0.11378307,2.111686,-9.437943,-0.23942018
6.026591,4.7019053,0.11321967,0.050666746,-0.11378307,2.111686,-9.437943,-0.23942018
6.026629,4.701985,0.09084912,0.08049415,-0.09460831,2.0446482,-9.528923,-0.20111294
6.026667,4.702065,0.09084912,0.08049415,-0.09460831,2.0446482,-9.528923,-0.20111294
6.0267286,4.7021494,0.06954383,0.1060605,-0.076498814,2.0254946,-9.586384,-0.1388637
6.0267906,4.7022343,0.06954383,0.1060605,-0.076498814,2.0254946,-9.586384,-0.1388637
6.0268674,4.7023034,0.051434334,0.12736578,-0.060519844,2.0350714,-9.610326,-0.14844051
6.026944,4.702372,0.051434334,0.12736578,-0.060519844,2.0350714,-9.610326,-0.14844051
6.0270386,4.702455,0.032259572,0.1476058,-0.04241035,1.9919758,-9.615114,-0.05267244
6.027134,4.702538,0.032259572,0.1476058,-0.04241035,1.9919758,-9.615114,-0.05267244
6.0272417,4.7026215,0.013084813,0.16465004,-0.024300855,2.006341,-9.643845,0.0047884034
6.0273504,4.7027054,0.013084813,0.16465004,-0.024300855,2.006341,-9.643845,0.0047884034
6.0274706,4.7027855,-0.0039594183,0.17956375,-0.0072566224,1.958457,-9.715671,0.062249243
6.027591,4.7028656,-0.0039594183,0.17956375,-0.0072566224,1.958457,-9.715671,0.062249243
6.0276995,4.70296,-0.019938385,0.19128166,0.0044612866,1.9728222,-9.730036,0.23463176
6.027808,4.7030554,-0.019938385,0.19128166,0.0044612866,1.9728222,-9.730036,0.23463176
6.0279245,4.703138,-0.035917353,0.1987385,0.015113931,1.958457,-9.811439,0.272939
6.028042,4.7032213,-0.035917353,0.1987385,0.015113931,1.958457,-9.811439,0.272939
6.0281734,4.703287,-0.049765788,0.20299956,0.025766576,1.9919758,-9.854534,0.22505496
6.0283055,4.703354,-0.049765788,0.20299956,0.025766576,1.9919758,-9.854534,0.22505496
6.028441,4.70341,-0.0614837,0.20406483,0.031092897,1.982399,-9.873688,0.24899697
6.0285764,4.703467,-0.0614837,0.20406483,0.031092897,1.982399,-9.873688,0.24899697
6.0287147,4.703513,-0.07000581,0.20086904,0.03428869,1.9728222,-9.907207,0.25378537
6.028854,4.70356,-0.07000581,0.20086904,0.03428869,1.9728222,-9.907207,0.25378537
6.028997,4.7035947,-0.077462666,0.19447745,0.035353955,1.9536686,-9.883265,0.23463176
6.029141,4.7036295,-0.077462666,0.19447745,0.035353955,1.9536686,-9.883265,0.23463176
6.0292764,4.7036624,-0.08172372,0.1870206,0.033223428,1.9919758,-9.89763,0.25857377
6.0294123,4.703696,-0.08172372,0.1870206,0.033223428,1.9919758,-9.89763,0.25857377
6.029539,4.703727,-0.08598478,0.17530268,0.031092897,2.0350714,-9.878476,0.272939
6.029667,4.703758,-0.08598478,0.17530268,0.031092897,2.0350714,-9.878476,0.272939
6.0297847,4.703784,-0.089180574,0.15932372,0.024701312,2.1212628,-9.868899,0.23463176
6.0299025,4.7038097,-0.089180574,0.15932372,0.024701312,2.1212628,-9.868899,0.23463176
6.0299845,4.703845,-0.089180574,0.14227949,0.014048667,2.2409728,-9.844957,0.2777274
6.030067,4.7038803,-0.089180574,0.14227949,0.014048667,2.2409728,-9.844957,0.2777274
6.030122,4.703916,-0.08811531,0.12417,-0.0029955646,2.2649148,-9.854534,0.32561144
6.030177,4.703951,-0.08811531,0.12417,-0.0029955646,2.2649148,-9.854534,0.32561144
6.030208,4.7039895,-0.08385425,0.104995236,-0.016844003,2.3511062,-9.801862,0.24899697
6.0302396,4.704027,-0.08385425,0.104995236,-0.016844003,2.3511062,-9.801862,0.24899697
6.030241,4.70407,-0.077462666,0.085820474,-0.03282297,2.3894134,-9.816227,0.30645782
6.030242,4.704113,-0.077462666,0.085820474,-0.03282297,2.3894134,-9.816227,0.30645782
6.0302186,4.7041593,-0.06894055,0.06344992,-0.053062994,2.408567,-9.758766,0.2681506
6.030195,4.7042055,-0.06894055,0.06344992,-0.053062994,2.408567,-9.758766,0.2681506
6.0301533,4.704261,-0.058287904,0.04214463,-0.07330302,2.3894134,-9.773131,0.272939
6.030119,4.7043066,-0.058287904,0.04214463,-0.07330302,2.3894134,-9.773131,0.272939
6.0300636,4.704364,-0.04763526,0.020839343,-0.09460831,2.360683,-9.816227,0.29209262
6.0300155,4.7044144,-0.04763526,0.020839343,-0.09460831,2.360683,-9.816227,0.29209262
6.029957,4.7044697,-0.035917353,-0.00046594674,-0.11697886,2.2984335,-9.825804,0.2873042
6.0298977,4.7045255,-0.035917353,-0.00046594674,-0.11697886,2.2984335,-9.825804,0.2873042
6.0298357,4.7045813,-0.022068914,-0.0228365,-0.13934942,2.2697031,-9.89763,0.21547815
6.0297756,4.7046356,-0.022068914,-0.0228365,-0.13934942,2.2697031,-9.89763,0.21547815
6.0296893,4.7047043,-0.006089947,-0.044141788,-0.15852417,2.1930888,-9.92636,0.34476504
6.0296035,4.7047725,-0.006089947,-0.044141788,-0.15852417,2.1930888,-9.92636,0.34476504
6.0295014,4.704853,0.012019549,-0.066512346,-0.1755684,2.1547816,-9.983821,0.3878607
6.0294013,4.7049317,0.012019549,-0.066512346,-0.1755684,2.1547816,-9.983821,0.3878607
6.0292954,4.705017,0.030129045,-0.08781763,-0.1936779,2.0973208,-10.012551,0.34476504
6.02919,4.705102,0.030129045,-0.08781763,-0.1936779,2.0973208,-10.012551,0.34476504
6.029069,4.7052016,0.05036907,-0.110188186,-0.20859161,2.0446482,-10.036493,0.40222588
6.02895,4.7052994,0.05036907,-0.110188186,-0.20859161,2.0446482,-10.036493,0.40222588
6.02882,4.705415,0.073804885,-0.13149348,-0.22137478,2.0159178,-10.04607,0.39264908
6.028688,4.7055316,0.073804885,-0.13149348,-0.22137478,2.0159178,-10.04607,0.39264908
6.0285454,4.705661,0.09511018,-0.1517335,-0.23735374,1.9919758,-10.031705,0.39264908
6.0284023,4.70579,0.09511018,-0.1517335,-0.23735374,1.9919758,-10.031705,0.39264908
6.028247,4.705937,0.118545994,-0.16984299,-0.2512022,1.9871874,-10.012551,0.38307226
6.0280914,4.706084,0.118545994,-0.16984299,-0.2512022,1.9871874,-10.012551,0.38307226
6.027928,4.7062488,0.14304708,-0.18795249,-0.26185483,1.9393034,-9.993398,0.39743748
6.027765,4.7064133,0.14304708,-0.18795249,-0.26185483,1.9393034,-9.993398,0.39743748
6.0275855,4.7066016,0.1664829,-0.20712726,-0.27037695,2.0207062,-9.916783,0.3878607
6.0274067,4.70679,0.1664829,-0.20712726,-0.27037695,2.0207062,-9.916783,0.3878607
6.0272264,4.7069902,0.18672292,-0.22523674,-0.27676854,1.9919758,-9.89763,0.36870706
6.027046,4.707191,0.18672292,-0.22523674,-0.27676854,1.9919758,-9.89763,0.36870706
6.0268455,4.7074184,0.21015874,-0.24015045,-0.28422537,2.111686,-9.816227,0.37828386
6.026646,4.7076445,0.21015874,-0.24015045,-0.28422537,2.111686,-9.816227,0.37828386
6.0264616,4.7078753,0.23146403,-0.25399888,-0.29168224,2.1068976,-9.782708,0.20590134
6.0262804,4.7081013,0.23146403,-0.25399888,-0.29168224,2.1068976,-9.782708,0.20590134
6.0260806,4.708354,0.24957353,-0.2657168,-0.29700854,2.2457612,-9.763555,0.18195933
6.025884,4.7086034,0.24957353,-0.2657168,-0.29700854,2.2457612,-9.763555,0.18195933
6.0256453,4.7088914,0.26768303,-0.2742389,-0.30340013,2.3558946,-9.68694,0.20590134
6.025424,4.709159,0.26768303,-0.2742389,-0.30340013,2.3558946,-9.68694,0.20590134
6.0252,4.709445,0.2804662,-0.27956524,-0.310857,2.3463178,-9.595961,0.12928689
6.024966,4.7097454,0.2804662,-0.27956524,-0.310857,2.3463178,-9.595961,0.12928689
6.024744,4.710038,0.2921841,-0.28276104,-0.31724858,2.3223755,-9.572019,0.12449849
6.0245266,4.7103252,0.2921841,-0.28276104,-0.31724858,2.3223755,-9.572019,0.12449849
6.024291,4.710634,0.303902,-0.28489155,-0.3225749,2.27928,-9.56723,0.19153613
6.024058,4.710941,0.303902,-0.28489155,-0.3225749,2.27928,-9.56723,0.19153613
6.0238285,4.7112494,0.31348938,-0.29021788,-0.3279012,2.2649148,-9.5385,0.16759412
6.0236006,4.7115564,0.31348938,-0.29021788,-0.3279012,2.2649148,-9.5385,0.16759412
6.023371,4.7118683,0.3220115,-0.29447892,-0.33322755,2.207454,-9.528923,0.18195933
6.023145,4.7121763,0.3220115,-0.29447892,-0.33322755,2.207454,-9.528923,0.18195933
6.022925,4.712484,0.33053362,-0.29980525,-0.33535808,2.1883004,-9.524135,0.15801731
6.0227065,4.7127895,0.33053362,-0.29980525,-0.33535808,2.1883004,-9.524135,0.15801731
6.022487,4.7130995,0.33905575,-0.30619684,-0.33855388,2.1787236,-9.533711,0.14844051
6.0222692,4.713407,0.33905575,-0.30619684,-0.33855388,2.1787236,-9.533711,0.14844051
6.0220513,4.713718,0.3465126,-0.31258842,-0.34068438,2.2122424,-9.528923,0.12928689
6.0218344,4.7140265,0.3465126,-0.31258842,-0.34068438,2.2122424,-9.528923,0.12928689
6.021633,4.7143154,0.3550347,-0.31898,-0.3374886,2.2026656,-9.490616,0.05746084
6.021434,4.7146015,0.3550347,-0.31898,-0.3374886,2.2026656,-9.490616,0.05746084
6.021229,4.7149115,0.36355683,-0.32643688,-0.33535808,2.2601264,-9.490616,0.08619126
6.0210257,4.7152185,0.36355683,-0.32643688,-0.33535808,2.2601264,-9.490616,0.08619126
6.020809,4.7155514,0.37101367,-0.33389372,-0.33642334,2.303222,-9.471462,0.11971009
6.0205946,4.7158804,0.37101367,-0.33389372,-0.33642334,2.303222,-9.471462,0.11971009
6.0203905,4.7161956,0.3784705,-0.3381548,-0.3374886,2.3511062,-9.356541,0.062249243
6.020188,4.716507,0.3784705,-0.3381548,-0.3374886,2.3511062,-9.356541,0.062249243
6.019979,4.716765,0.38379684,-0.34241584,-0.33961913,2.4420857,-9.294291,0.023942016
6.0197687,4.7170186,0.38379684,-0.34241584,-0.33961913,2.4420857,-9.294291,0.023942016
6.0192866,4.7173314,0.3848621,-0.3434811,-0.34174967,2.5139117,-9.169792,0.047884032
6.018804,4.7176347,0.3848621,-0.3434811,-0.34174967,2.5139117,-9.169792,0.047884032
6.018317,4.717927,0.3848621,-0.3434811,-0.34494546,2.5761611,-9.102755,0.047884032
6.017832,4.718215,0.3848621,-0.3434811,-0.34494546,2.5761611,-9.102755,0.047884032
6.017352,4.7184677,0.3816663,-0.3413506,-0.3460107,2.633622,-9.021352,0.0047884034
6.0168753,4.718717,0.3816663,-0.3413506,-0.3460107,2.633622,-9.021352,0.0047884034
6.0163884,4.71899,0.37527472,-0.33602425,-0.34388018,2.72939,-8.983045,0.033518825
6.015904,4.7192593,0.37527472,-0.33602425,-0.34388018,2.72939,-8.983045,0.033518825
6.0153613,4.7195587,0.36675262,-0.3285674,-0.34494546,2.8060043,-8.863335,0.038307227
6.0149136,4.719804,0.36675262,-0.3285674,-0.34494546,2.8060043,-8.863335,0.038307227
6.0143857,4.72007,0.35716522,-0.31791475,-0.34388018,2.858677,-8.78672,-0.019153614
6.0143857,4.72007,0.35716522,-0.31791475,-0.34388018,2.858677,-8.78672,-0.019153614
6.0133076,4.7206106,0.34438205,-0.30619684,-0.34174967,2.858677,-8.815451,0.01436521
6.012971,4.7207785,0.34438205,-0.30619684,-0.34174967,2.858677,-8.815451,0.01436521
6.012971,4.7207785,0.34438205,-0.30619684,-0.34174967,2.858677,-8.815451,0.01436521
6.012971,4.7207785,0.34438205,-0.30619684,-0.34174967,2.858677,-8.815451,0.01436521
6.011431,4.721546,0.31348938,-0.2774347,-0.33535808,2.9113493,-8.714894,-0.0047884034
6.011084,4.7217007,0.31348938,-0.2774347,-0.33535808,2.9113493,-8.714894,-0.0047884034
6.010616,4.7219014,0.29644516,-0.26039046,-0.33003175,2.8921957,-8.743625,0.009576807
6.0101495,4.7221007,0.29644516,-0.26039046,-0.33003175,2.8921957,-8.743625,0.009576807
6.0096865,4.722293,0.27833566,-0.24334624,-0.32150963,2.873042,-8.7053175,0.02873042
6.009226,4.7224836,0.27833566,-0.24334624,-0.32150963,2.873042,-8.7053175,0.02873042
6.0087695,4.7226853,0.26022616,-0.22523674,-0.31192225,2.858677,-8.78672,0.095768064
6.008316,4.722885,0.26022616,-0.22523674,-0.31192225,2.858677,-8.78672,0.095768064
6.0078735,4.723057,0.2410514,-0.20819251,-0.29913908,2.858677,-8.7771435,0.062249243
6.0074334,4.7232275,0.2410514,-0.20819251,-0.29913908,2.858677,-8.7771435,0.062249243
6.007009,4.7233915,0.22187665,-0.19008303,-0.28529066,2.8299465,-8.767567,0.08619126
6.0065813,4.723556,0.22187665,-0.19008303,-0.28529066,2.8299465,-8.767567,0.08619126
6.0061703,4.7236986,0.20270188,-0.1730388,-0.27037695,2.7820623,-8.805874,0.076614454
6.005756,4.7238417,0.20270188,-0.1730388,-0.27037695,2.7820623,-8.805874,0.076614454
6.005367,4.723993,0.18246186,-0.15599456,-0.2512022,2.777274,-8.7771435,0.12449849
6.0049753,4.724144,0.18246186,-0.15599456,-0.2512022,2.777274,-8.7771435,0.12449849
6.0046053,4.7242403,0.1632871,-0.14108086,-0.22989689,2.8203697,-8.767567,0.04309563
6.0042367,4.724336,0.1632871,-0.14108086,-0.22989689,2.8203697,-8.767567,0.04309563
6.003893,4.7244225,0.14411235,-0.12723242,-0.20752634,2.825158,-8.734048,0.05746084
6.0035486,4.7245083,0.14411235,-0.12723242,-0.20752634,2.825158,-8.734048,0.05746084
6.003223,4.724585,0.12600285,-0.11338398,-0.18622105,2.8491,-8.748413,0.06703765
6.0028944,4.724662,0.12600285,-0.11338398,-0.18622105,2.8491,-8.748413,0.06703765
6.002561,4.724737,0.10789335,-0.09953554,-0.16278523,2.8921957,-8.695741,0.076614454
6.0022883,4.7247977,0.10789335,-0.09953554,-0.16278523,2.8921957,-8.695741,0.076614454
6.0019937,4.7248735,0.089783855,-0.08781763,-0.13828415,2.8921957,-8.6813755,0.12449849
6.001721,4.724943,0.089783855,-0.08781763,-0.13828415,2.8921957,-8.6813755,0.12449849
6.001477,4.7249694,0.07060909,-0.07609972,-0.11484833,2.96881,-8.695741,0.04309563
6.0012264,4.7249966,0.07060909,-0.07609972,-0.11484833,2.96881,-8.695741,0.04309563
6.0009947,4.725032,0.051434334,-0.06544708,-0.091412514,3.0502129,-8.6813755,0.11971009
6.0007625,4.7250676,0.051434334,-0.06544708,-0.091412514,3.0502129,-8.6813755,0.11971009
6.000554,4.7250805,0.033324838,-0.054794434,-0.0679767,3.098097,-8.623915,0.090979666
6.0003457,4.725094,0.033324838,-0.054794434,-0.0679767,3.098097,-8.623915,0.090979666
6.0001597,4.7251105,0.017345872,-0.045207053,-0.046671405,3.083732,-8.599973,0.15801731
5.9999723,4.7251277,0.017345872,-0.045207053,-0.046671405,3.083732,-8.599973,0.15801731
5.9998064,4.725123,0.00030163955,-0.03455441,-0.026431382,3.0693667,-8.6574335,0.12928689
5.9996405,4.7251186,0.00030163955,-0.03455441,-0.026431382,3.0693667,-8.6574335,0.12928689
5.999492,4.7250986,-0.015677327,-0.023901764,-0.0072566224,3.0454245,-8.7053175,0.11971009
5.999345,4.7250786,-0.015677327,-0.023901764,-0.0072566224,3.0454245,-8.7053175,0.11971009
5.99922,4.7250657,-0.03059103,-0.015379649,0.010852873,3.016694,-8.738836,0.18195933
5.9990945,4.725054,-0.03059103,-0.015379649,0.010852873,3.016694,-8.738836,0.18195933
5.9989867,4.725032,-0.04443947,-0.0068575335,0.027897105,2.954445,-8.78672,0.17717093
5.998879,4.7250104,-0.04443947,-0.0068575335,0.027897105,2.954445,-8.78672,0.17717093
5.9988055,4.725007,-0.057222642,0.0016645822,0.044941336,2.896984,-8.815451,0.24420857
5.9987316,4.7250037,-0.057222642,0.0016645822,0.044941336,2.896984,-8.815451,0.24420857
5.99867,4.724988,-0.06787529,0.010186698,0.0609203,2.825158,-8.839393,0.20111294
5.998609,4.7249727,-0.06787529,0.010186698,0.0609203,2.825158,-8.839393,0.20111294
5.9985867,4.7249675,-0.08065846,0.017643549,0.0790298,2.7964275,-8.901642,0.23463176
5.9985647,4.724962,-0.08065846,0.017643549,0.0790298,2.7964275,-8.901642,0.23463176
5.9985614,4.7249513,-0.09024584,0.024035135,0.09500877,2.8299465,-8.959103,0.25378537
5.998558,4.7249403,-0.09024584,0.024035135,0.09500877,2.8299465,-8.959103,0.25378537
5.9986243,4.724946,-0.09983322,0.028296193,0.10992247,2.7006595,-8.935161,0.2873042
5.9986906,4.7249513,-0.09983322,0.028296193,0.10992247,2.7006595,-8.935161,0.2873042
5.998752,4.7249436,-0.108355336,0.032557253,0.12483617,2.72939,-8.992621,0.24420857
5.9988136,4.7249355,-0.108355336,0.032557253,0.12483617,2.72939,-8.992621,0.24420857
5.9988947,4.724924,-0.11581218,0.035753045,0.13655408,2.7485435,-9.006987,0.29209262
5.9989758,4.724912,-0.11581218,0.035753045,0.13655408,2.7485435,-9.006987,0.29209262
5.9990463,4.7248836,-0.122203775,0.035753045,0.15040252,2.7868507,-9.016563,0.25857377
5.9991164,4.724855,-0.122203775,0.035753045,0.15040252,2.7868507,-9.016563,0.25857377
5.999194,4.7248163,-0.12966062,0.035753045,0.16318569,2.7724855,-9.011775,0.23463176
5.9992714,4.7247777,-0.12966062,0.035753045,0.16318569,2.7724855,-9.011775,0.23463176
5.999325,4.7247047,-0.13711748,0.037883572,0.17277306,2.777274,-9.011775,0.17238252
5.9993787,4.7246313,-0.13711748,0.037883572,0.17277306,2.777274,-9.011775,0.17238252
5.9994426,4.724555,-0.14350906,0.037883572,0.17916466,2.7820623,-8.992621,0.18195933
5.999506,4.7244797,-0.14350906,0.037883572,0.17916466,2.7820623,-8.992621,0.18195933
5.9995728,4.7243943,-0.14990065,0.040014103,0.18555625,2.7724855,-9.069236,0.16280572
5.9996395,4.7243094,-0.14990065,0.040014103,0.18555625,2.7724855,-9.069236,0.16280572
5.999697,4.7241893,-0.15629223,0.04214463,0.1930131,2.801216,-9.069236,0.1340753
5.999755,4.7240696,-0.15629223,0.04214463,0.1930131,2.801216,-9.069236,0.1340753
5.9998717,4.724004,-0.16268381,0.046405688,0.19727415,2.7389667,-9.112331,0.18674773
5.9999833,4.7239404,-0.16268381,0.046405688,0.19727415,2.7389667,-9.112331,0.18674773
6.0001397,4.723688,-0.16801015,0.047470953,0.20260048,2.6623523,-9.121908,0.090979666
6.000285,4.7234316,-0.16801015,0.047470953,0.20260048,2.6623523,-9.121908,0.090979666
6.0006337,4.7232866,-0.17014067,0.047470953,0.20899206,2.6479871,-9.246407,0.10534488
6.0009794,4.7231483,-0.17014067,0.047470953,0.20899206,2.6479871,-9.246407,0.10534488
6.001254,4.72308,-0.17333646,0.047470953,0.21218786,2.6623523,-9.32781,0.15801731
6.001526,4.7230134,-0.17333646,0.047470953,0.21218786,2.6623523,-9.32781,0.15801731
6.0018635,4.7228956,-0.17653225,0.047470953,0.21218786,2.6048915,-9.404425,0.1388637
6.0022006,4.7227793,-0.17653225,0.047470953,0.21218786,2.6048915,-9.404425,0.1388637
6.0025434,4.7226496,-0.17653225,0.046405688,0.21112259,2.5617957,-9.466674,0.1388637
6.002887,4.722521,-0.17653225,0.046405688,0.21112259,2.5617957,-9.466674,0.1388637
6.003234,4.7223864,-0.17653225,0.043209895,0.21325313,2.504335,-9.557653,0.14844051
6.0035796,4.7222533,-0.17653225,0.043209895,0.21325313,2.504335,-9.557653,0.14844051
6.0039253,4.7221284,-0.175467,0.04107937,0.21644892,2.4947581,-9.591172,0.16759412
6.00427,4.722004,-0.175467,0.04107937,0.21644892,2.4947581,-9.591172,0.16759412
6.0046263,4.721858,-0.1722712,0.035753045,0.21751417,2.5234885,-9.643845,0.11971009
6.0049815,4.7217135,-0.1722712,0.035753045,0.21751417,2.5234885,-9.643845,0.11971009
6.0053005,4.7216225,-0.17014067,0.031491987,0.21751417,2.5234885,-9.619903,0.23463176
6.00562,4.7215314,-0.17014067,0.031491987,0.21751417,2.5234885,-9.619903,0.23463176
6.005967,4.72141,-0.16481435,0.02723093,0.21644892,2.5187001,-9.662998,0.14844051
6.0063133,4.7212896,-0.16481435,0.02723093,0.21644892,2.5187001,-9.662998,0.14844051
6.006646,4.7211914,-0.15842277,0.024035135,0.21431838,2.552219,-9.691729,0.17238252
6.006978,4.721095,-0.15842277,0.024035135,0.21431838,2.552219,-9.691729,0.17238252
6.007294,4.7210155,-0.15309644,0.020839343,0.21218786,2.552219,-9.653421,0.19632454
6.007609,4.720937,-0.15309644,0.020839343,0.21218786,2.552219,-9.653421,0.19632454
6.0079126,4.7208705,-0.14670485,0.017643549,0.21005733,2.5091233,-9.610326,0.23942018
6.008215,4.7208047,-0.14670485,0.017643549,0.21005733,2.5091233,-9.610326,0.23942018
6.008535,4.7207274,-0.14137854,0.016578285,0.20686153,2.4756045,-9.572019,0.19153613
6.008854,4.7206516,-0.14137854,0.016578285,0.20686153,2.4756045,-9.572019,0.19153613
6.0091524,4.7205944,-0.1360522,0.012317227,0.20579627,2.4708161,-9.572019,0.24899697
6.00945,4.720538,-0.1360522,0.012317227,0.20579627,2.4708161,-9.572019,0.24899697
6.0097322,4.7204943,-0.13072589,0.011251962,0.20366573,2.4612393,-9.548077,0.29688102
6.0100136,4.720451,-0.13072589,0.011251962,0.20366573,2.4612393,-9.548077,0.29688102
6.0102744,4.720419,-0.12646483,0.011251962,0.20046994,2.504335,-9.562442,0.32561144
6.0105343,4.7203875,-0.12646483,0.011251962,0.20046994,2.504335,-9.562442,0.32561144
6.0107927,4.720358,-0.12326904,0.010186698,0.19727415,2.4708161,-9.557653,0.35913026
6.01105,4.720329,-0.12326904,0.010186698,0.19727415,2.4708161,-9.557653,0.35913026
6.011314,4.7203007,-0.11900798,0.010186698,0.19514363,2.4899697,-9.581595,0.29688102
6.011577,4.7202735,-0.11900798,0.010186698,0.19514363,2.4899697,-9.581595,0.29688102
6.0118275,4.720254,-0.11474692,0.010186698,0.19194783,2.5091233,-9.591172,0.31603462
6.0120764,4.720234,-0.11474692,0.010186698,0.19194783,2.5091233,-9.591172,0.31603462
6.0123224,4.7202177,-0.11155113,0.009121433,0.18875204,2.5234885,-9.557653,0.2777274
6.012567,4.7202015,-0.11155113,0.009121433,0.18875204,2.5234885,-9.557653,0.2777274
6.012812,4.720187,-0.1094206,0.010186698,0.18555625,2.5234885,-9.528923,0.24899697
6.013056,4.720173,-0.1094206,0.010186698,0.18555625,2.5234885,-9.528923,0.24899697
6.013313,4.7201567,-0.10515954,0.011251962,0.18236046,2.4851813,-9.576807,0.25378537
6.0135694,4.7201405,-0.10515954,0.011251962,0.18236046,2.4851813,-9.576807,0.25378537
6.013791,4.720137,-0.10302901,0.011251962,0.1780994,2.5570073,-9.600749,0.272939
6.0140123,4.7201343,-0.10302901,0.011251962,0.1780994,2.5570073,-9.600749,0.272939
6.0142455,4.720129,-0.10089848,0.012317227,0.1749036,2.528277,-9.600749,0.25378537
6.0144773,4.7201242,-0.10089848,0.012317227,0.1749036,2.528277,-9.600749,0.25378537
6.014711,4.7201195,-0.09983322,0.014447756,0.17064254,2.504335,-9.591172,0.2633622
6.014941,4.720115,-0.09983322,0.014447756,0.17064254,2.504335,-9.591172,0.2633622
6.01517,4.7201147,-0.09770269,0.016578285,0.16957727,2.5139117,-9.595961,0.2633622
6.015403,4.7201147,-0.09770269,0.016578285,0.16957727,2.5139117,-9.595961,0.2633622
6.0156407,4.7201114,-0.09557216,0.019774077,0.16744675,2.4708161,-9.586384,0.25378537
6.015875,4.7201085,-0.09557216,0.019774077,0.16744675,2.4708161,-9.586384,0.25378537
6.0161266,4.7201004,-0.0945069,0.022969872,0.16638148,2.4612393,-9.5385,0.20590134
6.0163755,4.720093,-0.0945069,0.022969872,0.16638148,2.4612393,-9.5385,0.20590134
6.016662,4.720052,-0.09663743,0.0251004,0.16531622,2.4181437,-9.576807,0.14844051
6.0169497,4.7200117,-0.09663743,0.0251004,0.16531622,2.4181437,-9.576807,0.14844051
6.0172544,4.7199354,-0.09876795,0.02723093,0.16638148,2.3942018,-9.586384,0.095768064
6.017559,4.71986,-0.09876795,0.02723093,0.16638148,2.3942018,-9.586384,0.095768064
6.017865,4.7197733,-0.10302901,0.029361458,0.16638148,2.3750482,-9.629479,0.08619126
6.018173,4.7196865,-0.10302901,0.029361458,0.16638148,2.3750482,-9.629479,0.08619126
6.0184774,4.7196,-0.1094206,0.029361458,0.16531622,2.360683,-9.595961,0.095768064
6.0187798,4.719515,-0.1094206,0.029361458,0.16531622,2.360683,-9.595961,0.095768064
6.0190687,4.7194486,-0.11687745,0.029361458,0.16318569,2.3223755,-9.581595,0.15322891
6.0193605,4.719382,-0.11687745,0.029361458,0.16318569,2.3223755,-9.581595,0.15322891
6.0196557,4.7192936,-0.12539956,0.02723093,0.16212043,2.336741,-9.572019,0.11971009
6.019949,4.7192073,-0.12539956,0.02723093,0.16212043,2.336741,-9.572019,0.11971009
6.0202384,4.719123,-0.13392168,0.022969872,0.16212043,2.303222,-9.557653,0.15322891
6.020526,4.719039,-0.13392168,0.022969872,0.16212043,2.303222,-9.557653,0.15322891
6.0208135,4.718951,-0.14350906,0.018708814,0.16212043,2.3415294,-9.509769,0.15322891
6.0211163,4.71886,-0.14350906,0.018708814,0.16212043,2.3415294,-9.509769,0.15322891
6.021534,4.7186966,-0.15522698,0.01551302,0.1599899,2.3750482,-9.457097,0.10534488
6.021534,4.7186966,-0.15522698,0.01551302,0.1599899,2.3750482,-9.457097,0.10534488
6.0219264,4.7185483,-0.16481435,0.012317227,0.1567941,2.3798366,-9.394848,0.18674773
6.022183,4.718464,-0.16481435,0.012317227,0.1567941,2.3798366,-9.394848,0.18674773
6.0224357,4.7183657,-0.17440173,0.009121433,0.15253304,2.3750482,-9.346964,0.15801731
6.022669,4.718276,-0.17440173,0.009121433,0.15253304,2.3750482,-9.346964,0.15801731
6.022894,4.718179,-0.18292385,0.0048603755,0.14933725,2.3558946,-9.275137,0.16759412
6.0231485,4.71807,-0.18292385,0.0048603755,0.14933725,2.3558946,-9.275137,0.16759412
6.023327,4.717984,-0.19251123,0.003795111,0.1450762,2.3798366,-9.246407,0.14844051
6.0235453,4.7178793,-0.19251123,0.003795111,0.1450762,2.3798366,-9.246407,0.14844051
6.023776,4.717757,-0.20103334,0.003795111,0.14188041,2.3654714,-9.284714,0.1340753
6.0240045,4.717637,-0.20103334,0.003795111,0.14188041,2.3654714,-9.284714,0.1340753
6.024193,4.7175245,-0.2084902,0.003795111,0.13761935,2.3798366,-9.232041,0.16759412
6.024381,4.7174115,-0.2084902,0.003795111,0.13761935,2.3798366,-9.232041,0.16759412
6.0245786,4.717287,-0.21594705,0.0048603755,0.13335828,2.3319526,-9.217676,0.18674773
6.0247765,4.717163,-0.21594705,0.0048603755,0.13335828,2.3319526,-9.217676,0.18674773
6.0249867,4.717022,-0.22553442,0.0069909045,0.12909722,2.327164,-9.217676,0.14844051
6.025195,4.7168818,-0.22553442,0.0069909045,0.12909722,2.327164,-9.217676,0.14844051
6.025449,4.7167006,-0.23192601,0.009121433,0.13016249,2.3511062,-9.227253,0.07182605
6.0257,4.7165217,-0.23192601,0.009121433,0.13016249,2.3511062,-9.227253,0.07182605
6.0258875,4.7163815,-0.23618707,0.012317227,0.13016249,2.336741,-9.208099,0.17238252
6.026073,4.7162423,-0.23618707,0.012317227,0.13016249,2.336741,-9.208099,0.17238252
6.0262914,4.7160845,-0.24151339,0.016578285,0.13122776,2.303222,-9.155427,0.12449849
6.0265074,4.715928,-0.24151339,0.016578285,0.13122776,2.303222,-9.155427,0.12449849
6.026747,4.7157564,-0.24364392,0.020839343,0.13335828,2.2984335,-9.169792,0.095768064
6.026984,4.715586,-0.24364392,0.020839343,0.13335828,2.2984335,-9.169792,0.095768064
6.0272007,4.71543,-0.24683972,0.024035135,0.1386846,2.2409728,-9.160215,0.19153613
6.0274158,4.715274,-0.24683972,0.024035135,0.1386846,2.2409728,-9.160215,0.19153613
6.0276613,4.7151027,-0.2500355,0.028296193,0.14614145,2.231396,-9.14585,0.1340753
6.0279055,4.7149324,-0.2500355,0.028296193,0.14614145,2.231396,-9.14585,0.1340753
6.028176,4.714746,-0.25216603,0.032557253,0.15466358,2.1547816,-9.174581,0.1340753
6.028445,4.71456,-0.25216603,0.032557253,0.15466358,2.1547816,-9.174581,0.1340753
6.028712,4.714383,-0.2532313,0.035753045,0.16212043,2.1308396,-9.188946,0.19153613
6.028972,4.714211,-0.2532313,0.035753045,0.16212043,2.1308396,-9.188946,0.19153613
6.0292397,4.7140384,-0.2532313,0.03681831,0.16851202,2.1260512,-9.179369,0.18674773
6.0295067,4.713866,-0.2532313,0.03681831,0.16851202,2.1260512,-9.179369,0.18674773
6.0297766,4.7137003,-0.25110078,0.03681831,0.17703412,2.1499932,-9.174581,0.18674773
6.030047,4.713534,-0.25110078,0.03681831,0.17703412,2.1499932,-9.174581,0.18674773
6.030325,4.7133684,-0.25110078,0.035753045,0.1866215,2.135628,-9.150639,0.19153613
6.0306015,4.7132044,-0.25110078,0.035753045,0.1866215,2.135628,-9.150639,0.19153613
6.0308733,4.7130485,-0.24897024,0.03468778,0.19407836,2.1787236,-9.179369,0.20111294
6.031144,4.712893,-0.24897024,0.03468778,0.19407836,2.1787236,-9.179369,0.20111294
6.0314255,4.712736,-0.24790499,0.033622514,0.19940469,2.1499932,-9.141062,0.19632454
6.0317054,4.712579,-0.24790499,0.033622514,0.19940469,2.1499932,-9.141062,0.19632454
6.0319843,4.712426,-0.24577445,0.032557253,0.20153521,2.1883004,-9.107543,0.16280572
6.032259,4.712275,-0.24577445,0.032557253,0.20153521,2.1883004,-9.107543,0.16280572
6.032566,4.7121067,-0.24257866,0.030426722,0.20153521,2.1691468,-9.141062,0.10055647
6.0328717,4.7119393,-0.24257866,0.030426722,0.20153521,2.1691468,-9.141062,0.10055647
6.0331807,4.711771,-0.23938286,0.028296193,0.20046994,2.1547816,-9.131485,0.095768064
6.033488,4.7116046,-0.23938286,0.028296193,0.20046994,2.1547816,-9.131485,0.095768064
6.0337863,4.7114453,-0.23618707,0.026165664,0.1962089,2.1452048,-9.126697,0.12449849
6.034072,4.711293,-0.23618707,0.026165664,0.1962089,2.1452048,-9.126697,0.12449849
6.0343766,4.7111254,-0.23299128,0.021904606,0.19194783,2.183512,-9.126697,0.05746084
6.0346804,4.710959,-0.23299128,0.021904606,0.19194783,2.183512,-9.126697,0.05746084
6.0349536,4.7108135,-0.23086074,0.020839343,0.1866215,2.2888567,-9.14585,0.01436521
6.03522,4.7106714,-0.23086074,0.020839343,0.1866215,2.2888567,-9.14585,0.01436521
6.0353203,4.710531,-0.22766495,0.018708814,0.18236046,2.3750482,-9.193734,0.02873042
6.0354204,4.710391,-0.22766495,0.018708814,0.18236046,2.3750482,-9.193734,0.02873042
6.0354548,4.7101817,-0.22446916,0.017643549,0.17277306,2.4899697,-9.188946,-0.0047884034
6.035489,4.709975,-0.22446916,0.017643549,0.17277306,2.4899697,-9.188946,-0.0047884034
6.035513,4.709759,-0.22127336,0.018708814,0.16425095,2.5761611,-9.212888,-0.023942016
6.0355372,4.7095423,-0.22127336,0.018708814,0.16425095,2.5761611,-9.212888,-0.023942016
6.035554,4.7093234,-0.21701232,0.020839343,0.1567941,2.5617957,-9.284714,-0.038307227
6.035571,4.7091045,-0.21701232,0.020839343,0.1567941,2.5617957,-9.284714,-0.038307227
6.035598,4.708843,-0.21275125,0.0251004,0.1450762,2.504335,-9.275137,-0.10055647
6.0356236,4.7085834,-0.21275125,0.0251004,0.1450762,2.504335,-9.275137,-0.10055647
6.0356627,4.7083073,-0.20955546,0.030426722,0.13655408,2.5139117,-9.351752,-0.1436521
6.035701,4.7080326,-0.20955546,0.030426722,0.13655408,2.5139117,-9.351752,-0.1436521
6.0357776,4.7077384,-0.2084902,0.03468778,0.13122776,2.4277205,-9.370906,-0.1388637
6.0358524,4.7074447,-0.2084902,0.03468778,0.13122776,2.4277205,-9.370906,-0.1388637
6.036025,4.707149,-0.20955546,0.040014103,0.1269667,2.3511062,-9.428367,-0.10534488
6.0361977,4.7068524,-0.20955546,0.040014103,0.1269667,2.3511062,-9.428367,-0.10534488
6.036411,4.706564,-0.21168599,0.04427516,0.12377091,2.2936451,-9.495404,-0.1436521
6.0366144,4.7062893,-0.21168599,0.04427516,0.12377091,2.2936451,-9.495404,-0.1436521
6.036858,4.7060323,-0.21594705,0.049601484,0.12483617,2.3080103,-9.562442,-0.10055647
6.0371027,4.705776,-0.21594705,0.049601484,0.12483617,2.3080103,-9.562442,-0.10055647
6.0373673,4.705549,-0.22020811,0.052797277,0.12803197,2.2026656,-9.662998,-0.095768064
6.037633,4.7053227,-0.22020811,0.052797277,0.12803197,2.2026656,-9.662998,-0.095768064
6.037931,4.7051234,-0.22446916,0.0581236,0.13442355,2.2744915,-9.701305,-0.033518825
6.0381703,4.704965,-0.22446916,0.0581236,0.13442355,2.2744915,-9.701305,-0.033518825
6.0384545,4.704748,-0.22873022,0.06451519,0.14294566,2.2936451,-9.811439,-0.076614454
6.0387344,4.704536,-0.22873022,0.06451519,0.14294566,2.2936451,-9.811439,-0.076614454
6.039008,4.7043715,-0.23405655,0.071972035,0.15359831,2.3175871,-9.830592,-0.023942016
6.039279,4.7042093,-0.23405655,0.071972035,0.15359831,2.3175871,-9.830592,-0.023942016
6.039562,4.7040434,-0.2383176,0.07836362,0.16425095,2.3415294,-9.868899,-0.033518825
6.0398436,4.7038794,-0.2383176,0.07836362,0.16425095,2.3415294,-9.868899,-0.033518825
6.040157,4.7036805,-0.24151339,0.085820474,0.17703412,2.336741,-9.89763,-0.06703765
6.040469,4.7034845,-0.24151339,0.085820474,0.17703412,2.336741,-9.89763,-0.06703765
6.04077,4.7033234,-0.24364392,0.09434259,0.18768677,2.3319526,-9.916783,-0.02873042
6.041071,4.703163,-0.24364392,0.09434259,0.18768677,2.3319526,-9.916783,-0.02873042
6.041387,4.7029934,-0.24683972,0.104995236,0.1962089,2.2888567,-9.974244,-0.023942016
6.0417013,4.7028255,-0.24683972,0.104995236,0.1962089,2.2888567,-9.974244,-0.023942016
6.042038,4.702642,-0.25216603,0.11564788,0.2079268,2.2218192,-9.983821,-0.023942016
6.0423694,4.702462,-0.25216603,0.11564788,0.2079268,2.2218192,-9.983821,-0.023942016
6.0426855,4.702308,-0.25536183,0.12523526,0.21644892,2.2218192,-9.969456,0.05267244
6.0429983,4.702156,-0.25536183,0.12523526,0.21644892,2.2218192,-9.969456,0.05267244
6.043341,4.7019835,-0.2596229,0.13375737,0.22390577,2.1691468,-9.993398,0.019153614
6.0436783,4.7018137,-0.2596229,0.13375737,0.22390577,2.1691468,-9.993398,0.019153614
6.0440407,4.7016063,-0.2660145,0.14227949,0.22923209,2.1404164,-10.055647,-0.05746084
6.044404,4.701399,-0.2660145,0.14227949,0.22923209,2.1404164,-10.055647,-0.05746084
6.044754,4.7012205,-0.2713408,0.14867108,0.2345584,2.1164744,-10.060435,0.04309563
6.0451007,4.7010436,-0.2713408,0.14867108,0.2345584,2.1164744,-10.060435,0.04309563
6.0454636,4.7008476,-0.27560186,0.15506266,0.2377542,2.087744,-10.079589,-0.0047884034
6.045826,4.7006526,-0.27560186,0.15506266,0.2377542,2.087744,-10.079589,-0.0047884034
6.0461926,4.700452,-0.27773237,0.16251951,0.23881947,2.006341,-10.184934,0.0047884034
6.046558,4.7002525,-0.27773237,0.16251951,0.23881947,2.006341,-10.184934,0.0047884034
6.046892,4.7000837,-0.28092816,0.16678058,0.23881947,2.0111294,-10.160992,0.18195933
6.047226,4.699916,-0.28092816,0.16678058,0.23881947,2.0111294,-10.160992,0.18195933
6.0475764,4.6997285,-0.28412396,0.1689111,0.23668894,1.9249382,-10.208876,0.110133275
