Pitch,Roll,Gyro_X,Gyro_Y,Gyro_Z,Accel_X,Accel_Y,Accel_Z
5.8738856,4.6702795,0.0045626974,-0.026032293,0.06305083,3.9217024,-8.7532015,-0.4309563
5.8738527,4.670191,0.003497433,-0.027097559,0.0609203,3.9312792,-8.762778,-0.45968673
5.8738203,4.6701035,0.003497433,-0.027097559,0.0609203,3.9312792,-8.762778,-0.45968673
5.873807,4.670002,0.001366904,-0.027097559,0.0609203,3.9360676,-8.738836,-0.51235914
5.8737936,4.669901,0.001366904,-0.027097559,0.0609203,3.9360676,-8.738836,-0.51235914
5.873761,4.6698084,-0.0007636249,-0.027097559,0.0609203,3.9360676,-8.714894,-0.47884035
5.8737288,4.6697164,-0.0007636249,-0.027097559,0.0609203,3.9360676,-8.714894,-0.47884035
5.873695,4.669623,-0.0018288894,-0.027097559,0.059855036,3.9360676,-8.695741,-0.48362875
5.8736606,4.66953,-0.0018288894,-0.027097559,0.059855036,3.9360676,-8.695741,-0.48362875
5.873632,4.6694336,-0.0018288894,-0.023901764,0.058789775,3.9264908,-8.7053175,-0.48841715
5.873603,4.6693373,-0.0018288894,-0.023901764,0.058789775,3.9264908,-8.7053175,-0.48841715
5.8735843,4.669235,-0.0018288894,-0.023901764,0.05772451,3.8881836,-8.690952,-0.48362875
5.8735657,4.6691327,-0.0018288894,-0.023901764,0.05772451,3.8881836,-8.690952,-0.48362875
5.873518,4.6690497,-0.0018288894,-0.023901764,0.05772451,3.9312792,-8.686164,-0.46447513
5.8734703,4.6689663,-0.0018288894,-0.023901764,0.05772451,3.9312792,-8.686164,-0.46447513
5.873438,4.6688433,-0.0018288894,-0.0228365,0.05772451,3.8977604,-8.6813755,-0.48362875
5.873413,4.668749,-0.0018288894,-0.0228365,0.05772451,3.8977604,-8.6813755,-0.48362875
5.873401,4.668664,-0.0018288894,-0.021771235,0.05772451,3.916914,-8.700529,-0.521936
5.8733873,4.668564,-0.0018288894,-0.021771235,0.05772451,3.916914,-8.700529,-0.521936
5.8733487,4.668476,-0.0018288894,-0.018575443,0.05772451,3.940856,-8.6813755,-0.49320555
5.8733096,4.6683884,-0.0018288894,-0.018575443,0.05772451,3.940856,-8.6813755,-0.49320555
5.873257,4.668313,-0.0018288894,-0.015379649,0.05772451,3.940856,-8.695741,-0.46447513
5.873205,4.6682377,-0.0018288894,-0.015379649,0.05772451,3.940856,-8.695741,-0.46447513
5.873179,4.6681447,-0.0007636249,-0.014314385,0.058789775,3.940856,-8.710106,-0.51235914
5.8731527,4.6680527,-0.0007636249,-0.014314385,0.058789775,3.940856,-8.710106,-0.51235914
5.873177,4.667944,0.00030163955,-0.012183856,0.059855036,3.86903,-8.748413,-0.5363012
5.8732014,4.6678348,0.00030163955,-0.012183856,0.059855036,3.86903,-8.748413,-0.5363012
5.873142,4.667777,0.001366904,-0.010053327,0.0609203,3.9121256,-8.748413,-0.4309563
5.8730817,4.66772,0.001366904,-0.010053327,0.0609203,3.9121256,-8.748413,-0.4309563
5.873065,4.667629,0.001366904,-0.007922798,0.0641161,3.9217024,-8.781932,-0.48362875
5.873048,4.6675396,0.001366904,-0.007922798,0.0641161,3.9217024,-8.781932,-0.48362875
5.8730526,4.667441,0.001366904,-0.0068575335,0.06518136,3.9073372,-8.781932,-0.50757074
5.8730574,4.667342,0.001366904,-0.0068575335,0.06518136,3.9073372,-8.781932,-0.50757074
5.873056,4.6672463,0.001366904,-0.0068575335,0.06624663,3.9073372,-8.796297,-0.48841715
5.8730545,4.667151,0.001366904,-0.0068575335,0.06624663,3.9073372,-8.796297,-0.48841715
5.873014,4.6670837,0.0024321685,-0.005792269,0.06944242,3.9264908,-8.815451,-0.44532153
5.872973,4.6670175,0.0024321685,-0.005792269,0.06944242,3.9264908,-8.815451,-0.44532153
5.8729415,4.6669497,0.0045626974,-0.005792269,0.07476874,3.940856,-8.853758,-0.45010993
5.872909,4.6668825,0.0045626974,-0.005792269,0.07476874,3.940856,-8.853758,-0.45010993
5.872889,4.6668096,0.005627962,-0.005792269,0.0790298,3.9552212,-8.868123,-0.46447513
5.872868,4.6667376,0.005627962,-0.005792269,0.0790298,3.9552212,-8.868123,-0.46447513
5.873043,4.666661,0.005627962,-0.0047270046,0.08435612,3.86903,-8.925584,-0.4213795
5.873215,4.666583,0.005627962,-0.0047270046,0.08435612,3.86903,-8.925584,-0.4213795
5.873406,4.666667,0.0066932263,-0.00366174,0.09074771,3.8402996,-8.939949,-0.37828386
5.873595,4.6667514,0.0066932263,-0.00366174,0.09074771,3.8402996,-8.939949,-0.37828386
5.873589,4.666683,0.0077584907,-0.0025964756,0.0939435,3.8977604,-8.959103,-0.41180268
5.8735714,4.666625,0.0077584907,-0.0025964756,0.0939435,3.8977604,-8.959103,-0.41180268
5.873621,4.6665325,0.0077584907,-0.0015312112,0.09820456,3.9121256,-8.925584,-0.46447513
5.873669,4.6664395,0.0077584907,-0.0015312112,0.09820456,3.9121256,-8.925584,-0.46447513
5.87364,4.6664057,0.0066932263,-0.0015312112,0.10033509,3.9121256,-8.901642,-0.4213795
5.87361,4.666372,0.0066932263,-0.0015312112,0.10033509,3.9121256,-8.901642,-0.4213795
5.8736324,4.666467,0.005627962,-0.0025964756,0.10033509,3.9121256,-8.935161,-0.38307226
5.873653,4.666561,0.005627962,-0.0025964756,0.10033509,3.9121256,-8.935161,-0.38307226
5.873778,4.6666727,0.003497433,-0.0025964756,0.10140035,3.86903,-8.920795,-0.38307226
5.873899,4.6667833,0.003497433,-0.0025964756,0.10140035,3.86903,-8.920795,-0.38307226
5.874035,4.6666813,0.001366904,-0.0015312112,0.10140035,3.86903,-8.949526,-0.45489833
5.8741684,4.6665797,0.001366904,-0.0015312112,0.10140035,3.86903,-8.949526,-0.45489833
5.874174,4.6666584,-0.0007636249,-0.00046594674,0.10140035,3.9312792,-8.939949,-0.37349546
5.8741794,4.666738,-0.0007636249,-0.00046594674,0.10140035,3.9312792,-8.939949,-0.37349546
5.8742414,4.6668425,-0.0007636249,0.0016645822,0.10033509,3.8977604,-8.954314,-0.37828386
5.8743014,4.6669464,-0.0007636249,0.0016645822,0.10033509,3.8977604,-8.954314,-0.37828386
5.8744287,4.667055,-0.0007636249,0.003795111,0.10140035,3.86903,-8.944737,-0.37349546
5.8745556,4.667165,-0.0007636249,0.003795111,0.10140035,3.86903,-8.944737,-0.37349546
5.8745394,4.6671057,0.00030163955,0.00592564,0.09820456,3.964798,-8.978256,-0.4405331
5.874522,4.6670475,0.00030163955,0.00592564,0.09820456,3.964798,-8.978256,-0.4405331
5.874522,4.6669736,0.001366904,0.008056169,0.0939435,3.9025488,-8.954314,-0.4213795
5.87452,4.6669006,0.001366904,0.008056169,0.0939435,3.9025488,-8.954314,-0.4213795
5.874577,4.6670146,0.003497433,0.008056169,0.09074771,3.8881836,-8.930372,-0.35913026
5.8746324,4.6671267,0.003497433,0.008056169,0.09074771,3.8881836,-8.930372,-0.35913026
5.8745813,4.667164,0.0066932263,0.009121433,0.08542138,3.940856,-8.920795,-0.39264908
5.8745303,4.6672,0.0066932263,0.009121433,0.08542138,3.940856,-8.920795,-0.39264908
5.874574,4.667316,0.0077584907,0.0069909045,0.0790298,3.9312792,-8.973468,-0.29688102
5.874617,4.667432,0.0077584907,0.0069909045,0.0790298,3.9312792,-8.973468,-0.29688102
5.8746424,4.667548,0.010954284,0.00592564,0.07263821,3.9743748,-8.99741,-0.2633622
5.8746676,4.667663,0.010954284,0.00592564,0.07263821,3.9743748,-8.99741,-0.2633622
5.874685,4.66778,0.013084813,0.0048603755,0.06731189,3.940856,-8.963891,-0.30166942
5.8747015,4.6678963,0.013084813,0.0048603755,0.06731189,3.940856,-8.963891,-0.30166942
5.874746,4.6680217,0.016280606,0.003795111,0.061985567,3.916914,-8.978256,-0.24420857
5.8747897,4.6681476,0.016280606,0.003795111,0.061985567,3.916914,-8.978256,-0.24420857
5.874799,4.668269,0.018411135,0.003795111,0.056659244,3.9600096,-8.963891,-0.25378537
5.8748074,4.668391,0.018411135,0.003795111,0.056659244,3.9600096,-8.963891,-0.25378537
5.874797,4.668509,0.02160693,0.003795111,0.056659244,3.9312792,-8.954314,-0.33039984
5.8747854,4.668627,0.02160693,0.003795111,0.056659244,3.9312792,-8.954314,-0.33039984
5.874818,4.6687584,0.022672193,0.003795111,0.05346345,3.916914,-8.992621,-0.29209262
5.87485,4.66889,0.022672193,0.003795111,0.05346345,3.916914,-8.992621,-0.29209262
5.8748293,4.6690087,0.023737457,0.003795111,0.05026766,3.916914,-8.935161,-0.33518824
5.8748083,4.669127,0.023737457,0.003795111,0.05026766,3.916914,-8.935161,-0.33518824
5.8747864,4.6692443,0.023737457,0.0016645822,0.049202394,3.940856,-8.978256,-0.33039984
5.8747635,4.6693616,0.023737457,0.0016645822,0.049202394,3.940856,-8.978256,-0.33039984
5.8747,4.669451,0.023737457,0.0005993177,0.047071867,3.9456444,-8.944737,-0.34955344
5.8746357,4.6695404,0.023737457,0.0005993177,0.047071867,3.9456444,-8.944737,-0.34955344
5.8745985,4.6696525,0.023737457,0.0005993177,0.04387607,3.9312792,-8.896853,-0.31124622
5.8745613,4.6697636,0.023737457,0.0005993177,0.04387607,3.9312792,-8.896853,-0.31124622
5.87452,4.6698737,0.023737457,-0.0025964756,0.040680278,3.964798,-8.8777,-0.272939
5.8744783,4.669983,0.023737457,-0.0025964756,0.040680278,3.964798,-8.8777,-0.272939
5.8744097,4.6700726,0.023737457,-0.005792269,0.03854975,3.9456444,-8.916007,-0.33518824
5.87434,4.670162,0.023737457,-0.005792269,0.03854975,3.9456444,-8.916007,-0.33518824
5.874257,4.670237,0.023737457,-0.007922798,0.03641922,3.9600096,-8.911219,-0.33997664
5.874173,4.670312,0.023737457,-0.007922798,0.03641922,3.9600096,-8.911219,-0.33997664
5.8741374,4.6704235,0.023737457,-0.008988062,0.03641922,3.9695864,-8.920795,-0.2681506
5.8741016,4.670535,0.023737457,-0.008988062,0.03641922,3.9695864,-8.920795,-0.2681506
5.874008,4.6705956,0.025867987,-0.010053327,0.03641922,3.9552212,-8.901642,-0.34955344
5.873915,4.670656,0.025867987,-0.010053327,0.03641922,3.9552212,-8.901642,-0.34955344
5.873859,4.670758,0.024802722,-0.010053327,0.035353955,3.9504328,-8.911219,-0.31124622
5.873802,4.670859,0.024802722,-0.010053327,0.035353955,3.9504328,-8.911219,-0.31124622
5.873727,4.670946,0.026933251,-0.012183856,0.03428869,3.964798,-8.848969,-0.30645782
5.873651,4.6710334,0.026933251,-0.012183856,0.03428869,3.964798,-8.848969,-0.30645782
5.873609,4.671144,0.027998514,-0.01324912,0.03641922,3.9743748,-8.916007,-0.272939
5.8735666,4.671255,0.027998514,-0.01324912,0.03641922,3.9743748,-8.916007,-0.272939
5.873465,4.671298,0.027998514,-0.012183856,0.035353955,3.940856,-8.916007,-0.35913026
5.8733635,4.6713395,0.027998514,-0.012183856,0.035353955,3.940856,-8.916007,-0.35913026
5.873272,4.6713166,0.027998514,-0.012183856,0.035353955,3.9695864,-8.935161,-0.39264908
5.87318,4.671294,0.027998514,-0.012183856,0.035353955,3.9695864,-8.935161,-0.39264908
5.8731127,4.671388,0.027998514,-0.012183856,0.03641922,3.940856,-8.882488,-0.320823
5.873045,4.6714816,0.027998514,-0.012183856,0.03641922,3.940856,-8.882488,-0.320823
5.8729906,4.6715875,0.027998514,-0.012183856,0.035353955,3.9552212,-8.916007,-0.30645782
5.872935,4.6716948,0.027998514,-0.012183856,0.035353955,3.9552212,-8.916007,-0.30645782
5.872884,4.671798,0.027998514,-0.012183856,0.035353955,3.9360676,-8.920795,-0.320823
5.8728304,4.671904,0.027998514,-0.012183856,0.035353955,3.9360676,-8.920795,-0.320823
5.872754,4.67199,0.02906378,-0.012183856,0.03641922,3.9504328,-8.959103,-0.33997664
5.872677,4.6720757,0.02906378,-0.012183856,0.03641922,3.9504328,-8.959103,-0.33997664
5.872577,4.672113,0.02906378,-0.012183856,0.03854975,3.9456444,-8.973468,-0.35913026
5.872477,4.6721487,0.02906378,-0.012183856,0.03854975,3.9456444,-8.973468,-0.35913026
5.872409,4.672243,0.030129045,-0.012183856,0.037484486,3.9839516,-8.973468,-0.320823
5.87234,4.6723375,0.030129045,-0.012183856,0.037484486,3.9839516,-8.973468,-0.320823
5.872263,4.6723022,0.032259572,-0.012183856,0.037484486,3.9312792,-8.939949,-0.37349546
5.8721857,4.672267,0.032259572,-0.012183856,0.037484486,3.9312792,-8.939949,-0.37349546
5.8721156,4.6722264,0.034390103,-0.012183856,0.037484486,3.9791632,-8.939949,-0.40222588
5.8720446,4.672185,0.034390103,-0.012183856,0.037484486,3.9791632,-8.939949,-0.40222588
5.872007,4.672124,0.03545537,-0.012183856,0.035353955,3.9504328,-8.949526,-0.40701428
5.8719687,4.6720624,0.03545537,-0.012183856,0.035353955,3.9504328,-8.949526,-0.40701428
5.8718953,4.6720266,0.03652063,-0.012183856,0.035353955,3.9935284,-8.892065,-0.4165911
5.871821,4.671991,0.03652063,-0.012183856,0.035353955,3.9935284,-8.892065,-0.4165911
5.871748,4.671954,0.03865116,-0.012183856,0.03428869,3.9552212,-8.925584,-0.39264908
5.871676,4.671917,0.03865116,-0.012183856,0.03428869,3.9552212,-8.925584,-0.39264908
5.87162,4.671869,0.040781688,-0.01324912,0.033223428,3.9552212,-8.920795,-0.40701428
5.8715644,4.67182,0.040781688,-0.01324912,0.033223428,3.9552212,-8.920795,-0.40701428
5.871468,4.671899,0.041846953,-0.014314385,0.031092897,3.9600096,-8.892065,-0.33997664
5.8713717,4.671977,0.041846953,-0.014314385,0.031092897,3.9600096,-8.892065,-0.33997664
5.8713717,4.671977,0.04291222,-0.015379649,0.02896237,4.0414124,-8.892065,-0.31124622
5.8713717,4.671977,0.04291222,-0.015379649,0.02896237,4.0414124,-8.892065,-0.31124622
5.871081,4.672227,0.043977484,-0.015379649,0.02683184,4.012682,-8.863335,-0.41180268
5.8709884,4.6722054,0.043977484,-0.015379649,0.02683184,4.012682,-8.863335,-0.41180268
5.8709884,4.6722054,0.043977484,-0.015379649,0.02683184,4.012682,-8.863335,-0.41180268
5.870855,4.6721196,0.04291222,-0.015379649,0.027897105,3.9504328,-8.8777,-0.40222588
5.87082,4.6720614,0.04291222,-0.014314385,0.027897105,3.964798,-8.8777,-0.45489833
5.8707843,4.672002,0.04291222,-0.014314385,0.027897105,3.964798,-8.8777,-0.45489833
5.870727,4.6719522,0.04291222,-0.01324912,0.027897105,3.9935284,-8.872911,-0.45010993
5.870671,4.671903,0.04291222,-0.01324912,0.027897105,3.9935284,-8.872911,-0.45010993
5.8706064,4.671859,0.041846953,-0.01324912,0.030027634,3.9791632,-8.834604,-0.4357447
5.870542,4.671814,0.041846953,-0.01324912,0.030027634,3.9791632,-8.834604,-0.4357447
5.8705444,4.671742,0.039716423,-0.014314385,0.02896237,3.940856,-8.901642,-0.48841715
5.870547,4.671669,0.039716423,-0.014314385,0.02896237,3.940856,-8.901642,-0.48841715
5.8704667,4.671631,0.037585896,-0.015379649,0.027897105,3.9552212,-8.848969,-0.40222588
5.870387,4.6715927,0.037585896,-0.015379649,0.027897105,3.9552212,-8.848969,-0.40222588
5.8703623,4.671522,0.03545537,-0.01324912,0.030027634,3.98874,-8.853758,-0.521936
5.8703375,4.6714516,0.03545537,-0.01324912,0.030027634,3.98874,-8.853758,-0.521936
5.8703237,4.6713758,0.032259572,-0.014314385,0.032158162,3.9791632,-8.887277,-0.51235914
5.8703094,4.6712995,0.032259572,-0.014314385,0.032158162,3.9791632,-8.887277,-0.51235914
5.8702884,4.6712227,0.02906378,-0.014314385,0.03428869,3.9695864,-8.8777,-0.47884035
5.870268,4.6711464,0.02906378,-0.014314385,0.03428869,3.9695864,-8.8777,-0.47884035
5.870253,4.6710668,0.027998514,-0.014314385,0.035353955,3.9552212,-8.863335,-0.47884035
5.8702383,4.6709876,0.027998514,-0.014314385,0.035353955,3.9552212,-8.863335,-0.47884035
5.870228,4.670904,0.024802722,-0.014314385,0.037484486,3.9695864,-8.820239,-0.5410896
5.870218,4.670821,0.024802722,-0.014314385,0.037484486,3.9695864,-8.820239,-0.5410896
5.8702626,4.6707296,0.022672193,-0.01324912,0.042810805,3.8642416,-8.810662,-0.6464345
5.8703074,4.670638,0.022672193,-0.01324912,0.042810805,3.8642416,-8.810662,-0.6464345
5.8703556,4.670544,0.018411135,-0.010053327,0.04813713,3.8786068,-8.834604,-0.6655881
5.8704042,4.67045,0.018411135,-0.010053327,0.04813713,3.8786068,-8.834604,-0.6655881
5.870451,4.6703515,0.012019549,-0.0068575335,0.05026766,3.9121256,-8.892065,-0.61770403
5.8704977,4.6702523,0.012019549,-0.0068575335,0.05026766,3.9121256,-8.892065,-0.61770403
5.870488,4.6701593,0.005627962,-0.0068575335,0.055593982,3.9935284,-8.930372,-0.47405192
5.8704786,4.670067,0.005627962,-0.0068575335,0.055593982,3.9935284,-8.930372,-0.47405192
5.870439,4.6699877,0.00030163955,-0.0068575335,0.059855036,4.060566,-8.944737,-0.46926352
5.870399,4.669909,0.00030163955,-0.0068575335,0.059855036,4.060566,-8.944737,-0.46926352
5.8703628,4.669825,-0.0039594183,-0.0047270046,0.0609203,4.003105,-8.887277,-0.45010993
5.870326,4.6697416,-0.0039594183,-0.0047270046,0.0609203,4.003105,-8.887277,-0.45010993
5.8703113,4.6696444,-0.006089947,-0.0025964756,0.06305083,3.98874,-8.858546,-0.47884035
5.870296,4.6695476,-0.006089947,-0.0025964756,0.06305083,3.98874,-8.858546,-0.47884035
5.870303,4.669443,-0.006089947,-0.00046594674,0.06518136,3.9600096,-8.887277,-0.46926352
5.87031,4.669339,-0.006089947,-0.00046594674,0.06518136,3.9600096,-8.887277,-0.46926352
5.8703337,4.669234,-0.0039594183,0.0027298466,0.06624663,3.940856,-8.8777,-0.47884035
5.870357,4.6691284,-0.0039594183,0.0027298466,0.06624663,3.940856,-8.8777,-0.47884035
5.8704133,4.669022,-0.0018288894,0.00592564,0.06731189,3.9264908,-8.90643,-0.545878
5.870469,4.6689157,-0.0018288894,0.00592564,0.06731189,3.9264908,-8.90643,-0.545878
5.870478,4.6688237,0.00030163955,0.011251962,0.06944242,4.0222588,-8.944737,-0.5267244
5.8704867,4.668731,0.00030163955,0.011251962,0.06944242,4.0222588,-8.944737,-0.5267244
5.8705015,4.668642,0.003497433,0.014447756,0.07050768,4.027047,-8.944737,-0.5506664
5.8705163,4.668553,0.003497433,0.014447756,0.07050768,4.027047,-8.944737,-0.5506664
5.870547,4.6684647,0.0077584907,0.017643549,0.07050768,4.0078936,-8.930372,-0.59376204
5.870577,4.668377,0.0077584907,0.017643549,0.07050768,4.0078936,-8.930372,-0.59376204
5.8706026,4.668297,0.013084813,0.020839343,0.06944242,3.9983168,-8.892065,-0.59376204
5.8706284,4.6682158,0.013084813,0.020839343,0.06944242,3.9983168,-8.892065,-0.59376204
5.8706656,4.668137,0.016280606,0.022969872,0.06837715,3.9743748,-8.872911,-0.6368576
5.8707023,4.6680574,0.016280606,0.022969872,0.06837715,3.9743748,-8.872911,-0.6368576
5.870722,4.667987,0.020541664,0.024035135,0.06624663,3.9935284,-8.872911,-0.58897364
5.870741,4.6679163,0.020541664,0.024035135,0.06624663,3.9935284,-8.872911,-0.58897364
5.870781,4.6678467,0.025867987,0.024035135,0.0641161,3.940856,-8.863335,-0.61291564
5.870821,4.667776,0.025867987,0.024035135,0.0641161,3.940856,-8.863335,-0.61291564
5.870782,4.667743,0.031194309,0.024035135,0.06305083,3.9695864,-8.887277,-0.44532153
5.8707423,4.6677103,0.031194309,0.024035135,0.06305083,3.9695864,-8.887277,-0.44532153
5.8706656,4.667736,0.034390103,0.024035135,0.061985567,4.0078936,-8.896853,-0.41180268
5.870589,4.667761,0.034390103,0.024035135,0.061985567,4.0078936,-8.896853,-0.41180268
5.8705163,4.667778,0.039716423,0.0251004,0.061985567,4.036624,-8.920795,-0.4261679
5.870444,4.6677947,0.039716423,0.0251004,0.061985567,4.036624,-8.920795,-0.4261679
5.8703794,4.6678023,0.047173277,0.026165664,0.0609203,4.1036615,-8.848969,-0.47405192
5.870315,4.6678095,0.047173277,0.026165664,0.0609203,4.1036615,-8.848969,-0.47405192
5.8702383,4.6678486,0.05356486,0.02723093,0.059855036,4.0653543,-8.848969,-0.4261679
5.8701606,4.667887,0.05356486,0.02723093,0.059855036,4.0653543,-8.848969,-0.4261679
5.870111,4.667891,0.05995645,0.031491987,0.058789775,4.050989,-8.844181,-0.48841715
5.870061,4.6678944,0.05995645,0.031491987,0.058789775,4.050989,-8.844181,-0.48841715
5.870056,4.667876,0.06421751,0.03468778,0.055593982,4.0174704,-8.882488,-0.5602432
5.870051,4.6678567,0.06421751,0.03468778,0.055593982,4.0174704,-8.882488,-0.5602432
5.8700385,4.667846,0.06847856,0.03681831,0.055593982,4.0222588,-8.848969,-0.5602432
5.870026,4.667835,0.06847856,0.03681831,0.055593982,4.0222588,-8.848969,-0.5602432
5.8700185,4.667828,0.07273962,0.038948838,0.056659244,4.0318356,-8.853758,-0.58418524
5.8700113,4.667821,0.07273962,0.038948838,0.056659244,4.0318356,-8.853758,-0.58418524
5.869958,4.6678467,0.07700068,0.040014103,0.05772451,4.036624,-8.853758,-0.47405192
5.869906,4.667873,0.07700068,0.040014103,0.05772451,4.036624,-8.853758,-0.47405192
5.869898,4.667877,0.082327,0.04107937,0.058789775,4.0318356,-8.868123,-0.5650316
5.8698897,4.6678815,0.082327,0.04107937,0.058789775,4.0318356,-8.868123,-0.5650316
5.86988,4.667892,0.087653324,0.04107937,0.059855036,4.050989,-8.829816,-0.59855044
5.869871,4.6679025,0.087653324,0.04107937,0.059855036,4.050989,-8.829816,-0.59855044
5.8698764,4.667916,0.09404491,0.04214463,0.06305083,4.060566,-8.863335,-0.641646
5.869881,4.6679287,0.09404491,0.04214463,0.06305083,4.060566,-8.863335,-0.641646
5.8698707,4.6679535,0.09937123,0.04107937,0.0641161,4.0892963,-8.834604,-0.61770403
5.86986,4.667978,0.09937123,0.04107937,0.0641161,4.0892963,-8.834604,-0.61770403
5.8698635,4.668003,0.104697555,0.04107937,0.06624663,4.0174704,-8.781932,-0.60333884
5.8698664,4.6680284,0.104697555,0.04107937,0.06624663,4.0174704,-8.781932,-0.60333884
5.869843,4.6680765,0.11108914,0.04214463,0.07050768,4.0222588,-8.772355,-0.51714754
5.8698196,4.668124,0.11108914,0.04214463,0.07050768,4.0222588,-8.772355,-0.51714754
5.869787,4.668188,0.119611256,0.04214463,0.071572945,4.027047,-8.78672,-0.49320555
5.8697553,4.6682515,0.119611256,0.04214463,0.071572945,4.027047,-8.78672,-0.49320555
5.8696876,4.6684065,0.13026391,0.04214463,0.073703475,4.0653543,-8.810662,-0.38307226
5.8696194,4.6685615,0.13026391,0.04214463,0.073703475,4.0653543,-8.810662,-0.38307226
5.8695602,4.668751,0.14198181,0.043209895,0.07796454,4.1036615,-8.796297,-0.34476504
5.8695016,4.66894,0.14198181,0.043209895,0.07796454,4.1036615,-8.796297,-0.34476504
5.869483,4.669192,0.15583025,0.046405688,0.08222559,4.0222588,-8.801085,-0.2825158
5.869464,4.6694365,0.15583025,0.046405688,0.08222559,4.0222588,-8.801085,-0.2825158
5.869446,4.6696997,0.16861342,0.050666746,0.087551914,4.0701427,-8.796297,-0.25857377
5.8694267,4.6699724,0.16861342,0.050666746,0.087551914,4.0701427,-8.796297,-0.25857377
5.869442,4.6702714,0.18352713,0.054927804,0.09500877,4.003105,-8.829816,-0.25378537
5.8694563,4.6705656,0.18352713,0.054927804,0.09500877,4.003105,-8.829816,-0.25378537
5.869556,4.670901,0.19950609,0.060254127,0.103530884,3.9025488,-8.882488,-0.17717093
5.869656,4.67124,0.19950609,0.060254127,0.103530884,3.9025488,-8.882488,-0.17717093
5.869776,4.671595,0.21761559,0.06558045,0.11311826,3.8786068,-8.872911,-0.21547815
5.869895,4.6719513,0.21761559,0.06558045,0.11311826,3.8786068,-8.872911,-0.21547815
5.870065,4.67232,0.23465982,0.069841504,0.12377091,3.8402996,-8.872911,-0.2681506
5.8702354,4.672689,0.23465982,0.069841504,0.12377091,3.8402996,-8.872911,-0.2681506
5.870395,4.6730804,0.25170404,0.071972035,0.13761935,3.845088,-8.887277,-0.18195933
5.870556,4.6734734,0.25170404,0.071972035,0.13761935,3.845088,-8.887277,-0.18195933
5.870741,4.6738787,0.26874828,0.073037304,0.15253304,3.7972038,-8.916007,-0.095768064
5.8709273,4.674288,0.26874828,0.073037304,0.15253304,3.7972038,-8.916007,-0.095768064
5.8711324,4.6747093,0.2857925,0.073037304,0.16957727,3.7588966,-8.896853,-0.05267244
5.87134,4.675136,0.2857925,0.073037304,0.16957727,3.7588966,-8.896853,-0.05267244
5.871553,4.6755776,0.303902,0.071972035,0.1866215,3.739743,-8.853758,0.038307227
5.8717647,4.6760178,0.303902,0.071972035,0.1866215,3.739743,-8.853758,0.038307227
5.871986,4.6764817,0.3220115,0.07090677,0.20153521,3.7684734,-8.848969,0.05267244
5.872227,4.6769896,0.3220115,0.07090677,0.20153521,3.7684734,-8.848969,0.05267244
5.8724318,4.6774206,0.340121,0.069841504,0.21964471,3.7828386,-8.820239,0.14844051
5.8726587,4.6779,0.340121,0.069841504,0.21964471,3.7828386,-8.820239,0.14844051
5.8729115,4.678401,0.36036104,0.071972035,0.23988473,3.763685,-8.844181,0.17238252
5.8731637,4.678902,0.36036104,0.071972035,0.23988473,3.763685,-8.844181,0.17238252
5.8734403,4.6794233,0.3795358,0.0762331,0.25799423,3.691859,-8.863335,0.33039984
5.873718,4.679945,0.3795358,0.0762331,0.25799423,3.691859,-8.863335,0.33039984
5.87402,4.6804857,0.3976453,0.08262468,0.2739732,3.6391866,-8.959103,0.38307226
5.874322,4.6810255,0.3976453,0.08262468,0.2739732,3.6391866,-8.959103,0.38307226
5.8746514,4.68159,0.4178853,0.09221206,0.29634374,3.6056678,-8.920795,0.32561144
5.8749814,4.6821556,0.4178853,0.09221206,0.29634374,3.6056678,-8.920795,0.32561144
5.875337,4.682742,0.43812534,0.09966891,0.31658378,3.5482068,-8.954314,0.37349546
5.8756924,4.6833286,0.43812534,0.09966891,0.31658378,3.5482068,-8.954314,0.37349546
5.876085,4.6839333,0.4573001,0.1060605,0.34215012,3.4524388,-8.935161,0.35434186
5.8764777,4.6845384,0.4573001,0.1060605,0.34215012,3.4524388,-8.935161,0.35434186
5.8769164,4.685155,0.4754096,0.11138682,0.3666512,3.3662477,-8.978256,0.24420857
5.8773556,4.6857715,0.4754096,0.11138682,0.3666512,3.3662477,-8.978256,0.24420857
5.8778133,4.68641,0.49458435,0.11564788,0.3879565,3.3327289,-8.987833,0.30645782
5.8782716,4.6870484,0.49458435,0.11564788,0.3879565,3.3327289,-8.987833,0.30645782
5.8787518,4.6877055,0.51162857,0.118843675,0.4124576,3.3087866,-8.992621,0.34955344
5.879233,4.6883626,0.51162857,0.118843675,0.4124576,3.3087866,-8.992621,0.34955344
5.879742,4.6890335,0.5286728,0.118843675,0.43163234,3.2992098,-8.99741,0.2825158
5.8802404,4.6896906,0.5286728,0.118843675,0.43163234,3.2992098,-8.99741,0.2825158
5.8807507,4.690384,0.5435865,0.116713144,0.45293763,3.4237084,-8.939949,0.31124622
5.8812737,4.6910934,0.5435865,0.116713144,0.45293763,3.4237084,-8.939949,0.31124622
5.8817873,4.6918073,0.55850023,0.11351735,0.4689166,3.5003228,-8.920795,0.34955344
5.8822927,4.6925097,0.55850023,0.11351735,0.4689166,3.5003228,-8.920795,0.34955344
5.882812,4.6932335,0.57234865,0.10819103,0.4838303,3.5338416,-8.916007,0.37349546
5.8833346,4.693962,0.57234865,0.10819103,0.4838303,3.5338416,-8.916007,0.37349546
5.8838654,4.6946955,0.58406657,0.102864705,0.49767873,3.53863,-8.939949,0.4213795
5.884398,4.695432,0.58406657,0.102864705,0.49767873,3.53863,-8.939949,0.4213795
5.884398,4.695432,0.59258866,0.09860365,0.5093966,3.6056678,-8.901642,0.47884035
5.884398,4.695432,0.59258866,0.09860365,0.5093966,3.6056678,-8.901642,0.47884035
5.8860135,4.697704,0.6021761,0.09540785,0.51791877,3.6008794,-8.916007,0.46926352
5.8860135,4.697704,0.6021761,0.09540785,0.51791877,3.6008794,-8.916007,0.46926352
5.8867726,4.698764,0.6021761,0.09540785,0.51791877,3.6008794,-8.916007,0.46926352
5.8867726,4.698764,0.6021761,0.09540785,0.51791877,3.6008794,-8.916007,0.46926352
5.888228,4.7008376,0.61495924,0.0911468,0.52644086,3.691859,-8.853758,0.51235914
5.8886433,4.70144,0.61495924,0.0911468,0.52644086,3.691859,-8.853758,0.51235914
5.8891687,4.7022023,0.6202856,0.0911468,0.5285714,3.6870706,-8.868123,0.5267244
5.8896956,4.702967,0.6202856,0.0911468,0.5285714,3.6870706,-8.868123,0.5267244
5.8902245,4.703734,0.6224161,0.09221206,0.53070194,3.6822822,-8.872911,0.51714754
5.890755,4.7045045,0.6224161,0.09221206,0.53070194,3.6822822,-8.872911,0.51714754
5.8912888,4.705273,0.62348133,0.09327733,0.53070194,3.6487634,-8.887277,0.56982
5.891823,4.706043,0.62348133,0.09327733,0.53070194,3.6487634,-8.887277,0.56982
5.892359,4.706811,0.62348133,0.09540785,0.5317672,3.643975,-8.925584,0.51235914
5.8928967,4.7075815,0.62348133,0.09540785,0.5317672,3.643975,-8.925584,0.51235914
5.8934245,4.7083497,0.62348133,0.09753838,0.53283244,3.7014358,-8.954314,0.5315128
5.893954,4.7091203,0.62348133,0.09753838,0.53283244,3.7014358,-8.954314,0.5315128
5.894481,4.7098856,0.6224161,0.09860365,0.5338977,3.6966474,-8.968679,0.48841715
5.8950152,4.7106605,0.6224161,0.09860365,0.5338977,3.6966474,-8.968679,0.48841715
5.895529,4.711423,0.6224161,0.09860365,0.5338977,3.739743,-8.949526,0.4165911
5.8960476,4.712195,0.6224161,0.09860365,0.5338977,3.739743,-8.949526,0.4165911
5.896581,4.712966,0.6192203,0.09753838,0.539224,3.715801,-8.978256,0.47405192
5.897104,4.713723,0.6192203,0.09753838,0.539224,3.715801,-8.978256,0.47405192
5.8976483,4.7144794,0.6160245,0.09434259,0.54668087,3.6535518,-8.987833,0.4261679
5.8981967,4.7152424,0.6160245,0.09434259,0.54668087,3.6535518,-8.987833,0.4261679
5.898747,4.715993,0.6096329,0.089016266,0.5520072,3.6535518,-8.99741,0.4261679
5.899316,4.7167697,0.6096329,0.089016266,0.5520072,3.6535518,-8.99741,0.4261679
5.89988,4.7174997,0.6043066,0.08262468,0.56265986,3.5769374,-8.963891,0.4357447
5.900446,4.7182336,0.6043066,0.08262468,0.56265986,3.5769374,-8.963891,0.4357447
5.901046,4.718954,0.597915,0.07516783,0.57757354,3.442862,-8.925584,0.50757074
5.901657,4.719689,0.597915,0.07516783,0.57757354,3.442862,-8.925584,0.50757074
5.9022846,4.7204075,0.59258866,0.06771098,0.59568304,3.3901896,-8.825027,0.46926352
5.902914,4.721129,0.59258866,0.06771098,0.59568304,3.3901896,-8.825027,0.46926352
5.903577,4.721833,0.5861971,0.05918886,0.6212494,3.2848446,-8.810662,0.5506664
5.904247,4.722546,0.5861971,0.05918886,0.6212494,3.2848446,-8.810662,0.5506664
5.904945,4.723233,0.58087075,0.05173201,0.6510768,3.1603463,-8.700529,0.5506664
5.905651,4.723928,0.58087075,0.05173201,0.6510768,3.1603463,-8.700529,0.5506664
5.9064045,4.724617,0.57447916,0.04427516,0.6851653,3.040636,-8.614338,0.60333884
5.9071436,4.725293,0.57447916,0.04427516,0.6851653,3.040636,-8.614338,0.60333884
5.9079366,4.725965,0.5712834,0.037883572,0.7299064,2.944868,-8.480263,0.60333884
5.908732,4.7266393,0.5712834,0.037883572,0.7299064,2.944868,-8.480263,0.60333884
5.909575,4.727309,0.5680876,0.032557253,0.7778433,2.9783869,-8.413225,0.5363012
5.9104156,4.7279778,0.5680876,0.032557253,0.7778433,2.9783869,-8.413225,0.5363012
5.911287,4.7286487,0.56382656,0.02723093,0.8343023,3.074155,-8.331821,0.59376204
5.9121556,4.729319,0.56382656,0.02723093,0.8343023,3.074155,-8.331821,0.59376204
5.913069,4.729986,0.56063074,0.021904606,0.8928918,3.1316159,-8.236053,0.47884035
5.91398,4.730654,0.56063074,0.021904606,0.8928918,3.1316159,-8.236053,0.47884035
5.91488,4.7313094,0.55850023,0.018708814,0.95467716,3.347094,-8.197746,0.41180268
5.915759,4.7319508,0.55850023,0.018708814,0.95467716,3.347094,-8.197746,0.41180268
5.9166565,4.73256,0.55423915,0.016578285,1.0153973,3.5482068,-8.106767,0.33997664
5.9175735,4.7331815,0.55423915,0.016578285,1.0153973,3.5482068,-8.106767,0.33997664
5.918514,4.73374,0.5499781,0.012317227,1.0771827,3.7014358,-8.111555,0.21068975
5.9194427,4.73429,0.5499781,0.012317227,1.0771827,3.7014358,-8.111555,0.21068975
5.920443,4.7348404,0.541456,0.009121433,1.138968,3.7445314,-8.073248,0.23942018
5.9214544,4.735395,0.541456,0.009121433,1.138968,3.7445314,-8.073248,0.23942018
5.9225163,4.7359138,0.5318686,0.0069909045,1.2018186,3.739743,-8.082825,0.16280572
5.923573,4.7364287,0.5318686,0.0069909045,1.2018186,3.739743,-8.082825,0.16280572
5.9247108,4.7369003,0.5190854,0.0027298466,1.267865,3.7301662,-8.0924015,0.023942016
5.9258485,4.7373724,0.5190854,0.0027298466,1.267865,3.7301662,-8.0924015,0.023942016
5.9270587,4.737814,0.5041717,-0.00046594674,1.3349766,3.5625722,-8.111555,0.01436521
5.9282637,4.7382536,0.5041717,-0.00046594674,1.3349766,3.5625722,-8.111555,0.01436521
5.92959,4.7386417,0.48925802,-0.0015312112,1.4084798,3.3662477,-8.2169,-0.090979666
5.9309154,4.739031,0.48925802,-0.0015312112,1.4084798,3.3662477,-8.2169,-0.090979666
5.9323735,4.739382,0.47008327,-0.0047270046,1.4915705,3.1986535,-8.298303,-0.16759412
5.933822,4.739732,0.47008327,-0.0047270046,1.4915705,3.1986535,-8.298303,-0.16759412
5.935417,4.7400556,0.44877797,-0.011118591,1.5810527,2.9783869,-8.307879,-0.37828386
5.937001,4.7403774,0.44877797,-0.011118591,1.5810527,2.9783869,-8.307879,-0.37828386
5.938765,4.7406874,0.4210811,-0.0228365,1.679057,2.6240451,-8.504205,-0.14844051
5.9405265,4.7409973,0.4210811,-0.0228365,1.679057,2.6240451,-8.504205,-0.14844051
5.9424415,4.741313,0.39231896,-0.04201126,1.787714,2.5091233,-8.350976,0.10055647
5.9443474,4.7416263,0.39231896,-0.04201126,1.787714,2.5091233,-8.350976,0.10055647
5.9463887,4.741907,0.36888313,-0.06757761,1.9080889,2.2744915,-8.293514,0.038307227
5.9484215,4.742186,0.36888313,-0.06757761,1.9080889,2.2744915,-8.293514,0.038307227
5.9505777,4.742421,0.34970838,-0.09207869,2.0444427,2.3415294,-8.365341,-0.019153614
5.952733,4.742655,0.34970838,-0.09207869,2.0444427,2.3415294,-8.365341,-0.019153614
5.95503,4.7428575,0.33372942,-0.11231872,2.194645,2.5139117,-8.441956,0.033518825
5.957315,4.7430573,0.33372942,-0.11231872,2.194645,2.5139117,-8.441956,0.033518825
5.959708,4.743209,0.31988096,-0.12829769,2.3523042,2.777274,-8.556877,-0.019153614
5.962075,4.7433577,0.31988096,-0.12829769,2.3523042,2.777274,-8.556877,-0.019153614
5.96453,4.7434993,0.31029359,-0.13468927,2.5099633,3.074155,-8.700529,-0.05746084
5.96698,4.743643,0.31029359,-0.13468927,2.5099633,3.074155,-8.700529,-0.05746084
5.9695706,4.743787,0.303902,-0.12936294,2.6676223,3.2752678,-8.853758,-0.16280572
5.9721556,4.7439322,0.303902,-0.12936294,2.6676223,3.2752678,-8.853758,-0.16280572
5.9749193,4.744072,0.2985757,-0.11125345,2.8295426,3.3327289,-8.925584,-0.34955344
5.977677,4.7442136,0.2985757,-0.11125345,2.8295426,3.3327289,-8.925584,-0.34955344
5.980629,4.744348,0.29324937,-0.08142605,2.9946587,3.193865,-8.858546,-0.80445176
5.9835844,4.7444835,0.29324937,-0.08142605,2.9946587,3.193865,-8.858546,-0.80445176
5.9867115,4.7446146,0.2825967,-0.047337584,3.1597745,3.1124623,-8.724471,-1.1348516
5.989834,4.744747,0.2825967,-0.047337584,3.1597745,3.1124623,-8.724471,-1.1348516
5.9931293,4.7448707,0.2655525,-0.014314385,3.3291516,3.074155,-8.523358,-1.292869
5.9963565,4.7449923,0.2655525,-0.014314385,3.3291516,3.074155,-8.523358,-1.292869
5.9996514,4.745117,0.2655525,-0.014314385,3.3291516,3.074155,-8.523358,-1.292869
6.003191,4.7452297,0.2410514,0.018708814,3.5006592,3.1651347,-8.250419,-1.484405
6.0068064,4.7453184,0.20802821,0.052797277,3.6742973,3.41892,-7.9487495,-1.541866
6.0104165,4.7454076,0.20802821,0.052797277,3.6742973,3.41892,-7.9487495,-1.541866
6.014157,4.745469,0.16754816,0.086885735,3.8490007,3.7445314,-7.6375036,-1.6424223
6.017953,4.745532,0.16754816,0.086885735,3.8490007,3.7445314,-7.6375036,-1.6424223
6.021901,4.745556,0.11748073,0.12203947,4.023704,4.0078936,-7.493851,-1.7286136
6.025868,4.74558,0.11748073,0.12203947,4.023704,4.0078936,-7.493851,-1.7286136
6.0299444,4.7455626,0.05782592,0.1657153,4.1920156,4.343082,-7.3406224,-1.6663644
6.034032,4.745545,0.05782592,0.1657153,4.1920156,4.343082,-7.3406224,-1.6663644
6.038308,4.745474,-0.013546798,0.21365221,4.3560667,4.6160207,-7.302315,-1.5227122
6.0425243,4.7454047,-0.013546798,0.21365221,4.3560667,4.6160207,-7.302315,-1.5227122
6.046943,4.745273,-0.091311105,0.26904595,4.519052,4.7979803,-7.3406224,-1.4556746
6.051357,4.745142,-0.091311105,0.26904595,4.519052,4.7979803,-7.3406224,-1.4556746
6.0559287,4.744939,-0.17866279,0.32870078,4.6777763,4.9799395,-7.374141,-1.4652514
6.0604773,4.744736,-0.17866279,0.32870078,4.6777763,4.9799395,-7.374141,-1.4652514
6.0651965,4.744451,-0.2713408,0.3851598,4.829044,5.094861,-7.383718,-1.5514427
6.0699344,4.7441645,-0.2713408,0.3851598,4.829044,5.094861,-7.383718,-1.5514427
6.0748024,4.743781,-0.37360618,0.43735775,4.9728546,5.185841,-7.3166804,-1.8579005
6.0796504,4.743398,-0.37360618,0.43735775,4.9728546,5.185841,-7.3166804,-1.8579005
6.0846596,4.7429037,-0.48545894,0.4810336,5.1092086,5.2624555,-7.07726,-2.2122424
6.089668,4.742409,-0.48545894,0.4810336,5.1092086,5.2624555,-7.07726,-2.2122424
6.0948253,4.7417946,-0.6037033,0.5204484,5.2338443,5.401319,-6.7133417,-2.6288335
6.0999613,4.741182,-0.6037033,0.5204484,5.2338443,5.401319,-6.7133417,-2.6288335
6.10521,4.7404485,-0.72514343,0.5545368,5.343567,5.511452,-6.421249,-2.9735985
6.110479,4.7397113,-0.72514343,0.5545368,5.343567,5.511452,-6.421249,-2.9735985
6.115773,4.73897,-0.72514343,0.5545368,5.343567,5.511452,-6.421249,-2.9735985
6.1211076,4.7381144,-0.8487141,0.5886253,5.436245,5.5976434,-6.0477533,-3.1364043
6.126473,4.737153,-0.9658932,0.6248443,5.514009,5.616797,-5.6790466,-3.394978
6.131859,4.7361856,-0.9658932,0.6248443,5.514009,5.616797,-5.6790466,-3.394978
6.1373444,4.7351055,-1.0766808,0.66745484,5.5811205,5.559336,-5.3965306,-3.4237084
6.142906,4.7340093,-1.0766808,0.66745484,5.5811205,5.559336,-5.3965306,-3.4237084
6.14843,4.732836,-1.1768156,0.716457,5.632253,5.4922986,-5.2768207,-3.3279405
6.153936,4.7316637,-1.1768156,0.716457,5.632253,5.4922986,-5.2768207,-3.3279405
6.1594567,4.730416,-1.2662978,0.77185076,5.671668,5.315128,-5.3438582,-2.9831753
6.1653433,4.729082,-1.2662978,0.77185076,5.671668,5.315128,-5.3438582,-2.9831753
6.1708293,4.727778,-1.3429968,0.8357667,5.702561,5.142745,-5.4539914,-2.719813
6.176286,4.726477,-1.3429968,0.8357667,5.702561,5.142745,-5.4539914,-2.719813
6.18194,4.7250776,-1.4079779,0.9060741,5.723866,4.9176903,-5.650316,-2.3415294
6.1875143,4.7236943,-1.4079779,0.9060741,5.723866,4.9176903,-5.650316,-2.3415294
6.1931143,4.7223005,-1.4079779,0.9060741,5.723866,4.9176903,-5.650316,-2.3415294
6.198725,4.720858,-1.4623065,0.97957736,5.7409105,4.510676,-5.9663506,-2.054225
6.204351,4.7194076,-1.4623065,0.97957736,5.7409105,4.510676,-5.9663506,-2.054225
6.210021,4.7179008,-1.5102434,1.0520153,5.755824,4.050989,-6.244078,-1.910573
6.2156157,4.716409,-1.5102434,1.0520153,5.755824,4.050989,-6.244078,-1.910573
6.2213197,4.7148438,-1.5560497,1.119127,5.772868,3.667917,-6.469133,-1.8291701
6.226981,4.713285,-1.5560497,1.119127,5.772868,3.667917,-6.469133,-1.8291701
6.2326455,4.7116776,-1.5997256,1.1777165,5.787782,3.2321723,-6.5696893,-1.8722657
6.238285,4.7100716,-1.5997256,1.1777165,5.787782,3.2321723,-6.5696893,-1.8722657
6.2440057,4.708394,-1.6434014,1.2256534,5.8026958,2.9975405,-6.5601125,-1.9967642
6.2496605,4.706729,-1.6434014,1.2256534,5.8026958,2.9975405,-6.5601125,-1.9967642
6.2554083,4.7049885,-1.6870773,1.2629377,5.8186746,2.8203697,-6.4882865,-2.0973208
6.261112,4.7032533,-1.6870773,1.2629377,5.8186746,2.8203697,-6.4882865,-2.0973208
6.2667937,4.7014785,-1.7296878,1.288504,5.8335886,2.5378537,-6.315904,-2.0925324
6.2725463,4.699673,-1.7296878,1.288504,5.8335886,2.5378537,-6.315904,-2.0925324
6.2782426,4.697839,-1.7701678,1.3034178,5.844241,2.2457612,-6.1530986,-2.054225
0.0008300118,4.6959715,-1.7701678,1.3034178,5.844241,2.2457612,-6.1530986,-2.054225
0.0065158913,4.694089,-1.8074522,1.3076788,5.8506327,2.0159178,-5.9184666,-1.910573
0.0065158913,4.694089,-1.8372796,1.304483,5.852763,1.8291701,-5.8322754,-1.6041151
0.014416725,4.691422,-1.8372796,1.304483,5.852763,1.8291701,-5.8322754,-1.6041151
0.025207043,4.6877527,-1.8372796,1.304483,5.852763,1.8291701,-5.8322754,-1.6041151
0.029556047,4.686249,-1.8617806,1.2948956,5.852763,1.6376339,-5.813122,-1.2976574
0.035466395,4.684183,-1.8788248,1.2789167,5.8506327,1.340753,-5.8322754,-1.0342951
0.041417573,4.6820936,-1.8788248,1.2789167,5.8506327,1.340753,-5.8322754,-1.0342951
0.04798894,4.6797686,-1.891608,1.2597419,5.8495674,1.0055647,-5.9519854,-0.7469909
0.052192204,4.6782756,-1.891608,1.2597419,5.8495674,1.0055647,-5.9519854,-0.7469909
0.057857193,4.6762557,-1.891608,1.2597419,5.8495674,1.0055647,-5.9519854,-0.7469909
0.06357201,4.674206,-1.8990649,1.2363061,5.851698,0.6943185,-6.14831,-0.62249243
0.069225445,4.6721697,-1.8990649,1.2363061,5.851698,0.6943185,-6.14831,-0.62249243
0.07486887,4.6701345,-1.9065217,1.2086092,5.86022,0.37828386,-6.277597,-0.45968673
0.080604345,4.668059,-1.9065217,1.2086092,5.86022,0.37828386,-6.277597,-0.45968673
0.086237185,4.665994,-1.9171743,1.175586,5.8740683,0.033518825,-6.4499793,-0.49799395
0.09192634,4.663902,-1.9171743,1.175586,5.8740683,0.033518825,-6.4499793,-0.49799395
0.09764207,4.6617775,-1.9310228,1.135106,5.895374,-0.22505496,-6.5218053,-0.50278234
0.10334322,4.659653,-1.9310228,1.135106,5.895374,-0.22505496,-6.5218053,-0.50278234
0.10914344,4.657462,-1.9480671,1.0892996,5.9230704,-0.48841715,-6.5840545,-0.6751649
0.11492944,4.655265,-1.9480671,1.0892996,5.9230704,-0.48841715,-6.5840545,-0.6751649
0.120805845,4.6530323,-1.968307,1.0381669,5.9550285,-0.7326257,-6.5601125,-0.7374141
0.1267028,4.650777,-1.968307,1.0381669,5.9550285,-0.7326257,-6.5601125,-0.7374141
0.13264094,4.6485167,-1.9896123,0.9849037,5.984856,-0.9768343,-6.5218053,-0.7517793
0.13856086,4.646248,-1.9896123,0.9849037,5.984856,-0.9768343,-6.5218053,-0.7517793
0.14460912,4.6439776,-2.0109177,0.92737937,6.0200095,-1.3503298,-6.5026517,-0.7182605
0.15066424,4.641691,-2.0109177,0.92737937,6.0200095,-1.3503298,-6.5026517,-0.7182605
0.15677409,4.63945,-2.032223,0.8677246,6.0604897,-1.7621324,-6.5218053,-0.5267244
0.16288723,4.6371984,-2.032223,0.8677246,6.0604897,-1.7621324,-6.5218053,-0.5267244
0.1690436,4.6349645,-2.0503325,0.8112656,6.106296,-2.2984335,-6.6893997,-0.22984336
0.17519578,4.632723,-2.0503325,0.8112656,6.106296,-2.2984335,-6.6893997,-0.22984336
0.18140167,4.6304793,-2.0631156,0.7622634,6.1616898,-2.801216,-7.043741,0.110133275
0.18758443,4.6282334,-2.0631156,0.7622634,6.1616898,-2.801216,-7.043741,0.110133275
0.19383305,4.6259737,-2.0737681,0.7207181,6.2266707,-3.490746,-7.599196,0.40701428
0.20007095,4.6237073,-2.0737681,0.7207181,6.2266707,-3.490746,-7.599196,0.40701428
0.20639771,4.621423,-2.08016,0.6919559,6.3044353,-4.189853,-8.264784,0.59855044
0.2127075,4.619133,-2.08016,0.6919559,6.3044353,-4.189853,-8.264784,0.59855044
0.21911907,4.616818,-2.0897472,0.675977,6.394983,-4.8506527,-9.078813,0.7086837
0.22555192,4.614483,-2.0897472,0.675977,6.394983,-4.8506527,-9.078813,0.7086837
0.23202199,4.6121435,-2.0993347,0.67278117,6.4951177,-5.4539914,-9.830592,0.60812724
0.23847455,4.6097984,-2.0993347,0.67278117,6.4951177,-5.4539914,-9.830592,0.60812724
0.24517967,4.60736,-2.1142483,0.68023807,6.6037745,-5.9663506,-10.477027,0.21547815
0.25173482,4.604963,-2.1142483,0.68023807,6.6037745,-5.9663506,-10.477027,0.21547815
0.25845498,4.6024923,-2.1398146,0.6940865,6.714562,-6.4260373,-11.09473,-0.10055647
0.2651705,4.6000085,-2.1398146,0.6940865,6.714562,-6.4260373,-11.09473,-0.10055647
0.27200976,4.597449,-2.1739032,0.71326125,6.8221536,-6.727707,-11.540052,-0.5793968
0.278817,4.5948853,-2.1739032,0.71326125,6.8221536,-6.727707,-11.540052,-0.5793968
0.2857382,4.592229,-2.217579,0.7366971,6.922289,-7.1155677,-11.793838,-1.091756
0.29264784,4.5895605,-2.217579,0.7366971,6.922289,-7.1155677,-11.793838,-1.091756
0.29965252,4.586794,-2.266581,0.7654592,7.008575,-7.422025,-11.980585,-1.4891934
0.30664545,4.584013,-2.266581,0.7654592,7.008575,-7.422025,-11.980585,-1.4891934
0.31367797,4.581147,-2.3198442,0.7974171,7.0778174,-7.6949644,-12.052411,-1.7477672
0.32074776,4.578245,-2.3198442,0.7974171,7.0778174,-7.6949644,-12.052411,-1.7477672
0.32783878,4.575247,-2.374173,0.8336361,7.1310806,-7.896077,-11.683704,-2.15957
0.33492452,4.5722275,-2.374173,0.8336361,7.1310806,-7.896077,-11.683704,-2.15957
0.3420302,4.569108,-2.4316971,0.8698551,7.1630383,-7.6614456,-11.765107,-2.3127987
0.3491302,4.565966,-2.4316971,0.8698551,7.1630383,-7.6614456,-11.765107,-2.3127987
0.35622725,4.562711,-2.4892213,0.9145962,7.176887,-8.901642,-11.348516,-3.0214825
0.36331788,4.559431,-2.4892213,0.9145962,7.176887,-8.901642,-11.348516,-3.0214825
0.37038434,4.556075,-2.547811,0.94761944,7.1598425,-7.9583263,-12.26789,-2.3989902
0.3774441,4.5526943,-2.547811,0.94761944,7.1598425,-7.9583263,-12.26789,-2.3989902
0.3843974,4.549318,-2.5829647,0.9753163,7.10871,-7.4746976,-13.52724,-1.7190368
0.39141056,4.545885,-2.5829647,0.9753163,7.10871,-7.4746976,-13.52724,-1.7190368
0.39826405,4.542471,-2.5744426,1.0339059,7.035207,-6.9623384,-13.785813,-1.4077905
0.40510282,4.539034,-2.5744426,1.0339059,7.035207,-6.9623384,-13.785813,-1.4077905
0.41190577,4.53549,-2.5179834,1.1138006,6.9510508,-8.106767,-12.334928,-2.4899697
0.4186734,4.5319333,-2.5179834,1.1138006,6.9510508,-8.106767,-12.334928,-2.4899697
0.42533723,4.5283613,-2.446611,1.1862386,6.8583727,-9.552865,-11.544841,-3.265691
0.4319925,4.52476,-2.446611,1.1862386,6.8583727,-9.552865,-11.544841,-3.265691
0.4385302,4.521196,-2.3837602,1.2150007,6.750781,-10.16578,-11.693281,-3.1890767
0.4450593,4.517602,-2.3837602,1.2150007,6.750781,-10.16578,-11.693281,-3.1890767
0.4514333,4.514104,-2.318779,1.1883692,6.6272106,-9.591172,-12.081141,-2.6910827
0.45789453,4.510524,-2.318779,1.1883692,6.6272106,-9.591172,-12.081141,-2.6910827
0.46411726,4.5071106,-2.2388842,1.1276491,6.480204,-9.337387,-12.071565,-2.3127987
0.47036234,4.5036535,-2.2388842,1.1276491,6.480204,-9.337387,-12.071565,-2.3127987
0.4763919,4.500381,-2.1387494,1.0541458,6.3012395,-8.293514,-12.191275,-1.7525556
0.48248285,4.4970455,-2.1387494,1.0541458,6.3012395,-8.293514,-12.191275,-1.7525556
0.48824793,4.4939404,-2.0151787,0.98383844,6.086056,-7.1730285,-12.028469,-1.2449849
0.49408117,4.4907675,-2.0151787,0.98383844,6.086056,-7.1730285,-12.028469,-1.2449849
0.49995488,4.4876127,-1.8766943,0.93377095,5.8410454,-6.7851677,-11.468226,-1.1444284
0.5051321,4.484804,-1.8766943,0.93377095,5.8410454,-6.7851677,-11.468226,-1.1444284
0.51030946,4.4820294,-1.7286226,0.9060741,5.575794,-6.71813,-11.013328,-1.1013328
0.5156023,4.479166,-1.7286226,0.9060741,5.575794,-6.71813,-11.013328,-1.1013328
0.52054596,4.4765186,-1.581616,0.88902986,5.3020215,-6.9862804,-10.759542,-1.0726024
0.52553517,4.4738226,-1.581616,0.88902986,5.3020215,-6.9862804,-10.759542,-1.0726024
0.53024447,4.4713025,-1.4399359,0.8698551,5.0250525,-7.441179,-10.6877165,-0.9624691
0.53497374,4.468749,-1.4399359,0.8698551,5.0250525,-7.441179,-10.6877165,-0.9624691
0.5394393,4.4663634,-1.3067778,0.84215826,4.7491493,-7.8865004,-10.6158905,-0.90500826
0.54390204,4.4639587,-1.3067778,0.84215826,4.7491493,-7.8865004,-10.6158905,-0.90500826
0.5481158,4.4617248,-1.1789461,0.8016782,4.479637,-8.178593,-10.658986,-0.8283938
0.552323,4.4594755,-1.1789461,0.8016782,4.479637,-8.178593,-10.658986,-0.8283938
0.5562937,4.4574013,-1.057506,0.7473497,4.2186475,-8.240842,-10.6877165,-0.62728083
0.560227,4.4553294,-1.057506,0.7473497,4.2186475,-8.240842,-10.6877165,-0.62728083
0.5639606,4.4534216,-0.94032687,0.68556434,3.962984,-8.317456,-10.6637745,-0.6560113
0.567652,4.4515204,-0.94032687,0.68556434,3.962984,-8.317456,-10.6637745,-0.6560113
0.57113653,4.449784,-0.8327352,0.62058324,3.7115817,-8.034941,-10.5919485,-0.49320555
0.57460266,4.448044,-0.8327352,0.62058324,3.7115817,-8.034941,-10.5919485,-0.49320555
0.5778179,4.446485,-0.7357961,0.55347157,3.4644403,-7.627927,-10.611102,-0.4165911
0.58104235,4.444911,-0.7357961,0.55347157,3.4644403,-7.627927,-10.611102,-0.4165911
0.58404136,4.4434967,-0.6463139,0.49381676,3.2183642,-7.445967,-10.630256,-0.33518824
0.58705485,4.4420657,-0.6463139,0.49381676,3.2183642,-7.445967,-10.630256,-0.33518824
0.58980715,4.440812,-0.5600275,0.43948826,2.975484,-7.4842744,-10.352529,-0.4309563
0.5925788,4.439541,-0.5600275,0.43948826,2.975484,-7.4842744,-10.352529,-0.4309563
0.5951658,4.438415,-0.47906736,0.37983346,2.7336688,-7.565677,-9.911995,-0.6512229
0.5977093,4.4373016,-0.47906736,0.37983346,2.7336688,-7.565677,-9.911995,-0.6512229
0.6000694,4.436329,-0.40662938,0.31485233,2.492919,-7.493851,-9.44752,-0.6991069
0.6024179,4.435356,-0.40662938,0.31485233,2.492919,-7.493851,-9.44752,-0.6991069
0.60456604,4.434532,-0.34484404,0.23921856,2.2564304,-7.359776,-9.193734,-0.62728083
0.6067122,4.4337044,-0.34484404,0.23921856,2.2564304,-7.359776,-9.193734,-0.62728083
0.608652,4.4330273,-0.29158083,0.15825845,2.0284638,-7.1155677,-9.112331,-0.39743748
0.61059034,4.432348,-0.29158083,0.15825845,2.0284638,-7.1155677,-9.112331,-0.39743748
0.6123298,4.4318166,-0.23938286,0.07729836,1.8047582,-6.909666,-8.983045,-0.1340753
0.6140682,4.4312835,-0.23938286,0.07729836,1.8047582,-6.909666,-8.983045,-0.1340753
0.61561674,4.4308977,-0.18611965,-0.00046594674,1.5885096,-6.742072,-8.868123,0.02873042
0.6171643,4.4305105,-0.18611965,-0.00046594674,1.5885096,-6.742072,-8.868123,0.02873042
0.6185388,4.4302726,-0.12646483,-0.07503446,1.3829135,-6.7851677,-8.738836,-0.04309563
0.61991274,4.4300337,-0.12646483,-0.07503446,1.3829135,-6.7851677,-8.738836,-0.04309563
0.62112707,4.429944,-0.06361423,-0.14747244,1.1911659,-6.847417,-8.580819,0.038307227
0.62234086,4.429854,-0.06361423,-0.14747244,1.1911659,-6.847417,-8.580819,0.038307227
0.6234114,4.429908,-0.0007636249,-0.21671464,1.0153973,-7.0485296,-8.576031,-0.11971009
0.6244817,4.4299617,-0.0007636249,-0.21671464,1.0153973,-7.0485296,-8.576031,-0.11971009
0.6254288,4.4301496,0.058891185,-0.2838263,0.8566728,-7.345411,-8.556877,-0.32561144
0.6263756,4.430339,0.058891185,-0.2838263,0.8566728,-7.345411,-8.556877,-0.32561144
0.62721395,4.4306545,0.11641546,-0.3466769,0.720319,-7.5321584,-8.690952,-0.5650316
0.628052,4.430971,0.11641546,-0.3466769,0.720319,-7.5321584,-8.690952,-0.5650316
0.62880564,4.431403,0.17074396,-0.40313593,0.6127273,-7.6853876,-8.896853,-0.8379706
0.6295605,4.4318366,0.17074396,-0.40313593,0.6127273,-7.6853876,-8.896853,-0.8379706
0.6302471,4.4323716,0.22081138,-0.45213807,0.5253756,-7.819463,-9.107543,-1.1013328
0.63093066,4.432905,0.22081138,-0.45213807,0.5253756,-7.819463,-9.107543,-1.1013328
0.6315691,4.4335213,0.26448724,-0.48942232,0.45932922,-8.073248,-9.370906,-1.3503298
0.6322071,4.434138,0.26448724,-0.48942232,0.45932922,-8.073248,-9.370906,-1.3503298
0.632816,4.4348135,0.29964095,-0.5139234,0.4145881,-8.264784,-9.667787,-1.70946
0.63342476,4.4354897,0.29964095,-0.5139234,0.4145881,-8.264784,-9.667787,-1.70946
0.63401586,4.4362106,0.3284031,-0.5299024,0.3879565,-8.384495,-10.0029745,-2.0446482
0.6346069,4.436932,0.3284031,-0.5299024,0.3879565,-8.384495,-10.0029745,-2.0446482
0.6351896,4.4376793,0.34757784,-0.5352287,0.37730384,-8.532935,-10.381259,-2.3127987
0.63577217,4.4384274,0.34757784,-0.5352287,0.37730384,-8.532935,-10.381259,-2.3127987
0.63633776,4.4391913,0.35609996,-0.52777183,0.37410805,-8.571242,-10.702082,-2.4612393
0.63689977,4.439951,0.35609996,-0.52777183,0.37410805,-8.571242,-10.702082,-2.4612393
0.6374507,4.440708,0.35716522,-0.51072764,0.38049963,-8.695741,-11.027693,-2.5570073
0.6380007,4.4414663,0.35716522,-0.51072764,0.38049963,-8.695741,-11.027693,-2.5570073
0.63853204,4.442213,0.35609996,-0.4872918,0.3879565,-8.714894,-11.219229,-2.542642
0.63906205,4.4429607,0.35609996,-0.4872918,0.3879565,-8.714894,-11.219229,-2.542642
0.6395701,4.4436855,0.34970838,-0.45959494,0.3932828,-8.623915,-11.262324,-2.60968
0.6400765,4.4444113,0.34970838,-0.45959494,0.3932828,-8.623915,-11.262324,-2.60968
0.6405697,4.4451113,0.34544733,-0.42870227,0.3932828,-8.528147,-11.171345,-2.5474305
0.6410612,4.445812,0.34544733,-0.42870227,0.3932828,-8.528147,-11.171345,-2.5474305
0.6415425,4.4464927,0.34544733,-0.3967443,0.37943438,-8.523358,-11.046846,-2.681506
0.6420243,4.447177,0.34544733,-0.3967443,0.37943438,-8.523358,-11.046846,-2.681506
0.6424663,4.4478474,0.35290417,-0.36798218,0.35280275,-8.37013,-10.845734,-2.633622
0.6429085,4.4485216,0.35290417,-0.36798218,0.35280275,-8.37013,-10.845734,-2.633622
0.64323443,4.44919,0.36568734,-0.3402853,0.31125745,-8.010999,-10.577583,-2.6623523
0.64323443,4.44919,0.36568734,-0.3402853,0.31125745,-8.010999,-10.577583,-2.6623523
0.64323443,4.44919,0.38379684,-0.30726212,0.25053737,-7.867347,-10.28549,-2.6192567
0.644068,4.4512553,0.38379684,-0.30726212,0.25053737,-7.867347,-10.28549,-2.6192567
0.64425826,4.451726,0.40829793,-0.26997787,0.17383833,-7.795521,-10.065224,-2.743755
0.64425826,4.451726,0.40829793,-0.26997787,0.17383833,-7.795521,-10.065224,-2.743755
0.64458525,4.452631,0.4359948,-0.2294978,0.08329086,-7.5704656,-9.816227,-2.801216
0.64468217,4.4530935,0.4359948,-0.2294978,0.08329086,-7.5704656,-9.816227,-2.801216
0.6446967,4.453569,0.46369168,-0.1815609,-0.020039797,-7.565677,-9.710882,-2.8874073
0.6447111,4.4540415,0.46369168,-0.1815609,-0.020039797,-7.565677,-9.710882,-2.8874073
0.6446105,4.454524,0.49138856,-0.12723242,-0.13295783,-7.551312,-9.629479,-2.992752
0.6445104,4.455006,0.49138856,-0.12723242,-0.13295783,-7.551312,-9.629479,-2.992752
0.64426994,4.4554977,0.5169549,-0.06757761,-0.2533327,-7.5225816,-9.629479,-3.1890767
0.6440332,4.455982,0.5169549,-0.06757761,-0.2533327,-7.5225816,-9.629479,-3.1890767
0.64364374,4.456469,0.53612965,-0.00366174,-0.37903392,-7.4124484,-9.653421,-3.347094
0.64325505,4.4569554,0.53612965,-0.00366174,-0.37903392,-7.4124484,-9.653421,-3.347094
0.642696,4.457435,0.5467823,0.06344992,-0.51325727,-7.101202,-9.715671,-3.5673606
0.6421375,4.457915,0.5467823,0.06344992,-0.51325727,-7.101202,-9.715671,-3.5673606
0.6414073,4.458375,0.54784757,0.13695318,-0.6549374,-6.7085533,-9.715671,-3.7588966
0.6406777,4.4588346,0.54784757,0.13695318,-0.6549374,-6.7085533,-9.715671,-3.7588966
0.639776,4.459256,0.53826016,0.21897852,-0.8040744,-6.4404025,-9.653421,-3.8307228
0.63887215,4.459679,0.53826016,0.21897852,-0.8040744,-6.4404025,-9.653421,-3.8307228
0.6378033,4.460039,0.51588964,0.30846074,-0.96279883,-6.612785,-9.68694,-3.8115692
0.6367374,4.4603977,0.51588964,0.30846074,-0.96279883,-6.612785,-9.68694,-3.8115692
0.6354908,4.4606876,0.4839317,0.40113875,-1.1257843,-6.6367273,-9.643845,-3.845088
0.63424414,4.460977,0.4839317,0.40113875,-1.1257843,-6.6367273,-9.643845,-3.845088
0.6328417,4.4611855,0.44558218,0.4927515,-1.2887697,-7.144298,-9.840169,-3.8067808
0.63141966,4.461397,0.44558218,0.4927515,-1.2887697,-7.144298,-9.840169,-3.8067808
0.62978125,4.4615364,0.40190634,0.57797265,-1.4496247,-7.1826053,-9.916783,-3.7493198
0.6282474,4.461667,0.40190634,0.57797265,-1.4496247,-7.1826053,-9.916783,-3.7493198
0.62652194,4.4617286,0.35716522,0.65893275,-1.6072838,-7.2927384,-10.060435,-3.691859
0.6247737,4.461791,0.35716522,0.65893275,-1.6072838,-7.2927384,-10.060435,-3.691859
0.62286097,4.461782,0.31135887,0.7366971,-1.7617471,-7.240066,-10.01734,-3.6583402
0.62094855,4.4617734,0.31135887,0.7366971,-1.7617471,-7.240066,-10.01734,-3.6583402
0.61887527,4.461689,0.26661775,0.8165919,-1.918341,-7.359776,-9.868899,-3.7828386
0.6167857,4.4616046,0.26661775,0.8165919,-1.918341,-7.359776,-9.868899,-3.7828386
0.6145989,4.461448,0.21974611,0.8964867,-2.0728045,-7.6853876,-9.682152,-3.7445314
0.61237687,4.4612913,0.21974611,0.8964867,-2.0728045,-7.6853876,-9.682152,-3.7445314
0.61007476,4.4610786,0.17074396,0.9721205,-2.228333,-8.240842,-9.490616,-3.6152446
0.60775334,4.4608665,0.17074396,0.9721205,-2.228333,-8.240842,-9.490616,-3.6152446
0.60529155,4.4606085,0.12493758,1.0392321,-2.3806658,-8.868123,-9.241618,-3.6487634
0.6028334,4.460354,0.12493758,1.0392321,-2.3806658,-8.868123,-9.241618,-3.6487634
0.60024667,4.460072,0.082327,1.0924954,-2.5287375,-9.433155,-9.059659,-3.4763808
0.59765005,4.459792,0.082327,1.0924954,-2.5287375,-9.433155,-9.059659,-3.4763808
0.59491336,4.459489,0.04291222,1.130845,-2.6704178,-9.931149,-8.959103,-3.3614593
0.592177,4.4591885,0.04291222,1.130845,-2.6704178,-9.931149,-8.959103,-3.3614593
0.5892918,4.458877,0.0077584907,1.1500196,-2.804641,-10.13705,-8.872911,-3.1411927
0.58644104,4.4585724,0.0077584907,1.1500196,-2.804641,-10.13705,-8.872911,-3.1411927
0.58344495,4.4582825,-0.018873122,1.1489544,-2.9356687,-10.127473,-8.944737,-2.777274
0.58045477,4.4579964,-0.018873122,1.1489544,-2.9356687,-10.127473,-8.944737,-2.777274
0.5773294,4.457747,-0.035917353,1.1329755,-3.0709572,-9.911995,-9.006987,-2.3750482
0.574207,4.4575005,-0.035917353,1.1329755,-3.0709572,-9.911995,-9.006987,-2.3750482
0.5709378,4.4573083,-0.041243672,1.1084744,-3.2094417,-9.629479,-9.160215,-1.9967642
0.56769454,4.457119,-0.041243672,1.1084744,-3.2094417,-9.629479,-9.160215,-1.9967642
0.56429505,4.4569964,-0.03698262,1.0786469,-3.355383,-9.32781,-9.3182335,-1.6328455
0.5608719,4.456874,-0.03698262,1.0786469,-3.355383,-9.32781,-9.3182335,-1.6328455
0.5572813,4.456829,-0.022068914,1.0445585,-3.5098462,-9.126697,-9.562442,-1.3311762
0.55378705,4.456785,-0.022068914,1.0445585,-3.5098462,-9.126697,-9.562442,-1.3311762
0.5500384,4.4568267,0.001366904,1.0094048,-3.6738968,-8.925584,-9.768343,-0.9528923
0.5463389,4.4568663,0.001366904,1.0094048,-3.6738968,-8.925584,-9.768343,-0.9528923
0.54247475,4.456992,0.032259572,0.9721205,-3.8454044,-8.916007,-10.022128,-0.7134721
0.53859216,4.4571176,0.032259572,0.9721205,-3.8454044,-8.916007,-10.022128,-0.7134721
0.5345386,4.457334,0.06954383,0.93483627,-4.0264993,-8.896853,-10.304645,-0.44532153
0.5305022,4.4575477,0.06954383,0.93483627,-4.0264993,-8.896853,-10.304645,-0.44532153
0.52627325,4.457854,0.11002388,0.89861727,-4.2086596,-8.825027,-10.534488,-0.12449849
0.5220284,4.458159,0.11002388,0.89861727,-4.2086596,-8.825027,-10.534488,-0.12449849
0.5176458,4.4585476,0.15263446,0.865594,-4.39082,-8.992621,-10.773908,0.18195933
0.5132508,4.4589343,0.15263446,0.865594,-4.39082,-8.992621,-10.773908,0.18195933
0.5086771,4.4594045,0.19417977,0.8315056,-4.574045,-9.102755,-10.91756,0.31603462
0.5041087,4.4598703,0.19417977,0.8315056,-4.574045,-9.102755,-10.91756,0.31603462
0.49937424,4.460416,0.23146403,0.78996027,-4.758336,-9.385271,-11.099519,0.36870706
0.4946216,4.4609585,0.23146403,0.78996027,-4.758336,-9.385271,-11.099519,0.36870706
0.48974174,4.4615717,0.26342195,0.7409581,-4.9458227,-9.677363,-11.15698,0.35434186
0.48482347,4.462184,0.26342195,0.7409581,-4.9458227,-9.677363,-11.15698,0.35434186
0.47977805,4.46286,0.28685778,0.68343383,-5.1269174,-9.92636,-11.147403,0.25378537
0.47473335,4.463529,0.28685778,0.68343383,-5.1269174,-9.92636,-11.147403,0.25378537
0.46949485,4.464267,0.303902,0.61632216,-5.305882,-10.160992,-11.123461,0.12449849
0.46431905,4.4649887,0.303902,0.61632216,-5.305882,-10.160992,-11.123461,0.12449849
0.45896342,4.4657784,0.31668517,0.53536206,-5.4880424,-10.261548,-11.123461,0.009576807
0.45357022,4.4665647,0.31668517,0.53536206,-5.4880424,-10.261548,-11.123461,0.009576807
0.4480843,4.467407,0.3252073,0.44374934,-5.6670065,-10.247183,-11.128249,0.095768064
0.44257063,4.4682446,0.3252073,0.44374934,-5.6670065,-10.247183,-11.128249,0.095768064
0.43690655,4.4691467,0.33372942,0.34467974,-5.845971,-10.213664,-11.123461,0.12449849
0.4312422,4.4700384,0.33372942,0.34467974,-5.845971,-10.213664,-11.123461,0.12449849
0.42543137,4.470998,0.3465126,0.24134909,-6.026001,-10.146626,-11.15698,0.22505496
0.41961432,4.4719467,0.3465126,0.24134909,-6.026001,-10.146626,-11.15698,0.22505496
0.41364464,4.4729652,0.36249155,0.13482264,-6.208161,-10.156203,-11.075577,0.30166942
0.4076744,4.47397,0.36249155,0.13482264,-6.208161,-10.156203,-11.075577,0.30166942
0.40155268,4.475043,0.3827316,0.029361458,-6.3903213,-10.0748005,-10.94629,0.21547815
0.3954239,4.4761024,0.3827316,0.029361458,-6.3903213,-10.0748005,-10.94629,0.21547815
0.38914642,4.4772344,0.40936318,-0.077164985,-6.573547,-9.907207,-10.754754,0.25857377
0.38287404,4.4783497,0.40936318,-0.077164985,-6.573547,-9.907207,-10.754754,0.25857377
0.37658527,4.4795094,0.4391906,-0.18262617,-6.756772,-9.715671,-10.477027,0.033518825
0.36995426,4.4807143,0.4391906,-0.18262617,-6.756772,-9.715671,-10.477027,0.033518825
0.36340073,4.481943,0.47008327,-0.2838263,-6.9399977,-9.437943,-10.228029,-0.110133275
0.35677955,4.4831657,0.47008327,-0.2838263,-6.9399977,-9.437943,-10.228029,-0.110133275
0.35007396,4.484439,0.5041717,-0.38183063,-7.126419,-8.968679,-9.811439,-0.34476504
0.34334615,4.485697,0.5041717,-0.38183063,-7.126419,-8.968679,-9.811439,-0.34476504
0.33643934,4.487016,0.53826016,-0.4787697,-7.314971,-8.384495,-9.361329,-0.7038953
0.32953036,4.488315,0.53826016,-0.4787697,-7.314971,-8.384495,-9.361329,-0.7038953
0.32243317,4.489667,0.5712834,-0.5703824,-7.5109797,-7.7907324,-8.844181,-1.0773908
0.31535465,4.490994,0.5712834,-0.5703824,-7.5109797,-7.7907324,-8.844181,-1.0773908
0.308101,4.492363,0.6043066,-0.65453833,-7.7123146,-7.1059904,-8.197746,-1.3742718
0.30085886,4.493707,0.6043066,-0.65453833,-7.7123146,-7.1059904,-8.197746,-1.3742718
0.29340452,4.4950867,0.6383951,-0.73123735,-7.920041,-6.4020953,-7.5465236,-1.8100165
0.28597662,4.496437,0.6383951,-0.73123735,-7.920041,-6.4020953,-7.5465236,-1.8100165
0.27833807,4.49781,0.67141825,-0.8026101,-8.134159,-5.5401826,-6.7612257,-2.2026656
0.27069598,4.4991584,0.67141825,-0.8026101,-8.134159,-5.5401826,-6.7612257,-2.2026656
0.2628365,4.500515,0.7055067,-0.8654607,-8.355734,-4.6591167,-5.923255,-2.6384103
0.2549739,4.5018477,0.7055067,-0.8654607,-8.355734,-4.6591167,-5.923255,-2.6384103
0.24687451,4.503192,0.7406604,-0.92298496,-8.584766,-3.715801,-5.0661306,-2.873042
0.23877256,4.504512,0.7406604,-0.92298496,-8.584766,-3.715801,-5.0661306,-2.873042
0.23041718,4.50585,0.7811405,-0.97411764,-8.820189,-2.8443117,-4.333505,-3.1268275
0.22206798,4.5071607,0.7811405,-0.97411764,-8.820189,-2.8443117,-4.333505,-3.1268275
0.21339653,4.5085053,0.8237511,-1.015663,-9.055613,-2.078167,-3.6056678,-3.3375173
0.20479172,4.509812,0.8237511,-1.015663,-9.055613,-2.078167,-3.6056678,-3.3375173
0.19593489,4.51115,0.8738185,-1.0486861,-9.282515,-1.3742718,-2.9735985,-3.442862
0.18708453,4.5124583,0.8738185,-1.0486861,-9.282515,-1.3742718,-2.9735985,-3.442862
0.17798996,4.5138025,0.9292123,-1.0753177,-9.495567,-0.80445176,-2.3942018,-3.6152446
0.16892,4.515114,0.9292123,-1.0753177,-9.495567,-0.80445176,-2.3942018,-3.6152446
0.15960315,4.516467,0.9899323,-1.0955578,-9.690511,-0.22984336,-1.9776106,-3.787627
0.1502927,4.517789,0.9899323,-1.0955578,-9.690511,-0.22984336,-1.9776106,-3.787627
0.14080308,4.5191507,1.0559788,-1.1115367,-9.864149,0.31603462,-1.5705963,-3.8402996
0.13131978,4.52048,1.0559788,-1.1115367,-9.864149,0.31603462,-1.5705963,-3.8402996
0.12165271,4.5218573,1.1241556,-1.1264504,-10.009025,1.0199299,-1.1971009,-3.9456444
0.11198213,4.523203,1.1241556,-1.1264504,-10.009025,1.0199299,-1.1971009,-3.9456444
0.10223358,4.524589,1.1955284,-1.1349726,-10.120877,1.5466543,-0.93373865,-3.9504328
0.092344336,4.5259633,1.1955284,-1.1349726,-10.120877,1.5466543,-0.93373865,-3.9504328
0.08227063,4.527398,1.2669011,-1.1360378,-10.200772,2.0638018,-0.80445176,-3.9983168
0.0725392,4.5287533,1.2669011,-1.1360378,-10.200772,2.0638018,-0.80445176,-3.9983168
0.06275832,4.530153,1.3382738,-1.1307116,-10.248709,2.4947581,-0.6464345,-4.012682
0.05280437,4.5315466,1.3382738,-1.1307116,-10.248709,2.4947581,-0.6464345,-4.012682
0.042825952,4.532985,1.407516,-1.1189936,-10.260427,2.930503,-0.50278234,-4.0318356
0.032833602,4.534395,1.407516,-1.1189936,-10.260427,2.930503,-0.50278234,-4.0318356
0.022864057,4.5358486,1.4756929,-1.1030147,-10.23486,3.3135753,-0.37349546,-3.9839516
0.0129104,4.537269,1.4756929,-1.1030147,-10.23486,3.3135753,-0.37349546,-3.9839516
0.0029643865,4.5387335,1.5385435,-1.0795789,-10.176271,3.5817258,-0.23463176,-4.0174704
6.27618,4.5401726,1.5385435,-1.0795789,-10.176271,3.5817258,-0.23463176,-4.0174704
6.2663665,4.541642,1.5992635,-1.0518819,-10.085724,4.1515455,0.10534488,-4.0318356
6.2564697,4.543096,1.5992635,-1.0518819,-10.085724,4.1515455,0.10534488,-4.0318356
6.246752,4.544582,1.6567879,-1.019924,-9.96961,4.817134,0.22026655,-3.892972
6.236991,4.546048,1.6567879,-1.019924,-9.96961,4.817134,0.22026655,-3.892972
6.227354,4.5475535,1.713247,-0.9762482,-9.8321905,5.133168,0.4261679,-3.8594532
6.2176647,4.549042,1.713247,-0.9762482,-9.8321905,5.133168,0.4261679,-3.8594532
6.208214,4.550553,1.7654449,-0.92937654,-9.674532,5.4204726,0.45968673,-3.8307228
6.1987114,4.5520477,1.7654449,-0.92937654,-9.674532,5.4204726,0.45968673,-3.8307228
6.1893353,4.5535803,1.8112512,-0.8803744,-9.496633,5.6551046,0.47405192,-3.9217024
6.1799927,4.555085,1.8112512,-0.8803744,-9.496633,5.6551046,0.47405192,-3.9217024
6.170832,4.5566263,1.8549271,-0.83030695,-9.298493,5.90889,0.39743748,-3.8019924
6.161705,4.5581408,1.8549271,-0.83030695,-9.298493,5.90889,0.39743748,-3.8019924
6.1527643,4.5596924,1.8932766,-0.77704376,-9.074788,6.0142345,0.02873042,-3.5913026
6.1527643,4.5596924,1.8932766,-0.77704376,-9.074788,6.0142345,0.02873042,-3.5913026
6.1527643,4.5596924,1.9262998,-0.7205847,-8.8287115,6.0046577,-0.24899697,-3.2752678
6.1263037,4.5644517,1.9262998,-0.7205847,-8.8287115,6.0046577,-0.24899697,-3.2752678
6.117557,4.56609,1.9561272,-0.6577341,-8.556004,5.9807158,-0.7326257,-2.9113493
6.117557,4.56609,1.9561272,-0.6577341,-8.556004,5.9807158,-0.7326257,-2.9113493
6.10109,4.569195,1.9870199,-0.58742666,-8.256664,5.755661,-1.2354081,-2.6384103
6.0930033,4.570772,1.9870199,-0.58742666,-8.256664,5.755661,-1.2354081,-2.6384103
6.085106,4.5724134,2.0168474,-0.51498866,-7.932824,5.506664,-1.7238252,-2.4660277
6.077198,4.574045,2.0168474,-0.51498866,-7.932824,5.506664,-1.7238252,-2.4660277
6.069621,4.575718,2.043479,-0.4425507,-7.5834174,5.1475334,-2.2122424,-2.3080103
6.0620193,4.5773864,2.043479,-0.4425507,-7.5834174,5.1475334,-2.2122424,-2.3080103
6.0548134,4.5790806,2.0637188,-0.3797001,-7.2095094,4.9464207,-2.72939,-2.2984335
6.047562,4.580777,2.0637188,-0.3797001,-7.2095094,4.9464207,-2.72939,-2.2984335
6.040729,4.5824966,2.076502,-0.3285674,-6.8142967,4.951209,-3.1268275,-2.2744915
6.033887,4.5842104,2.076502,-0.3285674,-6.8142967,4.951209,-3.1268275,-2.2744915
6.027495,4.5859385,2.080763,-0.28489155,-6.396713,4.793192,-3.5673606,-2.1021092
6.0210567,4.587673,2.080763,-0.28489155,-6.396713,4.793192,-3.5673606,-2.1021092
6.015044,4.5894203,2.0733063,-0.24867256,-5.9610195,4.510676,-3.9935284,-1.9776106
6.009031,4.591163,2.0733063,-0.24867256,-5.9610195,4.510676,-3.9935284,-1.9776106
6.0034637,4.592912,2.056262,-0.22097568,-5.5093474,4.486734,-4.4723687,-1.8100165
5.9978905,4.5946593,2.056262,-0.22097568,-5.5093474,4.486734,-4.4723687,-1.8100165
5.9927745,4.5963964,2.0275,-0.19753987,-5.0416965,4.1611223,-4.711789,-1.757344
5.9876633,4.598129,2.0275,-0.19753987,-5.0416965,4.1611223,-4.711789,-1.757344
5.983027,4.5998454,1.9870199,-0.17410405,-4.5623274,4.1419687,-4.88896,-1.6424223
5.9783854,4.601561,1.9870199,-0.17410405,-4.5623274,4.1419687,-4.88896,-1.6424223
5.9742246,4.6032543,1.9337566,-0.15386403,-4.0723057,4.084508,-5.4061074,-1.436521
5.9700627,4.604945,1.9337566,-0.15386403,-4.0723057,4.084508,-5.4061074,-1.436521
5.9663734,4.606618,1.8741019,-0.1368198,-3.5876105,4.879383,-5.7508726,-1.2641385
5.9626837,4.6082907,1.8741019,-0.1368198,-3.5876105,4.879383,-5.7508726,-1.2641385
5.9594603,4.6099396,1.8133818,-0.110188186,-3.110372,5.434838,-5.9184666,-1.1204864
5.9562397,4.611587,1.8133818,-0.110188186,-3.110372,5.434838,-5.9184666,-1.1204864
5.9534845,4.6131983,1.7505312,-0.060120758,-2.6373947,5.2002063,-6.033388,-1.2114661
5.950729,4.614809,1.7505312,-0.060120758,-2.6373947,5.2002063,-6.033388,-1.2114661
5.948429,4.616378,1.6876805,-0.0047270046,-2.1772003,4.572925,-6.0238113,-1.316811
5.9461293,4.6179476,1.6876805,-0.0047270046,-2.1772003,4.572925,-6.0238113,-1.316811
5.94427,4.6194725,1.6248299,0.033622514,-1.7361808,4.1706996,-6.0525417,-1.340753
5.942411,4.6209974,1.6248299,0.033622514,-1.7361808,4.1706996,-6.0525417,-1.340753
5.940966,4.6224813,1.560914,0.053862542,-1.3164667,4.2281604,-6.0956373,-1.3742718
5.9395285,4.6239576,1.560914,0.053862542,-1.3164667,4.2281604,-6.0956373,-1.3742718
5.9384737,4.6254005,1.4969982,0.06344992,-0.9212535,4.4005427,-6.1004257,-1.2785037
5.937421,4.6268415,1.4969982,0.06344992,-0.9212535,4.4005427,-6.1004257,-1.2785037
5.9367247,4.6282434,1.4352129,0.07090677,-0.55799836,4.644751,-6.129156,-1.1587936
5.936025,4.6296544,1.4352129,0.07090677,-0.55799836,4.644751,-6.129156,-1.1587936
5.935647,4.6310225,1.3776885,0.07836362,-0.23628849,4.9895163,-6.253655,-0.93852705
5.935267,4.6323986,1.3776885,0.07836362,-0.23628849,4.9895163,-6.253655,-0.93852705
5.935167,4.633739,1.3244253,0.09434259,0.0460066,4.9895163,-6.373365,-0.81881696
5.9350667,4.6350803,1.3244253,0.09434259,0.0460066,4.9895163,-6.373365,-0.81881696
5.9352083,4.6363926,1.2743579,0.116713144,0.28995216,4.8602295,-6.4739213,-0.6943185
5.9353495,4.6377044,1.2743579,0.116713144,0.28995216,4.8602295,-6.4739213,-0.6943185
5.935691,4.63899,1.2253557,0.14121422,0.49128714,4.759673,-6.6606693,-0.5793968
5.936032,4.640273,1.2253557,0.14121422,0.49128714,4.759673,-6.6606693,-0.5793968
5.9365354,4.641527,1.1774188,0.16678058,0.65533787,4.6926355,-6.919243,-0.51235914
5.9370384,4.6427794,1.1774188,0.16678058,0.65533787,4.6926355,-6.919243,-0.51235914
5.9376736,4.643998,1.1294819,0.19341218,0.7895612,4.510676,-7.1107793,-0.48362875
5.9383106,4.6452174,1.1294819,0.19341218,0.7895612,4.510676,-7.1107793,-0.48362875
5.939053,4.6464014,1.0783492,0.21791327,0.8971529,4.31914,-7.28795,-0.4261679
5.939796,4.6475835,1.0783492,0.21791327,0.8971529,4.31914,-7.28795,-0.4261679
5.940619,4.648721,1.0272166,0.2349575,0.9759825,4.146757,-7.489063,-0.48841715
5.941436,4.6498485,1.0272166,0.2349575,0.9759825,4.146757,-7.489063,-0.48841715
5.942308,4.650943,0.9750186,0.24454488,1.0271151,4.0940847,-7.680599,-0.3878607
5.9431806,4.652036,0.9750186,0.24454488,1.0271151,4.0940847,-7.680599,-0.3878607
5.94408,4.6530724,0.9206901,0.24774067,1.0548121,4.084508,-7.8290396,-0.4261679
5.9449787,4.654105,0.9206901,0.24774067,1.0548121,4.084508,-7.8290396,-0.4261679
5.945885,4.6550827,0.86103535,0.24880594,1.0612036,3.9743748,-8.00621,-0.41180268
5.9467916,4.6560583,0.86103535,0.24880594,1.0612036,3.9743748,-8.00621,-0.41180268
5.9476895,4.6569667,0.7960542,0.25200173,1.0526816,3.9504328,-8.135497,-0.4309563
5.9485874,4.657873,0.7960542,0.25200173,1.0526816,3.9504328,-8.135497,-0.4309563
5.9494634,4.658703,0.72787726,0.25626278,1.030311,3.8833952,-8.212111,-0.49799395
5.950338,4.6595287,0.72787726,0.25626278,1.030311,3.8833952,-8.212111,-0.49799395
5.951183,4.6602955,0.6522435,0.2647849,0.99941826,3.7349546,-8.264784,-0.40701428
5.9520283,4.6610613,0.6522435,0.2647849,0.99941826,3.7349546,-8.264784,-0.40701428
5.9528356,4.6617336,0.57447916,0.27756807,0.962134,3.5913026,-8.264784,-0.49320555
5.9536433,4.662404,0.57447916,0.27756807,0.962134,3.5913026,-8.264784,-0.49320555
5.9544086,4.662982,0.49032328,0.28822073,0.9173929,3.466804,-8.212111,-0.521936
5.955174,4.663559,0.49032328,0.28822073,0.9173929,3.466804,-8.212111,-0.521936
5.9559007,4.6640325,0.40190634,0.29993862,0.86945605,3.4572272,-8.250419,-0.60812724
5.9567876,4.664609,0.40190634,0.29993862,0.86945605,3.4572272,-8.250419,-0.60812724
5.957335,4.6649117,0.30922833,0.31165653,0.8204539,3.5003228,-8.226477,-0.6560113
5.9580183,4.665289,0.30922833,0.31165653,0.8204539,3.5003228,-8.226477,-0.6560113
5.958637,4.6655626,0.21335453,0.3223092,0.7682559,3.5098996,-8.250419,-0.6847417
5.9592657,4.6658397,0.21335453,0.3223092,0.7682559,3.5098996,-8.250419,-0.6847417
5.9598484,4.6660247,0.11748073,0.33509237,0.7192537,3.5242648,-8.374918,-0.6847417
5.9604297,4.6662087,0.11748073,0.33509237,0.7192537,3.5242648,-8.374918,-0.6847417
5.9609556,4.6663094,0.020541664,0.3489408,0.67131686,3.596091,-8.441956,-0.641646
5.9614854,4.6664104,0.020541664,0.3489408,0.67131686,3.596091,-8.441956,-0.641646
5.9619565,4.6664343,-0.077462666,0.36172396,0.6265757,3.691859,-8.628703,-0.5506664
5.962428,4.666458,-0.077462666,0.36172396,0.6265757,3.691859,-8.628703,-0.5506664
5.962857,4.6663833,-0.17120594,0.37450713,0.58076936,3.7110126,-8.801085,-0.60333884
5.9632936,4.6663065,-0.17120594,0.37450713,0.58076936,3.7110126,-8.801085,-0.60333884
5.9636755,4.6661744,-0.2596229,0.3851598,0.5413546,3.7924154,-9.006987,-0.45968673
5.964054,4.6660433,-0.2596229,0.3851598,0.5413546,3.7924154,-9.006987,-0.45968673
5.964403,4.6658425,-0.340583,0.39581242,0.50620085,3.7924154,-9.26556,-0.4213795
5.9647503,4.6656427,-0.340583,0.39581242,0.50620085,3.7924154,-9.26556,-0.4213795
5.9650674,4.6653953,-0.41408622,0.40646508,0.4710471,3.763685,-9.461885,-0.33039984
5.9653835,4.6651487,-0.41408622,0.40646508,0.4710471,3.763685,-9.461885,-0.33039984
5.9657,4.664873,-0.48013264,0.41392192,0.44228497,3.6487634,-9.720459,-0.22026655
5.9660115,4.6646013,-0.48013264,0.41392192,0.44228497,3.6487634,-9.720459,-0.22026655
5.966325,4.664284,-0.5355264,0.4171177,0.42417547,3.5625722,-9.940725,-0.24899697
5.9666367,4.663969,-0.5355264,0.4171177,0.42417547,3.5625722,-9.940725,-0.24899697
5.9669757,4.663624,-0.582398,0.41498718,0.4113923,3.490746,-10.113108,-0.19153613
5.967314,4.66328,-0.582398,0.41498718,0.4113923,3.490746,-10.113108,-0.19153613
5.96766,4.662899,-0.618617,0.40753034,0.40713125,3.5242648,-10.271125,-0.12928689
5.9680047,4.6625195,-0.618617,0.40753034,0.40713125,3.5242648,-10.271125,-0.12928689
5.9683704,4.6621075,-0.64418334,0.3936819,0.41032705,3.5242648,-10.352529,-0.0047884034
5.968731,4.661701,-0.64418334,0.3936819,0.41032705,3.5242648,-10.352529,-0.0047884034
5.969102,4.6612687,-0.6601623,0.37770292,0.41884917,3.6152446,-10.524911,0.07182605
5.9694695,4.660839,-0.6601623,0.37770292,0.41884917,3.6152446,-10.524911,0.07182605
5.969848,4.660393,-0.6686844,0.36172396,0.43482813,3.6966474,-10.553641,0.12449849
5.9702272,4.659945,-0.6686844,0.36172396,0.43482813,3.6966474,-10.553641,0.12449849
5.9706345,4.6594973,-0.6697497,0.34467974,0.45506814,3.6535518,-10.601525,0.22505496
5.971045,4.6590443,-0.6697497,0.34467974,0.45506814,3.6535518,-10.601525,0.22505496
5.9714766,4.658593,-0.6644234,0.32870078,0.47637343,3.691859,-10.654198,0.30645782
5.9719057,4.6581435,-0.6644234,0.32870078,0.47637343,3.691859,-10.654198,0.30645782
5.9723616,4.6577015,-0.6527055,0.31485233,0.49874398,3.667917,-10.692505,0.31603462
5.9728193,4.6572566,-0.6527055,0.31485233,0.49874398,3.667917,-10.692505,0.31603462
5.9733047,4.656829,-0.63566124,0.3010039,0.52431035,3.6343982,-10.745177,0.33518824
5.9737916,4.656399,-0.63566124,0.3010039,0.52431035,3.6343982,-10.745177,0.33518824
5.9743066,4.655985,-0.6143559,0.2860902,0.5520072,3.6583402,-10.788273,0.36870706
5.97482,4.655572,-0.6143559,0.2860902,0.5520072,3.6583402,-10.788273,0.36870706
5.9753714,4.6551785,-0.5898549,0.27011123,0.57863885,3.5865142,-10.898406,0.34476504
5.975922,4.6547856,-0.5898549,0.27011123,0.57863885,3.5865142,-10.898406,0.34476504
5.9765043,4.6544137,-0.56322324,0.25413227,0.6063357,3.5625722,-10.922348,0.2825158
5.977081,4.6540446,-0.56322324,0.25413227,0.6063357,3.5625722,-10.922348,0.2825158
5.977695,4.653697,-0.53446114,0.23389223,0.63190204,3.514688,-11.051635,0.25378537
5.978305,4.6533513,-0.53446114,0.23389223,0.63190204,3.514688,-11.051635,0.25378537
5.978952,4.653021,-0.50889474,0.21152169,0.6542726,3.442862,-11.046846,0.21068975
5.9795914,4.6526937,-0.50889474,0.21152169,0.6542726,3.442862,-11.046846,0.21068975
5.980259,4.6523848,-0.48226315,0.1870206,0.67664313,3.4045548,-11.042058,0.22505496
5.9809275,4.652075,-0.48226315,0.1870206,0.67664313,3.4045548,-11.042058,0.22505496
5.9816127,4.651783,-0.4566968,0.16038899,0.69475263,3.4237084,-11.03727,0.16280572
5.9822984,4.65149,-0.4566968,0.16038899,0.69475263,3.4237084,-11.03727,0.16280572
5.982994,4.651214,-0.43219572,0.13056158,0.7075358,3.4237084,-11.046846,0.18195933
5.9836936,4.6509366,-0.43219572,0.13056158,0.7075358,3.4237084,-11.046846,0.18195933
5.984387,4.6506767,-0.40662938,0.100734174,0.71605796,3.4859576,-10.960655,0.16280572
5.9850836,4.650415,-0.40662938,0.100734174,0.71605796,3.4859576,-10.960655,0.16280572
5.985787,4.6501703,-0.38106304,0.069841504,0.7235148,3.4763808,-10.965444,0.047884032
5.986488,4.649926,-0.38106304,0.069841504,0.7235148,3.4763808,-10.965444,0.047884032
5.9871974,4.6496964,-0.35549667,0.038948838,0.72244954,3.4284968,-10.927136,0.07182605
5.987899,4.649469,-0.35549667,0.038948838,0.72244954,3.4284968,-10.927136,0.07182605
5.988609,4.6492558,-0.32993034,0.008056169,0.71818846,3.3614593,-10.850522,-0.10534488
5.9893084,4.6490455,-0.32993034,0.008056169,0.71818846,3.3614593,-10.850522,-0.10534488
5.989992,4.6488466,-0.30329874,-0.0228365,0.7096664,3.394978,-10.692505,-0.19632454
5.9906654,4.6486506,-0.30329874,-0.0228365,0.7096664,3.394978,-10.692505,-0.19632454
5.9913263,4.648465,-0.2798629,-0.050533377,0.6968832,3.3806129,-10.654198,-0.31603462
5.9919767,4.6482816,-0.2798629,-0.050533377,0.6968832,3.3806129,-10.654198,-0.31603462
5.9926095,4.648109,-0.2564271,-0.07503446,0.67983896,3.3806129,-10.6158905,-0.35913026
5.9932375,4.6479373,-0.2564271,-0.07503446,0.67983896,3.3806129,-10.6158905,-0.35913026
5.993823,4.6477704,-0.2351218,-0.095274486,0.6606642,3.3854012,-10.611102,-0.47405192
5.994409,4.647602,-0.2351218,-0.095274486,0.6606642,3.3854012,-10.611102,-0.47405192
5.994953,4.6474385,-0.21381652,-0.11231872,0.63722837,3.2848446,-10.553641,-0.58897364
5.994953,4.6474385,-0.21381652,-0.11231872,0.63722837,3.2848446,-10.553641,-0.58897364
5.994953,4.6474385,-0.21381652,-0.11231872,0.63722837,3.2848446,-10.553641,-0.58897364
5.994953,4.6474385,-0.17333646,-0.13895033,0.58929145,3.1842883,-10.553641,-0.89064306
5.994953,4.6474385,-0.17333646,-0.13895033,0.58929145,3.1842883,-10.553641,-0.89064306
5.9978666,4.645893,-0.17333646,-0.13895033,0.58929145,3.1842883,-10.553641,-0.89064306
5.998489,4.645579,-0.15309644,-0.14747244,0.5658557,3.0933087,-10.486604,-0.9624691
5.9989862,4.645327,-0.15309644,-0.14747244,0.5658557,3.0933087,-10.486604,-0.9624691
5.999486,4.645062,-0.13392168,-0.15812509,0.5402893,3.2225955,-10.424355,-1.0630256
5.999992,4.6447935,-0.13392168,-0.15812509,0.5402893,3.2225955,-10.424355,-1.0630256
6.0005097,4.644535,-0.11581218,-0.1634514,0.5168535,3.0885203,-10.405201,-1.0869676
6.0010204,4.64428,-0.11581218,-0.1634514,0.5168535,3.0885203,-10.405201,-1.0869676
6.0015163,4.6440372,-0.09983322,-0.1666472,0.49341768,3.040636,-10.328587,-1.1492168
6.002018,4.6437926,-0.09983322,-0.1666472,0.49341768,3.040636,-10.328587,-1.1492168
6.002489,4.643568,-0.08278899,-0.16877773,0.46998185,3.0214825,-10.323798,-1.1252748
6.002963,4.643342,-0.08278899,-0.16877773,0.46998185,3.0214825,-10.323798,-1.1252748
6.0034037,4.643131,-0.06787529,-0.16877773,0.44867656,3.0502129,-10.218452,-1.1875241
6.0038443,4.6429195,-0.06787529,-0.16877773,0.44867656,3.0502129,-10.218452,-1.1875241
6.004258,4.6427207,-0.05509211,-0.16771246,0.42737126,3.1268275,-10.228029,-1.3455414
6.004258,4.6427207,-0.05509211,-0.16771246,0.42737126,3.1268275,-10.228029,-1.3455414
6.0050783,4.642328,-0.043374203,-0.16238615,0.4092618,3.1316159,-10.132261,-1.3694834
6.0054593,4.6421475,-0.043374203,-0.16238615,0.4092618,3.1316159,-10.132261,-1.3694834
6.0058193,4.6419773,-0.033786822,-0.1549293,0.38902175,3.145981,-10.04607,-1.412579
6.00618,4.6418066,-0.033786822,-0.1549293,0.38902175,3.145981,-10.04607,-1.412579
6.00653,4.641641,-0.027395237,-0.14534192,0.3666512,3.083732,-10.041282,-1.412579
6.0068746,4.641478,-0.027395237,-0.14534192,0.3666512,3.083732,-10.041282,-1.412579
6.007209,4.6413183,-0.024199443,-0.13468927,0.3485417,3.0214825,-9.993398,-1.3742718
6.0075445,4.641158,-0.024199443,-0.13468927,0.3485417,3.0214825,-9.993398,-1.3742718
6.0078726,4.6410017,-0.022068914,-0.121906094,0.33149746,2.9640217,-9.974244,-1.4317327
6.008187,4.640852,-0.022068914,-0.121906094,0.33149746,2.9640217,-9.974244,-1.4317327
6.0084987,4.6406984,-0.02313418,-0.109122925,0.313388,2.920926,-9.993398,-1.3742718
6.0088058,4.6405463,-0.02313418,-0.109122925,0.313388,2.920926,-9.993398,-1.3742718
6.0090876,4.640395,-0.027395237,-0.093143955,0.2952785,2.954445,-9.950302,-1.4077905
6.0093703,4.6402435,-0.027395237,-0.093143955,0.2952785,2.954445,-9.950302,-1.4077905
6.0096216,4.6400914,-0.033786822,-0.077164985,0.27929953,3.0454245,-9.892841,-1.4269443
6.009873,4.6399393,-0.033786822,-0.077164985,0.27929953,3.0454245,-9.892841,-1.4269443
6.0100975,4.639781,-0.046569996,-0.06118602,0.26651633,3.145981,-9.878476,-1.4508862
6.0103226,4.6396227,-0.046569996,-0.06118602,0.26651633,3.145981,-9.878476,-1.4508862
6.010528,4.6394567,-0.060418434,-0.04201126,0.2526679,3.1507695,-9.811439,-1.4221559
6.0107327,4.639291,-0.060418434,-0.04201126,0.2526679,3.1507695,-9.811439,-1.4221559
6.010909,4.6391215,-0.07426687,-0.019640706,0.2377542,3.217807,-9.801862,-1.388637
6.0110874,4.6389503,-0.07426687,-0.019640706,0.2377542,3.217807,-9.801862,-1.388637
6.0112443,4.63877,-0.09024584,0.003795111,0.22177523,3.2369606,-9.816227,-1.3694834
6.0113997,4.6385922,-0.09024584,0.003795111,0.22177523,3.2369606,-9.816227,-1.3694834
6.011535,4.638408,-0.104094274,0.02723093,0.20579627,3.2225955,-9.873688,-1.3072342
6.01167,4.6382227,-0.104094274,0.02723093,0.20579627,3.2225955,-9.873688,-1.3072342
6.011799,4.6380305,-0.11474692,0.05173201,0.18981731,3.083732,-9.873688,-1.2306197
6.0119267,4.6378374,-0.11474692,0.05173201,0.18981731,3.083732,-9.873688,-1.2306197
6.0120335,4.6376467,-0.121138506,0.074102566,0.17596887,3.0358477,-9.931149,-1.1013328
6.0121403,4.6374564,-0.121138506,0.074102566,0.17596887,3.0358477,-9.931149,-1.1013328
6.0122433,4.637264,-0.12539956,0.09327733,0.16531622,2.9735985,-10.007763,-1.043872
6.012346,4.637072,-0.12539956,0.09327733,0.16531622,2.9735985,-10.007763,-1.043872
6.012419,4.636892,-0.124334306,0.10925629,0.15572885,2.9592333,-10.055647,-0.93373865
6.0124917,4.6367126,-0.124334306,0.10925629,0.15572885,2.9592333,-10.055647,-0.93373865
6.012591,4.6365304,-0.120073244,0.12203947,0.14933725,2.8921957,-10.127473,-0.92895025
6.012689,4.636348,-0.120073244,0.12203947,0.14933725,2.8921957,-10.127473,-0.92895025
6.012749,4.636187,-0.11155113,0.13375737,0.14294566,2.9113493,-10.19451,-0.8619126
6.0128074,4.6360264,-0.11155113,0.13375737,0.14294566,2.9113493,-10.19451,-0.8619126
6.0128846,4.635869,-0.10302901,0.14227949,0.1386846,2.896984,-10.189722,-0.89064306
6.01296,4.6357126,-0.10302901,0.14227949,0.1386846,2.896984,-10.189722,-0.89064306
6.012952,4.635686,-0.09557216,0.1476058,0.1386846,2.9257145,-10.189722,-0.7661445
6.0129437,4.6356597,-0.09557216,0.1476058,0.1386846,2.9257145,-10.189722,-0.7661445
6.012931,4.6356025,-0.08598478,0.15293214,0.13761935,2.906561,-10.151415,-0.79008657
6.0129175,4.6355457,-0.08598478,0.15293214,0.13761935,2.906561,-10.151415,-0.79008657
6.012902,4.635524,-0.07852793,0.15825845,0.13548881,2.9831753,-10.055647,-0.7613561
6.0128856,4.6355023,-0.07852793,0.15825845,0.13548881,2.9831753,-10.055647,-0.7613561
6.0128684,4.635453,-0.07213634,0.16145425,0.13229302,3.0454245,-9.983821,-0.81402856
6.012851,4.635404,-0.07213634,0.16145425,0.13229302,3.0454245,-9.983821,-0.81402856
6.01283,4.6353974,-0.06787529,0.1657153,0.13016249,3.083732,-9.92636,-0.7374141
6.0128083,4.635391,-0.06787529,0.1657153,0.13016249,3.083732,-9.92636,-0.7374141
6.012782,4.6353917,-0.062548965,0.16784583,0.12483617,3.1555579,-9.878476,-0.7230489
6.0127554,4.6353927,-0.062548965,0.16784583,0.12483617,3.1555579,-9.878476,-0.7230489
6.012721,4.635399,-0.058287904,0.1689111,0.11631405,3.1890767,-9.725247,-0.6991069
6.0126863,4.635405,-0.058287904,0.1689111,0.11631405,3.1890767,-9.725247,-0.6991069
6.0126376,4.6354017,-0.05509211,0.17104164,0.104596145,3.2800562,-9.667787,-0.7374141
6.012589,4.6353984,-0.05509211,0.17104164,0.104596145,3.2800562,-9.667787,-0.7374141
6.012527,4.635408,-0.05189632,0.17210689,0.089682445,3.2704794,-9.624691,-0.6943185
6.012465,4.6354175,-0.05189632,0.17210689,0.089682445,3.2704794,-9.624691,-0.6943185
6.012386,4.635418,-0.049765788,0.17104164,0.073703475,3.2513258,-9.56723,-0.7326257
6.012306,4.635419,-0.049765788,0.17104164,0.073703475,3.2513258,-9.56723,-0.7326257
6.01221,4.635431,-0.04443947,0.16678058,0.055593982,3.2944214,-9.471462,-0.6895301
6.0121136,4.635443,-0.04443947,0.16678058,0.055593982,3.2944214,-9.471462,-0.6895301
6.0119963,4.635455,-0.04017841,0.16251951,0.03428869,3.2704794,-9.452309,-0.6991069
6.011879,4.635468,-0.04017841,0.16251951,0.03428869,3.2704794,-9.452309,-0.6991069
6.0117416,4.635495,-0.032721557,0.15612793,0.011918138,3.3518825,-9.471462,-0.6512229
6.011605,4.635522,-0.032721557,0.15612793,0.011918138,3.3518825,-9.471462,-0.6512229
6.0114465,4.635558,-0.02313418,0.14654055,-0.010452416,3.3375173,-9.404425,-0.63206923
6.0112886,4.635595,-0.02313418,0.14654055,-0.010452416,3.3375173,-9.404425,-0.63206923
6.0111113,4.6356373,-0.0114162695,0.13482264,-0.029627176,3.371036,-9.399636,-0.6368576
6.010934,4.63568,-0.0114162695,0.13482264,-0.029627176,3.371036,-9.399636,-0.6368576
6.010751,4.6357536,0.0024321685,0.12417,-0.048801936,3.3614593,-9.380483,-0.51235914
6.0105658,4.635828,0.0024321685,0.12417,-0.048801936,3.3614593,-9.380483,-0.51235914
6.010365,4.635914,0.017345872,0.11351735,-0.064780906,3.3518825,-9.346964,-0.51235914
6.0101643,4.6359997,0.017345872,0.11351735,-0.064780906,3.3518825,-9.346964,-0.51235914
6.0099607,4.6361156,0.03652063,0.102864705,-0.078629345,3.3662477,-9.332599,-0.40222588
6.0097575,4.6362314,0.03652063,0.102864705,-0.078629345,3.3662477,-9.332599,-0.40222588
6.0095367,4.63636,0.05782592,0.09221206,-0.092477776,3.3758245,-9.303867,-0.4357447
6.009316,4.6364884,0.05782592,0.09221206,-0.092477776,3.3758245,-9.303867,-0.4357447
6.009084,4.6366353,0.07913121,0.08262468,-0.104195684,3.41892,-9.284714,-0.4165911
6.008853,4.6367817,0.07913121,0.08262468,-0.104195684,3.41892,-9.284714,-0.4165911
6.0086117,4.63694,0.09937123,0.07516783,-0.10952201,3.3854012,-9.23683,-0.46926352
6.0083704,4.6370983,0.09937123,0.07516783,-0.10952201,3.3854012,-9.23683,-0.46926352
6.0081263,4.6372757,0.118545994,0.06664571,-0.11484833,3.3614593,-9.179369,-0.44532153
6.0078826,4.6374536,0.118545994,0.06664571,-0.11484833,3.3614593,-9.179369,-0.44532153
6.007632,4.6376395,0.1366555,0.05599307,-0.11804412,3.3327289,-9.141062,-0.49320555
6.007381,4.637825,0.1366555,0.05599307,-0.11804412,3.3327289,-9.141062,-0.49320555
6.007125,4.6380057,0.15369973,0.047470953,-0.1159136,3.3566709,-9.045294,-0.58897364
6.0068684,4.6381865,0.15369973,0.047470953,-0.1159136,3.3566709,-9.045294,-0.58897364
6.0066195,4.638379,0.16754816,0.04107937,-0.10952201,3.3854012,-8.99741,-0.5793968
6.00637,4.6385717,0.16754816,0.04107937,-0.10952201,3.3854012,-8.99741,-0.5793968
6.0061255,4.6387625,0.17820081,0.03468778,-0.10313042,3.4332852,-8.863335,-0.62728083
6.005881,4.6389527,0.17820081,0.03468778,-0.10313042,3.4332852,-8.863335,-0.62728083
6.005641,4.6391377,0.18352713,0.031491987,-0.0978041,3.4141316,-8.820239,-0.6799533
6.005401,4.6393228,0.18352713,0.031491987,-0.0978041,3.4141316,-8.820239,-0.6799533
6.0051727,4.639503,0.18352713,0.029361458,-0.08715145,3.4332852,-8.686164,-0.6991069
6.004944,4.639683,0.18352713,0.029361458,-0.08715145,3.4332852,-8.686164,-0.6991069
6.004726,4.6398506,0.18033133,0.028296193,-0.077564076,3.4620156,-8.566454,-0.7517793
6.004508,4.640018,0.18033133,0.028296193,-0.077564076,3.4620156,-8.566454,-0.7517793
6.0042973,4.640189,0.17287448,0.030426722,-0.06904196,3.466804,-8.441956,-0.6751649
6.0040865,4.6403604,0.17287448,0.030426722,-0.06904196,3.466804,-8.441956,-0.6751649
6.003886,4.640523,0.16222183,0.033622514,-0.058389317,3.5003228,-8.360553,-0.6607997
6.003686,4.640685,0.16222183,0.033622514,-0.058389317,3.5003228,-8.360553,-0.6607997
6.0034943,4.640841,0.14943866,0.040014103,-0.048801936,3.5098996,-8.322245,-0.62728083
6.003303,4.640997,0.14943866,0.040014103,-0.048801936,3.5098996,-8.322245,-0.62728083
6.003119,4.6411433,0.13452496,0.04853622,-0.041345086,3.5242648,-8.303091,-0.60333884
6.0029345,4.641289,0.13452496,0.04853622,-0.041345086,3.5242648,-8.303091,-0.60333884
6.002758,4.641429,0.118545994,0.057058334,-0.033888236,3.5434184,-8.322245,-0.5506664
6.0025344,4.6416054,0.118545994,0.057058334,-0.033888236,3.5434184,-8.322245,-0.5506664
6.0023704,4.641729,0.102567025,0.06558045,-0.025366118,3.5098996,-8.346188,-0.5506664
6.002236,4.6418295,0.102567025,0.06558045,-0.025366118,3.5098996,-8.346188,-0.5506664
6.0020747,4.6419506,0.087653324,0.074102566,-0.020039797,3.5577838,-8.360553,-0.48841715
6.0019135,4.642071,0.087653324,0.074102566,-0.020039797,3.5577838,-8.360553,-0.48841715
6.0017605,4.642185,0.07060909,0.07942889,-0.013648209,3.5434184,-8.355764,-0.4213795
6.0016074,4.6422997,0.07060909,0.07942889,-0.013648209,3.5434184,-8.355764,-0.4213795
6.0014653,4.6424103,0.056760654,0.085820474,-0.006191358,3.5242648,-8.37013,-0.34955344
6.0013223,4.6425223,0.056760654,0.085820474,-0.006191358,3.5242648,-8.37013,-0.34955344
6.0011854,4.6426244,0.045042746,0.090081535,0.00020022877,3.5434184,-8.355764,-0.33997664
6.001049,4.642726,0.045042746,0.090081535,0.00020022877,3.5434184,-8.355764,-0.33997664
6.000915,4.642811,0.034390103,0.0911468,0.0065918155,3.5242648,-8.360553,-0.40222588
6.0007815,4.6428957,0.034390103,0.0911468,0.0065918155,3.5242648,-8.360553,-0.40222588
6.000656,4.6429787,0.024802722,0.0911468,0.010852873,3.5003228,-8.394072,-0.34476504
6.0005302,4.6430616,0.024802722,0.0911468,0.010852873,3.5003228,-8.394072,-0.34476504
6.000413,4.643137,0.017345872,0.09221206,0.020440254,3.5051112,-8.317456,-0.34476504
6.000296,4.6432114,0.017345872,0.09221206,0.020440254,3.5051112,-8.317456,-0.34476504
6.0001845,4.6432743,0.008823755,0.09221206,0.027897105,3.4955344,-8.317456,-0.37828386
6.0000725,4.6433372,0.008823755,0.09221206,0.027897105,3.4955344,-8.317456,-0.37828386
5.9999633,4.643379,-0.0007636249,0.09221206,0.033223428,3.5051112,-8.207323,-0.45010993
5.9998536,4.643421,-0.0007636249,0.09221206,0.033223428,3.5051112,-8.207323,-0.45010993
5.999752,4.643452,-0.009285741,0.09434259,0.042810805,3.4284968,-8.192958,-0.48362875
5.9996505,4.643483,-0.009285741,0.09434259,0.042810805,3.4284968,-8.192958,-0.48362875
5.9995575,4.6434984,-0.019938385,0.09540785,0.052398186,3.4093432,-8.154651,-0.51714754
5.9994626,4.643514,-0.019938385,0.09540785,0.052398186,3.4093432,-8.154651,-0.51714754
5.9994626,4.643514,-0.029525764,0.09753838,0.06305083,3.3854012,-8.149862,-0.5554548
5.999293,4.6435165,-0.029525764,0.09753838,0.06305083,3.3854012,-8.149862,-0.5554548
5.9992213,4.643503,-0.042308938,0.09753838,0.073703475,3.4284968,-8.145074,-0.56982
5.9992213,4.643503,-0.042308938,0.09753838,0.073703475,3.4284968,-8.145074,-0.56982
5.9990606,4.6434727,-0.056157377,0.09753838,0.08542138,3.3854012,-8.145074,-0.48362875
5.9990177,4.643462,-0.056157377,0.09753838,0.08542138,3.3854012,-8.145074,-0.48362875
5.998971,4.643425,-0.06894055,0.09647312,0.09926982,3.3614593,-8.212111,-0.5554548
5.998924,4.6433883,-0.06894055,0.09647312,0.09926982,3.3614593,-8.212111,-0.5554548
5.998889,4.6433506,-0.08065846,0.09647312,0.10992247,3.323152,-8.255207,-0.49320555
5.998854,4.643313,-0.08065846,0.09647312,0.10992247,3.323152,-8.255207,-0.49320555
5.9988294,4.6432557,-0.092376366,0.09753838,0.12164038,3.3423057,-8.255207,-0.545878
5.998805,4.6431985,-0.092376366,0.09753838,0.12164038,3.3423057,-8.255207,-0.545878
5.9987955,4.643138,-0.10302901,0.09540785,0.13548881,3.3614593,-8.288726,-0.50278234
5.9987864,4.643077,-0.10302901,0.09540785,0.13548881,3.3614593,-8.288726,-0.50278234
5.9987907,4.643007,-0.11261639,0.09434259,0.14933725,3.323152,-8.365341,-0.50757074
5.9987955,4.6429377,-0.11261639,0.09434259,0.14933725,3.323152,-8.365341,-0.50757074
5.9988112,4.642861,-0.121138506,0.09327733,0.1599899,3.3662477,-8.441956,-0.50278234
5.998827,4.642784,-0.121138506,0.09327733,0.1599899,3.3662477,-8.441956,-0.50278234
5.9988546,4.6427007,-0.1275301,0.09327733,0.17064254,3.347094,-8.480263,-0.49799395
5.998881,4.642622,-0.1275301,0.09327733,0.17064254,3.347094,-8.480263,-0.49799395
5.9989176,4.6425343,-0.13179116,0.0911468,0.18129519,3.2944214,-8.532935,-0.5267244
5.9989543,4.6424456,-0.13179116,0.0911468,0.18129519,3.2944214,-8.532935,-0.5267244
5.9990096,4.642374,-0.1360522,0.089016266,0.19194783,3.2704794,-8.599973,-0.4165911
5.9990654,4.642302,-0.1360522,0.089016266,0.19194783,3.2704794,-8.599973,-0.4165911
5.999135,4.6422386,-0.1360522,0.086885735,0.20153521,3.2130187,-8.628703,-0.3878607
5.9992056,4.6421742,-0.1360522,0.086885735,0.20153521,3.2130187,-8.628703,-0.3878607
5.999285,4.642112,-0.13392168,0.08155942,0.21005733,3.1986535,-8.690952,-0.39743748
5.999365,4.64205,-0.13392168,0.08155942,0.21005733,3.1986535,-8.690952,-0.39743748
5.999459,4.6419997,-0.1275301,0.07516783,0.21857944,3.1507695,-8.7771435,-0.38307226
5.9995537,4.6419497,-0.1275301,0.07516783,0.21857944,3.1507695,-8.7771435,-0.38307226
5.9996758,4.6419244,-0.120073244,0.06877624,0.2260363,3.1316159,-8.844181,-0.25857377
5.999797,4.641899,-0.120073244,0.06877624,0.2260363,3.1316159,-8.844181,-0.25857377
5.9999113,4.6418676,-0.11261639,0.061319392,0.23029736,3.145981,-8.825027,-0.34476504
6.000025,4.6418357,-0.11261639,0.061319392,0.23029736,3.145981,-8.825027,-0.34476504
6.000144,4.641817,-0.10089848,0.052797277,0.23242788,3.145981,-8.848969,-0.32561144
6.0002637,4.641798,-0.10089848,0.052797277,0.23242788,3.145981,-8.848969,-0.32561144
6.0003943,4.6417956,-0.08598478,0.04427516,0.2377542,3.1842883,-8.834604,-0.25857377
6.0005255,4.6417933,-0.08598478,0.04427516,0.2377542,3.1842883,-8.834604,-0.25857377
6.0006614,4.6418056,-0.07213634,0.03681831,0.23988473,3.1890767,-8.868123,-0.23463176
6.0008,4.641818,-0.07213634,0.03681831,0.23988473,3.1890767,-8.868123,-0.23463176
6.000931,4.641838,-0.058287904,0.02723093,0.2377542,3.1747115,-8.805874,-0.25857377
6.0010624,4.641858,-0.058287904,0.02723093,0.2377542,3.1747115,-8.805874,-0.25857377
6.001192,4.6418905,-0.042308938,0.017643549,0.23668894,3.1842883,-8.796297,-0.25378537
6.001324,4.641924,-0.042308938,0.017643549,0.23668894,3.1842883,-8.796297,-0.25378537
6.001451,4.6419673,-0.026329972,0.008056169,0.23562367,3.1986535,-8.762778,-0.25857377
6.001579,4.6420107,-0.026329972,0.008056169,0.23562367,3.1986535,-8.762778,-0.25857377
6.001704,4.642067,-0.010351005,-0.00046594674,0.23349315,3.2225955,-8.810662,-0.25857377
6.0018296,4.642123,-0.010351005,-0.00046594674,0.23349315,3.2225955,-8.810662,-0.25857377
6.001957,4.6422005,0.0066932263,-0.011118591,0.2260363,3.193865,-8.839393,-0.21068975
6.002083,4.642277,0.0066932263,-0.011118591,0.2260363,3.193865,-8.839393,-0.21068975
6.0021954,4.642361,0.024802722,-0.021771235,0.22070996,3.2034419,-8.868123,-0.2873042
6.002309,4.6424456,0.024802722,-0.021771235,0.22070996,3.2034419,-8.868123,-0.2873042
6.0024204,4.6425467,0.043977484,-0.035619672,0.21644892,3.1603463,-8.887277,-0.29209262
6.002533,4.6426487,0.043977484,-0.035619672,0.21644892,3.1603463,-8.887277,-0.29209262
6.002644,4.6427693,0.06315224,-0.048402846,0.21005733,3.1364043,-8.882488,-0.2633622
6.0027556,4.6428905,0.06315224,-0.048402846,0.21005733,3.1364043,-8.882488,-0.2633622
6.0028653,4.6430306,0.08445753,-0.06118602,0.20579627,3.1268275,-8.939949,-0.2681506
6.0029764,4.6431723,0.08445753,-0.06118602,0.20579627,3.1268275,-8.939949,-0.2681506
6.003088,4.6433315,0.104697555,-0.07396919,0.20153521,3.145981,-8.987833,-0.21547815
6.0032005,4.6434927,0.104697555,-0.07396919,0.20153521,3.145981,-8.987833,-0.21547815
6.003313,4.643674,0.1270681,-0.08675237,0.19833942,3.1364043,-8.987833,-0.19632454
6.003426,4.643855,0.1270681,-0.08675237,0.19833942,3.1364043,-8.987833,-0.19632454
6.003544,4.6440578,0.14730814,-0.10060081,0.19407836,3.1172507,-9.078813,-0.16280572
6.003661,4.64426,0.14730814,-0.10060081,0.19407836,3.1172507,-9.078813,-0.16280572
6.003767,4.6444726,0.16754816,-0.11338398,0.19194783,3.1268275,-9.030929,-0.22505496
6.0038724,4.644685,0.16754816,-0.11338398,0.19194783,3.1268275,-9.030929,-0.22505496
6.003982,4.6449137,0.1845924,-0.1251019,0.19088256,3.1124623,-9.093178,-0.21547815
6.004091,4.645141,0.1845924,-0.1251019,0.19088256,3.1124623,-9.093178,-0.21547815
6.0042048,4.645387,0.20163663,-0.1368198,0.19194783,3.0597897,-9.14585,-0.25857377
6.004316,4.645629,0.20163663,-0.1368198,0.19194783,3.0597897,-9.14585,-0.25857377
6.004435,4.645888,0.21548507,-0.14640717,0.19088256,3.016694,-9.14585,-0.23942018
6.004554,4.646147,0.21548507,-0.14640717,0.19088256,3.016694,-9.14585,-0.23942018
6.004665,4.6464095,0.22720297,-0.15599456,0.19088256,3.0071173,-9.160215,-0.30166942
6.0047755,4.6466722,0.22720297,-0.15599456,0.19088256,3.0071173,-9.160215,-0.30166942
6.0048637,4.6469197,0.23572509,-0.16558194,0.1930131,3.0023289,-9.141062,-0.4261679
6.0049524,4.64717,0.23572509,-0.16558194,0.1930131,3.0023289,-9.141062,-0.4261679
6.0050592,4.647438,0.24318193,-0.17197353,0.1962089,2.9879637,-9.126697,-0.35434186
6.005167,4.64771,0.24318193,-0.17197353,0.1962089,2.9879637,-9.126697,-0.35434186
6.0052514,4.6479535,0.24850826,-0.17729984,0.19727415,3.0023289,-9.112331,-0.44532153
6.005336,4.648199,0.24850826,-0.17729984,0.19727415,3.0023289,-9.112331,-0.44532153
6.005418,4.648442,0.25170404,-0.1815609,0.19940469,2.954445,-9.088389,-0.49320555
6.0054975,4.6486783,0.25170404,-0.1815609,0.19940469,2.954445,-9.088389,-0.49320555
6.005582,4.6489215,0.25383458,-0.18369143,0.20260048,2.9975405,-9.102755,-0.47884035
6.005665,4.6491594,0.25383458,-0.18369143,0.20260048,2.9975405,-9.102755,-0.47884035
6.0057445,4.6493945,0.25703037,-0.1847567,0.20260048,2.9400797,-9.069236,-0.50757074
6.005824,4.6496296,0.25703037,-0.1847567,0.20260048,2.9400797,-9.069236,-0.50757074
6.005898,4.649843,0.25703037,-0.18582197,0.20153521,2.9879637,-9.059659,-0.5554548
6.005971,4.6500554,0.25703037,-0.18582197,0.20153521,2.9879637,-9.059659,-0.5554548
6.006046,4.650263,0.2559651,-0.18369143,0.20366573,2.992752,-9.069236,-0.5650316
6.00612,4.65047,0.2559651,-0.18369143,0.20366573,2.992752,-9.069236,-0.5650316
6.0061946,4.650671,0.25489986,-0.1815609,0.20366573,2.954445,-9.059659,-0.5746084
6.0062695,4.650872,0.25489986,-0.1815609,0.20366573,2.954445,-9.059659,-0.5746084
6.0063424,4.6510544,0.25276932,-0.17943038,0.19940469,2.992752,-9.069236,-0.62249243
6.0064154,4.651236,0.25276932,-0.17943038,0.19940469,2.992752,-9.069236,-0.62249243
6.006489,4.651409,0.24850826,-0.17623459,0.19833942,2.9879637,-9.069236,-0.6368576
6.0065627,4.651582,0.24850826,-0.17623459,0.19833942,2.9879637,-9.069236,-0.6368576
6.0066338,4.6517525,0.24637774,-0.17090826,0.1962089,3.0310593,-9.045294,-0.6464345
6.0067053,4.651922,0.24637774,-0.17090826,0.1962089,3.0310593,-9.045294,-0.6464345
6.006786,4.6520696,0.24318193,-0.16451667,0.1930131,2.96881,-9.083601,-0.7038953
6.0068665,4.6522164,0.24318193,-0.16451667,0.1930131,2.96881,-9.083601,-0.7038953
6.006939,4.652366,0.23892088,-0.15812509,0.18875204,2.9592333,-9.093178,-0.6799533
6.0070114,4.6525154,0.23892088,-0.15812509,0.18875204,2.9592333,-9.093178,-0.6799533
6.007083,4.6526556,0.2325293,-0.14853771,0.18449098,2.9783869,-9.11712,-0.7038953
6.007154,4.652796,0.2325293,-0.14853771,0.18449098,2.9783869,-9.11712,-0.7038953
6.007223,4.6529303,0.2261377,-0.13895033,0.18129519,2.9400797,-9.097966,-0.6943185
6.0072923,4.6530647,0.2261377,-0.13895033,0.18129519,2.9400797,-9.097966,-0.6943185
6.0073786,4.6531777,0.21868086,-0.12723242,0.18022992,2.9352913,-9.102755,-0.7757214
6.007465,4.65329,0.21868086,-0.12723242,0.18022992,2.9352913,-9.102755,-0.7757214
6.007545,4.653399,0.21015874,-0.11551451,0.1780994,2.9113493,-9.131485,-0.7422025
6.0076256,4.6535087,0.21015874,-0.11551451,0.1780994,2.9113493,-9.131485,-0.7422025
6.0077124,4.653605,0.20057136,-0.1037966,0.17596887,2.9113493,-9.107543,-0.78529817
6.007799,4.653702,0.20057136,-0.1037966,0.17596887,2.9113493,-9.107543,-0.78529817
6.007872,4.6538005,0.18672292,-0.08781763,0.1780994,2.9017725,-9.112331,-0.7134721
6.007945,4.653899,0.18672292,-0.08781763,0.1780994,2.9017725,-9.112331,-0.7134721
6.0080385,4.653979,0.17180921,-0.0707734,0.1780994,2.896984,-9.11712,-0.78050977
6.008123,4.654051,0.17180921,-0.0707734,0.1780994,2.896984,-9.11712,-0.78050977
6.0082045,4.654122,0.15902604,-0.054794434,0.1780994,2.882619,-9.069236,-0.7517793
6.008289,4.654196,0.15902604,-0.054794434,0.1780994,2.882619,-9.069236,-0.7517793
6.008377,4.654251,0.14411235,-0.037750203,0.17916466,2.930503,-9.107543,-0.81402856
6.0084653,4.654308,0.14411235,-0.037750203,0.17916466,2.930503,-9.107543,-0.81402856
6.0085506,4.654357,0.12813337,-0.020705972,0.18236046,2.9113493,-9.112331,-0.770933
6.008636,4.6544065,0.12813337,-0.020705972,0.18236046,2.9113493,-9.112331,-0.770933
6.0087147,4.6544485,0.11215441,-0.0015312112,0.18129519,2.930503,-9.093178,-0.7661445
6.0087934,4.6544905,0.11215441,-0.0015312112,0.18129519,2.930503,-9.093178,-0.7661445
6.008872,4.65452,0.09511018,0.016578285,0.18129519,2.930503,-9.11712,-0.7661445
6.00895,4.6545496,0.09511018,0.016578285,0.18129519,2.930503,-9.11712,-0.7661445
6.009024,4.654572,0.07806595,0.031491987,0.18342571,2.906561,-9.11712,-0.7230489
6.009097,4.654594,0.07806595,0.031491987,0.18342571,2.906561,-9.11712,-0.7230489
6.00917,4.6546035,0.062086977,0.045340426,0.18342571,2.9496565,-9.102755,-0.7517793
6.009243,4.6546135,0.062086977,0.045340426,0.18342571,2.9496565,-9.102755,-0.7517793
6.0093093,4.654617,0.047173277,0.0581236,0.18342571,2.920926,-9.155427,-0.7038953
6.0093756,4.654621,0.047173277,0.0581236,0.18342571,2.920926,-9.155427,-0.7038953
6.009448,4.6546097,0.033324838,0.06877624,0.18555625,2.9257145,-9.155427,-0.7278373
6.0095205,4.654598,0.033324838,0.06877624,0.18555625,2.9257145,-9.155427,-0.7278373
6.009581,4.654589,0.020541664,0.07836362,0.1866215,2.992752,-9.141062,-0.7038953
6.0096416,4.6545806,0.020541664,0.07836362,0.1866215,2.992752,-9.141062,-0.7038953
6.0096955,4.654579,0.00988902,0.086885735,0.18981731,2.9783869,-9.11712,-0.641646
6.009749,4.6545777,0.00988902,0.086885735,0.18981731,2.9783869,-9.11712,-0.641646
6.0098014,4.654574,0.00030163955,0.09540785,0.19194783,2.944868,-9.126697,-0.61770403
6.0098543,4.65457,0.00030163955,0.09540785,0.19194783,2.944868,-9.126697,-0.61770403
6.0099154,4.654547,-0.009285741,0.10179944,0.19407836,2.9496565,-9.136273,-0.6560113
6.009976,4.654524,-0.009285741,0.10179944,0.19407836,2.9496565,-9.136273,-0.6560113
6.0100365,4.654501,-0.017807856,0.10712577,0.19833942,3.0071173,-9.050082,-0.6512229
6.010097,4.6544776,-0.017807856,0.10712577,0.19833942,3.0071173,-9.050082,-0.6512229
6.0101557,4.654463,-0.025264706,0.11245208,0.20260048,3.0119057,-9.074024,-0.60333884
6.010215,4.654448,-0.025264706,0.11245208,0.20260048,3.0119057,-9.074024,-0.60333884
6.010275,4.654456,-0.031656295,0.11458261,0.20686153,3.040636,-9.030929,-0.50757074
6.0103354,4.6544647,-0.031656295,0.11458261,0.20686153,3.040636,-9.030929,-0.50757074
6.0104012,4.6544666,-0.035917353,0.117778406,0.21325313,2.9975405,-9.054871,-0.521936
6.0104012,4.6544666,-0.035917353,0.117778406,0.21325313,2.9975405,-9.054871,-0.521936
6.0104012,4.6544666,-0.041243672,0.12203947,0.21964471,3.0454245,-9.054871,-0.5363012
6.010622,4.654445,-0.041243672,0.12203947,0.21964471,3.0454245,-9.054871,-0.5363012
6.0106983,4.6544275,-0.046569996,0.12417,0.22497103,3.0071173,-9.074024,-0.5554548
6.0107775,4.65441,-0.046569996,0.12417,0.22497103,3.0071173,-9.074024,-0.5554548
6.01087,4.6543837,-0.05189632,0.12736578,0.22923209,3.0071173,-9.102755,-0.5602432
6.0109386,4.6543646,-0.05189632,0.12736578,0.22923209,3.0071173,-9.102755,-0.5602432
6.0110254,4.654344,-0.057222642,0.12630053,0.23668894,3.0262709,-9.078813,-0.5363012
6.0111146,4.654323,-0.057222642,0.12630053,0.23668894,3.0262709,-9.078813,-0.5363012
6.0112143,4.654287,-0.06361423,0.12736578,0.24627632,3.0071173,-9.064447,-0.5650316
6.011313,4.654251,-0.06361423,0.12736578,0.24627632,3.0071173,-9.064447,-0.5650316
6.0114255,4.654193,-0.07000581,0.12736578,0.2558637,3.0119057,-9.078813,-0.61770403
6.011538,4.654135,-0.07000581,0.12736578,0.2558637,3.0119057,-9.078813,-0.61770403
6.011653,4.654098,-0.076397404,0.12736578,0.26332054,2.9975405,-9.088389,-0.5315128
6.011768,4.6540613,-0.076397404,0.12736578,0.26332054,2.9975405,-9.088389,-0.5315128
6.0118947,4.654015,-0.08491952,0.12630053,0.2739732,3.0262709,-9.102755,-0.5315128
6.012021,4.6539702,-0.08491952,0.12630053,0.2739732,3.0262709,-9.102755,-0.5315128
6.0121603,4.6539297,-0.0945069,0.12523526,0.28462583,3.0119057,-9.088389,-0.48362875
6.0122995,4.653889,-0.0945069,0.12523526,0.28462583,3.0119057,-9.088389,-0.48362875
6.01245,4.653793,-0.10302901,0.12523526,0.29314795,3.0597897,-9.102755,-0.6560113
6.0126014,4.653696,-0.10302901,0.12523526,0.29314795,3.0597897,-9.102755,-0.6560113
6.0127563,4.6536193,-0.11155113,0.12417,0.30167007,3.040636,-9.035717,-0.545878
6.0129066,4.6535444,-0.11155113,0.12417,0.30167007,3.040636,-9.035717,-0.545878
6.0130672,4.6534495,-0.121138506,0.12523526,0.30806166,3.083732,-8.992621,-0.58418524
6.0132318,4.6533523,-0.121138506,0.12523526,0.30806166,3.083732,-8.992621,-0.58418524
6.013406,4.6532254,-0.13179116,0.12523526,0.3155185,3.0885203,-8.973468,-0.6751649
6.013579,4.6530995,-0.13179116,0.12523526,0.3155185,3.0885203,-8.973468,-0.6751649
6.0137587,4.6529803,-0.14244379,0.12523526,0.32404062,3.0693667,-9.035717,-0.59376204
6.0139456,4.6528563,-0.14244379,0.12523526,0.32404062,3.0693667,-9.035717,-0.59376204
6.0141244,4.6527224,-0.15309644,0.12630053,0.3304322,3.083732,-9.040505,-0.641646
6.014307,4.6525865,-0.15309644,0.12630053,0.3304322,3.083732,-9.040505,-0.641646
6.0145,4.6524334,-0.16268381,0.12630053,0.3368238,3.074155,-9.059659,-0.6655881
6.014694,4.6522803,-0.16268381,0.12630053,0.3368238,3.074155,-9.059659,-0.6655881
6.014894,4.6521196,-0.17440173,0.12630053,0.34428066,3.0262709,-9.050082,-0.641646
6.0150933,4.6519594,-0.17440173,0.12630053,0.34428066,3.0262709,-9.050082,-0.641646
6.0152984,4.6517925,-0.18398911,0.12736578,0.35067225,3.0071173,-9.078813,-0.63206923
6.0155025,4.6516266,-0.18398911,0.12736578,0.35067225,3.0071173,-9.078813,-0.63206923
6.0157123,4.651458,-0.19464175,0.12843105,0.35599855,3.0119057,-9.14585,-0.60333884
6.0159187,4.6512923,-0.19464175,0.12843105,0.35599855,3.0119057,-9.14585,-0.60333884
6.0161324,4.6511183,-0.20316388,0.12949632,0.36132488,2.9831753,-9.165004,-0.59855044
6.016347,4.6509433,-0.20316388,0.12949632,0.36132488,2.9831753,-9.165004,-0.59855044
6.0165668,4.6507626,-0.21168599,0.12949632,0.36771646,3.0023289,-9.246407,-0.60333884
6.016786,4.650582,-0.21168599,0.12949632,0.36771646,3.0023289,-9.246407,-0.60333884
6.0170097,4.650401,-0.21914284,0.12949632,0.37410805,2.9113493,-9.284714,-0.58418524
6.0172367,4.6502194,-0.21914284,0.12949632,0.37410805,2.9113493,-9.284714,-0.58418524
6.0174694,4.650012,-0.2234039,0.13056158,0.37836912,2.9017725,-9.289502,-0.6464345
6.017703,4.649804,-0.2234039,0.13056158,0.37836912,2.9017725,-9.289502,-0.6464345
6.0179453,4.649584,-0.22873022,0.12949632,0.3847607,2.834735,-9.284714,-0.6512229
6.018188,4.6493645,-0.22873022,0.12949632,0.3847607,2.834735,-9.284714,-0.6512229
6.018427,4.649184,-0.2351218,0.12843105,0.3879565,2.7964275,-9.303867,-0.5650316
6.0186696,4.649002,-0.2351218,0.12843105,0.3879565,2.7964275,-9.303867,-0.5650316
6.0189223,4.648842,-0.23938286,0.12523526,0.3911523,2.801216,-9.361329,-0.521936
6.0191746,4.6486826,-0.23938286,0.12523526,0.3911523,2.801216,-9.361329,-0.521936
6.019441,4.64853,-0.24151339,0.12203947,0.39434808,2.8107927,-9.380483,-0.49320555
6.0197053,4.648379,-0.24151339,0.12203947,0.39434808,2.8107927,-9.380483,-0.49320555
6.0199933,4.648242,-0.24364392,0.118843675,0.3964786,2.7485435,-9.414001,-0.47405192
6.020277,4.648106,-0.24364392,0.118843675,0.3964786,2.7485435,-9.414001,-0.47405192
6.0205946,4.6479836,-0.24470918,0.116713144,0.39860913,2.777274,-9.437943,-0.35913026
6.020908,4.6478615,-0.24470918,0.116713144,0.39860913,2.777274,-9.437943,-0.35913026
6.021224,4.6477404,-0.24257866,0.11245208,0.40073967,2.7341783,-9.457097,-0.41180268
6.0215383,4.6476197,-0.24257866,0.11245208,0.40073967,2.7341783,-9.457097,-0.41180268
6.021843,4.6474915,-0.23938286,0.10712577,0.3996744,2.7820623,-9.524135,-0.4357447
6.022141,4.647365,-0.23938286,0.10712577,0.3996744,2.7820623,-9.524135,-0.4357447
6.022473,4.647254,-0.23618707,0.102864705,0.39754388,2.7006595,-9.576807,-0.4261679
6.022799,4.6471434,-0.23618707,0.102864705,0.39754388,2.7006595,-9.576807,-0.4261679
6.023147,4.647038,-0.23299128,0.09753838,0.39860913,2.6719291,-9.615114,-0.4165911
6.023489,4.646934,-0.23299128,0.09753838,0.39860913,2.6719291,-9.615114,-0.4165911
6.02386,4.646836,-0.22979549,0.09221206,0.39754388,2.6144683,-9.65821,-0.4213795
6.0242286,4.646738,-0.22979549,0.09221206,0.39754388,2.6144683,-9.65821,-0.4213795
6.024595,4.6466417,-0.22553442,0.08475521,0.39541334,2.6048915,-9.696517,-0.51235914
6.0249553,4.6465454,-0.22553442,0.08475521,0.39541334,2.6048915,-9.696517,-0.51235914
6.025341,4.646454,-0.22020811,0.0762331,0.39434808,2.5809495,-9.730036,-0.4405331
6.0257225,4.6463623,-0.22020811,0.0762331,0.39434808,2.5809495,-9.730036,-0.4405331
6.0261126,4.646275,-0.21381652,0.06664571,0.3879565,2.566584,-9.821015,-0.4213795
6.0265045,4.6461864,-0.21381652,0.06664571,0.3879565,2.566584,-9.821015,-0.4213795
6.0268784,4.646105,-0.2052944,0.057058334,0.38156492,2.5713725,-9.782708,-0.41180268
6.027252,4.6460233,-0.2052944,0.057058334,0.38156492,2.5713725,-9.782708,-0.41180268
6.027605,4.645948,-0.19464175,0.047470953,0.37410805,2.6048915,-9.80665,-0.46447513
6.0279546,4.645873,-0.19464175,0.047470953,0.37410805,2.6048915,-9.80665,-0.46447513
6.0283284,4.645807,-0.18398911,0.037883572,0.3634554,2.542642,-9.835381,-0.46447513
6.028699,4.6457405,-0.18398911,0.037883572,0.3634554,2.542642,-9.835381,-0.46447513
6.0290513,4.645684,-0.1722712,0.028296193,0.3517375,2.5474305,-9.797073,-0.51714754
6.029401,4.645627,-0.1722712,0.028296193,0.3517375,2.5474305,-9.797073,-0.51714754
6.02972,4.6455812,-0.1573575,0.017643549,0.33788908,2.566584,-9.801862,-0.5410896
6.030036,4.645535,-0.1573575,0.017643549,0.33788908,2.566584,-9.801862,-0.5410896
6.0302954,4.6454897,-0.14350906,0.0069909045,0.32191008,2.585738,-9.758766,-0.5746084
6.030552,4.645444,-0.14350906,0.0069909045,0.32191008,2.585738,-9.758766,-0.5746084
6.030736,4.645368,-0.12859535,-0.0047270046,0.30593112,2.6384103,-9.710882,-0.60333884
6.0309196,4.6452923,-0.12859535,-0.0047270046,0.30593112,2.6384103,-9.710882,-0.60333884
6.0310755,4.645212,-0.11155113,-0.014314385,0.2888869,2.657564,-9.682152,-0.61770403
6.031232,4.645132,-0.11155113,-0.014314385,0.2888869,2.657564,-9.682152,-0.61770403
6.031365,4.645048,-0.0945069,-0.02496703,0.2707774,2.6048915,-9.662998,-0.641646
6.031498,4.6449647,-0.0945069,-0.02496703,0.2707774,2.6048915,-9.662998,-0.641646
6.031613,4.644861,-0.07852793,-0.033489145,0.25053737,2.6910827,-9.629479,-0.6799533
6.0317273,4.644758,-0.07852793,-0.033489145,0.25053737,2.6910827,-9.629479,-0.6799533
6.031828,4.6446533,-0.062548965,-0.04201126,0.23029736,2.6862943,-9.619903,-0.7038953
6.031927,4.6445503,-0.062548965,-0.04201126,0.23029736,2.6862943,-9.619903,-0.7038953
6.032004,4.6444726,-0.04763526,-0.048402846,0.21112259,2.7102363,-9.557653,-0.6847417
6.0320797,4.644397,-0.04763526,-0.048402846,0.21112259,2.7102363,-9.557653,-0.6847417
6.0321712,4.644282,-0.031656295,-0.0558597,0.19088256,2.695871,-9.548077,-0.80445176
6.0322614,4.64417,-0.031656295,-0.0558597,0.19088256,2.695871,-9.548077,-0.80445176
6.032332,4.6440697,-0.018873122,-0.06118602,0.17383833,2.6384103,-9.5385,-0.7613561
6.032401,4.6439724,-0.018873122,-0.06118602,0.17383833,2.6384103,-9.5385,-0.7613561
6.0324655,4.6438775,-0.0050246827,-0.06544708,0.1567941,2.633622,-9.504981,-0.79008657
6.0325284,4.643784,-0.0050246827,-0.06544708,0.1567941,2.633622,-9.504981,-0.79008657
6.0325813,4.6436954,0.0077584907,-0.06970814,0.13761935,2.6623523,-9.442732,-0.8475474
6.0326333,4.6436076,0.0077584907,-0.06970814,0.13761935,2.6623523,-9.442732,-0.8475474
6.032663,4.6435313,0.017345872,-0.07396919,0.119509846,2.695871,-9.44752,-0.8571242
6.032692,4.643455,0.017345872,-0.07396919,0.119509846,2.695871,-9.44752,-0.8571242
6.032728,4.643376,0.025867987,-0.077164985,0.10779194,2.705448,-9.452309,-0.94810385
6.032764,4.643296,0.025867987,-0.077164985,0.10779194,2.705448,-9.452309,-0.94810385
6.032772,4.6432333,0.034390103,-0.079295516,0.09500877,2.7150247,-9.44752,-0.8858546
6.0327797,4.64317,0.034390103,-0.079295516,0.09500877,2.7150247,-9.44752,-0.8858546
6.0327806,4.643111,0.041846953,-0.08036078,0.08329086,2.6479871,-9.399636,-0.8571242
6.0327816,4.643052,0.041846953,-0.08036078,0.08329086,2.6479871,-9.399636,-0.8571242
6.0327816,4.6429977,0.04823854,-0.079295516,0.07689927,2.6527755,-9.433155,-0.8762778
6.0327806,4.6429424,0.04823854,-0.079295516,0.07689927,2.6527755,-9.433155,-0.8762778
6.03278,4.6428905,0.054630127,-0.079295516,0.06944242,2.6719291,-9.433155,-0.92895025
6.0327797,4.642838,0.054630127,-0.079295516,0.06944242,2.6719291,-9.433155,-0.92895025
6.032766,4.6427956,0.061021715,-0.079295516,0.0641161,2.695871,-9.423578,-0.91937345
6.0327525,4.642753,0.061021715,-0.079295516,0.0641161,2.695871,-9.423578,-0.91937345
6.032749,4.642711,0.0674133,-0.079295516,0.0609203,2.6288335,-9.452309,-0.90500826
6.032746,4.6426687,0.0674133,-0.079295516,0.0609203,2.6288335,-9.452309,-0.90500826
6.032725,4.6426406,0.074870154,-0.077164985,0.056659244,2.6910827,-9.442732,-0.91458505
6.0327044,4.6426125,0.074870154,-0.077164985,0.056659244,2.6910827,-9.442732,-0.91458505
6.032682,4.642591,0.082327,-0.077164985,0.05346345,2.6623523,-9.404425,-0.90021986
6.0326595,4.6425695,0.082327,-0.077164985,0.05346345,2.6623523,-9.404425,-0.90021986
6.032651,4.642547,0.08871859,-0.078230254,0.052398186,2.6431987,-9.394848,-0.9528923
6.032642,4.6425247,0.08871859,-0.078230254,0.052398186,2.6431987,-9.394848,-0.9528923
6.0326138,4.6425214,0.09511018,-0.077164985,0.05772451,2.6767175,-9.380483,-0.8762778
6.032586,4.642518,0.09511018,-0.077164985,0.05772451,2.6767175,-9.380483,-0.8762778
6.0325594,4.642524,0.10150176,-0.077164985,0.06305083,2.695871,-9.399636,-0.8714894
6.0325327,4.6425295,0.10150176,-0.077164985,0.06305083,2.695871,-9.399636,-0.8714894
6.0325,4.6425433,0.106828086,-0.078230254,0.0609203,2.7246015,-9.337387,-0.8810662
6.032467,4.642557,0.106828086,-0.078230254,0.0609203,2.7246015,-9.337387,-0.8810662
6.032415,4.6425934,0.11215441,-0.077164985,0.0609203,2.7246015,-9.3421755,-0.79966336
6.0323625,4.6426296,0.11215441,-0.077164985,0.0609203,2.7246015,-9.3421755,-0.79966336
6.0323253,4.642658,0.11748073,-0.07609972,0.061985567,2.7485435,-9.303867,-0.8762778
6.0322886,4.642687,0.11748073,-0.07609972,0.061985567,2.7485435,-9.303867,-0.8762778
6.03225,4.6427207,0.120676525,-0.07503446,0.06305083,2.753332,-9.275137,-0.8714894
6.0322123,4.642754,0.120676525,-0.07503446,0.06305083,2.753332,-9.275137,-0.8714894
6.032173,4.642792,0.122807056,-0.07396919,0.06518136,2.7485435,-9.232041,-0.8571242
6.032134,4.642831,0.122807056,-0.07396919,0.06518136,2.7485435,-9.232041,-0.8571242
6.032091,4.6428776,0.12493758,-0.07396919,0.06731189,2.7485435,-9.212888,-0.8283938
6.0320487,4.642924,0.12493758,-0.07396919,0.06731189,2.7485435,-9.212888,-0.8283938
6.0320263,4.642956,0.12600285,-0.07290393,0.06837715,2.6910827,-9.217676,-0.8810662
6.0320044,4.6429873,0.12600285,-0.07290393,0.06837715,2.6910827,-9.217676,-0.8810662
6.0319767,4.6430235,0.12600285,-0.0707734,0.06944242,2.7389667,-9.188946,-0.8858546
6.0319486,4.6430607,0.12600285,-0.0707734,0.06944242,2.7389667,-9.188946,-0.8858546
6.031922,4.643096,0.1270681,-0.06970814,0.06731189,2.72939,-9.160215,-0.90021986
6.0318956,4.6431313,0.1270681,-0.06970814,0.06731189,2.72939,-9.160215,-0.90021986
6.0318785,4.6431594,0.1270681,-0.06970814,0.06624663,2.7389667,-9.136273,-0.9672575
6.031861,4.643188,0.1270681,-0.06970814,0.06624663,2.7389667,-9.136273,-0.9672575
6.031861,4.643188,0.1270681,-0.06970814,0.06624663,2.7389667,-9.136273,-0.9672575
6.0318284,4.6432447,0.1270681,-0.06970814,0.06624663,2.72939,-9.102755,-0.9720459
6.031812,4.643272,0.12813337,-0.06970814,0.06518136,2.777274,-9.083601,-1.0199299
6.0317955,4.643301,0.12813337,-0.06970814,0.06518136,2.777274,-9.083601,-1.0199299
6.0317955,4.643301,0.12813337,-0.06970814,0.06518136,2.777274,-9.083601,-1.0199299
6.031789,4.643342,0.1270681,-0.06970814,0.06624663,2.7581203,-9.074024,-1.0965444
6.0317864,4.643364,0.1270681,-0.06970814,0.06837715,2.7485435,-9.069236,-1.0773908
6.031784,4.6433854,0.1270681,-0.06970814,0.06837715,2.7485435,-9.069236,-1.0773908
6.0317845,4.643404,0.12600285,-0.0707734,0.06944242,2.7964275,-9.030929,-1.1540052
6.031785,4.6434236,0.12600285,-0.0707734,0.06944242,2.7964275,-9.030929,-1.1540052
6.0317793,4.643447,0.1270681,-0.0707734,0.06944242,2.777274,-8.954314,-1.091756
6.0317736,4.64347,0.1270681,-0.0707734,0.06944242,2.777274,-8.954314,-1.091756
6.0317655,4.643495,0.1270681,-0.06970814,0.07050768,2.7964275,-8.949526,-1.0869676
6.031758,4.64352,0.1270681,-0.06970814,0.07050768,2.7964275,-8.949526,-1.0869676
6.0317616,4.6435413,0.1270681,-0.06757761,0.073703475,2.801216,-8.978256,-1.163582
6.0317655,4.6435623,0.1270681,-0.06757761,0.073703475,2.801216,-8.978256,-1.163582
6.0317698,4.6435857,0.1270681,-0.066512346,0.07689927,2.8060043,-8.882488,-1.1587936
6.0317736,4.6436086,0.1270681,-0.066512346,0.07689927,2.8060043,-8.882488,-1.1587936
6.031777,4.6436357,0.12813337,-0.064381815,0.08116033,2.767697,-8.887277,-1.0773908
6.0317802,4.643663,0.12813337,-0.064381815,0.08116033,2.767697,-8.887277,-1.0773908
6.031794,4.643689,0.12919864,-0.06118602,0.08542138,2.743755,-8.882488,-1.1061212
6.031808,4.643715,0.12919864,-0.06118602,0.08542138,2.743755,-8.882488,-1.1061212
6.0318246,4.643746,0.13132916,-0.057990227,0.09181297,2.7246015,-8.896853,-1.0582372
6.0318418,4.6437764,0.13132916,-0.057990227,0.09181297,2.7246015,-8.896853,-1.0582372
6.0318704,4.6438084,0.13239443,-0.05372917,0.10140035,2.7389667,-8.90643,-1.091756
6.031899,4.64384,0.13239443,-0.05372917,0.10140035,2.7389667,-8.90643,-1.091756
6.0319495,4.643871,0.13452496,-0.04946811,0.112053,2.6767175,-8.939949,-1.1109096
6.032,4.643902,0.13452496,-0.04946811,0.112053,2.6767175,-8.939949,-1.1109096
6.0320535,4.643935,0.1334597,-0.045207053,0.12164038,2.7006595,-8.983045,-1.0726024
6.0321064,4.6439686,0.1334597,-0.045207053,0.12164038,2.7006595,-8.983045,-1.0726024
6.0321813,4.6439967,0.13132916,-0.040945996,0.13229302,2.6431987,-9.006987,-1.091756
6.0322556,4.644025,0.13132916,-0.040945996,0.13229302,2.6431987,-9.006987,-1.091756
6.0323443,4.644053,0.13132916,-0.037750203,0.14294566,2.6384103,-9.050082,-1.1109096
6.0324335,4.644081,0.13132916,-0.037750203,0.14294566,2.6384103,-9.050082,-1.1109096
6.032542,4.644106,0.12919864,-0.03455441,0.15466358,2.5809495,-9.102755,-1.0773908
6.032651,4.644131,0.12919864,-0.03455441,0.15466358,2.5809495,-9.102755,-1.0773908
6.0327587,4.6441584,0.1270681,-0.03242388,0.16638148,2.60968,-9.14585,-1.0055647
6.0328674,4.644186,0.1270681,-0.03242388,0.16638148,2.60968,-9.14585,-1.0055647
6.0329995,4.64421,0.12600285,-0.030293351,0.18022992,2.5713725,-9.150639,-1.0342951
6.033132,4.6442337,0.12600285,-0.030293351,0.18022992,2.5713725,-9.150639,-1.0342951
6.033293,4.6442523,0.12387232,-0.030293351,0.19194783,2.4995465,-9.188946,-1.0342951
6.033448,4.64427,0.12387232,-0.030293351,0.19194783,2.4995465,-9.188946,-1.0342951
6.0336065,4.64429,0.122807056,-0.030293351,0.19940469,2.504335,-9.208099,-0.94331545
6.03377,4.6443105,0.122807056,-0.030293351,0.19940469,2.504335,-9.208099,-0.94331545
6.0339365,4.644329,0.122807056,-0.031358615,0.204731,2.5330653,-9.255983,-1.0151415
6.0341024,4.644348,0.122807056,-0.031358615,0.204731,2.5330653,-9.255983,-1.0151415
6.0342674,4.644369,0.12387232,-0.03242388,0.2079268,2.5474305,-9.275137,-0.9959879
6.034432,4.64439,0.12387232,-0.03242388,0.2079268,2.5474305,-9.275137,-0.9959879
6.0345907,4.644415,0.12600285,-0.03455441,0.21112259,2.552219,-9.284714,-0.93852705
6.0347495,4.6444397,0.12600285,-0.03455441,0.21112259,2.552219,-9.284714,-0.93852705
6.034916,4.6444635,0.1270681,-0.035619672,0.21005733,2.5139117,-9.260772,-0.94331545
6.0350823,4.6444874,0.1270681,-0.035619672,0.21005733,2.5139117,-9.260772,-0.94331545
6.03524,4.6445136,0.12813337,-0.035619672,0.2079268,2.528277,-9.275137,-0.92416185
6.0353975,4.64454,0.12813337,-0.035619672,0.2079268,2.528277,-9.275137,-0.92416185
6.0355396,4.644573,0.13132916,-0.035619672,0.204731,2.566584,-9.308656,-0.90500826
6.0356817,4.644607,0.13132916,-0.035619672,0.204731,2.566584,-9.308656,-0.90500826
6.035805,4.6446486,0.13559023,-0.03881547,0.19727415,2.5378537,-9.284714,-0.8283938
6.0359282,4.6446905,0.13559023,-0.03881547,0.19727415,2.5378537,-9.284714,-0.8283938
6.036042,4.644737,0.13985129,-0.040945996,0.18875204,2.5187001,-9.26556,-0.80924016
6.0361557,4.644783,0.13985129,-0.040945996,0.18875204,2.5187001,-9.26556,-0.80924016
6.0362644,4.64483,0.14411235,-0.04201126,0.17703412,2.5234885,-9.270349,-0.8379706
6.0363727,4.6448774,0.14411235,-0.04201126,0.17703412,2.5234885,-9.270349,-0.8379706
6.0364704,4.644926,0.1483734,-0.043076526,0.16212043,2.4947581,-9.294291,-0.81402856
6.0365667,4.644975,0.1483734,-0.043076526,0.16212043,2.4947581,-9.294291,-0.81402856
6.036659,4.6450257,0.15263446,-0.044141788,0.148272,2.4899697,-9.3421755,-0.82360536
6.036752,4.645077,0.15263446,-0.044141788,0.148272,2.4899697,-9.3421755,-0.82360536
6.036841,4.645129,0.15689552,-0.047337584,0.13548881,2.480393,-9.32781,-0.8523358
6.0369267,4.645179,0.15689552,-0.047337584,0.13548881,2.480393,-9.32781,-0.8523358
6.036993,4.6452346,0.16115656,-0.050533377,0.120575115,2.5139117,-9.390059,-0.8571242
6.037059,4.6452904,0.16115656,-0.050533377,0.120575115,2.5139117,-9.390059,-0.8571242
6.037131,4.6453447,0.16541763,-0.05372917,0.10779194,2.4899697,-9.442732,-0.89064306
6.0372024,4.6453996,0.16541763,-0.05372917,0.10779194,2.4899697,-9.442732,-0.89064306
6.0372586,4.64546,0.17074396,-0.05372917,0.0939435,2.4756045,-9.44752,-0.8475474
6.0373144,4.64552,0.17074396,-0.05372917,0.0939435,2.4756045,-9.44752,-0.8475474
6.0373697,4.6455812,0.175005,-0.0558597,0.08009506,2.456451,-9.44752,-0.89064306
6.0374255,4.6456428,0.175005,-0.0558597,0.08009506,2.456451,-9.44752,-0.89064306
6.0374765,4.645708,0.17926607,-0.0558597,0.06731189,2.4420857,-9.519346,-0.8475474
6.037526,4.645772,0.17926607,-0.0558597,0.06731189,2.4420857,-9.519346,-0.8475474
6.037579,4.645841,0.18565765,-0.054794434,0.055593982,2.4133554,-9.543288,-0.8523358
6.037633,4.645912,0.18565765,-0.054794434,0.055593982,2.4133554,-9.543288,-0.8523358
6.0376544,4.6459894,0.19098398,-0.054794434,0.047071867,2.4420857,-9.495404,-0.80924016
6.037676,4.6460667,0.19098398,-0.054794434,0.047071867,2.4420857,-9.495404,-0.80924016
6.03769,4.6461496,0.1963103,-0.052663904,0.039615013,2.4372973,-9.557653,-0.7517793
6.037705,4.6462326,0.1963103,-0.052663904,0.039615013,2.4372973,-9.557653,-0.7517793
6.0377154,4.6463237,0.20483242,-0.050533377,0.030027634,2.4660277,-9.591172,-0.866701
