Pitch,Roll,Gyro_X,Gyro_Y,Gyro_Z,Accel_X,Accel_Y,Accel_Z
6.132296,4.760811,0.0141500775,-0.031358615,-0.02110506,1.508347,-9.610326,0.4261679
6.1320524,4.7606783,0.012019549,-0.03242388,-0.024300855,1.541866,-9.615114,0.40701428
6.1320524,4.7606783,0.012019549,-0.03242388,-0.024300855,1.5466543,-9.600749,0.40222588
6.1318,4.760544,0.010954284,-0.033489145,-0.027496647,1.5466543,-9.600749,0.40222588
6.1316338,4.7605495,0.008823755,-0.035619672,-0.028561912,1.5705963,-9.610326,0.46447513
6.1314635,4.760555,0.008823755,-0.035619672,-0.028561912,1.5705963,-9.610326,0.46447513
6.1313043,4.7605143,0.008823755,-0.036684938,-0.031757705,1.5705963,-9.629479,0.4309563
6.1311455,4.7604737,0.008823755,-0.036684938,-0.031757705,1.5705963,-9.629479,0.4309563
6.1309714,4.7604594,0.008823755,-0.03881547,-0.033888236,1.6041151,-9.591172,0.44532153
6.1307983,4.7604456,0.008823755,-0.03881547,-0.033888236,1.6041151,-9.591172,0.44532153
6.130654,4.7603827,0.008823755,-0.040945996,-0.036018763,1.6184803,-9.619903,0.37828386
6.1305103,4.7603197,0.008823755,-0.040945996,-0.036018763,1.6184803,-9.619903,0.37828386
6.1303287,4.760322,0.008823755,-0.040945996,-0.039214555,1.6759412,-9.600749,0.45968673
6.1301484,4.7603245,0.008823755,-0.040945996,-0.039214555,1.6759412,-9.600749,0.45968673
6.1299696,4.7603025,0.008823755,-0.040945996,-0.04027982,1.6950948,-9.581595,0.4213795
6.129792,4.7602806,0.008823755,-0.040945996,-0.04027982,1.6950948,-9.581595,0.4213795
6.129612,4.760261,0.0077584907,-0.03988073,-0.041345086,1.7046716,-9.595961,0.4261679
6.129432,4.7602415,0.0077584907,-0.03988073,-0.041345086,1.7046716,-9.595961,0.4261679
6.12925,4.7602315,0.005627962,-0.03881547,-0.04027982,1.7190368,-9.629479,0.44532153
6.1290693,4.7602215,0.005627962,-0.03881547,-0.04027982,1.7190368,-9.629479,0.44532153
6.128888,4.760229,0.005627962,-0.037750203,-0.039214555,1.7142484,-9.65821,0.47405192
6.1287084,4.760237,0.005627962,-0.037750203,-0.039214555,1.7142484,-9.65821,0.47405192
6.128528,4.760212,0.0045626974,-0.03455441,-0.04241035,1.7142484,-9.667787,0.4261679
6.1283484,4.760187,0.0045626974,-0.03455441,-0.04241035,1.7142484,-9.667787,0.4261679
6.1281643,4.760186,0.005627962,-0.031358615,-0.04241035,1.685518,-9.653421,0.45968673
6.127981,4.7601857,0.005627962,-0.031358615,-0.04241035,1.685518,-9.653421,0.45968673
6.127801,4.760172,0.0045626974,-0.026032293,-0.04027982,1.70946,-9.720459,0.44532153
6.127621,4.7601576,0.0045626974,-0.026032293,-0.04027982,1.70946,-9.720459,0.44532153
6.1274457,4.76019,0.005627962,-0.021771235,-0.04027982,1.6807296,-9.691729,0.49799395
6.127271,4.7602224,0.005627962,-0.021771235,-0.04027982,1.6807296,-9.691729,0.49799395
6.127094,4.760223,0.0066932263,-0.017510178,-0.037084028,1.6663644,-9.682152,0.45968673
6.1269155,4.7602234,0.0066932263,-0.017510178,-0.037084028,1.6663644,-9.682152,0.45968673
6.1267385,4.760219,0.0077584907,-0.015379649,-0.031757705,1.6232687,-9.643845,0.45489833
6.126572,4.7602153,0.0077584907,-0.015379649,-0.031757705,1.6232687,-9.643845,0.45489833
6.126409,4.7601933,0.00988902,-0.012183856,-0.028561912,1.6759412,-9.677363,0.4309563
6.126247,4.760171,0.00988902,-0.012183856,-0.028561912,1.6759412,-9.677363,0.4309563
6.126085,4.760156,0.010954284,-0.010053327,-0.026431382,1.6567876,-9.610326,0.4357447
6.1259217,4.760141,0.010954284,-0.010053327,-0.026431382,1.6567876,-9.610326,0.4357447
6.125777,4.7601023,0.013084813,-0.011118591,-0.02323559,1.661576,-9.591172,0.40222588
6.125632,4.7600636,0.013084813,-0.011118591,-0.02323559,1.661576,-9.591172,0.40222588
6.125479,4.7600527,0.015215342,-0.010053327,-0.016844003,1.685518,-9.615114,0.4309563
6.125326,4.7600417,0.015215342,-0.010053327,-0.016844003,1.685518,-9.615114,0.4309563
6.125174,4.7600684,0.018411135,-0.007922798,-0.012582945,1.6807296,-9.634268,0.46926352
6.125021,4.760095,0.018411135,-0.007922798,-0.012582945,1.6807296,-9.634268,0.46926352
6.124876,4.760101,0.019476399,-0.007922798,-0.006191358,1.70946,-9.56723,0.4405331
6.1247306,4.760106,0.019476399,-0.007922798,-0.006191358,1.70946,-9.56723,0.4405331
6.124599,4.760162,0.022672193,-0.007922798,0.00020022877,1.6711528,-9.605537,0.49320555
6.124467,4.760218,0.022672193,-0.007922798,0.00020022877,1.6711528,-9.605537,0.49320555
6.124335,4.76023,0.025867987,-0.007922798,0.0065918155,1.6903064,-9.591172,0.44532153
6.124202,4.7602415,0.025867987,-0.007922798,0.0065918155,1.6903064,-9.591172,0.44532153
6.1240783,4.7602944,0.02906378,-0.007922798,0.011918138,1.6711528,-9.605537,0.48362875
6.123954,4.7603474,0.02906378,-0.007922798,0.011918138,1.6711528,-9.605537,0.48362875
6.123861,4.760435,0.031194309,-0.005792269,0.021505518,1.6280571,-9.581595,0.50278234
6.123767,4.760523,0.031194309,-0.005792269,0.021505518,1.6280571,-9.581595,0.50278234
6.1236577,4.760568,0.03545537,-0.00366174,0.030027634,1.6519991,-9.56723,0.46926352
6.123548,4.760613,0.03545537,-0.00366174,0.030027634,1.6519991,-9.56723,0.46926352
6.12346,4.7606936,0.03865116,-0.00046594674,0.03854975,1.6376339,-9.5385,0.49320555
6.123371,4.7607746,0.03865116,-0.00046594674,0.03854975,1.6376339,-9.5385,0.49320555
6.1233406,4.7609005,0.041846953,0.0027298466,0.0460066,1.6376339,-9.548077,0.5650316
6.1233096,4.761026,0.041846953,0.0027298466,0.0460066,1.6376339,-9.548077,0.5650316
6.123245,4.7610188,0.045042746,0.003795111,0.05346345,1.6136919,-9.528923,0.4309563
6.12318,4.76101,0.045042746,0.003795111,0.05346345,1.6136919,-9.528923,0.4309563
6.1231184,4.761009,0.04823854,0.0069909045,0.059855036,1.6041151,-9.552865,0.4405331
6.1230574,4.7610083,0.04823854,0.0069909045,0.059855036,1.6041151,-9.552865,0.4405331
6.1230297,4.761133,0.051434334,0.008056169,0.06837715,1.6184803,-9.509769,0.521936
6.123001,4.761258,0.051434334,0.008056169,0.06837715,1.6184803,-9.509769,0.521936
6.1229396,4.7612953,0.05356486,0.009121433,0.075834006,1.6089035,-9.481039,0.45489833
6.1228776,4.761333,0.05356486,0.009121433,0.075834006,1.6089035,-9.481039,0.45489833
6.1228228,4.761372,0.055695392,0.009121433,0.08222559,1.6759412,-9.457097,0.44532153
6.1227674,4.7614107,0.055695392,0.009121433,0.08222559,1.6759412,-9.457097,0.44532153
6.12272,4.7614403,0.056760654,0.010186698,0.08648665,1.7046716,-9.476251,0.4309563
6.122672,4.7614703,0.056760654,0.010186698,0.08648665,1.7046716,-9.476251,0.4309563
6.122634,4.7614875,0.056760654,0.010186698,0.089682445,1.685518,-9.500193,0.4213795
6.1225963,4.761504,0.056760654,0.010186698,0.089682445,1.685518,-9.500193,0.4213795
6.122562,4.7615147,0.054630127,0.008056169,0.09074771,1.7238252,-9.44752,0.39743748
6.1225276,4.761525,0.054630127,0.008056169,0.09074771,1.7238252,-9.44752,0.39743748
6.122482,4.7615614,0.054630127,0.0048603755,0.09181297,1.7429788,-9.485827,0.4405331
6.1224356,4.761598,0.054630127,0.0048603755,0.09181297,1.7429788,-9.485827,0.4405331
6.1224127,4.7615943,0.05356486,0.0048603755,0.09181297,1.7717092,-9.457097,0.34955344
6.12239,4.76159,0.05356486,0.0048603755,0.09181297,1.7717092,-9.457097,0.34955344
6.1223636,4.7615805,0.05036907,0.003795111,0.08648665,1.7908629,-9.471462,0.33518824
6.1223373,4.761571,0.05036907,0.003795111,0.08648665,1.7908629,-9.471462,0.33518824
6.1223116,4.7615576,0.049303804,0.0027298466,0.08435612,1.7525556,-9.485827,0.34955344
6.122286,4.761544,0.049303804,0.0027298466,0.08435612,1.7525556,-9.485827,0.34955344
6.122245,4.761547,0.047173277,0.0027298466,0.08435612,1.7908629,-9.466674,0.37828386
6.1222034,4.761549,0.047173277,0.0027298466,0.08435612,1.7908629,-9.466674,0.37828386
6.122169,4.761536,0.04291222,0.0016645822,0.08222559,1.7956513,-9.461885,0.34476504
6.122134,4.7615223,0.04291222,0.0016645822,0.08222559,1.7956513,-9.461885,0.34476504
6.122086,4.7615194,0.040781688,0.0005993177,0.07796454,1.8531121,-9.466674,0.35913026
6.1220374,4.7615156,0.040781688,0.0005993177,0.07796454,1.8531121,-9.466674,0.35913026
6.121994,4.761499,0.03865116,0.0005993177,0.07476874,1.8339585,-9.452309,0.33039984
6.1219497,4.761482,0.03865116,0.0005993177,0.07476874,1.8339585,-9.452309,0.33039984
6.121906,4.7614584,0.034390103,-0.00046594674,0.071572945,1.8818425,-9.437943,0.29688102
6.1218624,4.7614355,0.034390103,-0.00046594674,0.071572945,1.8818425,-9.437943,0.29688102
6.121814,4.761404,0.030129045,-0.00046594674,0.0641161,1.8531121,-9.476251,0.30166942
6.121767,4.7613745,0.030129045,-0.00046594674,0.0641161,1.8531121,-9.476251,0.30166942
6.121722,4.7613263,0.024802722,-0.00046594674,0.055593982,1.8579005,-9.442732,0.23942018
6.121678,4.761279,0.024802722,-0.00046594674,0.055593982,1.8579005,-9.442732,0.23942018
6.121596,4.761264,0.022672193,-0.00046594674,0.04813713,1.8962077,-9.423578,0.35913026
6.121514,4.761248,0.022672193,-0.00046594674,0.04813713,1.8962077,-9.423578,0.35913026
6.1214385,4.761208,0.016280606,0.0005993177,0.041745543,1.9297266,-9.433155,0.2777274
6.1213636,4.7611675,0.016280606,0.0005993177,0.041745543,1.9297266,-9.433155,0.2777274
6.1213636,4.7611675,0.016280606,0.0005993177,0.041745543,1.9297266,-9.433155,0.2777274
6.121172,4.7611165,0.010954284,0.0048603755,0.03641922,1.8722657,-9.471462,0.37349546
6.1210737,4.7610893,0.005627962,0.008056169,0.031092897,1.910573,-9.466674,0.36870706
6.1209755,4.7610617,0.005627962,0.008056169,0.031092897,1.910573,-9.466674,0.36870706
6.1208787,4.761013,0.001366904,0.012317227,0.022570781,1.910573,-9.495404,0.31124622
6.120782,4.7609634,0.001366904,0.012317227,0.022570781,1.910573,-9.495404,0.31124622
6.1206894,4.7608995,-0.0050246827,0.017643549,0.01724446,1.8770541,-9.471462,0.2825158
6.120597,4.7608347,-0.0050246827,0.017643549,0.01724446,1.8770541,-9.471462,0.2825158
6.1204753,4.760804,-0.009285741,0.024035135,0.012983402,1.8052281,-9.504981,0.4165911
6.1203537,4.7607737,-0.009285741,0.024035135,0.012983402,1.8052281,-9.504981,0.4165911
6.120251,4.760703,-0.014612063,0.030426722,0.00765708,1.7908629,-9.543288,0.34476504
6.120148,4.760633,-0.014612063,0.030426722,0.00765708,1.7908629,-9.543288,0.34476504
6.1200156,4.7606,-0.017807856,0.035753045,0.0023307577,1.7286136,-9.586384,0.4405331
6.1198826,4.7605677,-0.017807856,0.035753045,0.0023307577,1.7286136,-9.586384,0.4405331
6.119802,4.7604713,-0.021003649,0.040014103,-0.0008650357,1.6663644,-9.629479,0.3878607
6.1197214,4.7603755,-0.021003649,0.040014103,-0.0008650357,1.6663644,-9.629479,0.3878607
6.119725,4.760459,-0.024199443,0.045340426,-0.004060829,1.5897499,-9.643845,0.51714754
6.119729,4.7605424,-0.024199443,0.045340426,-0.004060829,1.5897499,-9.643845,0.51714754
6.1196923,4.7606225,-0.025264706,0.04853622,-0.0051260935,1.6041151,-9.605537,0.51235914
6.119656,4.7607026,-0.025264706,0.04853622,-0.0051260935,1.6041151,-9.605537,0.51235914
6.119793,4.76067,-0.026329972,0.050666746,-0.004060829,1.5227122,-9.662998,0.45968673
6.1199403,4.760636,-0.026329972,0.050666746,-0.004060829,1.5227122,-9.662998,0.45968673
6.120045,4.7606816,-0.026329972,0.050666746,-0.0029955646,1.4987702,-9.65821,0.521936
6.1201596,4.760732,-0.026329972,0.050666746,-0.0029955646,1.4987702,-9.65821,0.521936
6.1201596,4.760732,-0.026329972,0.050666746,-0.0029955646,1.4987702,-9.65821,0.521936
6.12038,4.7608113,-0.02313418,0.050666746,-0.0008650357,1.508347,-9.701305,0.51235914
6.120526,4.7608128,-0.019938385,0.049601484,0.0033960221,1.436521,-9.682152,0.48362875
6.120526,4.7608128,-0.019938385,0.049601484,0.0033960221,1.436521,-9.682152,0.48362875
6.1208096,4.7608185,-0.017807856,0.045340426,0.0023307577,1.4652514,-9.696517,0.48362875
6.1209493,4.7608232,-0.017807856,0.045340426,0.0023307577,1.4652514,-9.696517,0.48362875
6.1210933,4.7608285,-0.014612063,0.04107937,0.0033960221,1.4221559,-9.667787,0.48362875
6.1212373,4.7608337,-0.014612063,0.04107937,0.0033960221,1.4221559,-9.667787,0.48362875
6.12137,4.760786,-0.0114162695,0.038948838,0.0033960221,1.436521,-9.667787,0.4213795
6.1215024,4.760738,-0.0114162695,0.038948838,0.0033960221,1.436521,-9.667787,0.4213795
6.1216297,4.760786,-0.0071552116,0.035753045,0.0044612866,1.4173675,-9.662998,0.5315128
6.121757,4.7608337,-0.0071552116,0.035753045,0.0044612866,1.4173675,-9.662998,0.5315128
6.121896,4.7608666,-0.0028941538,0.030426722,0.0044612866,1.436521,-9.696517,0.50278234
6.1220345,4.7608995,-0.0028941538,0.030426722,0.0044612866,1.436521,-9.696517,0.50278234
6.1221766,4.760878,0.00030163955,0.026165664,0.005526551,1.4221559,-9.643845,0.4405331
6.122319,4.7608566,0.00030163955,0.026165664,0.005526551,1.4221559,-9.643845,0.4405331
6.1224623,4.7608376,0.003497433,0.022969872,0.0065918155,1.3599066,-9.758766,0.4309563
6.1226053,4.7608185,0.003497433,0.022969872,0.0065918155,1.3599066,-9.758766,0.4309563
6.1227455,4.7607946,0.0066932263,0.019774077,0.0065918155,1.3934253,-9.720459,0.4261679
6.1228857,4.760771,0.0066932263,0.019774077,0.0065918155,1.3934253,-9.720459,0.4261679
6.1230316,4.760768,0.008823755,0.014447756,0.0065918155,1.364695,-9.725247,0.45010993
6.123178,4.760765,0.008823755,0.014447756,0.0065918155,1.364695,-9.725247,0.45010993
6.1233153,4.760738,0.010954284,0.009121433,0.00765708,1.388637,-9.710882,0.4165911
6.123452,4.7607107,0.010954284,0.009121433,0.00765708,1.388637,-9.710882,0.4165911
6.1235886,4.760759,0.012019549,0.0048603755,0.005526551,1.4460979,-9.725247,0.50278234
6.1237245,4.760807,0.012019549,0.0048603755,0.005526551,1.4460979,-9.725247,0.50278234
6.1238685,4.760835,0.0141500775,0.0005993177,0.005526551,1.4173675,-9.758766,0.48841715
6.1240125,4.760864,0.0141500775,0.0005993177,0.005526551,1.4173675,-9.758766,0.48841715
6.124158,4.7608767,0.016280606,-0.0047270046,0.005526551,1.4269443,-9.730036,0.46926352
6.124303,4.7608886,0.016280606,-0.0047270046,0.005526551,1.4269443,-9.730036,0.46926352
6.124448,4.7609,0.019476399,-0.010053327,0.005526551,1.460463,-9.773131,0.46926352
6.124593,4.7609105,0.019476399,-0.010053327,0.005526551,1.460463,-9.773131,0.46926352
6.1247387,4.760931,0.022672193,-0.015379649,0.0065918155,1.4700398,-9.763555,0.47405192
6.124884,4.7609506,0.022672193,-0.015379649,0.0065918155,1.4700398,-9.763555,0.47405192
6.1249986,4.761038,0.025867987,-0.018575443,0.008722344,1.4460979,-9.753978,0.5410896
6.1251125,4.7611246,0.025867987,-0.018575443,0.008722344,1.4460979,-9.753978,0.5410896
6.125236,4.7612085,0.027998514,-0.023901764,0.012983402,1.460463,-9.758766,0.5267244
6.1253595,4.761292,0.027998514,-0.023901764,0.012983402,1.460463,-9.758766,0.5267244
6.125464,4.7613935,0.031194309,-0.029228088,0.014048667,1.4556746,-9.801862,0.5650316
6.125569,4.7614956,0.031194309,-0.029228088,0.014048667,1.4556746,-9.801862,0.5650316
6.1257205,4.7615414,0.03545537,-0.033489145,0.015113931,1.4460979,-9.782708,0.49320555
6.125871,4.7615867,0.03545537,-0.033489145,0.015113931,1.4460979,-9.782708,0.49320555
6.125998,4.76168,0.039716423,-0.036684938,0.01724446,1.4796166,-9.792285,0.521936
6.1261253,4.7617736,0.039716423,-0.036684938,0.01724446,1.4796166,-9.792285,0.521936
6.1262836,4.7617927,0.045042746,-0.03881547,0.022570781,1.4891934,-9.753978,0.47405192
6.126441,4.761811,0.045042746,-0.03881547,0.022570781,1.4891934,-9.753978,0.47405192
6.1265845,4.761906,0.049303804,-0.040945996,0.02683184,1.460463,-9.739613,0.51714754
6.1267285,4.762002,0.049303804,-0.040945996,0.02683184,1.460463,-9.739613,0.51714754
6.1268454,4.762126,0.054630127,-0.044141788,0.030027634,1.460463,-9.720459,0.545878
6.1269627,4.76225,0.054630127,-0.044141788,0.030027634,1.460463,-9.720459,0.545878
6.1270375,4.762397,0.058891185,-0.045207053,0.03641922,1.484405,-9.720459,0.59855044
6.127112,4.7625437,0.058891185,-0.045207053,0.03641922,1.484405,-9.720459,0.59855044
6.1271873,4.762696,0.06315224,-0.047337584,0.041745543,1.508347,-9.720459,0.5506664
6.1272616,4.762848,0.06315224,-0.047337584,0.041745543,1.508347,-9.720459,0.5506664
6.127334,4.763005,0.0674133,-0.051598642,0.047071867,1.508347,-9.701305,0.5554548
6.127406,4.7631617,0.0674133,-0.051598642,0.047071867,1.508347,-9.701305,0.5554548
6.1273284,4.763263,0.073804885,-0.0558597,0.055593982,1.5610195,-9.696517,0.50278234
6.1273284,4.763263,0.073804885,-0.0558597,0.055593982,1.5610195,-9.696517,0.50278234
6.1271696,4.763434,0.07806595,-0.05692496,0.06305083,1.5897499,-9.682152,0.49320555
6.12709,4.7634993,0.07806595,-0.05692496,0.06305083,1.5897499,-9.682152,0.49320555
6.1270323,4.763619,0.08126174,-0.057990227,0.06837715,1.5945383,-9.639056,0.521936
6.1269736,4.7637377,0.08126174,-0.057990227,0.06837715,1.5945383,-9.639056,0.521936
6.126905,4.7638044,0.08445753,-0.059055492,0.073703475,1.6376339,-9.629479,0.48841715
6.126836,4.7638707,0.08445753,-0.059055492,0.073703475,1.6376339,-9.629479,0.48841715
6.126773,4.7639666,0.087653324,-0.057990227,0.07796454,1.6280571,-9.552865,0.50757074
6.12671,4.7640615,0.087653324,-0.057990227,0.07796454,1.6280571,-9.552865,0.50757074
6.12665,4.764119,0.089783855,-0.059055492,0.08009506,1.7764976,-9.533711,0.45010993
6.1265903,4.7641764,0.089783855,-0.059055492,0.08009506,1.7764976,-9.533711,0.45010993
6.126545,4.7642155,0.091914386,-0.057990227,0.08435612,1.757344,-9.500193,0.40701428
6.1264997,4.764254,0.091914386,-0.057990227,0.08435612,1.757344,-9.500193,0.40701428
6.1264462,4.764319,0.09297965,-0.057990227,0.087551914,1.8195933,-9.466674,0.45010993
6.126393,4.7643843,0.09297965,-0.057990227,0.087551914,1.8195933,-9.466674,0.45010993
6.1263475,4.764432,0.09404491,-0.05692496,0.088617176,1.7956513,-9.466674,0.41180268
6.1263027,4.7644796,0.09404491,-0.05692496,0.088617176,1.7956513,-9.466674,0.41180268
6.1262608,4.7645264,0.09511018,-0.0558597,0.09074771,1.8435353,-9.414001,0.3878607
6.126219,4.7645736,0.09511018,-0.0558597,0.09074771,1.8435353,-9.414001,0.3878607
6.1261806,4.764619,0.09511018,-0.054794434,0.0939435,1.8579005,-9.414001,0.37349546
6.126145,4.764662,0.09511018,-0.054794434,0.0939435,1.8579005,-9.414001,0.37349546
6.126107,4.7647085,0.09297965,-0.052663904,0.09607403,1.9057846,-9.394848,0.37828386
6.12607,4.7647552,0.09297965,-0.052663904,0.09607403,1.9057846,-9.394848,0.37828386
6.126025,4.764829,0.091914386,-0.04946811,0.09713929,1.8914193,-9.356541,0.46447513
6.12598,4.764903,0.091914386,-0.04946811,0.09713929,1.8914193,-9.356541,0.46447513
6.1259484,4.7649374,0.08871859,-0.047337584,0.09607403,1.9297266,-9.3182335,0.32561144
6.1259174,4.7649713,0.08871859,-0.047337584,0.09607403,1.9297266,-9.3182335,0.32561144
6.1258907,4.764997,0.08552279,-0.043076526,0.09607403,1.9057846,-9.332599,0.31124622
6.1258636,4.7650228,0.08552279,-0.043076526,0.09607403,1.9057846,-9.332599,0.31124622
6.1258326,4.7650566,0.082327,-0.03988073,0.09926982,1.9249382,-9.299079,0.34955344
6.125801,4.765091,0.082327,-0.03988073,0.09926982,1.9249382,-9.299079,0.34955344
6.12577,4.76512,0.07806595,-0.035619672,0.09820456,1.910573,-9.294291,0.34955344
6.1257386,4.765149,0.07806595,-0.035619672,0.09820456,1.910573,-9.294291,0.34955344
6.1256967,4.765194,0.074870154,-0.030293351,0.09607403,1.9153614,-9.270349,0.41180268
6.125655,4.765239,0.074870154,-0.030293351,0.09607403,1.9153614,-9.270349,0.41180268
6.12562,4.765259,0.06847856,-0.023901764,0.09287824,1.8818425,-9.279925,0.35434186
6.1255846,4.7652793,0.06847856,-0.023901764,0.09287824,1.8818425,-9.279925,0.35434186
6.125538,4.7653084,0.061021715,-0.018575443,0.088617176,1.8770541,-9.255983,0.40701428
6.12549,4.7653375,0.061021715,-0.018575443,0.088617176,1.8770541,-9.255983,0.40701428
6.125453,4.765341,0.05356486,-0.011118591,0.087551914,1.8531121,-9.303867,0.35434186
6.125416,4.7653446,0.05356486,-0.011118591,0.087551914,1.8531121,-9.303867,0.35434186
6.1253753,4.7653456,0.047173277,-0.0047270046,0.08542138,1.8148049,-9.270349,0.37349546
6.1253347,4.7653465,0.047173277,-0.0047270046,0.08542138,1.8148049,-9.270349,0.37349546
6.125283,4.76535,0.039716423,0.0016645822,0.0790298,1.8052281,-9.303867,0.40701428
6.125231,4.765353,0.039716423,0.0016645822,0.0790298,1.8052281,-9.303867,0.40701428
6.125171,4.765355,0.032259572,0.00592564,0.073703475,1.7956513,-9.284714,0.4213795
6.1251116,4.765357,0.032259572,0.00592564,0.073703475,1.7956513,-9.284714,0.4213795
6.1250563,4.765336,0.024802722,0.010186698,0.06837715,1.8004397,-9.32781,0.37828386
6.1250014,4.765314,0.024802722,0.010186698,0.06837715,1.8004397,-9.32781,0.37828386
6.1249404,4.7652884,0.017345872,0.011251962,0.0641161,1.8243817,-9.294291,0.37349546
6.1248794,4.7652617,0.017345872,0.011251962,0.0641161,1.8243817,-9.294291,0.37349546
6.124825,4.7652154,0.010954284,0.012317227,0.058789775,1.7812861,-9.351752,0.34955344
6.12477,4.7651687,0.010954284,0.012317227,0.058789775,1.7812861,-9.351752,0.34955344
6.124713,4.765115,0.003497433,0.013382491,0.055593982,1.7956513,-9.303867,0.33518824
6.1246552,4.765061,0.003497433,0.013382491,0.055593982,1.7956513,-9.303867,0.33518824
6.1245966,4.7649975,-0.0039594183,0.012317227,0.052398186,1.7764976,-9.32781,0.33997664
6.1245375,4.7649336,-0.0039594183,0.012317227,0.052398186,1.7764976,-9.32781,0.33997664
6.124468,4.76487,-0.009285741,0.011251962,0.0460066,1.8004397,-9.351752,0.34955344
6.1243973,4.7648063,-0.009285741,0.011251962,0.0460066,1.8004397,-9.351752,0.34955344
6.1243286,4.7647295,-0.015677327,0.010186698,0.040680278,1.7956513,-9.428367,0.33518824
6.12426,4.7646523,-0.015677327,0.010186698,0.040680278,1.7956513,-9.428367,0.33518824
6.1241817,4.7645755,-0.021003649,0.010186698,0.03641922,1.7477672,-9.452309,0.38307226
6.1241026,4.7644987,-0.021003649,0.010186698,0.03641922,1.7477672,-9.452309,0.38307226
6.1240044,4.764442,-0.026329972,0.010186698,0.03428869,1.757344,-9.437943,0.4357447
6.123906,4.764385,-0.026329972,0.010186698,0.03428869,1.757344,-9.437943,0.4357447
6.1238036,4.764328,-0.029525764,0.010186698,0.031092897,1.7669208,-9.461885,0.4405331
6.123701,4.764271,-0.029525764,0.010186698,0.031092897,1.7669208,-9.461885,0.4405331
6.123601,4.7642,-0.032721557,0.010186698,0.027897105,1.7142484,-9.528923,0.4405331
6.1235003,4.764129,-0.032721557,0.010186698,0.027897105,1.7142484,-9.528923,0.4405331
6.1233916,4.7640815,-0.034852087,0.010186698,0.02896237,1.7669208,-9.519346,0.46926352
6.123282,4.7640333,-0.034852087,0.010186698,0.02896237,1.7669208,-9.519346,0.46926352
6.1231813,4.7639637,-0.03698262,0.011251962,0.030027634,1.7142484,-9.552865,0.45010993
6.12308,4.7638946,-0.03698262,0.011251962,0.030027634,1.7142484,-9.552865,0.45010993
6.1229825,4.7638216,-0.03698262,0.013382491,0.031092897,1.6759412,-9.600749,0.45968673
6.122884,4.763749,-0.03698262,0.013382491,0.031092897,1.6759412,-9.600749,0.45968673
6.122778,4.7637243,-0.03804788,0.01551302,0.032158162,1.7046716,-9.5385,0.50278234
6.1226716,4.7636995,-0.03804788,0.01551302,0.032158162,1.7046716,-9.5385,0.50278234
6.1225843,4.763714,-0.03804788,0.017643549,0.033223428,1.7381904,-9.600749,0.5650316
6.1224966,4.763728,-0.03804788,0.017643549,0.033223428,1.7381904,-9.600749,0.5650316
6.1224284,4.7637606,-0.03804788,0.020839343,0.03428869,1.6567876,-9.600749,0.5554548
6.1223598,4.763793,-0.03804788,0.020839343,0.03428869,1.6567876,-9.600749,0.5554548
6.1222563,4.7637615,-0.039113145,0.021904606,0.035353955,1.6711528,-9.619903,0.49799395
6.122153,4.76373,-0.039113145,0.021904606,0.035353955,1.6711528,-9.619903,0.49799395
6.1220903,4.7637672,-0.03698262,0.022969872,0.035353955,1.6567876,-9.662998,0.5554548
6.1220274,4.763805,-0.03698262,0.022969872,0.035353955,1.6567876,-9.662998,0.5554548
6.1219816,4.763852,-0.03698262,0.022969872,0.035353955,1.6280571,-9.65821,0.5506664
6.1219363,4.7639008,-0.03698262,0.022969872,0.035353955,1.6280571,-9.65821,0.5506664
6.1219664,4.763969,-0.034852087,0.022969872,0.037484486,1.5849615,-9.68694,0.5746084
6.121996,4.7640376,-0.034852087,0.022969872,0.037484486,1.5849615,-9.68694,0.5746084
6.1221266,4.764087,-0.031656295,0.022969872,0.041745543,1.5514427,-9.730036,0.5315128
6.1221266,4.764087,-0.031656295,0.022969872,0.041745543,1.5514427,-9.730036,0.5315128
6.12229,4.7641506,-0.027395237,0.021904606,0.0460066,1.5275006,-9.653421,0.58418524
6.122454,4.7642746,-0.027395237,0.021904606,0.0460066,1.5275006,-9.653421,0.58418524
6.1225953,4.7643294,-0.024199443,0.020839343,0.05026766,1.460463,-9.749189,0.60812724
6.1227436,4.764387,-0.024199443,0.020839343,0.05026766,1.460463,-9.749189,0.60812724
6.122881,4.7644463,-0.019938385,0.019774077,0.056659244,1.3934253,-9.715671,0.6703765
6.1230216,4.7645073,-0.019938385,0.019774077,0.056659244,1.3934253,-9.715671,0.6703765
6.1230216,4.7645073,-0.019938385,0.019774077,0.056659244,1.3934253,-9.715671,0.6703765
6.1231976,4.764572,-0.012481534,0.01551302,0.06305083,1.3934253,-9.691729,0.62728083
6.123515,4.7646866,-0.0039594183,0.012317227,0.07263821,1.3455414,-9.739613,0.6464345
6.123693,4.7647486,-0.0039594183,0.012317227,0.07263821,1.3455414,-9.739613,0.6464345
6.123693,4.7647486,-0.0039594183,0.012317227,0.07263821,1.3455414,-9.739613,0.6464345
6.1240296,4.764919,0.005627962,0.008056169,0.08435612,1.340753,-9.701305,0.7134721
6.124207,4.7650146,0.015215342,0.0027298466,0.09607403,1.3455414,-9.68694,0.7182605
6.124383,4.7651105,0.015215342,0.0027298466,0.09607403,1.3455414,-9.68694,0.7182605
6.124559,4.765221,0.024802722,-0.0025964756,0.1088572,1.3790601,-9.643845,0.7230489
6.1247363,4.7653327,0.024802722,-0.0025964756,0.1088572,1.3790601,-9.643845,0.7230489
6.1249084,4.7654552,0.033324838,-0.008988062,0.119509846,1.3982137,-9.65821,0.7613561
6.125079,4.765577,0.033324838,-0.008988062,0.119509846,1.3982137,-9.65821,0.7613561
6.1252694,4.7657056,0.04291222,-0.014314385,0.13122776,1.3790601,-9.605537,0.7374141
6.1254597,4.7658343,0.04291222,-0.014314385,0.13122776,1.3790601,-9.605537,0.7374141
6.1256566,4.7659726,0.051434334,-0.019640706,0.14188041,1.4269443,-9.548077,0.6607997
6.125853,4.766111,0.051434334,-0.019640706,0.14188041,1.4269443,-9.548077,0.6607997
6.1260443,4.766259,0.05782592,-0.023901764,0.15253304,1.4460979,-9.524135,0.6703765
6.126235,4.766407,0.05782592,-0.023901764,0.15253304,1.4460979,-9.524135,0.6703765
6.1264014,4.7665653,0.06421751,-0.029228088,0.15892464,1.4891934,-9.471462,0.6512229
6.1265664,4.7667236,0.06421751,-0.029228088,0.15892464,1.4891934,-9.471462,0.6512229
6.126789,4.766877,0.06847856,-0.033489145,0.16957727,1.4652514,-9.428367,0.5554548
6.1270094,4.767031,0.06847856,-0.033489145,0.16957727,1.4652514,-9.428367,0.5554548
6.1271973,4.7671986,0.074870154,-0.03988073,0.18129519,1.4796166,-9.414001,0.5746084
6.127396,4.767378,0.074870154,-0.03988073,0.18129519,1.4796166,-9.414001,0.5746084
6.127463,4.767498,0.08019647,-0.045207053,0.19088256,1.541866,-9.375694,0.545878
6.12753,4.7676196,0.08019647,-0.045207053,0.19088256,1.541866,-9.375694,0.545878
6.1276417,4.767772,0.08339227,-0.050533377,0.19940469,1.4939818,-9.337387,0.5410896
6.1277485,4.7679224,0.08339227,-0.050533377,0.19940469,1.4939818,-9.337387,0.5410896
6.1278863,4.768086,0.08552279,-0.054794434,0.20899206,1.4891934,-9.323022,0.5506664
6.1280184,4.7682467,0.08552279,-0.054794434,0.20899206,1.4891934,-9.323022,0.5506664
6.128208,4.7684207,0.08658806,-0.059055492,0.21857944,1.4652514,-9.299079,0.5506664
6.1283903,4.768594,0.08658806,-0.059055492,0.21857944,1.4652514,-9.299079,0.5506664
6.1286163,4.768771,0.089783855,-0.062251285,0.23029736,1.4508862,-9.275137,0.6368576
6.128841,4.7689495,0.089783855,-0.062251285,0.23029736,1.4508862,-9.275137,0.6368576
6.129095,4.769131,0.09404491,-0.064381815,0.24308053,1.436521,-9.299079,0.61291564
6.1293464,4.769313,0.09404491,-0.064381815,0.24308053,1.436521,-9.299079,0.61291564
6.1296105,4.7694974,0.0972407,-0.06544708,0.2558637,1.4317327,-9.275137,0.60333884
6.129872,4.769682,0.0972407,-0.06544708,0.2558637,1.4317327,-9.275137,0.60333884
6.129872,4.769682,0.0972407,-0.06544708,0.2558637,1.4317327,-9.275137,0.60333884
6.130432,4.770054,0.09937123,-0.06544708,0.26651633,1.4173675,-9.313444,0.6655881
6.1307273,4.7702417,0.10150176,-0.066512346,0.27823424,1.4269443,-9.3421755,0.60333884
6.131019,4.7704296,0.10150176,-0.066512346,0.27823424,1.4269443,-9.3421755,0.60333884
6.131281,4.770619,0.10363229,-0.066512346,0.28995216,1.4556746,-9.356541,0.61770403
6.131541,4.770809,0.10363229,-0.066512346,0.28995216,1.4556746,-9.356541,0.61770403
6.1317606,4.770817,0.104697555,-0.06970814,0.30167007,1.484405,-9.385271,0.49799395
6.131978,4.7708263,0.104697555,-0.06970814,0.30167007,1.484405,-9.385271,0.49799395
6.1321487,4.770899,0.10363229,-0.0707734,0.313388,1.5179238,-9.351752,0.5363012
6.1323195,4.770972,0.10363229,-0.0707734,0.313388,1.5179238,-9.351752,0.5363012
6.1325407,4.770987,0.10150176,-0.07290393,0.32297537,1.541866,-9.308656,0.45489833
6.132761,4.771003,0.10150176,-0.07290393,0.32297537,1.541866,-9.308656,0.45489833
6.133018,4.770999,0.0972407,-0.07396919,0.33149746,1.5227122,-9.313444,0.41180268
6.133274,4.7709956,0.0972407,-0.07396919,0.33149746,1.5227122,-9.313444,0.41180268
6.133565,4.7709804,0.09297965,-0.07290393,0.34428066,1.484405,-9.3182335,0.40222588
6.1338544,4.7709656,0.09297965,-0.07290393,0.34428066,1.484405,-9.3182335,0.40222588
6.1341944,4.77094,0.087653324,-0.06970814,0.35812908,1.4221559,-9.323022,0.41180268
6.134532,4.7709136,0.087653324,-0.06970814,0.35812908,1.4221559,-9.323022,0.41180268
6.134918,4.770887,0.08552279,-0.06331655,0.37410805,1.388637,-9.370906,0.45489833
6.135301,4.7708597,0.08552279,-0.06331655,0.37410805,1.388637,-9.370906,0.45489833
6.135782,4.770854,0.08339227,-0.054794434,0.39541334,1.3072342,-9.399636,0.46926352
6.13626,4.770846,0.08339227,-0.054794434,0.39541334,1.3072342,-9.399636,0.46926352
6.136812,4.7709446,0.08445753,-0.04627232,0.41991442,1.2976574,-9.490616,0.5746084
6.137364,4.7710423,0.08445753,-0.04627232,0.41991442,1.2976574,-9.490616,0.5746084
6.137882,4.7712092,0.09084912,-0.03455441,0.44867656,1.2162545,-9.528923,0.7757214
6.138399,4.7713766,0.09084912,-0.03455441,0.44867656,1.2162545,-9.528923,0.7757214
6.1389403,4.7715583,0.09937123,-0.021771235,0.4859608,1.1875241,-9.543288,0.8858546
6.1394806,4.771741,0.09937123,-0.021771235,0.4859608,1.1875241,-9.543288,0.8858546
6.140062,4.7719345,0.11002388,-0.008988062,0.5253756,1.1252748,-9.581595,0.9768343
6.140643,4.772129,0.11002388,-0.008988062,0.5253756,1.1252748,-9.581595,0.9768343
6.141282,4.7723317,0.122807056,0.0048603755,0.56692094,1.0726024,-9.591172,0.92416185
6.14192,4.7725344,0.122807056,0.0048603755,0.56692094,1.0726024,-9.591172,0.92416185
6.1425986,4.772759,0.13985129,0.018708814,0.6127273,1.1109096,-9.591172,0.91458505
6.1432757,4.7729836,0.13985129,0.018708814,0.6127273,1.1109096,-9.591172,0.91458505
6.1439786,4.773233,0.15689552,0.030426722,0.6585337,1.1683705,-9.500193,0.94810385
6.14468,4.773483,0.15689552,0.030426722,0.6585337,1.1683705,-9.500193,0.94810385
6.1454034,4.7737536,0.17287448,0.04214463,0.70434004,1.2641385,-9.471462,0.90979666
6.146125,4.774025,0.17287448,0.04214463,0.70434004,1.2641385,-9.471462,0.90979666
6.146911,4.77431,0.18778819,0.05599307,0.7501464,1.1444284,-9.275137,0.9624691
6.147696,4.7745953,0.18778819,0.05599307,0.7501464,1.1444284,-9.275137,0.9624691
6.1485505,4.7748923,0.20376715,0.07090677,0.79701805,0.9959879,-9.246407,1.0151415
6.149404,4.7751894,0.20376715,0.07090677,0.79701805,0.9959879,-9.246407,1.0151415
6.1503344,4.775504,0.22507244,0.085820474,0.85773814,0.8283938,-9.246407,1.0965444
6.1512637,4.7758183,0.22507244,0.085820474,0.85773814,0.8283938,-9.246407,1.0965444
6.1522603,4.7761593,0.25063878,0.100734174,0.92484975,0.6703765,-9.351752,1.3120226
6.153257,4.7765007,0.25063878,0.100734174,0.92484975,0.6703765,-9.351752,1.3120226
6.154324,4.7768784,0.28472725,0.11564788,1.0015488,0.47884035,-9.495404,1.7046716
6.1553907,4.7772565,0.28472725,0.11564788,1.0015488,0.47884035,-9.495404,1.7046716
6.156552,4.7776775,0.3284031,0.13056158,1.0931616,0.2873042,-9.691729,1.9536686
6.1577134,4.778099,0.3284031,0.13056158,1.0931616,0.2873042,-9.691729,1.9536686
6.158978,4.778576,0.38379684,0.14334476,1.1986227,0.10534488,-9.940725,2.27928
6.1602435,4.7790523,0.38379684,0.14334476,1.1986227,0.10534488,-9.940725,2.27928
6.1616373,4.7795944,0.45197377,0.15506266,1.3189976,-0.25378537,-10.261548,2.5234885
6.1630306,4.7801356,0.45197377,0.15506266,1.3189976,-0.25378537,-10.261548,2.5234885
6.164568,4.780751,0.52973807,0.16678058,1.4553515,-0.60333884,-10.5440645,2.695871
6.166105,4.7813673,0.52973807,0.16678058,1.4553515,-0.60333884,-10.5440645,2.695871
6.167802,4.7820616,0.6117634,0.17636795,1.6108801,-0.8475474,-10.773908,2.7820623
6.1694994,4.7827563,0.6117634,0.17636795,1.6108801,-0.8475474,-10.773908,2.7820623
6.171372,4.783532,0.6969846,0.18489006,1.7802571,-1.091756,-10.91756,2.7724855
6.173245,4.7843075,0.6969846,0.18489006,1.7802571,-1.091756,-10.91756,2.7724855
6.1753016,4.7851615,0.7800752,0.19234692,1.9581563,-1.2449849,-11.061212,2.6719291
6.1773586,4.7860155,0.7800752,0.19234692,1.9581563,-1.2449849,-11.061212,2.6719291
6.179608,4.7869463,0.85997003,0.1987385,2.1477733,-1.2976574,-11.113884,2.6144683
6.1818566,4.7878776,0.85997003,0.1987385,2.1477733,-1.2976574,-11.113884,2.6144683
6.1843047,4.7888775,0.9334733,0.20406483,2.3416514,-1.3359646,-11.133038,2.4516625
6.186753,4.789877,0.9334733,0.20406483,2.3416514,-1.3359646,-11.133038,2.4516625
6.189426,4.7909575,1.0027155,0.2083259,2.5355296,-1.2354081,-11.075577,2.384625
6.192033,4.7920117,1.0027155,0.2083259,2.5355296,-1.2354081,-11.075577,2.384625
6.1948667,4.793145,1.068762,0.21258694,2.7294078,-1.0726024,-10.998962,2.2936451
6.1976976,4.794278,1.068762,0.21258694,2.7294078,-1.0726024,-10.998962,2.2936451
6.20072,4.7954764,1.1316125,0.21258694,2.9179597,-0.93373865,-10.912771,2.2697031
6.203741,4.796675,1.1316125,0.21258694,2.9179597,-0.93373865,-10.912771,2.2697031
6.2069435,4.797929,1.1912673,0.21045642,3.0990546,-0.82360536,-10.754754,2.0685902
6.2101455,4.799183,1.1912673,0.21045642,3.0990546,-0.82360536,-10.754754,2.0685902
6.21352,4.800495,1.2509221,0.2051301,3.2726927,-0.8283938,-10.721235,2.0590134
6.216894,4.801807,1.2509221,0.2051301,3.2726927,-0.8283938,-10.721235,2.0590134
6.220437,4.8031774,1.3116422,0.19554271,3.4410045,-0.79008657,-10.702082,1.9728222
6.2239795,4.804548,1.3116422,0.19554271,3.4410045,-0.79008657,-10.702082,1.9728222
6.2276874,4.805973,1.371297,0.18169427,3.6039898,-0.866701,-10.817003,1.9249382
6.231395,4.8073993,1.371297,0.18169427,3.6039898,-0.866701,-10.817003,1.9249382
6.2352557,4.808885,1.4309518,0.1657153,3.7616491,-0.8619126,-10.821792,1.9536686
6.2391157,4.8103724,1.4309518,0.1657153,3.7616491,-0.8619126,-10.821792,1.9536686
6.2431273,4.811914,1.4906067,0.14441001,3.9107862,-0.80924016,-10.836157,1.8195933
6.247138,4.8134565,1.4906067,0.14441001,3.9107862,-0.80924016,-10.836157,1.8195933
6.2512813,4.8150616,1.5491961,0.118843675,4.051401,-0.6895301,-10.860099,1.8100165
6.2554317,4.8166714,1.5491961,0.118843675,4.051401,-0.6895301,-10.860099,1.8100165
6.2598863,4.818397,1.6013942,0.087951005,4.184559,-0.5506664,-10.716447,1.6472107
6.2640696,4.8200207,1.6013942,0.087951005,4.184559,-0.5506664,-10.716447,1.6472107
6.2683206,4.821658,1.6440047,0.053862542,4.3017383,-0.45968673,-10.726024,1.4891934
6.2727723,4.823375,1.6440047,0.053862542,4.3017383,-0.45968673,-10.726024,1.4891934
6.277279,4.8250875,1.6759627,0.019774077,4.405069,-0.51714754,-10.697293,1.3934253
6.281794,4.8268056,1.6759627,0.019774077,4.405069,-0.51714754,-10.697293,1.3934253
0.0032104978,4.8285074,1.6983331,-0.014314385,4.503073,-0.7422025,-10.860099,1.283292
0.007820939,4.8302116,1.6983331,-0.014314385,4.503073,-0.7422025,-10.860099,1.283292
0.012511529,4.8319187,1.7164427,-0.050533377,4.594686,-1.0103531,-11.085154,1.2162545
0.017209714,4.833627,1.7164427,-0.050533377,4.594686,-1.0103531,-11.085154,1.2162545
0.021985432,4.8353705,1.7345521,-0.08888289,4.6862984,-1.4221559,-11.3964,1.364695
0.026769523,4.8371177,1.7345521,-0.08888289,4.6862984,-1.4221559,-11.3964,1.364695
0.03163367,4.838895,1.7558575,-0.12936294,4.7832375,-1.8052281,-11.650186,1.484405
0.036501523,4.8406763,1.7558575,-0.12936294,4.7832375,-1.8052281,-11.650186,1.484405
0.041465137,4.842501,1.7856848,-0.17197353,4.8876333,-2.207454,-11.884817,1.6328455
0.046427567,4.844329,1.7856848,-0.17197353,4.8876333,-2.207454,-11.884817,1.6328455
0.051499393,4.8462124,1.8272302,-0.2145841,5.006943,-2.7581203,-12.042834,1.8148049
0.056569926,4.8480997,1.8272302,-0.2145841,5.006943,-2.7581203,-12.042834,1.8148049
0.06176752,4.850052,1.8783629,-0.25719467,5.1443624,-3.217807,-12.186486,1.9776106
0.06176752,4.850052,1.8783629,-0.25719467,5.1443624,-3.217807,-12.186486,1.9776106
0.07244006,4.8540826,1.9369525,-0.29767472,5.2988257,-3.739743,-12.124237,2.1021092
0.07244006,4.8540826,1.9369525,-0.29767472,5.2988257,-3.739743,-12.124237,2.1021092
0.0831307,4.8581724,1.9987378,-0.3434811,5.4671373,-4.175488,-12.081141,2.2697031
0.08895812,4.8604193,1.9987378,-0.3434811,5.4671373,-4.175488,-12.081141,2.2697031
0.094410576,4.8625364,2.0615883,-0.39354852,5.650363,-4.582502,-11.87524,2.4037786
0.10045502,4.864893,2.0615883,-0.39354852,5.650363,-4.582502,-11.87524,2.4037786
0.10045502,4.864893,2.1265695,-0.44894227,5.8463717,-4.807557,-11.57836,2.633622
0.10620553,4.8671546,2.1265695,-0.44894227,5.8463717,-4.807557,-11.57836,2.633622
0.117420204,4.8715925,2.1883547,-0.50966233,6.0519676,-4.984728,-11.281479,2.6431987
0.12344289,4.873988,2.1883547,-0.50966233,6.0519676,-4.984728,-11.281479,2.6431987
0.12967673,4.8764763,2.2469444,-0.57570875,6.26289,-5.1140146,-10.94629,2.7006595
0.13586971,4.8789606,2.2469444,-0.57570875,6.26289,-5.1140146,-10.94629,2.7006595
0.14227997,4.8815317,2.3023381,-0.6428204,6.4780736,-5.267244,-10.783484,2.6192567
0.14869262,4.884118,2.3023381,-0.6428204,6.4780736,-5.267244,-10.783484,2.6192567
0.15530434,4.88678,2.3556013,-0.71099734,6.7007136,-5.535394,-10.773908,2.5091233
0.16191794,4.889459,2.3556013,-0.71099734,6.7007136,-5.535394,-10.773908,2.5091233
0.16869941,4.892202,2.406734,-0.78343534,6.9286804,-5.7987566,-10.864887,2.4037786
0.175537,4.894986,2.406734,-0.78343534,6.9286804,-5.7987566,-10.864887,2.4037786
0.18254094,4.897834,2.4621277,-0.85800385,7.1641035,-5.9519854,-11.195287,2.183512
0.18958813,4.9007196,2.4621277,-0.85800385,7.1641035,-5.9519854,-11.195287,2.183512
0.19679634,4.9036717,2.522848,-0.9357681,7.4144406,-6.0238113,-11.48738,1.934515
0.20406272,4.9066706,2.522848,-0.9357681,7.4144406,-6.0238113,-11.48738,1.934515
0.21152583,4.9097605,2.5920901,-1.0145977,7.6775613,-5.93762,-11.836933,1.7381904
0.21899559,4.9128785,2.5920901,-1.0145977,7.6775613,-5.93762,-11.836933,1.7381904
0.22668965,4.916109,2.667724,-1.092362,7.951334,-5.770026,-12.11466,1.5993267
0.23438875,4.9193707,2.667724,-1.092362,7.951334,-5.770026,-12.11466,1.5993267
0.24232954,4.9227595,2.7476187,-1.1701263,8.233629,-5.4061074,-12.382812,1.532289
0.25024167,4.926169,2.7476187,-1.1701263,8.233629,-5.4061074,-12.382812,1.532289
0.25836796,4.929702,2.8285787,-1.2446948,8.51912,-5.0182467,-12.488156,1.5179238
0.26657617,4.933308,2.8285787,-1.2446948,8.51912,-5.0182467,-12.488156,1.5179238
0.27491504,4.937007,2.906343,-1.3096759,8.803546,-4.7261543,-12.559982,1.6136919
0.2832766,4.940758,2.906343,-1.3096759,8.803546,-4.7261543,-12.559982,1.6136919
0.29185984,4.9446473,2.978781,-1.3693308,9.080515,-4.4005427,-12.435484,1.6280571
0.3004207,4.948576,2.978781,-1.3693308,9.080515,-4.4005427,-12.435484,1.6280571
0.3091872,4.952636,3.0395012,-1.4215287,9.350026,-4.19943,-12.483368,1.7956513
0.31794629,4.9567475,3.0395012,-1.4215287,9.350026,-4.19943,-12.483368,1.7956513
0.32688212,4.9609847,3.0916991,-1.4630741,9.609951,-4.036624,-12.665327,2.135628
0.33580926,4.9652815,3.0916991,-1.4630741,9.609951,-4.036624,-12.665327,2.135628
0.3449101,4.969702,3.1364403,-1.4897057,9.859222,-3.9456444,-13.062764,2.2170308
0.3539958,4.974183,3.1364403,-1.4897057,9.859222,-3.9456444,-13.062764,2.2170308
0.36327073,4.978799,3.1790507,-1.5046194,10.096777,-3.8738184,-13.584701,2.3223755
0.37249506,4.9834623,3.1790507,-1.5046194,10.096777,-3.8738184,-13.584701,2.3223755
0.38196632,4.9882946,3.2259223,-1.5088804,10.327939,-3.8546648,-14.101848,2.4516625
0.39138648,4.993178,3.2259223,-1.5088804,10.327939,-3.8546648,-14.101848,2.4516625
0.40099365,4.9982157,3.2855773,-1.5035541,10.549514,-3.7684734,-14.393941,2.4947581
0.41057688,5.0033245,3.2855773,-1.5035541,10.549514,-3.7684734,-14.393941,2.4947581
0.4203402,5.0086017,3.3580153,-1.4865099,10.761501,-3.6343982,-14.33648,2.5187001
0.430059,5.013945,3.3580153,-1.4865099,10.761501,-3.6343982,-14.33648,2.5187001
0.43998575,5.0194826,3.4400406,-1.4502909,10.954314,-3.4811692,-14.082694,2.4277205
0.44969812,5.0249953,3.4400406,-1.4502909,10.954314,-3.4811692,-14.082694,2.4277205
0.45974,5.0307784,3.5284574,-1.3938318,11.120496,-3.41892,-13.579912,2.2409728
0.46991295,5.036745,3.5284574,-1.3938318,11.120496,-3.41892,-13.579912,2.2409728
0.48005262,5.042779,3.6158092,-1.3181981,11.254719,-3.442862,-12.933477,2.0638018
0.49007088,5.048852,3.6158092,-1.3181981,11.254719,-3.442862,-12.933477,2.0638018
0.5002954,5.055127,3.6893125,-1.2265854,11.346332,-3.5003228,-12.334928,1.7525556
0.51053786,5.061536,3.6893125,-1.2265854,11.346332,-3.5003228,-12.334928,1.7525556
0.5207308,5.0679855,3.7383146,-1.1275158,11.394269,-3.6343982,-11.836933,1.6519991
0.5308901,5.0745416,3.7383146,-1.1275158,11.394269,-3.6343982,-11.836933,1.6519991
0.5410848,5.081188,3.7585547,-1.0305767,11.3921385,-3.7205894,-11.415554,1.484405
0.5512141,5.087925,3.7585547,-1.0305767,11.3921385,-3.7205894,-11.415554,1.484405
0.5613346,5.0947304,3.7489672,-0.9442903,11.341005,-3.7732618,-11.070788,1.484405
0.5713888,5.10163,3.7489672,-0.9442903,11.341005,-3.7732618,-11.070788,1.484405
0.5813542,5.1085486,3.7106178,-0.870787,11.244066,-3.7014358,-10.91756,1.4748282
0.5912529,5.1155643,3.7106178,-0.870787,11.244066,-3.7014358,-10.91756,1.4748282
0.6010701,5.12261,3.6530936,-0.81219745,11.103452,-3.8307228,-10.749966,1.4939818
0.6107911,5.129734,3.6530936,-0.81219745,11.103452,-3.8307228,-10.749966,1.4939818
0.620382,5.136874,3.5795903,-0.77384794,10.921291,-3.8738184,-10.5680065,1.5179238
0.62989664,5.144109,3.5795903,-0.77384794,10.921291,-3.8738184,-10.5680065,1.5179238
0.63920826,5.151319,3.49863,-0.7536079,10.705043,-3.9695864,-10.34774,1.4413095
0.64843464,5.1586175,3.49863,-0.7536079,10.705043,-3.9695864,-10.34774,1.4413095
0.6574751,5.1659245,3.4187353,-0.7450858,10.461097,-4.084508,-10.070012,1.3551182
0.6665296,5.173403,3.4187353,-0.7450858,10.461097,-4.084508,-10.070012,1.3551182
0.67517483,5.1807184,3.3420362,-0.7461511,10.199042,-4.213795,-9.514558,1.2737153
0.6838242,5.188195,3.3420362,-0.7461511,10.199042,-4.213795,-9.514558,1.2737153
0.6922245,5.195649,3.268533,-0.7525427,9.915682,-4.4340615,-8.973468,1.1204864
0.7005344,5.203183,3.268533,-0.7525427,9.915682,-4.4340615,-8.973468,1.1204864
0.7086086,5.210704,3.191834,-0.76213,9.619538,-4.663905,-8.42759,1.0151415
0.71660984,5.218319,3.191834,-0.76213,9.619538,-4.663905,-8.42759,1.0151415
0.7243196,5.225855,3.1098087,-0.7685216,9.309546,-4.8985367,-7.85777,0.90979666
0.7319651,5.23349,3.1098087,-0.7685216,9.309546,-4.8985367,-7.85777,0.90979666
0.7393844,5.2411013,3.0139349,-0.7717174,8.991033,-4.7405195,-7.40766,0.8619126
0.7470101,5.249097,3.0139349,-0.7717174,8.991033,-4.7405195,-7.40766,0.8619126
0.7538086,5.2564154,2.9010167,-0.7813048,8.657604,-4.7644615,-6.95755,0.8571242
0.76062465,5.263905,2.9010167,-0.7813048,8.657604,-4.7644615,-6.95755,0.8571242
0.7672044,5.27134,2.7699893,-0.7994143,8.309263,-4.548983,-6.71813,0.8810662
0.77375835,5.2789,2.7699893,-0.7994143,8.309263,-4.548983,-6.71813,0.8810662
0.77994555,5.286262,2.628309,-0.8260459,7.948138,-4.3143516,-6.5601125,1.067814
0.78611344,5.2937517,2.628309,-0.8260459,7.948138,-4.3143516,-6.5601125,1.067814
0.79193854,5.301078,2.4813025,-0.8611996,7.5774264,-3.9504328,-6.5457473,1.2689269
0.797612,5.3083577,2.4813025,-0.8611996,7.5774264,-3.9504328,-6.5457473,1.2689269
0.8029471,5.3154864,2.3353612,-0.9016797,7.202453,-3.5913026,-6.6271505,1.6950948
0.8082905,5.322765,2.3353612,-0.9016797,7.202453,-3.5913026,-6.6271505,1.6950948
0.8132239,5.3297467,2.201138,-0.9421597,6.830676,-3.4572272,-6.6893997,1.6519991
0.8181247,5.3368134,2.201138,-0.9421597,6.830676,-3.4572272,-6.6893997,1.6519991
0.8226905,5.3436756,2.0796978,-0.9869008,6.4631596,-3.4332852,-6.555324,1.5753847
0.82724273,5.3506446,2.0796978,-0.9869008,6.4631596,-3.4332852,-6.555324,1.5753847
0.83140016,5.357343,1.9699756,-1.0380335,6.102035,-3.2273839,-6.4308257,1.7621324
0.8355524,5.364154,1.9699756,-1.0380335,6.102035,-3.2273839,-6.4308257,1.7621324
0.8393457,5.3707166,1.870906,-1.0849051,5.755824,-3.1364043,-6.339846,1.9297266
0.84312224,5.377363,1.870906,-1.0849051,5.755824,-3.1364043,-6.339846,1.9297266
0.84656817,5.38377,1.7824891,-1.1243199,5.425592,-3.0789435,-6.229713,2.087744
0.85001105,5.39028,1.7824891,-1.1243199,5.425592,-3.0789435,-6.229713,2.087744
0.85313874,5.3965464,1.6983331,-1.1552126,5.111339,-3.0597897,-6.172252,2.4229321
0.8562445,5.402871,1.6983331,-1.1552126,5.111339,-3.0597897,-6.172252,2.4229321
0.8590726,5.4089584,1.6205689,-1.1733221,4.8151956,-3.083732,-6.196194,2.6862943
0.8618938,5.4151287,1.6205689,-1.1733221,4.8151956,-3.083732,-6.196194,2.6862943
0.8644638,5.4210587,1.5470656,-1.180779,4.5382266,-3.1507695,-6.277597,2.9592333
0.8670116,5.427029,1.5470656,-1.180779,4.5382266,-3.1507695,-6.277597,2.9592333
0.86933625,5.4327717,1.4831498,-1.1775832,4.282563,-3.0597897,-6.244078,3.2273839
0.87165374,5.4385843,1.4831498,-1.1775832,4.282563,-3.0597897,-6.244078,3.2273839
0.8737726,5.444152,1.4256254,-1.1637347,4.051401,-3.0789435,-6.253655,3.3806129
0.8758891,5.4497952,1.4256254,-1.1637347,4.051401,-3.0789435,-6.253655,3.3806129
0.87783206,5.455205,1.3798192,-1.1413642,3.8404787,-3.0550013,-6.2009826,3.4715924
0.87976104,5.4606533,1.3798192,-1.1413642,3.8404787,-3.0550013,-6.2009826,3.4715924
0.881547,5.4658937,1.3425349,-1.1115367,3.652992,-2.9831753,-6.081272,3.4811692
0.88332665,5.47119,1.3425349,-1.1115367,3.652992,-2.9831753,-6.081272,3.4811692
0.8849873,5.476288,1.3127074,-1.0742525,3.4857454,-2.9161377,-5.961562,3.4380736
0.88663507,5.4814186,1.3127074,-1.0742525,3.4857454,-2.9161377,-5.961562,3.4380736
0.8881835,5.4863696,1.2903368,-1.031642,3.3376737,-2.906561,-5.7125654,3.4284968
0.8897246,5.4913664,1.2903368,-1.031642,3.3376737,-2.906561,-5.7125654,3.4284968
0.89118475,5.4961977,1.2711622,-0.9826398,3.2034504,-2.896984,-5.3247046,3.4141316
0.8926336,5.5010576,1.2711622,-0.9826398,3.2034504,-2.896984,-5.3247046,3.4141316
0.8940188,5.505757,1.2530526,-0.92724603,3.0862713,-2.8921957,-4.975151,3.4045548
0.89539945,5.510501,1.2530526,-0.92724603,3.0862713,-2.8921957,-4.975151,3.4045548
0.89673275,5.515088,1.2338779,-0.8633302,2.9808102,-2.954445,-4.6351743,3.4620156
0.89805627,5.5197005,1.2338779,-0.8633302,2.9808102,-2.954445,-4.6351743,3.4620156
0.8993472,5.5241566,1.2104421,-0.7930227,2.8860016,-3.016694,-4.237737,3.4715924
0.9006343,5.5286536,1.2104421,-0.7930227,2.8860016,-3.016694,-4.237737,3.4715924
0.90189743,5.53299,1.1827452,-0.71951944,2.7997153,-3.1316159,-3.9360676,3.5769374
0.90314054,5.5373096,1.1827452,-0.71951944,2.7997153,-3.1316159,-3.9360676,3.5769374
0.90438586,5.5415325,1.1507872,-0.6438857,2.7166245,-3.2225955,-3.6296098,3.6727054
0.9056418,5.5458403,1.1507872,-0.6438857,2.7166245,-3.2225955,-3.6296098,3.6727054
0.90687275,5.5499296,1.1156335,-0.56718665,2.6409907,-3.4237084,-3.371036,3.715801
0.9080949,5.5540357,1.1156335,-0.56718665,2.6409907,-3.4237084,-3.371036,3.715801
0.90931916,5.558,1.0762187,-0.49155286,2.5674875,-3.620033,-3.1986535,3.6870706
0.9105406,5.561996,1.0762187,-0.49155286,2.5674875,-3.620033,-3.1986535,3.6870706
0.91175777,5.5658197,1.0346735,-0.41698435,2.500376,-3.9312792,-3.0071173,3.6487634
0.91297376,5.5696774,1.0346735,-0.41698435,2.500376,-3.9312792,-3.0071173,3.6487634
0.9141876,5.5733776,0.99206287,-0.34880742,2.4353948,-4.074931,-2.9017725,3.6152446
0.9153944,5.5770917,0.99206287,-0.34880742,2.4353948,-4.074931,-2.9017725,3.6152446
0.91659987,5.5806684,0.9515828,-0.28808734,2.3746748,-4.209007,-2.7964275,3.6008794
0.9178047,5.5842757,0.9515828,-0.28808734,2.3746748,-4.209007,-2.7964275,3.6008794
0.9190064,5.58775,0.91003746,-0.23375887,2.3182156,-4.271256,-2.705448,3.5673606
0.9202007,5.5912337,0.91003746,-0.23375887,2.3182156,-4.271256,-2.705448,3.5673606
0.9213953,5.5946045,0.8706227,-0.1847567,2.2660177,-4.3478703,-2.6144683,3.6487634
0.9225902,5.598005,0.8706227,-0.1847567,2.2660177,-4.3478703,-2.6144683,3.6487634
0.9237815,5.601285,0.8344037,-0.13788506,2.2180808,-4.343082,-2.542642,3.620033
0.92497355,5.6045933,0.8344037,-0.13788506,2.2180808,-4.343082,-2.542642,3.620033
0.9261664,5.6077986,0.80031526,-0.09420922,2.1722744,-4.367024,-2.384625,3.643975
0.9297811,5.6174593,0.767292,-0.04946811,2.1307292,-4.405331,-2.303222,3.6343982
0.9297811,5.6174593,0.767292,-0.04946811,2.1307292,-4.405331,-2.303222,3.6343982
0.9297811,5.6174593,0.767292,-0.04946811,2.1307292,-4.405331,-2.303222,3.6343982
0.9297811,5.6174593,0.767292,-0.04946811,2.1307292,-4.405331,-2.303222,3.6343982
0.9297811,5.6174593,0.767292,-0.04946811,2.1307292,-4.405331,-2.303222,3.6343982
0.9333643,5.626551,0.7033762,0.04427516,2.0561607,-4.620809,-1.9393034,3.7924154
0.93463427,5.6296735,0.7033762,0.04427516,2.0561607,-4.620809,-1.9393034,3.7924154
0.93463427,5.6296735,0.67354876,0.09327733,2.0210068,-4.6591167,-1.661576,3.8307228
0.9371212,5.6355133,0.67354876,0.09327733,2.0210068,-4.6591167,-1.661576,3.8307228
0.93836427,5.6382866,0.64159083,0.14654055,1.9805268,-4.6830587,-1.340753,3.940856
0.9396349,5.641144,0.64159083,0.14654055,1.9805268,-4.6830587,-1.340753,3.940856
0.9409314,5.643886,0.60537183,0.20299956,1.9304594,-4.663905,-1.0151415,3.9025488
0.9422281,5.64665,0.60537183,0.20299956,1.9304594,-4.663905,-1.0151415,3.9025488
0.94353175,5.649248,0.561696,0.2615891,1.8654783,-4.582502,-0.62728083,3.892972
0.94353175,5.649248,0.561696,0.2615891,1.8654783,-4.582502,-0.62728083,3.892972
0.94613814,5.6543856,0.50949806,0.32017866,1.7791919,-4.3766007,-0.29688102,3.8786068
0.94613814,5.6543856,0.50949806,0.32017866,1.7791919,-4.3766007,-0.29688102,3.8786068
0.9487114,5.6590657,0.4391906,0.37983346,1.6630781,-4.156334,-0.01436521,3.739743
0.9487114,5.6590657,0.4391906,0.37983346,1.6630781,-4.156334,-0.01436521,3.739743
0.9512985,5.6633964,0.3550347,0.438423,1.5107453,-3.9695864,0.18195933,3.5529952
0.95249945,5.665267,0.3550347,0.438423,1.5107453,-3.9695864,0.18195933,3.5529952
0.9536428,5.6667995,0.25170404,0.49488202,1.3158019,-3.739743,0.19632454,3.5577838
0.9548218,5.6683874,0.25170404,0.49488202,1.3158019,-3.739743,0.19632454,3.5577838
0.95586115,5.6694984,0.13239443,0.5460147,1.0814437,-3.5051112,0,3.4237084
0.956908,5.670622,0.13239443,0.5460147,1.0814437,-3.5051112,0,3.4237084
0.9578154,5.6712523,0.00030163955,0.5886253,0.80873597,-3.371036,-0.5267244,3.4141316
0.9587235,5.671885,0.00030163955,0.5886253,0.80873597,-3.371036,-0.5267244,3.4141316
0.9594441,5.6719365,-0.14244379,0.62058324,0.49874398,-3.2130187,-1.2354081,3.4380736
0.9601637,5.671988,-0.14244379,0.62058324,0.49874398,-3.2130187,-1.2354081,3.4380736
0.9606765,5.6713924,-0.28731975,0.6429538,0.15892464,-3.1555579,-2.111686,3.5051112
0.9611884,5.6707973,-0.28731975,0.6429538,0.15892464,-3.1555579,-2.111686,3.5051112
0.96149975,5.6695437,-0.4268694,0.65893275,-0.1968737,-3.2225955,-3.0502129,3.5482068
0.96149975,5.6695437,-0.4268694,0.65893275,-0.1968737,-3.2225955,-3.0502129,3.5482068
0.9619351,5.666441,-0.5589622,0.6695854,-0.5633247,-3.4093432,-3.964798,3.6822822
0.9620383,5.6646066,-0.5589622,0.6695854,-0.5633247,-3.4093432,-3.964798,3.6822822
0.9619372,5.6621766,-0.675076,0.67491174,-0.92977566,-3.7062242,-4.807557,3.8546648
0.9618319,5.659734,-0.675076,0.67491174,-0.92977566,-3.7062242,-4.807557,3.8546648
0.9615211,5.656761,-0.77521086,0.67704225,-1.285574,-3.9360676,-5.583278,3.98874
0.9612055,5.653792,-0.77521086,0.67704225,-1.285574,-3.9360676,-5.583278,3.98874
0.96068645,5.6503525,-0.8551057,0.67704225,-1.6253934,-4.027047,-6.1195793,4.1419687
0.96016157,5.6469183,-0.8551057,0.67704225,-1.6253934,-4.027047,-6.1195793,4.1419687
0.9594385,5.643051,-0.9158258,0.67704225,-1.9439074,-4.146757,-6.517017,4.280833
0.95870924,5.6392007,-0.9158258,0.67704225,-1.9439074,-4.146757,-6.517017,4.280833
0.9577966,5.634971,-0.95843637,0.68023807,-2.2411163,-4.2521024,-6.6893997,4.2664676
0.9568716,5.6307416,-0.95843637,0.68023807,-2.2411163,-4.2521024,-6.6893997,4.2664676
0.9557699,5.626161,-0.98506796,0.68662965,-2.5159545,-4.2281604,-6.71813,4.185065
0.9546745,5.6216693,-0.98506796,0.68662965,-2.5159545,-4.2281604,-6.71813,4.185065
0.95341223,5.6168385,-1.0010469,0.7004781,-2.7705526,-4.285621,-6.588843,4.074931
0.9521396,5.6120367,-1.0010469,0.7004781,-2.7705526,-4.285621,-6.588843,4.074931
0.95071983,5.6069555,-1.009569,0.72178334,-3.0081067,-4.146757,-6.411672,3.9073372
0.9492854,5.6018972,-1.009569,0.72178334,-3.0081067,-4.146757,-6.411672,3.9073372
0.94771874,5.59659,-1.017026,0.75161076,-3.2296815,-4.027047,-6.1770406,3.8019924
0.94613415,5.5913043,-1.017026,0.75161076,-3.2296815,-4.027047,-6.1770406,3.8019924
0.94443107,5.58578,-1.0234175,0.79209083,-3.444865,-3.8738184,-6.129156,3.620033
0.94270843,5.58028,-1.0234175,0.79209083,-3.444865,-3.8738184,-6.129156,3.620033
0.9408717,5.574527,-1.0340701,0.84109294,-3.6547222,-3.7253778,-6.0285997,3.3327289
0.93901503,5.568807,-1.0340701,0.84109294,-3.6547222,-3.7253778,-6.0285997,3.3327289
0.9370467,5.5628443,-1.0489838,0.89861727,-3.8603182,-3.371036,-5.8801594,3.1507695
0.93505496,5.556912,-1.0489838,0.89861727,-3.8603182,-3.371036,-5.8801594,3.1507695
0.93295753,5.5507264,-1.0713544,0.9646636,-4.0669794,-2.992752,-5.693412,2.801216
0.93084097,5.5445933,-1.0713544,0.9646636,-4.0669794,-2.992752,-5.693412,2.801216
0.9285964,5.5381517,-1.1043776,1.0349711,-4.2810974,-2.5809495,-5.391742,2.4708161
0.9263463,5.531812,-1.1043776,1.0349711,-4.2810974,-2.5809495,-5.391742,2.4708161
0.9239653,5.5251455,-1.1459229,1.1106049,-4.5016074,-2.27928,-5.0374002,2.0638018
0.9215589,5.5185337,-1.1459229,1.1106049,-4.5016074,-2.27928,-5.0374002,2.0638018
0.9190254,5.5116234,-1.1991861,1.1894344,-4.7359657,-1.8339585,-4.783615,1.6376339
0.9164591,5.5047593,-1.1991861,1.1894344,-4.7359657,-1.8339585,-4.783615,1.6376339
0.9137506,5.497574,-1.2662978,1.2693293,-4.982042,-1.484405,-4.6495395,1.2737153
0.91100913,5.490447,-1.2662978,1.2693293,-4.982042,-1.484405,-4.6495395,1.2737153
0.9081102,5.482992,-1.3429968,1.3502893,-5.2398357,-1.1827357,-4.510676,1.0151415
0.9051763,5.475602,-1.3429968,1.3502893,-5.2398357,-1.1827357,-4.510676,1.0151415
0.9020719,5.4678807,-1.4271528,1.429119,-5.5061517,-1.0342951,-4.5537715,0.7757214
0.8989301,5.4602294,-1.4271528,1.429119,-5.5061517,-1.0342951,-4.5537715,0.7757214
0.8956132,5.4522476,-1.5177002,1.510079,-5.7745986,-1.0486604,-4.697424,0.5506664
0.8922423,5.444311,-1.5177002,1.510079,-5.7745986,-1.0486604,-4.697424,0.5506664
0.8887187,5.436117,-1.6114435,1.594235,-6.0366535,-1.0630256,-4.8506527,0.39264908
0.88514495,5.427989,-1.6114435,1.594235,-6.0366535,-1.0630256,-4.8506527,0.39264908
0.88139284,5.419561,-1.7073172,1.6794561,-6.2869906,-1.1779473,-4.951209,0.35913026
0.8775948,5.411222,-1.7073172,1.6794561,-6.2869906,-1.1779473,-4.951209,0.35913026
0.87363213,5.4026155,-1.8010606,1.767873,-6.5202837,-1.3551182,-4.999093,0.31603462
0.8696216,5.3941035,-1.8010606,1.767873,-6.5202837,-1.3551182,-4.999093,0.31603462
0.8654561,5.3853517,-1.8926733,1.8584205,-6.7344017,-1.4460979,-5.0134583,0.25378537
0.86124057,5.3766994,-1.8926733,1.8584205,-6.7344017,-1.4460979,-5.0134583,0.25378537
0.85687727,5.3678284,-1.9842861,1.9510986,-6.933606,-1.6519991,-4.9176903,0.31603462
0.85246646,5.3590717,-1.9842861,1.9510986,-6.933606,-1.6519991,-4.9176903,0.31603462
0.847919,5.350103,-2.0737681,2.0480375,-7.116832,-2.030283,-4.8458643,0.34476504
0.84331375,5.341234,-2.0737681,2.0480375,-7.116832,-2.030283,-4.8458643,0.34476504
0.83859485,5.3321996,-2.1643157,2.1471071,-7.284078,-2.4516625,-4.8458643,0.4309563
0.83381677,5.323268,-2.1643157,2.1471071,-7.284078,-2.4516625,-4.8458643,0.4309563
0.8289323,5.314169,-2.2559285,2.2493725,-7.43215,-2.882619,-4.807557,0.48841715
0.8239928,5.305185,-2.2559285,2.2493725,-7.43215,-2.882619,-4.807557,0.48841715
0.81895334,5.296036,-2.350737,2.3548338,-7.565308,-3.4045548,-4.951209,0.5506664
0.81386846,5.2870216,-2.350737,2.3548338,-7.565308,-3.4045548,-4.951209,0.5506664
0.8086906,5.2778473,-2.4476762,2.4592297,-7.686748,-4.2042184,-5.2959743,0.58897364
0.8034675,5.2688093,-2.4476762,2.4592297,-7.686748,-4.2042184,-5.2959743,0.58897364
0.7981512,5.259634,-2.5456805,2.557234,-7.786883,-4.855441,-5.765238,0.7230489
0.7927844,5.2505875,-2.5456805,2.557234,-7.786883,-4.855441,-5.765238,0.7230489
0.7873364,5.241449,-2.6426194,2.642455,-7.8657126,-5.209783,-6.1243677,0.89064306
0.7818326,5.2324305,-2.6426194,2.642455,-7.8657126,-5.209783,-6.1243677,0.89064306
0.776256,5.223342,-2.7384932,2.7159584,-7.9264326,-5.6982,-6.7133417,1.0055647
0.77062416,5.214374,-2.7384932,2.7159584,-7.9264326,-5.6982,-6.7133417,1.0055647
0.7649216,5.205358,-2.830106,2.778809,-7.972239,-5.81791,-7.1395097,0.9911995
0.7591643,5.1964607,-2.830106,2.778809,-7.972239,-5.81791,-7.1395097,0.9911995
0.7533576,5.1875687,-2.9142618,2.826746,-8.008458,-5.995081,-7.479486,1.0295067
0.7474863,5.1787753,-2.9142618,2.826746,-8.008458,-5.995081,-7.479486,1.0295067
0.7415125,5.1699295,-2.9930916,2.8661606,-8.041481,-5.932832,-7.7907324,0.9864111
0.7355099,5.161236,-2.9930916,2.8661606,-8.041481,-5.932832,-7.7907324,0.9864111
0.72943425,5.1525455,-3.0665948,2.8970535,-8.075569,-6.05733,-8.1642275,0.9816227
0.72330755,5.1439695,-3.0665948,2.8970535,-8.075569,-6.05733,-8.1642275,0.9816227
0.71710014,5.1354036,-3.136902,2.920489,-8.1149845,-6.009446,-8.403648,0.89064306
0.710843,5.1269507,-3.136902,2.920489,-8.1149845,-6.009446,-8.403648,0.89064306
0.7044914,5.118512,-3.2040138,2.9375334,-8.166117,-5.923255,-8.7053175,0.7469909
0.6980912,5.1101847,-3.2040138,2.9375334,-8.166117,-5.923255,-8.7053175,0.7469909
0.6915828,5.1018715,-3.268995,2.951382,-8.230033,-5.7604494,-8.935161,0.6607997
0.68502694,5.093668,-3.268995,2.951382,-8.230033,-5.7604494,-8.935161,0.6607997
0.6783458,5.085479,-3.3318455,2.9609692,-8.313124,-5.530606,-9.136273,0.4405331
0.6716186,5.0773993,-3.3318455,2.9609692,-8.313124,-5.530606,-9.136273,0.4405331
0.66474414,5.0693283,-3.3957615,2.968426,-8.41752,-5.3247046,-9.32781,0.36870706
0.65782464,5.061366,-3.3957615,2.968426,-8.41752,-5.3247046,-9.32781,0.36870706
0.65074325,5.053405,-3.4639385,2.9748178,-8.542155,-5.1810527,-9.533711,0.17238252
0.643618,5.0455513,-3.4639385,2.9748178,-8.542155,-5.1810527,-9.533711,0.17238252
0.6363095,5.0376973,-3.5342457,2.9769483,-8.6859665,-5.0421886,-9.739613,0.10055647
0.6289584,5.02995,-3.5342457,2.9769483,-8.6859665,-5.0421886,-9.739613,0.10055647
0.6213981,5.0222006,-3.6066837,2.975883,-8.853212,-4.9224787,-10.146626,0.08619126
0.61380357,5.0145655,-3.6066837,2.975883,-8.853212,-4.9224787,-10.146626,0.08619126
0.605973,5.0069065,-3.6833827,2.971622,-9.0385685,-4.9559975,-10.520123,-0.0047884034
0.5981174,4.9993696,-3.6833827,2.971622,-9.0385685,-4.9559975,-10.520123,-0.0047884034
0.59000415,4.991803,-3.7654083,2.968426,-9.244164,-5.0661306,-11.171345,-0.047884032
0.5818517,4.984342,-3.7654083,2.968426,-9.244164,-5.0661306,-11.171345,-0.047884032
0.57345986,4.976884,-3.8484988,2.9620345,-9.463609,-5.2720323,-11.927913,-0.01436521
0.56502134,4.969523,-3.8484988,2.9620345,-9.463609,-5.2720323,-11.927913,-0.01436521
0.5562626,4.9621053,-3.930524,2.9481862,-9.68625,-5.4204726,-12.650962,-0.05267244
0.54729974,4.954656,-3.930524,2.9481862,-9.68625,-5.4204726,-12.650962,-0.05267244
0.53858054,4.947626,-4.010419,2.9226198,-9.91102,-5.693412,-13.354857,0.038307227
0.5295838,4.9405003,-4.010419,2.9226198,-9.91102,-5.693412,-13.354857,0.038307227
0.5202859,4.9333715,-4.0796614,2.883205,-10.134726,-5.8705826,-14.06354,0.10055647
0.51095426,4.9263434,-4.0796614,2.883205,-10.134726,-5.8705826,-14.06354,0.10055647
0.5013678,4.919361,-4.1371856,2.8278112,-10.350974,-6.0525417,-14.513651,0.07182605
0.4917596,4.912483,-4.1371856,2.8278112,-10.350974,-6.0525417,-14.513651,0.07182605
0.48190615,4.9056673,-4.178731,2.7596343,-10.549113,-6.205771,-14.757859,0.038307227
0.47205374,4.898966,-4.178731,2.7596343,-10.549113,-6.205771,-14.757859,0.038307227
0.46195585,4.892334,-4.2021666,2.68187,-10.731274,-6.397307,-14.824897,0.062249243
0.45181254,4.8857803,-4.2021666,2.68187,-10.731274,-6.397307,-14.824897,0.062249243
0.44148022,4.8793344,-4.2106886,2.5945182,-10.894259,-6.670246,-14.800955,-0.009576807
0.43115702,4.8729944,-4.2106886,2.5945182,-10.894259,-6.670246,-14.800955,-0.009576807
0.420659,4.8667693,-4.207493,2.500775,-11.037004,-6.909666,-14.676456,-0.062249243
0.410132,4.8606205,-4.207493,2.500775,-11.037004,-6.909666,-14.676456,-0.062249243
0.39945504,4.8545985,-4.19471,2.4006402,-11.159511,-7.16824,-14.642938,0.16280572
0.38882768,4.8486915,-4.19471,2.4006402,-11.159511,-7.16824,-14.642938,0.16280572
0.3780265,4.842889,-4.175535,2.295179,-11.25645,-7.455544,-14.652514,0.30166942
0.3780265,4.842889,-4.175535,2.295179,-11.25645,-7.455544,-14.652514,0.30166942
0.35567135,4.831216,-4.151034,2.182261,-11.322495,-7.819463,-14.772224,0.5363012
0.35567135,4.831216,-4.151034,2.182261,-11.322495,-7.819463,-14.772224,0.5363012
0.33780548,4.822245,-4.122272,2.0640166,-11.358715,-8.1163435,-14.896723,0.7661445
0.3233249,4.815256,-4.122272,2.0640166,-11.358715,-8.1163435,-14.896723,0.7661445
0.31245014,4.810174,-4.0892487,1.9404459,-11.360846,-8.394072,-14.978126,0.89064306
0.30117688,4.8049746,-4.0892487,1.9404459,-11.360846,-8.394072,-14.978126,0.89064306
0.29036322,4.800118,-4.050899,1.81581,-11.3267565,-8.513782,-14.982914,0.93852705
0.27941567,4.79526,-4.050899,1.81581,-11.3267565,-8.513782,-14.982914,0.93852705
0.26871148,4.7906237,-4.0050926,1.6922393,-11.257515,-8.623915,-14.987702,1.0582372
0.25778717,4.785944,-4.0050926,1.6922393,-11.257515,-8.623915,-14.987702,1.0582372
0.24690977,4.7813873,-3.9518294,1.5686686,-11.156315,-8.485051,-14.915876,1.2018893
0.2360322,4.7768764,-3.9518294,1.5686686,-11.156315,-8.485051,-14.915876,1.2018893
0.22526132,4.772502,-3.8868484,1.4493589,-11.018895,-8.379706,-14.824897,1.4077905
0.21451288,4.7681766,-3.8868484,1.4493589,-11.018895,-8.379706,-14.824897,1.4077905
0.20385155,4.7639723,-3.809084,1.3332452,-10.848453,-8.226477,-14.714764,1.685518
0.19319224,4.759804,-3.809084,1.3332452,-10.848453,-8.226477,-14.714764,1.685518
0.1826988,4.7557874,-3.716406,1.2192619,-10.652444,-7.9487495,-14.628572,2.1212628
0.17226093,4.7518215,-3.716406,1.2192619,-10.652444,-7.9487495,-14.628572,2.1212628
0.16202913,4.7480106,-3.6130755,1.1084744,-10.428739,-7.6949644,-14.408306,2.4468741
0.1517504,4.7442064,-3.6130755,1.1084744,-10.428739,-7.6949644,-14.408306,2.4468741
0.14171219,4.7405615,-3.5001574,1.0019479,-10.184793,-7.4507556,-14.168885,2.681506
0.1316692,4.7369347,-3.5001574,1.0019479,-10.184793,-7.4507556,-14.168885,2.681506
0.12187151,4.7334614,-3.3808477,0.9028783,-9.928064,-7.2831616,-13.996503,2.9161377
0.112069994,4.730003,-3.3808477,0.9028783,-9.928064,-7.2831616,-13.996503,2.9161377
0.102533735,4.726701,-3.2562118,0.8112656,-9.662813,-7.120356,-13.924677,3.1555579
0.092975296,4.7234035,-3.2562118,0.8112656,-9.662813,-7.120356,-13.924677,3.1555579
0.08369326,4.720257,-3.1305106,0.7260444,-9.390106,-6.967127,-13.939042,3.2465374
0.07441809,4.717122,-3.1305106,0.7260444,-9.390106,-6.967127,-13.939042,3.2465374
0.06539881,4.714127,-3.0016136,0.6450843,-9.111007,-6.789956,-14.106636,3.347094
0.056386743,4.711142,-3.0016136,0.6450843,-9.111007,-6.789956,-14.106636,3.347094
0.047653556,4.7082996,-2.8716514,0.5651895,-8.8287115,-6.670246,-14.231135,3.4476504
0.038918987,4.705463,-2.8716514,0.5651895,-8.8287115,-6.670246,-14.231135,3.4476504
0.03046728,4.702767,-2.7384932,0.4842294,-8.545351,-6.493075,-14.283808,3.3662477
0.02201463,4.7000747,-2.7384932,0.4842294,-8.545351,-6.493075,-14.283808,3.3662477
0.013850119,4.697522,-2.6032047,0.402204,-8.25773,-6.26802,-14.207192,3.241749
0.0056850114,4.694972,-2.6032047,0.402204,-8.25773,-6.26802,-14.207192,3.241749
6.281006,4.6925664,-2.463655,0.3159176,-7.9658475,-6.172252,-14.121001,3.2273839
6.273125,4.690157,-2.463655,0.3159176,-7.9658475,-6.172252,-14.121001,3.2273839
6.2655535,4.6878943,-2.3198442,0.22856592,-7.67503,-6.14831,-14.015656,3.1364043
6.257974,4.685629,-2.3198442,0.22856592,-7.67503,-6.14831,-14.015656,3.1364043
6.2506924,4.683506,-2.1739032,0.13801843,-7.379952,-6.191406,-13.9151,3.1268275
6.243411,4.681382,-2.1739032,0.13801843,-7.379952,-6.191406,-13.9151,3.1268275
6.236437,4.6794004,-2.0258315,0.046405688,-7.0763516,-6.411672,-14.015656,3.1794999
6.2294626,4.677417,-2.0258315,0.046405688,-7.0763516,-6.411672,-14.015656,3.1794999
6.222807,4.6755776,-1.8745638,-0.04627232,-6.761033,-6.4882865,-14.188039,3.2800562
6.2161517,4.6737356,-1.8745638,-0.04627232,-6.761033,-6.4882865,-14.188039,3.2800562
6.209825,4.6720414,-1.7190351,-0.13788506,-6.4350624,-6.4643445,-14.326903,3.394978
6.203493,4.6703424,-1.7190351,-0.13788506,-6.4350624,-6.4643445,-14.326903,3.394978
6.197514,4.6687965,-1.5603108,-0.22736728,-6.0973735,-6.3589997,-14.5088625,3.4859576
6.1915236,4.6672435,-1.5603108,-0.22736728,-6.0973735,-6.3589997,-14.5088625,3.4859576
6.1858983,4.6658487,-1.3951948,-0.31578422,-5.747967,-6.129156,-14.657303,3.4859576
6.180268,4.6644483,-1.3951948,-0.31578422,-5.747967,-6.129156,-14.657303,3.4859576
6.1749988,4.66321,-1.2236872,-0.4010054,-5.390038,-5.7843914,-14.733917,3.5003228
6.16973,4.661967,-1.2236872,-0.4010054,-5.390038,-5.7843914,-14.733917,3.5003228
6.164824,4.6608934,-1.0447228,-0.4872918,-5.0299788,-5.281609,-14.714764,3.514688
6.159919,4.6598153,-1.0447228,-0.4872918,-5.0299788,-5.281609,-14.714764,3.514688
6.15538,4.6589103,-0.860432,-0.5746435,-4.6677885,-4.7405195,-14.633361,3.3901896
6.150837,4.658,-0.860432,-0.5746435,-4.6677885,-4.7405195,-14.633361,3.3901896
6.1466603,4.6572666,-0.6729455,-0.6609299,-4.3098598,-4.1515455,-14.580688,3.1986535
6.1424847,4.6565285,-0.6729455,-0.6609299,-4.3098598,-4.1515455,-14.580688,3.1986535
6.1386595,4.655971,-0.48226315,-0.7450858,-3.9615183,-3.4763808,-14.499286,3.0693667
6.1348195,4.655407,-0.48226315,-0.7450858,-3.9615183,-3.4763808,-14.499286,3.0693667
6.1313505,4.6550255,-0.29158083,-0.8292417,-3.6238294,-2.8299465,-14.408306,2.767697
6.127872,4.654639,-0.29158083,-0.8292417,-3.6238294,-2.8299465,-14.408306,2.767697
6.1247187,4.6544285,-0.10302901,-0.9102018,-3.2989237,-2.1883004,-14.264654,2.4516625
6.121566,4.6542144,-0.10302901,-0.9102018,-3.2989237,-2.1883004,-14.264654,2.4516625
6.1187224,4.6541734,0.08019647,-0.98370504,-2.9910624,-1.508347,-14.058752,2.1691468
6.1158795,4.654129,0.08019647,-0.98370504,-2.9910624,-1.508347,-14.058752,2.1691468
6.113328,4.654255,0.25809565,-1.0518819,-2.69918,-0.7182605,-13.934254,1.8148049
6.1107874,4.654376,0.25809565,-1.0518819,-2.69918,-0.7182605,-13.934254,1.8148049
6.1085043,4.6546597,0.42640743,-1.1115367,-2.425407,-0.1340753,-13.804967,1.484405
6.106223,4.6549397,0.42640743,-1.1115367,-2.425407,-0.1340753,-13.804967,1.484405
6.1041975,4.6553764,0.58726233,-1.1626694,-2.167613,0.5506664,-13.618219,1.2449849
6.1021743,4.65581,0.58726233,-1.1626694,-2.167613,0.5506664,-13.618219,1.2449849
6.100383,4.6563954,0.7406604,-1.2010189,-1.9268632,1.1540052,-13.417107,0.8331822
6.098595,4.6569767,0.7406604,-1.2010189,-1.9268632,1.1540052,-13.417107,0.8331822
6.0970187,4.6577044,0.8844711,-1.2287159,-1.6999619,1.6903064,-13.139379,0.50278234
6.0954432,4.658429,0.8844711,-1.2287159,-1.6999619,1.6903064,-13.139379,0.50278234
6.0940394,4.659296,1.020825,-1.2446948,-1.4879742,2.2697031,-12.799402,0.23942018
6.092637,4.660161,1.020825,-1.2446948,-1.4879742,2.2697031,-12.799402,0.23942018
6.0913477,4.661147,1.1507872,-1.2457601,-1.2866392,2.858677,-12.392388,-0.05267244
6.090018,4.662162,1.1507872,-1.2457601,-1.2866392,2.858677,-12.392388,-0.05267244
6.0888696,4.663207,1.2732927,-1.2340422,-1.0970222,3.2848446,-11.932701,-0.33518824
6.08772,4.664249,1.2732927,-1.2340422,-1.0970222,3.2848446,-11.932701,-0.33518824
6.0867267,4.665379,1.3883412,-1.2074106,-0.9223188,3.6583402,-11.492168,-0.5410896
6.0857215,4.666518,1.3883412,-1.2074106,-0.9223188,3.6583402,-11.492168,-0.5410896
6.0848765,4.667758,1.4948677,-1.1679958,-0.7593333,4.0078936,-10.989386,-0.6799533
6.08403,4.6689963,1.4948677,-1.1679958,-0.7593333,4.0078936,-10.989386,-0.6799533
6.08333,4.670337,1.5896763,-1.1189936,-0.60913104,4.333505,-10.457873,-0.7182605
6.082629,4.6716766,1.5896763,-1.1189936,-0.60913104,4.333505,-10.457873,-0.7182605
6.082062,4.673107,1.6717016,-1.0604041,-0.47171193,4.5633483,-10.012551,-0.79008657
6.0814934,4.674536,1.6717016,-1.0604041,-0.47171193,4.5633483,-10.012551,-0.79008657
6.081051,4.676052,1.742009,-0.9932924,-0.34068438,4.644751,-9.600749,-0.7469909
6.0806074,4.6775665,1.742009,-0.9932924,-0.34068438,4.644751,-9.600749,-0.7469909
6.080276,4.679156,1.8005986,-0.9197892,-0.22457057,4.6830587,-9.241618,-0.6895301
6.079942,4.680747,1.8005986,-0.9197892,-0.22457057,4.6830587,-9.241618,-0.6895301
6.079714,4.6823997,1.8453397,-0.83989435,-0.1159136,4.721366,-8.920795,-0.6655881
6.0794835,4.6840525,1.8453397,-0.83989435,-0.1159136,4.721366,-8.920795,-0.6655881
6.079352,4.68575,1.8794281,-0.75573844,-0.014713474,4.7309427,-8.614338,-0.7374141
6.0792184,4.6874504,1.8794281,-0.75573844,-0.014713474,4.7309427,-8.614338,-0.7374141
6.079177,4.689183,1.902864,-0.67051727,0.0790298,4.630386,-8.346188,-0.81881696
6.0791345,4.690917,1.902864,-0.67051727,0.0790298,4.630386,-8.346188,-0.81881696
6.079176,4.692675,1.9167124,-0.5895572,0.16425095,4.6591167,-8.0684595,-0.9672575
6.079217,4.6944323,1.9167124,-0.5895572,0.16425095,4.6591167,-8.0684595,-0.9672575
6.0793314,4.6962075,1.9241693,-0.5139234,0.2377542,4.644751,-7.920019,-1.0965444
6.0794454,4.697982,1.9241693,-0.5139234,0.2377542,4.644751,-7.920019,-1.0965444
6.0796237,4.6997633,1.9241693,-0.44681177,0.30060482,4.6926355,-7.699753,-1.3024458
6.079801,4.7015443,1.9241693,-0.44681177,0.30060482,4.6926355,-7.699753,-1.3024458
6.080034,4.703325,1.9177777,-0.39248326,0.35386804,4.7070007,-7.4507556,-1.4700398
6.0802665,4.705108,1.9177777,-0.39248326,0.35386804,4.7070007,-7.4507556,-1.4700398
6.0805416,4.706879,1.9039292,-0.3466769,0.3964786,4.7165775,-7.2544312,-1.5658079
6.0808163,4.7086496,1.9039292,-0.3466769,0.3964786,4.7165775,-7.2544312,-1.5658079
6.081131,4.7104073,1.8836892,-0.30832738,0.43163234,4.663905,-7.062895,-1.7621324
6.0814447,4.712161,1.8836892,-0.30832738,0.43163234,4.663905,-7.062895,-1.7621324
6.081786,4.713894,1.8581228,-0.2774347,0.45932922,4.745308,-6.8905125,-1.8579005
6.082127,4.7156267,1.8581228,-0.2774347,0.45932922,4.745308,-6.8905125,-1.8579005
6.082489,4.71733,1.8250997,-0.25080308,0.47850397,4.501099,-6.5984197,-1.8339585
6.082851,4.7190323,1.8250997,-0.25080308,0.47850397,4.501099,-6.5984197,-1.8339585
6.083225,4.7207,1.7846196,-0.23162833,0.4923524,4.5441947,-6.4547677,-1.8052281
6.0835986,4.7223687,1.7846196,-0.23162833,0.4923524,4.5441947,-6.4547677,-1.8052281
6.0839744,4.7239966,1.7377479,-0.21351884,0.49980927,4.6255975,-6.555324,-1.5993267
6.08435,4.7256265,1.7377479,-0.21351884,0.49980927,4.6255975,-6.555324,-1.5993267
6.0847344,4.7272077,1.6908764,-0.18901776,0.503005,4.2904096,-6.3446345,-1.661576
6.0851183,4.7287893,1.6908764,-0.18901776,0.503005,4.2904096,-6.3446345,-1.661576
6.0855074,4.7303214,1.6397437,-0.16451667,0.5051356,4.0414124,-6.1004257,-1.6472107
6.085897,4.731855,1.6397437,-0.16451667,0.5051356,4.0414124,-6.1004257,-1.6472107
6.0862885,4.733328,1.5832846,-0.14427665,0.5019398,3.8259344,-6.0046577,-1.7190368
6.08668,4.7348022,1.5832846,-0.14427665,0.5019398,3.8259344,-6.0046577,-1.7190368
6.0870657,4.736223,1.524695,-0.12616715,0.4955482,3.6583402,-5.923255,-1.6041151
6.0874505,4.7376413,1.524695,-0.12616715,0.4955482,3.6583402,-5.923255,-1.6041151
6.087828,4.739002,1.4618444,-0.11551451,0.48809135,3.6104562,-5.923255,-1.5275006
6.088205,4.7403603,1.4618444,-0.11551451,0.48809135,3.6104562,-5.923255,-1.5275006
6.088568,4.74166,1.3979286,-0.106992394,0.47637343,3.6391866,-5.9759274,-1.4413095
6.0889316,4.742961,1.3979286,-0.106992394,0.47637343,3.6391866,-5.9759274,-1.4413095
6.089282,4.744198,1.3361433,-0.1037966,0.462525,3.6391866,-5.9519854,-1.4939818
6.089633,4.745434,1.3361433,-0.1037966,0.462525,3.6391866,-5.9519854,-1.4939818
6.089964,4.7466125,1.2722274,-0.10060081,0.44867656,3.7588966,-5.9519854,-1.3599066
6.090295,4.7477913,1.2722274,-0.10060081,0.44867656,3.7588966,-5.9519854,-1.3599066
6.0906096,4.7489047,1.2051158,-0.09847028,0.43482813,3.940856,-5.961562,-1.3934253
6.090928,4.7500305,1.2051158,-0.09847028,0.43482813,3.940856,-5.961562,-1.3934253
6.091226,4.7510786,1.1358736,-0.09633975,0.42097968,4.074931,-5.9567738,-1.340753
6.0915203,4.7521124,1.1358736,-0.09633975,0.42097968,4.074931,-5.9567738,-1.340753
6.0917983,4.753094,1.0655661,-0.08888289,0.40393546,4.2425256,-5.995081,-1.2976574
6.0920763,4.7540765,1.0655661,-0.08888289,0.40393546,4.2425256,-5.995081,-1.2976574
6.092337,4.7549887,0.9931281,-0.078230254,0.38689122,4.414908,-6.0238113,-1.3551182
6.092598,4.755901,0.9931281,-0.078230254,0.38689122,4.414908,-6.0238113,-1.3551182
6.092838,4.756747,0.91962487,-0.060120758,0.36771646,4.582502,-6.019023,-1.316811
6.093078,4.757592,0.91962487,-0.060120758,0.36771646,4.582502,-6.019023,-1.316811
6.0933003,4.7583675,0.84505635,-0.037750203,0.34960696,4.6351743,-6.114791,-1.3072342
6.0933003,4.7583675,0.84505635,-0.037750203,0.34960696,4.6351743,-6.114791,-1.3072342
6.093743,4.75991,0.76835734,-0.011118591,0.3272364,4.6351743,-6.1387334,-1.283292
6.093946,4.7606206,0.76835734,-0.011118591,0.3272364,4.6351743,-6.1387334,-1.283292
6.0941396,4.7612953,0.6937888,0.018708814,0.30593112,4.4915223,-6.205771,-1.2401965
6.09431,4.7618866,0.6937888,0.018708814,0.30593112,4.4915223,-6.205771,-1.2401965
6.0944724,4.762455,0.6202856,0.049601484,0.28462583,4.31914,-6.3446345,-1.1061212
6.0946403,4.7630424,0.6202856,0.049601484,0.28462583,4.31914,-6.3446345,-1.1061212
6.0947795,4.7635326,0.54571706,0.07942889,0.26332054,4.084508,-6.4547677,-0.94331545
6.0949235,4.7640386,0.54571706,0.07942889,0.26332054,4.084508,-6.4547677,-0.94331545
6.095046,4.7644563,0.4743443,0.10819103,0.24627632,3.7924154,-6.6175733,-0.79487497
6.0951743,4.7648916,0.4743443,0.10819103,0.24627632,3.7924154,-6.6175733,-0.79487497
6.0952935,4.765262,0.4061674,0.13269211,0.2345584,3.4715924,-6.8091097,-0.6512229
6.0954127,4.765633,0.4061674,0.13269211,0.2345584,3.4715924,-6.8091097,-0.6512229
6.0955276,4.7659426,0.34225154,0.1539974,0.22710156,3.1555579,-6.9623384,-0.50278234
6.095642,4.7662525,0.34225154,0.1539974,0.22710156,3.1555579,-6.9623384,-0.50278234
6.095642,4.7662525,0.34225154,0.1539974,0.22710156,3.1555579,-6.9623384,-0.50278234
6.095866,4.766762,0.2825967,0.16997637,0.2228405,2.9400797,-7.144298,-0.35913026
6.095985,4.7669587,0.22933349,0.17849848,0.22390577,2.6623523,-7.297527,-0.29209262
6.096104,4.7671556,0.22933349,0.17849848,0.22390577,2.6623523,-7.297527,-0.29209262
6.096225,4.767314,0.1813966,0.17956375,0.23242788,2.5330653,-7.4363904,-0.08140286
6.0963445,4.767472,0.1813966,0.17956375,0.23242788,2.5330653,-7.4363904,-0.08140286
6.09648,4.767583,0.13878602,0.17530268,0.2441458,2.3702598,-7.560889,-0.02873042
6.0966153,4.767695,0.13878602,0.17530268,0.2441458,2.3702598,-7.560889,-0.02873042
6.0967655,4.7677712,0.102567025,0.16678058,0.26119003,2.303222,-7.752425,0.05746084
6.0969152,4.7678475,0.102567025,0.16678058,0.26119003,2.303222,-7.752425,0.05746084
6.097088,4.7678866,0.06954383,0.1539974,0.28249532,2.3558946,-7.848193,0.02873042
6.0972543,4.7679243,0.06954383,0.1539974,0.28249532,2.3558946,-7.848193,0.02873042
6.0974393,4.767945,0.040781688,0.1390837,0.30593112,2.384625,-7.9966335,0.15801731
6.09763,4.767966,0.040781688,0.1390837,0.30593112,2.384625,-7.9966335,0.15801731
6.0978365,4.7679605,0.016280606,0.12417,0.32936695,2.5139117,-8.078036,0.1388637
6.098042,4.767955,0.016280606,0.12417,0.32936695,2.5139117,-8.078036,0.1388637
6.0982656,4.7679353,-0.0039594183,0.11138682,0.3517375,2.6671407,-8.279149,0.19632454
6.09849,4.7679157,-0.0039594183,0.11138682,0.3517375,2.6671407,-8.279149,0.19632454
6.098736,4.7678785,-0.022068914,0.102864705,0.37410805,2.8203697,-8.51857,0.21068975
6.098984,4.767842,-0.022068914,0.102864705,0.37410805,2.8203697,-8.51857,0.21068975
6.0992484,4.767779,-0.04017841,0.09966891,0.39221755,2.9257145,-8.6813755,0.12928689
6.099509,4.767718,-0.04017841,0.09966891,0.39221755,2.9257145,-8.6813755,0.12928689
6.099783,4.7676463,-0.05509211,0.09966891,0.406066,3.064578,-8.896853,0.17717093
6.1000586,4.7675743,-0.05509211,0.09966891,0.406066,3.064578,-8.896853,0.17717093
6.1003475,4.767482,-0.06787529,0.10392997,0.4145881,3.1555579,-9.02614,0.062249243
6.1006365,4.7673893,-0.06787529,0.10392997,0.4145881,3.1555579,-9.02614,0.062249243
6.10093,4.7672863,-0.077462666,0.11245208,0.4177839,3.122039,-9.179369,0.05267244
6.1012235,4.7671833,-0.077462666,0.11245208,0.4177839,3.122039,-9.179369,0.05267244
6.101517,4.7670703,-0.08598478,0.12203947,0.41565338,3.169923,-9.370906,0.019153614
6.101811,4.7669573,-0.08598478,0.12203947,0.41565338,3.169923,-9.370906,0.019153614
6.102103,4.7668366,-0.091311105,0.13375737,0.41032705,3.1651347,-9.442732,-0.04309563
6.1023955,4.7667155,-0.091311105,0.13375737,0.41032705,3.1651347,-9.442732,-0.04309563
6.1026764,4.766596,-0.09557216,0.1476058,0.3996744,3.1172507,-9.533711,0.019153614
6.1029572,4.7664757,-0.09557216,0.1476058,0.3996744,3.1172507,-9.533711,0.019153614
6.1032233,4.7663574,-0.09876795,0.16038899,0.38582596,3.0262709,-9.691729,0.095768064
6.1034894,4.766239,-0.09876795,0.16038899,0.38582596,3.0262709,-9.691729,0.095768064
6.10374,4.7661266,-0.10089848,0.17530268,0.37197754,2.8921957,-9.787497,0.19153613
6.103991,4.7660136,-0.10089848,0.17530268,0.37197754,2.8921957,-9.787497,0.19153613
6.1042233,4.765908,-0.10196375,0.18915112,0.3549333,2.657564,-9.931149,0.31603462
6.104455,4.765802,-0.10196375,0.18915112,0.3549333,2.657564,-9.931149,0.31603462
6.104666,4.7657113,-0.10196375,0.20406483,0.33788908,2.4851813,-10.093954,0.4357447
6.1048775,4.765621,-0.10196375,0.20406483,0.33788908,2.4851813,-10.093954,0.4357447
6.1050696,4.7655606,-0.09876795,0.216848,0.32084483,2.2361844,-10.199299,0.5506664
6.105262,4.765501,-0.09876795,0.216848,0.32084483,2.2361844,-10.199299,0.5506664
6.1054864,4.7655206,-0.0945069,0.22856592,0.30486587,1.9776106,-10.290278,0.6464345
6.10571,4.765539,-0.0945069,0.22856592,0.30486587,1.9776106,-10.290278,0.6464345
6.1060324,4.76559,-0.08811531,0.23602276,0.2942132,1.8483237,-10.357317,0.62728083
6.1063504,4.7656417,-0.08811531,0.23602276,0.2942132,1.8483237,-10.357317,0.62728083
6.1067834,4.765619,-0.07852793,0.24134909,0.28249532,1.6089035,-10.429143,0.58418524
6.107216,4.7655964,-0.07852793,0.24134909,0.28249532,1.6089035,-10.429143,0.58418524
6.1076317,4.7656097,-0.06574476,0.24241436,0.27503845,1.4891934,-10.448297,0.6655881
6.1080456,4.7656236,-0.06574476,0.24241436,0.27503845,1.4891934,-10.448297,0.6655881
6.108463,4.765636,-0.05189632,0.2381533,0.26971215,1.3790601,-10.453085,0.641646
6.108882,4.7656484,-0.05189632,0.2381533,0.26971215,1.3790601,-10.453085,0.641646
6.109295,4.7656765,-0.035917353,0.22856592,0.2675816,1.3311762,-10.462662,0.6560113
6.1097064,4.765704,-0.035917353,0.22856592,0.2675816,1.3311762,-10.462662,0.6560113
6.1101213,4.7657404,-0.015677327,0.21258694,0.26651633,1.2545617,-10.491392,0.63206923
6.1105375,4.765777,-0.015677327,0.21258694,0.26651633,1.2545617,-10.491392,0.63206923
6.110944,4.765854,0.005627962,0.19447745,0.26864687,1.2641385,-10.477027,0.7326257
6.111349,4.7659307,0.005627962,0.19447745,0.26864687,1.2641385,-10.477027,0.7326257
6.111758,4.7660246,0.026933251,0.17317216,0.27290794,1.2641385,-10.491392,0.7326257
6.112167,4.766119,0.026933251,0.17317216,0.27290794,1.2641385,-10.491392,0.7326257
6.112583,4.766229,0.04823854,0.15293214,0.28036478,1.2785037,-10.433931,0.7134721
6.113,4.7663393,0.04823854,0.15293214,0.28036478,1.2785037,-10.433931,0.7134721
6.1134152,4.7664804,0.06954383,0.13162684,0.2910174,1.3455414,-10.419566,0.7565677
6.1138387,4.766625,0.06954383,0.13162684,0.2910174,1.3455414,-10.419566,0.7565677
6.1142564,4.7667866,0.091914386,0.11245208,0.30060482,1.3742718,-10.472239,0.7613561
6.114675,4.7669477,0.091914386,0.11245208,0.30060482,1.3742718,-10.472239,0.7613561
6.1151032,4.7671347,0.11428493,0.09434259,0.3123227,1.4030021,-10.443508,0.7661445
6.1155314,4.767321,0.11428493,0.09434259,0.3123227,1.4030021,-10.443508,0.7661445
6.1159687,4.767531,0.13559023,0.07836362,0.3272364,1.436521,-10.414778,0.7661445
6.116406,4.7677402,0.13559023,0.07836362,0.3272364,1.436521,-10.414778,0.7661445
6.116843,4.7679787,0.15583025,0.06558045,0.34215012,1.4508862,-10.457873,0.8283938
6.117279,4.7682166,0.15583025,0.06558045,0.34215012,1.4508862,-10.457873,0.8283938
6.1177387,4.7684665,0.17607027,0.053862542,0.3549333,1.4987702,-10.429143,0.7469909
6.1181974,4.7687163,0.17607027,0.053862542,0.3549333,1.4987702,-10.429143,0.7469909
6.1186624,4.7689886,0.19737557,0.04107937,0.36771646,1.5514427,-10.433931,0.7278373
6.1191278,4.7692623,0.19737557,0.04107937,0.36771646,1.5514427,-10.433931,0.7278373
6.1195674,4.769572,0.21655032,0.029361458,0.38263017,1.6472107,-10.433931,0.7278373
6.1200056,4.7698812,0.21655032,0.029361458,0.38263017,1.6472107,-10.433931,0.7278373
6.1203737,4.770214,0.23572509,0.017643549,0.3964786,1.7477672,-10.390836,0.7086837
6.1207376,4.770546,0.23572509,0.017643549,0.3964786,1.7477672,-10.390836,0.7086837
6.1210303,4.77085,0.25276932,0.008056169,0.4113923,1.8626889,-10.342952,0.6751649
6.1213217,4.771152,0.25276932,0.008056169,0.4113923,1.8626889,-10.342952,0.6751649
6.121608,4.771396,0.26981354,-0.0025964756,0.42417547,1.9632454,-10.25676,0.5602432
6.1218944,4.7716393,0.26981354,-0.0025964756,0.42417547,1.9632454,-10.25676,0.5602432
6.122194,4.7718835,0.283662,-0.012183856,0.4326976,2.030283,-10.237606,0.51714754
6.122493,4.772126,0.283662,-0.012183856,0.4326976,2.030283,-10.237606,0.51714754
6.122793,4.7723837,0.29324937,-0.019640706,0.43695867,2.1452048,-10.184934,0.50757074
6.1230936,4.7726407,0.29324937,-0.019640706,0.43695867,2.1452048,-10.184934,0.50757074
6.1233974,4.7729073,0.30283675,-0.026032293,0.44121972,2.1691468,-10.113108,0.50278234
6.1236954,4.7731686,0.30283675,-0.026032293,0.44121972,2.1691468,-10.113108,0.50278234
6.1239986,4.7734594,0.31135887,-0.028162822,0.4444155,2.2266076,-10.093954,0.5650316
6.124307,4.773755,0.31135887,-0.028162822,0.4444155,2.2266076,-10.093954,0.5650316
6.124613,4.774055,0.31668517,-0.027097559,0.4476113,2.1978772,-10.007763,0.5793968
6.1249166,4.774352,0.31668517,-0.027097559,0.4476113,2.1978772,-10.007763,0.5793968
6.125224,4.7746696,0.31988096,-0.026032293,0.44974184,2.1212628,-9.9550905,0.641646
6.1255336,4.7749887,0.31988096,-0.026032293,0.44974184,2.1212628,-9.9550905,0.641646
6.1258464,4.775318,0.32094625,-0.021771235,0.4508071,2.0829554,-9.931149,0.6703765
6.1258464,4.775318,0.32094625,-0.021771235,0.4508071,2.0829554,-9.931149,0.6703765
6.1264677,4.77597,0.3220115,-0.016444914,0.4508071,2.030283,-9.878476,0.6560113
6.1267757,4.776292,0.3220115,-0.016444914,0.4508071,2.030283,-9.878476,0.6560113
6.127092,4.77663,0.32094625,-0.012183856,0.4540029,1.982399,-9.844957,0.7038953
6.1274085,4.776967,0.32094625,-0.012183856,0.4540029,1.982399,-9.844957,0.7038953
6.1277256,4.7772927,0.31988096,-0.010053327,0.45826393,1.958457,-9.816227,0.6703765
6.128043,4.7776175,0.31988096,-0.010053327,0.45826393,1.958457,-9.816227,0.6703765
6.1283617,4.777931,0.3188157,-0.008988062,0.46039447,1.9536686,-9.77792,0.641646
6.128681,4.7782445,0.3188157,-0.008988062,0.46039447,1.9536686,-9.77792,0.641646
6.129005,4.7785707,0.31668517,-0.010053327,0.46359026,2.0159178,-9.840169,0.7038953
6.1293287,4.7788963,0.31668517,-0.010053327,0.46359026,2.0159178,-9.840169,0.7038953
6.1296563,4.7792125,0.31242412,-0.012183856,0.4689166,2.0590134,-9.80665,0.6943185
6.129985,4.7795286,0.31242412,-0.012183856,0.4689166,2.0590134,-9.80665,0.6943185
6.1303124,4.7798305,0.31029359,-0.015379649,0.46998185,2.135628,-9.821015,0.6560113
6.1306405,4.7801323,0.31029359,-0.015379649,0.46998185,2.135628,-9.821015,0.6560113
6.130969,4.780435,0.3070978,-0.019640706,0.4710471,2.231396,-9.849746,0.6895301
6.1312985,4.780739,0.3070978,-0.019640706,0.4710471,2.231396,-9.849746,0.6895301
6.1316295,4.7810316,0.30496728,-0.020705972,0.47424293,2.2122424,-9.80665,0.6560113
6.131962,4.781326,0.30496728,-0.020705972,0.47424293,2.2122424,-9.80665,0.6560113
6.1322947,4.781625,0.3017715,-0.021771235,0.47530818,2.2888567,-9.854534,0.7134721
6.132629,4.781925,0.3017715,-0.021771235,0.47530818,2.2888567,-9.854534,0.7134721
6.132979,4.782238,0.2985757,-0.0228365,0.47637343,2.327164,-9.821015,0.7374141
6.133302,4.782527,0.2985757,-0.0228365,0.47637343,2.327164,-9.821015,0.7374141
6.133631,4.7828183,0.2953799,-0.019640706,0.47637343,2.3223755,-9.797073,0.7422025
6.133964,4.7831125,0.2953799,-0.019640706,0.47637343,2.3223755,-9.797073,0.7422025
6.1342983,4.7834,0.2921841,-0.014314385,0.47637343,2.303222,-9.758766,0.7038953
6.134632,4.783686,0.2921841,-0.014314385,0.47637343,2.303222,-9.758766,0.7038953
6.1349673,4.7839622,0.28792304,-0.010053327,0.47637343,2.3223755,-9.715671,0.6607997
6.1353016,4.784238,0.28792304,-0.010053327,0.47637343,2.3223755,-9.715671,0.6607997
6.135639,4.7845306,0.28472725,-0.0047270046,0.47743872,2.27928,-9.667787,0.78050977
6.1359773,4.784824,0.28472725,-0.0047270046,0.47743872,2.27928,-9.667787,0.78050977
6.136317,4.7851152,0.2825967,0.0027298466,0.47850397,2.207454,-9.682152,0.7757214
6.1366553,4.7854056,0.2825967,0.0027298466,0.47850397,2.207454,-9.682152,0.7757214
6.1369944,4.7856956,0.2772704,0.009121433,0.47850397,2.1212628,-9.639056,0.79487497
6.137335,4.785987,0.2772704,0.009121433,0.47850397,2.1212628,-9.639056,0.79487497
6.137679,4.7862787,0.27300933,0.01551302,0.4806345,1.9919758,-9.629479,0.79966336
6.137679,4.7862787,0.27300933,0.01551302,0.4806345,1.9919758,-9.629479,0.79966336
6.137679,4.7862787,0.27300933,0.01551302,0.4806345,1.9919758,-9.629479,0.79966336
6.138768,4.7872334,0.26768303,0.020839343,0.48169976,1.8626889,-9.600749,0.92416185
6.139169,4.7875814,0.26342195,0.026165664,0.48276502,1.733402,-9.595961,0.9528923
6.13955,4.7879105,0.26342195,0.026165664,0.48276502,1.733402,-9.595961,0.9528923
6.1399584,4.788255,0.2591609,0.031491987,0.4859608,1.661576,-9.595961,0.94810385
6.1403456,4.788582,0.2591609,0.031491987,0.4859608,1.661576,-9.595961,0.94810385
6.1407995,4.7889357,0.2559651,0.035753045,0.4923524,1.5131354,-9.586384,0.9959879
6.141228,4.789271,0.2559651,0.035753045,0.4923524,1.5131354,-9.586384,0.9959879
6.14171,4.789623,0.25276932,0.040014103,0.5008745,1.460463,-9.615114,1.091756
6.1421876,4.7899723,0.25276932,0.040014103,0.5008745,1.460463,-9.615114,1.091756
6.142714,4.7903233,0.25170404,0.04427516,0.5104619,1.316811,-9.5385,1.043872
6.1432395,4.7906747,0.25170404,0.04427516,0.5104619,1.316811,-9.5385,1.043872
6.143769,4.791025,0.24957353,0.046405688,0.5211145,1.3503298,-9.648633,1.0582372
6.1442943,4.7913737,0.24957353,0.046405688,0.5211145,1.3503298,-9.648633,1.0582372
6.144825,4.791722,0.24744299,0.04853622,0.5285714,1.3790601,-9.797073,1.0965444
6.1453547,4.7920704,0.24744299,0.04853622,0.5285714,1.3790601,-9.797073,1.0965444
6.1459374,4.792414,0.24850826,0.050666746,0.5381588,1.2641385,-9.77792,0.9959879
6.1465187,4.7927585,0.24850826,0.050666746,0.5381588,1.2641385,-9.77792,0.9959879
6.1470933,4.793106,0.24957353,0.047470953,0.54455036,1.292869,-9.672575,0.92895025
6.1476645,4.793454,0.24957353,0.047470953,0.54455036,1.292869,-9.672575,0.92895025
6.14833,4.7937584,0.25063878,0.04214463,0.54668087,1.2593501,-9.600749,0.80445176
6.148996,4.7940617,0.25063878,0.04214463,0.54668087,1.2593501,-9.600749,0.80445176
6.1495547,4.794407,0.24744299,0.03468778,0.54241985,1.2880806,-9.581595,0.8475474
6.1501064,4.7947526,0.24744299,0.03468778,0.54241985,1.2880806,-9.581595,0.8475474
6.1506505,4.7950897,0.24211667,0.0251004,0.53602827,1.283292,-9.624691,0.89064306
6.1511927,4.795429,0.24211667,0.0251004,0.53602827,1.283292,-9.624691,0.89064306
6.151662,4.795755,0.23679034,0.014447756,0.52217984,1.364695,-9.753978,0.92416185
6.152127,4.796079,0.23679034,0.014447756,0.52217984,1.364695,-9.753978,0.92416185
6.1525126,4.796357,0.23039876,0.00592564,0.50620085,1.4030021,-9.753978,0.866701
6.152895,4.796632,0.23039876,0.00592564,0.50620085,1.4030021,-9.753978,0.866701
6.1532497,4.7968874,0.22720297,-0.0015312112,0.48809135,1.4700398,-9.849746,0.8762778
6.153603,4.7971406,0.22720297,-0.0015312112,0.48809135,1.4700398,-9.849746,0.8762778
6.1539297,4.7973533,0.22187665,-0.007922798,0.4689166,1.508347,-9.864111,0.8331822
6.1542563,4.7975645,0.22187665,-0.007922798,0.4689166,1.508347,-9.864111,0.8331822
6.154564,4.797789,0.21548507,-0.010053327,0.44867656,1.508347,-9.931149,0.8714894
6.1548715,4.798012,0.21548507,-0.010053327,0.44867656,1.508347,-9.931149,0.8714894
6.155155,4.798221,0.211224,-0.011118591,0.426306,1.5562311,-9.892841,0.8571242
6.1554394,4.798429,0.211224,-0.011118591,0.426306,1.5562311,-9.892841,0.8571242
6.1556997,4.7986183,0.20696294,-0.010053327,0.40180492,1.5658079,-9.89763,0.8283938
6.15596,4.798806,0.20696294,-0.010053327,0.40180492,1.5658079,-9.89763,0.8283938
6.1561995,4.7990236,0.20163663,-0.010053327,0.37836912,1.5514427,-9.825804,0.89543146
6.1564384,4.7992396,0.20163663,-0.010053327,0.37836912,1.5514427,-9.825804,0.89543146
6.1566544,4.7994356,0.19844083,-0.011118591,0.35812908,1.5131354,-9.782708,0.8571242
6.1568704,4.799631,0.19844083,-0.011118591,0.35812908,1.5131354,-9.782708,0.8571242
6.157066,4.7998133,0.19417977,-0.012183856,0.33788908,1.4460979,-9.792285,0.8475474
6.1572623,4.7999945,0.19417977,-0.012183856,0.33788908,1.4460979,-9.792285,0.8475474
6.1574655,4.8002377,0.18991871,-0.015379649,0.31977957,1.3742718,-9.720459,0.92416185
6.1576676,4.800479,0.18991871,-0.015379649,0.31977957,1.3742718,-9.720459,0.92416185
6.1578684,4.800728,0.18565765,-0.021771235,0.3038006,1.4030021,-9.643845,0.9768343
6.158068,4.8009768,0.18565765,-0.021771235,0.3038006,1.4030021,-9.643845,0.9768343
6.1582904,4.801238,0.18033133,-0.027097559,0.2920827,1.3263878,-9.591172,1.0007763
6.1585107,4.8014994,0.18033133,-0.027097559,0.2920827,1.3263878,-9.591172,1.0007763
6.1587753,4.8017664,0.175005,-0.031358615,0.28143004,1.2258313,-9.548077,1.0247183
6.159038,4.8020334,0.175005,-0.031358615,0.28143004,1.2258313,-9.548077,1.0247183
6.1592994,4.8023005,0.175005,-0.031358615,0.28143004,1.2258313,-9.548077,1.0247183
6.159571,4.8025637,0.17180921,-0.037750203,0.2739732,1.1875241,-9.519346,1.1061212
6.1598415,4.802827,0.17180921,-0.037750203,0.2739732,1.1875241,-9.519346,1.1061212
6.1601176,4.8030844,0.1664829,-0.04201126,0.26971215,1.1540052,-9.500193,1.1492168
6.160392,4.8033414,0.1664829,-0.04201126,0.26971215,1.1540052,-9.500193,1.1492168
6.1606736,4.8035936,0.1632871,-0.04946811,0.26864687,1.1204864,-9.44752,1.1444284
6.160958,4.8038497,0.1632871,-0.04946811,0.26864687,1.1204864,-9.44752,1.1444284
6.1612344,4.8040953,0.16009131,-0.05692496,0.27184266,1.115698,-9.41879,1.1971009
6.1615133,4.804343,0.16009131,-0.05692496,0.27184266,1.115698,-9.41879,1.1971009
6.1618156,4.8045835,0.15476498,-0.06544708,0.27823424,1.0486604,-9.370906,1.1875241
6.1621175,4.804824,0.15476498,-0.06544708,0.27823424,1.0486604,-9.370906,1.1875241
6.1623993,4.8050623,0.15156919,-0.07503446,0.2888869,1.1348516,-9.303867,1.1923125
6.162682,4.805301,0.15156919,-0.07503446,0.2888869,1.1348516,-9.303867,1.1923125
6.1629643,4.805539,0.15156919,-0.0856871,0.30060482,1.1587936,-9.299079,1.1109096
6.163257,4.805784,0.15156919,-0.09740501,0.31445324,1.1971009,-9.260772,1.1444284
6.1635284,4.806012,0.15156919,-0.09740501,0.31445324,1.1971009,-9.260772,1.1444284
6.1638002,4.8062415,0.15156919,-0.09740501,0.31445324,1.1971009,-9.260772,1.1444284
6.1640806,4.806473,0.15156919,-0.108057655,0.33149746,1.2545617,-9.193734,1.1923125
6.164361,4.8067045,0.15156919,-0.108057655,0.33149746,1.2545617,-9.193734,1.1923125
6.1646276,4.806923,0.15156919,-0.1187103,0.34960696,1.3311762,-9.160215,1.1540052
6.164895,4.8071427,0.15156919,-0.1187103,0.34960696,1.3311762,-9.160215,1.1540052
6.1651545,4.8073483,0.15156919,-0.12723242,0.36771646,1.4269443,-9.165004,1.1252748
6.1654134,4.8075533,0.15156919,-0.12723242,0.36771646,1.4269443,-9.165004,1.1252748
6.1656866,4.8077517,0.15050393,-0.133624,0.38902175,1.5179238,-9.126697,1.1587936
6.1659594,4.80795,0.15050393,-0.133624,0.38902175,1.5179238,-9.126697,1.1587936
6.166244,4.808141,0.14943866,-0.1368198,0.40713125,1.6041151,-9.097966,1.1731589
6.1665277,4.808332,0.14943866,-0.1368198,0.40713125,1.6041151,-9.097966,1.1731589
6.1668124,4.8085012,0.1483734,-0.1368198,0.426306,1.6903064,-9.030929,1.0726024
6.167097,4.80867,0.1483734,-0.1368198,0.426306,1.6903064,-9.030929,1.0726024
6.1673975,4.80883,0.14730814,-0.13468927,0.44654605,1.6950948,-9.002198,1.0295067
6.1676974,4.8089895,0.14730814,-0.13468927,0.44654605,1.6950948,-9.002198,1.0295067
6.168013,4.8091416,0.14304708,-0.12936294,0.46359026,1.7764976,-8.935161,1.0247183
6.168329,4.8092933,0.14304708,-0.12936294,0.46359026,1.7764976,-8.935161,1.0247183
6.168657,4.8094225,0.1366555,-0.122971356,0.4806345,1.8100165,-8.935161,0.93373865
6.168984,4.8095512,0.1366555,-0.122971356,0.4806345,1.8100165,-8.935161,0.93373865
6.169328,4.80968,0.12919864,-0.11551451,0.49448293,1.7812861,-8.939949,0.9720459
6.169674,4.8098097,0.12919864,-0.11551451,0.49448293,1.7812861,-8.939949,0.9720459
6.170025,4.8099155,0.119611256,-0.106992394,0.5051356,1.7190368,-8.944737,0.89543146
6.1703773,4.8100214,0.119611256,-0.106992394,0.5051356,1.7190368,-8.944737,0.89543146
6.170739,4.8101215,0.11002388,-0.09847028,0.5136577,1.7477672,-8.963891,0.91458505
6.1711016,4.810222,0.11002388,-0.09847028,0.5136577,1.7477672,-8.963891,0.91458505
6.17147,4.8103137,0.09830597,-0.091013424,0.5200493,1.70946,-8.992621,0.92895025
6.17184,4.8104053,0.09830597,-0.091013424,0.5200493,1.70946,-8.992621,0.92895025
6.172217,4.8104897,0.089783855,-0.08675237,0.52644086,1.6424223,-9.006987,0.92895025
6.172593,4.8105736,0.089783855,-0.08675237,0.52644086,1.6424223,-9.006987,0.92895025
6.172972,4.810642,0.08019647,-0.08249131,0.5296367,1.6041151,-9.006987,0.90021986
6.173352,4.81071,0.08019647,-0.08249131,0.5296367,1.6041151,-9.006987,0.90021986
6.173736,4.810773,0.07273962,-0.08142605,0.534963,1.6280571,-9.006987,0.90979666
6.1741204,4.8108354,0.07273962,-0.08142605,0.534963,1.6280571,-9.006987,0.90979666
6.1745067,4.8108816,0.06634804,-0.08249131,0.5370935,1.5993267,-9.069236,0.8714894
6.174893,4.8109274,0.06634804,-0.08249131,0.5370935,1.5993267,-9.069236,0.8714894
6.175283,4.8109846,0.061021715,-0.08249131,0.539224,1.5897499,-9.021352,0.93852705
6.1756725,4.811042,0.061021715,-0.08249131,0.539224,1.5897499,-9.021352,0.93852705
6.1760645,4.811089,0.055695392,-0.08462184,0.54241985,1.6184803,-9.035717,0.92416185
6.1764565,4.8111367,0.055695392,-0.08462184,0.54241985,1.6184803,-9.035717,0.92416185
6.1768503,4.811171,0.051434334,-0.08781763,0.54455036,1.6280571,-9.030929,0.8858546
6.1772437,4.8112054,0.051434334,-0.08781763,0.54455036,1.6280571,-9.030929,0.8858546
6.1776357,4.811223,0.04610801,-0.09207869,0.5456156,1.6232687,-9.035717,0.8331822
6.1780314,4.81124,0.04610801,-0.09207869,0.5456156,1.6232687,-9.035717,0.8331822
6.178425,4.811252,0.040781688,-0.095274486,0.5456156,1.6041151,-9.059659,0.8379706
6.1788187,4.811264,0.040781688,-0.095274486,0.5456156,1.6041151,-9.059659,0.8379706
6.1792097,4.811282,0.03652063,-0.09740501,0.54241985,1.5849615,-9.030929,0.8810662
6.1795993,4.8112993,0.03652063,-0.09740501,0.54241985,1.5849615,-9.030929,0.8810662
6.179992,4.8113112,0.033324838,-0.09847028,0.54455036,1.6184803,-9.059659,0.8714894
6.1803837,4.811323,0.033324838,-0.09847028,0.54455036,1.6184803,-9.059659,0.8714894
6.1807804,4.811331,0.02906378,-0.09953554,0.5477462,1.5658079,-9.112331,0.8810662
6.181176,4.8113394,0.02906378,-0.09953554,0.5477462,1.5658079,-9.112331,0.8810662
6.1815886,4.811368,0.025867987,-0.09847028,0.5477462,1.5897499,-9.14585,0.9911995
6.181972,4.811395,0.025867987,-0.09847028,0.5477462,1.5897499,-9.14585,0.9911995
6.1823726,4.811412,0.024802722,-0.09633975,0.55307245,1.5897499,-9.14585,0.94331545
6.182773,4.811429,0.024802722,-0.09633975,0.55307245,1.5897499,-9.14585,0.94331545
6.183182,4.811449,0.022672193,-0.09207869,0.5583988,1.5801731,-9.208099,0.9720459
6.1835885,4.811469,0.022672193,-0.09207869,0.5583988,1.5801731,-9.208099,0.9720459
6.184001,4.8114867,0.020541664,-0.08675237,0.56265986,1.6280571,-9.26556,0.9768343
6.184413,4.8115044,0.020541664,-0.08675237,0.56265986,1.6280571,-9.26556,0.9768343
6.1848288,4.811517,0.018411135,-0.079295516,0.5658557,1.661576,-9.32781,0.9672575
6.185246,4.81153,0.018411135,-0.079295516,0.5658557,1.661576,-9.32781,0.9672575
6.1856613,4.811551,0.017345872,-0.07396919,0.5637251,1.6759412,-9.337387,1.0199299
6.18608,4.811572,0.017345872,-0.07396919,0.5637251,1.6759412,-9.337387,1.0199299
6.1864924,4.811575,0.017345872,-0.066512346,0.56265986,1.7190368,-9.409213,0.91937345
6.1869044,4.811578,0.017345872,-0.066512346,0.56265986,1.7190368,-9.409213,0.91937345
6.187317,4.8115735,0.017345872,-0.05692496,0.5583988,1.7669208,-9.41879,0.8714894
6.1877275,4.811569,0.017345872,-0.05692496,0.5583988,1.7669208,-9.41879,0.8714894
6.188132,4.811555,0.016280606,-0.050533377,0.5498767,1.7956513,-9.519346,0.81402856
6.1885347,4.81154,0.016280606,-0.050533377,0.5498767,1.7956513,-9.519346,0.81402856
6.18893,4.8115215,0.0141500775,-0.043076526,0.5370935,1.8195933,-9.581595,0.79487497
6.1893234,4.8115025,0.0141500775,-0.043076526,0.5370935,1.8195933,-9.581595,0.79487497
6.1897097,4.8114653,0.010954284,-0.035619672,0.52217984,1.8722657,-9.586384,0.6560113
6.190095,4.811428,0.010954284,-0.035619672,0.52217984,1.8722657,-9.586384,0.6560113
6.190473,4.8113775,0.008823755,-0.029228088,0.50407034,1.9440918,-9.591172,0.50278234
6.1908503,4.8113265,0.008823755,-0.029228088,0.50407034,1.9440918,-9.591172,0.50278234
6.191202,4.811279,0.003497433,-0.020705972,0.48276502,2.0159178,-9.610326,0.5554548
6.1915536,4.8112307,0.003497433,-0.020705972,0.48276502,2.0159178,-9.610326,0.5554548
6.1918836,4.811174,-0.0018288894,-0.01324912,0.45719868,1.9967642,-9.610326,0.50757074
6.192212,4.8111176,-0.0018288894,-0.01324912,0.45719868,1.9967642,-9.610326,0.50757074
6.192212,4.8111176,-0.0018288894,-0.01324912,0.45719868,1.9967642,-9.610326,0.50757074
6.192212,4.8111176,-0.0018288894,-0.01324912,0.45719868,1.9967642,-9.610326,0.50757074
6.1929455,4.8109326,-0.018873122,0.00592564,0.3964786,2.0111294,-9.610326,0.5410896
6.193295,4.810845,-0.018873122,0.00592564,0.3964786,2.0111294,-9.610326,0.5410896
6.1935277,4.8107715,-0.0284605,0.016578285,0.36132488,1.9153614,-9.65821,0.59855044
6.1937566,4.810699,-0.0284605,0.016578285,0.36132488,1.9153614,-9.65821,0.59855044
6.193949,4.810627,-0.039113145,0.030426722,0.32510588,1.8100165,-9.706094,0.7278373
6.193949,4.810627,-0.039113145,0.030426722,0.32510588,1.8100165,-9.706094,0.7278373
6.194165,4.810547,-0.048700526,0.046405688,0.2910174,1.5658079,-9.816227,0.770933
6.1944604,4.8103743,-0.057222642,0.060254127,0.2590595,1.460463,-9.859323,0.82360536
6.1944604,4.8103743,-0.057222642,0.060254127,0.2590595,1.460463,-9.859323,0.82360536
6.1944604,4.8103743,-0.057222642,0.060254127,0.2590595,1.460463,-9.859323,0.82360536
6.1944604,4.8103743,-0.057222642,0.060254127,0.2590595,1.460463,-9.859323,0.82360536
6.19486,4.810009,-0.06361423,0.073037304,0.22923209,1.3072342,-9.873688,0.8523358
6.194951,4.8099003,-0.06681002,0.08368994,0.20579627,1.1492168,-9.92636,0.89064306
6.195034,4.8098006,-0.06681002,0.08368994,0.20579627,1.1492168,-9.92636,0.89064306
6.1950927,4.809711,-0.06894055,0.090081535,0.18555625,1.0534488,-9.873688,0.92895025
6.195152,4.8096213,-0.06894055,0.090081535,0.18555625,1.0534488,-9.873688,0.92895025
6.195221,4.809496,-0.06894055,0.09327733,0.16851202,0.9528923,-9.825804,0.90979666
6.195289,4.809371,-0.06894055,0.09327733,0.16851202,0.9528923,-9.825804,0.90979666
6.1954474,4.809212,-0.06681002,0.09327733,0.15466358,0.8619126,-9.730036,0.93373865
6.1955924,4.809053,-0.06681002,0.09327733,0.15466358,0.8619126,-9.730036,0.93373865
6.195857,4.808937,-0.06467949,0.090081535,0.14081514,0.7422025,-9.643845,0.8810662
6.19612,4.8088217,-0.06467949,0.090081535,0.14081514,0.7422025,-9.643845,0.8810662
6.1963973,4.808742,-0.062548965,0.08368994,0.13229302,0.6847417,-9.629479,0.90500826
6.196673,4.8086634,-0.062548965,0.08368994,0.13229302,0.6847417,-9.629479,0.90500826
6.1969385,4.8086386,-0.060418434,0.07516783,0.1269667,0.60333884,-9.65821,0.9864111
6.1972065,4.808614,-0.060418434,0.07516783,0.1269667,0.60333884,-9.65821,0.9864111
6.197463,4.8085995,-0.057222642,0.06664571,0.12270564,0.5410896,-9.65821,1.0199299
6.197723,4.808585,-0.057222642,0.06664571,0.12270564,0.5410896,-9.65821,1.0199299
6.1979837,4.8085623,-0.05402685,0.054927804,0.120575115,0.49799395,-9.619903,0.9959879
6.1982436,4.8085394,-0.05402685,0.054927804,0.120575115,0.49799395,-9.619903,0.9959879
6.1984973,4.808528,-0.048700526,0.04214463,0.12164038,0.46926352,-9.648633,1.0247183
6.1987567,4.8085165,-0.048700526,0.04214463,0.12164038,0.46926352,-9.648633,1.0247183
6.1987567,4.8085165,-0.042308938,0.029361458,0.1269667,0.48841715,-9.682152,1.1061212
6.1992307,4.80855,-0.042308938,0.029361458,0.1269667,0.48841715,-9.682152,1.1061212
6.199478,4.808575,-0.034852087,0.014447756,0.13548881,0.5363012,-9.615114,1.0773908
6.1997194,4.8086,-0.034852087,0.014447756,0.13548881,0.5363012,-9.615114,1.0773908
6.1999884,4.808613,-0.027395237,-0.0015312112,0.14401093,0.5554548,-9.572019,1.0055647
6.2002583,4.8086257,-0.027395237,-0.0015312112,0.14401093,0.5554548,-9.572019,1.0055647
6.200541,4.8086405,-0.017807856,-0.018575443,0.15572885,0.5793968,-9.557653,0.9816227
6.2008243,4.8086553,-0.017807856,-0.018575443,0.15572885,0.5793968,-9.557653,0.9816227
6.2010884,4.8087144,-0.006089947,-0.035619672,0.16957727,0.6751649,-9.495404,0.9959879
6.201352,4.808774,-0.006089947,-0.035619672,0.16957727,0.6751649,-9.495404,0.9959879
6.201471,4.8088627,0.003497433,-0.05372917,0.18236046,0.80445176,-9.471462,0.9528923
6.201586,4.8089495,0.003497433,-0.05372917,0.18236046,0.80445176,-9.471462,0.9528923
6.2016416,4.8089314,0.013084813,-0.06970814,0.19940469,0.91937345,-9.414001,0.8858546
6.201698,4.808913,0.013084813,-0.06970814,0.19940469,0.91937345,-9.414001,0.8858546
6.201771,4.8089547,0.02160693,-0.08355658,0.21644892,1.0390835,-9.399636,0.9672575
6.201844,4.808996,0.02160693,-0.08355658,0.21644892,1.0390835,-9.399636,0.9672575
6.2019367,4.809049,0.027998514,-0.095274486,0.23349315,1.115698,-9.385271,1.0007763
6.2020288,4.8091016,0.027998514,-0.095274486,0.23349315,1.115698,-9.385271,1.0007763
6.20213,4.8091288,0.033324838,-0.10273133,0.25053737,1.2593501,-9.399636,0.92416185
6.202229,4.8091555,0.033324838,-0.10273133,0.25053737,1.2593501,-9.399636,0.92416185
6.202344,4.8091807,0.03545537,-0.105927125,0.26651633,1.3263878,-9.385271,0.91458505
6.202459,4.809206,0.03545537,-0.105927125,0.26651633,1.3263878,-9.385271,0.91458505
6.2025886,4.809228,0.03865116,-0.108057655,0.28143004,1.436521,-9.3661175,0.8810662
6.2027183,4.80925,0.03865116,-0.108057655,0.28143004,1.436521,-9.3661175,0.8810662
6.202863,4.809259,0.040781688,-0.109122925,0.2942132,1.5179238,-9.370906,0.79487497
6.203012,4.809268,0.040781688,-0.109122925,0.2942132,1.5179238,-9.370906,0.79487497
6.2031636,4.809288,0.041846953,-0.108057655,0.3069964,1.5945383,-9.404425,0.8523358
6.203319,4.8093085,0.041846953,-0.108057655,0.3069964,1.5945383,-9.404425,0.8523358
6.203487,4.8093176,0.041846953,-0.1037966,0.3187143,1.6424223,-9.332599,0.7661445
6.2036567,4.809327,0.041846953,-0.1037966,0.3187143,1.6424223,-9.332599,0.7661445
6.203835,4.8093348,0.041846953,-0.09847028,0.32617116,1.6950948,-9.409213,0.7469909
6.2040133,4.8093414,0.041846953,-0.09847028,0.32617116,1.6950948,-9.409213,0.7469909
6.204197,4.809358,0.041846953,-0.093143955,0.33256274,1.6759412,-9.385271,0.80924016
6.20438,4.809375,0.041846953,-0.093143955,0.33256274,1.6759412,-9.385271,0.80924016
6.204569,4.809395,0.040781688,-0.0856871,0.33788908,1.7381904,-9.385271,0.8331822
6.2047577,4.809415,0.040781688,-0.0856871,0.33788908,1.7381904,-9.385271,0.8331822
6.2049522,4.8094263,0.03865116,-0.07609972,0.34215012,1.7429788,-9.390059,0.7757214
6.2051477,4.8094373,0.03865116,-0.07609972,0.34215012,1.7429788,-9.390059,0.7757214
6.205347,4.809448,0.03652063,-0.06544708,0.34641117,1.7238252,-9.404425,0.78529817
6.205548,4.8094583,0.03652063,-0.06544708,0.34641117,1.7238252,-9.404425,0.78529817
6.20575,4.8094826,0.03545537,-0.052663904,0.3485417,1.661576,-9.481039,0.89543146
6.205951,4.8095074,0.03545537,-0.052663904,0.3485417,1.661576,-9.481039,0.89543146
6.2061543,4.809524,0.03652063,-0.03988073,0.34747645,1.6328455,-9.5385,0.8379706
6.206358,4.8095407,0.03652063,-0.03988073,0.34747645,1.6328455,-9.5385,0.8379706
6.206561,4.809569,0.03545537,-0.02496703,0.34747645,1.484405,-9.586384,0.91937345
6.206764,4.809597,0.03545537,-0.02496703,0.34747645,1.484405,-9.586384,0.91937345
6.20697,4.809617,0.034390103,-0.012183856,0.34747645,1.4173675,-9.624691,0.8858546
6.207175,4.809637,0.034390103,-0.012183856,0.34747645,1.4173675,-9.624691,0.8858546
6.207386,4.809642,0.03545537,-0.0015312112,0.34747645,1.3455414,-9.677363,0.81881696
6.2075963,4.809647,0.03545537,-0.0015312112,0.34747645,1.3455414,-9.677363,0.81881696
6.207805,4.8096676,0.037585896,0.008056169,0.3485417,1.3024458,-9.648633,0.8810662
6.2080145,4.8096886,0.037585896,0.008056169,0.3485417,1.3024458,-9.648633,0.8810662
6.2082276,4.8096986,0.039716423,0.014447756,0.3485417,1.2737153,-9.629479,0.82360536
6.2084417,4.809708,0.039716423,0.014447756,0.3485417,1.2737153,-9.629479,0.82360536
6.2086563,4.8097157,0.04291222,0.019774077,0.34641117,1.2306197,-9.672575,0.81402856
6.2088714,4.8097234,0.04291222,0.019774077,0.34641117,1.2306197,-9.672575,0.81402856
6.209084,4.809742,0.04610801,0.024035135,0.34747645,1.2210429,-9.648633,0.842759
6.209297,4.8097606,0.04610801,0.024035135,0.34747645,1.2210429,-9.648633,0.842759
6.209514,4.809776,0.05036907,0.0251004,0.3485417,1.2354081,-9.624691,0.80445176
6.2097316,4.809791,0.05036907,0.0251004,0.3485417,1.2354081,-9.624691,0.80445176
6.209947,4.8098063,0.0524996,0.026165664,0.3453459,1.2401965,-9.605537,0.79008657
6.210162,4.8098216,0.0524996,0.026165664,0.3453459,1.2401965,-9.605537,0.79008657
6.2103734,4.8098397,0.055695392,0.026165664,0.34108487,1.2306197,-9.610326,0.79008657
6.210585,4.8098583,0.055695392,0.026165664,0.34108487,1.2306197,-9.610326,0.79008657
6.210795,4.809865,0.055695392,0.026165664,0.33256274,1.2785037,-9.648633,0.7182605
6.2110047,4.809872,0.055695392,0.026165664,0.33256274,1.2785037,-9.648633,0.7182605
6.2111936,4.8098984,0.055695392,0.0251004,0.32191008,1.2497733,-9.595961,0.81881696
6.2113814,4.8099246,0.055695392,0.0251004,0.32191008,1.2497733,-9.595961,0.81881696
6.2115674,4.8099346,0.054630127,0.022969872,0.31125745,1.2401965,-9.615114,0.7517793
6.2117524,4.809945,0.054630127,0.022969872,0.31125745,1.2401965,-9.615114,0.7517793
6.2119346,4.809947,0.054630127,0.021904606,0.30167007,1.1683705,-9.677363,0.7422025
6.2121167,4.8099494,0.054630127,0.021904606,0.30167007,1.1683705,-9.677363,0.7422025
6.2122855,4.8099494,0.054630127,0.017643549,0.28782162,1.2497733,-9.648633,0.6895301
6.2124553,4.8099494,0.054630127,0.017643549,0.28782162,1.2497733,-9.648633,0.6895301
6.2126136,4.809948,0.05356486,0.016578285,0.277169,1.2497733,-9.677363,0.6895301
6.2127724,4.8099465,0.05356486,0.016578285,0.277169,1.2497733,-9.677363,0.6895301
6.212925,4.8099413,0.054630127,0.013382491,0.26651633,1.2162545,-9.648633,0.6703765
6.2130766,4.8099365,0.054630127,0.013382491,0.26651633,1.2162545,-9.648633,0.6703765
6.213218,4.8099313,0.055695392,0.010186698,0.25479844,1.2258313,-9.672575,0.6560113
6.21336,4.809926,0.055695392,0.010186698,0.25479844,1.2258313,-9.672575,0.6560113
6.2134833,4.8099265,0.055695392,0.0069909045,0.24308053,1.2306197,-9.619903,0.6895301
6.213607,4.8099275,0.055695392,0.0069909045,0.24308053,1.2306197,-9.619903,0.6895301
6.2137113,4.8099375,0.055695392,0.0048603755,0.23136261,1.2449849,-9.624691,0.7422025
6.2138157,4.809948,0.055695392,0.0048603755,0.23136261,1.2449849,-9.624691,0.7422025
6.213915,4.8099484,0.054630127,0.003795111,0.21964471,1.1971009,-9.591172,0.7038953
6.214014,4.809949,0.054630127,0.003795111,0.21964471,1.1971009,-9.591172,0.7038953
6.214099,4.8099484,0.051434334,0.0027298466,0.20686153,1.2354081,-9.56723,0.6991069
6.214183,4.8099484,0.051434334,0.0027298466,0.20686153,1.2354081,-9.56723,0.6991069
6.2142677,4.8099327,0.049303804,0.0027298466,0.19514363,1.1875241,-9.572019,0.63206923
6.214353,4.809918,0.049303804,0.0027298466,0.19514363,1.1875241,-9.572019,0.63206923
6.214416,4.8099055,0.045042746,0.003795111,0.18022992,1.2258313,-9.543288,0.6607997
6.214479,4.8098936,0.045042746,0.003795111,0.18022992,1.2258313,-9.543288,0.6607997
6.2145257,4.80988,0.040781688,0.0048603755,0.16638148,1.1731589,-9.56723,0.7038953
6.214573,4.809866,0.040781688,0.0048603755,0.16638148,1.1731589,-9.56723,0.7038953
6.214596,4.8098645,0.03545537,0.00592564,0.15359831,1.1875241,-9.624691,0.79487497
6.214618,4.8098626,0.03545537,0.00592564,0.15359831,1.1875241,-9.624691,0.79487497
6.2146387,4.8098383,0.030129045,0.00592564,0.13974987,1.1540052,-9.65821,0.7230489
6.2146387,4.8098383,0.030129045,0.00592564,0.13974987,1.1540052,-9.65821,0.7230489
6.214662,4.8097744,0.024802722,0.00592564,0.12803197,1.1061212,-9.629479,0.7278373
6.2146735,4.809742,0.024802722,0.00592564,0.12803197,1.1061212,-9.629479,0.7278373
6.214672,4.8097115,0.023737457,0.00592564,0.11631405,1.1109096,-9.682152,0.7374141
6.2146707,4.80968,0.023737457,0.00592564,0.11631405,1.1109096,-9.682152,0.7374141
6.214651,4.8096566,0.022672193,0.0048603755,0.10566141,1.0821792,-9.653421,0.79008657
6.2146316,4.8096333,0.022672193,0.0048603755,0.10566141,1.0821792,-9.653421,0.79008657
6.2146144,4.8095965,0.02160693,0.00592564,0.09713929,1.0630256,-9.643845,0.7374141
6.2145977,4.80956,0.02160693,0.00592564,0.09713929,1.0630256,-9.643845,0.7374141
6.214564,4.809532,0.02160693,0.00592564,0.088617176,1.0821792,-9.624691,0.770933
6.2145295,4.8095045,0.02160693,0.00592564,0.088617176,1.0821792,-9.624691,0.770933
6.2144895,4.809476,0.02160693,0.00592564,0.08116033,1.0534488,-9.576807,0.770933
6.2144494,4.8094473,0.02160693,0.00592564,0.08116033,1.0534488,-9.576807,0.770933
6.214393,4.8094397,0.020541664,0.00592564,0.07796454,1.0247183,-9.619903,0.8619126
6.2143364,4.809432,0.020541664,0.00592564,0.07796454,1.0247183,-9.619903,0.8619126
6.214279,4.8094215,0.020541664,0.0069909045,0.075834006,0.9720459,-9.629479,0.866701
6.214222,4.8094115,0.020541664,0.0069909045,0.075834006,0.9720459,-9.629479,0.866701
6.2141576,4.8094335,0.02160693,0.009121433,0.07476874,0.92416185,-9.591172,0.93373865
6.2140927,4.809455,0.02160693,0.009121433,0.07476874,0.92416185,-9.591172,0.93373865
6.2140927,4.809455,0.019476399,0.009121433,0.073703475,0.8858546,-9.639056,1.0199299
6.213922,4.809685,0.019476399,0.009121433,0.073703475,0.8858546,-9.639056,1.0199299
6.213922,4.809685,0.019476399,0.009121433,0.073703475,0.8858546,-9.639056,1.0199299
6.2138934,4.809723,0.019476399,0.009121433,0.073703475,0.8858546,-9.639056,1.0199299
6.213832,4.8097606,0.019476399,0.010186698,0.07476874,0.8619126,-9.648633,0.9672575
6.2137685,4.809799,0.019476399,0.010186698,0.07476874,0.8619126,-9.648633,0.9672575
6.2137685,4.809799,0.019476399,0.010186698,0.07476874,0.8619126,-9.648633,0.9672575
6.2136607,4.809908,0.02160693,0.011251962,0.075834006,0.8283938,-9.753978,0.9911995
6.213639,4.809999,0.022672193,0.009121433,0.07796454,0.78529817,-9.763555,1.0247183
6.213616,4.8100905,0.022672193,0.009121433,0.07796454,0.78529817,-9.763555,1.0247183
6.21358,4.8101683,0.024802722,0.0048603755,0.08222559,0.81881696,-9.797073,1.0199299
6.2135434,4.810246,0.024802722,0.0048603755,0.08222559,0.81881696,-9.797073,1.0199299
6.213497,4.8103027,0.025867987,0.0016645822,0.08648665,0.80445176,-9.816227,0.9911995
6.21345,4.810359,0.025867987,0.0016645822,0.08648665,0.80445176,-9.816227,0.9911995
6.2134023,4.810363,0.02906378,-0.00366174,0.088617176,0.8571242,-9.811439,0.93373865
6.2133546,4.810366,0.02906378,-0.00366174,0.088617176,0.8571242,-9.811439,0.93373865
6.2133226,4.810442,0.032259572,-0.008988062,0.0939435,0.8475474,-9.797073,1.0199299
6.2132897,4.8105173,0.032259572,-0.008988062,0.0939435,0.8475474,-9.797073,1.0199299
6.213261,4.8105974,0.03652063,-0.014314385,0.09820456,0.89064306,-9.768343,1.0342951
6.2132325,4.810676,0.03652063,-0.014314385,0.09820456,0.89064306,-9.768343,1.0342951
6.2131968,4.8107457,0.039716423,-0.019640706,0.09926982,0.91937345,-9.77792,1.0199299
6.213161,4.8108153,0.039716423,-0.019640706,0.09926982,0.91937345,-9.77792,1.0199299
6.2131205,4.810869,0.041846953,-0.023901764,0.10033509,0.92895025,-9.730036,0.9864111
6.2130795,4.810923,0.041846953,-0.023901764,0.10033509,0.92895025,-9.730036,0.9864111
6.2130413,4.8109426,0.04291222,-0.029228088,0.102465615,0.93373865,-9.725247,0.92416185
6.2130036,4.810962,0.04291222,-0.029228088,0.102465615,0.93373865,-9.725247,0.92416185
6.2129655,4.811019,0.043977484,-0.031358615,0.103530884,0.9672575,-9.749189,0.9959879
6.2129273,4.811075,0.043977484,-0.031358615,0.103530884,0.9672575,-9.749189,0.9959879
6.21289,4.8111134,0.047173277,-0.033489145,0.106726676,0.9528923,-9.739613,0.9528923
6.2128534,4.811151,0.047173277,-0.033489145,0.106726676,0.9528923,-9.739613,0.9528923
6.2128305,4.811237,0.049303804,-0.03455441,0.1088572,0.9528923,-9.763555,1.0486604
6.212807,4.8113227,0.049303804,-0.03455441,0.1088572,0.9528923,-9.763555,1.0486604
6.2127814,4.8114023,0.049303804,-0.03455441,0.10992247,0.9864111,-9.758766,1.043872
6.2127557,4.811482,0.049303804,-0.03455441,0.10992247,0.9864111,-9.758766,1.043872
6.212726,4.811549,0.05036907,-0.035619672,0.11098773,1.0199299,-9.710882,1.0151415
6.212696,4.811617,0.05036907,-0.035619672,0.11098773,1.0199299,-9.710882,1.0151415
6.2126637,4.8116713,0.05036907,-0.03455441,0.11098773,1.0342951,-9.730036,0.9864111
6.2126307,4.811725,0.05036907,-0.03455441,0.11098773,1.0342951,-9.730036,0.9864111
6.212603,4.81175,0.0524996,-0.035619672,0.112053,1.0726024,-9.730036,0.90021986
6.2125754,4.8117743,0.0524996,-0.035619672,0.112053,1.0726024,-9.730036,0.90021986
6.212545,4.8118343,0.054630127,-0.033489145,0.11311826,1.1013328,-9.691729,0.9911995
6.212515,4.811894,0.054630127,-0.033489145,0.11311826,1.1013328,-9.691729,0.9911995
6.2124863,4.8119583,0.055695392,-0.033489145,0.11418352,1.1300632,-9.68694,1.0055647
6.212458,4.8120227,0.055695392,-0.033489145,0.11418352,1.1300632,-9.68694,1.0055647
6.21243,4.8120623,0.054630127,-0.033489145,0.11524879,1.13964,-9.639056,0.92416185
6.2124023,4.8121014,0.054630127,-0.033489145,0.11524879,1.13964,-9.639056,0.92416185
6.2123756,4.812164,0.055695392,-0.031358615,0.11631405,1.1300632,-9.600749,0.9911995
6.212349,4.812226,0.055695392,-0.031358615,0.11631405,1.1300632,-9.600749,0.9911995
6.212325,4.812294,0.055695392,-0.029228088,0.11737932,1.1731589,-9.576807,1.0151415
6.212301,4.8123627,0.055695392,-0.029228088,0.11737932,1.1731589,-9.576807,1.0151415
6.2122793,4.8124256,0.055695392,-0.027097559,0.120575115,1.1683705,-9.519346,0.9911995
6.2122574,4.812489,0.055695392,-0.027097559,0.120575115,1.1683705,-9.519346,0.9911995
6.2122374,4.8125534,0.054630127,-0.021771235,0.12164038,1.1827357,-9.562442,1.0055647
6.212218,4.8126183,0.054630127,-0.021771235,0.12164038,1.1827357,-9.562442,1.0055647
6.2121987,4.812684,0.05356486,-0.017510178,0.12164038,1.1300632,-9.543288,1.0055647
6.212179,4.8127494,0.05356486,-0.017510178,0.12164038,1.1300632,-9.543288,1.0055647
6.2121577,4.8127956,0.051434334,-0.014314385,0.120575115,1.1827357,-9.528923,0.94810385
6.2121367,4.812842,0.051434334,-0.014314385,0.120575115,1.1827357,-9.528923,0.94810385
6.2121177,4.8128777,0.04823854,-0.007922798,0.12164038,1.13964,-9.581595,0.92895025
6.2120986,4.812913,0.04823854,-0.007922798,0.12164038,1.13964,-9.581595,0.92895025
6.2120924,4.8129954,0.043977484,-0.0015312112,0.12270564,1.1109096,-9.56723,1.0965444
6.2120867,4.813078,0.043977484,-0.0015312112,0.12270564,1.1109096,-9.56723,1.0965444
6.2120767,4.813152,0.040781688,0.003795111,0.12164038,1.0486604,-9.595961,1.0630256
6.2120667,4.813226,0.040781688,0.003795111,0.12164038,1.0486604,-9.595961,1.0630256
6.2120514,4.8132915,0.037585896,0.010186698,0.118444584,1.0534488,-9.562442,1.043872
6.212036,4.8133574,0.037585896,0.010186698,0.118444584,1.0534488,-9.562442,1.043872
6.2120166,4.8134093,0.033324838,0.016578285,0.11631405,0.9959879,-9.591172,1.0151415
6.2119966,4.8134623,0.033324838,0.016578285,0.11631405,0.9959879,-9.591172,1.0151415
6.2119856,4.8135324,0.02906378,0.020839343,0.11524879,0.94331545,-9.653421,1.0582372
6.2119746,4.8135996,0.02906378,0.020839343,0.11524879,0.94331545,-9.653421,1.0582372
6.211959,4.8136625,0.026933251,0.022969872,0.11311826,0.94331545,-9.65821,1.0486604
6.211943,4.8137255,0.026933251,0.022969872,0.11311826,0.94331545,-9.65821,1.0486604
6.211931,4.813795,0.023737457,0.0251004,0.11098773,0.92895025,-9.730036,1.0726024
6.21192,4.8138647,0.023737457,0.0251004,0.11098773,0.92895025,-9.730036,1.0726024
6.211903,4.8139257,0.019476399,0.02723093,0.1088572,0.89543146,-9.672575,1.0486604
6.211886,4.813987,0.019476399,0.02723093,0.1088572,0.89543146,-9.672575,1.0486604
6.2118616,4.81404,0.017345872,0.026165664,0.104596145,0.91937345,-9.706094,1.0486604
6.2118373,4.814093,0.017345872,0.026165664,0.104596145,0.91937345,-9.706094,1.0486604
6.2117996,4.8141203,0.0141500775,0.0251004,0.09926982,0.92895025,-9.706094,1.0103531
6.211762,4.814147,0.0141500775,0.0251004,0.09926982,0.92895025,-9.706094,1.0103531
6.2117157,4.8141565,0.00988902,0.022969872,0.09181297,0.8858546,-9.725247,0.9911995
6.2116694,4.814166,0.00988902,0.022969872,0.09181297,0.8858546,-9.725247,0.9911995
6.2116694,4.814166,0.00988902,0.022969872,0.09181297,0.8858546,-9.725247,0.9911995
6.2115984,4.814133,0.0066932263,0.021904606,0.08009506,0.89064306,-9.763555,0.9528923
6.2114987,4.8141127,0.0045626974,0.019774077,0.06944242,0.8762778,-9.763555,0.9911995
6.2114315,4.8141136,0.0045626974,0.019774077,0.06944242,0.8762778,-9.763555,0.9911995
6.211355,4.814092,0.0024321685,0.017643549,0.056659244,0.8619126,-9.801862,0.9720459
6.2112784,4.81407,0.0024321685,0.017643549,0.056659244,0.8619126,-9.801862,0.9720459
6.211203,4.8140225,-0.0018288894,0.014447756,0.047071867,0.866701,-9.749189,0.93373865
6.2111278,4.8139744,-0.0018288894,0.014447756,0.047071867,0.866701,-9.749189,0.93373865
6.2110314,4.813946,-0.0050246827,0.009121433,0.03854975,0.8379706,-9.80665,0.9768343
6.2109346,4.8139167,-0.0050246827,0.009121433,0.03854975,0.8379706,-9.80665,0.9768343
6.2108235,4.813918,-0.0071552116,0.00592564,0.027897105,0.8858546,-9.768343,1.0055647
6.2107124,4.813919,-0.0071552116,0.00592564,0.027897105,0.8858546,-9.768343,1.0055647
6.210593,4.8138914,-0.009285741,0.0016645822,0.018309724,0.8714894,-9.792285,0.9768343
6.210474,4.813864,-0.009285741,0.0016645822,0.018309724,0.8714894,-9.792285,0.9768343
6.2103443,4.8138704,-0.013546798,-0.00366174,0.00765708,0.89543146,-9.80665,1.0247183
6.210214,4.813877,-0.013546798,-0.00366174,0.00765708,0.89543146,-9.80665,1.0247183
6.210071,4.8138437,-0.015677327,-0.007922798,-0.004060829,0.93373865,-9.80665,0.9720459
6.2099285,4.8138103,-0.015677327,-0.007922798,-0.004060829,0.93373865,-9.80665,0.9720459
6.209775,4.813777,-0.017807856,-0.01324912,-0.013648209,0.9672575,-9.80665,0.9720459
6.209622,4.8137436,-0.017807856,-0.01324912,-0.013648209,0.9672575,-9.80665,0.9720459
6.2094626,4.8136973,-0.018873122,-0.017510178,-0.022170324,0.9768343,-9.840169,0.9528923
6.209304,4.813651,-0.018873122,-0.017510178,-0.022170324,0.9768343,-9.840169,0.9528923
6.2091355,4.813601,-0.021003649,-0.021771235,-0.031757705,1.0103531,-9.773131,0.93373865
6.208967,4.8135505,-0.021003649,-0.021771235,-0.031757705,1.0103531,-9.773131,0.93373865
6.2087936,4.8134933,-0.022068914,-0.026032293,-0.039214555,1.0295067,-9.763555,0.91458505
6.20862,4.8134356,-0.022068914,-0.026032293,-0.039214555,1.0295067,-9.763555,0.91458505
6.2084374,4.8133826,-0.024199443,-0.030293351,-0.04454088,1.0965444,-9.744401,0.91458505
6.2082553,4.813329,-0.024199443,-0.030293351,-0.04454088,1.0965444,-9.744401,0.91458505
6.2080665,4.8132744,-0.026329972,-0.03242388,-0.050932467,1.1204864,-9.816227,0.91937345
