Pitch,Roll,Gyro_X,Gyro_Y,Gyro_Z,Accel_X,Accel_Y,Accel_Z
5.862005,4.695532,-0.060418434,0.0069909045,-0.11484833,3.9935284,-8.834604,-0.21547815
5.8616843,4.6952057,-0.060418434,0.0069909045,-0.11484833,3.9935284,-8.834604,-0.21547815
5.8614745,4.695071,-0.0614837,0.009121433,-0.11484833,4.0174704,-8.825027,-0.19153613
5.86126,4.694933,-0.0614837,0.009121433,-0.11484833,4.0174704,-8.825027,-0.19153613
5.8611875,4.694771,-0.062548965,0.010186698,-0.11165254,3.9743748,-8.901642,-0.20590134
5.861117,4.694609,-0.062548965,0.010186698,-0.11165254,3.9743748,-8.901642,-0.20590134
5.860967,4.6946516,-0.06467949,0.011251962,-0.10526095,3.98874,-8.848969,-0.12928689
5.860821,4.6946945,-0.06467949,0.011251962,-0.10526095,3.98874,-8.848969,-0.12928689
5.860686,4.694527,-0.06681002,0.014447756,-0.09886937,3.9839516,-8.848969,-0.17238252
5.8605566,4.6943603,-0.06681002,0.014447756,-0.09886937,3.9839516,-8.848969,-0.17238252
5.8604074,4.694193,-0.06681002,0.017643549,-0.09460831,4.0222588,-8.901642,-0.19153613
5.8602676,4.6940336,-0.06681002,0.017643549,-0.09460831,4.0222588,-8.901642,-0.19153613
5.8601604,4.6938667,-0.06787529,0.019774077,-0.091412514,4.012682,-8.90643,-0.18195933
5.8600593,4.6937017,-0.06787529,0.019774077,-0.091412514,4.012682,-8.90643,-0.18195933
5.860036,4.6935444,-0.06894055,0.019774077,-0.08608619,3.9839516,-8.920795,-0.21068975
5.8600144,4.6933875,-0.06894055,0.019774077,-0.08608619,3.9839516,-8.920795,-0.21068975
5.8600335,4.6934023,-0.06894055,0.018708814,-0.08075987,3.98874,-8.930372,-0.14844051
5.860053,4.6934166,-0.06894055,0.018708814,-0.08075987,3.98874,-8.930372,-0.14844051
5.8600707,4.6934347,-0.07000581,0.019774077,-0.077564076,3.9791632,-8.949526,-0.1340753
5.8600883,4.693453,-0.07000581,0.019774077,-0.077564076,3.9791632,-8.949526,-0.1340753
5.860149,4.693411,-0.07213634,0.019774077,-0.076498814,3.9791632,-8.949526,-0.16280572
5.8602085,4.6933694,-0.07213634,0.019774077,-0.076498814,3.9791632,-8.949526,-0.16280572
5.86011,4.6934104,-0.07426687,0.018708814,-0.076498814,4.036624,-8.949526,-0.1388637
5.860015,4.693451,-0.07426687,0.018708814,-0.076498814,4.036624,-8.949526,-0.1388637
5.8599987,4.693482,-0.07426687,0.017643549,-0.076498814,4.012682,-8.992621,-0.11971009
5.859983,4.6935124,-0.07426687,0.017643549,-0.076498814,4.012682,-8.992621,-0.11971009
5.8600163,4.6935167,-0.07320161,0.014447756,-0.076498814,3.9743748,-8.983045,-0.12928689
5.8600163,4.6935167,-0.07320161,0.014447756,-0.076498814,3.9743748,-8.983045,-0.12928689
5.860032,4.6935444,-0.07320161,0.011251962,-0.078629345,3.9983168,-9.016563,-0.062249243
5.8600016,4.693577,-0.07320161,0.011251962,-0.078629345,3.9983168,-9.016563,-0.062249243
5.859993,4.6936,-0.07213634,0.008056169,-0.0828904,3.9456444,-9.011775,-0.05267244
5.859993,4.6936,-0.07213634,0.008056169,-0.0828904,3.9456444,-9.011775,-0.05267244
5.8599815,4.693629,-0.07213634,0.008056169,-0.0828904,3.9456444,-9.011775,-0.05267244
5.859921,4.693672,-0.06894055,0.0048603755,-0.08715145,4.012682,-9.035717,-0.02873042
5.859849,4.6937284,-0.06681002,0.0027298466,-0.092477776,4.012682,-9.006987,-0.10055647
5.859849,4.6937284,-0.06681002,0.0027298466,-0.092477776,4.012682,-9.006987,-0.10055647
5.859727,4.693804,-0.062548965,-0.00046594674,-0.0978041,4.0414124,-8.963891,-0.08619126
5.8596325,4.693846,-0.062548965,-0.00046594674,-0.0978041,4.0414124,-8.963891,-0.08619126
5.859536,4.6938925,-0.05935317,-0.00366174,-0.10313042,4.0222588,-8.944737,-0.0047884034
5.8594394,4.6939383,-0.05935317,-0.00366174,-0.10313042,4.0222588,-8.944737,-0.0047884034
5.8593283,4.693989,-0.05402685,-0.0068575335,-0.108456746,4.027047,-8.920795,-0.04309563
5.8592186,4.694039,-0.05402685,-0.0068575335,-0.108456746,4.027047,-8.920795,-0.04309563
5.8591337,4.6940913,-0.048700526,-0.008988062,-0.11378307,3.9935284,-8.916007,-0.07182605
5.8590517,4.6941433,-0.048700526,-0.008988062,-0.11378307,3.9935284,-8.916007,-0.07182605
5.858955,4.694199,-0.04443947,-0.011118591,-0.120174654,4.003105,-8.920795,-0.06703765
5.8588557,4.6942573,-0.04443947,-0.011118591,-0.120174654,4.003105,-8.920795,-0.06703765
5.8587484,4.6943197,-0.03804788,-0.01324912,-0.123370446,3.9935284,-8.872911,-0.07182605
5.8586426,4.6943817,-0.03804788,-0.01324912,-0.123370446,3.9935284,-8.872911,-0.07182605
5.8585215,4.69445,-0.032721557,-0.014314385,-0.1276315,4.0078936,-8.887277,-0.023942016
5.8584003,4.694518,-0.032721557,-0.014314385,-0.1276315,4.0078936,-8.887277,-0.023942016
5.858244,4.6945868,-0.0284605,-0.017510178,-0.13189256,4.027047,-8.825027,-0.033518825
5.8580885,4.694656,-0.0284605,-0.017510178,-0.13189256,4.027047,-8.825027,-0.033518825
5.8578763,4.6947117,-0.024199443,-0.020705972,-0.13508835,4.060566,-8.781932,-0.07182605
5.857668,4.694768,-0.024199443,-0.020705972,-0.13508835,4.060566,-8.781932,-0.07182605
5.857521,4.6948447,-0.021003649,-0.021771235,-0.13934942,3.9935284,-8.796297,-0.05746084
5.8573775,4.694921,-0.021003649,-0.021771235,-0.13934942,3.9935284,-8.796297,-0.05746084
5.8570976,4.6949067,-0.019938385,-0.0228365,-0.14254521,4.0462008,-8.805874,-0.14844051
5.8568187,4.6948943,-0.019938385,-0.0228365,-0.14254521,4.0462008,-8.805874,-0.14844051
5.8565574,4.6949234,-0.017807856,-0.021771235,-0.14361048,4.0701427,-8.7771435,-0.11971009
5.8562975,4.6949534,-0.017807856,-0.021771235,-0.14361048,4.0701427,-8.7771435,-0.11971009
5.8560886,4.6950226,-0.01674259,-0.021771235,-0.145741,4.036624,-8.781932,-0.10055647
5.8558817,4.6950917,-0.01674259,-0.021771235,-0.145741,4.036624,-8.781932,-0.10055647
5.855695,4.6951685,-0.01674259,-0.021771235,-0.1489368,4.050989,-8.848969,-0.10534488
5.8555093,4.6952457,-0.01674259,-0.021771235,-0.1489368,4.050989,-8.848969,-0.10534488
5.855303,4.6951213,-0.015677327,-0.020705972,-0.1489368,4.0701427,-8.78672,-0.23942018
5.8550963,4.6949954,-0.015677327,-0.020705972,-0.1489368,4.0701427,-8.78672,-0.23942018
5.8548613,4.694884,-0.014612063,-0.020705972,-0.1489368,4.0318356,-8.781932,-0.17238252
5.85463,4.694771,-0.014612063,-0.020705972,-0.1489368,4.0318356,-8.781932,-0.17238252
5.854378,4.6946697,-0.014612063,-0.021771235,-0.15000206,4.0940847,-8.738836,-0.21547815
5.854127,4.6945677,-0.014612063,-0.021771235,-0.15000206,4.0940847,-8.738836,-0.21547815
5.853917,4.694443,-0.014612063,-0.0228365,-0.15106732,4.0797195,-8.748413,-0.25857377
5.853707,4.694318,-0.014612063,-0.0228365,-0.15106732,4.0797195,-8.748413,-0.25857377
5.853485,4.6941986,-0.014612063,-0.021771235,-0.15000206,4.0414124,-8.734048,-0.20111294
5.853266,4.694078,-0.014612063,-0.021771235,-0.15000206,4.0414124,-8.734048,-0.20111294
5.8530407,4.6939626,-0.012481534,-0.019640706,-0.14787152,4.0797195,-8.7532015,-0.22505496
5.852819,4.6938477,-0.012481534,-0.019640706,-0.14787152,4.0797195,-8.7532015,-0.22505496
5.852544,4.693778,-0.013546798,-0.017510178,-0.1489368,4.122815,-8.695741,-0.20111294
5.8522687,4.6937075,-0.013546798,-0.017510178,-0.1489368,4.122815,-8.695741,-0.20111294
5.8520317,4.6935987,-0.014612063,-0.015379649,-0.15000206,4.1180267,-8.695741,-0.25857377
5.8517947,4.6934896,-0.014612063,-0.015379649,-0.15000206,4.1180267,-8.695741,-0.25857377
5.8515687,4.693368,-0.01674259,-0.01324912,-0.15000206,4.1180267,-8.710106,-0.2825158
5.8513536,4.6932516,-0.01674259,-0.01324912,-0.15000206,4.1180267,-8.710106,-0.2825158
5.8511243,4.6931353,-0.019938385,-0.012183856,-0.14787152,4.122815,-8.671799,-0.2777274
5.850895,4.693019,-0.019938385,-0.012183856,-0.14787152,4.122815,-8.671799,-0.2777274
5.8506966,4.6928887,-0.02313418,-0.010053327,-0.145741,4.1036615,-8.63828,-0.34955344
5.850498,4.6927576,-0.02313418,-0.010053327,-0.145741,4.1036615,-8.63828,-0.34955344
5.850308,4.6926203,-0.0284605,-0.007922798,-0.14467573,4.098873,-8.695741,-0.320823
5.8501186,4.692483,-0.0284605,-0.007922798,-0.14467573,4.098873,-8.695741,-0.320823
5.849868,4.6923776,-0.03059103,-0.005792269,-0.14361048,4.084508,-8.6813755,-0.21068975
5.8496175,4.6922717,-0.03059103,-0.005792269,-0.14361048,4.084508,-8.6813755,-0.21068975
5.849446,4.6921244,-0.035917353,-0.005792269,-0.14361048,4.0797195,-8.748413,-0.2633622
5.849275,4.691977,-0.035917353,-0.005792269,-0.14361048,4.0797195,-8.748413,-0.2633622
5.8490944,4.6918263,-0.042308938,-0.00366174,-0.14361048,4.1132383,-8.748413,-0.31124622
5.8489137,4.6916747,-0.042308938,-0.00366174,-0.14361048,4.1132383,-8.748413,-0.31124622
5.8487144,4.691525,-0.046569996,-0.00366174,-0.14254521,4.10845,-8.738836,-0.25857377
5.8485155,4.691375,-0.046569996,-0.00366174,-0.14254521,4.10845,-8.738836,-0.25857377
5.8483253,4.6912165,-0.05189632,-0.0025964756,-0.14467573,4.1276035,-8.772355,-0.2825158
5.8481355,4.691058,-0.05189632,-0.0025964756,-0.14467573,4.1276035,-8.772355,-0.2825158
5.848016,4.690892,-0.056157377,-0.0025964756,-0.145741,4.074931,-8.805874,-0.25378537
5.847898,4.690726,-0.056157377,-0.0025964756,-0.145741,4.074931,-8.805874,-0.25378537
5.84773,4.690554,-0.0614837,-0.00046594674,-0.14680627,4.1276035,-8.820239,-0.29209262
5.8475637,4.690383,-0.0614837,-0.00046594674,-0.14680627,4.1276035,-8.820239,-0.29209262
5.847536,4.690259,-0.06681002,-0.00046594674,-0.14787152,4.0701427,-8.858546,-0.21547815
5.8475103,4.6901374,-0.06681002,-0.00046594674,-0.14787152,4.0701427,-8.858546,-0.21547815
5.847349,4.6899567,-0.07000581,-0.00046594674,-0.14787152,4.1036615,-8.796297,-0.24420857
5.8471904,4.6897755,-0.07000581,-0.00046594674,-0.14787152,4.1036615,-8.796297,-0.24420857
5.847019,4.68981,-0.07213634,-0.00046594674,-0.14787152,4.1132383,-8.805874,-0.15801731
5.8468547,4.689844,-0.07213634,-0.00046594674,-0.14787152,4.1132383,-8.805874,-0.15801731
5.846751,4.689872,-0.07426687,-0.00046594674,-0.14787152,4.0701427,-8.781932,-0.15322891
5.846646,4.6898994,-0.07426687,-0.00046594674,-0.14787152,4.0701427,-8.781932,-0.15322891
5.846552,4.689925,-0.07426687,-0.0015312112,-0.145741,4.0940847,-8.805874,-0.16759412
5.846454,4.6899514,-0.07426687,-0.0015312112,-0.145741,4.0940847,-8.805874,-0.16759412
5.8463244,4.6899834,-0.07426687,-0.0015312112,-0.14361048,4.084508,-8.781932,-0.10534488
5.846197,4.6900153,-0.07426687,-0.0015312112,-0.14361048,4.084508,-8.781932,-0.10534488
5.8461614,4.690013,-0.07213634,-0.0025964756,-0.14147994,4.0557775,-8.772355,-0.17238252
5.846126,4.6900096,-0.07213634,-0.0025964756,-0.14147994,4.0557775,-8.772355,-0.17238252
5.846044,4.690037,-0.07000581,-0.0015312112,-0.13934942,4.0414124,-8.772355,-0.11492168
5.8459625,4.6900644,-0.07000581,-0.0015312112,-0.13934942,4.0414124,-8.772355,-0.11492168
5.8458614,4.6900992,-0.06787529,-0.0025964756,-0.1372189,4.0462008,-8.7771435,-0.062249243
5.845762,4.6901336,-0.06787529,-0.0025964756,-0.1372189,4.0462008,-8.7771435,-0.062249243
5.8456483,4.690173,-0.06574476,-0.0025964756,-0.13295783,4.060566,-8.772355,-0.01436521
5.8455358,4.6902122,-0.06574476,-0.0025964756,-0.13295783,4.060566,-8.772355,-0.01436521
5.84544,4.690255,-0.0614837,-0.00046594674,-0.12869677,4.036624,-8.805874,0.023942016
5.8453445,4.690298,-0.0614837,-0.00046594674,-0.12869677,4.036624,-8.805874,0.023942016
5.84527,4.6903434,-0.057222642,0.0027298466,-0.120174654,3.9839516,-8.781932,0.038307227
5.845196,4.690389,-0.057222642,0.0027298466,-0.120174654,3.9839516,-8.781932,0.038307227
5.845137,4.690441,-0.050831053,0.0069909045,-0.11165254,4.012682,-8.767567,-0.047884032
5.845079,4.690493,-0.050831053,0.0069909045,-0.11165254,4.012682,-8.767567,-0.047884032
5.8450623,4.6905384,-0.04443947,0.008056169,-0.10206516,4.0222588,-8.75799,-0.12449849
5.845046,4.6905828,-0.04443947,0.008056169,-0.10206516,4.0222588,-8.75799,-0.12449849
5.84501,4.690648,-0.03698262,0.00592564,-0.092477776,4.084508,-8.75799,-0.16280572
5.8449755,4.690712,-0.03698262,0.00592564,-0.092477776,4.084508,-8.75799,-0.16280572
5.844915,4.6905737,-0.031656295,0.0048603755,-0.0828904,4.1132383,-8.815451,-0.2681506
5.8448553,4.6904354,-0.031656295,0.0048603755,-0.0828904,4.1132383,-8.815451,-0.2681506
5.844826,4.6903057,-0.026329972,0.0027298466,-0.07330302,4.036624,-8.762778,-0.33518824
5.8447967,4.690176,-0.026329972,0.0027298466,-0.07330302,4.036624,-8.762778,-0.33518824
5.844774,4.690048,-0.022068914,-0.0015312112,-0.064780906,4.060566,-8.78672,-0.320823
5.8447514,4.6899204,-0.022068914,-0.0015312112,-0.064780906,4.060566,-8.78672,-0.320823
5.8447275,4.6897917,-0.018873122,-0.0047270046,-0.05519352,4.0174704,-8.686164,-0.35913026
5.8447037,4.689663,-0.018873122,-0.0047270046,-0.05519352,4.0174704,-8.686164,-0.35913026
5.844716,4.689538,-0.019938385,-0.007922798,-0.04454088,3.98874,-8.75799,-0.37349546
5.844729,4.689414,-0.019938385,-0.007922798,-0.04454088,3.98874,-8.75799,-0.37349546
5.844713,4.6892786,-0.022068914,-0.010053327,-0.036018763,4.0462008,-8.7053175,-0.37349546
5.8446975,4.6891427,-0.022068914,-0.010053327,-0.036018763,4.0462008,-8.7053175,-0.37349546
5.844675,4.689002,-0.025264706,-0.011118591,-0.027496647,4.0557775,-8.662222,-0.39264908
5.844652,4.688862,-0.025264706,-0.011118591,-0.027496647,4.0557775,-8.662222,-0.39264908
5.844632,4.688715,-0.031656295,-0.010053327,-0.020039797,4.0653543,-8.662222,-0.32561144
5.844612,4.688569,-0.031656295,-0.010053327,-0.020039797,4.0653543,-8.662222,-0.32561144
5.8445163,4.6884394,-0.03698262,-0.007922798,-0.013648209,4.122815,-8.647857,-0.2633622
5.8444247,4.6883154,-0.03698262,-0.007922798,-0.013648209,4.122815,-8.647857,-0.2633622
5.844279,4.688297,-0.043374203,-0.00366174,-0.010452416,4.1180267,-8.719683,-0.20590134
5.8441267,4.6882806,-0.043374203,-0.00366174,-0.010452416,4.1180267,-8.719683,-0.20590134
5.844035,4.688142,-0.048700526,0.0027298466,-0.012582945,4.1132383,-8.676587,-0.24420857
5.843944,4.688004,-0.048700526,0.0027298466,-0.012582945,4.1132383,-8.676587,-0.24420857
5.8439727,4.68806,-0.052961584,0.009121433,-0.012582945,4.074931,-8.6813755,-0.20111294
5.844001,4.688116,-0.052961584,0.009121433,-0.012582945,4.074931,-8.6813755,-0.20111294
5.843963,4.687957,-0.058287904,0.014447756,-0.012582945,4.0940847,-8.676587,-0.2681506
5.8439255,4.687797,-0.058287904,0.014447756,-0.012582945,4.0940847,-8.676587,-0.2681506
5.8438826,4.6876373,-0.062548965,0.020839343,-0.010452416,4.1132383,-8.695741,-0.2825158
5.843839,4.6874776,-0.062548965,0.020839343,-0.010452416,4.1132383,-8.695741,-0.2825158
5.8438163,4.687314,-0.06574476,0.0251004,-0.01151768,4.1276035,-8.748413,-0.33039984
5.8437934,4.6871505,-0.06574476,0.0251004,-0.01151768,4.1276035,-8.748413,-0.33039984
5.843709,4.6869993,-0.06894055,0.028296193,-0.013648209,4.1371803,-8.7053175,-0.2681506
5.843624,4.6868486,-0.06894055,0.028296193,-0.013648209,4.1371803,-8.7053175,-0.2681506
5.843565,4.686689,-0.07000581,0.031491987,-0.014713474,4.1611223,-8.748413,-0.31124622
5.843506,4.686529,-0.07000581,0.031491987,-0.014713474,4.1611223,-8.748413,-0.31124622
5.8434987,4.686354,-0.07107108,0.031491987,-0.018974531,4.0940847,-8.743625,-0.37349546
5.8434925,4.6861925,-0.07107108,0.031491987,-0.018974531,4.0940847,-8.743625,-0.37349546
5.8434534,4.686029,-0.07213634,0.030426722,-0.02323559,4.1132383,-8.714894,-0.29209262
5.843414,4.6858625,-0.07213634,0.030426722,-0.02323559,4.1132383,-8.714894,-0.29209262
5.843385,4.6856976,-0.07107108,0.031491987,-0.029627176,4.1036615,-8.719683,-0.30166942
5.8433566,4.6855307,-0.07107108,0.031491987,-0.029627176,4.1036615,-8.719683,-0.30166942
5.843272,4.68537,-0.07000581,0.032557253,-0.036018763,4.10845,-8.686164,-0.2681506
5.84319,4.685213,-0.07000581,0.032557253,-0.036018763,4.10845,-8.686164,-0.2681506
5.8431277,4.685048,-0.07107108,0.031491987,-0.041345086,4.1132383,-8.700529,-0.30166942
5.8430653,4.684881,-0.07107108,0.031491987,-0.041345086,4.1132383,-8.700529,-0.30166942
5.84296,4.6847057,-0.07000581,0.032557253,-0.045606144,4.132392,-8.6813755,-0.31124622
5.84296,4.6847057,-0.07000581,0.032557253,-0.045606144,4.132392,-8.6813755,-0.31124622
5.84296,4.6847057,-0.07107108,0.03468778,-0.048801936,4.1611223,-8.671799,-0.29688102
5.8425527,4.684298,-0.07107108,0.03468778,-0.048801936,4.1611223,-8.671799,-0.29688102
5.842371,4.6841946,-0.07213634,0.03681831,-0.05199773,4.189853,-8.63828,-0.2777274
5.8421755,4.684083,-0.07213634,0.03681831,-0.05199773,4.189853,-8.63828,-0.2777274
5.8421755,4.684083,-0.07213634,0.03681831,-0.05199773,4.189853,-8.63828,-0.2777274
5.84188,4.6838245,-0.07320161,0.040014103,-0.05412826,4.1515455,-8.63828,-0.29209262
5.841726,4.683671,-0.07320161,0.043209895,-0.05732405,4.1802764,-8.599973,-0.34476504
5.8415985,4.683544,-0.07320161,0.043209895,-0.05732405,4.1802764,-8.599973,-0.34476504
5.8415985,4.683544,-0.07320161,0.043209895,-0.05732405,4.1802764,-8.599973,-0.34476504
5.841372,4.6832366,-0.07426687,0.046405688,-0.058389317,4.1371803,-8.619126,-0.33997664
5.841188,4.683137,-0.07426687,0.049601484,-0.056258786,4.146757,-8.614338,-0.272939
5.8410044,4.683038,-0.07426687,0.049601484,-0.056258786,4.146757,-8.614338,-0.272939
5.8408284,4.6830435,-0.07426687,0.052797277,-0.05519352,4.122815,-8.604761,-0.23463176
5.8408284,4.6830435,-0.07426687,0.052797277,-0.05519352,4.122815,-8.604761,-0.23463176
5.8404646,4.6830115,-0.07320161,0.054927804,-0.053062994,4.146757,-8.542512,-0.25857377
5.840271,4.68295,-0.07320161,0.054927804,-0.053062994,4.146757,-8.542512,-0.25857377
5.8401265,4.6829863,-0.07107108,0.05599307,-0.0498672,4.146757,-8.537724,-0.18195933
5.839984,4.6830235,-0.07107108,0.05599307,-0.0498672,4.146757,-8.537724,-0.18195933
5.839831,4.683052,-0.06787529,0.0581236,-0.04454088,4.1371803,-8.51857,-0.20111294
5.8396783,4.683081,-0.06787529,0.0581236,-0.04454088,4.1371803,-8.51857,-0.20111294
5.8395314,4.6831093,-0.06467949,0.05918886,-0.033888236,4.1419687,-8.504205,-0.20111294
5.839385,4.683138,-0.06467949,0.05918886,-0.033888236,4.1419687,-8.504205,-0.20111294
5.8392644,4.6831822,-0.0614837,0.062384658,-0.020039797,4.132392,-8.499416,-0.19153613
5.8391438,4.683227,-0.0614837,0.062384658,-0.020039797,4.132392,-8.499416,-0.19153613
5.8390226,4.683262,-0.057222642,0.06344992,-0.0051260935,4.1706996,-8.437167,-0.17717093
5.8389015,4.6832967,-0.057222642,0.06344992,-0.0051260935,4.1706996,-8.437167,-0.17717093
5.8388147,4.683358,-0.050831053,0.06558045,0.00765708,4.237737,-8.39886,-0.07182605
5.838729,4.6834197,-0.050831053,0.06558045,0.00765708,4.237737,-8.39886,-0.07182605
5.8386545,4.683487,-0.04443947,0.06877624,0.023636047,4.213795,-8.413225,-0.10534488
5.8385806,4.6835537,-0.04443947,0.06877624,0.023636047,4.213795,-8.413225,-0.10534488
5.838532,4.683634,-0.039113145,0.074102566,0.04387607,4.2425256,-8.413225,-0.06703765
5.8384833,4.6837134,-0.039113145,0.074102566,0.04387607,4.2425256,-8.413225,-0.06703765
5.8384833,4.6837134,-0.039113145,0.074102566,0.04387607,4.2425256,-8.413225,-0.06703765
5.838391,4.683869,-0.032721557,0.07836362,0.06518136,4.309563,-8.37013,-0.07182605
5.8383646,4.6839466,-0.025264706,0.08368994,0.088617176,4.3239284,-8.327033,-0.076614454
5.838339,4.68402,-0.025264706,0.08368994,0.088617176,4.3239284,-8.327033,-0.076614454
5.8383546,4.684122,-0.021003649,0.090081535,0.112053,4.3526587,-8.341399,0.023942016
5.8383703,4.6842237,-0.021003649,0.090081535,0.112053,4.3526587,-8.341399,0.023942016
5.838405,4.6843324,-0.013546798,0.09540785,0.13655408,4.3622355,-8.307879,0.019153614
5.83844,4.6844406,-0.013546798,0.09540785,0.13655408,4.3622355,-8.307879,0.019153614
5.8385086,4.6845646,-0.0071552116,0.100734174,0.16212043,4.3861775,-8.317456,0.076614454
5.838577,4.684689,-0.0071552116,0.100734174,0.16212043,4.3861775,-8.317456,0.076614454
5.838667,4.6848197,0.00030163955,0.102864705,0.1866215,4.4484267,-8.307879,0.110133275
5.838757,4.6849504,0.00030163955,0.102864705,0.1866215,4.4484267,-8.307879,0.110133275
5.838884,4.6850963,0.0066932263,0.10392997,0.21112259,4.3766007,-8.288726,0.14844051
5.8390107,4.685242,0.0066932263,0.10392997,0.21112259,4.3766007,-8.288726,0.14844051
5.8391724,4.685399,0.013084813,0.1060605,0.23881947,4.4101195,-8.298303,0.23942018
5.8393335,4.6855555,0.013084813,0.1060605,0.23881947,4.4101195,-8.298303,0.23942018
5.839535,4.685724,0.019476399,0.10819103,0.26971215,4.4101195,-8.255207,0.35434186
5.839736,4.6858916,0.019476399,0.10819103,0.26971215,4.4101195,-8.255207,0.35434186
5.839981,4.686076,0.02906378,0.11138682,0.30273533,4.3718123,-8.303091,0.4213795
5.8402257,4.6862593,0.02906378,0.11138682,0.30273533,4.3718123,-8.303091,0.4213795
5.8405104,4.686454,0.03652063,0.11458261,0.3368238,4.343082,-8.293514,0.48362875
5.840795,4.6866484,0.03652063,0.11458261,0.3368238,4.343082,-8.293514,0.48362875
5.841128,4.6868567,0.04610801,0.11564788,0.3730428,4.2664676,-8.283937,0.5793968
5.8414607,4.687065,0.04610801,0.11564788,0.3730428,4.2664676,-8.283937,0.5793968
5.8418336,4.687282,0.055695392,0.11458261,0.41352284,4.295198,-8.293514,0.641646
5.8422084,4.6875005,0.055695392,0.11458261,0.41352284,4.295198,-8.293514,0.641646
5.842619,4.687723,0.06421751,0.11138682,0.45506814,4.3382936,-8.336611,0.6655881
5.8430314,4.687947,0.06421751,0.11138682,0.45506814,4.3382936,-8.336611,0.6655881
5.843487,4.688178,0.07273962,0.10819103,0.49767873,4.3526587,-8.360553,0.7038953
5.843942,4.688409,0.07273962,0.10819103,0.49767873,4.3526587,-8.360553,0.7038953
5.8444467,4.6886463,0.07913121,0.1060605,0.5434851,4.3382936,-8.39886,0.7278373
5.844951,4.688884,0.07913121,0.1060605,0.5434851,4.3382936,-8.39886,0.7278373
5.8455057,4.689127,0.08552279,0.102864705,0.58929145,4.2185836,-8.350976,0.62728083
5.8460593,4.6893706,0.08552279,0.102864705,0.58929145,4.2185836,-8.350976,0.62728083
5.846701,4.6896186,0.089783855,0.09540785,0.6329673,3.8642416,-8.48984,0.5602432
5.8473415,4.689866,0.089783855,0.09540785,0.6329673,3.8642416,-8.48984,0.5602432
5.8480453,4.6901107,0.09297965,0.08368994,0.67770845,3.7493198,-8.480263,0.45010993
5.8487453,4.690355,0.09297965,0.08368994,0.67770845,3.7493198,-8.480263,0.45010993
5.849435,4.6905885,0.091914386,0.06771098,0.7277759,4.247314,-8.6334915,0.39743748
5.8501253,4.6908226,0.091914386,0.06771098,0.7277759,4.247314,-8.6334915,0.39743748
5.8508463,4.691042,0.08871859,0.054927804,0.7778433,4.4675803,-8.748413,0.4309563
5.8515663,4.6912613,0.08871859,0.054927804,0.7778433,4.4675803,-8.748413,0.4309563
5.8523464,4.6914773,0.08552279,0.046405688,0.8247149,4.3766007,-8.844181,0.41180268
5.853126,4.6916933,0.08552279,0.046405688,0.8247149,4.3766007,-8.844181,0.41180268
5.853964,4.6919045,0.08126174,0.03681831,0.8673255,4.2425256,-8.887277,0.33518824
5.8548,4.6921153,0.08126174,0.03681831,0.8673255,4.2425256,-8.887277,0.33518824
5.85567,4.692317,0.07700068,0.026165664,0.905675,4.213795,-8.911219,0.17717093
5.8565373,4.6925178,0.07700068,0.026165664,0.905675,4.213795,-8.911219,0.17717093
5.85748,4.6927123,0.07167436,0.01551302,0.9450898,4.074931,-8.959103,0.15322891
5.8584228,4.6929073,0.07167436,0.01551302,0.9450898,4.074931,-8.959103,0.15322891
5.8594747,4.693076,0.06528277,0.003795111,0.9823741,3.9312792,-9.040505,-0.0047884034
5.8605223,4.693246,0.06528277,0.003795111,0.9823741,3.9312792,-9.040505,-0.0047884034
5.8616657,4.6933594,0.055695392,-0.007922798,1.0185931,3.8163576,-9.030929,-0.08619126
5.862806,4.693474,0.055695392,-0.007922798,1.0185931,3.8163576,-9.030929,-0.08619126
5.863995,4.6935496,0.04610801,-0.019640706,1.0537468,3.6870706,-9.045294,-0.10534488
5.8651834,4.6936264,0.04610801,-0.019640706,1.0537468,3.6870706,-9.045294,-0.10534488
5.8664064,4.6936297,0.03545537,-0.033489145,1.0878352,3.6583402,-9.126697,-0.23463176
5.8676305,4.6936326,0.03545537,-0.033489145,1.0878352,3.6583402,-9.126697,-0.23463176
5.8688874,4.693613,0.025867987,-0.04627232,1.1229889,3.667917,-9.212888,-0.25857377
5.870145,4.6935925,0.025867987,-0.04627232,1.1229889,3.667917,-9.212888,-0.25857377
5.871423,4.693536,0.0141500775,-0.057990227,1.1570774,3.6343982,-9.3182335,-0.34955344
5.8727016,4.693477,0.0141500775,-0.057990227,1.1570774,3.6343982,-9.3182335,-0.34955344
5.874,4.693388,0.00030163955,-0.06864287,1.1901007,3.6152446,-9.41879,-0.4405331
5.875297,4.693298,0.00030163955,-0.06864287,1.1901007,3.6152446,-9.41879,-0.4405331
5.8766284,4.693189,-0.013546798,-0.079295516,1.2209933,3.4715924,-9.552865,-0.5506664
5.877957,4.69308,-0.013546798,-0.079295516,1.2209933,3.4715924,-9.552865,-0.5506664
5.8793197,4.6929507,-0.027395237,-0.08888289,1.2497554,3.5242648,-9.591172,-0.5363012
5.880669,4.6928225,-0.027395237,-0.08888289,1.2497554,3.5242648,-9.591172,-0.5363012
5.88205,4.692675,-0.042308938,-0.09633975,1.2774523,3.5003228,-9.758766,-0.59376204
5.88343,4.692528,-0.042308938,-0.09633975,1.2774523,3.5003228,-9.758766,-0.59376204
5.8848276,4.6923566,-0.056157377,-0.10273133,1.3019534,3.5242648,-9.873688,-0.6895301
5.886223,4.6921854,-0.056157377,-0.10273133,1.3019534,3.5242648,-9.873688,-0.6895301
5.8876557,4.692007,-0.06894055,-0.106992394,1.328585,3.4620156,-10.007763,-0.6655881
5.889089,4.6918287,-0.06894055,-0.106992394,1.328585,3.4620156,-10.007763,-0.6655881
5.890548,4.691638,-0.08172372,-0.106992394,1.3530861,3.4715924,-10.093954,-0.6751649
5.8920007,4.6914473,-0.08172372,-0.106992394,1.3530861,3.4715924,-10.093954,-0.6751649
5.893479,4.6912475,-0.092376366,-0.1037966,1.3775872,3.466804,-10.199299,-0.7038953
5.8949575,4.6910467,-0.092376366,-0.1037966,1.3775872,3.466804,-10.199299,-0.7038953
5.896465,4.69085,-0.09770269,-0.09633975,1.3999578,3.4093432,-10.271125,-0.6847417
5.89797,4.6906524,-0.09770269,-0.09633975,1.3999578,3.4093432,-10.271125,-0.6847417
5.8995204,4.6904736,-0.10196375,-0.08355658,1.4255241,3.2513258,-10.314221,-0.58897364
5.9010687,4.6902947,-0.10196375,-0.08355658,1.4255241,3.2513258,-10.314221,-0.58897364
5.9026494,4.690133,-0.09983322,-0.064381815,1.4553515,3.145981,-10.309433,-0.5650316
5.904233,4.6899705,-0.09983322,-0.064381815,1.4553515,3.145981,-10.309433,-0.5650316
5.9058514,4.6898236,-0.093441635,-0.044141788,1.4915705,2.9831753,-10.366894,-0.62249243
5.9074674,4.6896763,-0.093441635,-0.044141788,1.4915705,2.9831753,-10.366894,-0.62249243
5.909132,4.6895494,-0.0795932,-0.020705972,1.5384421,2.7868507,-10.34774,-0.7086837
5.9107947,4.689423,-0.0795932,-0.020705972,1.5384421,2.7868507,-10.34774,-0.7086837
5.912525,4.689332,-0.060418434,0.003795111,1.5938358,2.6719291,-10.376471,-0.6703765
5.914238,4.6892414,-0.060418434,0.003795111,1.5938358,2.6719291,-10.376471,-0.6703765
5.916035,4.6891966,-0.03804788,0.028296193,1.6630781,2.4420857,-10.409989,-0.56982
5.917832,4.689152,-0.03804788,0.028296193,1.6630781,2.4420857,-10.409989,-0.56982
5.919713,4.689152,-0.012481534,0.057058334,1.7451034,2.2122424,-10.429143,-0.521936
5.9216123,4.689152,-0.012481534,0.057058334,1.7451034,2.2122424,-10.429143,-0.521936
5.923598,4.6892023,0.016280606,0.09221206,1.8409772,2.111686,-10.5440645,-0.4405331
5.9255495,4.689252,0.016280606,0.09221206,1.8409772,2.111686,-10.5440645,-0.4405331
5.9276276,4.689354,0.04823854,0.13056158,1.9485689,1.8674773,-10.58716,-0.3878607
5.9297605,4.689459,0.04823854,0.13056158,1.9485689,1.8674773,-10.58716,-0.3878607
5.9319577,4.6896067,0.082327,0.17317216,2.0646827,1.7046716,-10.620679,-0.45489833
5.9341946,4.6897564,0.082327,0.17317216,2.0646827,1.7046716,-10.620679,-0.45489833
5.9365788,4.689965,0.118545994,0.21791327,2.194645,1.4221559,-10.644621,-0.4261679
5.9387817,4.6901565,0.118545994,0.21791327,2.194645,1.4221559,-10.644621,-0.4261679
5.9412484,4.6904125,0.15689552,0.2647849,2.3384557,1.0486604,-10.6158905,-0.46926352
5.9437003,4.6906657,0.15689552,0.2647849,2.3384557,1.0486604,-10.6158905,-0.46926352
5.946333,4.690977,0.19737557,0.309526,2.4982455,0.770933,-10.577583,-0.50278234
5.948961,4.691286,0.19737557,0.309526,2.4982455,0.770933,-10.577583,-0.50278234
5.951762,4.6916513,0.23998614,0.34787554,2.6729488,0.62728083,-10.539276,-0.48841715
5.954567,4.692015,0.23998614,0.34787554,2.6729488,0.62728083,-10.539276,-0.48841715
5.9575586,4.6924353,0.283662,0.381964,2.8604352,0.6464345,-10.55843,-0.45968673
5.960547,4.6928525,0.283662,0.381964,2.8604352,0.6464345,-10.55843,-0.45968673
5.963746,4.6933265,0.33053362,0.41392192,3.064966,0.2681506,-10.6158905,-0.50757074
5.966964,4.693801,0.33053362,0.41392192,3.064966,0.2681506,-10.6158905,-0.50757074
5.9703755,4.6943316,0.3816663,0.43948826,3.2844105,0.45968673,-10.644621,-0.45489833
5.9737844,4.6948586,0.3816663,0.43948826,3.2844105,0.45968673,-10.644621,-0.45489833
5.977193,4.695383,0.3816663,0.43948826,3.2844105,0.45968673,-10.644621,-0.45489833
5.9808707,4.695965,0.43173376,0.46079355,3.5177035,0.38307226,-10.70687,-0.5315128
5.9847903,4.696603,0.48286644,0.4810336,3.7616491,0.40222588,-10.821792,-0.51235914
5.993073,4.697941,0.5329339,0.4980778,4.0119863,1.091756,-10.817003,-0.5506664
5.993073,4.697941,0.5329339,0.4980778,4.0119863,1.091756,-10.817003,-0.5506664
5.996713,4.6985297,0.5329339,0.4980778,4.0119863,1.091756,-10.817003,-0.5506664
6.0012727,4.6992655,0.58406657,0.5204484,4.2665844,1.4700398,-10.773908,-0.6991069
6.005656,4.699967,0.58406657,0.5204484,4.2665844,1.4700398,-10.773908,-0.6991069
6.010309,4.7007003,0.6309382,0.5460147,4.5201173,1.8914193,-10.668563,-0.8810662
6.0149283,4.701422,0.6309382,0.5460147,4.5201173,1.8914193,-10.668563,-0.8810662
6.019697,4.7021594,0.66928774,0.5747769,4.765128,2.231396,-10.491392,-1.0199299
6.024684,4.7029247,0.66928774,0.5747769,4.765128,2.231396,-10.491392,-1.0199299
6.024684,4.7029247,0.66928774,0.5747769,4.765128,2.231396,-10.491392,-1.0199299
6.0307355,4.703844,0.69591933,0.60460424,4.9994864,2.4229321,-10.271125,-1.2737153
6.0394797,4.70516,0.69591933,0.60460424,4.9994864,2.4229321,-10.271125,-1.2737153
6.0446424,4.705926,0.710833,0.6354969,5.2221265,2.743755,-9.921572,-1.5514427
6.0497766,4.7066836,0.710833,0.6354969,5.2221265,2.743755,-9.921572,-1.5514427
6.0497766,4.7066836,0.710833,0.6354969,5.2221265,2.743755,-9.921572,-1.5514427
6.060557,4.708225,0.71189827,0.66532433,5.4330487,2.9975405,-9.457097,-1.8339585
6.066131,4.7089777,0.69591933,0.6940865,5.632253,3.1507695,-9.074024,-2.1978772
6.071699,4.7097263,0.69591933,0.6940865,5.632253,3.1507695,-9.074024,-2.1978772
6.0780215,4.71052,0.66289616,0.7143265,5.8144135,3.5865142,-8.825027,-2.2409728
6.083177,4.711163,0.66289616,0.7143265,5.8144135,3.5865142,-8.825027,-2.2409728
6.0890613,4.711833,0.61495924,0.7281749,5.9763336,4.1276035,-8.556877,-2.432509
6.0949445,4.712499,0.61495924,0.7281749,5.9763336,4.1276035,-8.556877,-2.432509
6.1009407,4.713116,0.55423915,0.7473497,6.119079,5.568913,-8.298303,-2.6192567
6.1069245,4.713727,0.55423915,0.7473497,6.119079,5.568913,-8.298303,-2.6192567
6.1130443,4.714284,0.48712748,0.78463393,6.2405195,6.6750345,-7.785944,-2.743755
6.1191635,4.714836,0.48712748,0.78463393,6.2405195,6.6750345,-7.785944,-2.743755
6.125365,4.7153153,0.4061674,0.84428877,6.331067,7.3549876,-7.469909,-2.8634653
6.1315784,4.71579,0.4061674,0.84428877,6.331067,7.3549876,-7.469909,-2.8634653
6.1378403,4.7161713,0.30816308,0.9220531,6.3843303,7.795521,-6.8665705,-3.193865
6.144096,4.7165465,0.30816308,0.9220531,6.3843303,7.795521,-6.8665705,-3.193865
6.150381,4.7168245,0.20163663,1.0083395,6.4024396,8.403648,-6.3781533,-3.3375173
6.156742,4.717099,0.20163663,1.0083395,6.4024396,8.403648,-6.3781533,-3.3375173
6.16299,4.71726,0.08552279,1.1084744,6.3885913,8.576031,-5.841852,-3.4955344
6.169225,4.717413,0.08552279,1.1084744,6.3885913,8.576031,-5.841852,-3.4955344
6.175421,4.7174363,-0.045504734,1.2192619,6.3459806,8.154651,-5.4444146,-3.7493198
6.1816545,4.7174525,-0.045504734,1.2192619,6.3459806,8.154651,-5.4444146,-3.7493198
6.187835,4.717331,-0.18505438,1.3236578,6.2799344,8.24563,-4.9895163,-3.9121256
6.193991,4.717202,-0.18505438,1.3236578,6.2799344,8.24563,-4.9895163,-3.9121256
6.200051,4.716921,-0.3373872,1.4237926,6.194713,8.231265,-4.606444,-4.074931
6.2061343,4.7166305,-0.3373872,1.4237926,6.194713,8.231265,-4.606444,-4.074931
6.212098,4.716177,-0.4993074,1.521797,6.0924478,7.8912888,-4.4580035,-3.9983168
6.218079,4.7157145,-0.4993074,1.521797,6.0924478,7.8912888,-4.4580035,-3.9983168
6.2239366,4.7150803,-0.6665539,1.6123444,5.9752684,7.6710224,-4.3622355,-3.9935284
6.229834,4.714433,-0.6665539,1.6123444,5.9752684,7.6710224,-4.3622355,-3.9935284
6.2355394,4.7136183,-0.8348657,1.691174,5.847437,7.1873937,-4.596867,-3.8642416
6.2412663,4.7127905,-0.8348657,1.691174,5.847437,7.1873937,-4.596867,-3.8642416
6.2468357,4.7117944,-1.0010469,1.7550899,5.7089524,6.8091097,-4.7070007,-3.620033
6.2524204,4.7107854,-1.0010469,1.7550899,5.7089524,6.8091097,-4.7070007,-3.620033
6.257867,4.709607,-1.1597713,1.8030268,5.567272,6.3350577,-4.951209,-3.442862
6.2633,4.708422,-1.1597713,1.8030268,5.567272,6.3350577,-4.951209,-3.442862
6.268598,4.7070723,-1.3110389,1.8392458,5.4277225,5.755661,-5.104438,-3.3423057
6.273894,4.7057133,-1.3110389,1.8392458,5.4277225,5.755661,-5.104438,-3.3423057
6.279054,4.704201,-1.4537843,1.8680079,5.2945647,5.070919,-5.4779334,-3.0119057
0.0010261273,4.7026796,-1.4537843,1.8680079,5.2945647,5.070919,-5.4779334,-3.0119057
0.006061113,4.7010174,-1.5837466,1.888248,5.1741896,4.390966,-5.9280434,-2.6910827
0.011092389,4.6993465,-1.5837466,1.888248,5.1741896,4.390966,-5.9280434,-2.6910827
0.01601599,4.6975484,-1.6998605,1.8978353,5.067663,3.6296098,-6.3063273,-2.3415294
0.020935463,4.6957417,-1.6998605,1.8978353,5.067663,3.6296098,-6.3063273,-2.3415294
0.025773834,4.6938205,-1.7999953,1.8935742,4.983507,2.7246015,-6.6654577,-2.0398598
0.030607482,4.6918902,-1.7999953,1.8935742,4.983507,2.7246015,-6.6654577,-2.0398598
0.035387095,4.689866,-1.8820207,1.8743995,4.9238524,2.0207062,-7.015011,-1.6998832
0.040151916,4.687837,-1.8820207,1.8743995,4.9238524,2.0207062,-7.015011,-1.6998832
0.044881612,4.6857367,-1.9438059,1.8424416,4.885503,1.4891934,-7.3166804,-1.3934253
0.04960559,4.683628,-1.9438059,1.8424416,4.885503,1.4891934,-7.3166804,-1.3934253
0.05431245,4.681473,-1.9853513,1.7977004,4.8716545,0.9816227,-7.599196,-1.0773908
0.059013024,4.67931,-1.9853513,1.7977004,4.8716545,0.9816227,-7.599196,-1.0773908
0.06371248,4.6771297,-2.0045261,1.743372,4.8801765,0.5650316,-7.8386164,-0.7613561
0.06840526,4.6749434,-2.0045261,1.743372,4.8801765,0.5650316,-7.8386164,-0.7613561
0.07311709,4.6727686,-2.0055914,1.6815866,4.9121346,0.2633622,-8.015787,-0.5267244
0.07782294,4.6705875,-2.0055914,1.6815866,4.9121346,0.2633622,-8.015787,-0.5267244
0.08257475,4.668426,-1.9917428,1.6123444,4.962202,-0.110133275,-8.063671,-0.4261679
0.087321,4.6662607,-1.9917428,1.6123444,4.962202,-0.110133275,-8.063671,-0.4261679
0.09213122,4.664129,-1.9672418,1.5367106,5.0282483,-0.2681506,-8.0684595,-0.3878607
0.09693765,4.661993,-1.9672418,1.5367106,5.0282483,-0.2681506,-8.0684595,-0.3878607
0.10187346,4.6599655,-1.9320881,1.4578811,5.1049476,-0.48841715,-8.00621,-0.15322891
0.10680248,4.657927,-1.9320881,1.4578811,5.1049476,-0.48841715,-8.00621,-0.15322891
0.11185751,4.6559443,-1.891608,1.3779863,5.1891036,-0.62728083,-7.795521,-0.047884032
0.11690316,4.65395,-1.891608,1.3779863,5.1891036,-0.62728083,-7.795521,-0.047884032
0.122075826,4.6520066,-1.846867,1.2980914,5.2796507,-0.78050977,-7.728483,0.11971009
0.12723957,4.650053,-1.846867,1.2980914,5.2796507,-0.78050977,-7.728483,0.11971009
0.13247687,4.6481376,-1.7999953,1.2192619,5.3712635,-0.5602432,-7.800309,0.25857377
0.1383707,4.6460576,-1.7509931,1.1404322,5.4628763,-0.34476504,-7.8769236,0.2777274
0.14314063,4.6443624,-1.7509931,1.1404322,5.4628763,-0.34476504,-7.8769236,0.2777274
0.14837795,4.6424904,-1.7509931,1.1404322,5.4628763,-0.34476504,-7.8769236,0.2777274
0.15395212,4.640579,-1.6987952,1.062668,5.545967,-0.320823,-7.9248075,0.23942018
0.15921569,4.6387625,-1.6987952,1.062668,5.545967,-0.320823,-7.9248075,0.23942018
0.16464356,4.636966,-1.6434014,0.9870342,5.618405,-0.36391866,-7.824251,0.11492168
0.17020895,4.635112,-1.6434014,0.9870342,5.618405,-0.36391866,-7.824251,0.11492168
0.17557287,4.633383,-1.5869424,0.91140044,5.6769943,-0.095768064,-7.714118,0.023942016
0.1810327,4.631613,-1.5869424,0.91140044,5.6769943,-0.095768064,-7.714118,0.023942016
0.1865475,4.6299033,-1.5283529,0.8378972,5.7217355,-0.076614454,-7.589619,0.05746084
0.19203758,4.628191,-1.5283529,0.8378972,5.7217355,-0.076614454,-7.589619,0.05746084
0.1975845,4.6265287,-1.4665675,0.76972026,5.747302,0,-7.326257,0
0.20314023,4.624853,-1.4665675,0.76972026,5.747302,0,-7.326257,0
0.2087192,4.623245,-1.4037169,0.70686966,5.75902,0.062249243,-7.153875,0.07182605
0.21425709,4.621638,-1.4037169,0.70686966,5.75902,0.062249243,-7.153875,0.07182605
0.21979252,4.6200933,-1.3419316,0.64721483,5.7568893,0.090979666,-6.885724,0.009576807
0.22535937,4.6185293,-1.3419316,0.64721483,5.7568893,0.090979666,-6.885724,0.009576807
0.23090611,4.617031,-1.279081,0.5886253,5.741976,0.11971009,-6.6989765,-0.047884032
0.23644562,4.6155257,-1.279081,0.5886253,5.741976,0.11971009,-6.6989765,-0.047884032
0.24193144,4.614104,-1.2204914,0.5342968,5.7217355,-0.02873042,-6.5122285,0.047884032
0.24745978,4.612662,-1.2204914,0.5342968,5.7217355,-0.02873042,-6.5122285,0.047884032
0.25295913,4.6112847,-1.1650977,0.48209885,5.699365,-0.18674773,-6.3781533,0.0047884034
0.25847334,4.6098948,-1.1650977,0.48209885,5.699365,-0.18674773,-6.3781533,0.0047884034
0.26397315,4.608571,-1.1128997,0.43096617,5.674864,-0.49320555,-6.3063273,-0.019153614
0.26946,4.607241,-1.1128997,0.43096617,5.674864,-0.49320555,-6.3063273,-0.019153614
0.27494755,4.605968,-1.0670934,0.37983346,5.6535587,-0.78050977,-6.172252,-0.07182605
0.28043842,4.6046853,-1.0670934,0.37983346,5.6535587,-0.78050977,-6.172252,-0.07182605
0.2859124,4.6034694,-1.0266134,0.32657024,5.6365147,-1.1300632,-6.1530986,-0.10055647
0.29138324,4.6022444,-1.0266134,0.32657024,5.6365147,-1.1300632,-6.1530986,-0.10055647
0.2968821,4.6010656,-0.9935901,0.26904595,5.623731,-1.3742718,-6.1770406,-0.15801731
0.30235484,4.599883,-0.9935901,0.26904595,5.623731,-1.3742718,-6.1770406,-0.15801731
0.3078806,4.5987473,-0.9658932,0.21152169,5.6205354,-1.6376339,-6.1770406,-0.08619126
0.31339562,4.5976048,-0.9658932,0.21152169,5.6205354,-1.6376339,-6.1770406,-0.08619126
0.3189551,4.596502,-0.94458795,0.1539974,5.6205354,-2.006341,-6.229713,-0.1436521
0.3245242,4.5953884,-0.94458795,0.1539974,5.6205354,-2.006341,-6.229713,-0.1436521
0.33016166,4.5942907,-0.92860895,0.09753838,5.626927,-2.5187001,-6.220136,-0.2681506
0.33581525,4.593184,-0.92860895,0.09753838,5.626927,-2.5187001,-6.220136,-0.2681506
0.3415087,4.592079,-0.9179563,0.035753045,5.63758,-2.920926,-6.033388,-0.29688102
0.34721577,4.590966,-0.9179563,0.035753045,5.63758,-2.920926,-6.033388,-0.29688102
0.3529552,4.5898542,-0.91263,-0.030293351,5.6492977,-3.1842883,-5.9663506,-0.4165911
0.35869828,4.5887375,-0.91263,-0.030293351,5.6492977,-3.1842883,-5.9663506,-0.4165911
0.3645576,4.5876245,-0.9115647,-0.10273133,5.667407,-3.442862,-5.9998693,-0.33997664
0.37023652,4.586542,-0.9115647,-0.10273133,5.667407,-3.442862,-5.9998693,-0.33997664
0.37597066,4.5854816,-0.9158258,-0.17090826,5.690843,-3.5913026,-5.971139,-0.05267244
0.38176024,4.584406,-0.9158258,-0.17090826,5.690843,-3.5913026,-5.971139,-0.05267244
0.38754985,4.583344,-0.9232826,-0.2326936,5.7174745,-3.9264908,-6.009446,0.05746084
0.3933838,4.5822697,-0.9232826,-0.2326936,5.7174745,-3.9264908,-6.009446,0.05746084
0.39915583,4.5812197,-0.93287003,-0.2838263,5.7441063,-4.1802764,-6.0381765,0.31124622
0.40496668,4.5801578,-0.93287003,-0.2838263,5.7441063,-4.1802764,-6.0381765,0.31124622
0.41083077,4.5790887,-0.9435227,-0.3221758,5.768607,-4.4675803,-6.0477533,0.4165911
0.4172781,4.577901,-0.95843637,-0.34241584,5.7899127,-4.7644615,-6.0381765,0.50757074
0.42259565,4.5769167,-0.95843637,-0.34241584,5.7899127,-4.7644615,-6.0381765,0.50757074
0.42844614,4.5758295,-0.95843637,-0.34241584,5.7899127,-4.7644615,-6.0381765,0.50757074
0.43431574,4.57471,-0.97974163,-0.34241584,5.8016305,-5.1235914,-6.081272,0.59376204
0.4401955,4.5735836,-0.97974163,-0.34241584,5.8016305,-5.1235914,-6.081272,0.59376204
0.44608575,4.5724096,-1.005308,-0.32643688,5.8016305,-5.650316,-6.291962,0.50278234
0.4519864,4.5712276,-1.005308,-0.32643688,5.8016305,-5.650316,-6.291962,0.50278234
0.45786163,4.569992,-1.0362006,-0.30087054,5.790978,-6.157887,-6.5122285,0.36870706
0.4637411,4.56875,-1.0362006,-0.30087054,5.790978,-6.157887,-6.5122285,0.36870706
0.46959364,4.5674458,-1.0692239,-0.26997787,5.7664766,-6.6175733,-6.8186865,0.10534488
0.47545063,4.5661335,-1.0692239,-0.26997787,5.7664766,-6.6175733,-6.8186865,0.10534488
0.48128098,4.5647516,-1.1043776,-0.23695466,5.731323,-7.101202,-7.177817,-0.19632454
0.48710397,4.563364,-1.1043776,-0.23695466,5.731323,-7.101202,-7.177817,-0.19632454
0.4928772,4.5619125,-1.1416619,-0.20499672,5.6887126,-7.5225816,-7.5800424,-0.38307226
0.49865457,4.5604515,-1.1416619,-0.20499672,5.6887126,-7.5225816,-7.5800424,-0.38307226
0.5043874,4.558917,-1.1768156,-0.17943038,5.633319,-7.905654,-7.9966335,-0.8810662
0.51010144,4.5573783,-1.1768156,-0.17943038,5.633319,-7.905654,-7.9966335,-0.8810662
0.51577383,4.5557733,-1.2098387,-0.1634514,5.5725985,-8.0924015,-8.360553,-1.2497733
0.52200013,4.5539346,-1.2364703,-0.15705982,5.5044217,-8.1642275,-8.700529,-1.5945383
0.5270554,4.5524316,-1.2364703,-0.15705982,5.5044217,-8.1642275,-8.700529,-1.5945383
0.5270554,4.5524316,-1.2364703,-0.15705982,5.5044217,-8.1642275,-8.700529,-1.5945383
0.53824794,4.5490484,-1.2588409,-0.15812509,5.4319835,-8.0924015,-8.791509,-1.6759412
0.53824794,4.5490484,-1.2588409,-0.15812509,5.4319835,-8.0924015,-8.791509,-1.6759412
0.53824794,4.5490484,-1.2588409,-0.15812509,5.4319835,-8.0924015,-8.791509,-1.6759412
0.55408555,4.544102,-1.283342,-0.1634514,5.25515,-7.9487495,-8.949526,-1.8818425
0.560238,4.5420713,-1.283342,-0.1634514,5.25515,-7.9487495,-8.949526,-1.8818425
0.5658331,4.5402117,-1.283342,-0.1634514,5.25515,-7.9487495,-8.949526,-1.8818425
0.57081556,4.5385203,-1.2854725,-0.15812509,5.150754,-8.001422,-8.90643,-1.8531121
0.57591224,4.5367794,-1.2854725,-0.15812509,5.150754,-8.001422,-8.90643,-1.8531121
0.58101237,4.5349994,-1.2812115,-0.14640717,5.03464,-7.9822683,-8.973468,-1.8339585
0.58611643,4.5332065,-1.2812115,-0.14640717,5.03464,-7.9822683,-8.973468,-1.8339585
0.5911084,4.5314164,-1.2716241,-0.1251019,4.910004,-8.034941,-9.002198,-1.7621324
0.5961039,4.5296144,-1.2716241,-0.1251019,4.910004,-8.034941,-9.002198,-1.7621324
0.5961039,4.5296144,-1.2716241,-0.1251019,4.910004,-8.034941,-9.002198,-1.7621324
0.60549164,4.5261345,-1.2588409,-0.0856871,4.7747154,-8.058883,-9.011775,-1.6184803
0.6104245,4.5242443,-1.242862,-0.028162822,4.6341004,-8.283937,-9.102755,-1.4508862
0.61513007,4.5224304,-1.242862,-0.028162822,4.6341004,-8.283937,-9.102755,-1.4508862
0.6196618,4.5206013,-1.2247524,0.047470953,4.487094,-8.552089,-9.23683,-1.388637
0.62418175,4.5187664,-1.2247524,0.047470953,4.487094,-8.552089,-9.23683,-1.388637
0.6285295,4.5169015,-1.2055777,0.13695318,4.333696,-8.882488,-9.437943,-1.364695
0.63286114,4.515032,-1.2055777,0.13695318,4.333696,-8.882488,-9.437943,-1.364695
0.6370357,4.513116,-1.1810766,0.23282696,4.181363,-9.260772,-9.552865,-1.4700398
0.6412279,4.51118,-1.1810766,0.23282696,4.181363,-9.260772,-9.552865,-1.4700398
0.645233,4.5092216,-1.1523145,0.32870078,4.0332913,-9.543288,-9.715671,-1.508347
0.64928657,4.5072274,-1.1523145,0.32870078,4.0332913,-9.543288,-9.715671,-1.508347
0.65309095,4.5052385,-1.1203566,0.4235093,3.890546,-9.677363,-9.844957,-1.7286136
0.6569377,4.503216,-1.1203566,0.4235093,3.890546,-9.677363,-9.844957,-1.7286136
0.6606346,4.5011525,-1.0905292,0.51512206,3.7552574,-9.768343,-9.950302,-1.8818425
0.66432756,4.4990788,-1.0905292,0.51512206,3.7552574,-9.768343,-9.950302,-1.8818425
0.66788,4.4969554,-1.0607017,0.60566956,3.6252952,-9.782708,-9.935937,-2.0590134
0.6717726,4.494614,-1.0607017,0.60566956,3.6252952,-9.782708,-9.935937,-2.0590134
0.6749129,4.4926023,-1.0330049,0.6940865,3.4985287,-9.720459,-9.950302,-2.2026656
0.67830145,4.4904194,-1.0330049,0.6940865,3.4985287,-9.720459,-9.950302,-2.2026656
0.68157154,4.4881735,-1.009569,0.7803729,3.374958,-9.586384,-9.931149,-2.2888567
0.6848023,4.485943,-1.009569,0.7803729,3.374958,-9.586384,-9.931149,-2.2888567
0.6879028,4.4836574,-0.99145955,0.86239827,3.2524526,-9.471462,-9.92636,-2.3558946
0.69100565,4.4813576,-0.99145955,0.86239827,3.2524526,-9.471462,-9.92636,-2.3558946
0.69397914,4.4790144,-0.9722848,0.9390973,3.128882,-9.303867,-9.849746,-2.360683
0.6969306,4.4766774,-0.9722848,0.9390973,3.128882,-9.303867,-9.849746,-2.360683
0.69974095,4.4743295,-0.9541753,1.0115353,3.0031807,-9.203311,-9.725247,-2.2649148
0.7025537,4.471968,-0.9541753,1.0115353,3.0031807,-9.203311,-9.725247,-2.2649148
0.70521206,4.4696064,-0.93500054,1.0818428,2.87961,-9.016563,-9.56723,-2.1691468
0.70785856,4.4672422,-0.93500054,1.0818428,2.87961,-9.016563,-9.56723,-2.1691468
0.71037287,4.4648547,-0.91263,1.1478891,2.7549741,-8.892065,-9.3421755,-2.0590134
0.7128571,4.4624796,-0.91263,1.1478891,2.7549741,-8.892065,-9.3421755,-2.0590134
0.71521014,4.4600816,-0.88599837,1.2139355,2.633534,-8.848969,-9.054871,-1.9967642
0.7175733,4.457657,-0.88599837,1.2139355,2.633534,-8.848969,-9.054871,-1.9967642
0.71978337,4.455243,-0.8551057,1.2757208,2.5142243,-8.695741,-8.748413,-1.8962077
0.72197616,4.4528317,-0.8551057,1.2757208,2.5142243,-8.695741,-8.748413,-1.8962077
0.7240566,4.4504013,-0.82101727,1.3321799,2.4002411,-8.576031,-8.451532,-1.8770541
0.726133,4.447959,-0.82101727,1.3321799,2.4002411,-8.576031,-8.451532,-1.8770541
0.72810334,4.445499,-0.78266776,1.3811821,2.2905188,-8.676587,-8.073248,-1.9153614
0.7300627,4.443037,-0.78266776,1.3811821,2.2905188,-8.676587,-8.073248,-1.9153614
0.731921,4.4405494,-0.7421877,1.4227273,2.1829271,-8.652645,-7.752425,-2.0925324
0.7337716,4.438058,-0.7421877,1.4227273,2.1829271,-8.652645,-7.752425,-2.0925324
0.73551613,4.4355836,-0.7027729,1.4546853,2.0849228,-8.298303,-7.5321584,-2.1021092
0.73726356,4.4330916,-0.7027729,1.4546853,2.0849228,-8.298303,-7.5321584,-2.1021092
0.7389039,4.4306226,-0.6686844,1.4802517,1.9922447,-8.135497,-7.311892,-2.1308396
0.740542,4.428144,-0.6686844,1.4802517,1.9922447,-8.135497,-7.311892,-2.1308396
0.7420834,4.4256787,-0.63566124,1.501557,1.904893,-7.943961,-7.201759,-2.1978772
0.743623,4.423204,-0.63566124,1.501557,1.904893,-7.943961,-7.201759,-2.1978772
0.74507457,4.420748,-0.6058338,1.5186012,1.8249983,-7.8050976,-7.0102224,-2.207454
0.7465143,4.4183,-0.6058338,1.5186012,1.8249983,-7.8050976,-7.0102224,-2.207454
0.74788606,4.4158483,-0.5802675,1.5271233,1.7493645,-7.762002,-6.8569937,-2.2409728
0.74924505,4.4134064,-0.5802675,1.5271233,1.7493645,-7.762002,-6.8569937,-2.2409728
0.7505345,4.4109955,-0.5589622,1.5303191,1.6822528,-7.642292,-6.7085533,-2.207454
0.75182843,4.408563,-0.5589622,1.5303191,1.6822528,-7.642292,-6.7085533,-2.207454
0.7530517,4.406182,-0.5397874,1.5271233,1.6215327,-7.5321584,-6.4882865,-2.15957
0.75428367,4.40377,-0.5397874,1.5271233,1.6215327,-7.5321584,-6.4882865,-2.15957
0.7554495,4.4014225,-0.52487373,1.5207317,1.5693347,-7.489063,-6.2632318,-2.0733786
0.75661033,4.399071,-0.52487373,1.5207317,1.5693347,-7.489063,-6.2632318,-2.0733786
0.7577268,4.3967705,-0.5110253,1.510079,1.5288547,-7.359776,-6.0621185,-1.934515
0.7588525,4.394436,-0.5110253,1.510079,1.5288547,-7.359776,-6.0621185,-1.934515
0.75993156,4.3921633,-0.4993074,1.4951653,1.4990274,-7.393295,-5.8562174,-1.9249382
0.7610145,4.3898687,-0.4993074,1.4951653,1.4990274,-7.393295,-5.8562174,-1.9249382
0.7620796,4.3876076,-0.48972002,1.4749253,1.4787873,-7.3071036,-5.683835,-1.8339585
0.76314193,4.3853374,-0.48972002,1.4749253,1.4787873,-7.3071036,-5.683835,-1.8339585
0.7642043,4.3830748,-0.48332843,1.4482937,1.4670694,-7.192182,-5.48751,-1.8626889
0.76524836,4.3808374,-0.48332843,1.4482937,1.4670694,-7.192182,-5.48751,-1.8626889
0.7663041,4.3786006,-0.4811979,1.4152706,1.4628084,-7.1251445,-5.2241483,-1.8722657
0.7673554,4.3763595,-0.4811979,1.4152706,1.4628084,-7.1251445,-5.2241483,-1.8722657
0.76842105,4.3741217,-0.4843937,1.3790516,1.4691999,-6.9623384,-5.070919,-1.9728222
0.7694845,4.3718762,-0.4843937,1.3790516,1.4691999,-6.9623384,-5.070919,-1.9728222
0.77056736,4.369626,-0.4961116,1.3428326,1.4841136,-6.83784,-4.8985367,-2.0590134
0.77164936,4.3673644,-0.4961116,1.3428326,1.4841136,-6.83784,-4.8985367,-2.0590134
0.77275056,4.3650913,-0.51848215,1.3066136,1.5022231,-6.7229185,-4.687847,-2.135628
0.7738501,4.362809,-0.51848215,1.3066136,1.5022231,-6.7229185,-4.687847,-2.135628
0.77497584,4.360522,-0.5515053,1.2714598,1.5213978,-6.6271505,-4.5537715,-2.0590134
0.77609795,4.3582296,-0.5515053,1.2714598,1.5213978,-6.6271505,-4.5537715,-2.0590134
0.7772451,4.3559074,-0.5898549,1.2352408,1.5416379,-6.5601125,-4.405331,-2.1212628
0.7783886,4.3535805,-0.5898549,1.2352408,1.5416379,-6.5601125,-4.405331,-2.1212628
0.7795629,4.351246,-0.63353074,1.2000871,1.5640085,-6.6079965,-4.3047748,-2.006341
0.78073484,4.348904,-0.63353074,1.2000871,1.5640085,-6.6079965,-4.3047748,-2.006341
0.7819373,4.3465347,-0.68359816,1.1659986,1.586379,-6.6079965,-4.256891,-1.9488802
0.7831312,4.344169,-0.68359816,1.1659986,1.586379,-6.6079965,-4.256891,-1.9488802
0.7843581,4.3417716,-0.7357961,1.130845,1.6087495,-6.679823,-4.247314,-1.8962077
0.7855847,4.3393617,-0.7357961,1.130845,1.6087495,-6.679823,-4.247314,-1.8962077
0.7868336,4.336942,-0.7869288,1.0924954,1.6289896,-6.8330517,-4.2521024,-1.8579005
0.7880831,4.3345075,-0.7869288,1.0924954,1.6289896,-6.8330517,-4.2521024,-1.8579005
0.7893587,4.3320646,-0.8369962,1.0520153,1.6502949,-7.0006456,-4.261679,-1.757344
0.79062766,4.3296213,-0.8369962,1.0520153,1.6502949,-7.0006456,-4.261679,-1.757344
0.79192793,4.327159,-0.8849331,1.006209,1.6684043,-7.1730285,-4.237737,-1.7142484
0.7932265,4.3246856,-0.8849331,1.006209,1.6684043,-7.1730285,-4.237737,-1.7142484
0.7945522,4.3222194,-0.9275437,0.9550763,1.6886444,-7.441179,-4.357447,-1.7046716
0.79587907,4.3197374,-0.9275437,0.9550763,1.6886444,-7.441179,-4.357447,-1.7046716
0.7972363,4.317268,-0.96482795,0.90181303,1.7099497,-7.723695,-4.4580035,-1.6232687
0.7985892,4.314792,-0.96482795,0.90181303,1.7099497,-7.723695,-4.4580035,-1.6232687
0.7999717,4.3123307,-0.9967859,0.8474846,1.7269939,-7.9343843,-4.5633483,-1.5466543
0.80134314,4.3098755,-0.9967859,0.8474846,1.7269939,-7.9343843,-4.5633483,-1.5466543
0.8027567,4.3074102,-1.0223522,0.7974171,1.7429729,-8.264784,-4.793192,-1.5466543
0.8041592,4.3049507,-1.0223522,0.7974171,1.7429729,-8.264784,-4.793192,-1.5466543
0.80558455,4.302512,-1.0425923,0.75161076,1.7578865,-8.671799,-5.133168,-1.5035586
0.80700463,4.30007,-1.0425923,0.75161076,1.7578865,-8.671799,-5.133168,-1.5035586
0.80844605,4.297638,-1.0585712,0.71113074,1.7664087,-9.155427,-5.5018754,-1.5849615
0.8098811,4.2952046,-1.0585712,0.71113074,1.7664087,-9.155427,-5.5018754,-1.5849615
0.8113277,4.2927856,-1.0724196,0.6781075,1.7717351,-9.691729,-5.9567738,-1.6711528
0.81276715,4.2903647,-1.0724196,0.6781075,1.7717351,-9.691729,-5.9567738,-1.6711528
0.8142175,4.287953,-1.0841376,0.6461496,1.7696044,-10.156203,-6.445191,-1.8579005
0.81567067,4.2855234,-1.0841376,0.6461496,1.7696044,-10.156203,-6.445191,-1.8579005
0.81711245,4.2831316,-1.0947902,0.61419165,1.7589519,-10.539276,-6.9479733,-2.0398598
0.81855285,4.2807293,-1.0947902,0.61419165,1.7589519,-10.539276,-6.9479733,-2.0398598
0.8199713,4.2783732,-1.1011819,0.5822337,1.7387118,-10.577583,-7.479486,-2.1212628
0.8213855,4.2760115,-1.1011819,0.5822337,1.7387118,-10.577583,-7.479486,-2.1212628
0.8227821,4.273693,-1.1033124,0.5460147,1.7078191,-11.147403,-7.929596,-2.3080103
0.8241774,4.271365,-1.1033124,0.5460147,1.7078191,-11.147403,-7.929596,-2.3080103
0.82554406,4.269101,-1.097986,0.5023389,1.6577517,-11.63582,-8.24563,-2.504335
0.82690704,4.2668324,-1.097986,0.5023389,1.6577517,-11.63582,-8.24563,-2.504335
0.8282323,4.2646604,-1.082007,0.44587985,1.5938358,-11.908759,-8.504205,-2.6240451
0.8295552,4.2624817,-1.082007,0.44587985,1.5938358,-11.908759,-8.504205,-2.6240451
0.8308245,4.260448,-1.057506,0.37344187,1.5160716,-12.071565,-8.748413,-2.633622
0.8321094,4.25838,-1.057506,0.37344187,1.5160716,-12.071565,-8.748413,-2.633622
0.8333155,4.2565136,-1.0191565,0.289286,1.4201977,-12.028469,-8.882488,-2.6144683
0.8345614,4.254578,-1.0191565,0.289286,1.4201977,-12.028469,-8.882488,-2.6144683
0.83568764,4.252928,-0.9658932,0.19234692,1.3062145,-12.0093155,-8.963891,-2.4468741
0.83681667,4.251267,-0.9658932,0.19234692,1.3062145,-12.0093155,-8.963891,-2.4468741
0.83788335,4.2498364,-0.89345527,0.08155942,1.1762522,-11.899182,-9.035717,-2.3223755
0.8389538,4.248396,-0.89345527,0.08155942,1.1762522,-11.899182,-9.035717,-2.3223755
0.8399398,4.247243,-0.80716884,-0.040945996,1.0313762,-11.789049,-8.99741,-2.1883004
0.84092826,4.2460837,-0.80716884,-0.040945996,1.0313762,-11.789049,-8.99741,-2.1883004
0.8418203,4.2452497,-0.70383817,-0.1730388,0.86839074,-11.650186,-8.959103,-2.1308396
0.8427199,4.2444067,-0.70383817,-0.1730388,0.86839074,-11.650186,-8.959103,-2.1308396
0.8435154,4.243914,-0.5866591,-0.31152317,0.6904916,-11.36767,-8.791509,-1.982399
0.8443127,4.2434206,-0.5866591,-0.31152317,0.6904916,-11.36767,-8.791509,-1.982399
0.84500366,4.2432914,-0.4598926,-0.45213807,0.5008745,-11.089942,-8.599973,-1.958457
0.84570056,4.243161,-0.4598926,-0.45213807,0.5008745,-11.089942,-8.599973,-1.958457
0.84627664,4.2434125,-0.3256693,-0.592753,0.30060482,-10.783484,-8.374918,-1.9871874
0.84684384,4.243661,-0.3256693,-0.592753,0.30060482,-10.783484,-8.374918,-1.9871874
0.8472971,4.2443047,-0.18825017,-0.7344332,0.0939435,-10.395624,-8.159439,-1.9632454
0.8477996,4.245021,-0.18825017,-0.7344332,0.0939435,-10.395624,-8.159439,-1.9632454
0.8480819,4.24594,-0.050831053,-0.87504804,-0.120174654,-10.055647,-8.010999,-1.958457
0.84844047,4.2471137,-0.050831053,-0.87504804,-0.120174654,-10.055647,-8.010999,-1.958457
0.8486153,4.2485285,0.08339227,-1.0124671,-0.34068438,-9.662998,-7.776367,-2.054225
0.848773,4.249816,0.08339227,-1.0124671,-0.34068438,-9.662998,-7.776367,-2.054225
0.8487976,4.2516394,0.211224,-1.1413642,-0.5654552,-9.370906,-7.632715,-2.1547816
0.8487976,4.2516394,0.211224,-1.1413642,-0.5654552,-9.370906,-7.632715,-2.1547816
0.8487976,4.2516394,0.211224,-1.1413642,-0.5654552,-9.370906,-7.632715,-2.1547816
0.8487976,4.2516394,0.211224,-1.1413642,-0.5654552,-9.370906,-7.632715,-2.1547816
0.8476579,4.2615285,0.43706006,-1.3586781,-1.00754,-9.002198,-7.3166804,-2.1978772
0.84737766,4.2638826,0.43706006,-1.3586781,-1.00754,-9.002198,-7.3166804,-2.1978772
0.84692776,4.2666364,0.5318686,-1.4438993,-1.2195276,-8.954314,-7.2209125,-2.303222
0.84647804,4.2693586,0.5318686,-1.4438993,-1.2195276,-8.954314,-7.2209125,-2.303222
0.8458842,4.2723336,0.6160245,-1.515272,-1.4208626,-9.074024,-7.129933,-2.3319526
0.8452822,4.2753186,0.6160245,-1.515272,-1.4208626,-9.074024,-7.129933,-2.3319526
0.8445456,4.2785025,0.68952775,-1.5770574,-1.6072838,-9.294291,-7.144298,-2.3415294
0.8438009,4.281692,0.68952775,-1.5770574,-1.6072838,-9.294291,-7.144298,-2.3415294
0.8429239,4.2850738,0.75450885,-1.6292553,-1.7777262,-9.524135,-7.1634517,-2.360683
0.84205514,4.288392,0.75450885,-1.6292553,-1.7777262,-9.524135,-7.1634517,-2.360683
0.841056,4.291907,0.8141637,-1.6739964,-1.9257979,-9.634268,-7.240066,-2.384625
0.8400463,4.2954245,0.8141637,-1.6739964,-1.9257979,-9.634268,-7.240066,-2.384625
0.8389413,4.299053,0.8663616,-1.7134112,-2.0536296,-9.576807,-7.1730285,-2.4612393
0.8378259,4.302683,0.8663616,-1.7134112,-2.0536296,-9.576807,-7.1730285,-2.4612393
0.8366216,4.3064213,0.91429853,-1.7443038,-2.1569602,-9.509769,-7.1395097,-2.4372973
0.83541167,4.310141,0.91429853,-1.7443038,-2.1569602,-9.509769,-7.1395097,-2.4372973
0.8341267,4.3139467,0.9590396,-1.7666744,-2.2453773,-9.466674,-7.086837,-2.4660277
0.83281803,4.3177843,0.9590396,-1.7666744,-2.2453773,-9.466674,-7.086837,-2.4660277
0.8314737,4.321594,0.9995197,-1.7794576,-2.3199458,-9.370906,-7.062895,-2.528277
0.83010703,4.3254313,0.9995197,-1.7794576,-2.3199458,-9.370906,-7.062895,-2.528277
0.8286826,4.32932,1.0389345,-1.7879797,-2.3796005,-9.294291,-6.9767036,-2.4995465
0.8272785,4.333116,1.0389345,-1.7879797,-2.3796005,-9.294291,-6.9767036,-2.4995465
0.82580453,4.337004,1.0762187,-1.7879797,-2.4264722,-9.198523,-6.8330517,-2.5617957
0.8242917,4.340953,1.0762187,-1.7879797,-2.4264722,-9.198523,-6.8330517,-2.5617957
0.8227745,4.344814,1.109242,-1.7826533,-2.4626913,-9.155427,-6.742072,-2.6001031
0.82124895,4.348654,1.109242,-1.7826533,-2.4626913,-9.155427,-6.742072,-2.6001031
0.819682,4.352503,1.1401346,-1.7698702,-2.4925187,-9.069236,-6.646304,-2.5617957
0.8180949,4.3563576,1.1401346,-1.7698702,-2.4925187,-9.069236,-6.646304,-2.5617957
0.81648207,4.3601875,1.1678315,-1.7517607,-2.5148892,-9.035717,-6.5361705,-2.4947581
0.81485677,4.364005,1.1678315,-1.7517607,-2.5148892,-9.035717,-6.5361705,-2.4947581
0.8131955,4.3678374,1.1912673,-1.7325859,-2.5329986,-8.887277,-6.4547677,-2.3175871
0.8115208,4.371661,1.1912673,-1.7325859,-2.5329986,-8.887277,-6.4547677,-2.3175871
0.8098141,4.375478,1.2147031,-1.7134112,-2.5532386,-8.686164,-6.3925185,-2.2122424
0.80810463,4.379262,1.2147031,-1.7134112,-2.5532386,-8.686164,-6.3925185,-2.2122424
0.8063507,4.3830643,1.2370737,-1.6931711,-2.574544,-8.561666,-6.339846,-2.087744
0.8045887,4.386845,1.2370737,-1.6931711,-2.574544,-8.561666,-6.339846,-2.087744
0.802786,4.3906293,1.2562485,-1.6708006,-2.5958493,-8.461109,-6.3685765,-1.9776106
0.80097586,4.394392,1.2562485,-1.6708006,-2.5958493,-8.461109,-6.3685765,-1.9776106
0.79912853,4.398136,1.2743579,-1.6484301,-2.6203504,-8.360553,-6.4164605,-2.0159178
0.79727393,4.401859,1.2743579,-1.6484301,-2.6203504,-8.360553,-6.4164605,-2.0159178
0.79537314,4.4055796,1.2914021,-1.6260595,-2.6491125,-8.264784,-6.4068837,-1.9249382
0.7934653,4.4092793,1.2914021,-1.6260595,-2.6491125,-8.264784,-6.4068837,-1.9249382
0.79150647,4.412966,1.3063159,-1.6026237,-2.6863968,-8.149862,-6.4739213,-1.9297266
0.78954047,4.4166293,1.3063159,-1.6026237,-2.6863968,-8.149862,-6.4739213,-1.9297266
0.78751636,4.4202886,1.3169686,-1.5823836,-2.727942,-8.0445175,-6.50744,-1.910573
0.78549325,4.4239106,1.3169686,-1.5823836,-2.727942,-8.0445175,-6.50744,-1.910573
0.78340894,4.427518,1.3233601,-1.5610784,-2.7737484,-7.9248075,-6.6175733,-1.9393034
0.78131807,4.431101,1.3233601,-1.5610784,-2.7737484,-7.9248075,-6.6175733,-1.9393034
0.7791643,4.43465,1.3244253,-1.5376426,-2.824881,-7.8386164,-6.655881,-1.958457
0.7770032,4.438175,1.3244253,-1.5376426,-2.824881,-7.8386164,-6.655881,-1.958457
0.7747686,4.4416666,1.3201643,-1.515272,-2.8824053,-7.7189064,-6.670246,-1.9728222
0.77253443,4.445121,1.3201643,-1.515272,-2.8824053,-7.7189064,-6.670246,-1.9728222
0.7702228,4.448536,1.3095117,-1.4982277,-2.9463212,-7.642292,-6.631939,-1.9871874
0.7678975,4.451936,1.3095117,-1.4982277,-2.9463212,-7.642292,-6.631939,-1.9871874
0.76549274,4.455294,1.2924675,-1.4822488,-3.017694,-7.551312,-6.6271505,-1.9728222
0.7630794,4.4586306,1.2924675,-1.4822488,-3.017694,-7.551312,-6.6271505,-1.9728222
0.76058483,4.4619336,1.2711622,-1.4684004,-3.0911973,-7.513005,-6.5696893,-1.9393034
0.758082,4.465216,1.2711622,-1.4684004,-3.0911973,-7.513005,-6.5696893,-1.9393034
0.7554971,4.4684796,1.2466611,-1.4556172,-3.1700268,-7.455544,-6.555324,-1.8339585
0.7529043,4.4717207,1.2466611,-1.4556172,-3.1700268,-7.455544,-6.555324,-1.8339585
0.75022197,4.4749603,1.2168336,-1.4396383,-3.2509868,-7.374141,-6.579266,-1.6424223
0.7475384,4.4781694,1.2168336,-1.4396383,-3.2509868,-7.374141,-6.579266,-1.6424223
0.7447539,4.481361,1.1848757,-1.4162024,-3.3308818,-7.3789296,-6.670246,-1.508347
0.74196976,4.484521,1.1848757,-1.4162024,-3.3308818,-7.3789296,-6.670246,-1.508347
0.7390817,4.4876356,1.1486567,-1.3821139,-3.4129071,-7.536947,-6.789956,-1.3934253
0.73618895,4.490726,1.1486567,-1.3821139,-3.4129071,-7.536947,-6.789956,-1.3934253
0.73319435,4.4937453,1.109242,-1.3384382,-3.4949324,-7.6710224,-6.9527617,-1.3599066
0.73020154,4.496734,1.109242,-1.3384382,-3.4949324,-7.6710224,-6.9527617,-1.3599066
0.7270994,4.49965,1.0655661,-1.2873054,-3.5790884,-7.589619,-7.2209125,-1.3503298
0.72398216,4.502553,1.0655661,-1.2873054,-3.5790884,-7.589619,-7.2209125,-1.3503298
0.7207326,4.5053964,1.0176291,-1.2265854,-3.662179,-7.273585,-7.5800424,-1.3359646
0.7174956,4.5082035,1.0176291,-1.2265854,-3.662179,-7.273585,-7.5800424,-1.3359646
0.7141754,4.5108695,0.96436596,-1.1530821,-3.7484653,-7.632715,-7.9152308,-1.4077905
0.7108359,4.5135245,0.96436596,-1.1530821,-3.7484653,-7.632715,-7.9152308,-1.4077905
0.7070299,4.516298,0.9111028,-1.076383,-3.8390129,-7.9870567,-8.183381,-1.532289
0.70393384,4.518529,0.9111028,-1.076383,-3.8390129,-7.9870567,-8.183381,-1.532289
0.70014465,4.5210037,0.85464376,-1.0028799,-3.9284952,-8.255207,-8.451532,-1.7429788
0.6968978,4.5231023,0.85464376,-1.0028799,-3.9284952,-8.255207,-8.451532,-1.7429788
0.69326735,4.525255,0.79711944,-0.93257236,-4.016912,-8.403648,-8.662222,-1.8052281
0.6896297,4.52739,0.79711944,-0.93257236,-4.016912,-8.403648,-8.662222,-1.8052281
0.685902,4.5293875,0.7385299,-0.870787,-4.1031985,-8.494628,-8.839393,-1.910573
0.6821526,4.5313773,0.7385299,-0.870787,-4.1031985,-8.494628,-8.839393,-1.910573
0.67832243,4.5332475,0.6820709,-0.81539327,-4.18842,-8.580819,-9.050082,-1.9632454
0.67447424,4.535109,0.6820709,-0.81539327,-4.18842,-8.580819,-9.050082,-1.9632454
0.6705214,4.5368967,0.6277424,-0.7685216,-4.2725754,-8.604761,-9.11712,-1.8866309
0.6665971,4.538654,0.6277424,-0.7685216,-4.2725754,-8.604761,-9.11712,-1.8866309
0.66255873,4.540326,0.57874024,-0.7323026,-4.358862,-8.523358,-9.093178,-1.9440918
0.6585183,4.541984,0.57874024,-0.7323026,-4.358862,-8.523358,-9.093178,-1.9440918
0.6543906,4.543579,0.53612965,-0.7035405,-4.4419527,-8.408437,-9.035717,-1.8818425
0.6502608,4.5451593,0.53612965,-0.7035405,-4.4419527,-8.408437,-9.035717,-1.8818425
0.6460456,4.5467095,0.4967149,-0.6822352,-4.525043,-8.192958,-8.954314,-1.661576
0.64184916,4.548237,0.4967149,-0.6822352,-4.525043,-8.192958,-8.954314,-1.661576
0.6375469,4.5497165,0.4604959,-0.665191,-4.6102643,-8.001422,-8.853758,-1.6280571
0.6332468,4.5511804,0.4604959,-0.665191,-4.6102643,-8.001422,-8.853758,-1.6280571
0.62885416,4.5526204,0.42853796,-0.64814675,-4.6954856,-7.819463,-8.714894,-1.4413095
0.624455,4.554047,0.42853796,-0.64814675,-4.6954856,-7.819463,-8.714894,-1.4413095
0.61996114,4.5554504,0.40190634,-0.63216776,-4.7839026,-7.747637,-8.671799,-1.2880806
0.6154748,4.556835,0.40190634,-0.63216776,-4.7839026,-7.747637,-8.671799,-1.2880806
0.6108943,4.558178,0.37740526,-0.62044984,-4.872319,-7.589619,-8.614338,-1.316811
0.6063123,4.559505,0.37740526,-0.62044984,-4.872319,-7.589619,-8.614338,-1.316811
0.6016339,4.5608044,0.35290417,-0.6108625,-4.9607363,-7.445967,-8.590396,-1.2545617
0.5969633,4.562086,0.35290417,-0.6108625,-4.9607363,-7.445967,-8.590396,-1.2545617
0.5921973,4.563336,0.33053362,-0.6044709,-5.0502186,-7.383718,-8.6095495,-1.2593501
0.5874252,4.5645723,0.33053362,-0.6044709,-5.0502186,-7.383718,-8.6095495,-1.2593501
0.5825414,4.5657644,0.3070978,-0.60020983,-5.1375704,-7.2209125,-8.66701,-1.388637
0.57769,4.5669346,0.3070978,-0.60020983,-5.1375704,-7.2209125,-8.66701,-1.388637
0.57275784,4.5680833,0.283662,-0.60020983,-5.222791,-7.0724716,-8.863335,-1.340753
0.567829,4.5692167,0.283662,-0.60020983,-5.222791,-7.0724716,-8.863335,-1.340753
0.5627998,4.570314,0.26022616,-0.6087319,-5.3080125,-6.861782,-8.90643,-1.4221559
0.5577441,4.571403,0.26022616,-0.6087319,-5.3080125,-6.861782,-8.90643,-1.4221559
0.5526429,4.572453,0.23679034,-0.6225804,-5.393234,-6.6606693,-8.987833,-1.4556746
0.5475302,4.5734925,0.23679034,-0.6225804,-5.393234,-6.6606693,-8.987833,-1.4556746
0.5423356,4.5745106,0.21548507,-0.64175516,-5.4752593,-6.6415157,-8.963891,-1.4939818
0.5371349,4.575517,0.21548507,-0.64175516,-5.4752593,-6.6415157,-8.963891,-1.4939818
0.53185934,4.5765033,0.1931145,-0.665191,-5.556219,-6.4978633,-8.844181,-1.4987702
0.52657235,4.5774794,0.1931145,-0.665191,-5.556219,-6.4978633,-8.844181,-1.4987702
0.5212189,4.5784454,0.16967869,-0.69288784,-5.6329184,-6.3925185,-8.6813755,-1.436521
0.5158482,4.579402,0.16967869,-0.69288784,-5.6329184,-6.3925185,-8.6813755,-1.436521
0.5104439,4.580343,0.14624287,-0.7237805,-5.7032256,-6.2632318,-8.42759,-1.3790601
0.50502205,4.581273,0.14624287,-0.7237805,-5.7032256,-6.2632318,-8.42759,-1.3790601
0.49954182,4.582193,0.122807056,-0.76106477,-5.7714024,-6.0860605,-8.169016,-1.3311762
0.49404392,4.583102,0.122807056,-0.76106477,-5.7714024,-6.0860605,-8.169016,-1.3311762
0.48850486,4.5840216,0.09617544,-0.798349,-5.8342533,-5.865794,-7.9822683,-1.0390835
0.48296437,4.584927,0.09617544,-0.798349,-5.8342533,-5.865794,-7.9822683,-1.0390835
0.47734913,4.585837,0.06954383,-0.834568,-5.897104,-5.616797,-7.809886,-0.8331822
0.47174993,4.5867286,0.06954383,-0.834568,-5.897104,-5.616797,-7.809886,-0.8331822
0.46606177,4.587628,0.040781688,-0.8633302,-5.9567585,-5.425261,-7.7572136,-0.521936
0.46037924,4.58851,0.040781688,-0.8633302,-5.9567585,-5.425261,-7.7572136,-0.521936
0.45463783,4.5893636,0.010954284,-0.8793091,-6.0142827,-5.3678,-7.843405,-0.49320555
0.44889644,4.590201,0.010954284,-0.8793091,-6.0142827,-5.3678,-7.843405,-0.49320555
0.4430829,4.5910177,-0.019938385,-0.8878312,-6.0718074,-5.3678,-8.010999,-0.24420857
0.4372756,4.591818,-0.019938385,-0.8878312,-6.0718074,-5.3678,-8.010999,-0.24420857
0.4313959,4.59258,-0.052961584,-0.8920923,-6.1293316,-5.5018754,-8.288726,-0.18195933
0.42551664,4.5933275,-0.052961584,-0.8920923,-6.1293316,-5.5018754,-8.288726,-0.18195933
0.41959703,4.59403,-0.08705004,-0.8974186,-6.182595,-5.463568,-8.499416,-0.25378537
0.41366616,4.594718,-0.08705004,-0.8974186,-6.182595,-5.463568,-8.499416,-0.25378537
0.40769097,4.595366,-0.12326904,-0.9059407,-6.2305317,-5.3438582,-8.762778,-0.30166942
0.4017166,4.5959983,-0.12326904,-0.9059407,-6.2305317,-5.3438582,-8.762778,-0.30166942
0.39570624,4.5965843,-0.16055329,-0.9155281,-6.2688813,-5.329493,-8.973468,-0.37349546
0.38970286,4.597154,-0.16055329,-0.9155281,-6.2688813,-5.329493,-8.973468,-0.37349546
0.38365573,4.5976777,-0.19890282,-0.92724603,-6.3040347,-5.2289367,-9.030929,-0.45010993
0.38365573,4.5976777,-0.19890282,-0.92724603,-6.3040347,-5.2289367,-9.030929,-0.45010993
0.3715046,4.598632,-0.2351218,-0.9400292,-6.3338623,-4.9559975,-9.050082,-0.47884035
0.3650938,4.5991106,-0.2351218,-0.9400292,-6.3338623,-4.9559975,-9.050082,-0.47884035
0.35919648,4.5995145,-0.2660145,-0.95600814,-6.3562326,-4.7884035,-8.963891,-0.48362875
0.35919648,4.5995145,-0.2660145,-0.95600814,-6.3562326,-4.7884035,-8.963891,-0.48362875
0.3468987,4.6002903,-0.29051554,-0.9730524,-6.373277,-4.5537715,-8.825027,-0.4357447
0.3407152,4.6006575,-0.29051554,-0.9730524,-6.373277,-4.5537715,-8.825027,-0.4357447
0.3407152,4.6006575,-0.29051554,-0.9730524,-6.373277,-4.5537715,-8.825027,-0.4357447
0.33367935,4.601053,-0.304364,-0.98583555,-6.389256,-4.285621,-8.614338,-0.40701428
0.32255504,4.6016455,-0.30862504,-0.9964882,-6.3956475,-4.1036615,-8.408437,-0.30645782
0.31591994,4.601981,-0.30862504,-0.9964882,-6.3956475,-4.1036615,-8.408437,-0.30645782
0.3103673,4.602259,-0.30329874,-1.0028799,-6.397778,-3.964798,-8.269572,-0.2633622
0.30425686,4.602552,-0.30329874,-1.0028799,-6.397778,-3.964798,-8.269572,-0.2633622
0.29809666,4.602859,-0.28838503,-1.0082061,-6.3956475,-3.86903,-8.231265,-0.11971009
0.29196873,4.6031504,-0.28838503,-1.0082061,-6.3956475,-3.86903,-8.231265,-0.11971009
0.28579965,4.603456,-0.26707974,-1.0082061,-6.389256,-3.7732618,-8.221688,-0.06703765
0.279626,4.6037483,-0.26707974,-1.0082061,-6.389256,-3.7732618,-8.221688,-0.06703765
0.27350026,4.6040497,-0.24044813,-1.0018145,-6.3786035,-3.763685,-8.274361,-0.08140286
0.2673696,4.6043386,-0.24044813,-1.0018145,-6.3786035,-3.763685,-8.274361,-0.08140286
0.261273,4.604632,-0.21062072,-0.99222714,-6.3594284,-3.8019924,-8.307879,-0.23942018
0.2551771,4.6049128,-0.21062072,-0.99222714,-6.3594284,-3.8019924,-8.307879,-0.23942018
0.24911427,4.605192,-0.18185858,-0.9783787,-6.3296013,-3.8642416,-8.422802,-0.45968673
0.24306369,4.6054587,-0.18185858,-0.9783787,-6.3296013,-3.8642416,-8.422802,-0.45968673
0.23703371,4.6057215,-0.15522698,-0.9623997,-6.2901864,-3.8881836,-8.485051,-0.6655881
0.23101555,4.6059723,-0.15522698,-0.9623997,-6.2901864,-3.8881836,-8.485051,-0.6655881
0.2250534,4.6062126,-0.13072589,-0.9485513,-6.236923,-3.9121256,-8.561666,-0.93852705
0.21909685,4.6064415,-0.13072589,-0.9485513,-6.236923,-3.9121256,-8.561666,-0.93852705
0.21320496,4.6066604,-0.1094206,-0.9347029,-6.1698117,-3.8259344,-8.652645,-1.1683705
0.20732464,4.6068687,-0.1094206,-0.9347029,-6.1698117,-3.8259344,-8.652645,-1.1683705
0.20150194,4.607064,-0.091311105,-0.9219197,-6.087786,-3.6631286,-8.652645,-1.3934253
0.19568518,4.6072497,-0.091311105,-0.9219197,-6.087786,-3.6631286,-8.652645,-1.3934253
0.18994251,4.607423,-0.075332135,-0.907006,-5.9919124,-3.371036,-8.599973,-1.541866
0.18420616,4.607588,-0.075332135,-0.907006,-5.9919124,-3.371036,-8.599973,-1.541866
0.17833044,4.607745,-0.0614837,-0.8920923,-5.8864512,-3.0119057,-8.475474,-1.6328455
0.17265911,4.607889,-0.0614837,-0.8920923,-5.8864512,-3.0119057,-8.475474,-1.6328455
0.16713706,4.6080103,-0.046569996,-0.87291753,-5.772468,-2.480393,-8.255207,-1.8004397
0.16171193,4.6081223,-0.046569996,-0.87291753,-5.772468,-2.480393,-8.255207,-1.8004397
0.15627478,4.608231,-0.027395237,-0.8494817,-5.652093,-2.1260512,-8.063671,-1.8914193
0.1507805,4.608334,-0.027395237,-0.8494817,-5.652093,-2.1260512,-8.063671,-1.8914193
0.14543755,4.608434,-0.008220476,-0.8196543,-5.5295877,-1.7956513,-7.867347,-1.9393034
0.1400871,4.6085277,-0.008220476,-0.8196543,-5.5295877,-1.7956513,-7.867347,-1.9393034
0.13487384,4.608625,0.012019549,-0.7866311,-5.407082,-1.685518,-7.656657,-2.0398598
0.12962142,4.6087165,0.012019549,-0.7866311,-5.407082,-1.685518,-7.656657,-2.0398598
0.124458715,4.6088133,0.031194309,-0.74934685,-5.2792506,-1.5801731,-7.503428,-2.0159178
0.11932441,4.608904,0.031194309,-0.74934685,-5.2792506,-1.5801731,-7.503428,-2.0159178
0.11432736,4.609001,0.051434334,-0.71312785,-5.149288,-1.4556746,-7.3885064,-1.9536686
0.10936303,4.609092,0.051434334,-0.71312785,-5.149288,-1.4556746,-7.3885064,-1.9536686
0.10447074,4.60919,0.06954383,-0.6715826,-5.01613,-1.4077905,-7.311892,-1.9871874
0.099610224,4.6092815,0.06954383,-0.6715826,-5.01613,-1.4077905,-7.311892,-1.9871874
0.09488197,4.6093755,0.08339227,-0.628972,-4.8851027,-1.3359646,-7.4603324,-1.9776106
0.09014206,4.6094646,0.08339227,-0.628972,-4.8851027,-1.3359646,-7.4603324,-1.9776106
0.08551835,4.6095524,0.09297965,-0.5863614,-4.748749,-1.2593501,-7.575254,-2.0446482
0.08088329,4.609636,0.09297965,-0.5863614,-4.748749,-1.2593501,-7.575254,-2.0446482
0.076430626,4.6097164,0.09830597,-0.540555,-4.6113296,-1.4317327,-7.785944,-2.1547816
0.071966656,4.609793,0.09830597,-0.540555,-4.6113296,-1.4317327,-7.785944,-2.1547816
0.067617424,4.6098604,0.09830597,-0.4958139,-4.4707146,-1.4173675,-8.00621,-2.2697031
0.06328755,4.6099243,0.09830597,-0.4958139,-4.4707146,-1.4173675,-8.00621,-2.2697031
0.059077173,4.609977,0.09511018,-0.45533386,-4.326904,-1.3838485,-8.178593,-2.3415294
0.054856103,4.6100264,0.09511018,-0.45533386,-4.326904,-1.3838485,-8.178593,-2.3415294
0.050654903,4.610063,0.089783855,-0.4148538,-4.1809626,-1.3599066,-8.307879,-2.4995465
0.046589598,4.610096,0.089783855,-0.4148538,-4.1809626,-1.3599066,-8.307879,-2.4995465
0.042778246,4.6101155,0.08445753,-0.37437376,-4.0360866,-1.1731589,-8.446744,-2.4899697
0.0388744,4.6101327,0.08445753,-0.37437376,-4.0360866,-1.1731589,-8.446744,-2.4899697
0.035095632,4.6101356,0.07700068,-0.3402853,-3.892276,-0.9911995,-8.389283,-2.5617957
0.03129591,4.6101356,0.07700068,-0.3402853,-3.892276,-0.9911995,-8.389283,-2.5617957
0.027625088,4.6101246,0.07167436,-0.30939263,-3.7495306,-0.7230489,-8.307879,-2.5809495
0.023970772,4.610111,0.07167436,-0.30939263,-3.7495306,-0.7230489,-8.307879,-2.5809495
0.02042188,4.6100883,0.0674133,-0.2806305,-3.6121116,-0.46447513,-8.212111,-2.6192567
0.016832191,4.610063,0.0674133,-0.2806305,-3.6121116,-0.46447513,-8.212111,-2.6192567
0.013393273,4.610033,0.06528277,-0.25293362,-3.4842799,-0.21068975,-8.030152,-2.4851813
0.009987068,4.6100006,0.06528277,-0.25293362,-3.4842799,-0.21068975,-8.030152,-2.4851813
0.006659343,4.609967,0.06634804,-0.22523674,-3.363905,0.10534488,-7.771579,-2.528277
0.0033032454,4.6099305,0.06634804,-0.22523674,-3.363905,0.10534488,-7.771579,-2.528277
6.5832704e-05,4.609898,0.07060909,-0.19860514,-3.252052,0.34955344,-7.465121,-2.4851813
6.2800155,4.6098633,0.07060909,-0.19860514,-3.252052,0.34955344,-7.465121,-2.4851813
6.2768745,4.6098347,0.074870154,-0.17410405,-3.1497867,0.6655881,-7.264008,-2.3319526
6.2736974,4.609804,0.074870154,-0.17410405,-3.1497867,0.6655881,-7.264008,-2.3319526
6.2706347,4.6097803,0.08126174,-0.15066823,-3.0571089,0.8475474,-7.062895,-2.303222
6.26757,4.6097546,0.08126174,-0.15066823,-3.0571089,0.8475474,-7.062895,-2.303222
6.264573,4.6097393,0.08871859,-0.12829769,-2.974018,1.0486604,-6.967127,-2.2170308
6.2615714,4.6097226,0.08871859,-0.12829769,-2.974018,1.0486604,-6.967127,-2.2170308
6.2586274,4.6097155,0.09617544,-0.105927125,-2.8994496,1.1587936,-6.9623384,-2.1164744
6.2556815,4.6097064,0.09617544,-0.105927125,-2.8994496,1.1587936,-6.9623384,-2.1164744
6.25281,4.609704,0.10150176,-0.08462184,-2.8302073,1.2306197,-6.9862804,-2.078167
6.2499337,4.6097,0.10150176,-0.08462184,-2.8302073,1.2306197,-6.9862804,-2.078167
6.247115,4.6097,0.104697555,-0.06544708,-2.7684221,1.2689269,-7.019799,-2.0590134
6.2443004,4.6096992,0.104697555,-0.06544708,-2.7684221,1.2689269,-7.019799,-2.0590134
6.241534,4.609703,0.10789335,-0.050533377,-2.707702,1.364695,-7.0581064,-2.0446482
6.238769,4.609705,0.10789335,-0.050533377,-2.707702,1.364695,-7.0581064,-2.0446482
6.236055,4.609709,0.106828086,-0.037750203,-2.6501777,1.4413095,-7.192182,-2.0015526
6.2333503,4.6097107,0.106828086,-0.037750203,-2.6501777,1.4413095,-7.192182,-2.0015526
6.2306914,4.6097116,0.105762824,-0.030293351,-2.5926535,1.4317327,-7.302315,-1.9728222
6.228044,4.6097116,0.105762824,-0.030293351,-2.5926535,1.4317327,-7.302315,-1.9728222
6.2254453,4.6097126,0.104697555,-0.02496703,-2.5340638,1.4700398,-7.3885064,-1.9057846
6.222847,4.6097126,0.104697555,-0.02496703,-2.5340638,1.4700398,-7.3885064,-1.9057846
6.220306,4.6097116,0.10363229,-0.0228365,-2.4765396,1.436521,-7.5082164,-1.8387469
6.217761,4.6097097,0.10363229,-0.0228365,-2.4765396,1.436521,-7.5082164,-1.8387469
6.215281,4.6097064,0.102567025,-0.026032293,-2.4179502,1.436521,-7.6135616,-1.8052281
6.2127976,4.6097016,0.102567025,-0.026032293,-2.4179502,1.436521,-7.6135616,-1.8052281
6.2103686,4.6096997,0.104697555,-0.035619672,-2.3604257,1.3982137,-7.73806,-1.70946
6.2079453,4.609697,0.104697555,-0.035619672,-2.3604257,1.3982137,-7.73806,-1.70946
6.205584,4.609694,0.10895862,-0.048402846,-2.305032,1.3934253,-7.7811556,-1.7764976
6.203224,4.60969,0.10895862,-0.048402846,-2.305032,1.3934253,-7.7811556,-1.7764976
6.200921,4.6096916,0.11428493,-0.06757761,-2.252834,1.3982137,-7.795521,-1.6903064
6.198608,4.609692,0.11428493,-0.06757761,-2.252834,1.3982137,-7.795521,-1.6903064
6.196348,4.6097,0.122807056,-0.08994816,-2.2006361,1.4652514,-7.800309,-1.6950948
6.194101,4.609707,0.122807056,-0.08994816,-2.2006361,1.4652514,-7.800309,-1.6950948
6.1918845,4.609721,0.13026391,-0.11338398,-2.1526992,1.5753847,-7.785944,-1.7046716
6.189669,4.609734,0.13026391,-0.11338398,-2.1526992,1.5753847,-7.785944,-1.7046716
6.187503,4.6097574,0.13985129,-0.13788506,-2.1100886,1.7190368,-7.747637,-1.7190368
6.1853333,4.609779,0.13985129,-0.13788506,-2.1100886,1.7190368,-7.747637,-1.7190368
6.1832027,4.609811,0.15263446,-0.1634514,-2.0696087,1.8579005,-7.6853876,-1.8195933
6.181073,4.6098413,0.15263446,-0.1634514,-2.0696087,1.8579005,-7.6853876,-1.8195933
6.178973,4.6098847,0.16754816,-0.18901776,-2.0333896,1.9488802,-7.589619,-1.8291701
6.17688,4.609927,0.16754816,-0.18901776,-2.0333896,1.9488802,-7.589619,-1.8291701
6.1748195,4.609982,0.18246186,-0.21245357,-2.0014317,2.0638018,-7.4363904,-1.9009962
6.172766,4.610035,0.18246186,-0.21245357,-2.0014317,2.0638018,-7.4363904,-1.9009962
6.1707354,4.6101036,0.19950609,-0.23375887,-1.9716042,2.1164744,-7.3310456,-1.8770541
6.1687036,4.6101713,0.19950609,-0.23375887,-1.9716042,2.1164744,-7.3310456,-1.8770541
6.166701,4.610257,0.21974611,-0.25186837,-1.9417769,2.2649148,-7.2352777,-1.9488802
6.1647043,4.610342,0.21974611,-0.25186837,-1.9417769,2.2649148,-7.2352777,-1.9488802
6.1627326,4.6104474,0.23892088,-0.26465154,-1.9087536,2.384625,-7.1969705,-1.9153614
6.1607614,4.6105514,0.23892088,-0.26465154,-1.9087536,2.384625,-7.1969705,-1.9153614
6.158818,4.6106763,0.26129144,-0.27530417,-1.877861,2.4420857,-7.1059904,-1.9440918
6.1568804,4.610799,0.26129144,-0.27530417,-1.877861,2.4420857,-7.1059904,-1.9440918
6.1549735,4.6109486,0.28685778,-0.2806305,-1.845903,2.542642,-7.053318,-1.9297266
6.1530614,4.6110973,0.28685778,-0.2806305,-1.845903,2.542642,-7.053318,-1.9297266
6.1511893,4.6112742,0.31561992,-0.28169575,-1.8075535,2.5617957,-7.07726,-1.9297266
6.1493196,4.6114497,0.31561992,-0.28169575,-1.8075535,2.5617957,-7.07726,-1.9297266
6.147494,4.6116557,0.34864312,-0.27956524,-1.7638777,2.5187001,-7.043741,-1.9871874
6.1456723,4.6118603,0.34864312,-0.27956524,-1.7638777,2.5187001,-7.043741,-1.9871874
6.1438813,4.6121044,0.38379684,-0.27104312,-1.7138103,2.5234885,-7.043741,-1.9297266
6.142103,4.6123457,0.38379684,-0.27104312,-1.7138103,2.5234885,-7.043741,-1.9297266
6.1403756,4.6126356,0.42640743,-0.2593252,-1.6530902,2.6527755,-7.015011,-1.9009962
6.1386967,4.6129165,0.42640743,-0.2593252,-1.6530902,2.6527755,-7.015011,-1.9009962
6.1369686,4.6132736,0.4743443,-0.24228097,-1.5859785,2.7820623,-7.086837,-1.8339585
6.135339,4.61361,0.4743443,-0.24228097,-1.5859785,2.7820623,-7.086837,-1.8339585
6.1337466,4.614007,0.525477,-0.22097568,-1.5146059,2.8299465,-7.1586633,-1.8339585
6.132157,4.6144032,0.525477,-0.22097568,-1.5146059,2.8299465,-7.1586633,-1.8339585
6.130638,4.6148586,0.58087075,-0.19327882,-1.4379067,2.815581,-7.297527,-1.8674773
6.1291094,4.6153173,0.58087075,-0.19327882,-1.4379067,2.815581,-7.297527,-1.8674773
6.12767,4.6158304,0.63732976,-0.16238615,-1.3601425,2.7820623,-7.4507556,-1.934515
6.126242,4.616339,0.63732976,-0.16238615,-1.3601425,2.7820623,-7.4507556,-1.934515
6.124883,4.6169147,0.6948541,-0.12936294,-1.2781171,2.6767175,-7.599196,-1.8914193
6.1235147,4.617494,0.6948541,-0.12936294,-1.2781171,2.6767175,-7.599196,-1.8914193
6.1222486,4.618126,0.7513131,-0.09633975,-1.1918308,2.6431987,-7.762002,-1.9728222
6.120987,4.6187563,0.7513131,-0.09633975,-1.1918308,2.6431987,-7.762002,-1.9728222
6.119792,4.619458,0.8056416,-0.064381815,-1.1023484,2.6479871,-7.9104424,-1.9201498
6.118621,4.620146,0.8056416,-0.064381815,-1.1023484,2.6479871,-7.9104424,-1.9201498
6.1175246,4.620899,0.8589048,-0.03455441,-1.0139315,2.657564,-8.106767,-1.9776106
6.1175246,4.620899,0.8589048,-0.03455441,-1.0139315,2.657564,-8.106767,-1.9776106
6.1153817,4.6226215,0.9111028,-0.0047270046,-0.9255146,2.6192567,-8.255207,-1.910573
6.114462,4.6233616,0.9111028,-0.0047270046,-0.9255146,2.6192567,-8.255207,-1.910573
6.113545,4.624221,0.96010494,0.020839343,-0.83709764,2.6671407,-8.355764,-1.8626889
6.112632,4.6250772,0.96010494,0.020839343,-0.83709764,2.6671407,-8.355764,-1.8626889
6.1117306,4.6260586,1.0080419,0.043209895,-0.7518765,2.719813,-8.384495,-1.7525556
6.11093,4.626931,1.0080419,0.043209895,-0.7518765,2.719813,-8.384495,-1.7525556
6.110133,4.6279364,1.0559788,0.062384658,-0.67517745,2.7581203,-8.465898,-1.7286136
6.1093483,4.628927,1.0559788,0.062384658,-0.67517745,2.7581203,-8.465898,-1.7286136
6.1086583,4.62993,1.1039156,0.07729836,-0.6038047,2.7724855,-8.480263,-1.5897499
6.1086583,4.62993,1.1039156,0.07729836,-0.6038047,2.7724855,-8.480263,-1.5897499
6.107851,4.631105,1.1039156,0.07729836,-0.6038047,2.7724855,-8.480263,-1.5897499
6.106576,4.6332183,1.1507872,0.087951005,-0.5409541,2.873042,-8.461109,-1.4652514
6.1060205,4.63426,1.1987242,0.09434259,-0.4876909,2.9113493,-8.494628,-1.3311762
6.105412,4.6354017,1.1987242,0.09434259,-0.4876909,2.9113493,-8.494628,-1.3311762
6.104833,4.6366086,1.2455958,0.09860365,-0.44721085,2.896984,-8.48984,-1.2258313
6.10426,4.6378045,1.2455958,0.09860365,-0.44721085,2.896984,-8.48984,-1.2258313
6.103703,4.6390777,1.2892716,0.10179944,-0.41418764,2.896984,-8.619126,-1.0007763
6.103136,4.640373,1.2892716,0.10179944,-0.41418764,2.896984,-8.619126,-1.0007763
6.102606,4.64168,1.3318822,0.100734174,-0.3918171,2.8634653,-8.643068,-0.9911995
6.1020813,4.6429725,1.3318822,0.100734174,-0.3918171,2.8634653,-8.643068,-0.9911995
6.1015625,4.644319,1.371297,0.09647312,-0.38009918,2.8634653,-8.738836,-0.90021986
6.101045,4.645663,1.371297,0.09647312,-0.38009918,2.8634653,-8.738836,-0.90021986
6.1005325,4.647044,1.4096465,0.089016266,-0.37583813,2.858677,-8.868123,-0.8714894
6.1000147,4.6484394,1.4096465,0.089016266,-0.37583813,2.858677,-8.868123,-0.8714894
6.099497,4.6498613,1.4458655,0.07729836,-0.37903392,2.8921957,-8.963891,-0.8283938
6.098979,4.651285,1.4458655,0.07729836,-0.37903392,2.8921957,-8.963891,-0.8283938
6.098451,4.6527476,1.479954,0.062384658,-0.38755605,2.8682537,-9.069236,-0.7613561
6.097924,4.654208,1.479954,0.062384658,-0.38755605,2.8682537,-9.069236,-0.7613561
6.097385,4.6557026,1.5129771,0.04427516,-0.39927393,2.8491,-9.232041,-0.7422025
6.0968485,4.6571903,1.5129771,0.04427516,-0.39927393,2.8491,-9.232041,-0.7422025
6.0962963,4.6587076,1.5449351,0.021904606,-0.41525292,2.9161377,-9.284714,-0.7278373
6.095744,4.6602244,1.5449351,0.021904606,-0.41525292,2.9161377,-9.284714,-0.7278373
6.09518,4.661767,1.5758277,-0.00366174,-0.42910135,2.9400797,-9.260772,-0.7230489
6.094616,4.663307,1.5758277,-0.00366174,-0.42910135,2.9400797,-9.260772,-0.7230489
6.0940413,4.664871,1.6056552,-0.030293351,-0.44188452,3.0023289,-9.208099,-0.7374141
6.0934644,4.666441,1.6056552,-0.030293351,-0.44188452,3.0023289,-9.208099,-0.7374141
6.0928783,4.668027,1.6365478,-0.062251285,-0.45573297,3.098097,-9.174581,-0.6751649
6.092289,4.669621,1.6365478,-0.062251285,-0.45573297,3.098097,-9.174581,-0.6751649
6.091686,4.671241,1.6642448,-0.095274486,-0.4695814,3.1268275,-9.198523,-0.60333884
6.091083,4.6728587,1.6642448,-0.095274486,-0.4695814,3.1268275,-9.198523,-0.60333884
6.090465,4.6744976,1.6898111,-0.12723242,-0.48556036,3.1651347,-9.155427,-0.5793968
6.089847,4.676135,1.6898111,-0.12723242,-0.48556036,3.1651347,-9.155427,-0.5793968
6.0892143,4.677801,1.7153774,-0.15812509,-0.4994088,3.2225955,-9.088389,-0.47884035
6.0885816,4.6794653,1.7153774,-0.15812509,-0.4994088,3.2225955,-9.088389,-0.47884035
6.0879383,4.681158,1.7398785,-0.18688722,-0.5089962,3.1842883,-9.107543,-0.38307226
6.0872965,4.682846,1.7398785,-0.18688722,-0.5089962,3.1842883,-9.107543,-0.38307226
6.0866456,4.684553,1.7601185,-0.2113883,-0.5175183,3.1316159,-9.045294,-0.33997664
6.0859942,4.686259,1.7601185,-0.2113883,-0.5175183,3.1316159,-9.045294,-0.33997664
6.085339,4.6879864,1.7771628,-0.23588939,-0.52177936,3.1124623,-9.016563,-0.22984336
6.084683,4.689713,1.7771628,-0.23588939,-0.52177936,3.1124623,-9.016563,-0.22984336
6.0840263,4.6914434,1.7910112,-0.25719467,-0.5228446,3.1507695,-9.069236,-0.2633622
6.0833693,4.6931705,1.7910112,-0.25719467,-0.5228446,3.1507695,-9.069236,-0.2633622
6.082711,4.694916,1.8016639,-0.2742389,-0.5228446,3.1747115,-9.021352,-0.18195933
6.0820537,4.696657,1.8016639,-0.2742389,-0.5228446,3.1747115,-9.021352,-0.18195933
6.0813985,4.6984015,1.8080554,-0.28915262,-0.51964885,3.2273839,-8.99741,-0.17238252
6.080743,4.700144,1.8080554,-0.28915262,-0.51964885,3.2273839,-8.99741,-0.17238252
6.0800943,4.7018795,1.8091207,-0.29980525,-0.51219195,3.2225955,-8.963891,-0.21068975
6.079446,4.7036133,1.8091207,-0.29980525,-0.51219195,3.2225955,-8.963891,-0.21068975
6.0788064,4.705332,1.8048596,-0.30832738,-0.50366986,3.2561142,-8.959103,-0.29209262
6.0781674,4.707049,1.8048596,-0.30832738,-0.50366986,3.2561142,-8.959103,-0.29209262
6.07754,4.7087603,1.7952722,-0.3136537,-0.48982143,3.347094,-8.863335,-0.23463176
6.076913,4.71047,1.7952722,-0.3136537,-0.48982143,3.347094,-8.863335,-0.23463176
6.0762987,4.712163,1.7792933,-0.31578422,-0.47597298,3.3901896,-8.772355,-0.23463176
6.0756845,4.7138543,1.7792933,-0.31578422,-0.47597298,3.3901896,-8.772355,-0.23463176
6.075082,4.715522,1.7569227,-0.31578422,-0.46425506,3.4237084,-8.7532015,-0.23942018
6.0744786,4.7171884,1.7569227,-0.31578422,-0.46425506,3.4237084,-8.7532015,-0.23942018
6.0738893,4.7188187,1.7281606,-0.31578422,-0.45253718,3.4859576,-8.662222,-0.320823
6.0732994,4.7204485,1.7281606,-0.31578422,-0.45253718,3.4859576,-8.662222,-0.320823
6.0727253,4.7220426,1.6940721,-0.3136537,-0.4365582,3.5098996,-8.6095495,-0.33518824
6.0721517,4.7236357,1.6940721,-0.3136537,-0.4365582,3.5098996,-8.6095495,-0.33518824
6.0715904,4.7251987,1.6546574,-0.30726212,-0.42057922,3.5098996,-8.537724,-0.272939
6.0710325,4.726752,1.6546574,-0.30726212,-0.42057922,3.5098996,-8.537724,-0.272939
6.0704837,4.728266,1.608851,-0.30087054,-0.4088613,3.5769374,-8.5473,-0.2825158
6.0699368,4.7297726,1.608851,-0.30087054,-0.4088613,3.5769374,-8.5473,-0.2825158
6.0694017,4.7312346,1.5587835,-0.29128313,-0.39607814,3.5051112,-8.475474,-0.272939
6.068866,4.7326984,1.5587835,-0.29128313,-0.39607814,3.5051112,-8.475474,-0.272939
6.0683618,4.7340546,1.5033898,-0.27849996,-0.38436025,3.347094,-8.441956,-0.17238252
6.067816,4.735522,1.5033898,-0.27849996,-0.38436025,3.347094,-8.441956,-0.17238252
6.067308,4.7368546,1.4405392,-0.26358625,-0.37477285,3.2609026,-8.48984,-0.19632454
6.0667963,4.738197,1.4405392,-0.26358625,-0.37477285,3.2609026,-8.48984,-0.19632454
6.0662932,4.7394776,1.371297,-0.2476073,-0.36518547,3.1842883,-8.571242,-0.15322891
6.0657854,4.7407684,1.371297,-0.2476073,-0.36518547,3.1842883,-8.571242,-0.15322891
6.065295,4.741971,1.298859,-0.22736728,-0.35666338,3.1603463,-8.628703,-0.17238252
6.0647893,4.7432137,1.298859,-0.22736728,-0.35666338,3.1603463,-8.628703,-0.17238252
6.0643206,4.744308,1.2189642,-0.20606199,-0.35346758,3.0693667,-8.6813755,-0.24899697
6.063842,4.745426,1.2189642,-0.20606199,-0.35346758,3.0693667,-8.6813755,-0.24899697
6.063373,4.7464504,1.133743,-0.1847567,-0.35346758,2.992752,-8.724471,-0.2873042
6.062905,4.7474747,1.133743,-0.1847567,-0.35346758,2.992752,-8.724471,-0.2873042
6.062439,4.748413,1.0442609,-0.16132088,-0.35666338,2.944868,-8.834604,-0.320823
6.0619707,4.749358,1.0442609,-0.16132088,-0.35666338,2.944868,-8.834604,-0.320823
6.0615087,4.750204,0.95264804,-0.13895033,-0.35985917,2.9017725,-8.901642,-0.320823
6.061044,4.7510557,0.95264804,-0.13895033,-0.35985917,2.9017725,-8.901642,-0.320823
6.060583,4.751806,0.8567743,-0.11764504,-0.367316,2.8299465,-8.954314,-0.31603462
6.0601177,4.7525625,0.8567743,-0.11764504,-0.367316,2.8299465,-8.954314,-0.31603462
6.059652,4.753223,0.76196575,-0.09740501,-0.37583813,2.8107927,-8.973468,-0.33997664
6.059187,4.7538824,0.76196575,-0.09740501,-0.37583813,2.8107927,-8.973468,-0.33997664
6.0587044,4.754458,0.6671572,-0.079295516,-0.3854255,2.7629087,-8.983045,-0.21068975
6.058244,4.7550077,0.6671572,-0.079295516,-0.3854255,2.7629087,-8.983045,-0.21068975
6.0577497,4.7554913,0.57234865,-0.06118602,-0.39927393,2.767697,-9.035717,-0.15801731
6.0572357,4.755994,0.57234865,-0.06118602,-0.39927393,2.767697,-9.035717,-0.15801731
6.05672,4.7563953,0.47967064,-0.044141788,-0.4131224,2.7964275,-9.021352,-0.095768064
6.0562034,4.756797,0.47967064,-0.044141788,-0.4131224,2.7964275,-9.021352,-0.095768064
6.0556607,4.757122,0.38912317,-0.027097559,-0.42910135,2.801216,-9.050082,0.038307227
6.0551176,4.7574477,0.38912317,-0.027097559,-0.42910135,2.801216,-9.050082,0.038307227
6.0545564,4.7576923,0.30283675,-0.012183856,-0.44721085,2.719813,-9.102755,0.110133275
6.053994,4.757937,0.30283675,-0.012183856,-0.44721085,2.719813,-9.102755,0.110133275
6.0534105,4.758106,0.21974611,0.003795111,-0.4663856,2.6671407,-9.097966,0.16759412
6.052828,4.758275,0.21974611,0.003795111,-0.4663856,2.6671407,-9.097966,0.16759412
6.052225,4.7583704,0.14304708,0.019774077,-0.4876909,2.6431987,-9.160215,0.18674773
6.0516233,4.758465,0.14304708,0.019774077,-0.4876909,2.6431987,-9.160215,0.18674773
6.051008,4.758482,0.06954383,0.035753045,-0.51006144,2.60968,-9.241618,0.17238252
6.0503945,4.758498,0.06954383,0.035753045,-0.51006144,2.60968,-9.241618,0.17238252
6.0497527,4.7584534,0.00030163955,0.04853622,-0.532432,2.5617957,-9.232041,0.22984336
6.049112,4.7584085,0.00030163955,0.04853622,-0.532432,2.5617957,-9.232041,0.22984336
6.048438,4.7583103,-0.06574476,0.060254127,-0.5569331,2.5617957,-9.251195,0.2777274
6.0477653,4.7582116,-0.06574476,0.060254127,-0.5569331,2.5617957,-9.251195,0.2777274
6.047095,4.7580333,-0.1275301,0.07090677,-0.5771731,2.5713725,-9.270349,0.17238252
6.0464253,4.7578545,-0.1275301,0.07090677,-0.5771731,2.5713725,-9.270349,0.17238252
6.0457206,4.7576356,-0.18292385,0.07836362,-0.59634787,2.6048915,-9.279925,0.23463176
6.045014,4.7574162,-0.18292385,0.07836362,-0.59634787,2.6048915,-9.279925,0.23463176
6.044286,4.757151,-0.23725234,0.08475521,-0.6165879,2.6048915,-9.208099,0.24899697
6.0435514,4.756883,-0.23725234,0.08475521,-0.6165879,2.6048915,-9.208099,0.24899697
6.0428104,4.7565646,-0.2894503,0.087951005,-0.6336321,2.6144683,-9.188946,0.22984336
6.04207,4.7562456,-0.2894503,0.087951005,-0.6336321,2.6144683,-9.188946,0.22984336
6.0413046,4.7558827,-0.3373872,0.090081535,-0.65067637,2.6767175,-9.174581,0.22026655
6.0405374,4.755519,-0.3373872,0.090081535,-0.65067637,2.6767175,-9.174581,0.22026655
6.039758,4.755121,-0.3821283,0.089016266,-0.6623943,2.6479871,-9.097966,0.25378537
6.0389752,4.754722,-0.3821283,0.089016266,-0.6623943,2.6479871,-9.097966,0.25378537
6.0381694,4.7543054,-0.4236736,0.087951005,-0.6730469,2.6384103,-9.097966,0.33039984
6.0373616,4.7538896,-0.4236736,0.087951005,-0.6730469,2.6384103,-9.097966,0.33039984
6.036545,4.7534533,-0.46095788,0.085820474,-0.6826343,2.6001031,-9.11712,0.36870706
6.0357265,4.753018,-0.46095788,0.085820474,-0.6826343,2.6001031,-9.11712,0.36870706
6.0349083,4.7525835,-0.4961116,0.08155942,-0.69009113,2.5905263,-9.050082,0.4405331
6.034091,4.752151,-0.4961116,0.08155942,-0.69009113,2.5905263,-9.050082,0.4405331
6.0332837,4.751706,-0.52700424,0.07729836,-0.6943522,2.6048915,-9.069236,0.49320555
6.032478,4.7512646,-0.52700424,0.07729836,-0.6943522,2.6048915,-9.069236,0.49320555
6.0316863,4.7508073,-0.55257064,0.073037304,-0.69328696,2.6001031,-9.074024,0.5315128
6.0308986,4.750353,-0.55257064,0.073037304,-0.69328696,2.6001031,-9.074024,0.5315128
6.0301213,4.74988,-0.57494116,0.06877624,-0.69009113,2.6288335,-9.045294,0.5793968
6.0293465,4.749408,-0.57494116,0.06877624,-0.69009113,2.6288335,-9.045294,0.5793968
6.0286,4.748926,-0.5941159,0.06451519,-0.6826343,2.6001031,-9.016563,0.6607997
6.0278563,4.7484455,-0.5941159,0.06451519,-0.6826343,2.6001031,-9.016563,0.6607997
6.027129,4.7479506,-0.60902965,0.057058334,-0.6741122,2.6048915,-9.035717,0.7038953
6.0264044,4.747457,-0.60902965,0.057058334,-0.6741122,2.6048915,-9.035717,0.7038953
6.0256834,4.7469463,-0.62074757,0.050666746,-0.6623943,2.6144683,-9.030929,0.6560113
6.024966,4.746438,-0.62074757,0.050666746,-0.6623943,2.6144683,-9.030929,0.6560113
6.0242724,4.745921,-0.6303349,0.046405688,-0.6496111,2.6048915,-9.016563,0.7374141
6.0235815,4.745406,-0.6303349,0.046405688,-0.6496111,2.6048915,-9.016563,0.7374141
6.0229063,4.7448835,-0.6367265,0.043209895,-0.6378932,2.5905263,-9.054871,0.7182605
6.0229063,4.7448835,-0.6367265,0.043209895,-0.6378932,2.5905263,-9.054871,0.7182605
6.021488,4.7437716,-0.6399223,0.038948838,-0.62084895,2.633622,-9.059659,0.79966336
6.020894,4.7432947,-0.6399223,0.038948838,-0.62084895,2.633622,-9.059659,0.79966336
6.020246,4.742762,-0.6420528,0.03468778,-0.6038047,2.6527755,-9.064447,0.7086837
6.0195894,4.7422214,-0.6420528,0.03468778,-0.6038047,2.6527755,-9.064447,0.7086837
6.0189567,4.7416763,-0.6420528,0.031491987,-0.5835647,2.6192567,-9.069236,0.7278373
6.0189567,4.7416763,-0.6420528,0.031491987,-0.5835647,2.6192567,-9.069236,0.7278373
6.017743,4.740629,-0.6420528,0.031491987,-0.5835647,2.6192567,-9.069236,0.7278373
6.017183,4.7401237,-0.6409876,0.029361458,-0.56012887,2.6144683,-9.050082,0.7422025
6.0166097,4.7395935,-0.6399223,0.026165664,-0.53988886,2.6671407,-9.050082,0.770933
6.0160346,4.7390604,-0.6399223,0.026165664,-0.53988886,2.6671407,-9.050082,0.770933
6.0154924,4.738538,-0.63353074,0.024035135,-0.516453,2.6479871,-9.074024,0.770933
6.0149508,4.738015,-0.63353074,0.024035135,-0.516453,2.6479871,-9.074024,0.770933
6.014413,4.7374964,-0.6239433,0.021904606,-0.49408248,2.7006595,-9.040505,0.6607997
6.013877,4.7369785,-0.6239433,0.021904606,-0.49408248,2.7006595,-9.040505,0.6607997
6.0133576,4.736467,-0.61329067,0.021904606,-0.4695814,2.7389667,-9.006987,0.6895301
6.012845,4.735961,-0.61329067,0.021904606,-0.4695814,2.7389667,-9.006987,0.6895301
6.0123634,4.735471,-0.5962465,0.021904606,-0.44294977,2.7150247,-9.006987,0.7086837
6.0119004,4.7349987,-0.5962465,0.021904606,-0.44294977,2.7150247,-9.006987,0.7086837
6.0114408,4.734527,-0.57707167,0.021904606,-0.41738343,2.7389667,-8.978256,0.6991069
6.0109653,4.7340374,-0.57707167,0.021904606,-0.41738343,2.7389667,-8.978256,0.6991069
6.0105314,4.733588,-0.5536359,0.021904606,-0.3886213,2.767697,-8.949526,0.7134721
6.010102,4.733142,-0.5536359,0.021904606,-0.3886213,2.767697,-8.949526,0.7134721
6.009692,4.7327156,-0.52806956,0.021904606,-0.35772863,2.7581203,-8.90643,0.62249243
6.009281,4.732287,-0.52806956,0.021904606,-0.35772863,2.7581203,-8.90643,0.62249243
6.0088925,4.7318883,-0.49717686,0.021904606,-0.3279012,2.825158,-8.853758,0.6512229
6.0085096,4.731494,-0.49717686,0.021904606,-0.3279012,2.825158,-8.853758,0.6512229
6.0081453,4.731126,-0.4630884,0.019774077,-0.2959433,2.8538885,-8.791509,0.61291564
6.0077815,4.7307577,-0.4630884,0.019774077,-0.2959433,2.8538885,-8.791509,0.61291564
6.0074415,4.7304206,-0.42793468,0.018708814,-0.26292008,2.920926,-8.7292595,0.60812724
6.0071015,4.7300835,-0.42793468,0.018708814,-0.26292008,2.920926,-8.7292595,0.60812724
6.0067735,4.729766,-0.39278096,0.014447756,-0.22883163,3.0071173,-8.628703,0.5315128
6.0064473,4.72945,-0.39278096,0.014447756,-0.22883163,3.0071173,-8.628703,0.5315128
6.006116,4.7291365,-0.35443142,0.010186698,-0.19580843,3.0214825,-8.571242,0.48362875
6.0058374,4.728873,-0.35443142,0.010186698,-0.19580843,3.0214825,-8.571242,0.48362875
6.0055623,4.7286167,-0.31501663,0.00592564,-0.16065471,3.1268275,-8.504205,0.45010993
6.0052886,4.728362,-0.31501663,0.00592564,-0.16065471,3.1268275,-8.504205,0.45010993
6.005049,4.7281427,-0.27560186,0.0016645822,-0.124435715,3.1651347,-8.408437,0.45968673
6.0048103,4.7279243,-0.27560186,0.0016645822,-0.124435715,3.1651347,-8.408437,0.45968673
6.0045905,4.7277236,-0.23618707,-0.005792269,-0.09034725,3.217807,-8.279149,0.34955344
6.004371,4.727523,-0.23618707,-0.005792269,-0.09034725,3.217807,-8.279149,0.34955344
6.0041847,4.727351,-0.19677228,-0.011118591,-0.053062994,3.2513258,-8.1881695,0.30166942
6.003999,4.727181,-0.19677228,-0.011118591,-0.053062994,3.2513258,-8.1881695,0.30166942
6.0038457,4.7270346,-0.15842277,-0.017510178,-0.015778739,3.3135753,-8.087613,0.23942018
6.003693,4.7268896,-0.15842277,-0.017510178,-0.015778739,3.3135753,-8.087613,0.23942018
6.003577,4.72678,-0.121138506,-0.02496703,0.021505518,3.3039982,-8.025364,0.24899697
6.0034623,4.7266717,-0.121138506,-0.02496703,0.021505518,3.3039982,-8.025364,0.24899697
6.0033827,4.726588,-0.08598478,-0.031358615,0.058789775,3.323152,-8.001422,0.18674773
6.003302,4.726503,-0.08598478,-0.031358615,0.058789775,3.323152,-8.001422,0.18674773
6.00326,4.7264395,-0.052961584,-0.040945996,0.09820456,3.323152,-8.00621,0.12449849
6.003218,4.726376,-0.052961584,-0.040945996,0.09820456,3.323152,-8.00621,0.12449849
6.003213,4.7263393,-0.022068914,-0.051598642,0.13548881,3.265691,-7.9152308,0.11492168
6.003208,4.726302,-0.022068914,-0.051598642,0.13548881,3.265691,-7.9152308,0.11492168
6.003242,4.7263007,0.0077584907,-0.060120758,0.17383833,3.217807,-7.9583263,0.16280572
6.003276,4.726299,0.0077584907,-0.060120758,0.17383833,3.217807,-7.9583263,0.16280572
6.003345,4.72632,0.032259572,-0.06864287,0.20899206,3.1555579,-7.929596,0.16280572
6.003414,4.7263403,0.032259572,-0.06864287,0.20899206,3.1555579,-7.929596,0.16280572
6.003521,4.726392,0.05356486,-0.07609972,0.2441458,3.0454245,-7.9726915,0.21547815
6.0036273,4.7264423,0.05356486,-0.07609972,0.2441458,3.0454245,-7.9726915,0.21547815
6.003773,4.7265234,0.07273962,-0.08249131,0.27823424,3.0071173,-7.97748,0.2777274
6.0039186,4.726604,0.07273962,-0.08249131,0.27823424,3.0071173,-7.97748,0.2777274
6.0040994,4.7266984,0.08871859,-0.08781763,0.313388,2.9783869,-8.087613,0.2633622
6.004279,4.7267923,0.08871859,-0.08781763,0.313388,2.9783869,-8.087613,0.2633622
6.0045004,4.7269077,0.09937123,-0.08994816,0.3485417,2.6527755,-8.183381,0.21547815
6.0047197,4.727022,0.09937123,-0.08994816,0.3485417,2.6527755,-8.183381,0.21547815
6.004981,4.7271547,0.106828086,-0.09207869,0.38049963,2.906561,-8.360553,0.33518824
6.0052414,4.7272863,0.106828086,-0.09207869,0.38049963,2.906561,-8.360553,0.33518824
6.005563,4.72745,0.11321967,-0.093143955,0.4092618,3.083732,-8.805874,0.60812724
6.0058823,4.7276125,0.11321967,-0.093143955,0.4092618,3.083732,-8.805874,0.60812724
6.0062537,4.7277994,0.12174179,-0.08355658,0.43482813,2.9017725,-8.935161,0.60812724
6.006623,4.7279854,0.12174179,-0.08355658,0.43482813,2.9017725,-8.935161,0.60812724
6.0071464,4.7281876,0.1334597,-0.06864287,0.45826393,2.3175871,-8.868123,0.39264908
6.007669,4.7283897,0.1334597,-0.06864287,0.45826393,2.3175871,-8.868123,0.39264908
6.008286,4.728522,0.14198181,-0.060120758,0.47956923,1.9536686,-8.78672,0.17238252
6.008902,4.728653,0.14198181,-0.060120758,0.47956923,1.9536686,-8.78672,0.17238252
6.00954,4.728771,0.14624287,-0.060120758,0.49767873,1.9201498,-8.887277,0.110133275
6.0101757,4.7288895,0.14624287,-0.060120758,0.49767873,1.9201498,-8.887277,0.110133275
6.010823,4.729034,0.14624287,-0.06864287,0.5104619,2.1164744,-9.050082,0.20590134
6.011467,4.729178,0.14624287,-0.06864287,0.5104619,2.1164744,-9.050082,0.20590134
6.0121236,4.72932,0.14304708,-0.077164985,0.5200493,2.1452048,-9.136273,0.21547815
6.0127773,4.7294617,0.14304708,-0.077164985,0.5200493,2.1452048,-9.136273,0.21547815
6.013442,4.729573,0.14198181,-0.08142605,0.52644086,2.1068976,-9.23683,0.1388637
6.014106,4.729683,0.14198181,-0.08142605,0.52644086,2.1068976,-9.23683,0.1388637
6.014769,4.729766,0.14198181,-0.0856871,0.5296367,2.1883004,-9.155427,0.08140286
6.0154295,4.729848,0.14198181,-0.0856871,0.5296367,2.1883004,-9.155427,0.08140286
6.0160747,4.7299037,0.13985129,-0.08888289,0.5285714,2.1883004,-9.188946,0.009576807
6.016716,4.7299585,0.13985129,-0.08888289,0.5285714,2.1883004,-9.188946,0.009576807
6.0173297,4.729988,0.1366555,-0.08994816,0.52431035,2.1691468,-9.131485,-0.10534488
6.017942,4.730017,0.1366555,-0.08994816,0.52431035,2.1691468,-9.131485,-0.10534488
6.018529,4.73003,0.13026391,-0.091013424,0.51791877,2.2026656,-9.040505,-0.1436521
6.019112,4.7300425,0.13026391,-0.091013424,0.51791877,2.2026656,-9.040505,-0.1436521
6.019676,4.7300396,0.120676525,-0.08994816,0.5072661,2.2649148,-9.078813,-0.17238252
6.020229,4.7300367,0.120676525,-0.08994816,0.5072661,2.2649148,-9.078813,-0.17238252
6.020776,4.7300224,0.106828086,-0.0856871,0.49661347,2.1978772,-9.040505,-0.22984336
6.021322,4.730007,0.106828086,-0.0856871,0.49661347,2.1978772,-9.040505,-0.22984336
6.0218353,4.729972,0.09084912,-0.08249131,0.4859608,2.3894134,-9.217676,-0.1340753
6.0223427,4.7299366,0.09084912,-0.08249131,0.4859608,2.3894134,-9.217676,-0.1340753
6.0228105,4.729887,0.074870154,-0.07396919,0.47530818,2.5091233,-9.3661175,-0.08140286
6.0232773,4.7298374,0.074870154,-0.07396919,0.47530818,2.5091233,-9.3661175,-0.08140286
6.023784,4.7297797,0.05995645,-0.060120758,0.462525,2.3942018,-9.442732,-0.095768064
6.0242815,4.729723,0.05995645,-0.060120758,0.462525,2.3942018,-9.442732,-0.095768064
6.0248156,4.7296696,0.045042746,-0.04201126,0.4540029,2.2218192,-9.461885,-0.11492168
6.0253468,4.729616,0.045042746,-0.04201126,0.4540029,2.2218192,-9.461885,-0.11492168
6.025865,4.729546,0.030129045,-0.02496703,0.44974184,2.1787236,-9.476251,-0.24420857
6.0263834,4.729475,0.030129045,-0.02496703,0.44974184,2.1787236,-9.476251,-0.24420857
6.0269146,4.729402,0.0141500775,-0.008988062,0.44654605,2.1452048,-9.572019,-0.17238252
6.027442,4.729329,0.0141500775,-0.008988062,0.44654605,2.1452048,-9.572019,-0.17238252
6.0279655,4.7292395,-0.0028941538,0.003795111,0.44335026,2.1643584,-9.629479,-0.19153613
6.028487,4.7291493,-0.0028941538,0.003795111,0.44335026,2.1643584,-9.629479,-0.19153613
6.0290127,4.729046,-0.022068914,0.01551302,0.44121972,2.2218192,-9.844957,-0.15322891
6.0295362,4.7289424,-0.022068914,0.01551302,0.44121972,2.2218192,-9.844957,-0.15322891
6.030055,4.728822,-0.04017841,0.029361458,0.43802392,2.2984335,-9.950302,-0.11971009
6.03057,4.728702,-0.04017841,0.029361458,0.43802392,2.2984335,-9.950302,-0.11971009
6.0311093,4.728579,-0.058287904,0.04427516,0.43802392,2.303222,-10.108319,-0.047884032
6.031646,4.7284565,-0.058287904,0.04427516,0.43802392,2.303222,-10.108319,-0.047884032
6.032201,4.728333,-0.075332135,0.0581236,0.44015446,2.2601264,-10.208876,-0.019153614
6.0327535,4.7282095,-0.075332135,0.0581236,0.44015446,2.2601264,-10.208876,-0.019153614
6.033315,4.728079,-0.09024584,0.071972035,0.44121972,2.2122424,-10.261548,-0.023942016
6.0338736,4.7279487,-0.09024584,0.071972035,0.44121972,2.2122424,-10.261548,-0.023942016
6.0344505,4.727822,-0.10515954,0.085820474,0.44548076,2.1404164,-10.31901,0.01436521
6.0350266,4.7276955,-0.10515954,0.085820474,0.44548076,2.1404164,-10.31901,0.01436521
6.0356097,4.727561,-0.120073244,0.09860365,0.44974184,2.1068976,-10.409989,0.019153614
6.0361905,4.727428,-0.120073244,0.09860365,0.44974184,2.1068976,-10.409989,0.019153614
6.0367794,4.727285,-0.13711748,0.10925629,0.45187235,2.0925324,-10.5440645,0.033518825
6.037367,4.727142,-0.13711748,0.10925629,0.45187235,2.0925324,-10.5440645,0.033518825
6.03796,4.7269955,-0.1541617,0.118843675,0.4540029,2.0973208,-10.649409,0.076614454
6.0385447,4.7268515,-0.1541617,0.118843675,0.4540029,2.0973208,-10.649409,0.076614454
6.039139,4.726685,-0.17120594,0.12843105,0.45506814,2.1499932,-10.773908,0.062249243
6.039741,4.7265167,-0.17120594,0.12843105,0.45506814,2.1499932,-10.773908,0.062249243
6.0403337,4.726338,-0.18825017,0.13801843,0.4540029,2.135628,-10.893618,0.062249243
6.0409217,4.7261605,-0.18825017,0.13801843,0.4540029,2.135628,-10.893618,0.062249243
6.0415096,4.725955,-0.20422913,0.1476058,0.45187235,2.111686,-11.008539,-0.0047884034
6.042099,4.725748,-0.20422913,0.1476058,0.45187235,2.111686,-11.008539,-0.0047884034
6.0426836,4.7255235,-0.22127336,0.15612793,0.4508071,2.1021092,-11.123461,-0.033518825
6.0426836,4.7255235,-0.22127336,0.15612793,0.4508071,2.1021092,-11.123461,-0.033518825
6.0438733,4.7250795,-0.23618707,0.16358478,0.44974184,2.0207062,-11.243171,0.07182605
6.044451,4.7248716,-0.23618707,0.16358478,0.44974184,2.0207062,-11.243171,0.07182605
6.0450406,4.7246404,-0.25216603,0.1689111,0.4476113,2.0207062,-11.362882,0.047884032
6.045625,4.724411,-0.25216603,0.1689111,0.4476113,2.0207062,-11.362882,0.047884032
6.046203,4.7241774,-0.26707974,0.17317216,0.44121972,1.9440918,-11.506534,0.08619126
6.0467873,4.723942,-0.26707974,0.17317216,0.44121972,1.9440918,-11.506534,0.08619126
6.0473633,4.7237015,-0.28092816,0.17530268,0.43376285,1.9297266,-11.597513,0.1340753
6.047939,4.723462,-0.28092816,0.17530268,0.43376285,1.9297266,-11.597513,0.1340753
6.0485067,4.72322,-0.29371136,0.17530268,0.42311022,2.0111294,-11.674128,0.19632454
6.0490685,4.7229805,-0.29371136,0.17530268,0.42311022,2.0111294,-11.674128,0.19632454
6.049617,4.722728,-0.30329874,0.17530268,0.41032705,2.087744,-11.75553,0.16759412
6.050168,4.722475,-0.30329874,0.17530268,0.41032705,2.087744,-11.75553,0.16759412
6.050717,4.7222137,-0.30969033,0.17530268,0.39541334,1.9536686,-11.789049,0.20111294
6.051242,4.721964,-0.30969033,0.17530268,0.39541334,1.9536686,-11.789049,0.20111294
6.051752,4.7217073,-0.31501663,0.17317216,0.3730428,1.7764976,-11.798626,0.23463176
6.052311,4.721426,-0.31501663,0.17317216,0.3730428,1.7764976,-11.798626,0.23463176
6.052755,4.721184,-0.3192777,0.16997637,0.3485417,1.6328455,-11.774684,0.21068975
6.053307,4.720882,-0.3192777,0.16997637,0.3485417,1.6328455,-11.774684,0.21068975
6.053767,4.7206244,-0.32034296,0.16251951,0.32191008,1.5275006,-11.812991,0.33997664
6.053767,4.7206244,-0.32034296,0.16251951,0.32191008,1.5275006,-11.812991,0.33997664
6.054561,4.72018,-0.31821242,0.1539974,0.29314795,1.5179238,-11.803414,0.32561144
6.055064,4.7198787,-0.31821242,0.1539974,0.29314795,1.5179238,-11.803414,0.32561144
6.055064,4.7198787,-0.31821242,0.1539974,0.29314795,1.5179238,-11.803414,0.32561144
6.0558443,4.719393,-0.3160819,0.14441001,0.26438582,1.5179238,-11.75553,0.4357447
6.056201,4.719155,-0.31182083,0.13375737,0.23349315,1.5514427,-11.712435,0.33997664
6.0565653,4.7189064,-0.31182083,0.13375737,0.23349315,1.5514427,-11.712435,0.33997664
6.0568986,4.7186623,-0.304364,0.12203947,0.20153521,1.5370775,-11.69807,0.34955344
6.0572314,4.7184186,-0.304364,0.12203947,0.20153521,1.5370775,-11.69807,0.34955344
6.057533,4.718177,-0.29477662,0.11032156,0.16744675,1.541866,-11.587936,0.29688102
6.057533,4.718177,-0.29477662,0.11032156,0.16744675,1.541866,-11.587936,0.29688102
6.0581403,4.71769,-0.29477662,0.11032156,0.16744675,1.541866,-11.587936,0.29688102
6.0584,4.7174587,-0.28518924,0.09860365,0.13122776,1.5610195,-11.482592,0.2681506
6.05863,4.7172284,-0.27453658,0.08368994,0.09500877,1.5897499,-11.314998,0.22984336
6.0588603,4.7169976,-0.27453658,0.08368994,0.09500877,1.5897499,-11.314998,0.22984336
6.05905,4.7167816,-0.2628187,0.06877624,0.05772451,1.6136919,-11.209652,0.2633622
6.0592394,4.716566,-0.2628187,0.06877624,0.05772451,1.6136919,-11.209652,0.2633622
6.0593886,4.716363,-0.2532313,0.053862542,0.020440254,1.6998832,-11.032481,0.2681506
6.059538,4.7161593,-0.2532313,0.053862542,0.020440254,1.6998832,-11.032481,0.2681506
6.0596523,4.7159615,-0.24151339,0.040014103,-0.015778739,1.7238252,-10.936713,0.22984336
6.0597672,4.715763,-0.24151339,0.040014103,-0.015778739,1.7238252,-10.936713,0.22984336
6.0598454,4.7155743,-0.23086074,0.026165664,-0.05199773,1.8339585,-10.6877165,0.19153613
6.059923,4.7153854,-0.23086074,0.026165664,-0.05199773,1.8339585,-10.6877165,0.19153613
6.0599756,4.7151833,-0.21914284,0.012317227,-0.08608619,1.9393034,-10.5680065,0.076614454
6.0600276,4.714982,-0.21914284,0.012317227,-0.08608619,1.9393034,-10.5680065,0.076614454
6.060046,4.7147865,-0.20635967,-0.0015312112,-0.120174654,1.9728222,-10.405201,0.05746084
6.060065,4.7145925,-0.20635967,-0.0015312112,-0.120174654,1.9728222,-10.405201,0.05746084
6.060046,4.7144256,-0.19570702,-0.012183856,-0.15106732,2.0350714,-10.295067,0.090979666
6.0600276,4.7142596,-0.19570702,-0.012183856,-0.15106732,2.0350714,-10.295067,0.090979666
6.0599866,4.7140822,-0.18185858,-0.020705972,-0.17982946,2.0638018,-10.108319,0.033518825
6.059946,4.7139063,-0.18185858,-0.020705972,-0.17982946,2.0638018,-10.108319,0.033518825
6.0598536,4.713791,-0.16907541,-0.027097559,-0.20433055,2.1499932,-9.998186,0.076614454
6.059761,4.7136774,-0.16907541,-0.027097559,-0.20433055,2.1499932,-9.998186,0.076614454
6.059632,4.7134395,-0.15629223,-0.033489145,-0.22563584,2.1547816,-9.849746,-0.047884032
6.0595055,4.7132034,-0.15629223,-0.033489145,-0.22563584,2.1547816,-9.849746,-0.047884032
6.0593944,4.7130775,-0.14457433,-0.03881547,-0.24587587,2.2026656,-9.720459,0.009576807
6.059277,4.712964,-0.14457433,-0.03881547,-0.24587587,2.2026656,-9.720459,0.009576807
6.0588903,4.7127757,-0.13285641,-0.044141788,-0.26185483,2.2457612,-9.610326,-0.01436521
6.0585027,4.712588,-0.13285641,-0.044141788,-0.26185483,2.2457612,-9.610326,-0.01436521
6.0581045,4.7124043,-0.120073244,-0.04627232,-0.27357274,2.2601264,-9.452309,-0.038307227
6.057712,4.712224,-0.120073244,-0.04627232,-0.27357274,2.2601264,-9.452309,-0.038307227
6.0573072,4.712062,-0.108355336,-0.047337584,-0.2778338,2.3127987,-9.3182335,-0.05746084
6.056902,4.7119,-0.108355336,-0.047337584,-0.2778338,2.3127987,-9.3182335,-0.05746084
6.056494,4.711757,-0.0945069,-0.048402846,-0.2778338,2.3702598,-9.222465,-0.07182605
6.0560856,4.711614,-0.0945069,-0.048402846,-0.2778338,2.3702598,-9.222465,-0.07182605
6.0556784,4.711484,-0.08065846,-0.047337584,-0.27676854,2.408567,-9.11712,-0.090979666
6.055271,4.7113543,-0.08065846,-0.047337584,-0.27676854,2.408567,-9.11712,-0.090979666
6.0548687,4.7112355,-0.06894055,-0.045207053,-0.27250746,2.4181437,-9.035717,-0.10055647
6.0544662,4.7111177,-0.06894055,-0.045207053,-0.27250746,2.4181437,-9.035717,-0.10055647
6.0540767,4.710998,-0.05935317,-0.044141788,-0.26611587,2.4468741,-8.916007,-0.15322891
6.0536876,4.7108784,-0.05935317,-0.044141788,-0.26611587,2.4468741,-8.916007,-0.15322891
6.053303,4.7107778,-0.048700526,-0.040945996,-0.2565285,2.4995465,-8.863335,-0.14844051
6.052919,4.7106767,-0.048700526,-0.040945996,-0.2565285,2.4995465,-8.863335,-0.14844051
6.0525503,4.7105765,-0.041243672,-0.037750203,-0.2448106,2.5617957,-8.810662,-0.20590134
6.0521827,4.7104764,-0.041243672,-0.037750203,-0.2448106,2.5617957,-8.810662,-0.20590134
6.051827,4.710387,-0.033786822,-0.031358615,-0.23096216,2.5809495,-8.710106,-0.21068975
6.0514708,4.7102976,-0.033786822,-0.031358615,-0.23096216,2.5809495,-8.710106,-0.21068975
6.051137,4.7102084,-0.027395237,-0.026032293,-0.2149832,2.6144683,-8.719683,-0.2633622
6.0508027,4.7101192,-0.027395237,-0.026032293,-0.2149832,2.6144683,-8.719683,-0.2633622
6.050474,4.7100487,-0.022068914,-0.018575443,-0.20113476,2.60968,-8.6813755,-0.20111294
6.0501456,4.709978,-0.022068914,-0.018575443,-0.20113476,2.60968,-8.6813755,-0.20111294
6.049844,4.7099,-0.017807856,-0.012183856,-0.18409052,2.681506,-8.580819,-0.31603462
6.049541,4.7098217,-0.017807856,-0.012183856,-0.18409052,2.681506,-8.580819,-0.31603462
6.04925,4.709753,-0.015677327,-0.0047270046,-0.16598102,2.6910827,-8.595184,-0.2777274
6.0489635,4.7096853,-0.015677327,-0.0047270046,-0.16598102,2.6910827,-8.595184,-0.2777274
6.0486994,4.709609,-0.013546798,0.0027298466,-0.15000206,2.681506,-8.576031,-0.35434186
6.0484366,4.709534,-0.013546798,0.0027298466,-0.15000206,2.681506,-8.576031,-0.35434186
6.0481853,4.709462,-0.0114162695,0.008056169,-0.13189256,2.6719291,-8.556877,-0.33997664
6.047925,4.7093873,-0.0114162695,0.008056169,-0.13189256,2.6719291,-8.556877,-0.33997664
6.047721,4.709319,-0.009285741,0.014447756,-0.11271781,2.6623523,-8.599973,-0.38307226
6.0474944,4.709244,-0.009285741,0.014447756,-0.11271781,2.6623523,-8.599973,-0.38307226
6.0473056,4.7091675,-0.008220476,0.018708814,-0.09460831,2.657564,-8.63828,-0.4405331
6.047113,4.7090893,-0.008220476,0.018708814,-0.09460831,2.657564,-8.63828,-0.4405331
6.0469227,4.709025,-0.0071552116,0.0251004,-0.078629345,2.6910827,-8.738836,-0.34476504
6.0467324,4.7089605,-0.0071552116,0.0251004,-0.078629345,2.6910827,-8.738836,-0.34476504
6.0465627,4.70889,-0.008220476,0.029361458,-0.06371564,2.633622,-8.724471,-0.35913026
6.046394,4.7088194,-0.008220476,0.029361458,-0.06371564,2.633622,-8.724471,-0.35913026
6.046237,4.7087526,-0.006089947,0.032557253,-0.046671405,2.6240451,-8.820239,-0.32561144
6.046083,4.708687,-0.006089947,0.032557253,-0.046671405,2.6240451,-8.820239,-0.32561144
6.045945,4.70862,-0.006089947,0.037883572,-0.028561912,2.6288335,-8.896853,-0.32561144
6.0458126,4.708555,-0.006089947,0.037883572,-0.028561912,2.6288335,-8.896853,-0.32561144
6.0458126,4.708555,-0.0050246827,0.04427516,-0.013648209,2.5953147,-8.963891,-0.24420857
6.045555,4.7084475,-0.0050246827,0.04427516,-0.013648209,2.5953147,-8.963891,-0.24420857
6.0454497,4.708388,-0.0039594183,0.04853622,0.00020022877,2.566584,-9.030929,-0.2633622
6.045343,4.708328,-0.0039594183,0.04853622,0.00020022877,2.566584,-9.030929,-0.2633622
6.0452576,4.7082644,-0.0028941538,0.052797277,0.012983402,2.5139117,-9.074024,-0.25857377
6.045172,4.7082005,-0.0028941538,0.052797277,0.012983402,2.5139117,-9.074024,-0.25857377
6.045102,4.708137,-0.0018288894,0.05918886,0.024701312,2.5378537,-9.165004,-0.2777274
6.045032,4.708073,-0.0018288894,0.05918886,0.024701312,2.5378537,-9.165004,-0.2777274
6.0449553,4.7080245,0.00030163955,0.06344992,0.033223428,2.4947581,-9.184157,-0.18674773
6.0448785,4.707976,0.00030163955,0.06344992,0.033223428,2.4947581,-9.184157,-0.18674773
6.0448065,4.7079306,0.0024321685,0.06558045,0.03854975,2.4899697,-9.255983,-0.17238252
6.044734,4.707885,0.0024321685,0.06558045,0.03854975,2.4899697,-9.255983,-0.17238252
6.044689,4.7078257,0.0045626974,0.06877624,0.042810805,2.4516625,-9.308656,-0.20590134
6.0446444,4.7077675,0.0045626974,0.06877624,0.042810805,2.4516625,-9.308656,-0.20590134
6.044575,4.7077327,0.005627962,0.07090677,0.047071867,2.4420857,-9.32781,-0.12449849
6.0445056,4.707698,0.005627962,0.07090677,0.047071867,2.4420857,-9.32781,-0.12449849
6.0444245,4.7076917,0.008823755,0.073037304,0.05133292,2.4277205,-9.404425,-0.076614454
6.0443425,4.7076855,0.008823755,0.073037304,0.05133292,2.4277205,-9.404425,-0.076614454
6.044257,4.707703,0.013084813,0.07516783,0.05346345,2.3894134,-9.452309,-0.05267244
6.0441713,4.7077208,0.013084813,0.07516783,0.05346345,2.3894134,-9.452309,-0.05267244
6.0441084,4.707812,0.018411135,0.07516783,0.055593982,2.3511062,-9.500193,-0.02873042
6.044044,4.707901,0.018411135,0.07516783,0.055593982,2.3511062,-9.500193,-0.02873042
6.0441136,4.7080455,0.024802722,0.074102566,0.056659244,2.327164,-9.56723,-0.0047884034
6.0441833,4.7081914,0.024802722,0.074102566,0.056659244,2.327164,-9.56723,-0.0047884034
6.0442505,4.7083554,0.030129045,0.07090677,0.055593982,2.327164,-9.572019,0.04309563
6.0442505,4.7083554,0.030129045,0.07090677,0.055593982,2.327164,-9.572019,0.04309563
6.0443997,4.7086444,0.03652063,0.06771098,0.05346345,2.2888567,-9.610326,0.062249243
6.0444965,4.708789,0.03652063,0.06771098,0.05346345,2.2888567,-9.610326,0.062249243
6.044613,4.708936,0.04291222,0.06344992,0.05133292,2.2409728,-9.610326,0.090979666
6.0447283,4.7090826,0.04291222,0.06344992,0.05133292,2.2409728,-9.610326,0.090979666
6.0448356,4.709239,0.05036907,0.061319392,0.049202394,2.2409728,-9.629479,0.11492168
6.0449433,4.709396,0.05036907,0.061319392,0.049202394,2.2409728,-9.629479,0.11492168
6.045053,4.70956,0.05782592,0.05918886,0.04813713,2.1930888,-9.691729,0.19632454
6.0451627,4.7097235,0.05782592,0.05918886,0.04813713,2.1930888,-9.691729,0.19632454
6.0452585,4.709895,0.06421751,0.057058334,0.0460066,2.2122424,-9.706094,0.22505496
6.0453544,4.710067,0.06421751,0.057058334,0.0460066,2.2122424,-9.706094,0.22505496
6.0454545,4.7102423,0.07060909,0.052797277,0.042810805,2.1739352,-9.720459,0.25378537
6.045555,4.710418,0.07060909,0.052797277,0.042810805,2.1739352,-9.720459,0.25378537
6.045662,4.710596,0.07700068,0.049601484,0.041745543,2.1739352,-9.730036,0.21547815
6.045769,4.7107744,0.07700068,0.049601484,0.041745543,2.1739352,-9.730036,0.21547815
6.0458665,4.710958,0.08019647,0.047470953,0.039615013,2.1930888,-9.725247,0.22505496
6.0459642,4.7111416,0.08019647,0.047470953,0.039615013,2.1930888,-9.725247,0.22505496
6.04606,4.711325,0.08126174,0.04427516,0.037484486,2.1978772,-9.677363,0.19632454
6.046157,4.7115088,0.08126174,0.04427516,0.037484486,2.1978772,-9.677363,0.19632454
6.04626,4.71169,0.082327,0.04107937,0.035353955,2.2122424,-9.749189,0.16759412
6.046366,4.7118754,0.082327,0.04107937,0.035353955,2.2122424,-9.749189,0.16759412
6.046483,4.712042,0.08339227,0.037883572,0.032158162,2.183512,-9.68694,0.12449849
6.0466037,4.712212,0.08339227,0.037883572,0.032158162,2.183512,-9.68694,0.12449849
6.0467043,4.712389,0.08126174,0.035753045,0.02896237,2.1691468,-9.677363,0.18674773
6.046805,4.712566,0.08126174,0.035753045,0.02896237,2.1691468,-9.677363,0.18674773
6.046901,4.7127457,0.07806595,0.032557253,0.023636047,2.1883004,-9.677363,0.17238252
6.046994,4.7129183,0.07806595,0.032557253,0.023636047,2.1883004,-9.677363,0.17238252
6.0470943,4.713078,0.073804885,0.029361458,0.018309724,2.2170308,-9.662998,0.10534488
6.047195,4.713238,0.073804885,0.029361458,0.018309724,2.2170308,-9.662998,0.10534488
6.047253,4.713409,0.06954383,0.0251004,0.012983402,2.207454,-9.610326,0.21547815
6.0473113,4.71358,0.06954383,0.0251004,0.012983402,2.207454,-9.610326,0.21547815
6.047339,4.713752,0.06634804,0.021904606,0.00765708,2.255338,-9.591172,0.24899697
6.0473666,4.7139235,0.06634804,0.021904606,0.00765708,2.255338,-9.591172,0.24899697
6.0474005,4.7140894,0.062086977,0.018708814,0.0033960221,2.2457612,-9.648633,0.23942018
6.0474343,4.714255,0.062086977,0.018708814,0.0033960221,2.2457612,-9.648633,0.23942018
6.0474653,4.7144136,0.056760654,0.01551302,0.00020022877,2.2266076,-9.581595,0.24420857
6.047497,4.714572,0.056760654,0.01551302,0.00020022877,2.2266076,-9.581595,0.24420857
6.0475135,4.7147284,0.0524996,0.014447756,-0.0029955646,2.2170308,-9.533711,0.36391866
6.0475307,4.7148843,0.0524996,0.014447756,-0.0029955646,2.2170308,-9.533711,0.36391866
6.047551,4.7150335,0.047173277,0.014447756,-0.0029955646,2.2170308,-9.562442,0.33997664
6.0475726,4.715188,0.047173277,0.014447756,-0.0029955646,2.2170308,-9.562442,0.33997664
6.0476007,4.7153277,0.040781688,0.013382491,-0.004060829,2.2122424,-9.548077,0.25378537
6.0476007,4.7153277,0.040781688,0.013382491,-0.004060829,2.2122424,-9.548077,0.25378537
6.0476494,4.715611,0.034390103,0.01551302,-0.0072566224,2.2218192,-9.519346,0.272939
6.0476494,4.715611,0.034390103,0.01551302,-0.0072566224,2.2218192,-9.519346,0.272939
6.04767,4.7157736,0.034390103,0.01551302,-0.0072566224,2.2218192,-9.519346,0.272939
6.0476937,4.715904,0.026933251,0.014447756,-0.0072566224,2.2122424,-9.548077,0.272939
6.0477357,4.716135,0.02160693,0.016578285,-0.008321887,2.207454,-9.524135,0.2681506
6.0477357,4.716135,0.02160693,0.016578285,-0.008321887,2.207454,-9.524135,0.2681506
6.0477986,4.7163906,0.0141500775,0.018708814,-0.009387151,2.1978772,-9.548077,0.21547815
6.04783,4.716485,0.0141500775,0.018708814,-0.009387151,2.1978772,-9.548077,0.21547815
6.04785,4.716595,0.0066932263,0.018708814,-0.0072566224,2.231396,-9.495404,0.19632454
6.0478706,4.7167068,0.0066932263,0.018708814,-0.0072566224,2.231396,-9.495404,0.19632454
6.0478683,4.716829,-0.0007636249,0.017643549,-0.004060829,2.27928,-9.524135,0.22505496
6.047867,4.7169147,-0.0007636249,0.017643549,-0.004060829,2.27928,-9.524135,0.22505496
6.047873,4.7170105,-0.009285741,0.016578285,-0.004060829,2.255338,-9.476251,0.20590134
6.047879,4.717108,-0.009285741,0.016578285,-0.004060829,2.255338,-9.476251,0.20590134
6.0478463,4.717196,-0.015677327,0.01551302,-0.006191358,2.303222,-9.452309,0.17717093
6.0478144,4.717283,-0.015677327,0.01551302,-0.006191358,2.303222,-9.452309,0.17717093
6.047769,4.717362,-0.022068914,0.014447756,-0.008321887,2.327164,-9.437943,0.20590134
6.0477242,4.717441,-0.022068914,0.014447756,-0.008321887,2.327164,-9.437943,0.20590134
6.047686,4.717515,-0.0284605,0.013382491,-0.008321887,2.3127987,-9.409213,0.22026655
6.047648,4.7175894,-0.0284605,0.013382491,-0.008321887,2.3127987,-9.409213,0.22026655
6.047597,4.717656,-0.032721557,0.011251962,-0.009387151,2.3080103,-9.409213,0.15801731
6.047546,4.7177234,-0.032721557,0.011251962,-0.009387151,2.3080103,-9.409213,0.15801731
6.047498,4.717786,-0.03698262,0.008056169,-0.010452416,2.327164,-9.361329,0.24420857
6.04745,4.7178483,-0.03698262,0.008056169,-0.010452416,2.327164,-9.361329,0.24420857
6.0473804,4.7179027,-0.039113145,0.008056169,-0.009387151,2.3798366,-9.332599,0.24899697
6.0473113,4.717957,-0.039113145,0.008056169,-0.009387151,2.3798366,-9.332599,0.24899697
6.047257,4.718012,-0.041243672,0.0048603755,-0.008321887,2.336741,-9.323022,0.23942018
6.0472026,4.7180676,-0.041243672,0.0048603755,-0.008321887,2.336741,-9.323022,0.23942018
6.0471525,4.718122,-0.042308938,0.0027298466,-0.0051260935,2.3319526,-9.299079,0.24420857
6.047102,4.718176,-0.042308938,0.0027298466,-0.0051260935,2.3319526,-9.299079,0.24420857
6.04703,4.7182217,-0.04443947,0.0016645822,-0.0029955646,2.3319526,-9.279925,0.17717093
6.046961,4.718266,-0.04443947,0.0016645822,-0.0029955646,2.3319526,-9.279925,0.17717093
6.046961,4.718266,-0.045504734,-0.00046594674,0.00020022877,2.327164,-9.289502,0.23463176
6.04687,4.718366,-0.045504734,-0.00046594674,0.00020022877,2.327164,-9.289502,0.23463176
6.0468154,4.718412,-0.046569996,-0.0025964756,0.0023307577,2.336741,-9.284714,0.21068975
6.0467615,4.718457,-0.046569996,-0.0025964756,0.0023307577,2.336741,-9.284714,0.21068975
6.046716,4.718503,-0.04763526,-0.0047270046,0.0033960221,2.3223755,-9.26556,0.22026655
