Pitch,Roll,Gyro_X,Gyro_Y,Gyro_Z,Accel_X,Accel_Y,Accel_Z
6.253323,4.7672215,-0.10196375,-0.06544708,-0.104195684,0.39264908,-9.605537,0.25378537
6.2531624,4.7670302,-0.09876795,-0.06118602,-0.095673576,0.4405331,-9.624691,0.30166942
6.2530036,4.7668405,-0.09876795,-0.06118602,-0.095673576,0.4405331,-9.624691,0.30166942
6.2528677,4.766651,-0.0945069,-0.05692496,-0.08502093,0.39264908,-9.615114,0.32561144
6.2527313,4.7664614,-0.0945069,-0.05692496,-0.08502093,0.39264908,-9.615114,0.32561144
6.252571,4.766289,-0.09024584,-0.050533377,-0.075433545,0.4165911,-9.648633,0.40222588
6.252411,4.7661166,-0.09024584,-0.050533377,-0.075433545,0.4165911,-9.648633,0.40222588
6.2523055,4.765934,-0.08491952,-0.045207053,-0.06584617,0.37828386,-9.672575,0.31124622
6.2522006,4.7657523,-0.08491952,-0.045207053,-0.06584617,0.37828386,-9.672575,0.31124622
6.2520657,4.7655873,-0.0795932,-0.040945996,-0.05732405,0.40701428,-9.667787,0.39743748
6.2519307,4.765423,-0.0795932,-0.040945996,-0.05732405,0.40701428,-9.667787,0.39743748
6.251842,4.7652535,-0.07320161,-0.03455441,-0.046671405,0.37349546,-9.672575,0.34476504
6.251754,4.7650833,-0.07320161,-0.03455441,-0.046671405,0.37349546,-9.672575,0.34476504
6.251652,4.7649274,-0.06681002,-0.028162822,-0.037084028,0.4213795,-9.615114,0.33997664
6.25155,4.7647705,-0.06681002,-0.028162822,-0.037084028,0.4213795,-9.615114,0.33997664
6.251446,4.7646246,-0.060418434,-0.023901764,-0.028561912,0.48841715,-9.648633,0.29688102
6.251342,4.7644787,-0.060418434,-0.023901764,-0.028561912,0.48841715,-9.648633,0.29688102
6.251245,4.7643385,-0.05509211,-0.021771235,-0.02110506,0.49320555,-9.648633,0.29209262
6.251148,4.7641983,-0.05509211,-0.021771235,-0.02110506,0.49320555,-9.648633,0.29209262
6.2510204,4.764087,-0.049765788,-0.018575443,-0.015778739,0.48362875,-9.672575,0.40701428
6.250892,4.7639766,-0.049765788,-0.018575443,-0.015778739,0.48362875,-9.672575,0.40701428
6.2507544,4.763887,-0.043374203,-0.015379649,-0.012582945,0.521936,-9.648633,0.4213795
6.250616,4.7637978,-0.043374203,-0.015379649,-0.012582945,0.521936,-9.648633,0.4213795
6.250495,4.763696,-0.03804788,-0.012183856,-0.01151768,0.51235914,-9.734824,0.3878607
6.250374,4.7635946,-0.03804788,-0.012183856,-0.01151768,0.51235914,-9.734824,0.3878607
6.250239,4.7635164,-0.033786822,-0.007922798,-0.009387151,0.40701428,-9.753978,0.46926352
6.250104,4.763438,-0.033786822,-0.007922798,-0.009387151,0.40701428,-9.753978,0.46926352
6.249973,4.763365,-0.0284605,-0.0025964756,-0.006191358,0.4165911,-9.753978,0.46447513
6.2498417,4.7632914,-0.0284605,-0.0025964756,-0.006191358,0.4165911,-9.753978,0.46447513
6.2498417,4.7632914,-0.02313418,0.0027298466,-0.0008650357,0.320823,-9.792285,0.36870706
6.2498527,4.7629395,-0.02313418,0.0027298466,-0.0008650357,0.320823,-9.792285,0.36870706
6.2498627,4.7629185,-0.015677327,0.00592564,0.008722344,0.25857377,-9.811439,0.34476504
6.2499256,4.762785,-0.015677327,0.00592564,0.008722344,0.25857377,-9.811439,0.34476504
6.2500095,4.762683,-0.008220476,0.010186698,0.018309724,0.22026655,-9.773131,0.33997664
6.250066,4.7626143,-0.008220476,0.010186698,0.018309724,0.22026655,-9.773131,0.33997664
6.250161,4.7625227,-0.0007636249,0.014447756,0.031092897,0.23942018,-9.821015,0.36870706
6.2502565,4.7624307,-0.0007636249,0.014447756,0.031092897,0.23942018,-9.821015,0.36870706
6.2504096,4.762381,0.0066932263,0.017643549,0.04387607,0.20590134,-9.821015,0.4309563
6.2505617,4.7623315,0.0066932263,0.017643549,0.04387607,0.20590134,-9.821015,0.4309563
6.250682,4.7622595,0.016280606,0.019774077,0.055593982,0.22026655,-9.811439,0.34955344
6.250801,4.762187,0.016280606,0.019774077,0.055593982,0.22026655,-9.811439,0.34955344
6.250977,4.7621546,0.027998514,0.019774077,0.06518136,0.20590134,-9.797073,0.4261679
6.2511535,4.762121,0.027998514,0.019774077,0.06518136,0.20590134,-9.797073,0.4261679
6.2513046,4.7620754,0.03865116,0.017643549,0.07689927,0.23942018,-9.787497,0.40222588
6.251456,4.7620296,0.03865116,0.017643549,0.07689927,0.23942018,-9.787497,0.40222588
6.2515936,4.761986,0.049303804,0.016578285,0.089682445,0.24899697,-9.701305,0.36391866
6.2517314,4.761941,0.058891185,0.014447756,0.102465615,0.25378537,-9.701305,0.34476504
6.251872,4.761904,0.058891185,0.014447756,0.102465615,0.25378537,-9.701305,0.34476504
6.252009,4.7618675,0.058891185,0.014447756,0.102465615,0.25378537,-9.701305,0.34476504
6.2521787,4.7618446,0.06847856,0.012317227,0.11418352,0.24420857,-9.710882,0.38307226
6.252347,4.7618213,0.06847856,0.012317227,0.11418352,0.24420857,-9.710882,0.38307226
6.252506,4.7618017,0.07700068,0.010186698,0.12164038,0.23942018,-9.643845,0.31603462
6.25266,4.7617826,0.07700068,0.010186698,0.12164038,0.23942018,-9.643845,0.31603462
6.2528987,4.761801,0.082327,0.009121433,0.13122776,0.11492168,-9.610326,0.36870706
6.2531385,4.761819,0.082327,0.009121433,0.13122776,0.11492168,-9.610326,0.36870706
6.2534075,4.7618628,0.08552279,0.0069909045,0.14188041,0.038307227,-9.605537,0.39264908
6.2536755,4.761905,0.08552279,0.0069909045,0.14188041,0.038307227,-9.605537,0.39264908
6.253971,4.76199,0.08552279,0.0016645822,0.15572885,0.25378537,-9.56723,0.47405192
6.2542667,4.7620707,0.08552279,0.0016645822,0.15572885,0.25378537,-9.56723,0.47405192
6.2543135,4.762101,0.08339227,-0.0015312112,0.16638148,0.49799395,-9.495404,0.37349546
6.2543607,4.7621317,0.08339227,-0.0015312112,0.16638148,0.49799395,-9.495404,0.37349546
6.2544346,4.7621408,0.08339227,0.0005993177,0.16851202,0.45968673,-9.41879,0.320823
6.254509,4.76215,0.08339227,0.0005993177,0.16851202,0.45968673,-9.41879,0.320823
6.2546883,4.762135,0.08445753,0.009121433,0.16744675,0.24420857,-9.490616,0.23942018
6.2548676,4.7621202,0.08445753,0.009121433,0.16744675,0.24420857,-9.490616,0.23942018
6.2551193,4.762127,0.08445753,0.016578285,0.16318569,0.0047884034,-9.44752,0.23942018
6.2553716,4.7621336,0.08445753,0.016578285,0.16318569,0.0047884034,-9.44752,0.23942018
6.255653,4.762164,0.08339227,0.018708814,0.16105516,-0.11492168,-9.41879,0.30166942
6.2559342,4.7621946,0.08339227,0.018708814,0.16105516,-0.11492168,-9.41879,0.30166942
6.25621,4.7622204,0.08445753,0.013382491,0.16105516,-0.12449849,-9.423578,0.272939
6.256485,4.7622457,0.08445753,0.013382491,0.16105516,-0.12449849,-9.423578,0.272939
6.2567654,4.762274,0.08445753,0.0048603755,0.16425095,-0.11971009,-9.375694,0.2873042
6.257047,4.762301,0.08445753,0.0048603755,0.16425095,-0.11971009,-9.375694,0.2873042
6.257341,4.7623396,0.08445753,-0.005792269,0.16638148,-0.06703765,-9.414001,0.35434186
6.257755,4.762393,0.08445753,-0.005792269,0.16638148,-0.06703765,-9.414001,0.35434186
6.257933,4.7624044,0.08445753,-0.017510178,0.16957727,-0.062249243,-9.279925,0.2777274
6.2582,4.7624216,0.08445753,-0.017510178,0.16957727,-0.062249243,-9.279925,0.2777274
6.258493,4.7624426,0.08445753,-0.028162822,0.17170781,-0.11492168,-9.260772,0.2633622
6.2587543,4.762461,0.08445753,-0.028162822,0.17170781,-0.11492168,-9.260772,0.2633622
6.259028,4.7624755,0.082327,-0.03881547,0.1780994,-0.16280572,-9.14585,0.21547815
6.2592998,4.76249,0.082327,-0.03881547,0.1780994,-0.16280572,-9.14585,0.21547815
6.2595644,4.762486,0.07806595,-0.04946811,0.18342571,-0.062249243,-9.006987,0.18674773
6.259833,4.762482,0.07806595,-0.04946811,0.18342571,-0.062249243,-9.006987,0.18674773
6.25991,4.7626143,0.07273962,-0.05372917,0.1866215,1.1875241,-9.011775,1.0151415
6.2599874,4.7627454,0.07273962,-0.05372917,0.1866215,1.1875241,-9.011775,1.0151415
6.260049,4.762866,0.073804885,-0.04627232,0.18236046,1.3742718,-8.90643,0.92416185
6.26011,4.762987,0.073804885,-0.04627232,0.18236046,1.3742718,-8.90643,0.92416185
6.2601485,4.7630258,0.074870154,-0.023901764,0.17170781,0.6943185,-8.853758,0.31603462
6.260187,4.7630644,0.074870154,-0.023901764,0.17170781,0.6943185,-8.853758,0.31603462
6.260271,4.7630496,0.0674133,0.00592564,0.16425095,0.5410896,-8.623915,0.08619126
6.2603545,4.7630343,0.0674133,0.00592564,0.16425095,0.5410896,-8.623915,0.08619126
6.26049,4.7629876,0.05036907,0.037883572,0.16531622,0.33039984,-8.508993,0.01436521
6.2606244,4.762941,0.05036907,0.037883572,0.16531622,0.33039984,-8.508993,0.01436521
6.260776,4.7628684,0.024802722,0.073037304,0.17277306,0.30645782,-8.42759,-0.047884032
6.2609277,4.762796,0.024802722,0.073037304,0.17277306,0.4261679,-8.240842,0.11971009
6.2610455,4.7627096,-0.0018288894,0.11245208,0.18342571,0.4261679,-8.240842,0.11971009
6.2611628,4.762624,-0.0018288894,0.11245208,0.18342571,0.4261679,-8.240842,0.11971009
6.2612257,4.7626047,-0.025264706,0.15506266,0.19514363,0.5315128,-8.523358,0.4357447
6.2612886,4.7625856,-0.025264706,0.15506266,0.19514363,0.5315128,-8.523358,0.4357447
6.2616415,4.7625604,-0.04763526,0.2019343,0.20579627,-0.10534488,-8.470686,0.46447513
6.2619944,4.7625356,-0.04763526,0.2019343,0.20579627,-0.10534488,-8.470686,0.46447513
6.2623544,4.762429,-0.06787529,0.24561015,0.22070996,-0.40701428,-8.259995,0.21547815
6.2627144,4.7623224,-0.06787529,0.24561015,0.22070996,-0.40701428,-8.259995,0.21547815
6.2630916,4.76219,-0.08598478,0.28076386,0.24201526,-0.641646,-8.001422,0.05267244
6.2634687,4.7620564,-0.08598478,0.28076386,0.24201526,-0.641646,-8.001422,0.05267244
6.263861,4.7618895,-0.107290074,0.31059128,0.2675816,-0.8331822,-7.8529816,-0.20111294
6.2642536,4.7617216,-0.107290074,0.31059128,0.2675816,-0.8331822,-7.8529816,-0.20111294
6.264671,4.761523,-0.13072589,0.33828816,0.30060482,-0.9864111,-7.599196,-0.46447513
6.2650876,4.7613235,-0.13072589,0.33828816,0.30060482,-0.9864111,-7.599196,-0.46447513
6.2655463,4.761099,-0.1573575,0.3638545,0.33788908,-1.1683705,-7.3310456,-0.5650316
6.2660036,4.7608747,-0.1573575,0.3638545,0.33788908,-1.1683705,-7.3310456,-0.5650316
6.266507,4.760619,-0.18825017,0.38942084,0.37943438,-1.3263878,-7.144298,-0.6607997
6.2670097,4.7603645,-0.18825017,0.38942084,0.37943438,-1.3263878,-7.144298,-0.6607997
6.2675576,4.760073,-0.22233863,0.41179138,0.42524076,-1.5562311,-6.9958572,-0.8762778
6.268105,4.759782,-0.22233863,0.41179138,0.42524076,-1.5562311,-6.9958572,-0.8762778
6.2687078,4.759453,-0.26068816,0.43096617,0.47637343,-1.7764976,-6.8330517,-0.9959879
6.269309,4.759124,-0.26068816,0.43096617,0.47637343,-1.7764976,-6.8330517,-0.9959879
6.2699604,4.7587466,-0.304364,0.4416188,0.53070194,-1.7908629,-6.766014,-1.1540052
6.2706113,4.758369,-0.304364,0.4416188,0.53070194,-1.7908629,-6.766014,-1.1540052
6.271319,4.757945,-0.35017037,0.44694513,0.5860957,-1.8531121,-6.6846113,-1.1923125
6.2720265,4.757521,-0.35017037,0.44694513,0.5860957,-1.8531121,-6.6846113,-1.1923125
6.2727847,4.7570515,-0.3938462,0.44268405,0.6393589,-1.7621324,-6.646304,-1.1827357
6.2735286,4.75659,-0.3938462,0.44268405,0.6393589,-1.7621324,-6.646304,-1.1827357
6.274333,4.7560735,-0.43752205,0.43096617,0.68623054,-1.6711528,-6.579266,-1.1587936
6.2751455,4.755551,-0.43752205,0.43096617,0.68623054,-1.6711528,-6.579266,-1.1587936
6.2759776,4.754985,-0.48013264,0.41392192,0.73097163,-1.5897499,-6.5026517,-1.4508862
6.2768087,4.754419,-0.48013264,0.41392192,0.73097163,-1.5897499,-6.5026517,-1.4508862
6.277665,4.753802,-0.5227432,0.3936819,0.76932114,-1.6232687,-6.4547677,-1.9967642
6.2785206,4.7531843,-0.5227432,0.3936819,0.76932114,-1.6232687,-6.4547677,-1.9967642
6.279393,4.7525105,-0.57494116,0.36811554,0.79701805,-1.484405,-6.493075,-2.207454
6.280266,4.7518363,-0.57494116,0.36811554,0.79701805,-1.484405,-6.493075,-2.207454
6.281139,4.7510996,-0.634596,0.33509237,0.8140623,-1.1300632,-6.5696893,-2.2457612
6.2820125,4.750362,-0.634596,0.33509237,0.8140623,-1.1300632,-6.5696893,-2.2457612
6.282879,4.7495613,-0.69638133,0.29354703,0.8183233,-0.78050977,-6.6893997,-1.9488802
0.0005588598,4.748761,-0.69638133,0.29354703,0.8183233,-0.78050977,-6.6893997,-1.9488802
0.0013978883,4.7478995,-0.7571014,0.25093648,0.80340964,-0.51235914,-6.895301,-1.7046716
0.0022365884,4.7470374,-0.7571014,0.25093648,0.80340964,-0.51235914,-6.895301,-1.7046716
0.0030474663,4.7461224,-0.8124951,0.2083259,0.7746475,-0.45010993,-7.1873937,-1.2497733
0.0038562976,4.745209,-0.8124951,0.2083259,0.7746475,-0.45010993,-7.1873937,-1.2497733
0.004623351,4.7442455,-0.8593668,0.16997637,0.73629797,-0.320823,-7.517793,-0.9816227
0.0053883987,4.7432837,-0.8593668,0.16997637,0.73629797,-0.320823,-7.517793,-0.9816227
0.006092774,4.74228,-0.90197736,0.13056158,0.6872958,-0.16759412,-8.00621,-0.6943185
0.0067964774,4.741276,-0.90197736,0.13056158,0.6872958,-0.16759412,-8.00621,-0.6943185
0.0074165063,4.740235,-0.9392616,0.087951005,0.6265757,0.0047884034,-8.475474,-0.46926352
0.008033691,4.7391977,-0.9392616,0.087951005,0.6265757,0.0047884034,-8.475474,-0.46926352
0.008538133,4.738129,-0.9722848,0.04214463,0.5573335,0.22505496,-8.90643,-0.25857377
0.009039448,4.737065,-0.9722848,0.04214463,0.5573335,0.22505496,-8.90643,-0.25857377
0.009404131,4.735997,-1.005308,-0.0015312112,0.47637343,0.5363012,-9.351752,-0.11492168
0.009767342,4.7349315,-1.005308,-0.0015312112,0.47637343,0.5363012,-9.351752,-0.11492168
0.010011903,4.733862,-1.0351354,-0.050533377,0.37836912,0.80924016,-9.68694,-0.019153614
0.010255108,4.7327976,-1.0351354,-0.050533377,0.37836912,0.80924016,-9.68694,-0.019153614
0.010380995,4.731687,-1.0638976,-0.10273133,0.26332054,1.0965444,-10.031705,0.12928689
0.010498621,4.730651,-1.0638976,-0.10273133,0.26332054,1.0965444,-10.031705,0.12928689
0.010498136,4.729594,-1.0883986,-0.1634514,0.13335828,1.364695,-10.419566,0.5267244
0.01049824,4.728535,-1.0883986,-0.1634514,0.13335828,1.364695,-10.419566,0.5267244
0.010369891,4.7274847,-1.1065081,-0.2294978,-0.009387151,1.5275006,-10.898406,0.89064306
0.010241594,4.726428,-1.1065081,-0.2294978,-0.009387151,1.5275006,-10.898406,0.89064306
0.009975294,4.7253757,-1.1171608,-0.2955442,-0.15958944,1.6663644,-11.372458,1.2306197
0.009710988,4.7243276,-1.1171608,-0.2955442,-0.15958944,1.6663644,-11.372458,1.2306197
0.009314126,4.723284,-1.1171608,-0.35306847,-0.30553067,1.541866,-11.793838,1.541866
0.008922921,4.722252,-1.1171608,-0.35306847,-0.30553067,1.541866,-11.793838,1.541866
0.00840637,4.7212243,-1.1065081,-0.39354852,-0.44081926,1.2258313,-12.0571995,1.6950948
0.0078959735,4.7202067,-1.1065081,-0.39354852,-0.44081926,1.2258313,-12.0571995,1.6950948
0.0072894124,4.7192106,-1.089464,-0.41698435,-0.56012887,0.7517793,-12.23437,1.8579005
0.006681434,4.71821,-1.089464,-0.41698435,-0.56012887,0.7517793,-12.23437,1.8579005
0.0060000396,4.7172413,-1.0660281,-0.4244412,-0.6602637,0.29209262,-12.349293,1.9488802
0.0053196065,4.716272,-1.0660281,-0.4244412,-0.6602637,0.29209262,-12.349293,1.9488802
0.004580236,4.7153335,-1.0362006,-0.4191149,-0.7422891,-0.1436521,-12.325351,2.087744
0.0038409089,4.714394,-1.0362006,-0.4191149,-0.7422891,-0.1436521,-12.325351,2.087744
0.003062876,4.7134833,-1.0042428,-0.40526643,-0.80300915,-0.5746084,-12.29662,1.8866309
0.0022878668,4.7125754,-1.0042428,-0.40526643,-0.80300915,-0.5746084,-12.29662,1.8866309
0.0014870468,4.7116942,-0.9722848,-0.38609168,-0.842424,-0.91937345,-12.229582,1.9393034
6.2830586,4.709951,-0.9413921,-0.36691692,-0.86585975,-1.1731589,-12.186486,1.7381904
6.2830586,4.709951,-0.9413921,-0.36691692,-0.86585975,-1.1731589,-12.186486,1.7381904
6.282223,4.709066,-0.9413921,-0.36691692,-0.86585975,-1.1731589,-12.186486,1.7381904
6.281411,4.708237,-0.91263,-0.35200322,-0.87970823,-1.2545617,-12.090718,1.5849615
6.2806168,4.707426,-0.91263,-0.35200322,-0.87970823,-1.1779473,-12.0332575,1.3120226
6.2798076,4.706627,-0.88812894,-0.34561163,-0.89142615,-1.1779473,-12.0332575,1.3120226
6.278989,4.705817,-0.86575836,-0.34774217,-0.9074051,-0.9576807,-11.96622,1.3215994
6.278125,4.705016,-0.86575836,-0.34774217,-0.9074051,-0.9576807,-11.96622,1.3215994
6.277078,4.704045,-0.86575836,-0.34774217,-0.9074051,-0.9576807,-11.96622,1.3215994
6.2756195,4.702802,-0.8487141,-0.35626426,-0.935102,-0.5363012,-11.87524,1.2880806
6.275319,4.702546,-0.8487141,-0.35626426,-0.935102,-0.5363012,-11.87524,1.2880806
6.274561,4.7019567,-0.8380615,-0.36904746,-0.975582,-0.08619126,-11.784261,1.2880806
6.273599,4.7012086,-0.8380615,-0.36904746,-0.975582,-0.08619126,-11.784261,1.2880806
6.2725224,4.7004423,-0.8327352,-0.38183063,-1.0331063,0.31124622,-11.693281,1.3551182
6.271409,4.6996484,-0.8327352,-0.38183063,-1.0331063,0.31124622,-11.693281,1.3551182
6.2703776,4.69897,-0.8327352,-0.3946138,-1.1087401,0.60812724,-11.583148,1.4556746
6.269294,4.6982555,-0.8327352,-0.3946138,-1.1087401,0.60812724,-11.583148,1.4556746
6.268062,4.6975036,-0.83593094,-0.40526643,-1.1982223,0.8810662,-11.482592,1.5562311
6.266833,4.6967525,-0.83593094,-0.40526643,-1.1982223,0.8810662,-11.482592,1.5562311
6.265488,4.6959915,-0.83912677,-0.4127233,-1.2983571,1.1252748,-11.329363,1.5753847
6.2627187,4.694474,-0.84551835,-0.41165802,-1.4027531,1.2497733,-11.176133,1.6376339
6.2627187,4.694474,-0.84551835,-0.41165802,-1.4027531,1.2497733,-11.176133,1.6376339
6.261275,4.693707,-0.84551835,-0.41165802,-1.4027531,1.2497733,-11.176133,1.6376339
6.258935,4.6925426,-0.8508447,-0.40207064,-1.5103447,1.3311762,-11.085154,1.5562311
6.258155,4.692154,-0.8508447,-0.40207064,-1.5103447,1.3311762,-11.085154,1.5562311
6.256483,4.6913686,-0.8551057,-0.38183063,-1.6136755,1.3503298,-10.989386,1.4748282
6.254837,4.690595,-0.8551057,-0.38183063,-1.6136755,1.3503298,-10.989386,1.4748282
6.2531,4.6898184,-0.8614973,-0.355199,-1.7127451,1.3982137,-10.922348,1.436521
6.251341,4.6890306,-0.8614973,-0.355199,-1.7127451,1.3982137,-10.922348,1.436521
6.249484,4.688239,-0.8668236,-0.3221758,-1.8107493,1.4077905,-10.941502,1.3790601
6.2476273,4.6874456,-0.8668236,-0.3221758,-1.8107493,1.4077905,-10.941502,1.3790601
6.245676,4.686648,-0.8732152,-0.28276104,-1.9066231,1.364695,-11.03727,1.283292
6.2437263,4.6858497,-0.8732152,-0.28276104,-1.9066231,1.364695,-11.03727,1.283292
6.241683,4.685048,-0.8774763,-0.24228097,-1.998236,1.2066777,-11.152191,1.1204864
6.239645,4.6842475,-0.8774763,-0.24228097,-1.998236,1.2066777,-11.152191,1.1204864
6.237531,4.683447,-0.88067204,-0.2028662,-2.0813265,1.043872,-11.228806,0.9816227
6.2354,4.682639,-0.88067204,-0.2028662,-2.0813265,0.93852705,-11.401189,0.94331545
6.2332277,4.6818438,-0.88173735,-0.16771246,-2.160156,0.93852705,-11.401189,0.94331545
6.2310405,4.6810417,-0.88173735,-0.16771246,-2.160156,0.93852705,-11.401189,0.94331545
6.228791,4.680246,-0.88067204,-0.14001559,-2.2357898,0.8619126,-11.563994,0.81402856
6.22654,4.679448,-0.88067204,-0.14001559,-2.2357898,0.7278373,-11.63582,0.6943185
6.224242,4.6786613,-0.87534577,-0.12084083,-2.3060973,0.7278373,-11.63582,0.6943185
6.2219305,4.6778684,-0.87534577,-0.12084083,-2.3060973,0.7278373,-11.63582,0.6943185
6.2195754,4.6770873,-0.86575836,-0.108057655,-2.3721437,0.59376204,-11.765107,0.60333884
6.217223,4.6763053,-0.86575836,-0.108057655,-2.3721437,0.59376204,-11.765107,0.37828386
6.214817,4.675539,-0.8508447,-0.10273133,-2.4317985,0.63206923,-11.860875,0.37828386
6.212409,4.6747704,-0.8508447,-0.10273133,-2.4317985,0.62728083,-12.0571995,0.20111294
6.2099686,4.674022,-0.8316699,-0.10060081,-2.486127,0.62728083,-12.0571995,0.20111294
6.2075195,4.6732683,-0.8316699,-0.10060081,-2.486127,0.62728083,-12.0571995,0.20111294
6.205019,4.6725383,-0.8082341,-0.10060081,-2.5393903,0.7757214,-12.5025215,-0.062249243
6.2025313,4.671808,-0.8082341,-0.10060081,-2.5393903,0.81402856,-12.789825,-0.22984336
6.200017,4.671097,-0.78160244,-0.10166607,-2.5883925,0.81402856,-12.789825,-0.22984336
6.197504,4.6703815,-0.78160244,-0.10166607,-2.5883925,0.80445176,-12.679692,-0.2681506
6.194969,4.669694,-0.7496445,-0.1037966,-2.6331334,0.80445176,-12.679692,-0.2681506
6.1924233,4.668999,-0.7496445,-0.1037966,-2.6331334,0.90979666,-12.531252,-0.39743748
6.189856,4.6683292,-0.7155561,-0.110188186,-2.6778746,0.90979666,-12.531252,-0.39743748
6.187293,4.667655,-0.7155561,-0.110188186,-2.6778746,1.0821792,-12.315774,-0.34955344
6.184628,4.667042,-0.68359816,-0.11977556,-2.7226157,1.0821792,-12.315774,-0.34955344
6.1819715,4.666424,-0.68359816,-0.11977556,-2.7226157,1.3072342,-12.210428,-0.25857377
6.179198,4.6658382,-0.6569665,-0.1368198,-2.7673569,1.3072342,-12.210428,-0.25857377
6.1764235,4.665251,-0.6569665,-0.1368198,-2.7673569,1.3072342,-12.210428,-0.19632454
6.1735597,4.664672,-0.63779175,-0.15812509,-2.8195548,1.532289,-12.138602,-0.19632454
6.170701,4.6640935,-0.63779175,-0.15812509,-2.8195548,1.8291701,-12.133814,-0.1388637
6.1677623,4.663515,-0.6218128,-0.18049563,-2.872818,1.8291701,-12.133814,-0.1388637
6.164823,4.662937,-0.6218128,-0.18049563,-2.872818,2.0159178,-12.20564,-0.095768064
6.161832,4.6623673,-0.6068991,-0.20606199,-2.929277,2.0159178,-12.20564,-0.095768064
6.1588297,4.661795,-0.5887896,-0.23162833,-2.9878666,2.2170308,-12.287044,-0.047884032
6.1557693,4.661233,-0.5887896,-0.23162833,-2.9878666,2.2170308,-12.287044,-0.047884032
6.15271,4.6606708,-0.5653538,-0.26145574,-3.0496519,2.5617957,-12.440272,-0.1340753
6.14956,4.660108,-0.5653538,-0.26145574,-3.0496519,2.5617957,-12.440272,-0.1340753
6.146388,4.6595416,-0.5653538,-0.26145574,-3.0496519,2.5617957,-12.440272,-0.1340753
6.143203,4.6589956,-0.5376569,-0.29128313,-3.1135678,2.9257145,-12.684481,-0.16759412
6.1399903,4.658445,-0.5376569,-0.29128313,-3.1135678,2.9257145,-12.684481,-0.16759412
6.1367044,4.657905,-0.5035685,-0.32430634,-3.1806793,3.3566709,-12.842498,-0.272939
6.1334257,4.6573663,-0.5035685,-0.32430634,-3.1806793,3.3566709,-12.842498,-0.272939
6.130072,4.6568456,-0.46521893,-0.35732955,-3.252052,3.821146,-13.072341,-0.37349546
6.1267023,4.6563215,-0.46521893,-0.35732955,-3.252052,3.821146,-13.072341,-0.37349546
6.123266,4.65582,-0.4236736,-0.38822222,-3.3298163,4.3766007,-13.215993,-0.521936
6.1198306,4.655317,-0.4236736,-0.38822222,-3.3298163,4.3766007,-13.215993,-0.521936
6.1161747,4.6548195,-0.38319355,-0.42231068,-3.4171681,5.1379566,-13.292608,-0.62728083
6.112773,4.654354,-0.38319355,-0.42231068,-3.4171681,5.1379566,-13.292608,-0.62728083
6.1091514,4.6538935,-0.34697458,-0.45852965,-3.5194335,6.0285997,-13.383588,-0.7469909
6.105541,4.653432,-0.34697458,-0.45852965,-3.5194335,6.0285997,-13.383588,-0.7469909
6.1017895,4.6529894,-0.3160819,-0.4926181,-3.641939,6.909666,-13.402741,-0.6991069
6.098046,4.652545,-0.3160819,-0.4926181,-3.641939,6.909666,-13.402741,-0.6991069
6.09416,4.6521187,-0.2894503,-0.52244556,-3.7878802,7.7572136,-13.383588,-0.62249243
6.090274,4.6516895,-0.2894503,-0.52244556,-3.7878802,7.7572136,-13.383588,-0.62249243
6.0862217,4.6512775,-0.2660145,-0.5448161,-3.9583225,8.552089,-13.345281,-0.4357447
6.082169,4.6508617,-0.2660145,-0.5448161,-3.9583225,8.552089,-13.345281,-0.4357447
6.077931,4.6504574,-0.24683972,-0.55759925,-4.1511354,9.160215,-13.378799,-0.36870706
6.073684,4.650049,-0.24683972,-0.55759925,-4.1511354,9.160215,-13.378799,-0.36870706
6.069236,4.649655,-0.22766495,-0.5618603,-4.359927,9.744401,-13.283031,-0.21068975
6.0622697,4.649029,-0.22766495,-0.5618603,-4.359927,9.744401,-13.283031,-0.21068975
6.0601773,4.6488566,-0.2084902,-0.556534,-4.583633,10.19451,-13.263878,-0.02873042
6.0549383,4.6484222,-0.2084902,-0.556534,-4.583633,10.19451,-13.263878,-0.02873042
6.05064,4.648097,-0.18825017,-0.53948975,-4.814795,10.34774,-13.306973,-0.0047884034
6.045813,4.647727,-0.18825017,-0.53948975,-4.814795,10.34774,-13.306973,-0.0047884034
6.0407343,4.6473794,-0.16374908,-0.5075318,-5.048088,10.429143,-13.321339,-0.033518825
6.035558,4.64702,-0.16374908,-0.5075318,-5.048088,10.429143,-13.321339,-0.033518825
6.0301976,4.6466956,-0.13498695,-0.46598652,-5.27712,10.563218,-13.584701,0.009576807
6.0248537,4.646367,-0.13498695,-0.46598652,-5.27712,10.563218,-13.584701,0.009576807
6.0187526,4.6460485,-0.10515954,-0.4127233,-5.4976296,10.726024,-13.838486,0.15322891
6.0135174,4.645771,-0.10515954,-0.4127233,-5.4976296,10.726024,-13.838486,0.15322891
6.007845,4.6455226,-0.07320161,-0.3413506,-5.7064214,10.749966,-14.025233,0.11971009
6.002033,4.645264,-0.07320161,-0.3413506,-5.7064214,10.749966,-14.025233,0.11971009
5.9957275,4.6450467,-0.03804788,-0.25293362,-5.905626,10.668563,-14.293385,-0.0047884034
5.9899864,4.6448445,-0.03804788,-0.25293362,-5.905626,10.668563,-14.293385,-0.0047884034
5.9838247,4.644696,-0.0018288894,-0.14960296,-6.0941777,10.658986,-14.355634,0.10534488
5.977632,4.6445436,-0.0018288894,-0.14960296,-6.0941777,10.658986,-14.355634,0.10534488
5.9712462,4.644455,0.034390103,-0.033489145,-6.2731423,10.486604,-14.4130945,0.009576807
5.9648666,4.6443644,0.034390103,-0.033489145,-6.2731423,10.486604,-14.4130945,0.009576807
5.9583015,4.6443434,0.06847856,0.09327733,-6.4446497,10.314221,-14.422671,0.02873042
5.9517365,4.644321,0.06847856,0.09327733,-6.4446497,10.314221,-14.422671,0.02873042
5.9450016,4.644372,0.1004365,0.22963117,-6.6055045,9.844957,-14.475344,-0.05746084
5.93826,4.644423,0.13132916,0.37024608,-6.759968,9.701305,-14.791378,0.15322891
5.931318,4.64456,0.13132916,0.37024608,-6.759968,9.701305,-14.791378,0.15322891
5.924445,4.6446958,0.13132916,0.37024608,-6.759968,9.701305,-14.791378,0.15322891
5.9174104,4.6449237,0.16222183,0.5161873,-6.904844,9.428367,-15.02601,0.32561144
5.9103765,4.6451535,0.16222183,0.5161873,-6.904844,9.428367,-15.02601,0.32561144
5.9032016,4.6454835,0.19950609,0.67065066,-7.038002,9.11712,-15.203181,0.23942018
5.8960133,4.6458178,0.19950609,0.67065066,-7.038002,9.11712,-15.203181,0.23942018
5.8887053,4.646265,0.24211667,0.825114,-7.161573,8.820239,-15.20797,0.2777274
5.8814135,4.6467175,0.24211667,0.825114,-7.161573,8.820239,-15.20797,0.2777274
5.8739915,4.6473,0.29005358,0.97957736,-7.274491,8.274361,-15.2367,0.2873042
5.8665805,4.647891,0.29005358,0.97957736,-7.274491,8.274361,-15.2367,0.2873042
5.859095,4.648622,0.34118626,1.1287143,-7.376756,7.517793,-15.217546,0.29209262
5.851617,4.649364,0.34118626,1.1287143,-7.376756,7.517793,-15.217546,0.29209262
5.8441033,4.650238,0.39551476,1.2693293,-7.4630427,6.8043213,-15.342045,0.44532153
5.8365993,4.651122,0.39551476,1.2693293,-7.4630427,6.8043213,-15.342045,0.44532153
5.829057,4.6521297,0.45303902,1.4024874,-7.525893,6.3781533,-15.538369,0.5410896
5.8215303,4.6531467,0.45303902,1.4024874,-7.525893,6.3781533,-15.538369,0.5410896
5.813962,4.654291,0.51375914,1.5324496,-7.564243,5.770026,-15.576676,0.545878
5.8064137,4.6554456,0.51375914,1.5324496,-7.564243,5.770026,-15.576676,0.545878
5.798876,4.656729,0.577675,1.659216,-7.5791564,5.434838,-15.576676,0.3878607
5.7913194,4.6580315,0.577675,1.659216,-7.5791564,5.434838,-15.576676,0.3878607
5.7837777,4.6594753,0.6458519,1.783852,-7.57383,4.8985367,-15.634137,0.40222588
5.7762403,4.6609373,0.6458519,1.783852,-7.57383,4.8985367,-15.634137,0.40222588
5.768727,4.66255,0.7150941,1.9074227,-7.550394,4.462792,-15.763424,0.35913026
5.761217,4.664183,0.7150941,1.9074227,-7.550394,4.462792,-15.763424,0.35913026
5.7537575,4.66597,0.78646684,2.028863,-7.508849,4.0222588,-15.7825775,0.19153613
5.7462873,4.667784,0.78646684,2.028863,-7.508849,4.0222588,-15.7825775,0.19153613
5.7388825,4.669756,0.85997003,2.142846,-7.4513245,3.3901896,-15.677233,0.019153614
5.731489,4.671752,0.85997003,2.142846,-7.4513245,3.3901896,-15.677233,0.019153614
5.7241545,4.673912,0.9366691,2.2451115,-7.379952,2.801216,-15.614984,-0.2633622
5.7168393,4.6760964,0.9366691,2.2451115,-7.379952,2.801216,-15.614984,-0.2633622
5.709597,4.6784506,1.0176291,2.327137,-7.2936654,2.6144683,-15.600618,-0.2681506
5.702367,4.680834,1.0176291,2.327137,-7.2936654,2.6144683,-15.600618,-0.2681506
5.6952405,4.683373,1.1028503,2.3889222,-7.194596,2.2218192,-15.533581,-0.47405192
5.688119,4.685945,1.1028503,2.3889222,-7.194596,2.2218192,-15.533581,-0.47405192
5.681105,4.6886673,1.1933979,2.432598,-7.0923305,1.6136919,-15.217546,-0.7517793
5.6740975,4.6914263,1.1933979,2.432598,-7.0923305,1.6136919,-15.217546,-0.7517793
5.667208,4.6943297,1.2903368,2.4528382,-6.980478,1.4030021,-15.035586,-0.9528923
5.660332,4.6972675,1.2903368,2.4528382,-6.980478,1.4030021,-15.035586,-0.9528923
5.653573,4.7003455,1.3915371,2.4496424,-6.856907,1.2737153,-14.599842,-1.1587936
5.646828,4.703459,1.3915371,2.4496424,-6.856907,1.2737153,-14.599842,-1.1587936
5.6402273,4.7066865,1.4938024,2.4251413,-6.726945,1.3551182,-14.144943,-1.4508862
5.6336207,4.7099605,1.4938024,2.4251413,-6.726945,1.3551182,-14.144943,-1.4508862
5.626327,4.7137613,1.5939373,2.383596,-6.6001782,1.5897499,-13.383588,-1.8722657
5.6204243,4.716879,1.5939373,2.383596,-6.6001782,1.5897499,-13.383588,-1.8722657
5.605271,4.725295,1.6876805,2.3250062,-6.4787383,2.1308396,-12.77546,-2.1930888
5.605271,4.725295,1.6876805,2.3250062,-6.4787383,2.1308396,-12.77546,-2.1930888
5.6017413,4.7273297,1.7697059,2.25896,-6.3668857,2.3463178,-11.592725,-2.767697
5.5954165,4.731015,1.7697059,2.25896,-6.3668857,2.3463178,-11.592725,-2.767697
5.5884004,4.735194,1.8336217,2.174804,-6.2827296,3.0262709,-11.123461,-2.7341783
5.5884004,4.735194,1.8336217,2.174804,-6.2827296,3.0262709,-11.123461,-2.7341783
5.571789,4.745343,1.8336217,2.174804,-6.2827296,3.0262709,-11.123461,-2.7341783
5.5687976,4.747197,1.8836892,2.0789304,-6.228401,3.9743748,-10.371682,-2.7724855
5.5650797,4.749485,1.9241693,1.9862523,-6.1975083,4.76925,-9.739613,-2.96881
5.5590363,4.7532444,1.9241693,1.9862523,-6.1975083,4.76925,-9.739613,-2.96881
5.5529857,4.7569833,1.9539967,1.9031616,-6.1900516,5.5880666,-8.839393,-3.1555579
5.546431,4.7610893,1.9539967,1.9031616,-6.1900516,5.5880666,-8.839393,-3.1555579
5.5407395,4.7646255,1.9742367,1.8296584,-6.2113566,6.0764837,-8.135497,-3.4572272
5.534776,4.768377,1.9742367,1.8296584,-6.2113566,6.0764837,-8.135497,-3.4572272
5.5278335,4.772693,1.983824,1.7646773,-6.2624893,6.8330517,-7.551312,-3.4380736
5.522523,4.77604,1.983824,1.7646773,-6.2624893,6.8330517,-7.551312,-3.4380736
5.516308,4.779894,1.9816935,1.7103487,-6.3466454,7.101202,-7.015011,-3.323152
5.51009,4.783803,1.9816935,1.7103487,-6.3466454,7.101202,-7.015011,-3.323152
5.5037427,4.787717,1.9689103,1.6634772,-6.461694,7.465121,-6.6654577,-3.1794999
5.497399,4.7916856,1.9689103,1.6634772,-6.461694,7.465121,-6.6654577,-3.1794999
5.4909124,4.795659,1.947605,1.6261929,-6.6044393,7.8625584,-6.445191,-2.8538885
5.4844427,4.7996817,1.947605,1.6261929,-6.6044393,7.8625584,-6.445191,-2.8538885
5.477796,4.8037243,1.9177777,1.5995612,-6.780208,7.833828,-6.325481,-2.5761611
5.469993,4.808551,1.9177777,1.5995612,-6.780208,7.833828,-6.325481,-2.5761611
5.46421,4.812046,1.8783629,1.5803865,-6.9868693,7.5800424,-6.3542113,-2.1547816
5.457475,4.8161793,1.8783629,1.5803865,-6.9868693,7.5800424,-6.3542113,-2.1547816
5.4504495,4.8203807,1.8314912,1.5633423,-7.2159014,7.541735,-6.220136,-1.7717092
5.4434295,4.824653,1.8314912,1.5633423,-7.2159014,7.541735,-6.220136,-1.7717092
5.436174,4.82896,1.7814238,1.5441675,-7.460912,7.2592196,-6.14831,-1.5275006
5.4289317,4.8333387,1.7814238,1.5441675,-7.460912,7.2592196,-6.14831,-1.5275006
5.4214354,4.8377576,1.7281606,1.5239275,-7.7197714,7.1251445,-5.8322754,-1.2689269
5.413946,4.8422613,1.7281606,1.5239275,-7.7197714,7.1251445,-5.8322754,-1.2689269
5.406229,4.8468027,1.669571,1.505818,-7.9871526,6.291962,-5.5641246,-1.2210429
5.3985267,4.8514338,1.669571,1.505818,-7.9871526,6.291962,-5.5641246,-1.2210429
5.3906116,4.8561296,1.613112,1.4951653,-8.2534685,5.1140146,-5.363012,-1.316811
5.3826957,4.8609343,1.613112,1.4951653,-8.2534685,5.1140146,-5.363012,-1.316811
5.3745885,4.8658314,1.5577183,1.4941001,-8.497415,3.6774938,-5.243302,-1.6041151
5.3665037,4.8708334,1.5577183,1.4941001,-8.497415,3.6774938,-5.243302,-1.6041151
5.358239,4.8759594,1.5044551,1.5004916,-8.706206,2.3798366,-5.2480903,-1.8914193
5.34999,4.8812075,1.5044551,1.5004916,-8.706206,2.3798366,-5.2480903,-1.8914193
5.333208,4.8921247,1.4554529,1.5132748,-8.877714,1.1252748,-5.2768207,-2.2840683
5.333208,4.8921247,1.4128423,1.5292538,-9.016198,-0.16280572,-5.592855,-2.1883004
5.324596,4.8979173,1.4128423,1.5292538,-9.016198,-0.16280572,-5.592855,-2.1883004
5.31607,4.9038167,1.4128423,1.5292538,-9.016198,-0.16280572,-5.592855,-2.1883004
5.307573,4.909829,1.3808844,1.5335149,-9.12379,-1.484405,-5.884948,-1.9967642
5.2990947,4.916005,1.3808844,1.5335149,-9.12379,-2.5139117,-6.033388,-1.6041151
5.290652,4.922277,1.3638401,1.5068833,-9.198359,-2.5139117,-6.033388,-1.6041151
5.28199,4.92891,1.3638401,1.5068833,-9.198359,-3.145981,-6.1770406,-1.0773908
5.2734694,4.935526,1.3638401,1.4365758,-9.243099,-3.145981,-6.1770406,-1.0773908
5.2648087,4.9424677,1.3638401,1.4365758,-9.243099,-3.145981,-6.1770406,-1.0773908
5.256222,4.949382,1.3798192,1.3183315,-9.253752,-3.964798,-5.755661,-0.9816227
5.247761,4.9564185,1.3798192,1.3183315,-9.253752,-3.964798,-5.755661,-0.9816227
5.239062,4.9636464,1.4107118,1.1574765,-9.240969,-4.2521024,-5.48751,-0.39743748
5.230593,4.9709244,1.4107118,1.1574765,-9.240969,-4.2521024,-5.48751,-0.39743748
5.2219687,4.9782686,1.447996,0.9604026,-9.203685,-4.381389,-5.233725,-0.0047884034
5.2134457,4.985781,1.447996,0.9604026,-9.203685,-4.912902,-4.927267,0.21068975
5.2050505,4.993085,1.4916719,0.7462844,-9.135508,-4.912902,-4.927267,0.21068975
5.1964674,5.0008183,1.4916719,0.7462844,-9.135508,-4.912902,-4.927267,0.21068975
5.187771,5.0085354,1.5406741,0.51725256,-9.040699,-5.21936,-4.6686935,0.5315128
5.179727,5.0159283,1.5406741,0.51725256,-9.040699,-5.21936,-4.6686935,0.5315128
5.171299,5.02352,1.592872,0.27650282,-8.914998,-5.056554,-4.223372,0.8571242
5.1630764,5.031199,1.592872,0.27650282,-8.914998,-5.056554,-4.223372,0.8571242
5.1547785,5.0387897,1.6472005,0.038948838,-8.752012,-4.9320555,-3.8019924,1.1252748
5.1466665,5.046488,1.6472005,0.038948838,-8.752012,-4.9320555,-3.8019924,1.1252748
5.1385107,5.054082,1.701529,-0.1815609,-8.557069,-5.2002063,-3.3087866,1.1923125
5.1305447,5.061779,1.701529,-0.1815609,-8.557069,-5.2002063,-3.3087866,1.1923125
5.122583,5.0693283,1.7547922,-0.38609168,-8.321646,-5.482722,-2.566584,0.8331822
5.114798,5.07699,1.7547922,-0.38609168,-8.321646,-5.482722,-2.566584,0.8331822
5.107066,5.084472,1.8027291,-0.576774,-8.052134,-5.1140146,-2.2744915,1.0295067
5.099413,5.0921597,1.8027291,-0.576774,-8.052134,-5.363012,-1.6424223,0.48362875
5.0920897,5.0993614,1.8442744,-0.75147736,-7.7485332,-5.363012,-1.6424223,0.48362875
5.0845985,5.1070075,1.8442744,-0.75147736,-7.7485332,-5.5401826,-0.7565677,0.04309563
5.0775285,5.114082,1.8815587,-0.90487546,-7.4065833,-5.5401826,-0.7565677,0.04309563
5.070324,5.1215615,1.8815587,-0.90487546,-7.4065833,-5.827487,0.02873042,-0.22026655
5.0635595,5.1284075,1.9092555,-1.0497514,-7.026284,-5.827487,0.02873042,-0.22026655
5.056679,5.135627,1.9092555,-1.0497514,-7.026284,-5.827487,0.02873042,-0.22026655
5.050177,5.142193,1.9220387,-1.1946274,-6.6129613,-5.9424086,0.91458505,-0.4213795
5.0437646,5.1488996,1.9220387,-1.1946274,-6.6129613,-5.9424086,0.91458505,-0.4213795
5.037529,5.1550674,1.9199082,-1.3373728,-6.1730075,-5.9041014,1.910573,-0.6655881
5.0314493,5.1612864,1.9199082,-1.3373728,-6.1730075,-5.9041014,1.910573,-0.6655881
5.0255914,5.1668186,1.9039292,-1.4801183,-5.713878,-5.827487,2.930503,-0.842759
5.0197973,5.17247,1.9039292,-1.4801183,-5.713878,-5.544971,3.9360676,-0.8619126
5.0144243,5.177148,1.8741019,-1.6207331,-5.240901,-5.544971,3.9360676,-0.8619126
5.0089254,5.182082,1.8741019,-1.6207331,-5.240901,-5.0661306,4.975151,-1.091756
5.00389,5.1858854,1.8293607,-1.7634786,-4.761532,-5.0661306,4.975151,-1.091756
4.998765,5.189862,1.8293607,-1.7634786,-4.761532,-4.1036615,5.985504,-1.163582
4.994074,5.192648,1.7739669,-1.9083546,-4.2885547,-4.1036615,5.985504,-1.163582
4.9892883,5.1955566,1.7739669,-1.9083546,-4.2885547,-4.1036615,5.985504,-1.163582
4.984871,5.1972585,1.7036595,-2.0489695,-3.8379476,-2.791639,6.5936313,-1.0965444
4.980507,5.198968,1.7036595,-2.0489695,-3.8379476,-2.791639,6.5936313,-1.0965444
4.9763317,5.1995096,1.6216341,-2.184258,-3.4214292,-1.364695,7.005434,-0.8810662
4.9722443,5.2000313,1.6216341,-2.184258,-3.4214292,-1.364695,7.005434,-0.8810662
4.968339,5.199384,1.5332172,-2.3078287,-3.050717,0.320823,7.359776,-0.9528923
4.9644694,5.198699,1.5332172,-2.3078287,-3.050717,2.0398598,7.575254,-0.9959879
4.9608545,5.1969213,1.4384086,-2.4239426,-2.7375295,2.0398598,7.575254,-0.9959879
4.9571533,5.1950235,1.4384086,-2.4239426,-2.7375295,3.5529952,7.627927,-1.1013328
4.9536943,5.1921334,1.3372085,-2.530469,-2.4850616,3.5529952,7.627927,-1.1013328
4.9501762,5.1890836,1.3372085,-2.530469,-2.4850616,5.070919,7.469909,-1.1540052
4.946843,5.1851535,1.2317474,-2.6263428,-2.2933142,5.070919,7.469909,-1.1540052
4.9434485,5.1810083,1.2317474,-2.6263428,-2.2933142,6.5840545,7.359776,-1.2018893
4.9402056,5.1761274,1.1262861,-2.711564,-2.1622865,6.5840545,7.359776,-1.2018893
4.936905,5.1709857,1.1262861,-2.711564,-2.1622865,6.5840545,7.359776,-1.2018893
4.9336686,5.165151,1.020825,-2.7861326,-2.0866528,7.8050976,7.101202,-1.2976574
4.930488,5.1592135,1.020825,-2.7861326,-2.0866528,7.8050976,7.101202,-1.2976574
4.9272327,5.1525087,0.91642904,-2.8479178,-2.0600212,8.863335,6.742072,-1.1779473
4.924056,5.145728,0.91642904,-2.8479178,-2.0600212,8.863335,6.742072,-1.1779473
4.920807,5.138358,0.81522894,-2.8873327,-2.070674,10.0269165,6.181829,-0.8331822
4.91763,5.130881,0.81522894,-2.8873327,-2.070674,10.0269165,6.181829,-0.8331822
4.914258,5.122717,0.7214857,-2.9001157,-2.1186109,11.056423,5.755661,-0.5506664
4.9111567,5.114917,0.7214857,-2.9001157,-2.1186109,11.056423,5.755661,-0.5506664
4.9078455,5.1066017,0.6383951,-2.888398,-2.2017014,11.707646,5.353435,-0.32561144
4.9045763,5.0980597,0.6383951,-2.888398,-2.2017014,12.014104,4.8937483,-0.07182605
4.9012733,5.089626,0.55850023,-2.8553746,-2.3124888,12.014104,4.8937483,-0.07182605
4.8979053,5.080667,0.55850023,-2.8553746,-2.3124888,11.947066,4.405331,0.23463176
4.8945246,5.0719957,0.48180118,-2.807438,-2.4392555,11.947066,4.405331,0.23463176
4.8910956,5.0628133,0.48180118,-2.807438,-2.4392555,11.674128,3.9025488,0.4309563
4.887654,5.0539374,0.40723267,-2.7531092,-2.5670872,11.674128,3.9025488,0.4309563
4.8841543,5.0444984,0.40723267,-2.7531092,-2.5670872,11.133038,3.3279405,0.4213795
4.880657,5.03533,0.33585995,-2.6923892,-2.6778746,11.133038,3.3279405,0.4213795
4.877104,5.025569,0.33585995,-2.6923892,-2.6778746,11.133038,3.3279405,0.4213795
4.8735347,5.0158854,0.26661775,-2.631669,-2.7630959,10.529699,2.8107927,0.2681506
4.8700314,5.005904,0.26661775,-2.631669,-2.7630959,10.529699,2.8107927,0.2681506
4.866411,4.995552,0.20270188,-2.5720143,-2.8152938,10.022128,2.3175871,0.20111294
4.862899,4.984976,0.20270188,-2.5720143,-2.8152938,10.022128,2.3175871,0.20111294
4.859335,4.97404,0.14198181,-2.5155554,-2.8312726,9.576807,1.6663644,0.34476504
4.8558636,4.9628067,0.14198181,-2.5155554,-2.8312726,9.576807,1.6663644,0.34476504
4.8523726,4.9511395,0.089783855,-2.461227,-2.812098,9.088389,1.0869676,0.5746084
4.848975,4.9391427,0.089783855,-2.461227,-2.812098,9.088389,1.0869676,0.5746084
4.8456097,4.9266987,0.051434334,-2.4079635,-2.7599,8.418014,0.47405192,0.7757214
4.842332,4.913873,0.051434334,-2.4079635,-2.7599,8.418014,0.47405192,0.7757214
4.839132,4.9004517,0.025867987,-2.3664184,-2.6789398,8.341399,0.08140286,0.9528923
4.835986,4.8864717,0.025867987,-2.3664184,-2.6789398,8.269572,-0.2873042,0.9816227
4.8330407,4.872181,0.012019549,-2.3312645,-2.574544,8.269572,-0.2873042,0.9816227
4.830044,4.856761,0.012019549,-2.3312645,-2.574544,8.212111,-0.521936,1.0534488
4.8273067,4.8411045,0.008823755,-2.3014371,-2.4467123,8.212111,-0.521936,1.0534488
4.8245444,4.8243303,0.008823755,-2.3014371,-2.4467123,8.307879,-1.0247183,1.2641385
4.8220587,4.8071833,0.012019549,-2.2748055,-2.305032,8.307879,-1.0247183,1.2641385
4.819561,4.7888746,0.012019549,-2.2748055,-2.305032,8.307879,-1.0247183,1.2641385
4.81729,4.7700367,0.026933251,-2.2492392,-2.1505687,8.025364,-1.1779473,1.4077905
4.81507,4.750451,0.026933251,-2.2492392,-2.1505687,8.025364,-1.1779473,1.4077905
4.8130474,4.7297726,0.04823854,-2.2449782,-1.998236,8.844181,-1.5275006,1.2210429
4.811084,4.708422,0.074870154,-2.2407172,-1.8448378,9.514558,-1.484405,0.91937345
4.8093157,4.6862316,0.074870154,-2.2407172,-1.8448378,9.514558,-1.484405,0.91937345
4.807659,4.6640415,0.10150176,-2.2183466,-1.6935703,9.548077,-1.6041151,0.80924016
4.806163,4.6406174,0.10150176,-2.2183466,-1.6935703,9.548077,-1.6041151,0.80924016
4.8046746,4.6156573,0.10150176,-2.2183466,-1.6935703,9.548077,-1.6041151,0.80924016
4.8034363,4.591304,0.12387232,-2.1895845,-1.547629,10.012551,-1.8291701,1.0295067
4.8022594,4.5664897,0.12387232,-2.1895845,-1.547629,10.012551,-1.8291701,1.0295067
4.801137,4.5380974,0.14730814,-2.1533654,-1.4080794,10.548853,-2.2457612,1.3790601
4.800267,4.514164,0.14730814,-2.1533654,-1.4080794,10.548853,-2.2457612,1.3790601
4.7994385,4.485976,0.17393975,-2.1001022,-1.269595,10.184934,-2.1883004,1.1683705
4.7983,4.4414363,0.17393975,-2.1001022,-1.269595,10.184934,-2.1883004,1.1683705
4.7981753,4.435022,0.20376715,-2.0500348,-1.1321759,10.726024,-2.1212628,1.2114661
4.7977805,4.413376,0.20376715,-2.0500348,-1.1321759,10.726024,-2.1212628,1.2114661
4.7974663,4.3882847,0.2325293,-1.9989021,-1.0000831,11.84651,-2.0350714,1.1731589
4.7971907,4.3613896,0.2325293,-1.9989021,-1.0000831,11.84651,-2.0350714,1.1731589
4.79709,4.336328,0.25703037,-1.9200726,-0.86159873,11.856087,-1.8052281,0.82360536
4.7970486,4.3168154,0.25703037,-1.9200726,-0.86159873,11.856087,-1.8052281,0.82360536
4.797149,4.29529,0.27513987,-1.8188723,-0.71778804,11.48738,-1.8674773,0.58418524
4.7972803,4.2747245,0.27513987,-1.8188723,-0.71778804,10.898406,-1.6950948,0.36391866
4.7975454,4.2553463,0.2889883,-1.720868,-0.57823837,10.898406,-1.6950948,0.36391866
4.797847,4.2356853,0.2889883,-1.720868,-0.57823837,11.061212,-1.5035586,0.24899697
4.7982545,4.2179937,0.2985757,-1.6377774,-0.43975398,11.061212,-1.5035586,0.24899697
4.7986856,4.2004013,0.2985757,-1.6377774,-0.43975398,11.061212,-1.5035586,0.24899697
4.799222,4.1847205,0.3017715,-1.5536215,-0.29487804,11.046846,-1.340753,0.11971009
4.799781,4.169238,0.3017715,-1.5536215,-0.29487804,11.046846,-1.340753,0.11971009
4.8004036,4.1556816,0.30283675,-1.458813,-0.14254521,10.912771,-1.0151415,0.02873042
4.80104,4.1423125,0.30283675,-1.458813,-0.14254521,10.553641,-0.80445176,0.1436521
4.8017387,4.130872,0.30496728,-1.3586781,0.012983402,10.553641,-0.80445176,0.1436521
4.802452,4.1196012,0.30496728,-1.3586781,0.012983402,10.175357,-0.50278234,-0.033518825
4.803212,4.1099916,0.30816308,-1.2628043,0.17170781,10.175357,-0.50278234,-0.033518825
4.803981,4.1005545,0.30816308,-1.2628043,0.17170781,10.175357,-0.50278234,-0.033518825
4.8048053,4.092378,0.30816308,-1.176518,0.32936695,10.0508585,-0.07182605,-0.1436521
4.806536,4.0779276,0.30283675,-1.10408,0.47850397,10.012551,0.12928689,-0.21547815
4.806536,4.0779276,0.30283675,-1.10408,0.47850397,10.012551,0.12928689,-0.21547815
4.807469,4.07141,0.30283675,-1.10408,0.47850397,10.012551,0.12928689,-0.21547815
4.808631,4.065605,0.29111883,-1.0422946,0.6212494,9.959879,0.2825158,-0.24420857
4.8094745,4.06151,0.29111883,-1.0422946,0.6212494,9.959879,0.2825158,-0.24420857
4.810553,4.0578585,0.2740746,-0.9847703,0.76079905,9.77792,0.36391866,-0.40701428
4.8116255,4.054305,0.2740746,-0.9847703,0.76079905,9.77792,0.36391866,-0.40701428
4.812778,4.0521145,0.25383458,-0.9315071,0.8939571,9.787497,0.22505496,-0.35913026
4.8139486,4.0499587,0.25383458,-0.9315071,0.8939571,9.787497,0.22505496,-0.35913026
4.8151836,4.0488377,0.23465982,-0.8835702,1.0249846,9.600749,0.1388637,-0.50278234
4.8164124,4.0477595,0.23465982,-0.8835702,1.0249846,9.600749,0.1388637,-0.50278234
4.817724,4.047675,0.21761559,-0.8409596,1.1538817,9.471462,0.05267244,-0.56982
4.8190384,4.0476074,0.21761559,-0.8409596,1.1538817,9.471462,0.05267244,-0.56982
4.820429,4.0485845,0.20270188,-0.80367535,1.2849091,9.576807,0.08140286,-0.5506664
4.8218184,4.0495467,0.20270188,-0.80367535,1.2849091,9.576807,0.08140286,-0.5506664
4.823291,4.0513864,0.18885344,-0.7706522,1.412741,9.921572,0.047884032,-0.60333884
4.8247633,4.0531874,0.18885344,-0.7706522,1.412741,9.921572,0.047884032,-0.60333884
4.826311,4.0557485,0.175005,-0.7397595,1.52992,10.180145,0.076614454,-0.641646
4.827858,4.0582504,0.175005,-0.7397595,1.52992,10.180145,0.076614454,-0.641646
4.8294663,4.0614767,0.16009131,-0.7120626,1.6321853,10.424355,0.14844051,-0.56982
4.831073,4.0646152,0.16009131,-0.7120626,1.6321853,10.424355,0.14844051,-0.56982
4.832742,4.068296,0.1451776,-0.68649626,1.7163413,10.673351,0.11492168,-0.5602432
4.834403,4.0718675,0.1451776,-0.68649626,1.7163413,10.673351,0.11492168,-0.5602432
4.836106,4.0759363,0.12919864,-0.6619952,1.7845182,10.831368,0.12449849,-0.4309563
4.837815,4.0799117,0.12919864,-0.6619952,1.7845182,10.831368,0.12449849,-0.4309563
4.839553,4.0842466,0.11215441,-0.63855934,1.8399119,10.840945,0.095768064,-0.32561144
4.8412914,4.0884666,0.11215441,-0.63855934,1.8399119,10.840945,0.095768064,-0.32561144
4.8430595,4.0929313,0.0972407,-0.6193846,1.8867836,10.788273,0.023942016,-0.2873042
4.8448324,4.0972815,0.0972407,-0.6193846,1.8867836,10.788273,0.023942016,-0.2873042
4.8466353,4.1017623,0.08552279,-0.6044709,1.9304594,10.702082,-0.047884032,-0.33997664
4.8484406,4.106124,0.08552279,-0.6044709,1.9304594,10.702082,-0.047884032,-0.33997664
4.850279,4.110546,0.075935416,-0.5980793,1.9741353,10.649409,-0.1436521,-0.4165911
4.852116,4.1148424,0.075935416,-0.5980793,1.9741353,10.649409,-0.1436521,-0.4165911
4.854,4.1191735,0.06847856,-0.5980793,2.0199416,10.477027,-0.16759412,-0.46926352
4.855942,4.1235094,0.06847856,-0.5980793,2.0199416,10.477027,-0.16759412,-0.46926352
4.8596525,4.131401,0.06315224,-0.6012751,2.0721395,10.362105,-0.2873042,-0.62249243
4.861655,4.1354923,0.058891185,-0.6076667,2.1328597,10.338163,-0.37349546,-0.7086837
4.861655,4.1354923,0.058891185,-0.6076667,2.1328597,10.338163,-0.37349546,-0.7086837
4.8637447,4.1396437,0.058891185,-0.6076667,2.1328597,10.338163,-0.37349546,-0.7086837
4.865803,4.1436205,0.055695392,-0.6151235,2.1978407,10.266336,-0.44532153,-0.78050977
4.8678637,4.147499,0.055695392,-0.6151235,2.1978407,10.266336,-0.44532153,-0.78050977
4.869995,4.1514993,0.0524996,-0.6225804,2.2734747,10.199299,-0.48841715,-0.770933
4.8721285,4.155397,0.0524996,-0.6225804,2.2734747,10.199299,-0.48841715,-0.770933
4.874351,4.1593237,0.047173277,-0.63003725,2.3586957,10.084377,-0.5506664,-0.8810662
4.876564,4.1631317,0.047173277,-0.63003725,2.3586957,10.084377,-0.5506664,-0.8810662
4.878876,4.167133,0.043977484,-0.6353636,2.4513738,9.902418,-0.59855044,-0.8571242
4.8811636,4.1709876,0.043977484,-0.6353636,2.4513738,9.902418,-0.59855044,-0.8571242
4.8835735,4.1749773,0.039716423,-0.6406899,2.5504434,9.830592,-0.7757214,-0.91937345
4.8860016,4.1788917,0.039716423,-0.6406899,2.5504434,9.830592,-0.7757214,-0.91937345
4.888511,4.182912,0.034390103,-0.6470815,2.6591003,9.758766,-0.90500826,-0.93373865
4.8910065,4.186805,0.034390103,-0.6470815,2.6591003,9.758766,-0.90500826,-0.93373865
4.8936787,4.1907406,0.02906378,-0.6534731,2.7752142,9.629479,-1.1204864,-1.1013328
4.8963437,4.194561,0.02906378,-0.6534731,2.7752142,9.629479,-1.1204864,-1.1013328
4.899177,4.198562,0.025867987,-0.6587994,2.8987849,9.533711,-1.3263878,-1.1731589
4.9020066,4.2024384,0.025867987,-0.6587994,2.8987849,9.533711,-1.3263878,-1.1731589
4.9050374,4.206665,0.025867987,-0.6630604,3.0266166,9.471462,-1.6280571,-1.1109096
4.90806,4.210726,0.025867987,-0.6630604,3.0266166,9.471462,-1.6280571,-1.1109096
4.9112754,4.215293,0.026933251,-0.66838676,3.1629703,9.346964,-1.9632454,-1.1540052
4.9145,4.2197056,0.026933251,-0.66838676,3.1629703,9.346964,-1.9632454,-1.1540052
4.9178586,4.2244554,0.031194309,-0.67477834,3.3046505,9.208099,-2.3319526,-1.1540052
4.9212184,4.229043,0.031194309,-0.67477834,3.3046505,9.208099,-2.3319526,-1.1540052
4.92474,4.2339234,0.041846953,-0.685431,3.451657,9.212888,-2.6767175,-1.0869676
4.928254,4.2386293,0.041846953,-0.685431,3.451657,9.212888,-2.6767175,-1.0869676
4.9319196,4.24347,0.05995645,-0.7003447,3.6071856,9.141062,-3.0214825,-1.1252748
4.935589,4.248152,0.05995645,-0.7003447,3.6071856,9.141062,-3.0214825,-1.1252748
4.939419,4.252946,0.08552279,-0.7205847,3.7701712,8.911219,-3.3806129,-1.163582
4.943241,4.257567,0.08552279,-0.7205847,3.7701712,8.911219,-3.3806129,-1.163582
4.9472504,4.2623935,0.120676525,-0.7482816,3.9406135,8.858546,-3.892972,-0.92895025
4.9514546,4.267279,0.120676525,-0.7482816,3.9406135,8.858546,-3.892972,-0.92895025
4.956952,4.273359,0.16541763,-0.7802395,4.1227736,7.896077,-3.9983168,-1.13964
4.96024,4.276864,0.16541763,-0.7802395,4.1227736,7.896077,-3.9983168,-1.13964
4.964093,4.28102,0.21868086,-0.82391536,4.309195,9.945514,-3.8163576,-0.7613561
4.9683475,4.2854652,0.2772704,-0.84202486,4.514791,9.308656,-3.892972,-0.79487497
4.9729137,4.290155,0.2772704,-0.84202486,4.514791,9.308656,-3.892972,-0.79487497
4.977499,4.2947035,0.2772704,-0.84202486,4.514791,8.748413,-4.003105,-0.842759
4.982292,4.299467,0.340121,-0.8377638,4.736366,8.748413,-4.003105,-0.842759
4.9919395,4.308725,0.40510213,-0.84202486,4.9558105,8.604761,-4.175488,-0.8331822
4.9919395,4.308725,0.40510213,-0.84202486,4.9558105,8.604761,-4.175488,-0.8331822
4.997097,4.3135004,0.40510213,-0.84202486,4.9558105,8.604761,-4.175488,-0.8331822
5.0023484,4.318342,0.4722138,-0.8409596,5.1922994,8.566454,-4.036624,-0.9576807
5.007595,4.3230114,0.4722138,-0.8409596,5.1922994,8.566454,-4.036624,-0.9576807
5.013078,4.327892,0.54039073,-0.83030695,5.4458323,8.695741,-3.8115692,-1.091756
5.018573,4.3326116,0.54039073,-0.83030695,5.4458323,8.695741,-3.8115692,-1.091756
5.024318,4.3375387,0.6075024,-0.8090017,5.712148,8.408437,-3.6056678,-1.2162545
5.030231,4.3424263,0.6075024,-0.8090017,5.712148,8.408437,-3.6056678,-1.2162545
5.036074,4.347354,0.6671572,-0.778109,5.983791,8.508993,-3.691859,-1.1587936
5.042027,4.3521986,0.6671572,-0.778109,5.983791,8.508993,-3.691859,-1.1587936
5.048264,4.357439,0.726812,-0.74295527,6.251172,8.719683,-3.7493198,-0.94810385
5.05457,4.3625546,0.726812,-0.74295527,6.251172,8.719683,-3.7493198,-0.94810385
5.061063,4.3678894,0.7917931,-0.70140994,6.513227,8.825027,-3.8498764,-0.92416185
5.0675225,4.3730164,0.7917931,-0.70140994,6.513227,8.825027,-3.8498764,-0.92416185
5.0742555,4.3783684,0.8621006,-0.649212,6.771021,8.844181,-3.7349546,-1.0630256
5.081805,4.3841534,0.8621006,-0.649212,6.771021,8.844181,-3.7349546,-1.0630256
5.0879574,4.388775,0.9366691,-0.5884919,7.023489,8.935161,-3.7301662,-1.3024458
5.0948954,4.3938007,0.9366691,-0.5884919,7.023489,8.935161,-3.7301662,-1.3024458
5.1020465,4.3992267,1.0123029,-0.51924974,7.273826,9.3661175,-3.8115692,-1.1875241
5.1092424,4.404502,1.0123029,-0.51924974,7.273826,9.3661175,-3.8115692,-1.1875241
5.1164074,4.409922,1.0890019,-0.43828964,7.5167065,9.5385,-3.596091,-1.1540052
5.1235886,4.4151516,1.0890019,-0.43828964,7.5167065,9.5385,-3.596091,-1.1540052
5.130974,4.4205284,1.1635704,-0.3434811,7.744673,9.433155,-3.5194764,-1.2497733
5.1383595,4.425737,1.1635704,-0.3434811,7.744673,9.433155,-3.5194764,-1.2497733
5.145936,4.4312468,1.2349432,-0.23908518,7.9630523,9.346964,-3.2992098,-1.1731589
5.1535306,4.4365883,1.2349432,-0.23908518,7.9630523,9.346964,-3.2992098,-1.1731589
5.1613092,4.4421005,1.30312,-0.12723242,8.176105,8.983045,-3.1364043,-1.3263878
5.1691046,4.447451,1.30312,-0.12723242,8.176105,8.983045,-3.1364043,-1.3263878
5.177107,4.4529915,1.3617096,-0.008988062,8.3902235,8.6574335,-2.9735985,-1.5370775
5.1851263,4.4583716,1.3617096,-0.008988062,8.3902235,8.6574335,-2.9735985,-1.5370775
5.1932974,4.4639707,1.4053855,0.10925629,8.59795,8.987833,-2.8107927,-1.484405
5.201496,4.4694133,1.4053855,0.10925629,8.59795,8.987833,-2.8107927,-1.484405
5.20984,4.47507,1.4384086,0.22963117,8.793959,9.696517,-2.9161377,-1.2545617
5.218214,4.480569,1.4384086,0.22963117,8.793959,9.696517,-2.9161377,-1.2545617
5.2267327,4.4862304,1.4629097,0.3574629,8.969727,10.117896,-2.681506,-1.1971009
5.235256,4.491719,1.4629097,0.3574629,8.969727,10.117896,-2.681506,-1.1971009
5.243925,4.4973693,1.4810193,0.50127363,9.119929,10.520123,-2.5905263,-1.2641385
5.2525992,4.5028496,1.4810193,0.50127363,9.119929,10.520123,-2.5905263,-1.2641385
5.2613745,4.50846,1.4948677,0.65467167,9.249891,10.5680065,-2.9735985,-1.3982137
5.2701807,4.513921,1.4948677,0.65467167,9.249891,10.5680065,-2.9735985,-1.3982137
5.2790613,4.519508,1.5023246,0.81020033,9.352157,11.056423,-3.3135753,-1.3934253
5.287947,4.524933,1.5023246,0.81020033,9.352157,11.056423,-3.3135753,-1.3934253
5.2969046,4.5304604,1.5044551,0.9710552,9.420334,11.243171,-3.6631286,-1.6519991
5.3058677,4.535831,1.5044551,0.9710552,9.420334,11.243171,-3.6631286,-1.6519991
5.3148556,4.5412755,1.5055203,1.1319102,9.453357,11.27669,-4.060566,-1.9297266
5.3238482,4.5465693,1.5055203,1.1319102,9.453357,11.27669,-4.060566,-1.9297266
5.3328466,4.5519323,1.5065856,1.2821125,9.457618,11.133038,-4.2904096,-1.9871874
5.341859,4.5571556,1.5065856,1.2821125,9.457618,11.133038,-4.2904096,-1.9871874
5.3600144,4.5676537,1.5097814,1.4174011,9.435247,11.022904,-4.414908,-1.9919758
5.3600144,4.5676537,1.5097814,1.4174011,9.435247,11.022904,-4.414908,-1.9919758
5.3600144,4.5676537,1.5097814,1.4174011,9.435247,11.022904,-4.414908,-1.9919758
5.3600144,4.5676537,1.5097814,1.4174011,9.435247,11.022904,-4.414908,-1.9919758
5.3600144,4.5676537,1.5097814,1.4174011,9.435247,11.022904,-4.414908,-1.9919758
5.403623,4.5917993,1.552392,1.7369804,9.2424345,11.109096,-3.8594532,-1.7381904
5.406636,4.5934687,1.552392,1.7369804,9.2424345,11.109096,-3.8594532,-1.7381904
5.413657,4.5973043,1.552392,1.7369804,9.2424345,11.109096,-3.8594532,-1.7381904
5.4226084,4.602264,1.5715667,1.8328542,9.146561,10.955867,-3.5434184,-1.7956513
5.4226084,4.602264,1.5715667,1.8328542,9.146561,10.955867,-3.5434184,-1.7956513
5.4423156,4.612813,1.5875456,1.9319237,9.044295,10.67814,-3.0597897,-1.8626889
5.4484344,4.6160846,1.5875456,1.9319237,9.044295,10.67814,-3.0597897,-1.8626889
5.4570274,4.620753,1.5939373,2.0363197,8.947356,10.520123,-2.8203697,-1.9680338
5.4656076,4.625312,1.5939373,2.0363197,8.947356,10.520123,-2.8203697,-1.9680338
5.474106,4.6298885,1.5864804,2.1492376,8.853613,10.43872,-2.7102363,-1.8866309
5.4826336,4.6343827,1.5864804,2.1492376,8.853613,10.43872,-2.7102363,-1.8866309
5.491086,4.6388865,1.5630445,2.2738736,8.765196,10.457873,-2.767697,-1.9871874
5.499534,4.6432934,1.5630445,2.2738736,8.765196,10.457873,-2.767697,-1.9871874
5.5079613,4.6477284,1.520434,2.4112928,8.68104,10.400413,-2.9831753,-2.0685902
5.516393,4.652075,1.520434,2.4112928,8.68104,10.400413,-2.9831753,-2.0685902
5.5246334,4.656349,1.4629097,2.5593646,8.599015,10.108319,-3.3135753,-2.2218192
5.5329437,4.660573,1.4629097,2.5593646,8.599015,10.108319,-3.3135753,-2.2218192
5.541212,4.6647906,1.3947328,2.7170236,8.520185,9.586384,-3.9121256,-2.384625
5.5494766,4.6689215,1.3947328,2.7170236,8.520185,9.586384,-3.9121256,-2.384625
5.557668,4.6730223,1.3169686,2.8810744,8.449878,9.107543,-4.5537715,-2.4516625
5.565881,4.6770515,1.3169686,2.8810744,8.449878,9.107543,-4.5537715,-2.4516625
5.5740566,4.681062,1.2328126,3.0429945,8.382766,8.815451,-5.185841,-2.384625
5.582237,4.6849947,1.2328126,3.0429945,8.382766,8.815451,-5.185841,-2.384625
5.5903635,4.688895,1.1465262,3.197458,8.31672,8.475474,-5.7748146,-2.1021092
5.598502,4.692724,1.1465262,3.197458,8.31672,8.475474,-5.7748146,-2.1021092
5.6065907,4.6965065,1.0602398,3.3433993,8.246412,8.049306,-6.2823853,-1.982399
5.614682,4.7002153,1.0602398,3.3433993,8.246412,8.049306,-6.2823853,-1.982399
5.6227317,4.70387,0.9728881,3.4691005,8.1675825,7.560889,-6.8569937,-1.6376339
5.6307845,4.707454,0.9728881,3.4691005,8.1675825,7.560889,-6.8569937,-1.6376339
5.6387677,4.710952,0.88766694,3.5756269,8.083426,6.9144545,-7.4124484,-1.2593501
5.646792,4.7143993,0.88766694,3.5756269,8.083426,6.9144545,-7.4124484,-1.2593501
5.654785,4.717743,0.8099026,3.656587,8.005663,6.090849,-7.824251,-0.9768343
5.662776,4.7210217,0.8099026,3.656587,8.005663,6.090849,-7.824251,-0.9768343
5.6708407,4.7242365,0.7417257,3.7087848,7.935355,5.171476,-8.279149,-0.51235914
5.678899,4.7273808,0.7417257,3.7087848,7.935355,5.171476,-8.279149,-0.51235914
5.686956,4.7304792,0.6852667,3.7386122,7.882092,4.1946416,-8.504205,-0.30645782
5.6950536,4.733526,0.6852667,3.7386122,7.882092,4.1946416,-8.504205,-0.30645782
5.711219,4.7394404,0.6405256,3.7428734,7.851199,3.490746,-8.78672,0.05267244
5.711219,4.7394404,0.6405256,3.7428734,7.851199,3.490746,-8.78672,0.05267244
5.7193704,4.7423143,0.6075024,3.7236986,7.838416,3.0933087,-9.275137,0.37349546
5.727702,4.7451897,0.58832765,3.6874795,7.845873,2.9257145,-9.56723,0.6464345
5.7356577,4.747852,0.58832765,3.6874795,7.845873,2.9257145,-9.56723,0.6464345
5.7436056,4.7504587,0.58832765,3.6874795,7.845873,2.9257145,-9.56723,0.6464345
5.751735,4.7530293,0.58406657,3.6427386,7.87357,2.5091233,-9.753978,0.6607997
5.7598896,4.7555556,0.58406657,3.6427386,7.87357,2.5091233,-9.753978,0.6607997
5.7680774,4.758,0.58832765,3.595867,7.9161806,2.0015526,-9.864111,0.60333884
5.776298,4.7604046,0.58832765,3.595867,7.9161806,2.0015526,-9.864111,0.60333884
5.7845745,4.762739,0.6000455,3.5468647,7.97477,1.5275006,-9.92636,0.5267244
5.7928505,4.7650266,0.6000455,3.5468647,7.97477,1.5275006,-9.92636,0.5267244
5.801217,4.7672577,0.61282873,3.4946668,8.045077,0.9720459,-9.940725,0.5315128
5.809582,4.769443,0.61282873,3.4946668,8.045077,0.9720459,-9.940725,0.5315128
5.818035,4.771572,0.6245466,3.4435341,8.130299,0.5363012,-9.844957,0.56982
5.8264947,4.7736597,0.6245466,3.4435341,8.130299,0.5363012,-9.844957,0.56982
5.83505,4.775688,0.6320035,3.3934667,8.224042,-0.1388637,-9.825804,0.56982
5.8436117,4.777677,0.6320035,3.3934667,8.224042,-0.1388637,-9.825804,0.56982
5.8522687,4.779603,0.63306874,3.3444645,8.327373,-0.7086837,-9.691729,0.61291564
5.860949,4.7814956,0.63306874,3.3444645,8.327373,-1.3311762,-9.519346,0.5506664
5.8697386,4.783319,0.62880766,3.2965276,8.444551,-1.3311762,-9.519346,0.5506664
5.8785334,4.785107,0.62880766,3.2965276,8.444551,-1.3311762,-9.519346,0.5506664
5.8874454,4.7868214,0.618155,3.2475255,8.571318,-1.9153614,-9.390059,0.47405192
5.896381,4.788505,0.618155,3.2475255,8.571318,-1.9153614,-9.390059,0.47405192
5.905436,4.7901125,0.6032413,3.1985233,8.709803,-2.5713725,-9.198523,0.39264908
5.9145136,4.79169,0.6032413,3.1985233,8.709803,-2.5713725,-9.198523,0.39264908
5.9237185,4.7931857,0.58193606,3.1431293,8.857874,-3.2130187,-9.054871,0.34476504
5.932983,4.7946596,0.58193606,3.1431293,8.857874,-3.2130187,-9.054871,0.34476504
5.942352,4.7960367,0.55210865,3.0802789,9.011272,-3.8163576,-8.944737,0.22026655
5.9515924,4.797366,0.55210865,3.0802789,9.011272,-3.8163576,-8.944737,0.22026655
5.9611135,4.7986183,0.5190854,3.0099714,9.173192,-4.3143516,-8.829816,-0.047884032
5.970771,4.79986,0.5190854,3.0099714,9.173192,-4.3143516,-8.829816,-0.047884032
5.9804683,4.800989,0.48180118,2.9268808,9.342569,-4.582502,-8.829816,-0.15801731
5.990168,4.8020916,0.48180118,2.9268808,9.342569,-4.582502,-8.829816,-0.15801731
6.000022,4.8030972,0.44664744,2.8331375,9.513012,-4.6495395,-8.935161,-0.31124622
6.009868,4.8040776,0.44664744,2.8331375,9.513012,-4.6495395,-8.935161,-0.31124622
6.019912,4.8049746,0.41895056,2.7266111,9.678128,-4.357447,-9.097966,-0.36870706
6.030007,4.805854,0.41895056,2.7266111,9.678128,-4.357447,-9.097966,-0.36870706
6.040137,4.806639,0.39658,2.6104972,9.833656,-3.7684734,-9.370906,-0.521936
6.050339,4.8074102,0.39658,2.6104972,9.833656,-3.7684734,-9.370906,-0.521936
6.0605793,4.808113,0.38379684,2.4954486,9.9732065,-2.719813,-9.639056,-0.21068975
6.0708714,4.8088,0.38379684,2.4954486,9.9732065,-2.719813,-9.639056,-0.21068975
6.0812745,4.809432,0.3784705,2.3846612,10.086124,-1.8291701,-10.093954,-0.19153613
6.091667,4.8100457,0.3784705,2.3846612,10.086124,-1.8291701,-10.093954,-0.19153613
6.102148,4.8106127,0.38060105,2.2855916,10.17028,-1.388637,-10.309433,-0.4357447
6.1126175,4.811163,0.38060105,2.2855916,10.17028,-1.388637,-10.309433,-0.4357447
6.1231203,4.811672,0.38379684,2.1971745,10.225674,-0.6655881,-10.673351,-0.50278234
6.1336102,4.8121653,0.38379684,2.1971745,10.225674,-0.6655881,-10.673351,-0.50278234
6.1441264,4.812627,0.3848621,2.1204755,10.255501,0.11492168,-10.960655,-0.2681506
6.1546283,4.813072,0.3848621,2.1204755,10.255501,0.11492168,-10.960655,-0.2681506
6.165096,4.813493,0.39018843,2.053364,10.258697,0.8379706,-11.286267,0.090979666
6.175544,4.813899,0.39018843,2.053364,10.258697,0.8379706,-11.286267,0.090979666
6.1858807,4.814304,0.39871055,2.0011659,10.234196,1.6711528,-11.7268,0.5506664
6.196184,4.8147025,0.39871055,2.0011659,10.234196,1.6711528,-11.7268,0.5506664
6.206385,4.8151636,0.41149372,1.9628165,10.179868,2.6527755,-12.382812,0.9768343
6.2165756,4.815616,0.41149372,1.9628165,10.179868,2.6527755,-12.382812,0.9768343
6.2266827,4.8160825,0.4359948,1.9415112,10.097842,3.0214825,-12.689269,0.93373865
6.2367797,4.8165407,0.4359948,1.9415112,10.097842,3.0214825,-12.689269,0.93373865
6.246779,4.8170505,0.47327906,1.9297932,9.981729,3.9935284,-13.278243,1.3790601
6.2567687,4.8175507,0.47327906,1.9297932,9.981729,3.9935284,-13.278243,1.3790601
6.2665825,4.8180976,0.521216,1.9223363,9.823004,4.759673,-14.020445,1.7381904
6.2764363,4.818638,0.521216,1.9223363,9.823004,4.759673,-14.020445,1.7381904
0.0028845135,4.8192325,0.5830013,1.9255322,9.619538,5.5880666,-14.676456,1.9728222
0.012499669,4.819817,0.5830013,1.9255322,9.619538,5.5880666,-14.676456,1.9728222
0.02190657,4.8204784,0.6639614,1.9383154,9.368135,6.6606693,-15.150508,2.2361844
0.031173196,4.8211207,0.6639614,1.9383154,9.368135,6.6606693,-15.150508,2.2361844
0.04025077,4.821852,0.7534436,1.9564248,9.060274,7.3310456,-15.50485,2.4660277
0.049474392,4.8225865,0.7534436,1.9564248,9.060274,7.3310456,-15.50485,2.4660277
0.058204386,4.8233995,0.84505635,1.9713385,8.684237,8.307879,-15.375564,3.193865
0.06688291,4.8241987,0.84505635,1.9713385,8.684237,8.307879,-15.375564,3.193865
0.075175814,4.8250775,0.9217554,1.9862523,8.233629,8.887277,-14.982914,4.2185836
0.08347794,4.8259478,0.9217554,1.9862523,8.233629,8.887277,-14.982914,4.2185836
0.091265894,4.8268623,0.9718228,2.008623,7.705258,8.963891,-14.4370365,5.209783
0.099031344,4.827766,0.9718228,2.008623,7.705258,8.963891,-14.4370365,5.209783
0.10621748,4.8286753,0.9878018,2.0395155,7.1151013,8.207323,-13.690045,5.995081
0.11343321,4.82958,0.9878018,2.0395155,7.1151013,8.207323,-13.690045,5.995081
0.12002734,4.8304486,0.96862704,2.0757344,6.491922,7.16824,-12.919112,6.229713
0.12666188,4.831314,0.96862704,2.0757344,6.491922,7.16824,-12.919112,6.229713
0.13265392,4.8321066,0.9153638,2.109823,5.855959,6.2249246,-12.315774,6.3302693
0.1386168,4.8328876,0.9153638,2.109823,5.855959,6.2249246,-12.315774,6.3302693
0.14393027,4.8335614,0.8301427,2.1364546,5.2168,5.583278,-11.664551,6.555324
0.14926574,4.8342304,0.8301427,2.1364546,5.2168,5.583278,-11.664551,6.555324
0.15400393,4.834771,0.7182899,2.1609557,4.5808372,4.9703627,-11.042058,6.540959
0.15874253,4.8353043,0.7182899,2.1609557,4.5808372,4.9703627,-11.042058,6.540959
0.16284701,4.835681,0.5861971,2.195044,3.9480703,4.2760444,-10.601525,6.2488666
0.16696006,4.836051,0.5861971,2.195044,3.9480703,4.2760444,-10.601525,6.2488666
0.17046168,4.8362503,0.43812534,2.2419157,3.3248906,3.1890767,-10.323798,5.8945246
0.17395653,4.836442,0.43812534,2.2419157,3.3248906,3.1890767,-10.323798,5.8945246
0.17687872,4.8364525,0.27833566,2.2930484,2.7198205,1.9009962,-10.16578,5.506664
0.17980066,4.8364573,0.27833566,2.2930484,2.7198205,1.9009962,-10.16578,5.506664
0.18214992,4.8362837,0.11748073,2.33992,2.1403165,0.36870706,-10.113108,5.070919
0.1845197,4.8361034,0.11748073,2.33992,2.1403165,0.36870706,-10.113108,5.070919
0.18638405,4.835748,-0.043374203,2.3729432,1.602358,-1.2114661,-10.01734,4.6160207
0.1896668,4.8348613,-0.19464175,2.3846612,1.1165974,-2.6240451,-9.959879,4.1946416
0.1896668,4.8348613,-0.19464175,2.3846612,1.1165974,-2.6240451,-9.959879,4.1946416
0.19110796,4.834323,-0.19464175,2.3846612,1.1165974,-2.6240451,-9.959879,4.1946416
0.19215773,4.833617,-0.33312613,2.3686821,0.68196946,-3.7684734,-9.849746,3.739743
0.19317682,4.832929,-0.33312613,2.3686821,0.68196946,-3.7684734,-9.849746,3.739743
0.19382092,4.8321204,-0.4566968,2.3292675,0.29634374,-4.8506527,-9.629479,3.3566709
0.19448145,4.831287,-0.4566968,2.3292675,0.29634374,-4.8506527,-9.629479,3.3566709
0.19481012,4.8303313,-0.5642885,2.267482,-0.04454088,-5.659893,-9.375694,3.1842883
0.19513346,4.829384,-0.5642885,2.267482,-0.04454088,-5.659893,-9.375694,3.1842883
0.19515745,4.8283443,-0.6612276,2.1854568,-0.34494546,-6.349423,-9.131485,2.9352913
0.19518031,4.827234,-0.6612276,2.1854568,-0.34494546,-6.349423,-9.131485,2.9352913
0.19493687,4.82615,-0.74857926,2.085322,-0.61445737,-6.885724,-8.863335,2.6910827
0.19468491,4.8250394,-0.74857926,2.085322,-0.61445737,-6.885724,-8.863335,2.6910827
0.19417872,4.823838,-0.8327352,1.9702733,-0.85520715,-7.398083,-8.719683,2.4899697
0.19366877,4.822636,-0.8327352,1.9702733,-0.85520715,-7.398083,-8.719683,2.4899697
0.19228706,4.8202767,-0.9136953,1.8445721,-1.0735863,-7.867347,-8.6095495,2.3080103
0.19215608,4.820054,-0.9136953,1.8445721,-1.0735863,-7.867347,-8.6095495,2.3080103
0.19215608,4.820054,-0.9946554,1.711414,-1.2685298,-8.461109,-8.542512,1.9201498
0.18944743,4.816271,-0.9946554,1.711414,-1.2685298,-8.461109,-8.542512,1.9201498
0.18814465,4.814685,-1.0734849,1.5676033,-1.4400374,-8.925584,-8.556877,1.5514427
0.18814465,4.814685,-1.0734849,1.5676033,-1.4400374,-8.925584,-8.556877,1.5514427
0.18673097,4.813119,-1.1491187,1.4131399,-1.5849133,-9.490616,-8.461109,1.1971009
0.18553089,4.8117948,-1.1491187,1.4131399,-1.5849133,-9.490616,-8.461109,1.1971009
0.18403374,4.8102427,-1.2215567,1.252285,-1.6999619,-9.940725,-8.513782,0.80445176
0.1825155,4.808675,-1.2215567,1.252285,-1.6999619,-9.940725,-8.513782,0.80445176
0.18119504,4.8073626,-1.2907989,1.0839733,-1.7841177,-10.328587,-8.556877,0.40222588
0.17965902,4.8058405,-1.2907989,1.0839733,-1.7841177,-10.788273,-8.700529,-0.038307227
0.17804639,4.804275,-1.3579105,0.9103352,-1.8405768,-10.788273,-8.700529,-0.038307227
0.1747714,4.8011174,-1.4186306,0.7260444,-1.8672084,-11.166556,-8.853758,-0.34955344
0.1747714,4.8011174,-1.4186306,0.7260444,-1.8672084,-11.166556,-8.853758,-0.34955344
0.17310101,4.7995167,-1.4186306,0.7260444,-1.8672084,-11.166556,-8.853758,-0.34955344
0.16971578,4.796267,-1.4740244,0.5321663,-1.8682736,-11.334151,-9.112331,-0.5506664
0.16971578,4.796267,-1.4740244,0.5321663,-1.8682736,-11.334151,-9.112331,-0.5506664
0.16803639,4.79464,-1.5230266,0.3223092,-1.8469683,-11.343728,-9.481039,-0.7086837
0.16638483,4.7930417,-1.5230266,0.3223092,-1.8469683,-11.343728,-9.481039,-0.7086837
0.16470535,4.7914,-1.5560497,0.09860365,-1.8064883,-11.104307,-9.916783,-0.7230489
0.1630502,4.7897835,-1.5560497,0.09860365,-1.8064883,-10.726024,-10.352529,-0.5410896
0.16145216,4.788211,-1.5752245,-0.13788506,-1.7521598,-10.726024,-10.352529,-0.5410896
0.1598104,4.786595,-1.5752245,-0.13788506,-1.7521598,-10.170568,-10.874464,-0.33039984
0.15824732,4.7850547,-1.5784203,-0.38502643,-1.692505,-10.170568,-10.874464,-0.33039984
0.15665314,4.7834835,-1.5784203,-0.38502643,-1.692505,-10.170568,-10.874464,-0.33039984
0.15511563,4.781984,-1.5656371,-0.6406899,-1.6328502,-9.370906,-11.386824,-0.01436521
0.15360193,4.780506,-1.5656371,-0.6406899,-1.6328502,-9.370906,-11.386824,-0.01436521
0.15066841,4.7777114,-1.536875,-0.8995491,-1.5785217,-8.379706,-11.899182,0.32561144
0.14921293,4.7763844,-1.4910686,-1.1552126,-1.5295196,-7.441179,-12.488156,0.7469909
0.14921293,4.7763844,-1.4910686,-1.1552126,-1.5295196,-7.441179,-12.488156,0.7469909
0.1476829,4.774987,-1.4910686,-1.1552126,-1.5295196,-7.441179,-12.488156,0.7469909
0.14622888,4.773734,-1.4346095,-1.4002235,-1.49117,-6.5122285,-13.10586,0.91458505
0.14479353,4.7724943,-1.3706937,-1.62819,-1.4634731,-5.5641246,-13.709199,1.1827357
0.14339207,4.7713766,-1.3706937,-1.62819,-1.4634731,-5.5641246,-13.709199,1.1827357
0.14195387,4.7702265,-1.3706937,-1.62819,-1.4634731,-5.5641246,-13.709199,1.1827357
0.1405481,4.769201,-1.3014516,-1.8369819,-1.438972,-4.7979803,-14.264654,1.3263878
0.13915512,4.768182,-1.3014516,-1.8369819,-1.438972,-4.7979803,-14.264654,1.3263878
0.13773473,4.7672567,-1.2290136,-2.026599,-1.4166015,-3.9839516,-14.705187,1.4939818
0.13634253,4.766347,-1.2290136,-2.026599,-1.4166015,-3.9839516,-14.705187,1.4939818
0.1349319,4.7655616,-1.1512493,-2.1938455,-1.3910352,-3.2369606,-15.1936035,1.7429788
0.13351902,4.764771,-1.1512493,-2.1938455,-1.3910352,-2.695871,-15.428236,1.7238252
0.13208717,4.7640905,-1.0681586,-2.3387215,-1.362273,-2.695871,-15.428236,1.7238252
0.13065664,4.7634053,-1.0681586,-2.3387215,-1.362273,-2.3654714,-15.38514,1.5610195
0.12926212,4.762841,-0.9776111,-2.4633574,-1.3271192,-2.3654714,-15.38514,1.5610195
0.12784117,4.7622614,-0.9776111,-2.4633574,-1.3271192,-1.9057846,-15.337256,1.5705963
0.12643811,4.7618027,-0.88173735,-2.570949,-1.2823782,-1.9057846,-15.337256,1.5705963
0.12501055,4.761331,-0.88173735,-2.570949,-1.2823782,-1.9057846,-15.337256,1.5705963
0.12360772,4.760967,-0.7805372,-2.6604314,-1.2248539,-1.508347,-15.08347,1.4796166
0.12222941,4.7606053,-0.7805372,-2.6604314,-1.2248539,-1.508347,-15.08347,1.4796166
0.12084019,4.760331,-0.67614126,-2.731804,-1.1598728,-1.043872,-14.753071,1.4508862
0.11948485,4.7600603,-0.67614126,-2.731804,-1.1598728,-1.043872,-14.753071,1.4508862
0.11815283,4.7598796,-0.5696148,-2.780806,-1.0863695,-0.40701428,-14.4849205,1.541866
0.11683395,4.7596974,-0.5696148,-2.780806,-1.0863695,0.07182605,-14.15452,1.5227122
0.115603864,4.7596116,-0.46415368,-2.804242,-1.0043441,0.07182605,-14.15452,1.5227122
0.11433946,4.7595196,-0.46415368,-2.804242,-1.0043441,0.07182605,-14.15452,1.5227122
0.113168076,4.759514,-0.35869247,-2.7999809,-0.9148619,0.545878,-13.613431,1.2785037
0.11201321,4.7595053,-0.35869247,-2.7999809,-0.9148619,0.545878,-13.613431,1.2785037
0.1109193,4.7595854,-0.25429657,-2.7712188,-0.81898814,1.0582372,-13.110648,1.1444284
0.109849945,4.7596602,-0.25429657,-2.7712188,-0.81898814,1.0582372,-13.110648,1.1444284
0.10885575,4.759816,-0.15522698,-2.7179556,-0.7209838,1.6567876,-12.53604,0.93373865
0.10788077,4.7599664,-0.15522698,-2.7179556,-0.7209838,1.6567876,-12.53604,0.93373865
0.10698225,4.76019,-0.05935317,-2.6412566,-0.62297946,2.111686,-11.808203,0.5363012
0.10609651,4.7604084,-0.05935317,-2.6412566,-0.62297946,2.4181437,-11.176133,0.2777274
0.105316386,4.760689,0.027998514,-2.542187,-0.53030145,2.4181437,-11.176133,0.2777274
0.10451423,4.760975,0.027998514,-2.542187,-0.53030145,2.7341783,-10.6398325,0.16280572
0.10382484,4.7613125,0.102567025,-2.4239426,-0.43975398,2.7341783,-10.6398325,0.16280572
0.10312078,4.761654,0.102567025,-2.4239426,-0.43975398,2.7341783,-10.6398325,0.16280572
0.10251636,4.7620387,0.1664829,-2.2907846,-0.3524023,2.96881,-10.208876,0.023942016
0.10193458,4.7624063,0.22081138,-2.1501696,-0.26611587,3.1555579,-9.821015,0.009576807
0.10142236,4.762829,0.22081138,-2.1501696,-0.26611587,3.1555579,-9.821015,0.009576807
0.100895874,4.763261,0.22081138,-2.1501696,-0.26611587,3.1555579,-9.821015,0.009576807
0.10046154,4.7637153,0.2655525,-2.0010326,-0.18728632,3.2561142,-9.437943,-0.10055647
0.100040935,4.7641535,0.2655525,-2.0010326,-0.18728632,3.2561142,-9.437943,-0.10055647
0.09969167,4.7646165,0.29964095,-1.8455039,-0.11165254,3.3135753,-9.203311,-0.33518824
0.099346384,4.7650723,0.29964095,-1.8455039,-0.11165254,3.3135753,-9.203311,-0.33518824
0.09908606,4.7655306,0.3252073,-1.6835837,-0.036018763,3.2609026,-8.987833,-0.521936
0.098826855,4.765985,0.3252073,-1.6835837,-0.036018763,3.2609026,-8.987833,-0.521936
0.09864978,4.7664437,0.3433168,-1.5163373,0.040680278,3.0693667,-8.805874,-0.6895301
0.09847535,4.766894,0.3433168,-1.5163373,0.040680278,3.0693667,-8.805874,-0.6895301
0.09839442,4.767329,0.35609996,-1.3501561,0.120575115,2.8682537,-8.695741,-1.0582372
0.09831277,4.767765,0.35609996,-1.3501561,0.120575115,2.8682537,-8.695741,-1.0582372
0.098326005,4.7681913,0.3646221,-1.1903664,0.20046994,2.633622,-8.643068,-1.3072342
0.09833853,4.768611,0.3646221,-1.1903664,0.20046994,2.432509,-8.738836,-1.340753
0.098443,4.769011,0.36781788,-1.0390987,0.28249532,2.432509,-8.738836,-1.340753
0.098549865,4.769422,0.36781788,-1.0390987,0.28249532,2.2936451,-8.868123,-1.3455414
0.09874377,4.7698107,0.36994842,-0.9016797,0.3634554,2.2936451,-8.868123,-1.3455414
0.098941065,4.770208,0.36994842,-0.9016797,0.3634554,2.2936451,-8.868123,-1.3455414
0.09922288,4.7705927,0.37527472,-0.77704376,0.44015446,2.1260512,-8.968679,-1.3359646
0.099500425,4.7709727,0.37527472,-0.77704376,0.44015446,2.1260512,-8.968679,-1.3359646
0.09986895,4.7713575,0.38379684,-0.67051727,0.5136577,1.9967642,-9.093178,-1.3934253
0.10022926,4.7717347,0.38379684,-0.67051727,0.5136577,1.9967642,-9.093178,-1.3934253
0.10067387,4.7721224,0.3944495,-0.5810351,0.58503044,1.8722657,-9.294291,-1.2785037
0.101109006,4.7725034,0.3944495,-0.5810351,0.58503044,1.8722657,-9.294291,-1.2785037
0.10164053,4.7728934,0.40723267,-0.5075318,0.6542726,1.6376339,-9.313444,-1.460463
0.10219009,4.7732973,0.40723267,-0.5075318,0.6542726,1.6376339,-9.313444,-1.460463
0.10280867,4.773719,0.42001584,-0.4510728,0.71605796,1.7381904,-9.375694,-1.3072342
0.10331275,4.774063,0.42001584,-0.4510728,0.71605796,1.7381904,-9.375694,-1.3072342
0.103949524,4.7744694,0.43386427,-0.40739697,0.7757127,1.8100165,-9.3661175,-1.2545617
0.10458677,4.774876,0.43386427,-0.40739697,0.7757127,1.8100165,-9.3661175,-1.2545617
0.10528471,4.775299,0.44877797,-0.36585164,0.8311065,1.8962077,-9.471462,-1.2497733
0.10597829,4.775719,0.44877797,-0.36585164,0.8311065,1.8962077,-9.471462,-1.2497733
0.106728055,4.776157,0.46688747,-0.32643688,0.8822392,1.9057846,-9.528923,-1.2258313
0.10747687,4.7765946,0.46688747,-0.32643688,0.8822392,1.9057846,-9.528923,-1.2258313
0.10827859,4.777046,0.48712748,-0.29021788,0.93230665,1.8148049,-9.452309,-1.2593501
0.1090809,4.7774982,0.48712748,-0.29021788,0.93230665,1.8148049,-9.452309,-1.2593501
0.109937005,4.777965,0.5084328,-0.25719467,0.97917825,1.7477672,-9.409213,-1.412579
0.11079293,4.778432,0.5084328,-0.25719467,0.97917825,1.7477672,-9.409213,-1.412579
0.111692116,4.778918,0.5265423,-0.22630201,1.0249846,1.8004397,-9.390059,-1.2785037
0.11259116,4.779404,0.5265423,-0.22630201,1.0249846,1.8004397,-9.390059,-1.2785037
0.11353329,4.7799077,0.54465175,-0.19540934,1.0686605,1.8866309,-9.509769,-1.2401965
0.1144752,4.7804112,0.54465175,-0.19540934,1.0686605,1.8866309,-9.509769,-1.2401965
0.11545898,4.780932,0.5648918,-0.16132088,1.1080753,1.9009962,-9.481039,-1.2689269
0.11643974,4.7814507,0.5648918,-0.16132088,1.1080753,1.9009962,-9.481039,-1.2689269
0.117457144,4.781994,0.5851318,-0.12829769,1.1410985,1.9871874,-9.437943,-1.13964
0.11847141,4.782536,0.5851318,-0.12829769,1.1410985,1.9871874,-9.437943,-1.13964
0.11950464,4.7830944,0.6000455,-0.09740501,1.1624037,2.030283,-9.26556,-0.9768343
0.12053671,4.7836523,0.6000455,-0.09740501,1.1624037,2.030283,-9.26556,-0.9768343
0.12157077,4.7842264,0.61069816,-0.06544708,1.1677301,2.1260512,-9.050082,-0.7278373
0.12260583,4.7848015,0.61069816,-0.06544708,1.1677301,2.1260512,-9.050082,-0.7278373
0.12362527,4.785383,0.6160245,-0.031358615,1.1528164,2.1643584,-8.772355,-0.59376204
0.12464259,4.785963,0.6160245,-0.031358615,1.1528164,2.1643584,-8.772355,-0.59376204
0.1256232,4.786538,0.61069816,0.003795111,1.1144669,2.15957,-8.413225,-0.48362875
0.12660079,4.7871113,0.61069816,0.003795111,1.1144669,2.15957,-8.413225,-0.48362875
0.12752345,4.787672,0.59684974,0.04107937,1.0537468,2.0015526,-8.1402855,-0.320823
0.12844518,4.7882333,0.59684974,0.04107937,1.0537468,2.0015526,-8.1402855,-0.320823
0.12929231,4.788764,0.57447916,0.08155942,0.9759825,1.7860745,-7.896077,-0.30166942
0.13013874,4.7892933,0.57447916,0.08155942,0.9759825,1.7860745,-7.896077,-0.30166942
0.13089903,4.789786,0.54252124,0.12203947,0.88436973,1.4508862,-7.675811,-0.21068975
0.1316587,4.7902775,0.54252124,0.12203947,0.88436973,1.4508862,-7.675811,-0.21068975
0.13232468,4.79072,0.5041717,0.16145425,0.7842349,1.1444284,-7.52737,-0.21068975
0.13298872,4.7911606,0.5041717,0.16145425,0.7842349,1.1444284,-7.52737,-0.21068975
0.13355854,4.791549,0.45836535,0.19767325,0.6809042,0.8714894,-7.40766,-0.16280572
0.13412744,4.7919374,0.45836535,0.19767325,0.6809042,0.8714894,-7.40766,-0.16280572
0.13459618,4.7922683,0.40723267,0.22963117,0.57863885,0.59855044,-7.3549876,-0.047884032
0.13506548,4.7925997,0.40723267,0.22963117,0.57863885,0.59855044,-7.3549876,-0.047884032
0.13544264,4.7928658,0.35609996,0.25839332,0.47637343,0.3878607,-7.3166804,-0.10055647
0.13582,4.793132,0.35609996,0.25839332,0.47637343,0.3878607,-7.3166804,-0.10055647
0.13610575,4.793337,0.30603254,0.28076386,0.37517333,0.16759412,-7.369353,-0.10055647
0.13639073,4.793541,0.30603254,0.28076386,0.37517333,0.16759412,-7.369353,-0.10055647
0.13658962,4.793688,0.25703037,0.29887336,0.27823424,-0.05746084,-7.417237,-0.05746084
0.13678792,4.793835,0.25703037,0.29887336,0.27823424,-0.05746084,-7.417237,-0.05746084
0.13690504,4.793922,0.20802821,0.31059128,0.18342571,-0.22026655,-7.4986396,-0.090979666
0.13702212,4.7940087,0.20802821,0.31059128,0.18342571,-0.22026655,-7.4986396,-0.090979666
0.137063,4.7940416,0.16115656,0.31804812,0.09607403,-0.37349546,-7.536947,-0.07182605
0.13710365,4.794075,0.16115656,0.31804812,0.09607403,-0.37349546,-7.536947,-0.07182605
0.13707866,4.794053,0.1153502,0.32017866,0.010852873,-0.5506664,-7.6949644,-0.11971009
0.13705377,4.7940316,0.1153502,0.32017866,0.010852873,-0.5506664,-7.6949644,-0.11971009
0.13696556,4.7939625,0.07273962,0.31698287,-0.07010722,-0.7374141,-7.819463,-0.095768064
0.13687763,4.793893,0.07273962,0.31698287,-0.07010722,-0.7374141,-7.819463,-0.095768064
0.1366097,4.79368,0.031194309,0.3063302,-0.14680627,-0.91458505,-7.8865004,-0.11971009
0.13658665,4.793662,0.031194309,0.3063302,-0.14680627,-0.91458505,-7.8865004,-0.11971009
0.13566354,4.7929616,-0.041243672,0.27224174,-0.27357274,-1.1300632,-8.12592,-0.21068975
0.13566354,4.7929616,-0.041243672,0.27224174,-0.27357274,-1.1300632,-8.12592,-0.21068975
0.13566354,4.7929616,-0.041243672,0.27224174,-0.27357274,-1.1300632,-8.12592,-0.21068975
0.13566354,4.7929616,-0.041243672,0.27224174,-0.27357274,-1.1300632,-8.12592,-0.21068975
0.1354561,4.792808,-0.07426687,0.24880594,-0.3257707,-1.2593501,-8.250419,-0.19153613
0.13517359,4.792599,-0.07426687,0.24880594,-0.3257707,-1.2593501,-8.250419,-0.19153613
0.13455719,4.7921515,-0.104094274,0.22430485,-0.36838126,-1.292869,-8.331821,-0.21547815
0.13447867,4.792094,-0.104094274,0.22430485,-0.36838126,-1.292869,-8.331821,-0.21547815
0.13416275,4.7918673,-0.13072589,0.19767325,-0.40140447,-1.3024458,-8.494628,-0.1436521
0.13379832,4.7916045,-0.13072589,0.19767325,-0.40140447,-1.3024458,-8.494628,-0.1436521
0.13340424,4.7913237,-0.15203118,0.17104164,-0.4269708,-1.2976574,-8.513782,-0.20111294
0.13301083,4.7910433,-0.15203118,0.17104164,-0.4269708,-1.2976574,-8.513782,-0.20111294
0.13259241,4.7907453,-0.1722712,0.14441001,-0.4482761,-1.2880806,-8.623915,-0.1340753
0.13217433,4.790448,-0.1722712,0.14441001,-0.4482761,-1.2880806,-8.623915,-0.1340753
0.13171974,4.790136,-0.18931544,0.118843675,-0.46851614,-1.163582,-8.580819,-0.062249243
0.13125934,4.7898197,-0.18931544,0.118843675,-0.46851614,-1.163582,-8.580819,-0.062249243
0.13077612,4.789497,-0.20635967,0.09647312,-0.48875615,-1.0726024,-8.513782,0.038307227
0.13029015,4.789172,-0.20635967,0.09647312,-0.48875615,-1.0726024,-8.513782,0.038307227
0.12975451,4.788833,-0.22446916,0.07836362,-0.516453,-0.9768343,-8.446744,0.18674773
0.12921911,4.7884936,-0.22446916,0.07836362,-0.516453,-0.9768343,-8.446744,0.18674773
0.12866332,4.7881336,-0.24577445,0.062384658,-0.5505415,-1.0390835,-8.432379,0.17238252
0.12810837,4.787773,-0.24577445,0.062384658,-0.5505415,-1.0390835,-8.432379,0.17238252
0.1275466,4.787393,-0.26921028,0.045340426,-0.58676046,-1.13964,-8.365341,0.32561144
0.12698649,4.787013,-0.26921028,0.045340426,-0.58676046,-1.13964,-8.365341,0.32561144
0.12637118,4.7866116,-0.29158083,0.028296193,-0.62297946,-1.0726024,-8.322245,0.37828386
0.12575802,4.78621,-0.29158083,0.028296193,-0.62297946,-1.0726024,-8.322245,0.37828386
0.12505662,4.7857914,-0.31395137,0.011251962,-0.661329,-0.9576807,-8.42759,0.37828386
0.12435814,4.785374,-0.31395137,0.011251962,-0.661329,-0.9576807,-8.42759,0.37828386
0.12358357,4.784947,-0.3341914,-0.005792269,-0.7050048,-0.90979666,-8.552089,0.4309563
0.12281652,4.784523,-0.3341914,-0.005792269,-0.7050048,-0.90979666,-8.552089,0.4309563
0.122013606,4.7840657,-0.35549667,-0.017510178,-0.7476154,-0.93852705,-8.695741,0.37828386
0.12121714,4.783611,-0.35549667,-0.017510178,-0.7476154,-0.93852705,-8.695741,0.37828386
0.120377265,4.783141,-0.37254092,-0.028162822,-0.7880955,-0.9720459,-8.748413,0.45489833
0.11953989,4.782671,-0.37254092,-0.028162822,-0.7880955,-0.9720459,-8.748413,0.45489833
0.11871499,4.7821794,-0.38958514,-0.03881547,-0.8253797,-1.0582372,-8.781932,0.39264908
0.117893405,4.781687,-0.38958514,-0.03881547,-0.8253797,-1.0582372,-8.781932,0.39264908
0.11707941,4.781186,-0.40449885,-0.047337584,-0.85946816,-1.1827357,-8.748413,0.30645782
0.116266355,4.780686,-0.40449885,-0.047337584,-0.85946816,-1.1827357,-8.748413,0.30645782
0.115445055,4.7801743,-0.42260835,-0.0558597,-0.88716507,-1.3120226,-8.748413,0.21547815
0.11462397,4.7796626,-0.42260835,-0.0558597,-0.88716507,-1.3120226,-8.748413,0.21547815
0.11379809,4.7791414,-0.4396526,-0.062251285,-0.9074051,-1.4317327,-8.710106,0.17238252
0.1121382,4.7780876,-0.4566968,-0.0707734,-0.9223188,-1.5035586,-8.66701,0.16280572
0.1121382,4.7780876,-0.4566968,-0.0707734,-0.9223188,-1.5035586,-8.66701,0.16280572
0.1108604,4.7772703,-0.4748063,-0.08036078,-0.9308409,-1.532289,-8.743625,0.033518825
0.11046033,4.7770095,-0.4748063,-0.08036078,-0.9308409,-1.532289,-8.743625,0.033518825
0.10961231,4.7764564,-0.4748063,-0.08036078,-0.9308409,-1.532289,-8.743625,0.033518825
0.10877992,4.7759132,-0.4748063,-0.08036078,-0.9308409,-1.508347,-8.781932,0.01436521
0.107926495,4.7753415,-0.49398106,-0.08994816,-0.9340367,-1.508347,-8.781932,0.01436521
0.10707353,4.7747693,-0.51209056,-0.10166607,-0.9329714,-1.4508862,-8.858546,0.009576807
0.10621446,4.7741776,-0.51209056,-0.10166607,-0.9329714,-1.4508862,-8.858546,0.009576807
0.10535498,4.7735853,-0.53020006,-0.11338398,-0.9276451,-1.4269443,-8.968679,0.038307227
0.10450151,4.772978,-0.53020006,-0.11338398,-0.9276451,-1.4269443,-8.968679,0.038307227
0.10364785,4.7723694,-0.5472443,-0.12723242,-0.9169925,-1.2880806,-9.088389,0.019153614
0.10278525,4.7717385,-0.5472443,-0.12723242,-0.9169925,-1.2880806,-9.088389,0.019153614
0.101922594,4.7711067,-0.5589622,-0.14321138,-0.9042093,-1.2258313,-9.227253,0.033518825
0.10106438,4.770464,-0.5589622,-0.14321138,-0.9042093,-1.2258313,-9.227253,0.033518825
0.10020627,4.76982,-0.56641906,-0.16132088,-0.89142615,-1.0869676,-9.313444,0.1388637
0.09934475,4.7691684,-0.56641906,-0.16132088,-0.89142615,-1.0869676,-9.313444,0.1388637
0.098484784,4.7685165,-0.5717454,-0.17836511,-0.87544715,-0.9576807,-9.433155,0.14844051
0.09677315,4.767228,-0.5717454,-0.17836511,-0.87544715,-0.9576807,-9.433155,0.14844051
0.09588549,4.766571,-0.57281065,-0.19540934,-0.8562724,-0.842759,-9.557653,0.16280572
0.09588549,4.766571,-0.57281065,-0.19540934,-0.8562724,-0.842759,-9.557653,0.16280572
0.09495547,4.765881,-0.57281065,-0.19540934,-0.8562724,-0.6991069,-9.65821,0.15801731
0.09405443,4.765235,-0.5696148,-0.20925778,-0.8349671,-0.6991069,-9.65821,0.15801731
0.093155414,4.7645884,-0.5696148,-0.20925778,-0.8349671,-0.6991069,-9.65821,0.15801731
0.092243806,4.7639527,-0.5653538,-0.22097568,-0.81259656,-0.62249243,-9.753978,0.22026655
0.09133652,4.763319,-0.5653538,-0.22097568,-0.81259656,-0.62249243,-9.753978,0.22026655
0.09045333,4.7627025,-0.5578969,-0.2294978,-0.7891607,-0.5746084,-9.844957,0.21068975
0.0895661,4.762083,-0.5578969,-0.2294978,-0.7891607,-0.5746084,-9.844957,0.21068975
0.088678606,4.761493,-0.5493748,-0.23588939,-0.76252913,-0.3878607,-9.878476,0.23942018
0.087788366,4.760902,-0.5493748,-0.23588939,-0.76252913,-0.3878607,-9.878476,0.23942018
0.08691639,4.7603383,-0.53872216,-0.23908518,-0.7348322,-0.29688102,-9.974244,0.2873042
0.08603642,4.7597694,-0.53872216,-0.23908518,-0.7348322,-0.29688102,-9.974244,0.2873042
0.0851809,4.759241,-0.525939,-0.24015045,-0.70820063,-0.15322891,-10.031705,0.36870706
0.08432879,4.7587156,-0.525939,-0.24015045,-0.70820063,-0.15322891,-10.031705,0.36870706
0.083496414,4.758203,-0.51209056,-0.23801991,-0.6847648,-0.062249243,-10.0987425,0.36391866
0.082664736,4.7576914,-0.51209056,-0.23801991,-0.6847648,-0.062249243,-10.0987425,0.36391866
0.081851155,4.757202,-0.49824214,-0.2326936,-0.6623943,0.019153614,-10.151415,0.4165911
0.081040025,4.7567143,-0.49824214,-0.2326936,-0.6623943,0.019153614,-10.151415,0.4165911
0.08024953,4.7562428,-0.48545894,-0.22736728,-0.64108896,0.047884032,-10.160992,0.4357447
0.07945917,4.755771,-0.48545894,-0.22736728,-0.64108896,0.047884032,-10.160992,0.4357447
0.07868992,4.755324,-0.46947998,-0.21884516,-0.6219142,0.10534488,-10.199299,0.48362875
0.07791921,4.754876,-0.46947998,-0.21884516,-0.6219142,0.10534488,-10.199299,0.48362875
0.07716831,4.754445,-0.45350102,-0.20712726,-0.6038047,0.14844051,-10.199299,0.49320555
0.076417685,4.7540154,-0.45350102,-0.20712726,-0.6038047,0.14844051,-10.199299,0.49320555
0.075686485,4.753599,-0.4396526,-0.19540934,-0.5856952,0.17238252,-10.25676,0.49799395
0.07495407,4.7531834,-0.4396526,-0.19540934,-0.5856952,0.17238252,-10.25676,0.49799395
0.074240126,4.75278,-0.42580414,-0.17943038,-0.56865096,0.17238252,-10.19451,0.48841715
0.073526345,4.752377,-0.42580414,-0.17943038,-0.56865096,0.17238252,-10.19451,0.48841715
0.07283305,4.7519903,-0.41302097,-0.16451667,-0.5505415,0.22026655,-10.266336,0.521936
0.07213863,4.751604,-0.41302097,-0.16451667,-0.5505415,0.22026655,-10.266336,0.521936
0.07146303,4.7512274,-0.4002378,-0.14960296,-0.532432,0.20111294,-10.290278,0.50278234
0.070788436,4.7508516,-0.4002378,-0.14960296,-0.532432,0.20111294,-10.290278,0.50278234
0.07012951,4.750477,-0.38958514,-0.13468927,-0.5143225,0.22505496,-10.242394,0.4405331
0.06947128,4.7501025,-0.38958514,-0.13468927,-0.5143225,0.22505496,-10.242394,0.4405331
0.0688353,4.7497473,-0.37786725,-0.11977556,-0.49514773,0.30645782,-10.290278,0.50278234
0.06819818,4.7493925,-0.37786725,-0.11977556,-0.49514773,0.30645782,-10.290278,0.50278234
0.067578726,4.7490425,-0.36827987,-0.10166607,-0.47810352,0.35434186,-10.251971,0.47884035
0.06695997,4.748694,-0.36827987,-0.10166607,-0.47810352,0.35434186,-10.251971,0.47884035
0.06635668,4.748355,-0.35656196,-0.08355658,-0.46212456,0.33039984,-10.223241,0.46926352
0.065760106,4.7480197,-0.35656196,-0.08355658,-0.46212456,0.33039984,-10.223241,0.46926352
0.06517628,4.7476974,-0.3459093,-0.06757761,-0.44721085,0.29688102,-10.271125,0.50278234
0.06458329,4.7473702,-0.3459093,-0.06757761,-0.44721085,0.29688102,-10.271125,0.50278234
0.06401452,4.747059,-0.3341914,-0.05372917,-0.4312319,0.32561144,-10.184934,0.50278234
0.0634477,4.746749,-0.3341914,-0.05372917,-0.4312319,0.32561144,-10.184934,0.50278234
0.062896386,4.746448,-0.3224735,-0.03988073,-0.41418764,0.32561144,-10.093954,0.48841715
0.06234355,4.7461467,-0.3224735,-0.03988073,-0.41418764,0.32561144,-10.093954,0.48841715
0.061805695,4.7458405,-0.31075558,-0.026032293,-0.39820868,0.34955344,-10.0748005,0.36391866
0.06126615,4.745534,-0.31075558,-0.026032293,-0.39820868,0.34955344,-10.0748005,0.36391866
0.060744192,4.7452416,-0.30010295,-0.01324912,-0.38222972,0.32561144,-10.079589,0.3878607
0.060222756,4.74495,-0.30010295,-0.01324912,-0.38222972,0.32561144,-10.079589,0.3878607
0.05971889,4.744658,-0.29051554,-0.00046594674,-0.36518547,0.35913026,-10.065224,0.320823
0.05921045,4.7443643,-0.29051554,-0.00046594674,-0.36518547,0.35913026,-10.065224,0.320823
0.05872241,4.7440815,-0.2798629,0.011251962,-0.3492065,0.4309563,-10.01734,0.30645782
0.058233373,4.7437987,-0.2798629,0.011251962,-0.3492065,0.4309563,-10.01734,0.30645782
0.057765823,4.7435293,-0.2713408,0.0251004,-0.3321623,0.46926352,-10.041282,0.33518824
0.057295043,4.7432594,-0.2713408,0.0251004,-0.3321623,0.46926352,-10.041282,0.33518824
0.056833096,4.742998,-0.26388395,0.038948838,-0.31618333,0.4357447,-10.055647,0.3878607
0.05639028,4.7427487,-0.25536183,0.052797277,-0.30126962,0.39743748,-10.141838,0.39264908
0.055515222,4.742256,-0.25536183,0.052797277,-0.30126962,0.39743748,-10.141838,0.39264908
0.055515222,4.742256,-0.25536183,0.052797277,-0.30126962,0.39743748,-10.127473,0.37828386
0.055092182,4.7420144,-0.24790499,0.06771098,-0.2863559,0.39743748,-10.127473,0.37828386
0.054669533,4.7417736,-0.24790499,0.06771098,-0.2863559,0.39743748,-10.0987425,0.41180268
0.054265972,4.7415485,-0.2383176,0.08049415,-0.26931167,0.31603462,-10.0987425,0.41180268
0.053861663,4.7413235,-0.2383176,0.08049415,-0.26931167,0.31603462,-10.0987425,0.41180268
0.053478077,4.741111,-0.22979549,0.09434259,-0.2512022,0.22026655,-10.117896,0.4213795
0.053094573,4.740899,-0.22979549,0.09434259,-0.2512022,0.22026655,-10.117896,0.4213795
0.05272788,4.74069,-0.22127336,0.10925629,-0.23309268,0.11492168,-10.13705,0.37828386
0.052361295,4.7404823,-0.22127336,0.10925629,-0.23309268,0,-10.1226845,0.34955344
0.052016627,4.7402782,-0.21488178,0.12310473,-0.2117874,0,-10.1226845,0.34955344
0.05167007,4.7400737,-0.21488178,0.12310473,-0.2117874,0,-10.1226845,0.34955344
0.051349342,4.7398815,-0.2084902,0.13801843,-0.18941684,-0.07182605,-10.079589,0.35913026
0.05102889,4.739691,-0.2084902,0.13801843,-0.18941684,-0.1436521,-10.093954,0.40222588
0.05073941,4.739524,-0.20209861,0.15186687,-0.16917682,-0.1436521,-10.093954,0.40222588
0.050448664,4.739357,-0.20209861,0.15186687,-0.16917682,-0.1436521,-10.093954,0.40222588
0.050178338,4.739191,-0.19783755,0.16358478,-0.14787152,-0.21068975,-10.132261,0.36870706
0.04990802,4.739026,-0.19783755,0.16358478,-0.14787152,-0.21068975,-10.132261,0.36870706
0.049654484,4.7388563,-0.19144596,0.17423743,-0.12550098,-0.36870706,-10.1226845,0.30166942
0.04940193,4.7386894,-0.19144596,0.17423743,-0.12550098,-0.36870706,-10.146626,0.45010993
0.049239296,4.7385845,-0.18398911,0.18062901,-0.104195684,-0.36870706,-10.146626,0.45010993
0.04907661,4.738479,-0.18398911,0.18062901,-0.104195684,-0.36870706,-10.146626,0.45010993
0.04893592,4.7383804,-0.17759752,0.18489006,-0.0828904,-0.40701428,-10.089166,0.3878607
0.048795406,4.7382817,-0.17759752,0.18489006,-0.0828904,-0.40701428,-10.089166,0.3878607
0.04870034,4.7381954,-0.17014067,0.1870206,-0.060519844,-0.4357447,-10.065224,0.40701428
0.048610266,4.7381124,-0.16268381,0.18595533,-0.039214555,-0.45489833,-10.084377,0.4213795
0.048555277,4.7380395,-0.16268381,0.18595533,-0.039214555,-0.45489833,-10.084377,0.4213795
0.04849942,4.7379656,-0.16268381,0.18595533,-0.039214555,-0.4357447,-10.0987425,0.521936
0.04846503,4.7379007,-0.14457433,0.18169427,0.0012654932,-0.4405331,-10.084377,0.45489833
0.048431087,4.737796,-0.14457433,0.18169427,0.0012654932,-0.4405331,-10.084377,0.45489833
0.04842851,4.7377877,-0.14457433,0.18169427,0.0012654932,-0.4405331,-10.084377,0.45489833
0.048394866,4.737682,-0.14457433,0.18169427,0.0012654932,-0.4405331,-10.084377,0.45489833
0.048397686,4.7376704,-0.13498695,0.17956375,0.020440254,-0.45489833,-10.132261,0.521936
0.04840772,4.737631,-0.13498695,0.17956375,0.020440254,-0.45489833,-10.132261,0.521936
0.048425708,4.73759,-0.1275301,0.17743322,0.040680278,-0.4165911,-10.113108,0.51235914
0.048442636,4.7375517,-0.1275301,0.17743322,0.040680278,-0.4165911,-10.113108,0.51235914
0.048441723,4.7375107,-0.11794271,0.17636795,0.059855036,-0.34955344,-10.141838,0.44532153
0.04844098,4.737472,-0.11794271,0.17636795,0.059855036,-0.34955344,-10.141838,0.44532153
0.048450954,4.737438,-0.11048587,0.17636795,0.07689927,-0.35434186,-10.127473,0.4165911
0.048464715,4.7373915,-0.11048587,0.17636795,0.07689927,-0.35434186,-10.127473,0.4165911
0.048496883,4.7373796,-0.104094274,0.17530268,0.09181297,-0.37828386,-10.117896,0.48841715
0.048547793,4.73736,-0.104094274,0.17530268,0.09181297,-0.37828386,-10.117896,0.48841715
0.048600253,4.737345,-0.09770269,0.17636795,0.10140035,-0.37349546,-10.16578,0.45968673
0.04865253,4.73733,-0.09770269,0.17636795,0.10140035,-0.37349546,-10.16578,0.45968673
0.04869064,4.737314,-0.091311105,0.17530268,0.106726676,-0.29688102,-10.127473,0.47884035
0.048728954,4.7372985,-0.091311105,0.17530268,0.106726676,-0.29688102,-10.127473,0.47884035
0.048758376,4.73728,-0.08811531,0.17317216,0.10992247,-0.25857377,-10.141838,0.46926352
0.048787504,4.7372613,-0.08811531,0.17317216,0.10992247,-0.25857377,-10.141838,0.46926352
0.048830703,4.7372527,-0.08491952,0.17104164,0.10779194,-0.22984336,-10.113108,0.5746084
0.04887352,4.7372446,-0.08491952,0.17104164,0.10779194,-0.22984336,-10.113108,0.5746084
0.048916664,4.7372384,-0.08705004,0.17104164,0.09713929,-0.24420857,-10.089166,0.6368576
0.04896029,4.737232,-0.08705004,0.17104164,0.09713929,-0.24420857,-10.089166,0.6368576
0.04901034,4.7372274,-0.091311105,0.17104164,0.08116033,-0.33997664,-10.022128,0.6560113
0.04906035,4.7372227,-0.091311105,0.17104164,0.08116033,-0.33997664,-10.022128,0.6560113
0.049105868,4.737215,-0.09663743,0.16997637,0.0609203,-0.40701428,-9.9790325,0.6607997
0.04915127,4.737207,-0.09663743,0.16997637,0.0609203,-0.40701428,-9.9790325,0.6607997
0.049190044,4.737195,-0.10196375,0.16784583,0.03854975,-0.47405192,-9.92636,0.61770403
0.04922878,4.7371836,-0.10196375,0.16784583,0.03854975,-0.47405192,-9.92636,0.61770403
0.049277052,4.7371607,-0.11048587,0.16358478,0.016179197,-0.62249243,-9.902418,0.7038953
0.04932511,4.7371383,-0.11048587,0.16358478,0.016179197,-0.62249243,-9.902418,0.7038953
0.049367342,4.7371073,-0.11581218,0.15612793,-0.0072566224,-0.6943185,-9.888053,0.6607997
0.04940955,4.7370763,-0.11581218,0.15612793,-0.0072566224,-0.6943185,-9.888053,0.6607997
0.049444553,4.7370334,-0.122203775,0.14547528,-0.03282297,-0.79008657,-9.825804,0.6512229
0.049479555,4.736991,-0.122203775,0.14547528,-0.03282297,-0.79008657,-9.825804,0.6512229
0.0495162,4.736929,-0.12859535,0.13162684,-0.058389317,-0.8858546,-9.801862,0.5602432
0.049552687,4.7368674,-0.12859535,0.13162684,-0.058389317,-0.8858546,-9.801862,0.5602432
0.04957534,4.736793,-0.13392168,0.11458261,-0.0828904,-0.9816227,-9.768343,0.5554548
0.049597908,4.736719,-0.13392168,0.11458261,-0.0828904,-0.9816227,-9.768343,0.5554548
0.04960055,4.7366376,-0.139248,0.09753838,-0.106326215,-0.9624691,-9.768343,0.51714754
0.049603198,4.736556,-0.139248,0.09753838,-0.106326215,-0.9624691,-9.768343,0.51714754
0.049602587,4.7364516,-0.14457433,0.07516783,-0.12656625,-1.0103531,-9.682152,0.4213795
0.049601763,4.736347,-0.14457433,0.07516783,-0.12656625,-0.94331545,-9.696517,0.40701428
0.049579643,4.7362423,-0.14777012,0.05173201,-0.145741,-0.94331545,-9.696517,0.40701428
0.049557563,4.7361383,-0.14777012,0.05173201,-0.145741,-0.94331545,-9.696517,0.40701428
0.04951865,4.736026,-0.15203118,0.028296193,-0.1670463,-0.9720459,-9.68694,0.38307226
0.049479514,4.735912,-0.15203118,0.028296193,-0.1670463,-0.9720459,-9.68694,0.38307226
0.049398243,4.7358184,-0.15629223,0.0048603755,-0.18728632,-0.92416185,-9.696517,0.49320555
0.049316794,4.7357254,-0.15629223,0.0048603755,-0.18728632,-0.92416185,-9.696517,0.49320555
0.04922213,4.735624,-0.15948802,-0.018575443,-0.20646107,-0.93373865,-9.65821,0.45968673
0.049127422,4.735523,-0.15948802,-0.018575443,-0.20646107,-0.93373865,-9.65821,0.45968673
0.048996545,4.7354307,-0.16481435,-0.043076526,-0.22563584,-0.866701,-9.662998,0.51235914
0.048865892,4.735339,-0.16481435,-0.043076526,-0.22563584,-0.866701,-9.662998,0.51235914
0.048718203,4.735241,-0.17014067,-0.066512346,-0.2448106,-0.8331822,-9.653421,0.47405192
0.04857048,4.7351427,-0.17014067,-0.066512346,-0.2448106,-0.8331822,-9.653421,0.47405192
0.048411455,4.735036,-0.175467,-0.08888289,-0.26185483,-0.79008657,-9.706094,0.4165911
0.048252385,4.734929,-0.175467,-0.08888289,-0.26185483,-0.79008657,-9.706094,0.4165911
0.048083786,4.7348146,-0.17972806,-0.11231872,-0.27676854,-0.6751649,-9.725247,0.33039984
0.047915082,4.7347,-0.17972806,-0.11231872,-0.27676854,-0.6751649,-9.725247,0.33039984
0.047731485,4.734581,-0.18398911,-0.133624,-0.2927475,-0.6464345,-9.744401,0.31124622
0.047547776,4.734462,-0.18398911,-0.133624,-0.2927475,-0.6464345,-9.744401,0.31124622
0.04731808,4.7343645,-0.18611965,-0.1549293,-0.3044654,-0.5793968,-9.768343,0.33518824
0.047088962,4.7342668,-0.18611965,-0.1549293,-0.3044654,-0.5793968,-9.768343,0.33518824
0.046784304,4.734185,-0.18825017,-0.17516932,-0.31511804,-0.47884035,-9.782708,0.33518824
0.046482045,4.7341027,-0.18825017,-0.17516932,-0.31511804,-0.47884035,-9.782708,0.33518824
0.04607646,4.734003,-0.19038069,-0.19221355,-0.32470542,-0.34955344,-9.782708,0.32561144
0.045673434,4.733905,-0.19038069,-0.19221355,-0.32470542,-0.34955344,-9.782708,0.32561144
0.045242537,4.7337956,-0.19251123,-0.20712726,-0.3342928,-0.24420857,-9.792285,0.37349546
0.044813134,4.7336864,-0.19251123,-0.20712726,-0.3342928,-0.24420857,-9.792285,0.37349546
0.044347707,4.733557,-0.19144596,-0.22097568,-0.34281492,-0.17717093,-9.773131,0.32561144
0.04388423,4.7334294,-0.19144596,-0.22097568,-0.34281492,-0.17717093,-9.773131,0.32561144
0.04340026,4.7332873,-0.19144596,-0.2326936,-0.35133705,-0.062249243,-9.792285,0.320823
0.042917345,4.7331467,-0.19144596,-0.2326936,-0.35133705,-0.062249243,-9.792285,0.320823
0.042428024,4.7330074,-0.18931544,-0.24228097,-0.35772863,0.076614454,-9.864111,0.36391866
0.041939594,4.732869,-0.18931544,-0.24228097,-0.35772863,0.076614454,-9.864111,0.36391866
0.041445058,4.7327356,-0.18825017,-0.2476073,-0.367316,0.17717093,-9.825804,0.41180268
0.040949974,4.732602,-0.18825017,-0.2476073,-0.367316,0.17717093,-9.825804,0.41180268
0.040438138,4.732461,-0.1871849,-0.25080308,-0.37796864,0.30645782,-9.830592,0.39743748
0.039926566,4.7323203,-0.1871849,-0.25080308,-0.37796864,0.30645782,-9.830592,0.39743748
0.039400503,4.7321725,-0.18398911,-0.24973783,-0.38755605,0.39743748,-9.864111,0.35434186
0.038874574,4.7320247,-0.18398911,-0.24973783,-0.38755605,0.39743748,-9.864111,0.35434186
0.038341776,4.731887,-0.18292385,-0.24547677,-0.39927393,0.45010993,-9.888053,0.4261679
0.037809197,4.731749,-0.18292385,-0.24547677,-0.39927393,0.45010993,-9.888053,0.4261679
0.03726261,4.7316017,-0.18079332,-0.23908518,-0.40779606,0.50757074,-9.888053,0.35434186
0.036716197,4.731455,-0.18079332,-0.23908518,-0.40779606,0.50757074,-9.888053,0.35434186
0.036166046,4.731316,-0.17972806,-0.23162833,-0.41525292,0.46926352,-9.873688,0.39743748
0.035616204,4.7311773,-0.17972806,-0.23162833,-0.41525292,0.46926352,-9.873688,0.39743748
0.0350528,4.7310305,-0.17653225,-0.21991043,-0.42377502,0.46926352,-9.859323,0.31603462
0.03448957,4.730883,-0.17653225,-0.21991043,-0.42377502,0.46926352,-9.859323,0.31603462
0.03391876,4.7307196,-0.175467,-0.20819251,-0.4269708,0.49320555,-9.816227,0.21068975
0.03334917,4.7305555,-0.175467,-0.20819251,-0.4269708,0.49320555,-9.816227,0.21068975
0.032778908,4.73039,-0.17333646,-0.19647461,-0.4269708,0.45010993,-9.821015,0.18674773
0.032208774,4.7302246,-0.17333646,-0.19647461,-0.4269708,0.45010993,-9.821015,0.18674773
0.031073794,4.729922,-0.16907541,-0.18369143,-0.4248403,0.4213795,-9.816227,0.23942018
0.031073794,4.729922,-0.16907541,-0.18369143,-0.4248403,0.4213795,-9.816227,0.23942018
0.030414565,4.7297373,-0.16481435,-0.17090826,-0.4216445,0.41180268,-9.825804,0.18195933
0.029931447,4.7296023,-0.16481435,-0.17090826,-0.4216445,0.4165911,-9.840169,0.1340753
0.029390171,4.7294436,-0.16055329,-0.15812509,-0.4120571,0.4165911,-9.840169,0.1340753
0.028840661,4.729282,-0.16055329,-0.15812509,-0.4120571,0.39264908,-9.830592,0.16759412
0.028296476,4.7291307,-0.15522698,-0.14427665,-0.40246972,0.39264908,-9.830592,0.16759412
0.027751768,4.72898,-0.15522698,-0.14427665,-0.40246972,0.39743748,-9.864111,0.110133275
0.027219525,4.728821,-0.15203118,-0.13042821,-0.39075184,0.39743748,-9.864111,0.110133275
0.026687842,4.728661,-0.15203118,-0.13042821,-0.39075184,0.4261679,-9.883265,0.1436521
0.026168583,4.72851,-0.15096591,-0.11657977,-0.37690338,0.4261679,-9.883265,0.1436521
0.025651408,4.7283587,-0.15096591,-0.11657977,-0.37690338,0.46926352,-9.940725,0.15322891
0.025145343,4.728212,-0.14777012,-0.10166607,-0.36305496,0.46926352,-9.940725,0.15322891
0.024641262,4.7280655,-0.14777012,-0.10166607,-0.36305496,0.4165911,-9.998186,0.062249243
0.024150254,4.7279043,-0.14350906,-0.08781763,-0.35133705,0.4165911,-9.998186,0.062249243
0.02364897,4.72774,-0.14350906,-0.08781763,-0.35133705,0.4165911,-9.998186,0.062249243
0.023181364,4.727585,-0.139248,-0.07290393,-0.33642334,0.36391866,-10.04607,0.06703765
0.022708116,4.727428,-0.139248,-0.07290393,-0.33642334,0.36391866,-10.04607,0.06703765
0.022245346,4.7272806,-0.13392168,-0.060120758,-0.32364017,0.37349546,-10.065224,0.08619126
0.021782106,4.727133,-0.13392168,-0.060120758,-0.32364017,0.37349546,-10.065224,0.08619126
0.021331586,4.7270074,-0.12966062,-0.04946811,-0.30872646,0.33518824,-10.070012,0.16280572
0.020882893,4.726883,-0.12966062,-0.04946811,-0.30872646,0.33518824,-10.070012,0.16280572
0.020452179,4.7267437,-0.12326904,-0.03881547,-0.29168224,0.33997664,-10.113108,0.08140286
0.020020565,4.726605,-0.12326904,-0.03881547,-0.29168224,0.33997664,-10.113108,0.08140286
0.019607203,4.7264867,-0.11794271,-0.031358615,-0.274638,0.30166942,-10.060435,0.1388637
0.019190881,4.726368,-0.11794271,-0.031358615,-0.274638,0.30166942,-10.060435,0.1388637
0.018796096,4.726254,-0.11155113,-0.0228365,-0.2565285,0.272939,-10.070012,0.12928689
0.018399691,4.72614,-0.11155113,-0.0228365,-0.2565285,0.272939,-10.070012,0.12928689
0.018019825,4.726039,-0.104094274,-0.016444914,-0.23948428,0.25378537,-10.031705,0.14844051
0.017640777,4.7259393,-0.104094274,-0.016444914,-0.23948428,0.25378537,-10.031705,0.14844051
0.017277583,4.7258406,-0.09663743,-0.008988062,-0.2235053,0.20590134,-10.007763,0.12928689
0.016913617,4.725742,-0.09663743,-0.008988062,-0.2235053,0.20590134,-10.007763,0.12928689
0.016576583,4.7256165,-0.08811531,-0.00366174,-0.20646107,0.18195933,-9.935937,0.033518825
0.01623988,4.725492,-0.08811531,-0.00366174,-0.20646107,0.18195933,-9.935937,0.033518825
0.015914373,4.7253914,-0.0795932,0.0005993177,-0.18835159,0.15801731,-9.883265,0.08140286
0.015588438,4.7252913,-0.0795932,0.0005993177,-0.18835159,0.15801731,-9.883265,0.08140286
0.015283186,4.7251854,-0.07107108,0.0027298466,-0.17343788,0.16759412,-9.825804,0.04309563
0.014977621,4.72508,-0.07107108,0.0027298466,-0.17343788,0.16759412,-9.825804,0.04309563
0.0146926325,4.7249756,-0.0614837,0.0027298466,-0.15852417,0.090979666,-9.749189,0.04309563
0.014407476,4.7248707,-0.0614837,0.0027298466,-0.15852417,0.090979666,-9.749189,0.04309563
0.014136184,4.7247715,-0.05509211,0.0016645822,-0.145741,0.095768064,-9.691729,0.038307227
0.01386436,4.7246723,-0.05509211,0.0016645822,-0.145741,0.12928689,-9.677363,0.009576807
0.013606688,4.7245727,-0.048700526,-0.00046594674,-0.13508835,0.12928689,-9.677363,0.009576807
0.013351076,4.724474,-0.048700526,-0.00046594674,-0.13508835,0.12928689,-9.677363,0.009576807
0.013091363,4.7243986,-0.043374203,-0.00366174,-0.1276315,0.15322891,-9.619903,0.047884032
0.012830791,4.7243233,-0.043374203,-0.00366174,-0.1276315,0.15322891,-9.619903,0.047884032
0.012572012,4.7242565,-0.04017841,-0.005792269,-0.123370446,0.1436521,-9.528923,0.062249243
0.012313245,4.7241907,-0.04017841,-0.005792269,-0.123370446,0.1436521,-9.528923,0.062249243
0.012055649,4.7241445,-0.03698262,-0.007922798,-0.11804412,0.1388637,-9.528923,0.095768064
0.011798031,4.7240987,-0.03698262,-0.007922798,-0.11804412,0.1388637,-9.528923,0.095768064
0.011568482,4.7240047,-0.03698262,-0.011118591,-0.11484833,0.12928689,-9.481039,-0.009576807
0.0113384565,4.7239103,-0.03698262,-0.011118591,-0.11484833,0.12928689,-9.481039,-0.009576807
0.011107275,4.7238207,-0.035917353,-0.016444914,-0.11271781,0.090979666,-9.471462,0.019153614
0.010876385,4.7237315,-0.035917353,-0.016444914,-0.11271781,0.090979666,-9.471462,0.019153614
0.010666466,4.7236238,-0.035917353,-0.021771235,-0.11165254,0.095768064,-9.409213,-0.038307227
0.010456897,4.7235165,-0.035917353,-0.021771235,-0.11165254,0.095768064,-9.409213,-0.038307227
0.009776891,4.723215,-0.03804788,-0.03455441,-0.11058728,0.07182605,-9.323022,-0.009576807
0.009776891,4.723215,-0.03804788,-0.03455441,-0.11058728,0.07182605,-9.323022,-0.009576807
0.009776891,4.723215,-0.03804788,-0.03455441,-0.11058728,0.07182605,-9.323022,-0.009576807
0.009538068,4.7230954,-0.03804788,-0.03455441,-0.11058728,0.07182605,-9.323022,-0.009576807
0.009538068,4.7230954,-0.03804788,-0.03455441,-0.11058728,0.07182605,-9.323022,-0.009576807
0.009538068,4.7230954,-0.03804788,-0.03455441,-0.11058728,0.07182605,-9.323022,-0.009576807
0.00878095,4.722677,-0.041243672,-0.051598642,-0.1159136,0.10055647,-9.313444,-0.05267244
0.0087275235,4.7226477,-0.041243672,-0.051598642,-0.1159136,0.10055647,-9.313444,-0.05267244
0.008519064,4.722536,-0.04443947,-0.06118602,-0.11910939,0.10534488,-9.23683,-0.04309563
0.008303414,4.7224207,-0.04443947,-0.06118602,-0.11910939,0.10534488,-9.23683,-0.04309563
0.008105464,4.7222905,-0.048700526,-0.07183866,-0.124435715,0.11971009,-9.222465,-0.12449849
0.007904117,4.722158,-0.048700526,-0.07183866,-0.124435715,0.11971009,-9.222465,-0.12449849
0.007679146,4.7220325,-0.05189632,-0.08355658,-0.12976204,0.18195933,-9.141062,-0.110133275
0.007454423,4.7219076,-0.05189632,-0.08355658,-0.12976204,0.18195933,-9.141062,-0.110133275
0.0072501055,4.721764,-0.056157377,-0.09740501,-0.13508835,0.14844051,-9.112331,-0.19153613
0.0070201913,4.7216024,-0.056157377,-0.09740501,-0.13508835,0.14844051,-9.112331,-0.19153613
0.0068115997,4.721485,-0.062548965,-0.110188186,-0.14254521,0.25857377,-9.141062,-0.16280572
0.006573633,4.72135,-0.062548965,-0.110188186,-0.14254521,0.25857377,-9.141062,-0.16280572
0.0063212966,4.7212105,-0.07107108,-0.121906094,-0.15000206,0.33518824,-9.14585,-0.19153613
0.0060691526,4.72107,-0.07107108,-0.121906094,-0.15000206,0.33518824,-9.14585,-0.19153613
0.0057978933,4.7209306,-0.07852793,-0.13575453,-0.15852417,0.38307226,-9.093178,-0.16280572
0.005526723,4.7207913,-0.07852793,-0.13575453,-0.15852417,0.38307226,-9.093178,-0.16280572
0.0052408674,4.7206526,-0.08491952,-0.14747244,-0.16598102,0.4261679,-9.14585,-0.1436521
0.0049550333,4.7205133,-0.08491952,-0.14747244,-0.16598102,0.4261679,-9.14585,-0.1436521
0.0046502016,4.720377,-0.093441635,-0.15705982,-0.17663367,0.50278234,-9.112331,-0.11492168
0.004345395,4.7202406,-0.093441635,-0.15705982,-0.17663367,0.50278234,-9.112331,-0.11492168
0.004024639,4.720102,-0.10089848,-0.16558194,-0.18835159,0.5506664,-9.131485,-0.10055647
0.0037047656,4.7199636,-0.10089848,-0.16558194,-0.18835159,0.5506664,-9.131485,-0.10055647
0.0033667919,4.7198343,-0.106224805,-0.17410405,-0.20006949,0.63206923,-9.126697,-0.047884032
0.003028729,4.7197046,-0.106224805,-0.17410405,-0.20006949,0.63206923,-9.126697,-0.047884032
0.0026776742,4.719566,-0.11261639,-0.18049563,-0.21391793,0.6607997,-9.169792,-0.06703765
0.0023265681,4.719427,-0.11261639,-0.18049563,-0.21391793,0.6607997,-9.169792,-0.06703765
0.001959445,4.7192836,-0.11900798,-0.18582197,-0.22776636,0.7374141,-9.217676,-0.07182605
0.0015953376,4.719141,-0.11900798,-0.18582197,-0.22776636,0.7374141,-9.217676,-0.07182605
0.0012115868,4.719008,-0.12646483,-0.19008303,-0.24268007,0.79487497,-9.299079,0.023942016
0.00082774163,4.718875,-0.12646483,-0.19008303,-0.24268007,0.79487497,-9.299079,0.023942016
0.00043058002,4.7187414,-0.13285641,-0.19221355,-0.25759378,0.82360536,-9.346964,0.05267244
3.1915697e-05,4.718608,-0.13285641,-0.19221355,-0.25759378,0.82360536,-9.346964,0.05267244
6.282797,4.7184744,-0.1360522,-0.19114828,-0.27037695,0.842759,-9.380483,0.090979666
6.2823863,4.7183437,-0.1360522,-0.19114828,-0.27037695,0.842759,-9.380483,0.090979666
6.281957,4.7182164,-0.13818274,-0.18795249,-0.28102958,0.8858546,-9.466674,0.1436521
6.281543,4.7180934,-0.13818274,-0.18795249,-0.28102958,0.8858546,-9.466674,0.1436521
6.281121,4.7179656,-0.14031327,-0.18262617,-0.2927475,0.8762778,-9.56723,0.11492168
6.28069,4.7178354,-0.14031327,-0.18262617,-0.2927475,0.92416185,-9.629479,0.17717093
6.280253,4.7177114,-0.14244379,-0.17623459,-0.30020434,0.92416185,-9.629479,0.17717093
6.2798157,4.7175875,-0.14244379,-0.17623459,-0.30020434,0.92416185,-9.629479,0.17717093
6.2793703,4.7174807,-0.14137854,-0.16558194,-0.30659592,0.866701,-9.706094,0.29688102
6.278931,4.7173758,-0.14137854,-0.16558194,-0.30659592,0.8619126,-9.768343,0.31124622
6.2785053,4.71728,-0.13818274,-0.15599456,-0.31192225,0.8619126,-9.768343,0.31124622
6.278069,4.717182,-0.13818274,-0.15599456,-0.31192225,0.866701,-9.792285,0.39264908
6.2776318,4.7170944,-0.1360522,-0.14321138,-0.3129875,0.866701,-9.792285,0.39264908
6.277204,4.7170086,-0.1360522,-0.14321138,-0.3129875,0.7182605,-9.878476,0.34476504
6.2767773,4.716929,-0.13179116,-0.13042821,-0.310857,0.7182605,-9.878476,0.34476504
6.2763505,4.7168493,-0.12646483,-0.11764504,-0.30659592,0.7086837,-9.868899,0.30166942
6.2759237,4.7167706,-0.12646483,-0.11764504,-0.30659592,0.7086837,-9.868899,0.30166942
6.2754955,4.716692,-0.121138506,-0.1037966,-0.29807383,0.60812724,-9.916783,0.25378537
6.2750764,4.716618,-0.121138506,-0.1037966,-0.29807383,0.60812724,-9.916783,0.25378537
6.274657,4.716544,-0.11474692,-0.091013424,-0.28742117,0.5315128,-9.911995,0.2825158
6.274259,4.7164884,-0.11474692,-0.091013424,-0.28742117,0.5315128,-9.911995,0.2825158
6.2738614,4.7164326,-0.107290074,-0.08036078,-0.27570325,0.5650316,-9.892841,0.25857377
6.2734694,4.716378,-0.107290074,-0.08036078,-0.27570325,0.5650316,-9.892841,0.25857377
6.2730775,4.716324,-0.09983322,-0.0707734,-0.26292008,0.49799395,-9.902418,0.25378537
6.272704,4.7162833,-0.09983322,-0.0707734,-0.26292008,0.49799395,-9.902418,0.25378537
6.2723308,4.7162423,-0.091311105,-0.06118602,-0.24907166,0.5267244,-9.921572,0.25857377
6.271971,4.716209,-0.091311105,-0.06118602,-0.24907166,0.5267244,-9.921572,0.25857377
6.2716103,4.716176,-0.08065846,-0.054794434,-0.23735374,0.5315128,-9.902418,0.31124622
6.271271,4.7161613,-0.08065846,-0.054794434,-0.23735374,0.5315128,-9.902418,0.31124622
6.270932,4.716147,-0.07000581,-0.047337584,-0.2267011,0.51714754,-9.911995,0.33997664
6.270612,4.716148,-0.07000581,-0.047337584,-0.2267011,0.51714754,-9.911995,0.33997664
6.270291,4.71615,-0.060418434,-0.04201126,-0.2149832,0.39264908,-9.816227,0.33518824
6.270003,4.7161717,-0.060418434,-0.04201126,-0.2149832,0.39264908,-9.816227,0.33518824
6.2697153,4.7161937,-0.060418434,-0.04201126,-0.2149832,0.39264908,-9.816227,0.33518824
6.2694206,4.7162166,-0.049765788,-0.036684938,-0.20006949,0.48362875,-9.811439,0.31124622
6.269127,4.716239,-0.049765788,-0.036684938,-0.20006949,0.48362875,-9.811439,0.31124622
6.2688265,4.7162547,-0.039113145,-0.031358615,-0.18622105,0.59376204,-9.888053,0.25857377
6.268526,4.716271,-0.039113145,-0.031358615,-0.18622105,0.59376204,-9.888053,0.25857377
6.26825,4.7163105,-0.03059103,-0.023901764,-0.1787642,0.45489833,-9.9790325,0.2633622
6.2679734,4.71635,-0.022068914,-0.01324912,-0.17024209,0.30645782,-9.959879,0.23942018
6.267737,4.716414,-0.022068914,-0.01324912,-0.17024209,0.30645782,-9.959879,0.23942018
6.2675004,4.7164783,-0.022068914,-0.01324912,-0.17024209,0.30645782,-9.959879,0.23942018
6.267307,4.7165585,-0.015677327,-0.0025964756,-0.15745892,0.24899697,-9.940725,0.29209262
6.267116,4.716637,-0.015677327,-0.0025964756,-0.15745892,0.24899697,-9.940725,0.29209262
6.2669387,4.7167253,-0.0071552116,0.0048603755,-0.14361048,0.22505496,-9.92636,0.22505496
6.266762,4.716814,-0.0071552116,0.0048603755,-0.14361048,0.22505496,-9.92636,0.22505496
6.2666574,4.7169123,0.001366904,0.010186698,-0.1308273,0.10055647,-9.89763,0.2681506
6.266554,4.7170105,0.001366904,0.010186698,-0.1308273,0.10055647,-9.89763,0.2681506
6.266494,4.7171073,0.0077584907,0.013382491,-0.11910939,-0.0047884034,-9.868899,0.30166942
6.2664337,4.717204,0.0077584907,0.013382491,-0.11910939,-0.0047884034,-9.868899,0.30166942
6.266407,4.717299,0.0141500775,0.01551302,-0.106326215,-0.110133275,-9.878476,0.32561144
6.266381,4.7173934,0.0141500775,0.01551302,-0.106326215,-0.110133275,-9.878476,0.32561144
6.266401,4.717473,0.020541664,0.01551302,-0.091412514,-0.20590134,-9.844957,0.24420857
6.2664213,4.717552,0.020541664,0.01551302,-0.091412514,-0.20590134,-9.844957,0.24420857
6.266455,4.7176404,0.026933251,0.012317227,-0.07436828,-0.2633622,-9.792285,0.29209262
6.266489,4.7177286,0.026933251,0.012317227,-0.07436828,-0.2633622,-9.792285,0.29209262
6.266558,4.717804,0.034390103,0.0069909045,-0.05732405,-0.35434186,-9.768343,0.22026655
6.266627,4.7178793,0.034390103,0.0069909045,-0.05732405,-0.35434186,-9.768343,0.22026655
6.266721,4.717954,0.043977484,0.0005993177,-0.03814929,-0.4165911,-9.65821,0.18674773
6.266815,4.7180285,0.043977484,0.0005993177,-0.03814929,-0.4165911,-9.65821,0.18674773
6.2669315,4.718105,0.051434334,-0.007922798,-0.017909266,-0.4309563,-9.595961,0.16280572
6.2670484,4.7181807,0.051434334,-0.007922798,-0.017909266,-0.4309563,-9.595961,0.16280572
6.267187,4.7182603,0.056760654,-0.016444914,0.0033960221,-0.45489833,-9.528923,0.15801731
6.267326,4.7183394,0.056760654,-0.016444914,0.0033960221,-0.45489833,-9.528923,0.15801731
6.2674866,4.718418,0.062086977,-0.026032293,0.023636047,-0.4357447,-9.495404,0.12928689
6.2676477,4.718497,0.062086977,-0.026032293,0.023636047,-0.4357447,-9.495404,0.12928689
6.267831,4.7185626,0.06421751,-0.037750203,0.04387607,-0.4261679,-9.375694,0.06703765
6.2680144,4.7186284,0.06421751,-0.037750203,0.04387607,-0.4261679,-9.375694,0.06703765
6.268214,4.718704,0.06315224,-0.050533377,0.061985567,-0.39743748,-9.32781,0.110133275
6.2684145,4.7187796,0.06315224,-0.050533377,0.061985567,-0.39743748,-9.32781,0.110133275
6.2686267,4.7188616,0.061021715,-0.06331655,0.07689927,-0.35434186,-9.299079,0.1388637
6.268839,4.7189436,0.061021715,-0.06331655,0.07689927,-0.35434186,-9.299079,0.1388637
6.26927,4.719125,0.05782592,-0.07396919,0.088617176,-0.24899697,-9.241618,0.16280572
6.2694964,4.719218,0.05356486,-0.08355658,0.10033509,-0.21068975,-9.241618,0.17238252
6.2694964,4.719218,0.05356486,-0.08355658,0.10033509,-0.21068975,-9.241618,0.17238252
6.2697287,4.719314,0.05356486,-0.08355658,0.10033509,-0.21068975,-9.241618,0.17238252
6.2699614,4.719406,0.049303804,-0.09420922,0.1088572,-0.18195933,-9.23683,0.17238252
6.270193,4.7194977,0.049303804,-0.09420922,0.1088572,-0.18195933,-9.23683,0.17238252
6.2704296,4.719588,0.043977484,-0.10273133,0.11524879,-0.12928689,-9.255983,0.16280572
6.2706676,4.7196784,0.043977484,-0.10273133,0.11524879,-0.12928689,-9.255983,0.16280572
6.2708745,4.7197866,0.03652063,-0.11338398,0.11524879,-0.11492168,-9.217676,0.24899697
6.2710814,4.7198954,0.03652063,-0.11338398,0.11524879,-0.11492168,-9.217676,0.24899697
6.2713,4.719986,0.02906378,-0.122971356,0.112053,-0.095768064,-9.227253,0.19153613
6.2715178,4.7200766,0.02906378,-0.122971356,0.112053,-0.095768064,-9.227253,0.19153613
6.271715,4.72017,0.020541664,-0.13149348,0.10779194,-0.06703765,-9.289502,0.21547815
6.2719126,4.720264,0.020541664,-0.13149348,0.10779194,-0.06703765,-9.289502,0.21547815
6.272071,4.7203636,0.012019549,-0.13895033,0.09926982,-0.01436521,-9.23683,0.24899697
6.2722282,4.720463,0.012019549,-0.13895033,0.09926982,-0.01436521,-9.23683,0.24899697
6.2723756,4.720552,0.001366904,-0.14853771,0.089682445,-0.038307227,-9.275137,0.2873042
6.2725263,4.720643,-0.009285741,-0.15599456,0.07796454,0,-9.260772,0.23942018
6.2726545,4.720721,-0.009285741,-0.15599456,0.07796454,0,-9.260772,0.23942018
6.272785,4.7208004,-0.019938385,-0.1634514,0.0641161,-0.07182605,-9.279925,0.24899697
6.272928,4.7208595,-0.019938385,-0.1634514,0.0641161,-0.07182605,-9.279925,0.24899697
6.27307,4.7209187,-0.031656295,-0.17090826,0.05026766,-0.033518825,-9.299079,0.30166942
6.273171,4.7209764,-0.031656295,-0.17090826,0.05026766,-0.033518825,-9.299079,0.30166942
6.2732716,4.721034,-0.043374203,-0.17836511,0.03428869,-0.033518825,-9.308656,0.20590134
6.273385,4.7210693,-0.043374203,-0.17836511,0.03428869,-0.033518825,-9.308656,0.20590134
6.2734985,4.7211046,-0.05509211,-0.1847567,0.018309724,-0.04309563,-9.337387,0.17717093
6.273613,4.7211185,-0.05509211,-0.1847567,0.018309724,-0.04309563,-9.337387,0.17717093
6.273727,4.7211323,-0.06787529,-0.19221355,0.0023307577,-0.019153614,-9.404425,0.18195933
6.273813,4.721141,-0.06787529,-0.19221355,0.0023307577,-0.019153614,-9.404425,0.18195933
6.2738976,4.7211494,-0.0795932,-0.1996704,-0.013648209,-0.023942016,-9.380483,0.12928689
6.274002,4.721119,-0.0795932,-0.1996704,-0.013648209,-0.023942016,-9.380483,0.12928689
6.274106,4.7210884,-0.091311105,-0.20819251,-0.028561912,-0.0047884034,-9.399636,0.07182605
6.2742143,4.7209806,-0.091311105,-0.20819251,-0.028561912,-0.0047884034,-9.399636,0.07182605
6.2743225,4.7208734,-0.10196375,-0.21777989,-0.041345086,0.047884032,-9.461885,0.12928689
6.274344,4.7208567,-0.10196375,-0.21777989,-0.041345086,0.047884032,-9.461885,0.12928689
6.2743645,4.720841,-0.10196375,-0.21777989,-0.041345086,0.047884032,-9.461885,0.12928689
6.2742643,4.7208223,-0.11048587,-0.22630201,-0.05412826,0.10534488,-9.476251,0.12928689
6.274171,4.720805,-0.11048587,-0.22630201,-0.05412826,0.10055647,-9.533711,0.12449849
6.274072,4.720779,-0.120073244,-0.23375887,-0.064780906,0.10055647,-9.533711,0.12449849
6.2739763,4.7207537,-0.120073244,-0.23375887,-0.064780906,0.12928689,-9.557653,0.12928689
6.273527,4.720616,-0.13392168,-0.24654204,-0.08502093,0.16280572,-9.615114,0.16759412
6.273527,4.720616,-0.13392168,-0.24654204,-0.08502093,0.16280572,-9.615114,0.16759412
6.273527,4.720616,-0.13392168,-0.24654204,-0.08502093,0.16280572,-9.615114,0.16759412
6.273236,4.7205215,-0.13392168,-0.24654204,-0.08502093,0.16280572,-9.615114,0.16759412
6.2731934,4.7205067,-0.14031327,-0.25186837,-0.093543045,0.16280572,-9.65821,0.17238252
6.2730484,4.720457,-0.14031327,-0.25186837,-0.093543045,0.16280572,-9.65821,0.17238252
6.2728596,4.720387,-0.1456396,-0.25719467,-0.10206516,0.18195933,-9.739613,0.15322891
6.2726746,4.7203183,-0.1456396,-0.25719467,-0.10206516,0.18195933,-9.739613,0.15322891
6.2726746,4.7203183,-0.1456396,-0.25719467,-0.10206516,0.18195933,-9.739613,0.15322891
6.272187,4.720126,-0.1541617,-0.26678208,-0.11697886,0.24420857,-9.854534,0.21068975
6.2720575,4.7200766,-0.1541617,-0.26678208,-0.11697886,0.24420857,-9.854534,0.21068975
6.271865,4.7200027,-0.1573575,-0.26891258,-0.122305185,0.22984336,-9.830592,0.23942018
6.2716775,4.7199297,-0.1573575,-0.26891258,-0.122305185,0.22984336,-9.830592,0.23942018
6.271491,4.7198577,-0.1573575,-0.27104312,-0.122305185,0.22505496,-9.868899,0.16280572
6.2712746,4.7197714,-0.1573575,-0.27104312,-0.122305185,0.22505496,-9.868899,0.16280572
6.2710605,4.7196865,-0.1573575,-0.27317366,-0.124435715,0.21068975,-9.873688,0.21068975
6.2708755,4.719615,-0.1573575,-0.27317366,-0.124435715,0.21068975,-9.873688,0.21068975
6.2706923,4.7195444,-0.1573575,-0.27317366,-0.12550098,0.23463176,-9.878476,0.2633622
6.2705116,4.7194743,-0.1573575,-0.27317366,-0.12550098,0.23463176,-9.878476,0.2633622
6.270329,4.7194037,-0.1573575,-0.27317366,-0.12550098,0.23463176,-9.878476,0.2633622
6.2701426,4.7193327,-0.15629223,-0.26997787,-0.124435715,0.24420857,-9.92636,0.23942018
6.2699604,4.7192636,-0.15629223,-0.26997787,-0.124435715,0.24420857,-9.92636,0.23942018
6.26977,4.7191935,-0.1541617,-0.26678208,-0.124435715,0.22505496,-9.916783,0.21068975
6.2695894,4.719126,-0.15096591,-0.26358625,-0.122305185,0.23942018,-9.916783,0.19632454
6.269399,4.7190585,-0.15096591,-0.26358625,-0.122305185,0.23942018,-9.916783,0.19632454
6.269207,4.7189903,-0.14670485,-0.26039046,-0.11910939,0.24420857,-9.89763,0.29209262
6.269043,4.718933,-0.14670485,-0.26039046,-0.11910939,0.24420857,-9.89763,0.29209262
6.268879,4.7188764,-0.14350906,-0.25399888,-0.11484833,0.25378537,-9.940725,0.272939
6.2687135,4.7188215,-0.14350906,-0.25399888,-0.11484833,0.25378537,-9.940725,0.272939
6.2685485,4.718766,-0.14137854,-0.24867256,-0.11058728,0.25857377,-9.940725,0.2681506
6.268386,4.7187133,-0.14137854,-0.24867256,-0.11058728,0.25857377,-9.940725,0.2681506
6.268224,4.7186604,-0.13818274,-0.24228097,-0.10526095,0.2777274,-9.9790325,0.2681506
6.2680607,4.7186084,-0.13818274,-0.24228097,-0.10526095,0.2777274,-9.9790325,0.2681506
6.2678986,4.7185564,-0.13498695,-0.23588939,-0.10099989,0.272939,-10.01734,0.2681506
6.267743,4.718509,-0.13498695,-0.23588939,-0.10099989,0.272939,-10.01734,0.2681506
