Pitch,Roll,Gyro_X,Gyro_Y,Gyro_Z,Accel_X,Accel_Y,Accel_Z
6.164009,4.6404343,-0.41089043,0.16145425,-0.03282297,1.2497733,-9.619903,-0.4405331
6.163933,4.640155,-0.41089043,0.16145425,-0.03282297,1.2497733,-9.619903,-0.4405331
6.1638546,4.639856,-0.4151515,0.16038899,-0.039214555,1.2306197,-9.605537,-0.4213795
6.1637845,4.6395483,-0.41941255,0.15932372,-0.043475613,1.1875241,-9.56723,-0.41180268
6.1637173,4.6392503,-0.41941255,0.15932372,-0.043475613,1.1875241,-9.56723,-0.41180268
6.1636496,4.638948,-0.41941255,0.15932372,-0.043475613,1.1875241,-9.56723,-0.41180268
6.1635814,4.6386395,-0.4236736,0.15932372,-0.050932467,1.1683705,-9.572019,-0.33039984
6.1635146,4.6383348,-0.4236736,0.15932372,-0.050932467,1.1683705,-9.572019,-0.33039984
6.16345,4.6380253,-0.42793468,0.15825845,-0.05732405,1.13964,-9.576807,-0.4165911
6.1633854,4.637715,-0.42793468,0.15825845,-0.05732405,1.13964,-9.576807,-0.4165911
6.1633263,4.637396,-0.43219572,0.15825845,-0.062650375,1.1061212,-9.619903,-0.39743748
6.163268,4.6370845,-0.43219572,0.15825845,-0.062650375,1.1061212,-9.619903,-0.39743748
6.163207,4.6367636,-0.43752205,0.1571932,-0.06904196,1.1013328,-9.619903,-0.4357447
6.1631455,4.63644,-0.43752205,0.1571932,-0.06904196,1.1013328,-9.619903,-0.4357447
6.163069,4.636118,-0.4417831,0.15506266,-0.076498814,1.1252748,-9.605537,-0.4165911
6.162991,4.6357923,-0.4417831,0.15506266,-0.076498814,1.1252748,-9.605537,-0.4165911
6.1629267,4.635462,-0.4449789,0.15293214,-0.08182514,1.0726024,-9.682152,-0.4213795
6.1628623,4.635132,-0.4449789,0.15293214,-0.08182514,1.0726024,-9.682152,-0.4213795
6.1627827,4.6347985,-0.4481747,0.14973634,-0.08608619,1.0965444,-9.648633,-0.36391866
6.1627026,4.6344657,-0.4481747,0.14973634,-0.08608619,1.0965444,-9.648633,-0.36391866
6.1626306,4.6341305,-0.44923997,0.14547528,-0.09034725,1.0726024,-9.672575,-0.4309563
6.162558,4.633795,-0.44923997,0.14547528,-0.09034725,1.0726024,-9.672575,-0.4309563
6.162472,4.633459,-0.44923997,0.14014897,-0.093543045,1.1109096,-9.65821,-0.4357447
6.162386,4.633125,-0.44923997,0.14014897,-0.093543045,1.1109096,-9.65821,-0.4357447
6.162298,4.632783,-0.4481747,0.1358879,-0.09886937,1.1109096,-9.648633,-0.51235914
6.1622124,4.6324487,-0.4481747,0.1358879,-0.09886937,1.1109096,-9.648633,-0.51235914
6.1621127,4.632116,-0.44710943,0.13162684,-0.104195684,1.1204864,-9.65821,-0.4165911
6.1620126,4.631779,-0.44710943,0.13162684,-0.104195684,1.1204864,-9.65821,-0.4165911
6.161903,4.6314526,-0.4449789,0.12630053,-0.10952201,1.1540052,-9.662998,-0.48841715
6.161792,4.6311216,-0.4449789,0.12630053,-0.10952201,1.1540052,-9.662998,-0.48841715
6.161676,4.6307936,-0.4396526,0.11990894,-0.11484833,1.1444284,-9.615114,-0.45010993
6.1615605,4.6304674,-0.4396526,0.11990894,-0.11484833,1.1444284,-9.615114,-0.45010993
6.1614475,4.6301436,-0.43539152,0.11458261,-0.1159136,1.1492168,-9.615114,-0.5554548
6.1613345,4.6298203,-0.43539152,0.11458261,-0.1159136,1.1492168,-9.615114,-0.5554548
6.161189,4.6295,-0.4300652,0.11032156,-0.120174654,1.2162545,-9.591172,-0.545878
6.1610456,4.6291814,-0.4300652,0.11032156,-0.120174654,1.2162545,-9.591172,-0.545878
6.1608887,4.6288676,-0.42260835,0.10392997,-0.12550098,1.2401965,-9.524135,-0.50278234
6.1607327,4.6285553,-0.42260835,0.10392997,-0.12550098,1.2401965,-9.524135,-0.50278234
6.1605825,4.6282454,-0.4183473,0.09966891,-0.12656625,1.2258313,-9.586384,-0.521936
6.1604333,4.6279364,-0.4183473,0.09966891,-0.12656625,1.2258313,-9.586384,-0.521936
6.1602926,4.627632,-0.41302097,0.09434259,-0.12550098,1.2018893,-9.557653,-0.5363012
6.1601524,4.627329,-0.41302097,0.09434259,-0.12550098,1.2018893,-9.557653,-0.5363012
6.159995,4.6270285,-0.40769464,0.090081535,-0.124435715,1.2497733,-9.56723,-0.5746084
6.159838,4.6267276,-0.40769464,0.090081535,-0.124435715,1.2497733,-9.56723,-0.5746084
6.1596937,4.6264334,-0.40236834,0.085820474,-0.124435715,1.2114661,-9.5385,-0.62249243
6.1595497,4.6261396,-0.40236834,0.085820474,-0.124435715,1.2114661,-9.5385,-0.62249243
6.159427,4.6258497,-0.39810726,0.08262468,-0.124435715,1.163582,-9.524135,-0.5650316
6.1593046,4.6255603,-0.39810726,0.08262468,-0.124435715,1.163582,-9.524135,-0.5650316
6.1591897,4.6252737,-0.3938462,0.07836362,-0.121239915,1.1683705,-9.533711,-0.6607997
6.1590743,4.6249866,-0.3938462,0.07836362,-0.121239915,1.1683705,-9.533711,-0.6607997
6.15898,4.624702,-0.38958514,0.074102566,-0.11910939,1.1204864,-9.533711,-0.61291564
6.1588855,4.6244173,-0.38958514,0.074102566,-0.11910939,1.1204864,-9.533711,-0.61291564
6.158827,4.62413,-0.3853241,0.07090677,-0.1159136,1.0965444,-9.5385,-0.7038953
6.158767,4.6238403,-0.3853241,0.07090677,-0.1159136,1.0965444,-9.5385,-0.7038953
6.15869,4.623561,-0.38319355,0.06877624,-0.11058728,1.115698,-9.557653,-0.6464345
6.158612,4.6232805,-0.38319355,0.06877624,-0.11058728,1.115698,-9.557653,-0.6464345
6.1585574,4.622999,-0.38106304,0.06877624,-0.10313042,1.0965444,-9.5385,-0.6847417
6.1585026,4.622717,-0.38106304,0.06877624,-0.10313042,1.0965444,-9.5385,-0.6847417
6.158475,4.62243,-0.37786725,0.06877624,-0.09460831,1.0869676,-9.548077,-0.7278373
6.158447,4.622147,-0.37786725,0.06877624,-0.09460831,1.0869676,-9.548077,-0.7278373
6.1584167,4.621867,-0.3757367,0.06771098,-0.08821672,1.0486604,-9.572019,-0.6560113
6.158386,4.621587,-0.3757367,0.06771098,-0.08821672,1.0486604,-9.572019,-0.6560113
6.15838,4.6213007,-0.37360618,0.06664571,-0.08395566,1.043872,-9.591172,-0.7182605
6.1583724,4.6210155,-0.37360618,0.06664571,-0.08395566,1.043872,-9.591172,-0.7182605
6.158393,4.620715,-0.37360618,0.06558045,-0.078629345,1.0342951,-9.605537,-0.770933
6.158412,4.620416,-0.37360618,0.06558045,-0.078629345,1.0342951,-9.605537,-0.770933
6.1584353,4.620117,-0.37467146,0.06664571,-0.07436828,1.043872,-9.629479,-0.78050977
6.1584573,4.619818,-0.37467146,0.06664571,-0.07436828,1.043872,-9.629479,-0.78050977
6.158515,4.61948,-0.3757367,0.06664571,-0.07010722,0.9959879,-9.653421,-0.8475474
6.1585717,4.6191425,-0.3757367,0.06664571,-0.07010722,0.9959879,-9.653421,-0.8475474
6.158633,4.6188035,-0.37786725,0.06771098,-0.06584617,1.0007763,-9.677363,-0.8571242
6.158694,4.6184654,-0.37786725,0.06771098,-0.06584617,1.0007763,-9.677363,-0.8571242
6.1587653,4.618095,-0.38106304,0.07090677,-0.062650375,0.9576807,-9.701305,-0.90500826
6.1588354,4.61773,-0.38106304,0.07090677,-0.062650375,0.9576807,-9.701305,-0.90500826
6.1589026,4.6173663,-0.3853241,0.07090677,-0.064780906,0.92416185,-9.749189,-0.89064306
6.1589684,4.61701,-0.3853241,0.07090677,-0.064780906,0.92416185,-9.749189,-0.89064306
6.159032,4.61665,-0.38958514,0.073037304,-0.06691143,0.93373865,-9.792285,-0.89064306
6.1590943,4.616292,-0.38958514,0.073037304,-0.06691143,0.93373865,-9.792285,-0.89064306
6.159156,4.615925,-0.3938462,0.07516783,-0.06904196,0.9576807,-9.773131,-0.90979666
6.159218,4.615557,-0.3938462,0.07516783,-0.06904196,0.9576807,-9.773131,-0.90979666
6.1592746,4.6151447,-0.39597675,0.07836362,-0.07117249,0.93373865,-9.782708,-1.0055647
6.159332,4.614734,-0.39597675,0.07836362,-0.07117249,0.93373865,-9.782708,-1.0055647
6.1593885,4.6143265,-0.39810726,0.08155942,-0.07330302,1.0151415,-9.749189,-0.9816227
6.159446,4.613923,-0.39810726,0.08155942,-0.07330302,1.0151415,-9.749189,-0.9816227
6.159466,4.613465,-0.39810726,0.085820474,-0.075433545,1.043872,-9.753978,-1.0773908
6.1594877,4.613012,-0.39810726,0.085820474,-0.075433545,1.043872,-9.753978,-1.0773908
6.1594477,4.6125298,-0.397042,0.089016266,-0.077564076,1.163582,-9.701305,-1.067814
6.1594105,4.61205,-0.397042,0.089016266,-0.077564076,1.163582,-9.701305,-1.067814
6.1593046,4.6115637,-0.39597675,0.0911468,-0.0828904,1.2306197,-9.629479,-1.13964
6.159199,4.6110787,-0.39597675,0.0911468,-0.0828904,1.2306197,-9.629479,-1.13964
6.159084,4.6105976,-0.39171568,0.09434259,-0.09034725,1.2354081,-9.600749,-1.1683705
6.158969,4.6101155,-0.39171568,0.09434259,-0.09034725,1.2354081,-9.600749,-1.1683705
6.1588078,4.609645,-0.38851988,0.09647312,-0.09993463,1.3072342,-9.548077,-1.1683705
6.158645,4.609173,-0.38851988,0.09647312,-0.09993463,1.3072342,-9.548077,-1.1683705
6.1584597,4.608697,-0.38745463,0.09860365,-0.11165254,1.3599066,-9.519346,-1.2210429
6.1582727,4.6082172,-0.38745463,0.09860365,-0.11165254,1.3599066,-9.519346,-1.2210429
6.1580696,4.6077614,-0.3853241,0.100734174,-0.124435715,1.4077905,-9.461885,-1.2449849
6.1578655,4.6073036,-0.3853241,0.100734174,-0.124435715,1.4077905,-9.461885,-1.2449849
6.1576633,4.606847,-0.38106304,0.102864705,-0.1372189,1.412579,-9.471462,-1.3311762
6.157459,4.6063848,-0.38106304,0.102864705,-0.1372189,1.412579,-9.471462,-1.3311762
6.157232,4.6059303,-0.37786725,0.10712577,-0.14787152,1.4173675,-9.41879,-1.2785037
6.157004,4.605475,-0.37786725,0.10712577,-0.14787152,1.4173675,-9.41879,-1.2785037
6.1567554,4.6050196,-0.3757367,0.11032156,-0.15958944,1.508347,-9.385271,-1.3551182
6.156511,4.6045723,-0.3757367,0.11032156,-0.15958944,1.508347,-9.385271,-1.3551182
6.156256,4.604128,-0.37360618,0.11351735,-0.17024209,1.4987702,-9.380483,-1.3455414
6.155998,4.6036797,-0.37360618,0.11351735,-0.17024209,1.4987702,-9.380483,-1.3455414
6.155732,4.6032357,-0.37041038,0.118843675,-0.17982946,1.532289,-9.351752,-1.3934253
6.1554656,4.602792,-0.37041038,0.118843675,-0.17982946,1.532289,-9.351752,-1.3934253
6.155181,4.6023583,-0.36508408,0.12523526,-0.18515578,1.5705963,-9.3182335,-1.3599066
6.1548967,4.6019263,-0.36508408,0.12523526,-0.18515578,1.5705963,-9.3182335,-1.3599066
6.1546273,4.6014867,-0.36295354,0.13162684,-0.18728632,1.508347,-9.332599,-1.4173675
6.1543584,4.6010475,-0.36295354,0.13162684,-0.18728632,1.508347,-9.332599,-1.4173675
6.1540794,4.6006184,-0.35869247,0.1390837,-0.19048211,1.5753847,-9.303867,-1.4508862
6.1537986,4.600186,-0.35869247,0.1390837,-0.19048211,1.5753847,-9.303867,-1.4508862
6.153527,4.5997543,-0.35549667,0.14547528,-0.18941684,1.6184803,-9.279925,-1.5801731
6.153257,4.599326,-0.35549667,0.14547528,-0.18941684,1.6184803,-9.279925,-1.5801731
6.1529856,4.5989013,-0.35443142,0.15186687,-0.18409052,1.6519991,-9.222465,-1.5705963
6.1527133,4.598476,-0.35443142,0.15186687,-0.18409052,1.6519991,-9.222465,-1.5705963
6.152439,4.598055,-0.35336617,0.16038899,-0.17982946,1.7190368,-9.284714,-1.5993267
6.152165,4.5976324,-0.35336617,0.16038899,-0.17982946,1.7190368,-9.284714,-1.5993267
6.1519146,4.597207,-0.35123563,0.1689111,-0.17237261,1.5370775,-9.299079,-1.532289
6.1516647,4.596783,-0.35123563,0.1689111,-0.17237261,1.5370775,-9.299079,-1.532289
6.1514482,4.5963554,-0.35017037,0.17530268,-0.16065471,1.3934253,-9.337387,-1.4652514
6.151232,4.5959277,-0.35017037,0.17530268,-0.16065471,1.3934253,-9.337387,-1.4652514
6.151009,4.5955057,-0.34803984,0.17849848,-0.145741,1.4556746,-9.375694,-1.4221559
6.1507826,4.5950766,-0.34803984,0.17849848,-0.145741,1.4556746,-9.375694,-1.4221559
6.150594,4.594667,-0.34484404,0.18062901,-0.12976204,1.4413095,-9.3661175,-1.5035586
6.150401,4.5942473,-0.34484404,0.18062901,-0.12976204,1.4413095,-9.3661175,-1.5035586
6.150206,4.593835,-0.34164825,0.18489006,-0.11058728,1.5370775,-9.299079,-1.508347
6.1500115,4.5934243,-0.34164825,0.18489006,-0.11058728,1.5370775,-9.299079,-1.508347
6.1498365,4.593017,-0.3395177,0.19128166,-0.08928198,1.5562311,-9.370906,-1.5275006
6.1496615,4.5926113,-0.3395177,0.19128166,-0.08928198,1.5562311,-9.370906,-1.5275006
6.149488,4.592158,-0.33845246,0.19767325,-0.06904196,1.5993267,-9.313444,-1.5993267
6.149344,4.5917816,-0.33845246,0.19767325,-0.06904196,1.5993267,-9.313444,-1.5993267
6.149344,4.5917816,-0.33845246,0.19767325,-0.06904196,1.5993267,-9.313444,-1.5993267
6.1490974,4.5909805,-0.3373872,0.20299956,-0.0498672,1.6089035,-9.241618,-1.7621324
6.1489797,4.590571,-0.3373872,0.21045642,-0.033888236,1.6759412,-9.217676,-1.8004397
6.148861,4.5901594,-0.3373872,0.21045642,-0.033888236,1.6759412,-9.217676,-1.8004397
6.148861,4.5901594,-0.3373872,0.21045642,-0.033888236,1.6759412,-9.217676,-1.8004397
6.1486397,4.5893555,-0.340583,0.216848,-0.018974531,1.7190368,-9.232041,-1.757344
6.1485324,4.5889316,-0.34697458,0.22217433,-0.0072566224,1.7669208,-9.169792,-1.7908629
6.148435,4.5885496,-0.34697458,0.22217433,-0.0072566224,1.7669208,-9.169792,-1.7908629
6.148435,4.5885496,-0.34697458,0.22217433,-0.0072566224,1.7669208,-9.169792,-1.7908629
6.1482096,4.587698,-0.3618883,0.22750065,0.005526551,1.9680338,-9.097966,-1.7429788
6.148105,4.587328,-0.3618883,0.22750065,0.005526551,1.9680338,-9.097966,-1.7429788
6.1479897,4.586919,-0.3618883,0.22750065,0.005526551,1.9680338,-9.097966,-1.7429788
6.1478825,4.5865,-0.3672146,0.22963117,0.0065918155,1.9632454,-9.126697,-1.8339585
6.147775,4.58608,-0.3672146,0.22963117,0.0065918155,1.9632454,-9.126697,-1.8339585
6.1476617,4.585659,-0.37147567,0.23069644,0.0033960221,1.9728222,-9.165004,-1.8148049
6.1475477,4.5852365,-0.37147567,0.23069644,0.0033960221,1.9728222,-9.165004,-1.8148049
6.1474233,4.584812,-0.3757367,0.23069644,-0.004060829,1.9871874,-9.174581,-1.7956513
6.1472993,4.5843887,-0.3757367,0.23069644,-0.004060829,1.9871874,-9.174581,-1.7956513
6.1471624,4.583967,-0.3757367,0.23176171,-0.012582945,1.9297266,-9.150639,-1.70946
6.1470246,4.583545,-0.3757367,0.23176171,-0.012582945,1.9297266,-9.150639,-1.70946
6.1468844,4.583122,-0.37360618,0.22963117,-0.02110506,1.9488802,-9.184157,-1.7860745
6.1467423,4.5826945,-0.37360618,0.22963117,-0.02110506,1.9488802,-9.184157,-1.7860745
6.146585,4.582285,-0.3672146,0.22963117,-0.026431382,1.982399,-9.198523,-1.6998832
6.146428,4.581878,-0.3672146,0.22963117,-0.026431382,1.982399,-9.198523,-1.6998832
6.1462665,4.5814767,-0.35975775,0.23069644,-0.03282297,1.9153614,-9.188946,-1.6711528
6.146104,4.5810738,-0.35975775,0.23069644,-0.03282297,1.9153614,-9.188946,-1.6711528
6.1459317,4.580683,-0.3491051,0.23069644,-0.04027982,1.9153614,-9.241618,-1.6567876
6.145759,4.5802927,-0.3491051,0.23069644,-0.04027982,1.9153614,-9.241618,-1.6567876
6.1455793,4.579915,-0.33632192,0.23069644,-0.04773667,1.9297266,-9.275137,-1.6711528
6.1453986,4.579537,-0.33632192,0.23069644,-0.04773667,1.9297266,-9.275137,-1.6711528
6.1452103,4.5791736,-0.3214082,0.22963117,-0.05519352,1.910573,-9.370906,-1.661576
6.1450224,4.5788116,-0.3214082,0.22963117,-0.05519352,1.910573,-9.370906,-1.661576
6.1448374,4.578461,-0.304364,0.22750065,-0.06158511,1.8339585,-9.380483,-1.6759412
6.1446505,4.5781074,-0.304364,0.22750065,-0.06158511,1.8339585,-9.380483,-1.6759412
6.144455,4.577781,-0.28412396,0.22537012,-0.06691143,1.8195933,-9.442732,-1.6280571
6.144258,4.5774536,-0.28412396,0.22537012,-0.06691143,1.8195933,-9.442732,-1.6280571
6.1440554,4.5771465,-0.2649492,0.22323959,-0.07117249,1.8531121,-9.514558,-1.6424223
6.1438527,4.57684,-0.2649492,0.22323959,-0.07117249,1.8531121,-9.514558,-1.6424223
6.1436496,4.5765495,-0.24470918,0.2200438,-0.076498814,1.8626889,-9.495404,-1.685518
6.1434464,4.5762587,-0.24470918,0.2200438,-0.076498814,1.8626889,-9.495404,-1.685518
6.1432467,4.575983,-0.2234039,0.21578273,-0.08182514,1.8626889,-9.490616,-1.7525556
6.143047,4.575708,-0.2234039,0.21578273,-0.08182514,1.8626889,-9.490616,-1.7525556
6.1428485,4.5754514,-0.20209861,0.21258694,-0.08502093,1.8531121,-9.500193,-1.7764976
6.1426497,4.575195,-0.20209861,0.21258694,-0.08502093,1.8531121,-9.500193,-1.7764976
6.1424456,4.574962,-0.17866279,0.2083259,-0.08928198,1.8914193,-9.509769,-1.8004397
6.1422415,4.574729,-0.17866279,0.2083259,-0.08928198,1.8914193,-9.509769,-1.8004397
6.1420307,4.574521,-0.15522698,0.20406483,-0.092477776,1.8291701,-9.5385,-1.7142484
6.1418204,4.5743136,-0.15522698,0.20406483,-0.092477776,1.8291701,-9.5385,-1.7142484
6.1415973,4.574135,-0.13179116,0.1987385,-0.09673884,1.8004397,-9.533711,-1.6328455
6.141374,4.573956,-0.13179116,0.1987385,-0.09673884,1.8004397,-9.533711,-1.6328455
6.141139,4.5738077,-0.106224805,0.19128166,-0.10206516,1.9009962,-9.56723,-1.6519991
6.1409035,4.573659,-0.106224805,0.19128166,-0.10206516,1.9009962,-9.56723,-1.6519991
6.1406674,4.573535,-0.0795932,0.18489006,-0.104195684,2.0159178,-9.562442,-1.7286136
6.1404314,4.573412,-0.0795932,0.18489006,-0.104195684,2.0159178,-9.562442,-1.7286136
6.1401796,4.5733247,-0.05509211,0.17956375,-0.107391484,2.1260512,-9.457097,-1.661576
6.139928,4.5732374,-0.05509211,0.17956375,-0.107391484,2.1260512,-9.457097,-1.661576
6.1396694,4.573177,-0.03059103,0.17743322,-0.11271781,2.2122424,-9.332599,-1.6711528
6.1394105,4.5731163,-0.03059103,0.17743322,-0.11271781,2.2122424,-9.332599,-1.6711528
6.139147,4.573077,-0.006089947,0.17743322,-0.11910939,2.3463178,-9.313444,-1.7477672
6.1388817,4.5730386,-0.006089947,0.17743322,-0.11910939,2.3463178,-9.313444,-1.7477672
6.1385794,4.573022,0.017345872,0.17743322,-0.12869677,2.4516625,-9.308656,-1.7908629
6.1383343,4.5730085,0.017345872,0.17743322,-0.12869677,2.4516625,-9.308656,-1.7908629
6.1380353,4.57303,0.03865116,0.17956375,-0.13934942,2.4947581,-9.26556,-1.6472107
6.137744,4.57305,0.03865116,0.17956375,-0.13934942,2.4947581,-9.26556,-1.6472107
6.1374373,4.5731006,0.061021715,0.18275954,-0.15106732,2.4851813,-9.299079,-1.5753847
6.1371293,4.5731516,0.061021715,0.18275954,-0.15106732,2.4851813,-9.299079,-1.5753847
6.136805,4.5732317,0.08445753,0.18275954,-0.16491576,2.4181437,-9.294291,-1.508347
6.13648,4.573312,0.08445753,0.18275954,-0.16491576,2.4181437,-9.294291,-1.508347
6.13614,4.573414,0.106828086,0.18275954,-0.17982946,2.4181437,-9.270349,-1.508347
6.1358004,4.573515,0.106828086,0.18275954,-0.17982946,2.4181437,-9.270349,-1.508347
6.1354475,4.5736437,0.13132916,0.18169427,-0.19261263,2.566584,-9.26556,-1.5131354
6.1350913,4.573773,0.13132916,0.18169427,-0.19261263,2.566584,-9.26556,-1.5131354
6.134729,4.57392,0.15263446,0.18169427,-0.20326528,2.6431987,-9.212888,-1.541866
6.1343665,4.5740666,0.15263446,0.18169427,-0.20326528,2.6431987,-9.212888,-1.541866
6.133987,4.57424,0.17393975,0.1838248,-0.2149832,2.777274,-9.179369,-1.5275006
6.1336174,4.574409,0.17393975,0.1838248,-0.2149832,2.777274,-9.179369,-1.5275006
6.1332307,4.5746074,0.19524503,0.18808587,-0.22457057,2.8443117,-9.222465,-1.4891934
6.1328444,4.5748053,0.19524503,0.18808587,-0.22457057,2.8443117,-9.222465,-1.4891934
6.1324463,4.5750194,0.2144198,0.19234692,-0.23628849,2.7964275,-9.23683,-1.5227122
6.1320486,4.5752325,0.2144198,0.19234692,-0.23628849,2.7964275,-9.23683,-1.5227122
6.1316404,4.5754657,0.23359455,0.19554271,-0.24694112,2.7150247,-9.241618,-1.5035586
6.131229,4.5757003,0.23359455,0.19554271,-0.24694112,2.7150247,-9.241618,-1.5035586
6.1308174,4.575947,0.25170404,0.19767325,-0.2533327,2.5330653,-9.255983,-1.5035586
6.1304035,4.576194,0.25170404,0.19767325,-0.2533327,2.5330653,-9.255983,-1.5035586
6.1299872,4.5764546,0.26981354,0.19554271,-0.25759378,2.6527755,-9.313444,-1.5705963
6.1295714,4.5767155,0.26981354,0.19554271,-0.25759378,2.6527755,-9.313444,-1.5705963
6.1291513,4.577009,0.28472725,0.19234692,-0.25759378,2.8921957,-9.495404,-1.4460979
6.1287303,4.5773025,0.28472725,0.19234692,-0.25759378,2.8921957,-9.495404,-1.4460979
6.1283073,4.577616,0.3007062,0.19021639,-0.26078957,3.0454245,-9.595961,-1.4221559
6.1278553,4.5779505,0.3007062,0.19021639,-0.26078957,3.0454245,-9.595961,-1.4221559
6.127455,4.578268,0.31988096,0.18915112,-0.26505062,3.1172507,-9.677363,-1.3551182
6.1270165,4.5786166,0.31988096,0.18915112,-0.26505062,3.1172507,-9.677363,-1.3551182
6.126585,4.5789843,0.34118626,0.1870206,-0.27250746,3.169923,-9.662998,-1.2497733
6.1261606,4.579345,0.34118626,0.1870206,-0.27250746,3.169923,-9.662998,-1.2497733
6.125718,4.5797224,0.36249155,0.18275954,-0.28209487,3.040636,-9.576807,-1.3599066
6.1252756,4.580099,0.36249155,0.18275954,-0.28209487,3.040636,-9.576807,-1.3599066
6.1248217,4.5804963,0.38379684,0.17530268,-0.29381275,3.0071173,-9.533711,-1.3503298
6.1243677,4.580894,0.38379684,0.17530268,-0.29381275,3.0071173,-9.533711,-1.3503298
6.123905,4.5813127,0.40510213,0.16465004,-0.3044654,3.1603463,-9.557653,-1.3311762
6.1234417,4.581732,0.40510213,0.16465004,-0.3044654,3.1603463,-9.557653,-1.3311762
6.1229725,4.5821877,0.42747268,0.1508016,-0.31618333,3.3039982,-9.509769,-1.1013328
6.122502,4.582645,0.42747268,0.1508016,-0.31618333,3.3039982,-9.509769,-1.1013328
6.12202,4.583128,0.4509085,0.13482264,-0.3321623,3.2944214,-9.481039,-1.0247183
6.1215377,4.58361,0.4509085,0.13482264,-0.3321623,3.2944214,-9.481039,-1.0247183
6.121039,4.584116,0.47647485,0.117778406,-0.35133705,3.2465374,-9.437943,-1.0007763
6.1205406,4.584622,0.47647485,0.117778406,-0.35133705,3.2465374,-9.437943,-1.0007763
6.1200233,4.5851398,0.49991068,0.09540785,-0.37157705,3.145981,-9.3182335,-1.0726024
6.119505,4.5856586,0.49991068,0.09540785,-0.37157705,3.145981,-9.3182335,-1.0726024
6.118972,4.586199,0.5222812,0.07090677,-0.3918171,3.3375173,-9.26556,-0.9864111
6.1184387,4.586739,0.5222812,0.07090677,-0.3918171,3.3375173,-9.26556,-0.9864111
6.117892,4.587303,0.54571706,0.045340426,-0.4099266,3.5098996,-9.222465,-0.89064306
6.1173453,4.587867,0.54571706,0.045340426,-0.4099266,3.5098996,-9.222465,-0.89064306
6.116781,4.5884466,0.56915283,0.020839343,-0.4301666,3.7062242,-9.255983,-0.90979666
6.116217,4.589026,0.56915283,0.020839343,-0.4301666,3.7062242,-9.255983,-0.90979666
6.1156354,4.589627,0.59471923,-0.0025964756,-0.45040664,3.5673606,-9.217676,-0.90979666
6.115053,4.590228,0.59471923,-0.0025964756,-0.45040664,3.5673606,-9.217676,-0.90979666
6.1144557,4.590852,0.6213508,-0.029228088,-0.47171193,3.5529952,-9.11712,-0.8571242
6.1138563,4.5914755,0.6213508,-0.029228088,-0.47171193,3.5529952,-9.11712,-0.8571242
6.1132383,4.592123,0.6490477,-0.059055492,-0.49514773,3.5913026,-8.935161,-0.80445176
6.11262,4.5927706,0.6490477,-0.059055492,-0.49514773,3.5913026,-8.935161,-0.80445176
6.111982,4.5934258,0.67354876,-0.08994816,-0.5143225,3.6774938,-8.829816,-0.9528923
6.111344,4.5940804,0.67354876,-0.08994816,-0.5143225,3.6774938,-8.829816,-0.9528923
6.110697,4.5947638,0.6991151,-0.11977556,-0.532432,3.6774938,-8.75799,-0.770933
6.110048,4.5954485,0.6991151,-0.11977556,-0.532432,3.6774938,-8.75799,-0.770933
6.1093836,4.596146,0.7236162,-0.14853771,-0.5473457,3.739743,-8.604761,-0.8523358
6.1087213,4.5968413,0.7236162,-0.14853771,-0.5473457,3.739743,-8.604761,-0.8523358
6.108051,4.5975533,0.7491826,-0.17623459,-0.55799836,3.787627,-8.446744,-0.89543146
6.1073785,4.5982656,0.7491826,-0.17623459,-0.55799836,3.787627,-8.446744,-0.89543146
6.1067,4.598994,0.7736836,-0.2028662,-0.5675857,3.9983168,-8.255207,-0.91458505
6.106021,4.5997214,0.7736836,-0.2028662,-0.5675857,3.9983168,-8.255207,-0.91458505
6.105336,4.600461,0.79498893,-0.22630201,-0.5750426,4.19943,-8.0445175,-0.9911995
6.104653,4.601198,0.79498893,-0.22630201,-0.5750426,4.19943,-8.0445175,-0.9911995
6.1039667,4.6019454,0.81309843,-0.24441151,-0.57823837,4.256891,-7.819463,-1.0726024
6.1032796,4.6026936,0.81309843,-0.24441151,-0.57823837,4.256891,-7.819463,-1.0726024
6.1025944,4.6034446,0.82481635,-0.25825995,-0.57823837,4.477157,-7.61835,-1.1731589
6.101909,4.604195,0.82481635,-0.25825995,-0.57823837,4.477157,-7.61835,-1.1731589
6.1012244,4.6049404,0.8301427,-0.26678208,-0.5793036,4.687847,-7.4603324,-1.3934253
6.10054,4.605684,0.8301427,-0.26678208,-0.5793036,4.687847,-7.4603324,-1.3934253
6.099854,4.606421,0.8301427,-0.27104312,-0.5814342,4.76925,-7.1873937,-1.541866
6.0991683,4.6071577,0.8301427,-0.27104312,-0.5814342,4.76925,-7.1873937,-1.541866
6.098483,4.607883,0.8226858,-0.26891258,-0.5803689,4.831499,-7.019799,-1.6663644
6.097799,4.6086073,0.8226858,-0.26891258,-0.5803689,4.831499,-7.019799,-1.6663644
6.0971203,4.6093082,0.80670685,-0.26358625,-0.57610786,4.8219223,-6.823475,-1.8818425
6.096441,4.61001,0.80670685,-0.26358625,-0.57610786,4.8219223,-6.823475,-1.8818425
6.0957723,4.6106825,0.783271,-0.25719467,-0.56865096,4.865018,-6.646304,-2.0015526
6.095102,4.611356,0.783271,-0.25719467,-0.56865096,4.865018,-6.646304,-2.0015526
6.0944524,4.6119843,0.75237834,-0.24973783,-0.5558678,4.9224787,-6.531382,-2.5761611
6.0938025,4.6126127,0.75237834,-0.24973783,-0.5558678,4.9224787,-6.531382,-2.5761611
6.0938025,4.6126127,0.70763725,-0.23695466,-0.53988886,4.7500963,-6.612785,-2.5330653
6.0926013,4.61372,0.70763725,-0.23695466,-0.53988886,4.7500963,-6.612785,-2.5330653
6.0918846,4.6143594,0.650113,-0.22097568,-0.516453,4.5681367,-6.6750345,-2.3319526
6.0912447,4.6149144,0.650113,-0.22097568,-0.516453,4.5681367,-6.6750345,-2.3319526
6.090699,4.6153607,0.59045815,-0.20819251,-0.48556036,4.630386,-6.7133417,-2.2170308
6.0900893,4.6158586,0.59045815,-0.20819251,-0.48556036,4.630386,-6.7133417,-2.2170308
6.0900893,4.6158586,0.59045815,-0.20819251,-0.48556036,4.630386,-6.7133417,-2.2170308
6.0900893,4.6158586,0.59045815,-0.20819251,-0.48556036,4.630386,-6.7133417,-2.2170308
6.0884066,4.617163,0.4775401,-0.19008303,-0.39714342,4.6830587,-6.751649,-1.9057846
6.0879564,4.6175017,0.4775401,-0.19008303,-0.39714342,4.6830587,-6.751649,-1.9057846
6.0875,4.6178403,0.42853796,-0.17836511,-0.34388018,4.6591167,-6.7468605,-1.8100165
6.0870013,4.61821,0.42853796,-0.17836511,-0.34388018,4.6591167,-6.7468605,-1.8100165
6.0870013,4.61821,0.42853796,-0.17836511,-0.34388018,4.6591167,-6.7468605,-1.8100165
6.0861807,4.6188264,0.38379684,-0.16984299,-0.28529066,4.6016555,-6.766014,-1.661576
6.0858507,4.6190867,0.3433168,-0.16451667,-0.21924424,4.55856,-6.7468605,-1.5514427
6.0858507,4.6190867,0.3433168,-0.16451667,-0.21924424,4.55856,-6.7468605,-1.5514427
6.0852585,4.6195683,0.3070978,-0.16451667,-0.15000206,4.55856,-6.6415157,-1.5035586
6.084992,4.6197996,0.3070978,-0.16451667,-0.15000206,4.55856,-6.6415157,-1.5035586
6.084797,4.619993,0.27513987,-0.16877773,-0.07969461,4.5537715,-6.5122285,-1.6376339
6.0846,4.620189,0.27513987,-0.16877773,-0.07969461,4.5537715,-6.5122285,-1.6376339
6.0844803,4.620344,0.2410514,-0.1730388,-0.0051260935,4.501099,-6.215348,-1.8770541
6.084362,4.6204967,0.2410514,-0.1730388,-0.0051260935,4.501099,-6.215348,-1.8770541
6.0843253,4.6206007,0.20270188,-0.17836511,0.07050768,4.381389,-5.913678,-2.0733786
6.084288,4.6207066,0.20270188,-0.17836511,0.07050768,4.381389,-5.913678,-2.0733786
6.0843353,4.620767,0.16115656,-0.18369143,0.15146779,4.3526587,-5.506664,-2.2361844
6.0843816,4.620826,0.16115656,-0.18369143,0.15146779,4.3526587,-5.506664,-2.2361844
6.084513,4.620837,0.1153502,-0.19008303,0.2345584,4.343082,-5.2049947,-2.327164
6.0846453,4.6208487,0.1153502,-0.19008303,0.2345584,4.343082,-5.2049947,-2.327164
6.0848675,4.620806,0.06315224,-0.19753987,0.32297537,4.5202527,-4.8458643,-2.4756045
6.0850863,4.6207647,0.06315224,-0.19753987,0.32297537,4.5202527,-4.8458643,-2.4756045
6.085431,4.620658,0.005627962,-0.20499672,0.4145881,4.7405195,-4.572925,-2.4612393
6.08571,4.620571,0.005627962,-0.20499672,0.4145881,4.7405195,-4.572925,-2.4612393
6.0861096,4.6204195,-0.058287904,-0.21032305,0.5115272,5.161899,-4.3478703,-2.4372973
6.0865116,4.620267,-0.058287904,-0.21032305,0.5115272,5.161899,-4.3478703,-2.4372973
6.0870085,4.6200523,-0.12539956,-0.2113883,0.6084662,5.410896,-4.122815,-2.3894134
6.0875072,4.6198378,-0.12539956,-0.2113883,0.6084662,5.410896,-4.122815,-2.3894134
6.088101,4.619564,-0.19464175,-0.20606199,0.7096664,5.66947,-3.9839516,-2.27928
6.0886974,4.6192884,-0.19464175,-0.20606199,0.7096664,5.66947,-3.9839516,-2.27928
6.089392,4.618954,-0.2628187,-0.19647461,0.8098012,5.875371,-3.8833952,-2.183512
6.09009,4.6186175,-0.2628187,-0.19647461,0.8098012,5.875371,-3.8833952,-2.183512
6.090889,4.61822,-0.32993034,-0.18262617,0.91419715,5.93762,-3.7205894,-2.2170308
6.091682,4.6178246,-0.32993034,-0.18262617,0.91419715,5.93762,-3.7205894,-2.2170308
6.0925846,4.6173673,-0.3938462,-0.1634514,1.0196583,5.9184666,-3.53863,-2.2936451
6.09349,4.6169086,-0.3938462,-0.1634514,1.0196583,5.9184666,-3.53863,-2.2936451
6.094491,4.616399,-0.45456627,-0.14214613,1.1272501,5.7604494,-3.3758245,-2.2936451
6.095498,4.6158867,-0.45456627,-0.14214613,1.1272501,5.7604494,-3.3758245,-2.2936451
6.096619,4.6153154,-0.5142211,-0.122971356,1.2422986,5.57849,-3.1890767,-2.4277205
6.09774,4.6147447,-0.5142211,-0.122971356,1.2422986,5.57849,-3.1890767,-2.4277205
6.0989757,4.614128,-0.5685496,-0.108057655,1.3637388,5.4061074,-3.1124623,-2.3175871
6.1002207,4.613507,-0.5685496,-0.108057655,1.3637388,5.4061074,-3.1124623,-2.3175871
6.1015873,4.6128445,-0.6164865,-0.09953554,1.4915705,5.1906295,-2.9831753,-2.231396
6.102954,4.6121817,-0.6164865,-0.09953554,1.4915705,5.1906295,-2.9831753,-2.231396
6.1044545,4.6114826,-0.6580318,-0.10060081,1.6268591,4.9703627,-2.944868,-2.0494366
6.1059623,4.61078,-0.6580318,-0.10060081,1.6268591,4.9703627,-2.944868,-2.0494366
6.1077228,4.610003,-0.691055,-0.11231872,1.7728003,4.9943047,-2.9257145,-1.8770541
6.1092715,4.60932,-0.691055,-0.11231872,1.7728003,4.9943047,-2.9257145,-1.8770541
6.1110725,4.6085815,-0.71236026,-0.12936294,1.9315246,5.21936,-2.930503,-1.7190368
6.1128535,4.6078506,-0.71236026,-0.12936294,1.9315246,5.21936,-2.930503,-1.7190368
6.1148224,4.607112,-0.7230129,-0.14640717,2.0966406,5.4300494,-2.96881,-1.4030021
6.1168027,4.606368,-0.7230129,-0.14640717,2.0966406,5.4300494,-2.96881,-1.4030021
6.118944,4.605633,-0.72194767,-0.16238615,2.2681482,5.482722,-2.954445,-1.3359646
6.1210895,4.6048965,-0.72194767,-0.16238615,2.2681482,5.482722,-2.954445,-1.3359646
6.123395,4.60418,-0.71236026,-0.1815609,2.4396558,5.626374,-2.9496565,-1.1444284
6.125712,4.60346,-0.71236026,-0.1815609,2.4396558,5.626374,-2.9496565,-1.1444284
6.128226,4.6027613,-0.6878592,-0.20180093,2.6164896,5.9280434,-2.7868507,-1.1109096
6.13071,4.602072,-0.6878592,-0.20180093,2.6164896,5.9280434,-2.7868507,-1.1109096
6.133395,4.601417,-0.6505749,-0.22204095,2.7965195,6.1866174,-2.6527755,-1.0199299
6.1360645,4.6007667,-0.6505749,-0.22204095,2.7965195,6.1866174,-2.6527755,-1.0199299
6.138926,4.6001678,-0.60157275,-0.24334624,2.9765491,6.435614,-2.3989902,-0.8475474
6.141793,4.599567,-0.60157275,-0.24334624,2.9765491,6.435614,-2.3989902,-0.8475474
6.144846,4.599022,-0.54511374,-0.26465154,3.1597745,6.5457473,-2.1068976,-0.89064306
6.1479025,4.598476,-0.54511374,-0.26465154,3.1597745,6.5457473,-2.1068976,-0.89064306
6.151137,4.597998,-0.47906736,-0.2838263,3.3440654,6.679823,-1.7908629,-0.90500826
6.154368,4.59752,-0.47906736,-0.2838263,3.3440654,6.679823,-1.7908629,-0.90500826
6.1577964,4.5971174,-0.4034336,-0.29874,3.536878,6.612785,-1.5514427,-0.89543146
6.161249,4.5967126,-0.4034336,-0.29874,3.536878,6.612785,-1.5514427,-0.89543146
6.16487,4.5963974,-0.3192777,-0.31258842,3.741409,6.469133,-1.3120226,-0.82360536
6.168516,4.59608,-0.3192777,-0.31258842,3.741409,6.469133,-1.3120226,-0.82360536
6.172372,4.595853,-0.23086074,-0.32750213,3.9565923,6.397307,-1.1348516,-0.770933
6.17622,4.5956254,-0.23086074,-0.32750213,3.9565923,6.397307,-1.1348516,-0.770933
6.1803207,4.595492,-0.13818274,-0.3434811,4.1877546,6.2345014,-0.9864111,-0.6895301
6.1844096,4.595359,-0.13818274,-0.3434811,4.1877546,6.2345014,-0.9864111,-0.6895301
6.1887436,4.5953217,-0.043374203,-0.35732955,4.4317,6.042965,-0.8379706,-0.63206923
6.193078,4.595283,-0.043374203,-0.35732955,4.4317,6.042965,-0.8379706,-0.63206923
6.1976976,4.595344,0.05356486,-0.36904746,4.688429,5.899313,-0.6655881,-0.5650316
6.20229,4.5954037,0.05356486,-0.36904746,4.688429,5.899313,-0.6655881,-0.5650316
6.2071104,4.595557,0.1483734,-0.3797001,4.9590063,5.650316,-0.47405192,-0.545878
6.211984,4.595711,0.1483734,-0.3797001,4.9590063,5.650316,-0.47405192,-0.545878
6.217159,4.5959606,0.24211667,-0.38715693,5.242367,5.281609,-0.22984336,-0.49799395
6.2222714,4.5962067,0.24211667,-0.38715693,5.242367,5.281609,-0.22984336,-0.49799395
6.2277284,4.5965457,0.33479467,-0.39354852,5.5385103,4.5920787,0.02873042,-0.46926352
6.233175,4.596884,0.33479467,-0.39354852,5.5385103,4.5920787,0.02873042,-0.46926352
6.2389393,4.597317,0.42960322,-0.40313593,5.851698,3.7924154,0.37828386,-0.31124622
6.244739,4.597752,0.42960322,-0.40313593,5.851698,3.7924154,0.37828386,-0.31124622
6.250818,4.598271,0.5222812,-0.4212454,6.1829953,2.8634653,0.7086837,-0.30166942
6.256909,4.5987887,0.5222812,-0.4212454,6.1829953,2.8634653,0.7086837,-0.30166942
6.263375,4.599405,0.61495924,-0.4510728,6.536663,2.0015526,0.91458505,-0.033518825
6.2698545,4.6000204,0.61495924,-0.4510728,6.536663,2.0015526,0.91458505,-0.033518825
6.276729,4.600737,0.70763725,-0.48942232,6.9137664,1.2593501,1.091756,0.2777274
0.00040487124,4.60145,0.70763725,-0.48942232,6.9137664,1.2593501,1.091756,0.2777274
0.0077234386,4.602273,0.7981847,-0.5352287,7.3121753,0.58897364,1.0726024,0.7326257
0.015042575,4.6030936,0.7981847,-0.5352287,7.3121753,0.58897364,1.0726024,0.7326257
0.022758547,4.604001,0.8823406,-0.58210033,7.728694,0.009576807,1.0390835,1.0773908
0.03052152,4.604912,0.8823406,-0.58210033,7.728694,0.009576807,1.0390835,1.0773908
0.038767878,4.6059055,0.96010494,-0.62364566,8.154799,-0.6703765,0.9816227,1.2737153
0.046908177,4.6068845,0.96010494,-0.62364566,8.154799,-0.6703765,0.9816227,1.2737153
0.055551674,4.607933,1.0240208,-0.6630604,8.577709,-1.1923125,0.9576807,1.3982137
0.06417849,4.6089783,1.0240208,-0.6630604,8.577709,-1.1923125,0.9576807,1.3982137
0.073257655,4.6100645,1.0708925,-0.6971489,8.996359,-1.8531121,0.9864111,1.2785037
0.08232838,4.6111484,1.0708925,-0.6971489,8.996359,-1.8531121,0.9864111,1.2785037
0.09181826,4.6122446,1.093263,-0.72910684,9.401159,-2.4947581,1.0199299,1.0103531
0.101318285,4.6133413,1.093263,-0.72910684,9.401159,-2.4947581,1.0199299,1.0103531
0.111491226,4.6144547,1.0900671,-0.7663911,9.784655,-3.2225955,1.115698,0.7182605
0.12197144,4.615601,1.0900671,-0.7663911,9.784655,-3.2225955,1.115698,0.7182605
0.13144855,4.6165624,1.0602398,-0.81539327,10.143648,-4.237737,1.5562311,0.19632454
0.14159302,4.617591,1.0602398,-0.81539327,10.143648,-4.237737,1.5562311,0.19632454
0.15216799,4.618581,1.0059112,-0.87824386,10.4728155,-4.003105,1.0151415,0.22505496
0.16286018,4.6195827,1.0059112,-0.87824386,10.4728155,-4.003105,1.0151415,0.22505496
0.17380162,4.620493,0.9292123,-0.9485513,10.782807,-6.172252,1.5993267,-0.6607997
0.18469997,4.621401,0.9292123,-0.9485513,10.782807,-6.172252,1.5993267,-0.6607997
0.19589424,4.622236,0.83546895,-1.0486861,11.057645,-6.397307,1.1971009,-0.4357447
0.20701061,4.6230674,0.83546895,-1.0486861,11.057645,-6.397307,1.1971009,-0.4357447
0.21845347,4.6238494,0.73746467,-1.180779,11.284547,-5.9998693,0.31124622,0.4405331
0.22989672,4.6246357,0.73746467,-1.180779,11.284547,-5.9998693,0.31124622,0.4405331
0.24152087,4.625391,0.654374,-1.3096759,11.475229,-5.4922986,-0.6799533,1.5897499
0.25316834,4.626154,0.654374,-1.3096759,11.475229,-5.4922986,-0.6799533,1.5897499
0.26503292,4.6269007,0.6000455,-1.4055498,11.642475,-6.2967505,-1.0390835,2.3415294
0.27679121,4.6276484,0.6000455,-1.4055498,11.642475,-6.2967505,-1.0390835,2.3415294
0.28874925,4.628392,0.57447916,-1.4673351,11.790547,-7.752425,-0.58418524,2.719813
0.30069533,4.6291447,0.57447916,-1.4673351,11.790547,-7.752425,-0.58418524,2.719813
0.31278318,4.6298995,0.5595655,-1.5099456,11.917314,-9.394848,-0.04309563,3.0933087
0.32485905,4.630664,0.5595655,-1.5099456,11.917314,-9.394848,-0.04309563,3.0933087
0.3370539,4.631425,0.53612965,-1.5450994,12.008926,-11.018116,-0.05746084,3.514688
0.3492242,4.632197,0.53612965,-1.5450994,12.008926,-11.018116,-0.05746084,3.514688
0.36144215,4.6329484,0.49351907,-1.5738616,12.054733,-12.29662,-0.50278234,4.0940847
0.3736966,4.633715,0.49351907,-1.5738616,12.054733,-12.29662,-0.50278234,4.0940847
0.38593024,4.634441,0.432799,-1.5951668,12.054733,-13.723564,-1.1492168,4.295198
0.3981394,4.635178,0.432799,-1.5951668,12.054733,-13.723564,-1.1492168,4.295198
0.41035077,4.635868,0.35929576,-1.6154069,12.0036,-14.891934,-2.0398598,4.247314
0.4225375,4.636571,0.35929576,-1.6154069,12.0036,-14.891934,-2.0398598,4.247314
0.43460527,4.637219,0.27833566,-1.6409732,11.9024,-16.065094,-3.0262709,3.916914
0.446697,4.637883,0.27833566,-1.6409732,11.9024,-16.065094,-3.0262709,3.916914
0.4586665,4.6384935,0.1931145,-1.6676048,11.7617855,-17.199945,-4.1706996,3.514688
0.4706357,4.63912,0.1931145,-1.6676048,11.7617855,-17.199945,-4.1706996,3.514688
0.48242685,4.6396937,0.10363229,-1.7027586,11.588147,-18.301277,-5.3007627,2.9783869
0.49422947,4.6402845,0.10363229,-1.7027586,11.588147,-18.301277,-5.3007627,2.9783869
0.5058533,4.6408415,0.018411135,-1.7581522,11.388943,-19.321207,-6.3446345,2.336741
0.5170706,4.641397,0.018411135,-1.7581522,11.388943,-19.321207,-6.3446345,2.336741
0.52844346,4.6419635,-0.062548965,-1.8444387,11.163107,-19.809626,-7.4746976,1.8722657
0.54021394,4.6425714,-0.062548965,-1.8444387,11.163107,-19.809626,-7.4746976,1.8722657
0.55296266,4.643278,-0.13498695,-1.9584221,10.913835,-20.207062,-8.6334915,1.6998832
0.56271315,4.6438394,-0.13498695,-1.9584221,10.913835,-20.207062,-8.6334915,1.6998832
0.57344013,4.6445336,-0.19464175,-2.0937107,10.640061,-19.996372,-9.964667,1.6519991
0.57344013,4.6445336,-0.19464175,-2.0937107,10.640061,-19.996372,-9.964667,1.6519991
0.5953404,4.6461124,-0.23299128,-2.239652,10.336461,-19.31642,-11.281479,2.030283
0.5953404,4.6461124,-0.23299128,-2.239652,10.336461,-19.31642,-11.281479,2.030283
0.61628544,4.6479874,-0.25216603,-2.381332,10.000903,-18.679562,-12.3876,2.3750482
0.61628544,4.6479874,-0.25216603,-2.381332,10.000903,-18.679562,-12.3876,2.3750482
0.6316838,4.649803,-0.2500355,-2.4963806,9.631256,-18.454506,-13.455414,2.585738
0.64563346,4.651531,-0.2500355,-2.4963806,9.631256,-18.454506,-13.455414,2.585738
0.6549109,4.6528816,-0.22766495,-2.5784059,9.226456,-18.65562,-14.360422,2.633622
0.6643455,4.654298,-0.22766495,-2.5784059,9.226456,-18.65562,-14.360422,2.633622
0.67335236,4.655861,-0.19144596,-2.631669,8.792893,-18.6221,-15.337256,2.5713725
0.68236357,4.6574707,-0.19144596,-2.631669,8.792893,-18.6221,-15.337256,2.5713725
0.69094354,4.659229,-0.14883539,-2.6604314,8.340156,-18.310854,-16.328455,2.6384103
0.6994659,4.661023,-0.14883539,-2.6604314,8.340156,-18.310854,-16.328455,2.6384103
0.70750636,4.6629496,-0.10089848,-2.662562,7.862917,-17.827227,-17.463306,2.5091233
0.71559536,4.664937,-0.10089848,-2.662562,7.862917,-17.827227,-17.463306,2.5091233
0.72311157,4.6670065,-0.045504734,-2.6369956,7.3622427,-18.243816,-18.143261,1.7669208
0.7306341,4.6691265,-0.045504734,-2.6369956,7.3622427,-18.243816,-18.143261,1.7669208
0.7376815,4.6713085,0.016280606,-2.5997112,6.839198,-19.55584,-18.100164,0.6751649
0.74468684,4.673526,0.016280606,-2.5997112,6.839198,-19.55584,-18.100164,0.6751649
0.7512206,4.6758056,0.08019647,-2.5784059,6.3065658,-20.508732,-17.889475,-0.22026655
0.75774276,4.678125,0.08019647,-2.5784059,6.3065658,-20.508732,-17.889475,-0.22026655
0.76373893,4.68054,0.14198181,-2.5879934,5.7739334,-20.599712,-17.836803,-0.7134721
0.76974714,4.683,0.14198181,-2.5879934,5.7739334,-20.599712,-17.836803,-0.7134721
0.7752057,4.6855745,0.20163663,-2.6242123,5.246628,-20.15439,-17.860744,-0.9816227
0.78062284,4.688166,0.20163663,-2.6242123,5.246628,-20.15439,-17.860744,-0.9816227
0.7855251,4.69089,0.26768303,-2.6689534,4.7299743,-19.081787,-18.02834,-1.0151415
0.7904074,4.6936398,0.26768303,-2.6689534,4.7299743,-19.081787,-18.02834,-1.0151415
0.79459083,4.6965337,0.3433168,-2.707303,4.2197127,-17.520767,-17.990032,-0.8283938
0.79876524,4.6994696,0.3433168,-2.707303,4.2197127,-17.520767,-17.990032,-0.8283938
0.8023961,4.702567,0.43386427,-2.7179556,3.712647,-16.529568,-17.688362,-0.90021986
0.8060259,4.705702,0.43386427,-2.7179556,3.712647,-16.529568,-17.688362,-0.90021986
0.80913055,4.7089562,0.54039073,-2.699846,3.20132,-15.8065195,-17.24783,-0.9768343
0.8122238,4.7122345,0.54039073,-2.699846,3.20132,-15.8065195,-17.24783,-0.9768343
0.8148566,4.715651,0.66183084,-2.6614966,2.6931887,-15.303738,-16.577452,-1.2449849
0.8174156,4.7190075,0.66183084,-2.6614966,2.6931887,-15.303738,-16.577452,-1.2449849
0.8195255,4.722465,0.79498893,-2.6061027,2.1978407,-14.925453,-15.653291,-1.6711528
0.8216301,4.7259493,0.79498893,-2.6061027,2.1978407,-14.925453,-15.653291,-1.6711528
0.82328916,4.7294927,0.9334733,-2.5347302,1.7237982,-14.700398,-14.5328045,-2.1547816
0.824938,4.7330523,0.9334733,-2.5347302,1.7237982,-14.700398,-14.5328045,-2.1547816
0.82614034,4.736656,1.068762,-2.4527047,1.2795829,-14.432248,-14.073117,-2.1739352
0.8273346,4.740275,1.068762,-2.4527047,1.2795829,-14.432248,-14.073117,-2.1739352
0.8281342,4.7439265,1.2019199,-2.361092,0.8790434,-14.240712,-13.493721,-2.2266076
0.8289243,4.747582,1.2019199,-2.361092,0.8790434,-14.240712,-13.493721,-2.2266076
0.8293696,4.751247,1.3382738,-2.256696,0.5232451,-14.044387,-12.732365,-2.3942018
0.8298073,4.7549233,1.3382738,-2.256696,0.5232451,-14.044387,-12.732365,-2.3942018
0.82994664,4.7585983,1.4756929,-2.1459086,0.21538365,-13.804967,-11.975797,-2.4612393
0.8300784,4.762282,1.4756929,-2.1459086,0.21538365,-13.804967,-11.975797,-2.4612393
0.8299556,4.7659574,1.6109815,-2.0329905,-0.050932467,-13.594277,-11.21444,-2.4947581
0.829825,4.7696395,1.6109815,-2.0329905,-0.050932467,-13.594277,-11.21444,-2.4947581
0.82948023,4.7733116,1.7430743,-1.9190072,-0.27357274,-13.120225,-10.491392,-2.3175871
0.82912815,4.7769814,1.7430743,-1.9190072,-0.27357274,-13.120225,-10.491392,-2.3175871
0.82860726,4.780629,1.8687755,-1.7975671,-0.45679823,-12.5982895,-9.624691,-2.1021092
0.8280796,4.784276,1.8687755,-1.7975671,-0.45679823,-12.5982895,-9.624691,-2.1021092
0.827417,4.7878895,1.9859546,-1.6665395,-0.60273945,-12.095507,-8.925584,-1.9488802
0.82674915,4.7914944,1.9859546,-1.6665395,-0.60273945,-12.095507,-8.925584,-1.9488802
0.8259909,4.7950435,2.0924811,-1.5248594,-0.7167227,-11.765107,-8.1642275,-1.6328455
0.8252256,4.7985945,2.0924811,-1.5248594,-0.7167227,-11.765107,-8.1642275,-1.6328455
0.82440203,4.802063,2.1872895,-1.3693308,-0.79874814,-11.449073,-7.651869,-1.2689269
0.8235521,4.8056154,2.1872895,-1.3693308,-0.79874814,-11.449073,-7.651869,-1.2689269
0.8226177,4.809265,2.269315,-1.2084758,-0.8605335,-11.410766,-7.038953,-1.0630256
0.82171744,4.8127584,2.269315,-1.2084758,-0.8605335,-11.410766,-7.038953,-1.0630256
0.8209318,4.8156443,2.334296,-1.0465556,-0.9042093,-11.247959,-6.493075,-0.8762778
0.82004225,4.8188934,2.334296,-1.0465556,-0.9042093,-11.247959,-6.493075,-0.8762778
0.81914276,4.822024,2.382233,-0.88676596,-0.93616724,-11.03727,-6.105214,-0.6607997
0.8182447,4.825134,2.382233,-0.88676596,-0.93616724,-11.03727,-6.105214,-0.6607997
0.8173383,4.8281326,2.410995,-0.7301721,-0.9617336,-10.898406,-5.6407394,-0.45010993
0.8164243,4.8311443,2.410995,-0.7301721,-0.9617336,-10.898406,-5.6407394,-0.45010993
0.81550986,4.8340015,2.418452,-0.5799698,-0.98410416,-10.697293,-5.257667,-0.31603462
0.81458664,4.836877,2.418452,-0.5799698,-0.98410416,-10.697293,-5.257667,-0.31603462
0.81367534,4.8395677,2.4035382,-0.43509385,-1.0011483,-10.5440645,-4.8841715,-0.08619126
0.81277716,4.8422136,2.4035382,-0.43509385,-1.0011483,-10.5440645,-4.8841715,-0.08619126
0.811865,4.8447213,2.3683846,-0.29874,-1.0192579,-10.271125,-4.6016555,-0.023942016
0.81094503,4.847245,2.3683846,-0.29874,-1.0192579,-10.271125,-4.6016555,-0.023942016
0.8100349,4.849568,2.3119254,-0.16984299,-1.0363021,-10.089166,-4.3957543,0.24899697
0.80913043,4.8518715,2.3119254,-0.16984299,-1.0363021,-10.089166,-4.3957543,0.24899697
0.8082184,4.853996,2.2352264,-0.04946811,-1.0554769,-9.969456,-4.237737,0.45010993
0.8073076,4.856115,2.2352264,-0.04946811,-1.0554769,-9.969456,-4.237737,0.45010993
0.8063914,4.858038,2.144679,0.061319392,-1.0757169,-9.92636,-4.146757,0.6607997
0.8054768,4.8599567,2.144679,0.061319392,-1.0757169,-9.92636,-4.146757,0.6607997
0.80455065,4.861669,2.0370872,0.16145425,-1.1002179,-9.792285,-4.1276035,0.78529817
0.8036196,4.863391,2.0370872,0.16145425,-1.1002179,-9.792285,-4.1276035,0.78529817
0.8026827,4.864893,1.9156471,0.25200173,-1.1268495,-9.77792,-4.1036615,1.0869676
0.80174536,4.866395,1.9156471,0.25200173,-1.1268495,-9.77792,-4.1036615,1.0869676
0.80078995,4.867691,1.7835543,0.33402708,-1.1545465,-9.734824,-4.2042184,1.3551182
0.79983515,4.8689866,1.7835543,0.33402708,-1.1545465,-9.734824,-4.2042184,1.3551182
0.79886186,4.8700733,1.6408089,0.40646508,-1.1811781,-9.706094,-4.31914,1.6136919
0.7978914,4.8711576,1.6408089,0.40646508,-1.1811781,-9.706094,-4.31914,1.6136919
0.79689157,4.8720474,1.4916719,0.47038093,-1.2056792,-9.696517,-4.4963107,1.9632454
0.7959043,4.8729277,1.4916719,0.47038093,-1.2056792,-9.696517,-4.4963107,1.9632454
0.794899,4.8736033,1.339339,0.5257747,-1.2269844,-9.710882,-4.6495395,2.0254946
0.79388213,4.874288,1.339339,0.5257747,-1.2269844,-9.710882,-4.6495395,2.0254946
0.79287523,4.8747635,1.1848757,0.57158107,-1.2440287,-9.864111,-4.8506527,2.207454
0.7918504,4.875248,1.1848757,0.57158107,-1.2440287,-9.864111,-4.8506527,2.207454
0.7908281,4.875544,1.0304123,0.60780007,-1.2578771,-10.060435,-5.032612,2.504335
0.78979766,4.875843,1.0304123,0.60780007,-1.2578771,-10.060435,-5.032612,2.504335
0.7887653,4.875968,0.8748838,0.63230115,-1.2653339,-10.28549,-5.415684,2.695871
0.78772485,4.876095,0.8748838,0.63230115,-1.2653339,-10.28549,-5.415684,2.695871
0.78669137,4.8760614,0.7225509,0.6450843,-1.2653339,-10.548853,-5.7508726,2.8299465
0.7856505,4.87603,0.7225509,0.6450843,-1.2653339,-10.548853,-5.7508726,2.8299465
0.7846076,4.8758616,0.5755444,0.64401907,-1.2578771,-10.850522,-6.191406,3.1316159
0.7835731,4.875697,0.5755444,0.64401907,-1.2578771,-10.850522,-6.191406,3.1316159
0.7825428,4.8754163,0.43706006,0.6312359,-1.2440287,-11.099519,-6.679823,3.3566709
0.7815093,4.8751364,0.43706006,0.6312359,-1.2440287,-11.099519,-6.679823,3.3566709
0.7804839,4.8747635,0.31029359,0.6067348,-1.2259191,-11.300632,-7.129933,3.5242648
0.77946055,4.874393,0.31029359,0.6067348,-1.2259191,-11.300632,-7.129933,3.5242648
0.7784482,4.8739543,0.19737557,0.5705158,-1.2035486,-11.415554,-7.52737,3.6391866
0.7774336,4.873517,0.19737557,0.5705158,-1.2035486,-11.415554,-7.52737,3.6391866
0.77643573,4.8730354,0.0972407,0.52364415,-1.1779822,-11.51611,-7.8912888,3.739743
0.7754314,4.8725533,0.0972407,0.52364415,-1.1779822,-11.51611,-7.8912888,3.739743
0.774437,4.8720536,0.012019549,0.46718514,-1.1577423,-11.473015,-8.231265,3.8594532
0.7734367,4.871552,0.012019549,0.46718514,-1.1577423,-11.473015,-8.231265,3.8594532
0.7724291,4.871049,-0.060418434,0.40113875,-1.1438938,-11.45865,-8.5473,4.012682
0.77142733,4.87055,-0.060418434,0.40113875,-1.1438938,-11.45865,-8.5473,4.012682
0.77041334,4.8700695,-0.11794271,0.32870078,-1.1396327,-11.358093,-8.911219,3.9839516
0.7693923,4.869587,-0.11794271,0.32870078,-1.1396327,-11.358093,-8.911219,3.9839516
0.7683459,4.869143,-0.16268381,0.24774067,-1.1449591,-11.18571,-9.270349,3.98874
0.7672986,4.8686996,-0.16268381,0.24774067,-1.1449591,-11.18571,-9.270349,3.98874
0.76621294,4.868313,-0.19144596,0.16038899,-1.1662643,-10.965444,-9.457097,3.98874
0.76512015,4.867924,-0.19144596,0.16038899,-1.1662643,-10.965444,-9.457097,3.98874
0.7639764,4.867605,-0.20742492,0.069841504,-1.2003528,-10.730812,-9.68694,3.845088
0.7628272,4.8672857,-0.20742492,0.069841504,-1.2003528,-10.730812,-9.68694,3.845088
0.761606,4.8670454,-0.21275125,-0.023901764,-1.2482897,-10.290278,-9.816227,3.7732618
0.76038796,4.866806,-0.21275125,-0.023901764,-1.2482897,-10.290278,-9.816227,3.7732618
0.75907254,4.866647,-0.20955546,-0.11657977,-1.310075,-9.859323,-9.911995,3.5577838
0.75776553,4.8664894,-0.20955546,-0.11657977,-1.310075,-9.859323,-9.911995,3.5577838
0.756361,4.866417,-0.19677228,-0.20606199,-1.3857088,-9.801862,-9.940725,3.394978
0.75496167,4.8663454,-0.19677228,-0.20606199,-1.3857088,-9.801862,-9.940725,3.394978
0.75345755,4.8663654,-0.175467,-0.29660946,-1.4730605,-9.653421,-9.9550905,3.2321723
0.7519592,4.866386,-0.175467,-0.29660946,-1.4730605,-9.653421,-9.9550905,3.2321723
0.75033146,4.8665004,-0.14990065,-0.38715693,-1.5710648,-9.404425,-9.950302,3.0262709
0.7487103,4.866614,-0.14990065,-0.38715693,-1.5710648,-9.404425,-9.950302,3.0262709
0.7469603,4.866821,-0.11900798,-0.47450864,-1.6765261,-9.155427,-9.9550905,2.992752
0.7452156,4.867026,-0.11900798,-0.47450864,-1.6765261,-9.155427,-9.9550905,2.992752
0.74333596,4.8673267,-0.08172372,-0.55759925,-1.7841177,-8.939949,-9.921572,2.8778305
0.7414615,4.8676257,-0.08172372,-0.55759925,-1.7841177,-8.939949,-9.921572,2.8778305
0.7394602,4.868016,-0.041243672,-0.633233,-1.8949052,-8.825027,-9.888053,2.7868507
0.73747075,4.8684015,-0.041243672,-0.633233,-1.8949052,-8.825027,-9.888053,2.7868507
0.7353382,4.8688774,0.0024321685,-0.70140994,-2.0078232,-8.676587,-9.80665,2.657564
0.7332246,4.869347,0.0024321685,-0.70140994,-2.0078232,-8.676587,-9.80665,2.657564
0.730971,4.8698997,0.05036907,-0.75893426,-2.1207414,-8.6574335,-9.864111,2.5761611
0.7287288,4.8704476,0.05036907,-0.75893426,-2.1207414,-8.6574335,-9.864111,2.5761611
0.72636765,4.8710704,0.09830597,-0.80793643,-2.2315288,-8.724471,-9.878476,2.408567
0.72401184,4.8716903,0.09830597,-0.80793643,-2.2315288,-8.724471,-9.878476,2.408567
0.7215318,4.8723693,0.14730814,-0.84628594,-2.3380551,-8.571242,-9.844957,2.1643584
0.7190585,4.8730454,0.14730814,-0.84628594,-2.3380551,-8.571242,-9.844957,2.1643584
0.71642536,4.8737555,0.19524503,-0.87504804,-2.441386,-8.461109,-9.911995,1.8722657
0.7138025,4.8744636,0.19524503,-0.87504804,-2.441386,-8.461109,-9.911995,1.8722657
0.71097326,4.875161,0.23785561,-0.89315754,-2.542586,-8.312668,-9.9550905,1.70946
0.70822465,4.8758354,0.23785561,-0.89315754,-2.542586,-8.312668,-9.9550905,1.70946
0.70822465,4.8758354,0.2772704,-0.90061444,-2.6373947,-8.288726,-10.0748005,1.5370775
0.70244956,4.8770423,0.2772704,-0.90061444,-2.6373947,-8.288726,-10.0748005,1.5370775
0.6995688,4.8775997,0.31348938,-0.90061444,-2.7300725,-8.236053,-10.0508585,1.2258313
0.6967015,4.87815,0.31348938,-0.90061444,-2.7300725,-8.236053,-10.0508585,1.2258313
0.6967015,4.87815,0.31348938,-0.90061444,-2.7300725,-8.236053,-10.0508585,1.2258313
0.6907762,4.879281,0.34757784,-0.8974186,-2.8195548,-8.087613,-10.01734,1.0007763
0.6907762,4.879281,0.34757784,-0.8974186,-2.8195548,-8.087613,-10.01734,1.0007763
0.68472296,4.880421,0.37740526,-0.89102703,-2.905841,-8.010999,-9.902418,0.79008657
0.68472296,4.880421,0.37740526,-0.89102703,-2.905841,-8.010999,-9.902418,0.79008657
0.678255,4.881607,0.40190634,-0.8814396,-2.988932,-7.9248075,-9.873688,0.6847417
0.6750787,4.8821793,0.42321163,-0.87291753,-3.0709572,-7.8290396,-9.653421,0.45489833
0.6750787,4.8821793,0.42321163,-0.87291753,-3.0709572,-7.8290396,-9.653421,0.45489833
0.6750787,4.8821793,0.4423864,-0.8622649,-3.1519172,-7.6375036,-9.471462,0.45489833
0.6673978,4.8835125,0.4423864,-0.8622649,-3.1519172,-7.6375036,-9.471462,0.45489833
0.6623089,4.8843784,0.4604959,-0.8494817,-3.2296815,-7.417237,-9.289502,0.40701428
0.65902656,4.884927,0.4604959,-0.8494817,-3.2296815,-7.417237,-9.289502,0.40701428
0.655648,4.8854675,0.4754096,-0.8324375,-3.3063807,-7.1873937,-9.054871,0.24420857
0.65227586,4.8860064,0.4754096,-0.8324375,-3.3063807,-7.1873937,-9.054871,0.24420857
0.64882815,4.8865304,0.48712748,-0.8090017,-3.3820145,-7.07726,-8.791509,0.25857377
0.64540744,4.8870497,0.48712748,-0.8090017,-3.3820145,-7.07726,-8.791509,0.25857377
0.641856,4.887553,0.4924538,-0.778109,-3.4555178,-6.909666,-8.480263,0.34476504
0.6383914,4.8880434,0.4924538,-0.778109,-3.4555178,-6.909666,-8.480263,0.34476504
0.6348454,4.888506,0.49458435,-0.7397595,-3.5236945,-6.775591,-8.212111,0.4261679
0.63130915,4.8889666,0.49458435,-0.7397595,-3.5236945,-6.775591,-8.212111,0.4261679
0.6277185,4.889389,0.4924538,-0.6939531,-3.589741,-6.7085533,-8.049306,0.49799395
0.6243026,4.8897905,0.4924538,-0.6939531,-3.589741,-6.7085533,-8.049306,0.49799395
0.6206767,4.8901663,0.4839317,-0.63855934,-3.650461,-6.71813,-7.881712,0.59376204
0.6168791,4.8905606,0.4839317,-0.63855934,-3.650461,-6.71813,-7.881712,0.59376204
0.61324024,4.8908763,0.46795273,-0.572513,-3.7047896,-6.7372837,-7.714118,0.6368576
0.6096103,4.8911924,0.46795273,-0.572513,-3.7047896,-6.7372837,-7.714118,0.6368576
0.60594946,4.8914485,0.44345164,-0.4990097,-3.7527266,-6.9000893,-7.627927,0.79487497
0.6022713,4.8917074,0.44345164,-0.4990097,-3.7527266,-6.9000893,-7.627927,0.79487497
0.59858745,4.8918834,0.40723267,-0.42018014,-3.795337,-7.005434,-7.6470804,0.90500826
0.5949044,4.892061,0.40723267,-0.42018014,-3.795337,-7.005434,-7.6470804,0.90500826
0.5912053,4.892152,0.36036104,-0.33282846,-3.8326213,-7.1730285,-7.690176,1.1109096
0.587514,4.8922443,0.36036104,-0.33282846,-3.8326213,-7.1730285,-7.690176,1.1109096
0.5838078,4.89223,0.3007062,-0.24015045,-3.8645792,-7.3789296,-7.7667904,1.2737153
0.5801014,4.8922195,0.3007062,-0.24015045,-3.8645792,-7.3789296,-7.7667904,1.2737153
0.57638556,4.8920774,0.22826824,-0.14853771,-3.8912108,-7.656657,-7.9966335,1.316811
0.5726733,4.8919396,0.22826824,-0.14853771,-3.8912108,-7.656657,-7.9966335,1.316811
0.56894505,4.891656,0.14304708,-0.054794434,-3.9167771,-7.85777,-8.24563,1.340753
0.56522393,4.8913774,0.14304708,-0.054794434,-3.9167771,-7.85777,-8.24563,1.340753
0.5614646,4.8909426,0.045042746,0.03468778,-3.9412782,-8.058883,-8.437167,1.3503298
0.5577422,4.890517,0.045042746,0.03468778,-3.9412782,-8.058883,-8.437167,1.3503298
0.5540079,4.8899226,-0.06574476,0.118843675,-3.9668446,-8.279149,-8.628703,1.2258313
0.5502581,4.889333,-0.06574476,0.118843675,-3.9668446,-8.279149,-8.628703,1.2258313
0.5464943,4.8885746,-0.1871849,0.19660798,-3.9977372,-8.39886,-8.743625,1.1875241
0.54273,4.887824,-0.1871849,0.19660798,-3.9977372,-8.39886,-8.743625,1.1875241
0.53894424,4.8869066,-0.31821242,0.26265436,-4.033956,-8.465898,-8.920795,1.1971009
0.53515434,4.885996,-0.31821242,0.26265436,-4.033956,-8.465898,-8.920795,1.1971009
0.53133476,4.884921,-0.45563155,0.3191134,-4.073371,-8.528147,-9.011775,1.2449849
0.527503,4.883852,-0.45563155,0.3191134,-4.073371,-8.528147,-9.011775,1.2449849
0.52365303,4.8826265,-0.59731174,0.3670503,-4.1191773,-8.5473,-9.107543,1.3263878
0.51979804,4.8814087,-0.59731174,0.3670503,-4.1191773,-8.5473,-9.107543,1.3263878
0.5158825,4.8800325,-0.7400572,0.40646508,-4.174571,-8.494628,-9.169792,1.4413095
0.5119811,4.8786707,-0.7400572,0.40646508,-4.174571,-8.494628,-9.169792,1.4413095
0.50801533,4.8771567,-0.8774763,0.4416188,-4.2363567,-8.37013,-9.203311,1.4987702
0.50404406,4.875651,-0.8774763,0.4416188,-4.2363567,-8.37013,-9.203311,1.4987702
0.5000123,4.8740063,-1.009569,0.47144622,-4.3045335,-8.279149,-9.232041,1.5658079
0.4959827,4.872374,-1.009569,0.47144622,-4.3045335,-8.279149,-9.232041,1.5658079
0.49187276,4.870614,-1.1363355,0.49381676,-4.3822975,-8.197746,-9.251195,1.7238252
0.48775652,4.868864,-1.1363355,0.49381676,-4.3822975,-8.197746,-9.251195,1.7238252
0.48356375,4.867,-1.2535146,0.51299155,-4.467519,-8.09719,-9.289502,1.8291701
0.4793644,4.865145,-1.2535146,0.51299155,-4.467519,-8.09719,-9.289502,1.8291701
0.47506887,4.8631887,-1.3611063,0.5279052,-4.561262,-8.015787,-9.433155,2.0207062
0.47077063,4.861244,-1.3611063,0.5279052,-4.561262,-8.015787,-9.433155,2.0207062
0.4663676,4.8592105,-1.4591106,0.53962314,-4.661397,-7.929596,-9.576807,2.2266076
0.4619618,4.8571873,-1.4591106,0.53962314,-4.661397,-7.929596,-9.576807,2.2266076
0.45743936,4.8550787,-1.5485929,0.5502758,-4.7689886,-7.97748,-9.758766,2.408567
0.45292312,4.8529863,-1.5485929,0.5502758,-4.7689886,-7.97748,-9.758766,2.408567
0.4482891,4.85081,-1.629553,0.55986315,-4.881907,-8.00621,-9.89763,2.4277205
0.44365212,4.848645,-1.629553,0.55986315,-4.881907,-8.00621,-9.89763,2.4277205
0.43890062,4.846406,-1.7030562,0.5651895,-4.9980206,-7.9966335,-10.055647,2.3319526
0.43414602,4.844179,-1.7030562,0.5651895,-4.9980206,-7.9966335,-10.055647,2.3319526
0.42927033,4.841893,-1.7691026,0.56838524,-5.1151996,-7.9152308,-10.19451,2.4037786
0.42439172,4.8396196,-1.7691026,0.56838524,-5.1151996,-7.9152308,-10.19451,2.4037786
0.4193933,4.837291,-1.8308879,0.5705158,-5.232379,-7.7667904,-10.299856,2.3894134
0.41439182,4.834974,-1.8308879,0.5705158,-5.232379,-7.7667904,-10.299856,2.3894134
0.40926996,4.832608,-1.8852165,0.5747769,-5.350623,-7.800309,-10.563218,2.4229321
0.40414506,4.830255,-1.8852165,0.5747769,-5.350623,-7.800309,-10.563218,2.4229321
0.3989004,4.8278565,-1.9342186,0.5790379,-5.4699326,-7.800309,-10.7356,2.3750482
0.39365274,4.8254704,-1.9342186,0.5790379,-5.4699326,-7.800309,-10.7356,2.3750482
0.38828647,4.823042,-1.9768292,0.58436424,-5.5903077,-7.8386164,-10.864887,2.2505496
0.3829171,4.8206263,-1.9768292,0.58436424,-5.5903077,-7.8386164,-10.864887,2.2505496
0.37743285,4.818166,-2.0141134,0.5918211,-5.7106824,-7.9487495,-10.931925,1.9440918
0.3719454,4.8157187,-2.0141134,0.5918211,-5.7106824,-7.9487495,-10.931925,1.9440918
0.36634138,4.813231,-2.0471365,0.5971474,-5.8310575,-8.025364,-11.013328,1.6041151
0.3607283,4.810755,-2.0471365,0.5971474,-5.8310575,-8.025364,-11.013328,1.6041151
0.3549886,4.8082423,-2.0780294,0.59821266,-5.9524975,-8.063671,-11.075577,1.3120226
0.34927437,4.805756,-2.0780294,0.59821266,-5.9524975,-8.063671,-11.075577,1.3120226
0.34346986,4.803254,-2.1035957,0.59608215,-6.0654154,-7.991845,-11.085154,1.0247183
0.33757463,4.8007283,-2.1035957,0.59608215,-6.0654154,-7.991845,-11.085154,1.0247183
0.33162504,4.798209,-2.1238358,0.58969057,-6.1698117,-7.8865004,-11.056423,0.79966336
0.3256608,4.7956986,-2.1238358,0.58969057,-6.1698117,-7.8865004,-11.056423,0.79966336
0.31960714,4.793188,-2.1344883,0.5811685,-6.267816,-7.7667904,-10.936713,0.5746084
0.3135448,4.7906895,-2.1344883,0.5811685,-6.267816,-7.7667904,-10.936713,0.5746084
0.30738932,4.7881956,-2.1366189,0.5705158,-6.357298,-7.393295,-10.831368,0.41180268
0.30123132,4.785716,-2.1366189,0.5705158,-6.357298,-7.393295,-10.831368,0.41180268
0.2949883,4.7832565,-2.1259663,0.563059,-6.4393234,-7.005434,-10.793061,0.36391866
0.28874287,4.7808113,-2.1259663,0.563059,-6.4393234,-7.005434,-10.793061,0.36391866
0.28242773,4.7783976,-2.104661,0.5609284,-6.5128264,-6.564901,-10.457873,0.30166942
0.276085,4.775988,-2.104661,0.5609284,-6.5128264,-6.564901,-10.457873,0.30166942
0.26969996,4.773623,-2.0705724,0.56838524,-6.577808,-6.253655,-10.160992,0.11971009
0.26331294,4.7712703,-2.0705724,0.56838524,-6.577808,-6.253655,-10.160992,0.11971009
0.25687048,4.768965,-2.0237007,0.5854295,-6.631071,-5.8466406,-9.854534,0.0047884034
0.25041974,4.7666698,-2.0237007,0.5854295,-6.631071,-5.8466406,-9.854534,0.0047884034
0.24392387,4.764433,-1.964046,0.6131264,-6.674747,-5.5162406,-9.557653,-0.08619126
0.23741975,4.762206,-1.964046,0.6131264,-6.674747,-5.5162406,-9.557653,-0.08619126
0.23088881,4.760046,-1.8948039,0.65254116,-6.7067046,-5.118803,-9.251195,-0.17238252
0.22423209,4.7578573,-1.8948039,0.65254116,-6.7067046,-5.118803,-9.251195,-0.17238252
0.21768661,4.7557807,-1.8170395,0.70154333,-6.723749,-4.7644615,-9.054871,-0.30166942
0.21115941,4.753722,-1.8170395,0.70154333,-6.723749,-4.7644615,-9.054871,-0.30166942
0.20452306,4.7517085,-1.7296878,0.7569371,-6.7301407,-4.3718123,-8.848969,-0.45968673
0.19799072,4.7497387,-1.7296878,0.7569371,-6.7301407,-4.3718123,-8.848969,-0.45968673
0.191507,4.74787,-1.633814,0.8176572,-6.7301407,-3.8402996,-8.647857,-0.47405192
0.18493727,4.7459884,-1.633814,0.8176572,-6.7301407,-3.8402996,-8.647857,-0.47405192
0.1783795,4.7442026,-1.5326139,0.88370353,-6.7162924,-3.5434184,-8.508993,-0.47405192
0.1718474,4.7424355,-1.5326139,0.88370353,-6.7162924,-3.5434184,-8.508993,-0.47405192
0.16532125,4.740768,-1.4271528,0.954011,-6.691791,-3.3614593,-8.456321,-0.4165911
0.15873562,4.7390966,-1.4271528,0.954011,-6.691791,-3.3614593,-8.456321,-0.4165911
0.15226582,4.737551,-1.3184958,1.0232532,-6.6534414,-3.1842883,-8.274361,-0.4261679
0.14578882,4.7360153,-1.3184958,1.0232532,-6.6534414,-3.1842883,-8.274361,-0.4261679
0.13935079,4.734578,-1.2130346,1.0861038,-6.6044393,-3.0454245,-8.09719,-0.51714754
0.13284765,4.733138,-1.2130346,1.0861038,-6.6044393,-3.0454245,-8.09719,-0.51714754
0.1264955,4.731814,-1.113965,1.1414975,-6.5447845,-2.8203697,-7.9104424,-0.59376204
0.12009186,4.7304897,-1.113965,1.1414975,-6.5447845,-2.8203697,-7.9104424,-0.59376204
0.113782,4.7292595,-1.0234175,1.1904997,-6.4712815,-2.4899697,-7.680599,-0.59376204
0.10743416,4.728033,-1.0234175,1.1904997,-6.4712815,-2.4899697,-7.680599,-0.59376204
0.101171434,4.726893,-0.9435227,1.2299145,-6.38606,-2.2697031,-7.4986396,-0.521936
0.09493362,4.7257686,-0.9435227,1.2299145,-6.38606,-2.2697031,-7.4986396,-0.521936
0.08874442,4.7247157,-0.87534577,1.2565461,-6.2955127,-1.9488802,-7.3549876,-0.37349546
0.08263518,4.723687,-0.87534577,1.2565461,-6.2955127,-1.9488802,-7.3549876,-0.37349546
0.076583765,4.722724,-0.81888676,1.2693293,-6.1975083,-1.6041151,-7.1826053,-0.20590134
0.07053216,4.7217712,-0.81888676,1.2693293,-6.1975083,-1.6041151,-7.1826053,-0.20590134
0.06457569,4.7208624,-0.77521086,1.2746556,-6.090982,-1.2354081,-7.015011,-0.17717093
0.05864354,4.7199693,-0.77521086,1.2746556,-6.090982,-1.2354081,-7.015011,-0.17717093
0.052799754,4.719138,-0.7411224,1.268264,-5.9801946,-0.8762778,-6.8522053,0
0.046966996,4.718319,-0.7411224,1.268264,-5.9801946,-0.8762778,-6.8522053,0
0.041206226,4.717604,-0.7208824,1.2533504,-5.867276,-0.61291564,-6.6606693,0.22026655
0.035471536,4.7168965,-0.7208824,1.2533504,-5.867276,-0.61291564,-6.6606693,0.22026655
0.029793479,4.7162223,-0.7091645,1.2341756,-5.747967,-0.5554548,-6.4882865,0.33997664
0.024142085,4.7155557,-0.7091645,1.2341756,-5.747967,-0.5554548,-6.4882865,0.33997664
0.018587084,4.714907,-0.7049034,1.2128702,-5.6212,-0.5650316,-6.3542113,0.521936
0.013040636,4.714265,-0.7049034,1.2128702,-5.6212,-0.5650316,-6.3542113,0.521936
0.0075537222,4.7136326,-0.70703393,1.1819776,-5.485912,-0.33039984,-6.1387334,0.5746084
0.0021033557,4.71301,-0.70703393,1.1819776,-5.485912,-0.33039984,-6.1387334,0.5746084
6.2799635,4.7123976,-0.71236026,1.139367,-5.3431664,0.1436521,-5.9663506,0.7565677
6.2745986,4.7117863,-0.71236026,1.139367,-5.3431664,0.1436521,-5.9663506,0.7565677
6.2745986,4.7117863,-0.71236026,1.139367,-5.3431664,0.1436521,-5.9663506,0.7565677
6.2638936,4.71052,-0.72194767,1.0892996,-5.1940293,0.6799533,-5.779603,0.91937345
6.258791,4.7098875,-0.7336656,1.0307101,-5.047023,1.1683705,-5.592855,1.0869676
6.2536683,4.709258,-0.7336656,1.0307101,-5.047023,1.1683705,-5.592855,1.0869676
6.2536683,4.709258,-0.7336656,1.0307101,-5.047023,1.1683705,-5.592855,1.0869676
6.243585,4.707965,-0.7453835,0.96572894,-4.9042773,1.5753847,-5.363012,1.3359646
6.238831,4.707325,-0.7560361,0.8922257,-4.762597,2.0398598,-5.142745,1.436521
6.238831,4.707325,-0.7560361,0.8922257,-4.762597,2.0398598,-5.142745,1.436521
6.2292666,4.706026,-0.76668876,0.8155266,-4.625178,2.60968,-4.8745947,1.6184803
6.224666,4.7053814,-0.76668876,0.8155266,-4.625178,2.60968,-4.8745947,1.6184803
6.219605,4.7046337,-0.77521086,0.7345665,-4.4930854,3.217807,-4.596867,1.6472107
6.215462,4.7040243,-0.77521086,0.7345665,-4.4930854,3.217807,-4.596867,1.6472107
6.2110205,4.703333,-0.7858635,0.65041065,-4.3695145,3.9695864,-4.3287168,1.70946
6.206551,4.7026405,-0.7858635,0.65041065,-4.3695145,3.9695864,-4.3287168,1.70946
6.202186,4.701931,-0.79332036,0.56732,-4.2597923,4.5154643,-3.9935284,1.7381904
6.197821,4.7012234,-0.79332036,0.56732,-4.2597923,4.5154643,-3.9935284,1.7381904
6.193564,4.7005033,-0.80077726,0.49488202,-4.1564617,4.6782703,-3.7828386,1.7477672
6.189311,4.699786,-0.80077726,0.49488202,-4.1564617,4.6782703,-3.7828386,1.7477672
6.1850986,4.699048,-0.80716884,0.44268405,-4.0467396,4.453215,-3.5482068,1.7190368
6.180969,4.698326,-0.80716884,0.44268405,-4.0467396,4.453215,-3.5482068,1.7190368
6.1769524,4.697589,-0.8135604,0.4053998,-3.9221034,4.390966,-3.2465374,1.4652514
6.172923,4.6968513,-0.8135604,0.4053998,-3.9221034,4.390966,-3.2465374,1.4652514
6.1690373,4.6960983,-0.819952,0.37131134,-3.7814887,4.630386,-2.930503,1.1731589
6.165128,4.695342,-0.819952,0.37131134,-3.7814887,4.630386,-2.930503,1.1731589
6.1613884,4.6945686,-0.8306046,0.33722287,-3.6280906,4.903325,-2.7102363,0.92895025
6.1576595,4.6937985,-0.8306046,0.33722287,-3.6280906,4.903325,-2.7102363,0.92895025
6.154077,4.693004,-0.8465836,0.30526495,-3.4672356,5.291186,-2.5809495,0.90500826
6.150505,4.6922126,-0.8465836,0.30526495,-3.4672356,5.291186,-2.5809495,0.90500826
6.1470804,4.691391,-0.8668236,0.27650282,-3.3010542,5.473145,-2.552219,0.78050977
6.1436625,4.690571,-0.8668236,0.27650282,-3.3010542,5.473145,-2.552219,0.78050977
6.140405,4.689723,-0.89025944,0.253067,-3.1327426,5.5258174,-2.6479871,0.7517793
6.1371484,4.688875,-0.89025944,0.253067,-3.1327426,5.5258174,-2.6479871,0.7517793
6.1340775,4.6880035,-0.91689104,0.23708802,-2.9591045,5.5162406,-2.7389667,0.7661445
6.131004,4.687131,-0.91689104,0.23708802,-2.9591045,5.5162406,-2.7389667,0.7661445
6.12812,4.686238,-0.9424574,0.22643538,-2.78014,5.425261,-2.9879637,0.81402856
6.1252213,4.6853404,-0.9424574,0.22643538,-2.78014,5.425261,-2.9879637,0.81402856
6.122512,4.6844196,-0.9680238,0.22217433,-2.5915883,5.2768207,-3.1603463,0.8762778
6.1198044,4.6835003,-0.9680238,0.22217433,-2.5915883,5.2768207,-3.1603463,0.8762778
6.1172833,4.6825542,-0.9946554,0.22217433,-2.4009058,5.133168,-3.4524388,0.81881696
6.1147623,4.6816087,-0.9946554,0.22217433,-2.4009058,5.133168,-3.4524388,0.81881696
6.112434,4.6806374,-1.0223522,0.22750065,-2.2059624,4.9655743,-3.6152446,0.7565677
6.1101055,4.6796656,-1.0223522,0.22750065,-2.2059624,4.9655743,-3.6152446,0.7565677
6.107971,4.678666,-1.0511143,0.24028382,-2.0078232,4.7500963,-3.821146,0.5746084
6.1058364,4.6776667,-1.0511143,0.24028382,-2.0078232,4.7500963,-3.821146,0.5746084
6.103894,4.6766386,-1.0809418,0.25839332,-1.8107493,4.55856,-3.9983168,0.39264908
6.101952,4.6756105,-1.0809418,0.25839332,-1.8107493,4.55856,-3.9983168,0.39264908
6.1002016,4.6745496,-1.1128997,0.2796986,-1.6126101,4.343082,-4.156334,0.15801731
6.0984516,4.6734886,-1.1128997,0.2796986,-1.6126101,4.343082,-4.156334,0.15801731
6.0968885,4.6723914,-1.1480534,0.30526495,-1.4197973,4.1659107,-4.357447,-0.07182605
6.0953255,4.671294,-1.1480534,0.30526495,-1.4197973,4.1659107,-4.357447,-0.07182605
6.093941,4.670156,-1.1832072,0.33296183,-1.2355065,4.0557775,-4.4244847,-0.37828386
6.0925527,4.669015,-1.1832072,0.33296183,-1.2355065,4.0557775,-4.4244847,-0.37828386
6.0913434,4.667841,-1.2183609,0.3606587,-1.0597379,4.10845,-4.525041,-0.61770403
6.090133,4.666666,-1.2183609,0.3606587,-1.0597379,4.10845,-4.525041,-0.61770403
6.089078,4.665449,-1.2535146,0.38729033,-0.9010135,4.2425256,-4.525041,-0.91458505
6.088024,4.664235,-1.2535146,0.38729033,-0.9010135,4.2425256,-4.525041,-0.91458505
6.0871124,4.662989,-1.2865378,0.41392192,-0.7572028,4.357447,-4.6160207,-1.0582372
6.0861998,4.661743,-1.2865378,0.41392192,-0.7572028,4.357447,-4.6160207,-1.0582372
6.085416,4.660471,-1.3174305,0.4448146,-0.62724054,4.5202527,-4.673482,-1.1779473
6.08463,4.6591983,-1.3174305,0.4448146,-0.62724054,4.5202527,-4.673482,-1.1779473
6.083956,4.6578975,-1.3472579,0.47890306,-0.516453,4.572925,-4.7548847,-1.412579
6.083281,4.656598,-1.3472579,0.47890306,-0.516453,4.572925,-4.7548847,-1.412579
6.082696,4.655275,-1.3749548,0.51725256,-0.4248403,4.6112323,-4.865018,-1.5370775
6.0820994,4.6539288,-1.3749548,0.51725256,-0.4248403,4.6112323,-4.865018,-1.5370775
6.0815883,4.6525917,-1.4005212,0.55773264,-0.35133705,4.6399627,-5.00867,-1.6807296
6.0810633,4.651222,-1.4005212,0.55773264,-0.35133705,4.6399627,-5.00867,-1.6807296
6.0806108,4.6498775,-1.4228916,0.6003432,-0.2927475,4.5633483,-5.2289367,-1.7764976
6.080156,4.6485276,-1.4228916,0.6003432,-0.2927475,4.5633483,-5.2289367,-1.7764976
6.079745,4.6471643,-1.4420664,0.64401907,-0.24587587,4.4675803,-5.4300494,-1.8243817
6.0793314,4.6457977,-1.4420664,0.64401907,-0.24587587,4.4675803,-5.4300494,-1.8243817
6.0789475,4.6444197,-1.4569801,0.6844991,-0.21285266,4.333505,-5.7365074,-1.8100165
6.0785627,4.6430416,-1.4569801,0.6844991,-0.21285266,4.333505,-5.7365074,-1.8100165
6.0782003,4.641662,-1.4708285,0.7239139,-0.18835159,4.1659107,-5.9280434,-1.7525556
6.077832,4.6402655,-1.4708285,0.7239139,-0.18835159,4.1659107,-5.9280434,-1.7525556
6.077488,4.6388803,-1.4825464,0.76119816,-0.16917682,3.9791632,-6.1866174,-1.8004397
6.077142,4.637491,-1.4825464,0.76119816,-0.16917682,3.9791632,-6.1866174,-1.8004397
6.0768085,4.6361046,-1.4889381,0.7931561,-0.15532838,3.8115692,-6.4547677,-1.7525556
6.076469,4.6346993,-1.4889381,0.7931561,-0.15532838,3.8115692,-6.4547677,-1.7525556
6.0761466,4.633319,-1.4942644,0.8197877,-0.14467573,3.620033,-6.631939,-1.7381904
6.0758204,4.6319284,-1.4942644,0.8197877,-0.14467573,3.620033,-6.631939,-1.7381904
6.0755005,4.630533,-1.4995908,0.83896244,-0.13828415,3.4476504,-6.8761473,-1.70946
6.075179,4.629139,-1.4995908,0.83896244,-0.13828415,3.4476504,-6.8761473,-1.70946
6.074859,4.627746,-1.5027865,0.8517456,-0.13508835,3.2704794,-7.0581064,-1.5945383
6.0745387,4.626358,-1.5027865,0.8517456,-0.13508835,3.2704794,-7.0581064,-1.5945383
6.074218,4.6249714,-1.500656,0.8581372,-0.1308273,3.1890767,-7.216124,-1.5035586
6.0738955,4.623586,-1.500656,0.8581372,-0.1308273,3.1890767,-7.216124,-1.5035586
6.073571,4.6222086,-1.4974601,0.8549414,-0.1276315,3.0693667,-7.4028716,-1.3551182
6.073245,4.62083,-1.4974601,0.8549414,-0.1276315,3.0693667,-7.4028716,-1.3551182
6.072914,4.619469,-1.4900033,0.845354,-0.12656625,2.9640217,-7.5704656,-1.1875241
6.0725813,4.6181083,-1.4900033,0.845354,-0.12656625,2.9640217,-7.5704656,-1.1875241
6.07224,4.616768,-1.4804159,0.8283098,-0.12869677,2.7964275,-7.714118,-1.0007763
6.071897,4.615429,-1.4804159,0.8283098,-0.12869677,2.7964275,-7.714118,-1.0007763
6.07155,4.614105,-1.464437,0.8038087,-0.13295783,2.8634653,-7.809886,-0.9959879
6.0712013,4.6127825,-1.464437,0.8038087,-0.13295783,2.8634653,-7.809886,-0.9959879
6.0708485,4.611483,-1.4399359,0.7771771,-0.13295783,2.753332,-7.929596,-0.866701
6.0704985,4.610202,-1.4399359,0.7771771,-0.13295783,2.753332,-7.929596,-0.866701
6.070155,4.608962,-1.4133043,0.7473497,-0.1308273,2.6671407,-8.030152,-0.7278373
6.0698133,4.607732,-1.4133043,0.7473497,-0.1308273,2.6671407,-8.030152,-0.7278373
6.069477,4.606532,-1.3802811,0.7143265,-0.1308273,2.6144683,-8.09719,-0.6655881
6.069141,4.605335,-1.3802811,0.7143265,-0.1308273,2.6144683,-8.09719,-0.6655881
6.068826,4.604191,-1.3419316,0.67917275,-0.12869677,2.633622,-8.173804,-0.48841715
6.0685105,4.6030436,-1.3419316,0.67917275,-0.12869677,2.633622,-8.173804,-0.48841715
6.0682144,4.601946,-1.3014516,0.64082325,-0.12550098,2.5953147,-8.2169,-0.41180268
6.067913,4.6008286,-1.3014516,0.64082325,-0.12550098,2.5953147,-8.2169,-0.41180268
6.067624,4.5997634,-1.2556452,0.59821266,-0.122305185,2.6527755,-8.274361,-0.39264908
6.067333,4.598693,-1.2556452,0.59821266,-0.122305185,2.6527755,-8.274361,-0.39264908
6.0670633,4.597691,-1.206643,0.5545368,-0.121239915,2.6623523,-8.317456,-0.29688102
6.066789,4.596672,-1.206643,0.5545368,-0.121239915,2.6623523,-8.317456,-0.29688102
6.0665264,4.5957074,-1.1533798,0.5087305,-0.11910939,2.753332,-8.322245,-0.21068975
6.066269,4.594762,-1.1533798,0.5087305,-0.11910939,2.753332,-8.322245,-0.21068975
6.06601,4.5938344,-1.097986,0.4629241,-0.11697886,2.7820623,-8.298303,-0.21068975
6.0657454,4.5928864,-1.097986,0.4629241,-0.11697886,2.7820623,-8.298303,-0.21068975
6.065496,4.5920067,-1.0404618,0.41605246,-0.11484833,2.8634653,-8.255207,-0.11492168
6.065247,4.59113,-1.0404618,0.41605246,-0.11484833,2.8634653,-8.255207,-0.11492168
6.0650034,4.5903,-0.9818722,0.37024608,-0.11271781,2.9352913,-8.2169,-0.095768064
6.064758,4.5894647,-0.9818722,0.37024608,-0.11271781,2.9352913,-8.2169,-0.095768064
6.064523,4.588689,-0.92221737,0.32657024,-0.10952201,3.0023289,-8.192958,-0.05746084
6.064288,4.5879107,-0.92221737,0.32657024,-0.10952201,3.0023289,-8.192958,-0.05746084
6.0640597,4.5871825,-0.8614973,0.2828944,-0.106326215,3.0214825,-8.130709,-0.05746084
6.0638304,4.5864506,-0.8614973,0.2828944,-0.106326215,3.0214825,-8.130709,-0.05746084
6.0636106,4.585768,-0.8018425,0.23921856,-0.09993463,3.0693667,-8.0684595,-0.07182605
6.0633907,4.585088,-0.8018425,0.23921856,-0.09993463,3.0693667,-8.0684595,-0.07182605
6.0631814,4.5844545,-0.7421877,0.19767325,-0.092477776,3.1316159,-8.078036,-0.07182605
6.062973,4.5838223,-0.7421877,0.19767325,-0.092477776,3.1316159,-8.078036,-0.07182605
6.062774,4.5832405,-0.68359816,0.16038899,-0.08502093,3.145981,-7.991845,-0.090979666
6.0625753,4.5826573,-0.68359816,0.16038899,-0.08502093,3.145981,-7.991845,-0.090979666
6.0623975,4.5821266,-0.62607384,0.12417,-0.07223775,3.0933087,-8.034941,-0.076614454
6.0622196,4.5815964,-0.62607384,0.12417,-0.07223775,3.0933087,-8.034941,-0.076614454
6.06206,4.5811124,-0.5706801,0.0911468,-0.053062994,3.098097,-7.9631147,-0.16280572
6.0618997,4.580626,-0.5706801,0.0911468,-0.053062994,3.098097,-7.9631147,-0.16280572
6.06176,4.580183,-0.51848215,0.060254127,-0.03069244,3.0023289,-8.039729,-0.34476504
6.061621,4.5797405,-0.51848215,0.060254127,-0.03069244,3.0023289,-8.039729,-0.34476504
6.0615077,4.579339,-0.46947998,0.033622514,-0.004060829,2.9783869,-8.082825,-0.44532153
6.0613937,4.5789366,-0.46947998,0.033622514,-0.004060829,2.9783869,-8.082825,-0.44532153
6.0613103,4.578576,-0.4215431,0.008056169,0.024701312,2.9496565,-8.111555,-0.49799395
6.061227,4.578216,-0.4215431,0.008056169,0.024701312,2.9496565,-8.111555,-0.49799395
6.0611687,4.577887,-0.3757367,-0.015379649,0.05772451,2.930503,-8.173804,-0.6751649
6.0611105,4.5775585,-0.3757367,-0.015379649,0.05772451,2.930503,-8.173804,-0.6751649
6.0610833,4.5772614,-0.33525667,-0.037750203,0.09074771,2.8921957,-8.202535,-0.7613561
6.0610566,4.5769634,-0.33525667,-0.037750203,0.09074771,2.8921957,-8.202535,-0.7613561
6.0610604,4.5766897,-0.29584187,-0.05692496,0.1269667,2.858677,-8.250419,-0.89543146
6.0610642,4.576417,-0.29584187,-0.05692496,0.1269667,2.858677,-8.250419,-0.89543146
6.0610995,4.5761557,-0.26068816,-0.07503446,0.16425095,2.858677,-8.279149,-1.0582372
6.061135,4.5758944,-0.26068816,-0.07503446,0.16425095,2.858677,-8.279149,-1.0582372
6.0612082,4.575659,-0.22766495,-0.091013424,0.20153521,2.8491,-8.307879,-1.1013328
6.0612817,4.575423,-0.22766495,-0.091013424,0.20153521,2.8491,-8.307879,-1.1013328
6.0613904,4.57521,-0.19783755,-0.105927125,0.23562367,2.8203697,-8.355764,-1.1444284
6.0614986,4.574997,-0.19783755,-0.105927125,0.23562367,2.8203697,-8.355764,-1.1444284
6.0616426,4.5747876,-0.1722712,-0.11977556,0.26864687,2.801216,-8.403648,-1.2785037
6.061786,4.574579,-0.1722712,-0.11977556,0.26864687,2.801216,-8.403648,-1.2785037
6.061966,4.574396,-0.14777012,-0.13468927,0.29953954,2.7629087,-8.465898,-1.2258313
6.061966,4.574396,-0.14777012,-0.13468927,0.29953954,2.7629087,-8.465898,-1.2258313
6.062342,4.574043,-0.124334306,-0.14853771,0.32936695,2.7868507,-8.451532,-1.316811
6.0625596,4.573866,-0.124334306,-0.14853771,0.32936695,2.7868507,-8.451532,-1.316811
6.0627785,4.5737324,-0.09983322,-0.15705982,0.35599855,2.825158,-8.532935,-1.3120226
6.0630207,4.573585,-0.09983322,-0.15705982,0.35599855,2.825158,-8.532935,-1.3120226
6.063286,4.5734496,-0.07852793,-0.16451667,0.37836912,2.8395233,-8.561666,-1.3934253
6.0635443,4.573317,-0.07852793,-0.16451667,0.37836912,2.8395233,-8.561666,-1.3934253
6.063834,4.5731955,-0.057222642,-0.17197353,0.3996744,2.8395233,-8.595184,-1.4460979
6.064137,4.5730686,-0.057222642,-0.17197353,0.3996744,2.8395233,-8.595184,-1.4460979
6.064416,4.572972,-0.035917353,-0.17516932,0.41884917,2.801216,-8.662222,-1.508347
6.0647283,4.5728636,-0.035917353,-0.17516932,0.41884917,2.801216,-8.662222,-1.508347
6.0650673,4.572763,-0.015677327,-0.17623459,0.4358934,2.6767175,-8.66701,-1.5705963
6.0650673,4.572763,-0.015677327,-0.17623459,0.4358934,2.6767175,-8.66701,-1.5705963
6.065778,4.5725574,0.001366904,-0.17943038,0.44974184,2.5617957,-8.724471,-1.7046716
6.066154,4.5724545,0.001366904,-0.17943038,0.44974184,2.5617957,-8.724471,-1.7046716
6.0665474,4.572364,0.017345872,-0.18262617,0.462525,2.528277,-8.6813755,-1.7381904
6.06694,4.5722733,0.017345872,-0.18262617,0.462525,2.528277,-8.6813755,-1.7381904
6.0673447,4.572196,0.033324838,-0.19008303,0.47424293,2.5617957,-8.738836,-1.8148049
6.0677485,4.5721188,0.033324838,-0.19008303,0.47424293,2.5617957,-8.738836,-1.8148049
6.0681677,4.5720553,0.047173277,-0.19647461,0.4859608,2.5713725,-8.796297,-1.8004397
6.068591,4.571991,0.047173277,-0.19647461,0.4859608,2.5713725,-8.796297,-1.8004397
6.0690374,4.5719323,0.05995645,-0.20180093,0.49767873,2.5091233,-8.868123,-1.8866309
6.0694814,4.571874,0.05995645,-0.20180093,0.49767873,2.5091233,-8.868123,-1.8866309
6.0699296,4.5718307,0.07273962,-0.20712726,0.5051356,2.5953147,-8.90643,-1.9057846
6.070377,4.5717874,0.07273962,-0.20712726,0.5051356,2.5953147,-8.90643,-1.9057846
6.0708303,4.5717564,0.08552279,-0.21564937,0.5115272,2.6288335,-8.959103,-1.9201498
6.071283,4.5717254,0.08552279,-0.21564937,0.5115272,2.6288335,-8.959103,-1.9201498
6.071747,4.571706,0.1004365,-0.21884516,0.5157882,2.5809495,-8.959103,-1.9393034
6.07221,4.5716867,0.1004365,-0.21884516,0.5157882,2.5809495,-8.959103,-1.9393034
6.07268,4.5716815,0.1153502,-0.21991043,0.5211145,2.5474305,-8.939949,-1.9488802
6.073151,4.5716763,0.1153502,-0.21991043,0.5211145,2.5474305,-8.939949,-1.9488802
6.0736356,4.5716825,0.13026391,-0.22204095,0.52644086,2.5330653,-8.963891,-2.030283
6.074119,4.571689,0.13026391,-0.22204095,0.52644086,2.5330653,-8.963891,-2.030283
6.0746055,4.57171,0.1451776,-0.22310622,0.5296367,2.5378537,-8.963891,-2.0398598
6.075092,4.571732,0.1451776,-0.22310622,0.5296367,2.5378537,-8.963891,-2.0398598
6.0755835,4.5717697,0.16009131,-0.21991043,0.534963,2.4995465,-9.030929,-1.9967642
6.076074,4.571807,0.16009131,-0.21991043,0.534963,2.4995465,-9.030929,-1.9967642
6.0765734,4.571856,0.17180921,-0.21564937,0.539224,2.4372973,-9.030929,-1.982399
6.0770726,4.571905,0.17180921,-0.21564937,0.539224,2.4372973,-9.030929,-1.982399
6.0775743,4.5719676,0.1845924,-0.2113883,0.5402893,2.4277205,-9.131485,-1.982399
6.0780745,4.5720296,0.1845924,-0.2113883,0.5402893,2.4277205,-9.131485,-1.982399
6.0785747,4.5721087,0.19844083,-0.20606199,0.54241985,2.4181437,-9.323022,-1.9201498
6.079074,4.572188,0.19844083,-0.20606199,0.54241985,2.4181437,-9.323022,-1.9201498
6.079556,4.5722938,0.21228927,-0.19753987,0.5456156,2.4660277,-9.423578,-1.7669208
6.080033,4.5723987,0.21228927,-0.19753987,0.5456156,2.4660277,-9.423578,-1.7669208
6.080502,4.572529,0.22933349,-0.19008303,0.54668087,2.5761611,-9.548077,-1.7764976
6.080971,4.5726595,0.22933349,-0.19008303,0.54668087,2.5761611,-9.548077,-1.7764976
6.081422,4.5728235,0.24850826,-0.1815609,0.54241985,2.5378537,-9.605537,-1.6472107
6.0818706,4.5729866,0.24850826,-0.1815609,0.54241985,2.5378537,-9.605537,-1.6472107
6.082332,4.5731554,0.26874828,-0.17197353,0.534963,2.384625,-9.672575,-1.6807296
6.082794,4.573325,0.26874828,-0.17197353,0.534963,2.384625,-9.672575,-1.6807296
6.0832562,4.573511,0.28792304,-0.16132088,0.5275061,2.255338,-9.864111,-1.6041151
6.083718,4.573698,0.28792304,-0.16132088,0.5275061,2.255338,-9.864111,-1.6041151
6.0841327,4.574041,0.30816308,-0.14853771,0.518984,2.3511062,-10.261548,-1.3263878
6.0845466,4.574383,0.30816308,-0.14853771,0.518984,2.3511062,-10.261548,-1.3263878
6.085097,4.5748053,0.33479467,-0.12936294,0.51259243,2.0925324,-10.419566,-1.3599066
6.085643,4.5752296,0.33479467,-0.12936294,0.51259243,2.0925324,-10.419566,-1.3599066
6.0862794,4.5755377,0.36675262,-0.106992394,0.5072661,1.5227122,-10.228029,-1.6328455
6.0869184,4.575846,0.36675262,-0.106992394,0.5072661,1.5227122,-10.228029,-1.6328455
6.0875587,4.5761905,0.3976453,-0.091013424,0.50833136,1.067814,-10.132261,-1.7669208
6.088198,4.5765343,0.3976453,-0.091013424,0.50833136,1.067814,-10.132261,-1.7669208
6.0888433,4.5769105,0.4242769,-0.08994816,0.5104619,1.2354081,-10.25676,-1.6759412
6.0894885,4.5772867,0.4242769,-0.08994816,0.5104619,1.2354081,-10.25676,-1.6759412
6.090143,4.577702,0.44345164,-0.09420922,0.5104619,1.2880806,-10.505757,-1.5562311
6.0907984,4.5781174,0.44345164,-0.09420922,0.5104619,1.2880806,-10.505757,-1.5562311
6.0914507,4.578566,0.46475694,-0.09847028,0.5051356,1.2401965,-10.668563,-1.4987702
6.0921016,4.579013,0.46475694,-0.09847028,0.5051356,1.2401965,-10.668563,-1.4987702
6.0927505,4.579481,0.48606223,-0.1037966,0.5008745,1.2401965,-10.692505,-1.4939818
6.0934005,4.5799494,0.48606223,-0.1037966,0.5008745,1.2401965,-10.692505,-1.4939818
6.0940466,4.5804567,0.5073675,-0.110188186,0.49661347,1.2641385,-10.721235,-1.3790601
6.0947003,4.58097,0.5073675,-0.110188186,0.49661347,1.2641385,-10.721235,-1.3790601
6.0953116,4.581478,0.52760756,-0.11764504,0.48809135,1.2593501,-10.730812,-1.3455414
6.095971,4.5820255,0.52760756,-0.11764504,0.48809135,1.2593501,-10.730812,-1.3455414
6.096642,4.582597,0.54465175,-0.122971356,0.47850397,1.2880806,-10.721235,-1.388637
6.097238,4.583103,0.54465175,-0.122971356,0.47850397,1.2880806,-10.721235,-1.388637
6.09786,4.583658,0.5595655,-0.12723242,0.4689166,1.3024458,-10.745177,-1.3599066
6.098477,4.584208,0.5595655,-0.12723242,0.4689166,1.3024458,-10.745177,-1.3599066
6.0990815,4.5847797,0.57234865,-0.12723242,0.45613343,1.2449849,-10.821792,-1.316811
6.099689,4.585352,0.57234865,-0.12723242,0.45613343,1.2449849,-10.821792,-1.316811
6.1002817,4.5859413,0.5830013,-0.12829769,0.44015446,1.1109096,-10.817003,-1.2737153
6.100872,4.586526,0.5830013,-0.12829769,0.44015446,1.1109096,-10.817003,-1.2737153
6.101448,4.5871024,0.5915234,-0.12936294,0.42524076,1.0295067,-10.831368,-1.364695
6.102026,4.5876803,0.5915234,-0.12936294,0.42524076,1.0295067,-10.831368,-1.364695
6.1025896,4.5882607,0.597915,-0.13149348,0.4081965,0.9768343,-10.836157,-1.3934253
6.1031504,4.588838,0.597915,-0.13149348,0.4081965,0.9768343,-10.836157,-1.3934253
6.1036925,4.589416,0.6043066,-0.133624,0.390087,0.9864111,-10.82658,-1.412579
6.104235,4.5899944,0.6043066,-0.133624,0.390087,0.9864111,-10.82658,-1.412579
6.1047587,4.5905695,0.6064371,-0.13895033,0.37091225,1.0390835,-10.860099,-1.4269443
6.105283,4.5911446,0.6064371,-0.13895033,0.37091225,1.0390835,-10.860099,-1.4269443
6.10579,4.591729,0.6096329,-0.14427665,0.35280275,1.0869676,-10.884041,-1.3694834
6.1063004,4.592316,0.6096329,-0.14427665,0.35280275,1.0869676,-10.884041,-1.3694834
6.1067877,4.592903,0.613894,-0.14853771,0.333628,1.067814,-10.879252,-1.3503298
6.107275,4.5934887,0.613894,-0.14853771,0.333628,1.067814,-10.879252,-1.3503298
6.1077447,4.594075,0.61708975,-0.15386403,0.31445324,1.163582,-10.850522,-1.3503298
6.1082144,4.5946608,0.61708975,-0.15386403,0.31445324,1.163582,-10.850522,-1.3503298
6.1086645,4.595239,0.6213508,-0.15812509,0.29634374,1.1923125,-10.759542,-1.3838485
6.109114,4.5958157,0.6213508,-0.15812509,0.29634374,1.1923125,-10.759542,-1.3838485
6.1095476,4.596401,0.6245466,-0.16238615,0.27823424,1.2449849,-10.682928,-1.3263878
6.1099806,4.5969853,0.6245466,-0.16238615,0.27823424,1.2449849,-10.682928,-1.3263878
6.1103945,4.597565,0.62667716,-0.16451667,0.26012474,1.2976574,-10.644621,-1.3311762
6.1108074,4.5981436,0.62667716,-0.16451667,0.26012474,1.2976574,-10.644621,-1.3311762
6.111198,4.598715,0.62880766,-0.1666472,0.24094999,1.340753,-10.553641,-1.3359646
6.111588,4.599285,0.62880766,-0.1666472,0.24094999,1.340753,-10.553641,-1.3359646
6.111964,4.599869,0.62880766,-0.16771246,0.22177523,1.388637,-10.481815,-1.2545617
6.11234,4.600451,0.62880766,-0.16771246,0.22177523,1.388637,-10.481815,-1.2545617
6.1126895,4.601017,0.6277424,-0.1666472,0.20153521,1.3790601,-10.386047,-1.283292
6.113038,4.6015816,0.6277424,-0.1666472,0.20153521,1.3790601,-10.386047,-1.283292
6.1133704,4.6021442,0.6245466,-0.1634514,0.18555625,1.460463,-10.309433,-1.2401965
6.1137004,4.6027036,0.6245466,-0.1634514,0.18555625,1.460463,-10.309433,-1.2401965
6.114019,4.6032624,0.6192203,-0.15919036,0.17170781,1.4460979,-10.208876,-1.2114661
6.1143355,4.6038184,0.6192203,-0.15919036,0.17170781,1.4460979,-10.208876,-1.2114661
6.114634,4.6043587,0.61069816,-0.1549293,0.15892464,1.5275006,-10.156203,-1.1875241
6.11493,4.6048965,0.61069816,-0.1549293,0.15892464,1.5275006,-10.156203,-1.1875241
6.115198,4.605411,0.6000455,-0.14960296,0.14614145,1.5705963,-10.108319,-1.1875241
6.115469,4.605934,0.6000455,-0.14960296,0.14614145,1.5705963,-10.108319,-1.1875241
6.1156874,4.6064057,0.58832765,-0.14427665,0.13229302,1.6136919,-10.041282,-1.1779473
6.115905,4.606881,0.58832765,-0.14427665,0.13229302,1.6136919,-10.041282,-1.1779473
6.1161175,4.6073513,0.5755444,-0.13788506,0.12164038,1.5849615,-10.0269165,-1.1875241
6.116328,4.60782,0.5755444,-0.13788506,0.12164038,1.5849615,-10.0269165,-1.1875241
6.1165237,4.6082735,0.55850023,-0.12936294,0.11524879,1.5562311,-9.92636,-1.2066777
6.116716,4.608721,0.55850023,-0.12936294,0.11524879,1.5562311,-9.92636,-1.2066777
6.1168838,4.609148,0.54039073,-0.121906094,0.10779194,1.5801731,-9.89763,-1.2114661
6.11705,4.609575,0.54039073,-0.121906094,0.10779194,1.5801731,-9.89763,-1.2114661
6.1172175,4.6099863,0.5222812,-0.11444924,0.103530884,1.5562311,-9.821015,-1.1923125
6.117383,4.6103983,0.5222812,-0.11444924,0.103530884,1.5562311,-9.821015,-1.1923125
6.117535,4.610789,0.5020412,-0.106992394,0.10566141,1.6041151,-9.835381,-1.1492168
6.1176834,4.611174,0.5020412,-0.106992394,0.10566141,1.6041151,-9.835381,-1.1492168
6.1178846,4.611561,0.48286644,-0.10060081,0.1088572,1.4460979,-9.682152,-1.1587936
6.118085,4.611949,0.48286644,-0.10060081,0.1088572,1.4460979,-9.682152,-1.1587936
6.1182127,4.6122956,0.46262643,-0.093143955,0.11311826,1.6328455,-9.768343,-1.043872
6.118339,4.612645,0.46262643,-0.093143955,0.11311826,1.6328455,-9.768343,-1.043872
6.1184053,4.6131635,0.44345164,-0.08994816,0.11631405,1.733402,-9.921572,-0.8762778
6.118469,4.6136837,0.44345164,-0.08994816,0.11631405,1.733402,-9.921572,-0.8762778
6.118575,4.6141996,0.42960322,-0.0856871,0.120575115,1.6711528,-9.80665,-0.81881696
6.1186795,4.6147156,0.42960322,-0.0856871,0.120575115,1.6711528,-9.80665,-0.81881696
6.1189365,4.6151743,0.4178853,-0.078230254,0.12909722,1.532289,-9.682152,-0.91458505
6.1191964,4.6156282,0.4178853,-0.078230254,0.12909722,1.532289,-9.682152,-0.91458505
6.119481,4.6160374,0.40723267,-0.07503446,0.1386846,1.4030021,-9.471462,-0.90500826
6.1197658,4.6164436,0.40723267,-0.07503446,0.1386846,1.4030021,-9.471462,-0.90500826
6.1200395,4.6168833,0.39658,-0.07609972,0.148272,1.508347,-9.509769,-0.8858546
6.120317,4.6173196,0.39658,-0.07609972,0.148272,1.508347,-9.509769,-0.8858546
6.1204057,4.617778,0.3848621,-0.079295516,0.1567941,1.6519991,-9.524135,-0.81881696
6.1204915,4.6182346,0.3848621,-0.079295516,0.1567941,1.6519991,-9.524135,-0.81881696
6.1205735,4.618687,0.37420946,-0.08249131,0.16212043,1.7621324,-9.543288,-0.7422025
6.12065,4.6191134,0.37420946,-0.08249131,0.16212043,1.7621324,-9.543288,-0.7422025
6.120697,4.6195083,0.36675262,-0.0856871,0.16638148,1.8387469,-9.504981,-0.79966336
6.1207438,4.619904,0.36675262,-0.0856871,0.16638148,1.8387469,-9.504981,-0.79966336
6.1207814,4.620271,0.36036104,-0.08781763,0.16744675,1.8770541,-9.409213,-0.8331822
6.120818,4.620634,0.36036104,-0.08781763,0.16744675,1.8770541,-9.409213,-0.8331822
6.120818,4.620634,0.36036104,-0.08781763,0.16744675,1.8770541,-9.409213,-0.8331822
6.120818,4.620634,0.35290417,-0.08675237,0.16851202,1.8579005,-9.289502,-0.89064306
6.1209397,4.621635,0.3433168,-0.08781763,0.16851202,1.8100165,-9.227253,-0.9720459
6.1209903,4.6218824,0.3433168,-0.08781763,0.16851202,1.8100165,-9.227253,-0.9720459
6.1210337,4.622174,0.33159888,-0.08888289,0.16531622,1.9009962,-9.169792,-0.94331545
6.1210756,4.6224566,0.33159888,-0.08888289,0.16531622,1.9009962,-9.169792,-0.94331545
6.121107,4.622732,0.31668517,-0.09207869,0.16105516,2.0207062,-9.083601,-0.90979666
6.12114,4.6230183,0.31668517,-0.09207869,0.16105516,2.0207062,-9.083601,-0.90979666
6.1211724,4.623256,0.30283675,-0.09207869,0.1567941,1.9967642,-9.030929,-0.9624691
6.1212063,4.623503,0.30283675,-0.09207869,0.1567941,1.9967642,-9.030929,-0.9624691
6.121229,4.6237516,0.28685778,-0.08781763,0.15253304,2.0254946,-9.016563,-0.90021986
6.1212525,4.6240025,0.28685778,-0.08781763,0.15253304,2.0254946,-9.016563,-0.90021986
6.12127,4.624249,0.27087882,-0.08355658,0.15040252,2.0446482,-8.99741,-0.8475474
6.1212883,4.624495,0.27087882,-0.08355658,0.15040252,2.0446482,-8.99741,-0.8475474
6.121307,4.6247196,0.25383458,-0.077164985,0.15040252,2.006341,-9.011775,-0.866701
6.1213255,4.624943,0.25383458,-0.077164985,0.15040252,2.006341,-9.011775,-0.866701
6.1213417,4.6251655,0.23892088,-0.07183866,0.15040252,2.0446482,-9.064447,-0.8283938
6.1213584,4.625385,0.23892088,-0.07183866,0.15040252,2.0446482,-9.064447,-0.8283938
6.1213794,4.6256256,0.2261377,-0.06331655,0.15146779,1.9297266,-9.045294,-0.7134721
6.1214004,4.625865,0.2261377,-0.06331655,0.15146779,1.9297266,-9.045294,-0.7134721
6.121428,4.626107,0.2144198,-0.0558597,0.15359831,1.8914193,-9.141062,-0.6895301
6.1214557,4.6263494,0.2144198,-0.0558597,0.15359831,1.8914193,-9.141062,-0.6895301
6.1215377,4.626627,0.20376715,-0.045207053,0.16105516,1.7764976,-9.246407,-0.545878
6.121619,4.6269045,0.20376715,-0.045207053,0.16105516,1.7764976,-9.246407,-0.545878
6.121736,4.6271915,0.19844083,-0.03242388,0.16851202,1.6711528,-9.279925,-0.5363012
6.1218514,4.627478,0.19844083,-0.03242388,0.16851202,1.6711528,-9.279925,-0.5363012
6.1220045,4.6277685,0.19417977,-0.023901764,0.18129519,1.6184803,-9.26556,-0.4405331
6.122157,4.628058,0.19417977,-0.023901764,0.18129519,1.6184803,-9.26556,-0.4405331
6.122342,4.6283464,0.18885344,-0.017510178,0.19407836,1.5466543,-9.3421755,-0.50757074
6.122527,4.6286345,0.18885344,-0.017510178,0.19407836,1.5466543,-9.3421755,-0.50757074
6.1227393,4.6289167,0.18246186,-0.014314385,0.2079268,1.5131354,-9.409213,-0.46447513
6.1229506,4.629199,0.18246186,-0.014314385,0.2079268,1.5131354,-9.409213,-0.46447513
6.1231704,4.6294785,0.17926607,-0.01324912,0.21857944,1.5227122,-9.44752,-0.37349546
6.12339,4.629758,0.17926607,-0.01324912,0.21857944,1.5227122,-9.44752,-0.37349546
6.123618,4.6300354,0.17713554,-0.012183856,0.23136261,1.5514427,-9.524135,-0.320823
6.1238456,4.6303124,0.17713554,-0.012183856,0.23136261,1.5514427,-9.524135,-0.320823
6.1241035,4.6305885,0.17607027,-0.01324912,0.24308053,1.460463,-9.581595,-0.2777274
6.124361,4.630864,0.17607027,-0.01324912,0.24308053,1.460463,-9.581595,-0.2777274
6.1246324,4.631141,0.17713554,-0.01324912,0.2558637,1.4508862,-9.519346,-0.30645782
6.1249027,4.631418,0.17713554,-0.01324912,0.2558637,1.4508862,-9.519346,-0.30645782
6.125186,4.6316957,0.17820081,-0.014314385,0.26971215,1.4413095,-9.495404,-0.24899697
6.1254697,4.6319747,0.17820081,-0.014314385,0.26971215,1.4413095,-9.495404,-0.24899697
6.125766,4.632255,0.1813966,-0.017510178,0.28143004,1.4413095,-9.485827,-0.33039984
6.1260624,4.632536,0.1813966,-0.017510178,0.28143004,1.4413095,-9.485827,-0.33039984
6.126365,4.6328225,0.18672292,-0.021771235,0.29314795,1.4556746,-9.423578,-0.34955344
6.1266675,4.6331086,0.18672292,-0.021771235,0.29314795,1.4556746,-9.423578,-0.34955344
6.1269593,4.6333995,0.1931145,-0.029228088,0.3038006,1.5466543,-9.428367,-0.30166942
6.127251,4.6336904,0.1931145,-0.029228088,0.3038006,1.5466543,-9.428367,-0.30166942
6.1275253,4.633982,0.19950609,-0.037750203,0.313388,1.6472107,-9.32781,-0.33039984
6.1277986,4.6342735,0.19950609,-0.037750203,0.313388,1.6472107,-9.32781,-0.33039984
6.1280746,4.6345706,0.20802821,-0.04946811,0.32084483,1.6472107,-9.294291,-0.36391866
6.1283493,4.6348677,0.20802821,-0.04946811,0.32084483,1.6472107,-9.294291,-0.36391866
6.128605,4.635164,0.21655032,-0.059055492,0.32191008,1.6807296,-9.241618,-0.4357447
6.128859,4.63546,0.21655032,-0.059055492,0.32191008,1.6807296,-9.241618,-0.4357447
6.129103,4.6357584,0.22400717,-0.06864287,0.3187143,1.6903064,-9.222465,-0.45489833
6.129346,4.636056,0.22400717,-0.06864287,0.3187143,1.6903064,-9.222465,-0.45489833
6.129571,4.6363482,0.22933349,-0.078230254,0.3155185,1.7238252,-9.198523,-0.48841715
6.129795,4.6366405,0.22933349,-0.078230254,0.3155185,1.7238252,-9.198523,-0.48841715
6.129995,4.63692,0.2325293,-0.08781763,0.3069964,1.7717092,-9.136273,-0.51235914
6.130197,4.6372027,0.2325293,-0.08781763,0.3069964,1.7717092,-9.136273,-0.51235914
6.1303916,4.6374855,0.23679034,-0.09633975,0.30060482,1.7621324,-9.069236,-0.49799395
6.1305857,4.637768,0.23679034,-0.09633975,0.30060482,1.7621324,-9.069236,-0.49799395
6.13077,4.6380453,0.23679034,-0.10166607,0.2952785,1.7381904,-9.069236,-0.5315128
6.1309533,4.638321,0.23679034,-0.10166607,0.2952785,1.7381904,-9.069236,-0.5315128
6.1311307,4.6385956,0.23465982,-0.108057655,0.28675637,1.7717092,-9.064447,-0.50757074
6.1313143,4.6388807,0.23465982,-0.108057655,0.28675637,1.7717092,-9.064447,-0.50757074
6.1314573,4.6391006,0.23359455,-0.11231872,0.27929953,1.7477672,-9.011775,-0.6464345
6.1316013,4.639321,0.23359455,-0.11231872,0.27929953,1.7477672,-9.011775,-0.6464345
6.131745,4.639551,0.23146403,-0.11551451,0.2739732,1.7286136,-9.021352,-0.62728083
6.131887,4.6397796,0.23146403,-0.11551451,0.2739732,1.7286136,-9.021352,-0.62728083
6.1320257,4.6400046,0.2261377,-0.11764504,0.26864687,1.7477672,-9.040505,-0.62249243
6.132163,4.640228,0.2261377,-0.11764504,0.26864687,1.7477672,-9.040505,-0.62249243
6.132298,4.640438,0.2229419,-0.11764504,0.26651633,1.6663644,-9.059659,-0.6512229
6.132432,4.640647,0.2229419,-0.11764504,0.26651633,1.6663644,-9.059659,-0.6512229
6.1325912,4.6409063,0.21868086,-0.11764504,0.2675816,1.5945383,-9.083601,-0.5602432
6.132746,4.641159,0.21868086,-0.11764504,0.2675816,1.5945383,-9.083601,-0.5602432
6.1329494,4.6414447,0.21655032,-0.1187103,0.26971215,1.4987702,-9.088389,-0.51714754
6.1331496,4.6417274,0.21655032,-0.1187103,0.26971215,1.4987702,-9.088389,-0.51714754
6.1333604,4.6420145,0.21548507,-0.1187103,0.2739732,1.508347,-9.107543,-0.49320555
6.133569,4.6422997,0.21548507,-0.1187103,0.2739732,1.508347,-9.107543,-0.49320555
6.133763,4.6425714,0.2144198,-0.1187103,0.28143004,1.5370775,-9.102755,-0.51714754
6.133955,4.6428413,0.2144198,-0.1187103,0.28143004,1.5370775,-9.102755,-0.51714754
6.134185,4.6431293,0.21548507,-0.11977556,0.2910174,1.4748282,-9.064447,-0.49799395
6.1344113,4.643415,0.21548507,-0.11977556,0.2910174,1.4748282,-9.064447,-0.49799395
6.1345983,4.6436615,0.21548507,-0.12084083,0.30273533,1.5131354,-9.050082,-0.56982
6.134783,4.6439047,0.21548507,-0.12084083,0.30273533,1.5131354,-9.050082,-0.56982
6.134971,4.6441364,0.21655032,-0.122971356,0.313388,1.5370775,-9.083601,-0.58418524
6.1351585,4.644366,0.21655032,-0.122971356,0.313388,1.5370775,-9.083601,-0.58418524
6.135353,4.6445484,0.21761559,-0.12723242,0.32404062,1.5131354,-9.093178,-0.641646
6.135547,4.6447277,0.21761559,-0.12723242,0.32404062,1.5131354,-9.093178,-0.641646
6.135756,4.6449556,0.21761559,-0.13042821,0.33469325,1.541866,-9.074024,-0.5793968
6.135963,4.6451817,0.21761559,-0.13042821,0.33469325,1.541866,-9.074024,-0.5793968
6.136193,4.6453347,0.21548507,-0.13255873,0.34641117,1.5370775,-9.11712,-0.6799533
6.1364217,4.645487,0.21548507,-0.13255873,0.34641117,1.5370775,-9.11712,-0.6799533
6.136662,4.6456594,0.2144198,-0.13575453,0.35706383,1.4987702,-9.169792,-0.6464345
6.1368866,4.6458197,0.2144198,-0.13575453,0.35706383,1.4987702,-9.169792,-0.6464345
6.137229,4.6459174,0.21335453,-0.14001559,0.36558592,1.412579,-9.160215,-0.79008657
6.13757,4.6460156,0.21335453,-0.14001559,0.36558592,1.412579,-9.160215,-0.79008657
6.1379685,4.646108,0.20909347,-0.13895033,0.37410805,1.3215994,-9.227253,-0.82360536
6.1383667,4.6462,0.20909347,-0.13895033,0.37410805,1.3215994,-9.227253,-0.82360536
6.1387906,4.646289,0.20270188,-0.14001559,0.38369542,1.292869,-9.251195,-0.79966336
6.1392117,4.646376,0.20270188,-0.14001559,0.38369542,1.292869,-9.251195,-0.79966336
6.139638,4.6464577,0.19737557,-0.14214613,0.3964786,1.3024458,-9.289502,-0.8331822
6.1400642,4.6465387,0.19737557,-0.14214613,0.3964786,1.3024458,-9.289502,-0.8331822
6.1404934,4.646612,0.19098398,-0.14427665,0.40713125,1.3215994,-9.332599,-0.82360536
6.14092,4.646686,0.19098398,-0.14427665,0.40713125,1.3215994,-9.332599,-0.82360536
6.141362,4.6467533,0.18352713,-0.14747244,0.4145881,1.316811,-9.404425,-0.79966336
6.141803,4.64682,0.18352713,-0.14747244,0.4145881,1.316811,-9.404425,-0.79966336
6.1422267,4.646877,0.175005,-0.14747244,0.41991442,1.3599066,-9.452309,-0.8762778
6.142653,4.6469345,0.175005,-0.14747244,0.41991442,1.3599066,-9.452309,-0.8762778
6.1430793,4.646983,0.1664829,-0.14640717,0.42524076,1.3742718,-9.504981,-0.91458505
6.1435013,4.6470323,0.1664829,-0.14640717,0.42524076,1.3742718,-9.504981,-0.91458505
6.143951,4.6470747,0.15902604,-0.14427665,0.42737126,1.3024458,-9.504981,-0.8810662
6.1443996,4.647117,0.15902604,-0.14427665,0.42737126,1.3024458,-9.504981,-0.8810662
6.1448855,4.6471567,0.14943866,-0.14001559,0.4295018,1.2545617,-9.581595,-0.79487497
6.1453695,4.647196,0.14943866,-0.14001559,0.4295018,1.2545617,-9.581595,-0.79487497
6.145879,4.6472354,0.14091654,-0.13468927,0.43056706,1.1348516,-9.610326,-0.8714894
6.146387,4.647274,0.14091654,-0.13468927,0.43056706,1.1348516,-9.610326,-0.8714894
6.1469326,4.6473284,0.13239443,-0.12723242,0.43056706,1.0965444,-9.734824,-0.78050977
6.147477,4.647382,0.13239443,-0.12723242,0.43056706,1.0965444,-9.734824,-0.78050977
6.1480293,4.6474385,0.12600285,-0.12084083,0.4295018,1.0247183,-9.825804,-0.79487497
6.1485806,4.6474943,0.12600285,-0.12084083,0.4295018,1.0247183,-9.825804,-0.79487497
6.149127,4.6475406,0.119611256,-0.11338398,0.42843655,0.9864111,-9.92636,-0.842759
6.149672,4.647587,0.119611256,-0.11338398,0.42843655,0.9864111,-9.92636,-0.842759
6.150218,4.6476316,0.1153502,-0.10486186,0.42417547,0.93373865,-9.988609,-0.866701
6.15076,4.6476755,0.1153502,-0.10486186,0.42417547,0.93373865,-9.988609,-0.866701
6.1513066,4.6477304,0.11215441,-0.09847028,0.41991442,0.92416185,-10.103531,-0.81402856
6.151855,4.647785,0.11215441,-0.09847028,0.41991442,0.92416185,-10.103531,-0.81402856
6.152399,4.6478376,0.11002388,-0.09207869,0.41671863,0.94810385,-10.204087,-0.81881696
6.1529474,4.64789,0.11002388,-0.09207869,0.41671863,0.94810385,-10.204087,-0.81881696
6.153487,4.64795,0.11002388,-0.08462184,0.4113923,1.0199299,-10.228029,-0.7661445
6.1540294,4.6480093,0.11002388,-0.08462184,0.4113923,1.0199299,-10.228029,-0.7661445
6.1545563,4.6480594,0.11215441,-0.077164985,0.406066,0.9864111,-10.290278,-0.8283938
6.1550837,4.648109,0.11215441,-0.077164985,0.406066,0.9864111,-10.290278,-0.8283938
6.1556163,4.648178,0.1153502,-0.06864287,0.39860913,0.79966336,-10.314221,-0.8331822
6.156146,4.648246,0.1153502,-0.06864287,0.39860913,0.79966336,-10.314221,-0.8331822
6.1566653,4.6483207,0.119611256,-0.062251285,0.3879565,0.6512229,-10.290278,-0.8619126
6.157189,4.6483965,0.119611256,-0.062251285,0.3879565,0.6512229,-10.290278,-0.8619126
6.1577053,4.648488,0.12493758,-0.0558597,0.37943438,0.61770403,-10.342952,-0.80924016
6.158221,4.6485796,0.12493758,-0.0558597,0.37943438,0.61770403,-10.342952,-0.80924016
6.158731,4.648681,0.13026391,-0.051598642,0.37197754,0.59855044,-10.28549,-0.78529817
6.159241,4.6487827,0.13026391,-0.051598642,0.37197754,0.59855044,-10.28549,-0.78529817
6.1597395,4.6488786,0.13772075,-0.047337584,0.36558592,0.5746084,-10.366894,-0.8714894
6.1602416,4.648975,0.13772075,-0.047337584,0.36558592,0.5746084,-10.366894,-0.8714894
6.160736,4.6490855,0.1451776,-0.045207053,0.36025962,0.58897364,-10.362105,-0.81881696
6.1612296,4.6491957,0.1451776,-0.045207053,0.36025962,0.58897364,-10.362105,-0.81881696
6.161723,4.6493177,0.15156919,-0.043076526,0.35599855,0.641646,-10.390836,-0.78050977
6.162219,4.649441,0.15156919,-0.043076526,0.35599855,0.641646,-10.390836,-0.78050977
6.1627054,4.649576,0.16009131,-0.03988073,0.34960696,0.6847417,-10.453085,-0.7517793
6.1631937,4.6497116,0.16009131,-0.03988073,0.34960696,0.6847417,-10.453085,-0.7517793
6.1631937,4.6497116,0.16009131,-0.03988073,0.34960696,0.6847417,-10.453085,-0.7517793
6.164182,4.6500187,0.1664829,-0.036684938,0.3453459,0.6368576,-10.462662,-0.7182605
6.1646748,4.650183,0.175005,-0.03242388,0.3368238,0.6607997,-10.46745,-0.7134721
6.1651244,4.6503334,0.175005,-0.03242388,0.3368238,0.6607997,-10.46745,-0.7134721
6.165625,4.650516,0.18352713,-0.029228088,0.3304322,0.62249243,-10.448297,-0.6943185
6.165625,4.650516,0.18352713,-0.029228088,0.3304322,0.62249243,-10.448297,-0.6943185
6.1665115,4.6508393,0.18991871,-0.027097559,0.32297537,0.60812724,-10.448297,-0.6560113
6.1670594,4.651059,0.18991871,-0.027097559,0.32297537,0.60812724,-10.448297,-0.6560113
6.1674604,4.65123,0.1963103,-0.02496703,0.31658378,0.545878,-10.457873,-0.6464345
6.1679163,4.6514235,0.1963103,-0.02496703,0.31658378,0.545878,-10.457873,-0.6464345
6.1683655,4.651631,0.20163663,-0.02496703,0.3101922,0.58897364,-10.409989,-0.60333884
6.168816,4.651839,0.20163663,-0.02496703,0.3101922,0.58897364,-10.409989,-0.60333884
6.169259,4.6520557,0.20589767,-0.023901764,0.30273533,0.58897364,-10.433931,-0.58418524
6.169702,4.6522717,0.20589767,-0.023901764,0.30273533,0.58897364,-10.433931,-0.58418524
6.1701427,4.652495,0.20802821,-0.02496703,0.29634374,0.5554548,-10.395624,-0.5650316
6.170578,4.6527147,0.20802821,-0.02496703,0.29634374,0.5554548,-10.395624,-0.5650316
6.171021,4.652956,0.211224,-0.028162822,0.28782162,0.5650316,-10.414778,-0.5267244
6.1714325,4.6531796,0.211224,-0.028162822,0.28782162,0.5650316,-10.414778,-0.5267244
6.1718316,4.6534266,0.2144198,-0.030293351,0.277169,0.5315128,-10.381259,-0.4261679
6.1722355,4.653676,0.2144198,-0.030293351,0.277169,0.5315128,-10.381259,-0.4261679
6.17264,4.653923,0.21548507,-0.031358615,0.2675816,0.5506664,-10.424355,-0.46926352
6.1730404,4.6541677,0.21548507,-0.031358615,0.2675816,0.5506664,-10.424355,-0.46926352
6.173428,4.6544104,0.2144198,-0.03455441,0.2558637,0.521936,-10.371682,-0.45489833
6.173817,4.6546545,0.2144198,-0.03455441,0.2558637,0.521936,-10.371682,-0.45489833
6.1741943,4.654902,0.21335453,-0.036684938,0.2441458,0.50757074,-10.366894,-0.4261679
6.174567,4.6551466,0.21335453,-0.036684938,0.2441458,0.50757074,-10.366894,-0.4261679
6.174923,4.655406,0.21335453,-0.03988073,0.23349315,0.49320555,-10.376471,-0.33997664
6.175279,4.6556644,0.21335453,-0.03988073,0.23349315,0.49320555,-10.376471,-0.33997664
6.1756206,4.6559296,0.21548507,-0.040945996,0.22177523,0.49320555,-10.395624,-0.31124622
6.1759644,4.6561956,0.21548507,-0.040945996,0.22177523,0.49320555,-10.395624,-0.31124622
6.176295,4.656459,0.21655032,-0.043076526,0.21112259,0.521936,-10.338163,-0.33039984
6.1766267,4.656723,0.21655032,-0.043076526,0.21112259,0.521936,-10.338163,-0.33039984
6.176944,4.6569896,0.21548507,-0.04627232,0.19940469,0.48362875,-10.309433,-0.2825158
6.1772604,4.6572556,0.21548507,-0.04627232,0.19940469,0.48362875,-10.309433,-0.2825158
6.177565,4.657522,0.2144198,-0.04627232,0.18875204,0.49320555,-10.309433,-0.272939
6.17787,4.657789,0.2144198,-0.04627232,0.18875204,0.49320555,-10.309433,-0.272939
6.1781645,4.6580553,0.2144198,-0.048402846,0.1780994,0.46926352,-10.28549,-0.2633622
6.178459,4.6583214,0.2144198,-0.048402846,0.1780994,0.46926352,-10.28549,-0.2633622
6.1787395,4.6585937,0.21548507,-0.050533377,0.16957727,0.47884035,-10.275913,-0.22026655
6.1790204,4.658866,0.21548507,-0.050533377,0.16957727,0.47884035,-10.275913,-0.22026655
6.179296,4.659134,0.21655032,-0.051598642,0.15892464,0.48841715,-10.242394,-0.2681506
6.179572,4.6594014,0.21655032,-0.051598642,0.15892464,0.48841715,-10.242394,-0.2681506
6.1798415,4.6596684,0.21655032,-0.052663904,0.15146779,0.5363012,-10.237606,-0.29209262
6.1801105,4.659935,0.21655032,-0.052663904,0.15146779,0.5363012,-10.237606,-0.29209262
6.180359,4.660215,0.21548507,-0.052663904,0.14720672,0.5793968,-10.189722,-0.20590134
6.1806064,4.660494,0.21548507,-0.052663904,0.14720672,0.5793968,-10.189722,-0.20590134
6.1808524,4.6607695,0.2144198,-0.052663904,0.14081514,0.5793968,-10.146626,-0.22984336
6.181099,4.661046,0.2144198,-0.052663904,0.14081514,0.5793968,-10.146626,-0.22984336
6.1813416,4.6613193,0.2144198,-0.050533377,0.13442355,0.5650316,-10.103531,-0.23942018
6.181585,4.6615925,0.2144198,-0.050533377,0.13442355,0.5650316,-10.103531,-0.23942018
6.181817,4.661869,0.21335453,-0.050533377,0.12909722,0.5793968,-10.070012,-0.21547815
6.1820498,4.6621456,0.21335453,-0.050533377,0.12909722,0.5793968,-10.070012,-0.21547815
6.1822658,4.6624284,0.21228927,-0.050533377,0.12377091,0.6560113,-10.01734,-0.20590134
6.182482,4.6627107,0.21228927,-0.050533377,0.12377091,0.6560113,-10.01734,-0.20590134
6.182695,4.6629896,0.21015874,-0.051598642,0.11737932,0.6991069,-10.0029745,-0.25378537
6.1829076,4.6632686,0.21015874,-0.051598642,0.11737932,0.6991069,-10.0029745,-0.25378537
6.1831083,4.66355,0.20802821,-0.051598642,0.112053,0.7278373,-9.9550905,-0.24420857
6.1833096,4.663831,0.20802821,-0.051598642,0.112053,0.7278373,-9.9550905,-0.24420857
6.1835074,4.6641073,0.20483242,-0.04946811,0.10779194,0.7326257,-9.921572,-0.25857377
6.1837063,4.664384,0.20483242,-0.04946811,0.10779194,0.7326257,-9.921572,-0.25857377
6.1838865,4.664664,0.19950609,-0.047337584,0.10566141,0.79008657,-9.864111,-0.24899697
6.184067,4.6649437,0.19950609,-0.047337584,0.10566141,0.79008657,-9.864111,-0.24899697
6.184235,4.665222,0.19524503,-0.045207053,0.102465615,0.81402856,-9.825804,-0.24420857
6.184404,4.6655016,0.19524503,-0.045207053,0.102465615,0.81402856,-9.825804,-0.24420857
6.1845517,4.6657834,0.19204924,-0.044141788,0.09926982,0.8571242,-9.849746,-0.22505496
6.184699,4.6660647,0.19204924,-0.044141788,0.09926982,0.8571242,-9.849746,-0.22505496
6.184859,4.6663365,0.18672292,-0.04201126,0.09500877,0.8523358,-9.792285,-0.29209262
6.1850185,4.666608,0.18672292,-0.04201126,0.09500877,0.8523358,-9.792285,-0.29209262
6.185145,4.6668854,0.1845924,-0.03881547,0.09074771,0.91458505,-9.715671,-0.32561144
6.1852713,4.667163,0.1845924,-0.03881547,0.09074771,0.91458505,-9.715671,-0.32561144
6.185381,4.667438,0.18033133,-0.036684938,0.088617176,0.91937345,-9.739613,-0.25378537
6.18549,4.667713,0.18033133,-0.036684938,0.088617176,0.91937345,-9.739613,-0.25378537
6.1855974,4.6679826,0.17393975,-0.035619672,0.08648665,0.91937345,-9.682152,-0.2825158
6.1857047,4.6682515,0.17393975,-0.035619672,0.08648665,0.91937345,-9.682152,-0.2825158
6.185799,4.668518,0.17074396,-0.03455441,0.08435612,0.92895025,-9.691729,-0.22026655
6.1858935,4.668784,0.17074396,-0.03455441,0.08435612,0.92895025,-9.691729,-0.22026655
6.1859784,4.6690454,0.16541763,-0.033489145,0.08435612,0.94331545,-9.653421,-0.23942018
6.1860633,4.6693077,0.16541763,-0.033489145,0.08435612,0.94331545,-9.653421,-0.23942018
6.1861196,4.669562,0.16009131,-0.033489145,0.08116033,0.9911995,-9.643845,-0.22984336
6.1861744,4.669816,0.16009131,-0.033489145,0.08116033,0.9911995,-9.643845,-0.22984336
6.186212,4.670064,0.15689552,-0.03242388,0.08009506,1.0151415,-9.624691,-0.24420857
6.186249,4.670312,0.15689552,-0.03242388,0.08009506,1.0151415,-9.624691,-0.24420857
6.1862893,4.670558,0.15476498,-0.031358615,0.08222559,1.0342951,-9.605537,-0.18674773
6.1863294,4.6708035,0.15476498,-0.031358615,0.08222559,1.0342951,-9.605537,-0.18674773
6.186348,4.6710386,0.15050393,-0.031358615,0.08435612,1.0486604,-9.619903,-0.25378537
6.186366,4.6712728,0.15050393,-0.031358615,0.08435612,1.0486604,-9.619903,-0.25378537
6.1863785,4.6715007,0.14624287,-0.031358615,0.08329086,1.067814,-9.581595,-0.23463176
6.18639,4.6717286,0.14624287,-0.031358615,0.08329086,1.067814,-9.581595,-0.23463176
6.186398,4.67195,0.14198181,-0.03242388,0.08329086,1.1204864,-9.548077,-0.18195933
6.1864057,4.672171,0.14198181,-0.03242388,0.08329086,1.1204864,-9.548077,-0.18195933
6.186413,4.672387,0.13772075,-0.033489145,0.08542138,1.0821792,-9.461885,-0.21547815
6.1864195,4.672602,0.13772075,-0.033489145,0.08542138,1.0821792,-9.461885,-0.21547815
6.186405,4.672801,0.13452496,-0.035619672,0.08648665,1.091756,-9.509769,-0.2681506
6.1863904,4.6729994,0.13452496,-0.035619672,0.08648665,1.091756,-9.509769,-0.2681506
6.186377,4.6731963,0.13239443,-0.035619672,0.08648665,1.115698,-9.476251,-0.24420857
6.1863627,4.673393,0.13239443,-0.035619672,0.08648665,1.115698,-9.476251,-0.24420857
6.18634,4.673577,0.13026391,-0.035619672,0.089682445,1.1587936,-9.442732,-0.24899697
6.1863165,4.6737604,0.13026391,-0.035619672,0.089682445,1.1587936,-9.442732,-0.24899697
6.1863136,4.6739545,0.12919864,-0.03881547,0.09607403,1.13964,-9.44752,-0.21547815
6.1863103,4.674148,0.12919864,-0.03881547,0.09607403,1.13964,-9.44752,-0.21547815
6.1863,4.6743298,0.12813337,-0.040945996,0.10140035,1.13964,-9.41879,-0.24899697
6.1862884,4.674511,0.12813337,-0.040945996,0.10140035,1.13964,-9.41879,-0.24899697
6.1862893,4.674698,0.12813337,-0.044141788,0.106726676,1.1204864,-9.481039,-0.24420857
6.1862893,4.6748843,0.12813337,-0.044141788,0.106726676,1.1204864,-9.481039,-0.24420857
6.1863317,4.6750946,0.12919864,-0.04946811,0.10992247,1.0390835,-9.44752,-0.20590134
6.1863737,4.675305,0.12919864,-0.04946811,0.10992247,1.0390835,-9.44752,-0.20590134
6.1864157,4.675514,0.13239443,-0.05372917,0.118444584,1.0390835,-9.481039,-0.22984336
6.186456,4.6757236,0.13239443,-0.05372917,0.118444584,1.0390835,-9.481039,-0.22984336
6.1865015,4.675933,0.13559023,-0.057990227,0.12590143,1.0965444,-9.41879,-0.17238252
6.186546,4.676142,0.13559023,-0.057990227,0.12590143,1.0965444,-9.41879,-0.17238252
6.186564,4.6763287,0.13878602,-0.062251285,0.13335828,1.163582,-9.3661175,-0.22505496
6.186582,4.676518,0.13878602,-0.062251285,0.13335828,1.163582,-9.3661175,-0.22505496
6.186603,4.6767015,0.14198181,-0.064381815,0.13974987,1.1779473,-9.351752,-0.22505496
6.1866245,4.6768885,0.14198181,-0.064381815,0.13974987,1.1779473,-9.351752,-0.22505496
6.1866503,4.6770744,0.1451776,-0.066512346,0.14614145,1.1875241,-9.337387,-0.22505496
6.186675,4.677257,0.1451776,-0.066512346,0.14614145,1.1875241,-9.337387,-0.22505496
6.186697,4.6774282,0.14730814,-0.06757761,0.15359831,1.1827357,-9.323022,-0.272939
6.186718,4.6775937,0.14730814,-0.06757761,0.15359831,1.1827357,-9.323022,-0.272939
6.186744,4.677765,0.1483734,-0.06970814,0.1567941,1.2018893,-9.3182335,-0.25378537
6.1867714,4.6779394,0.1483734,-0.06970814,0.1567941,1.2018893,-9.3182335,-0.25378537
6.186799,4.6781063,0.14943866,-0.0707734,0.16105516,1.1252748,-9.3421755,-0.2825158
6.1868267,4.6782727,0.14943866,-0.0707734,0.16105516,1.1252748,-9.3421755,-0.2825158
6.1868763,4.6784673,0.15050393,-0.07183866,0.16638148,1.0821792,-9.299079,-0.23942018
6.186925,4.6786613,0.15050393,-0.07183866,0.16638148,1.0821792,-9.299079,-0.23942018
6.186991,4.67887,0.15156919,-0.07396919,0.17064254,1.0821792,-9.351752,-0.21068975
6.187056,4.679078,0.15156919,-0.07396919,0.17064254,1.0821792,-9.351752,-0.21068975
6.1871758,4.6793137,0.15369973,-0.07503446,0.17703412,1.0055647,-9.41879,-0.16759412
6.187298,4.679556,0.15369973,-0.07503446,0.17703412,1.0055647,-9.41879,-0.16759412
6.1874046,4.679785,0.15476498,-0.07609972,0.18236046,1.0103531,-9.394848,-0.19632454
6.18751,4.6800127,0.15476498,-0.07609972,0.18236046,1.0103531,-9.394848,-0.19632454
6.187667,4.680258,0.15583025,-0.077164985,0.18768677,0.9576807,-9.461885,-0.16280572
6.1878214,4.6805015,0.15583025,-0.077164985,0.18768677,0.9576807,-9.461885,-0.16280572
6.1879277,4.680729,0.15689552,-0.07609972,0.19194783,0.9911995,-9.442732,-0.22505496
6.188033,4.6809564,0.15689552,-0.07609972,0.19194783,0.9911995,-9.442732,-0.22505496
6.188208,4.681205,0.15796077,-0.07609972,0.19407836,0.93373865,-9.490616,-0.16759412
6.1883826,4.6814547,0.15796077,-0.07609972,0.19407836,0.93373865,-9.490616,-0.16759412
6.1885953,4.6817045,0.15902604,-0.07609972,0.19727415,0.89064306,-9.500193,-0.20590134
6.188809,4.6819572,0.15902604,-0.07609972,0.19727415,0.89064306,-9.500193,-0.20590134
6.189057,4.682201,0.15796077,-0.07609972,0.19940469,0.866701,-9.471462,-0.22984336
6.1893044,4.6824465,0.15796077,-0.07609972,0.19940469,0.866701,-9.471462,-0.22984336
6.189537,4.6826916,0.15583025,-0.07503446,0.19940469,0.8571242,-9.481039,-0.17717093
6.1897697,4.6829376,0.15583025,-0.07503446,0.19940469,0.8571242,-9.481039,-0.17717093
6.1900315,4.6831746,0.15369973,-0.07396919,0.19940469,0.8475474,-9.471462,-0.22026655
6.1902924,4.683412,0.15369973,-0.07396919,0.19940469,0.8475474,-9.471462,-0.22026655
6.1905837,4.683647,0.15263446,-0.07290393,0.19940469,0.8283938,-9.476251,-0.22026655
6.1908565,4.683867,0.15263446,-0.07290393,0.19940469,0.8283938,-9.476251,-0.22026655
6.1911535,4.6840806,0.14943866,-0.07183866,0.1962089,0.842759,-9.519346,-0.24420857
6.191452,4.684295,0.14943866,-0.07183866,0.1962089,0.842759,-9.519346,-0.24420857
6.1917095,4.6845245,0.14624287,-0.06864287,0.19407836,0.82360536,-9.533711,-0.19153613
6.191967,4.6847544,0.14624287,-0.06864287,0.19407836,0.82360536,-9.533711,-0.19153613
6.191967,4.6847544,0.14624287,-0.06864287,0.19407836,0.82360536,-9.533711,-0.19153613
6.191967,4.6847544,0.14624287,-0.06864287,0.19407836,0.82360536,-9.533711,-0.19153613
6.193213,4.6855054,0.14091654,-0.06544708,0.19088256,0.81881696,-9.557653,-0.23942018
6.193213,4.6855054,0.14091654,-0.06544708,0.19088256,0.81881696,-9.557653,-0.23942018
6.193495,4.6857333,0.13772075,-0.06331655,0.19088256,0.82360536,-9.5385,-0.21547815
6.1937594,4.6859484,0.13772075,-0.06331655,0.19088256,0.82360536,-9.5385,-0.21547815
6.1940746,4.6861167,0.1334597,-0.064381815,0.1866215,0.79966336,-9.586384,-0.23463176
6.1943836,4.68628,0.1334597,-0.064381815,0.1866215,0.79966336,-9.586384,-0.23463176
6.194597,4.6865,0.13132916,-0.06331655,0.18449098,0.82360536,-9.586384,-0.15322891
6.194597,4.6865,0.13132916,-0.06331655,0.18449098,0.82360536,-9.586384,-0.15322891
6.195065,4.686942,0.1270681,-0.062251285,0.18236046,0.8283938,-9.634268,-0.21547815
6.1953096,4.687146,0.1270681,-0.062251285,0.18236046,0.8283938,-9.634268,-0.21547815
6.1955256,4.6873603,0.12387232,-0.062251285,0.18129519,0.81402856,-9.648633,-0.1436521
6.19574,4.687574,0.12387232,-0.062251285,0.18129519,0.81402856,-9.648633,-0.1436521
6.196025,4.6877565,0.12174179,-0.06118602,0.18236046,0.770933,-9.615114,-0.19153613
6.196025,4.6877565,0.12174179,-0.06118602,0.18236046,0.770933,-9.615114,-0.19153613
6.196559,4.688101,0.12174179,-0.06118602,0.18236046,0.770933,-9.615114,-0.19153613
6.1969256,4.6882315,0.119611256,-0.06118602,0.18129519,0.79966336,-9.672575,-0.23463176
6.1971927,4.688423,0.11641546,-0.060120758,0.18342571,0.770933,-9.634268,-0.17238252
6.197459,4.6886153,0.11641546,-0.060120758,0.18342571,0.770933,-9.634268,-0.17238252
6.1977215,4.6888046,0.11321967,-0.06118602,0.18342571,0.7422025,-9.667787,-0.1388637
6.197985,4.688995,0.11321967,-0.06118602,0.18342571,0.7422025,-9.667787,-0.1388637
6.1982374,4.689186,0.11002388,-0.062251285,0.18449098,0.770933,-9.701305,-0.15322891
6.198491,4.6893797,0.11002388,-0.062251285,0.18449098,0.770933,-9.701305,-0.15322891
6.198805,4.6895204,0.10789335,-0.06118602,0.18342571,0.6655881,-9.68694,-0.17717093
6.199119,4.689661,0.10789335,-0.06118602,0.18342571,0.6655881,-9.68694,-0.17717093
6.199387,4.6898403,0.104697555,-0.060120758,0.18342571,0.7230489,-9.730036,-0.12928689
6.1996546,4.6900206,0.104697555,-0.060120758,0.18342571,0.7230489,-9.730036,-0.12928689
6.1999273,4.690195,0.102567025,-0.059055492,0.18342571,0.7134721,-9.744401,-0.12928689
6.2002,4.69037,0.102567025,-0.059055492,0.18342571,0.7134721,-9.744401,-0.12928689
6.2005224,4.690444,0.1004365,-0.057990227,0.18449098,0.7182605,-9.753978,-0.22984336
6.200844,4.6905165,0.1004365,-0.057990227,0.18449098,0.7182605,-9.753978,-0.22984336
6.2011657,4.6906357,0.09830597,-0.057990227,0.18555625,0.7134721,-9.792285,-0.19632454
6.201488,4.6907544,0.09830597,-0.057990227,0.18555625,0.7134721,-9.792285,-0.19632454
6.201816,4.69085,0.0972407,-0.057990227,0.1866215,0.6943185,-9.825804,-0.21068975
6.2021437,4.6909437,0.0972407,-0.057990227,0.1866215,0.6943185,-9.825804,-0.21068975
6.2024674,4.6910663,0.09404491,-0.05692496,0.1866215,0.7374141,-9.792285,-0.19632454
6.2027874,4.6911864,0.09404491,-0.05692496,0.1866215,0.7374141,-9.792285,-0.19632454
6.2031164,4.691278,0.091914386,-0.0558597,0.18768677,0.6991069,-9.830592,-0.20590134
6.203443,4.691368,0.091914386,-0.0558597,0.18768677,0.6991069,-9.830592,-0.20590134
6.203771,4.691463,0.08871859,-0.054794434,0.18768677,0.7086837,-9.835381,-0.20111294
6.204099,4.6915565,0.08871859,-0.054794434,0.18768677,0.7086837,-9.835381,-0.20111294
6.204423,4.691614,0.08445753,-0.052663904,0.1866215,0.6607997,-9.840169,-0.22505496
6.2047462,4.6916704,0.08445753,-0.052663904,0.1866215,0.6607997,-9.840169,-0.22505496
6.2050467,4.6916876,0.08126174,-0.04946811,0.18768677,0.6655881,-9.844957,-0.2633622
6.205345,4.691703,0.08126174,-0.04946811,0.18768677,0.6655881,-9.844957,-0.2633622
6.2056155,4.691696,0.075935416,-0.047337584,0.18555625,0.6703765,-9.821015,-0.29209262
6.2058845,4.6916885,0.075935416,-0.047337584,0.18555625,0.6703765,-9.821015,-0.29209262
6.2061944,4.6917105,0.07167436,-0.043076526,0.18342571,0.641646,-9.840169,-0.24899697
6.2065,4.6917315,0.07167436,-0.043076526,0.18342571,0.641646,-9.840169,-0.24899697
6.2067757,4.69172,0.06528277,-0.03988073,0.18022992,0.6368576,-9.844957,-0.29688102
6.2070494,4.6917076,0.06528277,-0.03988073,0.18022992,0.6368576,-9.844957,-0.29688102
6.2073464,4.691715,0.05995645,-0.035619672,0.17596887,0.61770403,-9.921572,-0.2633622
6.2076435,4.691721,0.05995645,-0.035619672,0.17596887,0.61770403,-9.921572,-0.2633622
6.2079563,4.691786,0.054630127,-0.03242388,0.17383833,0.60333884,-9.89763,-0.19153613
6.2082696,4.69185,0.054630127,-0.03242388,0.17383833,0.60333884,-9.89763,-0.19153613
6.2085752,4.6918726,0.049303804,-0.029228088,0.16957727,0.5602432,-9.974244,-0.23942018
6.2088814,4.6918945,0.049303804,-0.029228088,0.16957727,0.5602432,-9.974244,-0.23942018
6.2091775,4.6918993,0.04291222,-0.023901764,0.16531622,0.49320555,-9.945514,-0.272939
6.2094736,4.6919036,0.04291222,-0.023901764,0.16531622,0.49320555,-9.945514,-0.272939
6.209771,4.6919174,0.03865116,-0.020705972,0.16105516,0.51235914,-9.998186,-0.24420857
6.2100687,4.691931,0.03865116,-0.020705972,0.16105516,0.51235914,-9.998186,-0.24420857
6.2103677,4.6919575,0.033324838,-0.017510178,0.15892464,0.45968673,-10.007763,-0.21547815
6.2106667,4.6919837,0.033324838,-0.017510178,0.15892464,0.45968673,-10.007763,-0.21547815
6.21094,4.6919565,0.02906378,-0.014314385,0.15572885,0.46447513,-10.055647,-0.33039984
6.211214,4.691929,0.02906378,-0.014314385,0.15572885,0.46447513,-10.055647,-0.33039984
6.2115064,4.691929,0.026933251,-0.012183856,0.15253304,0.4405331,-10.103531,-0.2633622
6.211795,4.6919284,0.026933251,-0.012183856,0.15253304,0.4405331,-10.103531,-0.2633622
6.21207,4.691912,0.024802722,-0.010053327,0.14933725,0.4309563,-10.070012,-0.29688102
6.212344,4.6918955,0.024802722,-0.010053327,0.14933725,0.4309563,-10.070012,-0.29688102
6.212621,4.691881,0.02160693,-0.0068575335,0.14614145,0.38307226,-10.0748005,-0.29688102
6.2129,4.691867,0.02160693,-0.0068575335,0.14614145,0.38307226,-10.0748005,-0.29688102
6.213175,4.691853,0.018411135,-0.0047270046,0.14294566,0.40701428,-10.0269165,-0.2777274
6.2134504,4.6918387,0.018411135,-0.0047270046,0.14294566,0.40701428,-10.0269165,-0.2777274
6.2137194,4.6918144,0.0141500775,-0.0025964756,0.13974987,0.41180268,-10.022128,-0.29209262
6.2139883,4.6917896,0.0141500775,-0.0025964756,0.13974987,0.41180268,-10.022128,-0.29209262
6.214266,4.691785,0.0077584907,0.0005993177,0.13655408,0.39264908,-10.060435,-0.23463176
6.2145414,4.69178,0.0077584907,0.0005993177,0.13655408,0.39264908,-10.060435,-0.23463176
6.2147946,4.6917286,0.0024321685,0.0016645822,0.13655408,0.44532153,-10.070012,-0.320823
6.21505,4.691677,0.0024321685,0.0016645822,0.13655408,0.44532153,-10.070012,-0.320823
6.215314,4.6916437,-0.0007636249,0.0027298466,0.13229302,0.4405331,-10.04607,-0.2681506
6.2155786,4.691611,-0.0007636249,0.0027298466,0.13229302,0.4405331,-10.04607,-0.2681506
6.215845,4.691614,-0.0028941538,0.0027298466,0.1269667,0.39264908,-10.04607,-0.19632454
6.216111,4.691618,-0.0028941538,0.0027298466,0.1269667,0.39264908,-10.04607,-0.19632454
6.216366,4.6916447,-0.0050246827,0.0048603755,0.12270564,0.4405331,-9.998186,-0.15322891
6.216627,4.6916723,-0.0050246827,0.0048603755,0.12270564,0.4405331,-9.998186,-0.15322891
6.216871,4.691633,-0.0071552116,0.00592564,0.11737932,0.44532153,-10.01734,-0.2633622
6.2171206,4.691593,-0.0071552116,0.00592564,0.11737932,0.44532153,-10.01734,-0.2633622
6.2173734,4.691596,-0.009285741,0.008056169,0.11418352,0.40222588,-9.964667,-0.18674773
6.217626,4.6915984,-0.009285741,0.008056169,0.11418352,0.40222588,-9.964667,-0.18674773
6.2178726,4.6915708,-0.0114162695,0.010186698,0.1088572,0.39743748,-9.9790325,-0.23942018
6.2181196,4.6915426,-0.0114162695,0.010186698,0.1088572,0.39743748,-9.9790325,-0.23942018
6.218359,4.6915145,-0.013546798,0.010186698,0.10140035,0.37349546,-9.993398,-0.23942018
6.218599,4.6914864,-0.013546798,0.010186698,0.10140035,0.37349546,-9.993398,-0.23942018
6.218842,4.6914635,-0.014612063,0.011251962,0.0939435,0.36391866,-9.983821,-0.22505496
