Pitch,Roll,Gyro_X,Gyro_Y,Gyro_Z,Accel_X,Accel_Y,Accel_Z
6.1696377,4.6153555,-0.11261639,0.06771098,0.0790298,1.0295067,-9.572019,-1.0199299
6.169861,4.615172,-0.122203775,0.073037304,0.089682445,0.92895025,-9.605537,-1.0103531
6.1700397,4.615026,-0.122203775,0.073037304,0.089682445,0.92895025,-9.605537,-1.0103531
6.170259,4.614868,-0.13179116,0.07942889,0.09820456,0.9959879,-9.648633,-0.9720459
6.1704793,4.614711,-0.13179116,0.07942889,0.09820456,0.9959879,-9.648633,-0.9720459
6.1707096,4.6146183,-0.14137854,0.086885735,0.1088572,0.9816227,-9.68694,-0.91458505
6.170938,4.6145267,-0.14137854,0.086885735,0.1088572,0.9816227,-9.68694,-0.91458505
6.171187,4.6143727,-0.14883539,0.09540785,0.120575115,0.90979666,-9.749189,-0.9816227
6.1714354,4.614219,-0.14883539,0.09540785,0.120575115,0.90979666,-9.749189,-0.9816227
6.171694,4.6140633,-0.15842277,0.102864705,0.13016249,0.90979666,-9.768343,-0.9768343
6.1719527,4.613908,-0.15842277,0.102864705,0.13016249,0.90979666,-9.768343,-0.9768343
6.172198,4.6136975,-0.16694488,0.11032156,0.14188041,0.92895025,-9.801862,-1.0534488
6.1724463,4.6134853,-0.16694488,0.11032156,0.14188041,0.92895025,-9.801862,-1.0534488
6.1727414,4.6133084,-0.17333646,0.117778406,0.15253304,0.8619126,-9.840169,-0.9911995
6.173035,4.6131334,-0.17333646,0.117778406,0.15253304,0.8619126,-9.840169,-0.9911995
6.1732874,4.6129785,-0.17866279,0.12310473,0.15892464,0.866701,-9.859323,-1.0007763
6.1735735,4.612804,-0.17866279,0.12310473,0.15892464,0.866701,-9.859323,-1.0007763
6.1738596,4.612611,-0.18398911,0.12843105,0.16638148,0.866701,-9.950302,-1.0390835
6.1741495,4.6124163,-0.18398911,0.12843105,0.16638148,0.866701,-9.950302,-1.0390835
6.17443,4.612196,-0.18931544,0.13375737,0.17383833,0.8523358,-9.931149,-1.091756
6.174711,4.611975,-0.18931544,0.13375737,0.17383833,0.8523358,-9.931149,-1.091756
6.1749887,4.6117373,-0.19357648,0.1390837,0.18236046,0.89064306,-9.959879,-1.115698
6.175268,4.6114974,-0.19357648,0.1390837,0.18236046,0.89064306,-9.959879,-1.115698
6.1755776,4.611301,-0.19890282,0.14227949,0.18449098,0.8714894,-9.959879,-1.0295067
6.1758833,4.6111083,-0.19890282,0.14227949,0.18449098,0.8714894,-9.959879,-1.0295067
6.1761904,4.6109,-0.20316388,0.14654055,0.1866215,0.8762778,-9.983821,-1.0486604
6.176497,4.610693,-0.20316388,0.14654055,0.1866215,0.8762778,-9.983821,-1.0486604
6.176811,4.610509,-0.2052944,0.15293214,0.19088256,0.93852705,-9.974244,-1.0151415
6.177126,4.610327,-0.2052944,0.15293214,0.19088256,0.93852705,-9.974244,-1.0151415
6.1774387,4.6101484,-0.20742492,0.15825845,0.19088256,0.90500826,-10.031705,-1.0151415
6.1777515,4.6099715,-0.20742492,0.15825845,0.19088256,0.90500826,-10.031705,-1.0151415
6.1780543,4.6098146,-0.20955546,0.16358478,0.18875204,0.92895025,-10.089166,-1.0007763
6.178356,4.609659,-0.20955546,0.16358478,0.18875204,0.92895025,-10.089166,-1.0007763
6.178656,4.609505,-0.21062072,0.16997637,0.18768677,0.93373865,-10.1226845,-1.0055647
6.1789546,4.6093526,-0.21062072,0.16997637,0.18768677,0.93373865,-10.1226845,-1.0055647
6.1792254,4.609229,-0.21062072,0.17743322,0.18555625,0.91937345,-10.160992,-0.9576807
6.1794953,4.6091056,-0.21062072,0.17743322,0.18555625,0.91937345,-10.160992,-0.9576807
6.1797957,4.60892,-0.21168599,0.18489006,0.18022992,0.8858546,-10.180145,-1.0486604
6.180095,4.608736,-0.21168599,0.18489006,0.18022992,0.8858546,-10.180145,-1.0486604
6.1803875,4.6085467,-0.21275125,0.19234692,0.17277306,0.8571242,-10.242394,-1.0630256
6.1806784,4.608359,-0.21275125,0.19234692,0.17277306,0.8571242,-10.242394,-1.0630256
6.1809597,4.608184,-0.21381652,0.19980377,0.16425095,0.80924016,-10.295067,-1.043872
6.1812453,4.6080065,-0.21381652,0.19980377,0.16425095,0.80924016,-10.295067,-1.043872
6.1815076,4.60784,-0.21275125,0.2051301,0.15253304,0.7661445,-10.342952,-1.0390835
6.181774,4.6076713,-0.21275125,0.2051301,0.15253304,0.7661445,-10.342952,-1.0390835
6.1820307,4.607506,-0.21062072,0.2083259,0.14294566,0.8331822,-10.390836,-1.0534488
6.1822867,4.6073427,-0.21062072,0.2083259,0.14294566,0.8331822,-10.390836,-1.0534488
6.1825085,4.607217,-0.2084902,0.21045642,0.13335828,0.81402856,-10.433931,-0.9672575
6.182731,4.607091,-0.2084902,0.21045642,0.13335828,0.81402856,-10.433931,-0.9672575
6.1829605,4.606944,-0.2052944,0.21152169,0.12164038,0.866701,-10.46745,-1.0534488
6.183189,4.606798,-0.2052944,0.21152169,0.12164038,0.866701,-10.46745,-1.0534488
6.183356,4.606701,-0.20103334,0.21152169,0.1088572,0.90979666,-10.448297,-0.9672575
6.1835237,4.6066027,-0.20103334,0.21152169,0.1088572,0.90979666,-10.448297,-0.9672575
6.1836796,4.6065087,-0.19357648,0.21045642,0.09287824,0.91458505,-10.472239,-0.9624691
6.1838183,4.606425,-0.19357648,0.21045642,0.09287824,0.91458505,-10.472239,-0.9624691
6.1839247,4.6063585,-0.18079332,0.20619535,0.07796454,0.9672575,-10.448297,-0.9720459
6.184031,4.606292,-0.18079332,0.20619535,0.07796454,0.9672575,-10.448297,-0.9720459
6.184068,4.606244,-0.16801015,0.2019343,0.0641161,1.0486604,-10.409989,-0.93852705
6.1841054,4.606196,-0.16801015,0.2019343,0.0641161,1.0486604,-10.409989,-0.93852705
6.184109,4.6061625,-0.15096591,0.19660798,0.04813713,1.0821792,-10.376471,-0.90500826
6.1841135,4.6061296,-0.15096591,0.19660798,0.04813713,1.0821792,-10.376471,-0.90500826
6.184078,4.6061096,-0.13285641,0.19021639,0.027897105,1.1109096,-10.352529,-0.93373865
6.1840434,4.60609,-0.13285641,0.19021639,0.027897105,1.1109096,-10.352529,-0.93373865
6.1839647,4.6060796,-0.11581218,0.1838248,0.00765708,1.1683705,-10.266336,-0.90979666
6.1838865,4.6060686,-0.11581218,0.1838248,0.00765708,1.1683705,-10.266336,-0.90979666
6.183783,4.606074,-0.09557216,0.17530268,-0.01151768,1.2210429,-10.189722,-0.8571242
6.1836805,4.6060796,-0.09557216,0.17530268,-0.01151768,1.2210429,-10.189722,-0.8571242
6.1835613,4.606106,-0.075332135,0.16784583,-0.03069244,1.2258313,-10.132261,-0.8283938
6.1834426,4.6061316,-0.075332135,0.16784583,-0.03069244,1.2258313,-10.132261,-0.8283938
6.1832876,4.606166,-0.05509211,0.15932372,-0.04773667,1.3120226,-10.0748005,-0.8283938
6.183133,4.6062007,-0.05509211,0.15932372,-0.04773667,1.3120226,-10.0748005,-0.8283938
6.1829543,4.606253,-0.032721557,0.1508016,-0.06584617,1.3455414,-9.969456,-0.81402856
6.1827774,4.6063056,-0.032721557,0.1508016,-0.06584617,1.3455414,-9.969456,-0.81402856
6.182587,4.6063805,-0.010351005,0.14441001,-0.08182514,1.3503298,-9.921572,-0.79008657
6.182397,4.606456,-0.010351005,0.14441001,-0.08182514,1.3503298,-9.921572,-0.79008657
6.182164,4.6065245,0.008823755,0.1358879,-0.09673884,1.460463,-9.77792,-0.8619126
6.181932,4.606592,0.008823755,0.1358879,-0.09673884,1.460463,-9.77792,-0.8619126
6.181682,4.6066675,0.025867987,0.13056158,-0.108456746,1.508347,-9.672575,-0.8762778
6.1814327,4.6067424,0.025867987,0.13056158,-0.108456746,1.508347,-9.672575,-0.8762778
6.181185,4.606852,0.043977484,0.12736578,-0.11910939,1.4317327,-9.634268,-0.81402856
6.180938,4.606962,0.043977484,0.12736578,-0.11910939,1.4317327,-9.634268,-0.81402856
6.180704,4.607105,0.05995645,0.12203947,-0.12656625,1.3215994,-9.706094,-0.78529817
6.1804676,4.6072493,0.05995645,0.12203947,-0.12656625,1.3215994,-9.706094,-0.78529817
6.1802235,4.6073947,0.07273962,0.117778406,-0.12976204,1.3982137,-9.662998,-0.78050977
6.1799774,4.607541,0.07273962,0.117778406,-0.12976204,1.3982137,-9.662998,-0.78050977
6.179722,4.607692,0.08552279,0.11351735,-0.12869677,1.460463,-9.624691,-0.79487497
6.179467,4.6078424,0.08552279,0.11351735,-0.12869677,1.460463,-9.624691,-0.79487497
6.179213,4.608,0.09617544,0.11138682,-0.124435715,1.508347,-9.576807,-0.79008657
6.17896,4.6081553,0.09617544,0.11138682,-0.124435715,1.508347,-9.576807,-0.79008657
6.1786976,4.608295,0.102567025,0.11032156,-0.11697886,1.5514427,-9.500193,-0.8858546
6.1784363,4.6084337,0.102567025,0.11032156,-0.11697886,1.5514427,-9.500193,-0.8858546
6.178188,4.608587,0.106828086,0.10925629,-0.108456746,1.5562311,-9.466674,-0.8331822
6.1779404,4.6087394,0.106828086,0.10925629,-0.108456746,1.5562311,-9.466674,-0.8331822
6.1776986,4.6088886,0.10895862,0.10819103,-0.0978041,1.5514427,-9.442732,-0.8619126
6.1774583,4.6090364,0.10895862,0.10819103,-0.0978041,1.5514427,-9.442732,-0.8619126
6.1772275,4.6091805,0.10895862,0.10712577,-0.08502093,1.541866,-9.437943,-0.8810662
6.176997,4.6093245,0.10895862,0.10712577,-0.08502093,1.541866,-9.437943,-0.8810662
6.176783,4.609473,0.10895862,0.1060605,-0.07117249,1.541866,-9.409213,-0.8571242
6.176569,4.609621,0.10895862,0.1060605,-0.07117249,1.541866,-9.409213,-0.8571242
6.1763635,4.6097565,0.106828086,0.102864705,-0.058389317,1.5179238,-9.394848,-0.90021986
6.176158,4.609892,0.106828086,0.102864705,-0.058389317,1.5179238,-9.394848,-0.90021986
6.17597,4.6100283,0.104697555,0.09753838,-0.04241035,1.5466543,-9.370906,-0.8810662
6.175782,4.610163,0.104697555,0.09753838,-0.04241035,1.5466543,-9.370906,-0.8810662
6.1756096,4.610308,0.102567025,0.09327733,-0.026431382,1.5993267,-9.3661175,-0.8331822
6.175445,4.610446,0.102567025,0.09327733,-0.026431382,1.5993267,-9.3661175,-0.8331822
6.1752834,4.610568,0.09937123,0.089016266,-0.014713474,1.6759412,-9.356541,-0.89543146
6.175122,4.610689,0.09937123,0.089016266,-0.014713474,1.6759412,-9.356541,-0.89543146
6.174972,4.6107984,0.09617544,0.08368994,-0.0019303001,1.7717092,-9.32781,-0.92895025
6.174822,4.610908,0.09617544,0.08368994,-0.0019303001,1.7717092,-9.32781,-0.92895025
6.1746836,4.6109986,0.09297965,0.08049415,0.009787609,1.8387469,-9.361329,-1.0199299
6.174546,4.6110888,0.09297965,0.08049415,0.009787609,1.8387469,-9.361329,-1.0199299
6.174417,4.61119,0.09084912,0.07836362,0.018309724,1.8148049,-9.3182335,-0.93852705
6.17423,4.6113358,0.09084912,0.07836362,0.018309724,1.8148049,-9.3182335,-0.93852705
6.174153,4.6113987,0.087653324,0.07729836,0.025766576,1.7669208,-9.275137,-0.92416185
6.173936,4.6115756,0.087653324,0.07729836,0.025766576,1.7669208,-9.275137,-0.92416185
6.1739,4.611614,0.08445753,0.0762331,0.03428869,1.5705963,-9.3421755,-0.8523358
6.1738095,4.6117115,0.08445753,0.0762331,0.03428869,1.5705963,-9.3421755,-0.8523358
6.173721,4.6118536,0.08339227,0.071972035,0.042810805,1.5705963,-9.414001,-0.7469909
6.173634,4.611993,0.08339227,0.071972035,0.042810805,1.5705963,-9.414001,-0.7469909
6.1735616,4.6121297,0.08658806,0.06664571,0.054528717,1.6136919,-9.442732,-0.7374141
6.1734667,4.612308,0.08658806,0.06664571,0.054528717,1.6136919,-9.442732,-0.7374141
6.173421,4.612401,0.08871859,0.062384658,0.06944242,1.7477672,-9.423578,-0.7469909
6.173356,4.6125326,0.08871859,0.062384658,0.06944242,1.7477672,-9.423578,-0.7469909
6.1733036,4.612667,0.09297965,0.060254127,0.08329086,1.8195933,-9.380483,-0.7326257
6.173251,4.612802,0.09297965,0.060254127,0.08329086,1.8195933,-9.380483,-0.7326257
6.1732073,4.612929,0.09617544,0.05918886,0.09713929,1.8674773,-9.404425,-0.79966336
6.1731634,4.6130557,0.09617544,0.05918886,0.09713929,1.8674773,-9.404425,-0.79966336
6.173128,4.6131744,0.0972407,0.060254127,0.1088572,1.8626889,-9.380483,-0.8523358
6.173093,4.6132936,0.0972407,0.060254127,0.1088572,1.8626889,-9.380483,-0.8523358
6.1730647,4.613412,0.0972407,0.062384658,0.11631405,1.8722657,-9.370906,-0.8523358
6.1730366,4.6135306,0.0972407,0.062384658,0.11631405,1.8722657,-9.370906,-0.8523358
6.173016,4.6136494,0.09404491,0.06664571,0.12377091,1.8052281,-9.390059,-0.842759
6.1729956,4.6137676,0.09404491,0.06664571,0.12377091,1.8052281,-9.390059,-0.842759
6.1729803,4.6138687,0.089783855,0.071972035,0.13229302,1.70946,-9.41879,-0.92416185
6.172965,4.6139693,0.089783855,0.071972035,0.13229302,1.70946,-9.41879,-0.92416185
6.172959,4.614072,0.08445753,0.0762331,0.14081514,1.6759412,-9.452309,-0.89543146
6.1729527,4.6141744,0.08445753,0.0762331,0.14081514,1.6759412,-9.452309,-0.89543146
6.1729546,4.614257,0.07913121,0.07942889,0.15040252,1.6328455,-9.581595,-0.9720459
6.1729565,4.61434,0.07913121,0.07942889,0.15040252,1.6328455,-9.581595,-0.9720459
6.17297,4.6144032,0.07273962,0.08368994,0.1599899,1.685518,-9.624691,-1.0342951
6.1729827,4.614467,0.07273962,0.08368994,0.1599899,1.685518,-9.624691,-1.0342951
6.1730065,4.614508,0.06528277,0.085820474,0.16531622,1.685518,-9.662998,-1.1109096
6.1730304,4.6145496,0.06528277,0.085820474,0.16531622,1.685518,-9.662998,-1.1109096
6.173057,4.6145926,0.05995645,0.090081535,0.17170781,1.7525556,-9.753978,-1.0965444
6.173084,4.6146355,0.05995645,0.090081535,0.17170781,1.7525556,-9.753978,-1.0965444
6.173121,4.6146708,0.054630127,0.09647312,0.18129519,1.8052281,-9.758766,-1.1300632
6.173158,4.614705,0.054630127,0.09647312,0.18129519,1.8052281,-9.758766,-1.1300632
6.1731987,4.614735,0.04823854,0.102864705,0.18555625,1.7860745,-9.749189,-1.1204864
6.1732416,4.614767,0.04823854,0.102864705,0.18555625,1.7860745,-9.749189,-1.1204864
6.1732836,4.6147933,0.04291222,0.11138682,0.19194783,1.8435353,-9.753978,-1.115698
6.1733284,4.614822,0.04291222,0.11138682,0.19194783,1.8435353,-9.753978,-1.115698
6.1733937,4.6148176,0.037585896,0.12203947,0.1962089,1.8243817,-9.758766,-1.3120226
6.1733937,4.6148176,0.037585896,0.12203947,0.1962089,1.8243817,-9.758766,-1.3120226
6.1735525,4.6148024,0.030129045,0.13269211,0.20153521,1.7525556,-9.696517,-1.4269443
6.173611,4.614785,0.030129045,0.13269211,0.20153521,1.7525556,-9.696517,-1.4269443
6.1736994,4.614753,0.019476399,0.14334476,0.2079268,1.7238252,-9.730036,-1.388637
6.17379,4.6147194,0.019476399,0.14334476,0.2079268,1.7238252,-9.730036,-1.388637
6.1738844,4.614675,0.0077584907,0.15506266,0.21325313,1.6328455,-9.768343,-1.3455414
6.1739798,4.6146307,0.0077584907,0.15506266,0.21325313,1.6328455,-9.768343,-1.3455414
6.174076,4.6145773,-0.006089947,0.1657153,0.21964471,1.6663644,-9.715671,-1.3311762
6.1741724,4.614523,-0.006089947,0.1657153,0.21964471,1.6663644,-9.715671,-1.3311762
6.174271,4.614457,-0.022068914,0.17423743,0.2260363,1.7286136,-9.720459,-1.340753
6.174369,4.6143913,-0.022068914,0.17423743,0.2260363,1.7286136,-9.720459,-1.340753
6.174466,4.614316,-0.039113145,0.18489006,0.23242788,1.70946,-9.744401,-1.2785037
6.1745634,4.6142406,-0.039113145,0.18489006,0.23242788,1.70946,-9.744401,-1.2785037
6.1746564,4.614159,-0.056157377,0.19660798,0.2377542,1.7669208,-9.77792,-1.2354081
6.174749,4.614078,-0.056157377,0.19660798,0.2377542,1.7669208,-9.77792,-1.2354081
6.174843,4.613984,-0.07426687,0.2083259,0.24308053,1.7525556,-9.811439,-1.2066777
6.1749377,4.6138897,-0.07426687,0.2083259,0.24308053,1.7525556,-9.811439,-1.2066777
6.17503,4.613788,-0.091311105,0.22323959,0.24734159,1.70946,-9.773131,-1.1444284
6.1751227,4.6136866,-0.091311105,0.22323959,0.24734159,1.70946,-9.773131,-1.1444284
6.175208,4.613608,-0.107290074,0.24134909,0.25053737,1.7286136,-9.801862,-0.9720459
6.175294,4.6135287,-0.107290074,0.24134909,0.25053737,1.7286136,-9.801862,-0.9720459
6.1753826,4.613437,-0.121138506,0.26052386,0.25479844,1.685518,-9.859323,-0.9816227
6.1754704,4.613346,-0.121138506,0.26052386,0.25479844,1.685518,-9.859323,-0.9816227
6.1755633,4.6132593,-0.13285641,0.2796986,0.26012474,1.6950948,-9.844957,-0.91937345
6.175657,4.6131725,-0.13285641,0.2796986,0.26012474,1.6950948,-9.844957,-0.91937345
6.1757593,4.6130953,-0.14244379,0.3010039,0.26545107,1.7142484,-9.854534,-0.8331822
6.175862,4.6130185,-0.14244379,0.3010039,0.26545107,1.7142484,-9.854534,-0.8331822
6.1759768,4.6129503,-0.14883539,0.3244397,0.27290794,1.7286136,-9.787497,-0.7469909
6.176092,4.612881,-0.14883539,0.3244397,0.27290794,1.7286136,-9.787497,-0.7469909
6.1762195,4.61282,-0.15096591,0.34787554,0.28249532,1.7238252,-9.753978,-0.6943185
6.1763477,4.612759,-0.15096591,0.34787554,0.28249532,1.7238252,-9.753978,-0.6943185
6.176482,4.612698,-0.15096591,0.36918083,0.29314795,1.7812861,-9.739613,-0.6847417
6.1766167,4.6126375,-0.15096591,0.36918083,0.29314795,1.7812861,-9.739613,-0.6847417
6.176754,4.612571,-0.14990065,0.39048612,0.3038006,1.7717092,-9.691729,-0.7469909
6.176891,4.612505,-0.14990065,0.39048612,0.3038006,1.7717092,-9.691729,-0.7469909
6.177035,4.612437,-0.14990065,0.40753034,0.3155185,1.7669208,-9.758766,-0.78050977
6.1771793,4.612369,-0.14990065,0.40753034,0.3155185,1.7669208,-9.758766,-0.78050977
6.1773396,4.6123095,-0.14990065,0.4213788,0.32830167,1.7621324,-9.701305,-0.7278373
6.1775,4.61225,-0.14990065,0.4213788,0.32830167,1.7621324,-9.701305,-0.7278373
6.1776743,4.6121893,-0.15203118,0.43522722,0.34428066,1.7669208,-9.725247,-0.7326257
6.17785,4.6121283,-0.15203118,0.43522722,0.34428066,1.7669208,-9.725247,-0.7326257
6.1780295,4.6120553,-0.15629223,0.44587985,0.35706383,1.8052281,-9.720459,-0.78529817
6.1782103,4.611982,-0.15629223,0.44587985,0.35706383,1.8052281,-9.720459,-0.78529817
6.1784005,4.6118956,-0.16268381,0.45546725,0.3730428,1.8148049,-9.710882,-0.8379706
6.1785913,4.611809,-0.16268381,0.45546725,0.3730428,1.8148049,-9.710882,-0.8379706
6.1787972,4.6117086,-0.17014067,0.46398935,0.3911523,1.8100165,-9.653421,-0.8714894
6.1790032,4.611609,-0.17014067,0.46398935,0.3911523,1.8100165,-9.653421,-0.8714894
6.179224,4.611495,-0.17866279,0.47251147,0.4092618,1.8148049,-9.648633,-0.91458505
6.1794457,4.6113796,-0.17866279,0.47251147,0.4092618,1.8148049,-9.648633,-0.91458505
6.1796837,4.611252,-0.18825017,0.47890306,0.426306,1.8435353,-9.595961,-0.92895025
6.1799207,4.611125,-0.18825017,0.47890306,0.426306,1.8435353,-9.595961,-0.92895025
6.1801796,4.6109834,-0.19890282,0.48529464,0.44228497,1.8531121,-9.576807,-0.93373865
6.1804233,4.6108503,-0.19890282,0.48529464,0.44228497,1.8531121,-9.576807,-0.93373865
6.1806903,4.6107044,-0.21062072,0.49168622,0.45826393,1.8387469,-9.548077,-0.91458505
6.180957,4.610559,-0.21062072,0.49168622,0.45826393,1.8387469,-9.548077,-0.91458505
6.181244,4.610403,-0.2234039,0.4959473,0.47743872,1.8435353,-9.56723,-0.90500826
6.18153,4.6102467,-0.2234039,0.4959473,0.47743872,1.8435353,-9.56723,-0.90500826
6.181834,4.6100717,-0.2351218,0.4991431,0.49767873,1.7908629,-9.56723,-0.9576807
6.18214,4.6098957,-0.2351218,0.4991431,0.49767873,1.7908629,-9.56723,-0.9576807
6.1824675,4.6097207,-0.24577445,0.50127363,0.5200493,1.8387469,-9.533711,-0.89064306
6.182798,4.6095443,-0.24577445,0.50127363,0.5200493,1.8387469,-9.533711,-0.89064306
6.183149,4.6093645,-0.2564271,0.5023389,0.54241985,1.8579005,-9.500193,-0.8475474
6.1835003,4.6091843,-0.2564271,0.5023389,0.54241985,1.8579005,-9.500193,-0.8475474
6.183873,4.6089864,-0.26707974,0.5023389,0.56479037,1.8962077,-9.490616,-0.89064306
6.1842456,4.6087885,-0.26707974,0.5023389,0.56479037,1.8962077,-9.490616,-0.89064306
6.184642,4.6085753,-0.27666712,0.5023389,0.591422,1.9153614,-9.428367,-0.92895025
6.1850405,4.608361,-0.27666712,0.5023389,0.591422,1.9153614,-9.428367,-0.92895025
6.1854606,4.608135,-0.28731975,0.50340414,0.6148578,1.910573,-9.370906,-0.93373865
6.18588,4.60791,-0.28731975,0.50340414,0.6148578,1.910573,-9.370906,-0.93373865
6.186324,4.6076736,-0.30010295,0.5023389,0.6382936,1.9776106,-9.303867,-0.90979666
6.186768,4.607437,-0.30010295,0.5023389,0.6382936,1.9776106,-9.303867,-0.90979666
6.1872334,4.6071806,-0.3160819,0.50127363,0.65959895,1.9680338,-9.232041,-0.93373865
6.187697,4.6069245,-0.3160819,0.50127363,0.65959895,1.9680338,-9.232041,-0.93373865
6.1881795,4.606651,-0.33206087,0.5002083,0.6787737,2.006341,-9.232041,-0.94810385
6.188662,4.606377,-0.33206087,0.5002083,0.6787737,2.006341,-9.232041,-0.94810385
6.189162,4.6060843,-0.35230088,0.4991431,0.69475263,1.9871874,-9.193734,-0.92895025
6.18966,4.6057925,-0.35230088,0.4991431,0.69475263,1.9871874,-9.193734,-0.92895025
6.1901703,4.605475,-0.37467146,0.4959473,0.70647055,1.982399,-9.155427,-0.94810385
6.190682,4.605157,-0.37467146,0.4959473,0.70647055,1.982399,-9.155427,-0.94810385
6.1912007,4.60482,-0.397042,0.49168622,0.7149927,2.0494366,-9.074024,-0.91458505
6.191719,4.6044827,-0.397042,0.49168622,0.7149927,2.0494366,-9.074024,-0.91458505
6.192251,4.604115,-0.42260835,0.48742518,0.72671056,2.087744,-9.035717,-0.94331545
6.192782,4.603748,-0.42260835,0.48742518,0.72671056,2.087744,-9.035717,-0.94331545
6.1933174,4.603359,-0.44923997,0.4842294,0.7320369,2.0685902,-9.002198,-0.90021986
6.1938567,4.602968,-0.44923997,0.4842294,0.7320369,2.0685902,-9.002198,-0.90021986
6.194396,4.6025534,-0.47587156,0.4810336,0.73416746,2.0350714,-9.054871,-0.89543146
6.194934,4.60214,-0.47587156,0.4810336,0.73416746,2.0350714,-9.054871,-0.89543146
6.195473,4.601695,-0.50250316,0.4778378,0.7352327,1.9871874,-8.978256,-0.91937345
6.1960135,4.60125,-0.50250316,0.4778378,0.7352327,1.9871874,-8.978256,-0.91937345
6.196554,4.600777,-0.53020006,0.47357672,0.7373632,2.0590134,-8.963891,-0.92416185
6.1970973,4.6003027,-0.53020006,0.47357672,0.7373632,2.0590134,-8.963891,-0.92416185
6.197641,4.5997972,-0.5589622,0.46825042,0.7394938,2.1452048,-8.973468,-0.94810385
6.1981854,4.599291,-0.5589622,0.46825042,0.7394938,2.1452048,-8.973468,-0.94810385
6.1987314,4.5987535,-0.5887896,0.46185884,0.7416243,2.1404164,-8.892065,-0.9576807
6.1992764,4.598217,-0.5887896,0.46185884,0.7416243,2.1404164,-8.892065,-0.9576807
6.199823,4.597654,-0.61968225,0.45546725,0.74268955,2.1499932,-8.839393,-0.91458505
6.200372,4.597088,-0.61968225,0.45546725,0.74268955,2.1499932,-8.839393,-0.91458505
6.200925,4.5964956,-0.65164024,0.44801039,0.7458854,2.0973208,-8.791509,-0.8619126
6.201477,4.5959044,-0.65164024,0.44801039,0.7458854,2.0973208,-8.791509,-0.8619126
6.202034,4.595283,-0.6825329,0.43948826,0.7480159,2.078167,-8.710106,-0.8331822
6.20259,4.594662,-0.6825329,0.43948826,0.7480159,2.078167,-8.710106,-0.8331822
6.203155,4.5940146,-0.71236026,0.43096617,0.74908113,2.0590134,-8.690952,-0.7469909
6.2037244,4.593362,-0.71236026,0.43096617,0.74908113,2.0590134,-8.690952,-0.7469909
6.2042866,4.5926886,-0.7421877,0.4213788,0.7501464,2.0207062,-8.6574335,-0.7613561
6.2048454,4.5920186,-0.7421877,0.4213788,0.7501464,2.0207062,-8.6574335,-0.7613561
6.205414,4.591316,-0.77094984,0.41072613,0.75440747,2.006341,-8.623915,-0.7517793
6.2059793,4.5906167,-0.77094984,0.41072613,0.75440747,2.006341,-8.623915,-0.7517793
6.206562,4.5898895,-0.7965162,0.4000735,0.7618643,1.9776106,-8.6574335,-0.6991069
6.2071414,4.5891676,-0.7965162,0.4000735,0.7618643,1.9776106,-8.6574335,-0.6991069
6.20773,4.5884314,-0.82101727,0.38942084,0.76719064,1.934515,-8.619126,-0.60812724
6.2083707,4.5876293,-0.82101727,0.38942084,0.76719064,1.934515,-8.619126,-0.60812724
6.2090054,4.586823,-0.8423225,0.381964,0.7778433,1.8626889,-8.690952,-0.6703765
6.2097125,4.5859246,-0.8423225,0.381964,0.7778433,1.8626889,-8.690952,-0.6703765
6.2101626,4.5853677,-0.8583015,0.37344187,0.792757,1.757344,-8.700529,-0.60812724
6.211013,4.5843153,-0.8583015,0.37344187,0.792757,1.757344,-8.700529,-0.60812724
6.211481,4.583741,-0.87428045,0.36598504,0.812997,1.6807296,-8.714894,-0.6512229
6.212069,4.583022,-0.87428045,0.36598504,0.812997,1.6807296,-8.714894,-0.6512229
6.2128024,4.5821457,-0.8870636,0.36278924,0.84175915,1.7190368,-8.686164,-0.641646
6.2134085,4.581423,-0.8870636,0.36278924,0.84175915,1.7190368,-8.686164,-0.641646
6.214101,4.580628,-0.9009121,0.3606587,0.87797815,1.7190368,-8.628703,-0.61291564
6.214811,4.579813,-0.9009121,0.3606587,0.87797815,1.7190368,-8.628703,-0.61291564
6.2155614,4.5789866,-0.91476053,0.36172396,0.921654,1.685518,-8.604761,-0.62249243
6.216316,4.5781565,-0.91476053,0.36172396,0.921654,1.685518,-8.604761,-0.62249243
6.2171063,4.577302,-0.9307395,0.36598504,0.9717214,1.7381904,-8.513782,-0.7469909
6.217863,4.5764837,-0.9307395,0.36598504,0.9717214,1.7381904,-8.513782,-0.7469909
6.218705,4.575599,-0.95097953,0.37237662,1.030311,1.8148049,-8.422802,-0.81881696
6.219588,4.5746727,-0.95097953,0.37237662,1.030311,1.8148049,-8.422802,-0.81881696
6.2204866,4.5737653,-0.97441536,0.38302925,1.0931616,1.8243817,-8.37013,-0.842759
6.221383,4.5728607,-0.97441536,0.38302925,1.0931616,1.8243817,-8.37013,-0.842759
6.22234,4.571913,-1.0010469,0.39261663,1.1581427,1.7286136,-8.327033,-0.9911995
6.223302,4.570961,-1.0010469,0.39261663,1.1581427,1.7286136,-8.327033,-0.9911995
6.224322,4.5699844,-1.0287439,0.4032693,1.2252543,1.4748282,-8.236053,-1.043872
6.2253404,4.5690084,-1.0287439,0.4032693,1.2252543,1.4748282,-8.236053,-1.043872
6.226442,4.5680203,-1.0585712,0.40753034,1.3008882,1.2880806,-8.312668,-0.9672575
6.2275434,4.567033,-1.0585712,0.40753034,1.3008882,1.2880806,-8.312668,-0.9672575
6.2287292,4.5660114,-1.0883986,0.40646508,1.3871746,1.115698,-8.408437,-1.0534488
6.2299123,4.564993,-1.0883986,0.40646508,1.3871746,1.115698,-8.408437,-1.0534488
6.2312055,4.5639625,-1.1192913,0.40433455,1.4841136,0.94810385,-8.422802,-1.0103531
6.2325006,4.562929,-1.1192913,0.40433455,1.4841136,0.94810385,-8.422802,-1.0103531
6.2339106,4.56188,-1.1480534,0.3968777,1.5895748,0.8762778,-8.418014,-0.9720459
6.235323,4.560828,-1.1480534,0.3968777,1.5895748,0.8762778,-8.418014,-0.9720459
6.2368193,4.5597043,-1.174685,0.38942084,1.7067538,1.0726024,-8.312668,-1.1540052
6.238311,4.5585847,-1.174685,0.38942084,1.7067538,1.0726024,-8.312668,-1.1540052
6.239927,4.557398,-1.2055777,0.38622504,1.8367162,1.3790601,-8.030152,-1.3215994
6.24154,4.556213,-1.2055777,0.38622504,1.8367162,1.3790601,-8.030152,-1.3215994
6.2432795,4.554984,-1.2396662,0.39048612,1.9666784,1.6136919,-7.771579,-1.4077905
6.2450233,4.553752,-1.2396662,0.39048612,1.9666784,1.6136919,-7.771579,-1.4077905
6.246892,4.5524693,-1.2844073,0.4032693,2.0966406,1.9680338,-7.4028716,-1.5035586
6.2487597,4.551186,-1.2844073,0.4032693,2.0966406,1.9680338,-7.4028716,-1.5035586
6.2507496,4.549845,-1.3398011,0.4267051,2.223407,2.2505496,-7.1826053,-1.541866
6.252734,4.5485067,-1.3398011,0.4267051,2.223407,2.2505496,-7.1826053,-1.541866
6.25484,4.547087,-1.4069127,0.46185884,2.3459125,2.4756045,-6.9048777,-1.7525556
6.256942,4.5456676,-1.4069127,0.46185884,2.3459125,2.4756045,-6.9048777,-1.7525556
6.2591467,4.5441666,-1.484677,0.50553465,2.4588306,2.6527755,-6.6654577,-1.8914193
6.2613516,4.5426626,-1.484677,0.50553465,2.4588306,2.6527755,-6.6654577,-1.8914193
6.2636514,4.5410576,-1.5762898,0.5556021,2.561096,2.743755,-6.469133,-2.1068976
6.2659464,4.5394526,-1.5762898,0.5556021,2.561096,2.743755,-6.469133,-2.1068976
6.268333,4.537731,-1.6774899,0.6109958,2.6516435,2.7629087,-6.3829417,-2.2936451
6.2707076,4.536015,-1.6774899,0.6109958,2.6516435,2.7629087,-6.3829417,-2.2936451
6.2731543,4.5341873,-1.7840164,0.66745484,2.734734,2.6288335,-6.3302693,-2.3415294
6.2756014,4.5323553,-1.7840164,0.66745484,2.734734,2.6288335,-6.3302693,-2.3415294
6.2781167,4.530402,-1.8948039,0.72497916,2.8093026,2.4420857,-6.435614,-2.4756045
6.2806263,4.528448,-1.8948039,0.72497916,2.8093026,2.4420857,-6.435614,-2.4756045
1.8463174e-05,4.526368,-2.007722,0.77930766,2.87961,2.1452048,-6.5218053,-2.6048915
0.0025873084,4.5242896,-2.007722,0.77930766,2.87961,2.1452048,-6.5218053,-2.6048915
0.0052234693,4.5220885,-2.117444,0.8293751,2.9467218,1.6567876,-6.655881,-2.72939
0.007865956,4.5198755,-2.117444,0.8293751,2.9467218,1.6567876,-6.655881,-2.72939
0.010572272,4.5175514,-2.2229054,0.8698551,3.0138333,1.1923125,-6.751649,-2.7341783
0.013271026,4.515227,-2.2229054,0.8698551,3.0138333,1.1923125,-6.751649,-2.7341783
0.016087886,4.512761,-2.321975,0.9007478,3.0830755,0.6703765,-6.775591,-2.815581
0.018863007,4.510324,-2.321975,0.9007478,3.0830755,0.6703765,-6.775591,-2.815581
0.021722373,4.507783,-2.415718,0.917792,3.1597745,0.4213795,-6.8809357,-2.8203697
0.024587337,4.5052276,-2.415718,0.917792,3.1597745,0.4213795,-6.8809357,-2.8203697
0.027530503,4.50258,-2.5020046,0.92311835,3.2428653,0.39264908,-6.919243,-2.906561
0.030458726,4.4999356,-2.5020046,0.92311835,3.2428653,0.39264908,-6.919243,-2.906561
0.033467103,4.4972024,-2.5808342,0.9209878,3.3323474,0.51235914,-7.091625,-2.873042
0.0364629,4.4944706,-2.5808342,0.9209878,3.3323474,0.51235914,-7.091625,-2.873042
0.039528877,4.4916697,-2.6490111,0.9145962,3.427156,0.8283938,-7.1873937,-2.858677
0.042588137,4.4888644,-2.6490111,0.9145962,3.427156,0.8283938,-7.1873937,-2.858677
0.04572017,4.4860067,-2.70547,0.9103352,3.5219646,1.0534488,-7.1586633,-2.8443117
0.048858017,4.4831324,-2.70547,0.9103352,3.5219646,1.0534488,-7.1586633,-2.8443117
0.05206646,4.480216,-2.7512765,0.90926987,3.612512,1.1827357,-7.0724716,-2.9831753
0.05526491,4.477298,-2.7512765,0.90926987,3.612512,1.1827357,-7.0724716,-2.9831753
0.058539603,4.474336,-2.7885606,0.90926987,3.6998637,1.5705963,-7.086837,-2.9831753
0.061804466,4.471372,-2.7885606,0.90926987,3.6998637,1.5705963,-7.086837,-2.9831753
0.06517748,4.4683466,-2.8194535,0.91672677,3.7850847,0.9959879,-6.6654577,-3.323152
0.068543345,4.465315,-2.8194535,0.91672677,3.7850847,0.9959879,-6.6654577,-3.323152
0.07195997,4.462263,-2.8450198,0.91672677,3.8671103,1.5370775,-6.7612257,-3.2369606
0.07536958,4.4592056,-2.8450198,0.91672677,3.8671103,1.5370775,-6.7612257,-3.2369606
0.07884075,4.456131,-2.8578029,0.9156615,3.942744,1.6903064,-6.6846113,-3.169923
0.082304865,4.4530506,-2.8578029,0.9156615,3.942744,1.6903064,-6.6846113,-3.169923
0.08585632,4.4499435,-2.8567376,0.9156615,4.018378,1.5227122,-6.4404025,-3.3327289
0.08938627,4.4468427,-2.8567376,0.9156615,4.018378,1.5227122,-6.4404025,-3.3327289
0.09301122,4.44373,-2.8407586,0.9124657,4.0961423,1.1204864,-5.889736,-3.5290532
0.09662139,4.440615,-2.8407586,0.9124657,4.0961423,1.1204864,-5.889736,-3.5290532
0.100344636,4.437498,-2.8151922,0.8996825,4.180298,0.6368576,-5.2624555,-3.7205894
0.10406034,4.434372,-2.8151922,0.8996825,4.180298,0.6368576,-5.2624555,-3.7205894
0.10786152,4.4312735,-2.7832344,0.86878985,4.277237,0.80924016,-4.7979803,-3.6248214
0.11166275,4.42816,-2.7832344,0.86878985,4.277237,0.80924016,-4.7979803,-3.6248214
0.11555333,4.4250765,-2.7502112,0.8293751,4.3795023,1.0630256,-4.5441947,-3.3997664
0.11942866,4.4219904,-2.7502112,0.8293751,4.3795023,1.0630256,-4.5441947,-3.3997664
0.12342536,4.418921,-2.7107964,0.788895,4.487094,1.4652514,-4.486734,-3.1986535
0.12739484,4.4158583,-2.7107964,0.788895,4.487094,1.4652514,-4.486734,-3.1986535
0.13181049,4.4125853,-2.6660552,0.7505455,4.5968165,1.7669208,-4.9799395,-3.0310593
0.13550594,4.409833,-2.6660552,0.7505455,4.5968165,1.7669208,-4.9799395,-3.0310593
0.13962579,4.4070244,-2.60427,0.7260444,4.7054734,1.1109096,-8.111555,-1.3503298
0.14375252,4.4041967,-2.60427,0.7260444,4.7054734,1.1109096,-8.111555,-1.3503298
0.14802583,4.4012966,-2.4913518,0.69089067,4.804543,2.4756045,-3.41892,-3.3997664
0.15230091,4.3983803,-2.4913518,0.69089067,4.804543,2.4756045,-3.41892,-3.3997664
0.15662366,4.395581,-2.3890865,0.63656217,4.878046,2.9400797,-3.5194764,-3.9217024
0.16091415,4.392787,-2.3890865,0.63656217,4.878046,2.9400797,-3.5194764,-3.9217024
0.16538037,4.3899617,-2.3379538,0.623779,4.9675283,2.1452048,-2.7629087,-4.2760444
0.16980892,4.3871446,-2.3379538,0.623779,4.9675283,2.1452048,-2.7629087,-4.2760444
0.17431329,4.384337,-2.3198442,0.6280401,5.07512,1.8148049,-2.2505496,-4.43885
0.17882444,4.381508,-2.3198442,0.6280401,5.07512,1.8148049,-2.2505496,-4.43885
0.18344466,4.378654,-2.326236,0.61419165,5.183777,1.7238252,-2.8443117,-3.9791632
0.18803471,4.3758006,-2.326236,0.61419165,5.183777,1.7238252,-2.8443117,-3.9791632
0.19275115,4.3729043,-2.3379538,0.59608215,5.296695,1.532289,-2.5187001,-3.9552212
0.1974602,4.369994,-2.3379538,0.59608215,5.296695,1.532289,-2.5187001,-3.9552212
0.20227693,4.367062,-2.3454106,0.57584214,5.4149394,1.3455414,-2.657564,-3.8402996
0.20711009,4.3641,-2.3454106,0.57584214,5.4149394,1.3455414,-2.657564,-3.8402996
0.21204013,4.3611326,-2.34328,0.55347157,5.533184,0.8858546,-2.6862943,-3.6104562
0.2169621,4.3581495,-2.34328,0.55347157,5.533184,0.8858546,-2.6862943,-3.6104562
0.22203237,4.3551598,-2.321975,0.5257747,5.658885,0.20590134,-2.834735,-3.5625722
0.22709405,4.3521533,-2.321975,0.5257747,5.658885,0.20590134,-2.834735,-3.5625722
0.23230031,4.3491707,-2.2793643,0.48742518,5.7931085,-0.2825158,-2.9831753,-3.4141316
0.23749247,4.3461742,-2.2793643,0.48742518,5.7931085,-0.2825158,-2.9831753,-3.4141316
0.24286449,4.3432117,-2.2165136,0.43735775,5.9379845,-0.6847417,-3.0550013,-3.2130187
0.24822736,4.3402305,-2.2165136,0.43735775,5.9379845,-0.6847417,-3.0550013,-3.2130187
0.25376597,4.3373117,-2.1398146,0.381964,6.102035,-1.067814,-3.1890767,-2.9879637
0.25930625,4.3343678,-2.1398146,0.381964,6.102035,-1.067814,-3.1890767,-2.9879637
0.26504716,4.331494,-2.0513978,0.32337445,6.2799344,-1.4508862,-3.3087866,-2.834735
0.27077866,4.328599,-2.0513978,0.32337445,6.2799344,-1.4508862,-3.3087866,-2.834735
0.27673325,4.325782,-1.9533933,0.2615891,6.473812,-1.8004397,-3.3806129,-2.7246015
0.28267857,4.322942,-1.9533933,0.2615891,6.473812,-1.8004397,-3.3806129,-2.7246015
0.28884777,4.32019,-1.851128,0.19447745,6.6740823,-2.087744,-3.4572272,-2.566584
0.29500803,4.317414,-1.851128,0.19447745,6.6740823,-2.087744,-3.4572272,-2.566584
0.3014008,4.3147106,-1.7499279,0.1209742,6.8775477,-2.3558946,-3.4476504,-2.6431987
0.3077848,4.311982,-1.7499279,0.1209742,6.8775477,-2.3558946,-3.4476504,-2.6431987
0.31437024,4.3093376,-1.6529888,0.037883572,7.0788827,-2.5809495,-3.3758245,-2.6384103
0.32097358,4.306656,-1.6529888,0.037883572,7.0788827,-2.5809495,-3.3758245,-2.6384103
0.3277724,4.304045,-1.5635066,-0.052663904,7.2706304,-2.882619,-3.217807,-2.791639
0.33456287,4.301407,-1.5635066,-0.052663904,7.2706304,-2.882619,-3.217807,-2.791639
0.34155115,4.2988253,-1.4836117,-0.15279876,7.4495945,-3.1986535,-2.9831753,-3.0071173
0.3485312,4.296214,-1.4836117,-0.15279876,7.4495945,-3.1986535,-2.9831753,-3.0071173
0.3556953,4.293651,-1.4175653,-0.2657168,7.609384,-3.4045548,-2.6431987,-3.1651347
0.3628513,4.2910576,-1.4175653,-0.2657168,7.609384,-3.4045548,-2.6431987,-3.1651347
0.37017667,4.2885065,-1.3653674,-0.39035273,7.745738,-3.5913026,-2.2505496,-3.2513258
0.3774941,4.2859235,-1.3653674,-0.39035273,7.745738,-3.5913026,-2.2505496,-3.2513258
0.3849452,4.283383,-1.323822,-0.52244556,7.858656,-3.5769374,-1.8770541,-3.2609026
0.39241093,4.2808013,-1.323822,-0.52244556,7.858656,-3.5769374,-1.8770541,-3.2609026
0.4002312,4.278183,-1.2907989,-0.6619952,7.9492035,-3.4955344,-1.5562311,-3.122039
0.40760377,4.2756796,-1.2907989,-0.6619952,7.9492035,-3.4955344,-1.5562311,-3.122039
0.41530517,4.2731514,-1.2652326,-0.7994143,8.009924,-3.5003228,-1.4221559,-2.6862943
0.42301464,4.270584,-1.2652326,-0.7994143,8.009924,-3.5003228,-1.4221559,-2.6862943
0.43079755,4.268076,-1.2407315,-0.9219197,8.046143,-3.6583402,-1.364695,-2.2457612
0.43856603,4.2655354,-1.2407315,-0.9219197,8.046143,-3.6583402,-1.364695,-2.2457612
0.4464023,4.2630415,-1.2162304,-1.0209893,8.05786,-3.9456444,-1.5179238,-1.9488802
0.46207848,4.2580266,-1.1927946,-1.092362,8.046143,-4.185065,-1.8435353,-1.6950948
0.46207848,4.2580266,-1.1927946,-1.092362,8.046143,-4.185065,-1.8435353,-1.6950948
0.47005922,4.2554607,-1.1927946,-1.092362,8.046143,-4.185065,-1.8435353,-1.6950948
0.47777894,4.2529917,-1.1757504,-1.128581,8.014185,-4.357447,-2.2601264,-1.6089035
0.48825467,4.249583,-1.1757504,-1.128581,8.014185,-4.357447,-2.2601264,-1.6089035
0.49394548,4.247709,-1.1672282,-1.128581,7.9630523,-5.056554,-2.6527755,-1.8100165
0.50545603,4.2438545,-1.1672282,-1.128581,7.9630523,-5.056554,-2.6527755,-1.8100165
0.50880474,4.2427015,-1.1725545,-1.1051452,7.8884835,-6.1626754,-3.0214825,-2.3750482
0.51689154,4.239887,-1.1725545,-1.1051452,7.8884835,-6.1626754,-3.0214825,-2.3750482
0.51689154,4.239887,-1.1917293,-1.076383,7.790479,-7.6135616,-3.4045548,-3.107674
0.5325651,4.234192,-1.1917293,-1.076383,7.790479,-7.6135616,-3.4045548,-3.107674
0.5398687,4.2314215,-1.2258178,-1.0635998,7.679692,-9.184157,-3.6870706,-3.8546648
0.54649734,4.2288723,-1.2258178,-1.0635998,7.679692,-9.184157,-3.6870706,-3.8546648
0.55373394,4.226004,-1.2726893,-1.0785136,7.560382,-10.433931,-4.0797195,-4.462792
0.5607804,4.223171,-1.2726893,-1.0785136,7.560382,-10.433931,-4.0797195,-4.462792
0.5679954,4.220201,-1.3280832,-1.1264504,7.435746,-11.267113,-4.4340615,-4.8602295
0.5754334,4.2170944,-1.3280832,-1.1264504,7.435746,-11.267113,-4.4340615,-4.8602295
0.58254284,4.214077,-1.3856074,-1.2020843,7.3079143,-11.722012,-4.879383,-5.0278234
0.5896592,4.2110147,-1.3856074,-1.2020843,7.3079143,-11.722012,-4.879383,-5.0278234
0.5967077,4.20796,-1.4399359,-1.293697,7.1790175,-11.745954,-5.449203,-4.8219223
0.60376996,4.204858,-1.4399359,-1.293697,7.1790175,-11.745954,-5.449203,-4.8219223
0.6107241,4.2018023,-1.4825464,-1.3895708,7.0415983,-11.707646,-6.05733,-4.6112323
0.6176646,4.198712,-1.4825464,-1.3895708,7.0415983,-11.707646,-6.05733,-4.6112323
0.6245287,4.1956744,-1.5113087,-1.4822488,6.894592,-11.583148,-6.6654577,-4.2999864
0.6313658,4.19261,-1.5113087,-1.4822488,6.894592,-11.583148,-6.6654577,-4.2999864
0.63809943,4.189621,-1.5198307,-1.5589478,6.7348022,-11.449073,-7.1873937,-4.036624
0.6448338,4.1865945,-1.5198307,-1.5589478,6.7348022,-11.449073,-7.1873937,-4.036624
0.6514281,4.1836534,-1.5134392,-1.60795,6.556903,-11.765107,-7.800309,-3.9217024
0.658016,4.1806793,-1.5134392,-1.60795,6.556903,-11.765107,-7.800309,-3.9217024
0.66443896,4.1777916,-1.4953296,-1.6313858,6.3630247,-12.0571995,-8.446744,-3.9983168
0.67084956,4.1748753,-1.4953296,-1.6313858,6.3630247,-12.0571995,-8.446744,-3.9983168
0.6770913,4.1720486,-1.4655023,-1.6388427,6.1521025,-12.521675,-9.054871,-4.060566
0.6833269,4.169192,-1.4655023,-1.6388427,6.1521025,-12.521675,-9.054871,-4.060566
0.6893341,4.166447,-1.4271528,-1.6313858,5.932658,-13.120225,-9.672575,-4.3526587
0.69535303,4.1636662,-1.4271528,-1.6313858,5.932658,-13.120225,-9.672575,-4.3526587
0.7011671,4.1609817,-1.3856074,-1.6122111,5.7100177,-13.613431,-10.13705,-4.6399627
0.7069753,4.158271,-1.3856074,-1.6122111,5.7100177,-13.613431,-10.13705,-4.6399627
0.7125763,4.15566,-1.3419316,-1.5887753,5.4863124,-14.192827,-10.649409,-4.975151
0.7181718,4.1530247,-1.3419316,-1.5887753,5.4863124,-14.192827,-10.649409,-4.975151
0.72354627,4.15051,-1.2950599,-1.5685352,5.259411,-14.298173,-10.951078,-5.133168
0.7289367,4.147962,-1.2950599,-1.5685352,5.259411,-14.298173,-10.951078,-5.133168
0.734108,4.145535,-1.2481883,-1.5461646,5.0325093,-14.60463,-11.224017,-5.3342814
0.7392691,4.1430883,-1.2481883,-1.5461646,5.0325093,-14.60463,-11.224017,-5.3342814
0.7442646,4.1407423,-1.2002515,-1.5216635,4.7992167,-14.820108,-11.453861,-5.497087
0.7494875,4.1382656,-1.2002515,-1.5216635,4.7992167,-14.820108,-11.453861,-5.497087
0.7540071,4.136158,-1.1459229,-1.5003583,4.559532,-14.810532,-11.525687,-5.6120086
0.7587913,4.1339073,-1.1459229,-1.5003583,4.559532,-14.810532,-11.525687,-5.6120086
0.7633668,4.131808,-1.0841376,-1.4801183,4.316652,-14.820108,-11.611878,-5.741296
0.7677706,4.1297703,-1.0841376,-1.4801183,4.316652,-14.820108,-11.611878,-5.741296
0.77194285,4.127902,-1.0138301,-1.4534867,4.0705757,-14.642938,-11.631032,-5.7843914
0.7762086,4.125977,-1.0138301,-1.4534867,4.0705757,-14.642938,-11.631032,-5.7843914
0.78021973,4.12424,-0.9360658,-1.4215287,3.8213038,-14.408306,-11.63582,-5.889736
0.784238,4.1224866,-0.9360658,-1.4215287,3.8213038,-14.408306,-11.63582,-5.889736
0.78803825,4.120906,-0.8529752,-1.3789182,3.5699015,-14.077906,-11.597513,-6.0621185
0.7918032,4.1193285,-0.8529752,-1.3789182,3.5699015,-14.077906,-11.597513,-6.0621185
0.79532135,4.1179314,-0.7624277,-1.3213938,3.3142378,-13.833697,-11.535264,-6.325481
0.7988297,4.1165285,-0.7624277,-1.3213938,3.3142378,-13.833697,-11.535264,-6.325481
0.8020746,4.115304,-0.6686844,-1.2510865,3.0585744,-13.666103,-11.425131,-6.483498
0.80531585,4.1140723,-0.6686844,-1.2510865,3.0585744,-13.666103,-11.425131,-6.483498
0.8082878,4.1130204,-0.5696148,-1.1733221,2.7997153,-13.546393,-11.329363,-6.655881
0.8112433,4.111966,-0.5696148,-1.1733221,2.7997153,-13.546393,-11.329363,-6.655881
0.81394976,4.111087,-0.46947998,-1.0912968,2.5419211,-13.532028,-11.013328,-6.8282633
0.81663036,4.110208,-0.46947998,-1.0912968,2.5419211,-13.532028,-11.013328,-6.8282633
0.819088,4.109503,-0.3672146,-1.0114019,2.2894535,-13.623008,-10.778696,-6.967127
0.821532,4.108796,-0.3672146,-1.0114019,2.2894535,-13.623008,-10.778696,-6.967127
0.8237604,4.108264,-0.2617534,-0.9347029,2.045508,-13.599066,-10.481815,-7.005434
0.8259696,4.1077366,-0.2617534,-0.9347029,2.045508,-13.599066,-10.481815,-7.005434
0.82790947,4.107395,-0.15629223,-0.8633302,1.8143456,-13.369223,-10.218452,-6.967127
0.8298107,4.107038,-0.15629223,-0.8633302,1.8143456,-13.369223,-10.218452,-6.967127
0.83167475,4.106793,-0.049765788,-0.79728377,1.5970316,-13.278243,-9.921572,-6.8043213
0.8335104,4.106575,-0.049765788,-0.79728377,1.5970316,-13.278243,-9.921572,-6.8043213
0.83518034,4.106495,0.05995645,-0.7344332,1.3925009,-13.057976,-9.667787,-6.646304
0.8368341,4.1064343,0.05995645,-0.7344332,1.3925009,-13.057976,-9.667787,-6.646304
0.8383292,4.106479,0.17074396,-0.67690885,1.2018186,-12.861651,-9.337387,-6.4499793
0.83982974,4.106526,0.17074396,-0.67690885,1.2018186,-12.861651,-9.337387,-6.4499793
0.8411387,4.1067767,0.2857925,-0.6193846,1.0260499,-12.708423,-9.074024,-6.1770406
0.84244716,4.1070294,0.2857925,-0.6193846,1.0260499,-12.708423,-9.074024,-6.1770406
0.8436006,4.107424,0.3997758,-0.5618603,0.86839074,-12.5982895,-8.7292595,-5.93762
0.8447011,4.1078,0.3997758,-0.5618603,0.86839074,-12.5982895,-8.7292595,-5.93762
0.8457022,4.108347,0.5148244,-0.50433606,0.72458005,-12.583924,-8.413225,-5.659893
0.8467538,4.1089215,0.5148244,-0.50433606,0.72458005,-12.583924,-8.413225,-5.659893
0.84763426,4.1095877,0.6309382,-0.4510728,0.60100937,-12.516887,-7.97748,-5.506664
0.84850806,4.1102476,0.6309382,-0.4510728,0.60100937,-12.516887,-7.97748,-5.506664
0.8492698,4.1109676,0.7406604,-0.40313593,0.49341768,-12.373235,-7.1155677,-5.602432
0.8500347,4.111688,0.7406604,-0.40313593,0.49341768,-12.373235,-7.1155677,-5.602432
0.8506838,4.112643,0.83866477,-0.35946006,0.40287018,-12.650962,-7.704541,-4.8745947
0.85133344,4.113599,0.83866477,-0.35946006,0.40287018,-12.650962,-7.704541,-4.8745947
0.8518914,4.114681,0.93453854,-0.3200453,0.33149746,-12.607866,-7.513005,-4.3143516
0.8524493,4.1157618,0.93453854,-0.3200453,0.33149746,-12.607866,-7.513005,-4.3143516
0.85295045,4.1169558,1.0399997,-0.29874,0.2675816,-12.229582,-7.0820484,-4.2664676
0.85345143,4.1181483,1.0399997,-0.29874,0.2675816,-12.229582,-7.0820484,-4.2664676
0.85390925,4.119429,1.1422651,-0.2838263,0.21538365,-12.291832,-6.483498,-4.247314
0.8543692,4.120714,1.1422651,-0.2838263,0.21538365,-12.291832,-6.483498,-4.247314
0.85480124,4.122136,1.2328126,-0.27210838,0.17277306,-12.224793,-6.0381765,-4.10845
0.8552074,4.123473,1.2328126,-0.27210838,0.17277306,-12.224793,-6.0381765,-4.10845
0.8555884,4.124966,1.3105769,-0.27210838,0.13016249,-11.851298,-5.7748146,-3.7828386
0.85597074,4.126463,1.3105769,-0.27210838,0.13016249,-11.851298,-5.7748146,-3.7828386
0.8563133,4.128068,1.3766233,-0.27849996,0.08542138,-11.520899,-5.568913,-3.4045548
0.85665524,4.1296697,1.3766233,-0.27849996,0.08542138,-11.520899,-5.568913,-3.4045548
0.85696286,4.1313753,1.4341476,-0.28915262,0.041745543,-11.051635,-5.482722,-3.1794999
0.8572728,4.133093,1.4341476,-0.28915262,0.041745543,-11.051635,-5.482722,-3.1794999
0.85754657,4.1349106,1.4874108,-0.29660946,-0.0029955646,-10.874464,-5.401319,-2.9831753
0.85783076,4.136797,1.4874108,-0.29660946,-0.0029955646,-10.874464,-5.401319,-2.9831753
0.8580544,4.138619,1.5353477,-0.30300105,-0.053062994,-10.91756,-5.3678,-2.9161377
0.8582857,4.1405025,1.5353477,-0.30300105,-0.053062994,-10.91756,-5.3678,-2.9161377
0.8584762,4.1424685,1.5779583,-0.31258842,-0.10526095,-10.769119,-5.329493,-2.8203697
0.8586679,4.1444516,1.5779583,-0.31258842,-0.10526095,-10.769119,-5.329493,-2.8203697
0.8588221,4.146502,1.6163079,-0.32324108,-0.15852417,-10.486604,-5.133168,-2.8299465
0.85897636,4.1485596,1.6163079,-0.32324108,-0.15852417,-10.486604,-5.133168,-2.8299465
0.8590896,4.1507125,1.649331,-0.33389372,-0.2149832,-10.34774,-4.9703627,-2.7581203
0.8592008,4.152828,1.649331,-0.33389372,-0.2149832,-10.34774,-4.9703627,-2.7581203
0.85926574,4.155037,1.6748973,-0.3466769,-0.27570325,-10.228029,-4.9081135,-2.6479871
0.8593304,4.1572475,1.6748973,-0.3466769,-0.27570325,-10.228029,-4.9081135,-2.6479871
0.8593532,4.159524,1.6919416,-0.36585164,-0.33535808,-10.180145,-4.9081135,-2.633622
0.8593756,4.161826,1.6919416,-0.36585164,-0.33535808,-10.180145,-4.9081135,-2.633622
0.8593552,4.1641674,1.7025943,-0.39035273,-0.39927393,-10.0029745,-4.831499,-2.585738
0.8593341,4.166514,1.7025943,-0.39035273,-0.39927393,-10.0029745,-4.831499,-2.585738
0.8592741,4.168931,1.7079206,-0.42018014,-0.4631898,-9.801862,-4.7261543,-2.5953147
0.8592124,4.1713686,1.7079206,-0.42018014,-0.4631898,-9.801862,-4.7261543,-2.5953147
0.8591123,4.173859,1.7100511,-0.4542686,-0.5292362,-9.624691,-4.6399627,-2.6001031
0.8590114,4.176333,1.7100511,-0.4542686,-0.5292362,-9.624691,-4.6399627,-2.6001031
0.85887015,4.1788983,1.7068553,-0.4926181,-0.5952826,-9.437943,-4.5777135,-2.5091233
0.8587271,4.1814737,1.7068553,-0.4926181,-0.5952826,-9.437943,-4.5777135,-2.5091233
0.8585391,4.184113,1.6972679,-0.53309816,-0.6645248,-9.3182335,-4.582502,-2.2888567
0.85834825,4.1867657,1.6972679,-0.53309816,-0.6645248,-9.3182335,-4.582502,-2.2888567
0.8581141,4.189484,1.6834195,-0.576774,-0.7358975,-9.126697,-4.5681367,-2.1691468
0.8578775,4.192206,1.6834195,-0.576774,-0.7358975,-9.126697,-4.5681367,-2.1691468
0.85759604,4.194996,1.6685058,-0.6215151,-0.8083355,-9.050082,-4.606444,-2.0829554
0.8573114,4.197794,1.6685058,-0.6215151,-0.8083355,-9.050082,-4.606444,-2.0829554
0.8569789,4.200665,1.6514616,-0.66625625,-0.882904,-8.935161,-4.6112323,-2.0111294
0.8566451,4.203527,1.6514616,-0.66625625,-0.882904,-8.935161,-4.6112323,-2.0111294
0.8562628,4.206458,1.6354825,-0.7099321,-0.9574725,-8.930372,-4.697424,-1.9776106
0.85587746,4.2093887,1.6354825,-0.7099321,-0.9574725,-8.930372,-4.697424,-1.9776106
0.85544354,4.2123804,1.6195036,-0.7525427,-1.0320411,-8.820239,-4.735731,-1.934515
0.85500413,4.215386,1.6195036,-0.7525427,-1.0320411,-8.820239,-4.735731,-1.934515
0.8545137,4.218446,1.6013942,-0.79408795,-1.1087401,-8.801085,-4.783615,-1.8866309
0.85401905,4.2215075,1.6013942,-0.79408795,-1.1087401,-8.801085,-4.783615,-1.8866309
0.8534721,4.2246237,1.5800889,-0.834568,-1.1854391,-8.700529,-4.9224787,-1.9632454
0.8529216,4.2277374,1.5800889,-0.834568,-1.1854391,-8.700529,-4.9224787,-1.9632454
0.85232085,4.230899,1.556653,-0.8771786,-1.2632034,-8.6813755,-4.9655743,-2.0398598
0.85171384,4.2340703,1.556653,-0.8771786,-1.2632034,-8.6813755,-4.9655743,-2.0398598
0.8510572,4.2372828,1.5310867,-0.9219197,-1.342033,-8.619126,-5.0421886,-2.1308396
0.8503952,4.240495,1.5310867,-0.9219197,-1.342033,-8.619126,-5.0421886,-2.1308396
0.84967905,4.243761,1.5012592,-0.96772605,-1.4219278,-8.446744,-5.1762643,-2.2409728
0.8489292,4.247153,1.5012592,-0.96772605,-1.4219278,-8.446744,-5.1762643,-2.2409728
0.8481758,4.2503657,1.4693013,-1.0145977,-1.5018227,-8.336611,-5.281609,-2.2888567
0.84740007,4.2536497,1.4693013,-1.0145977,-1.5018227,-8.336611,-5.281609,-2.2888567
0.8465627,4.2570004,1.4373434,-1.0635998,-1.5806522,-8.212111,-5.3821654,-2.2026656
0.84572184,4.2603383,1.4373434,-1.0635998,-1.5806522,-8.212111,-5.3821654,-2.2026656
0.84481937,4.263752,1.4064507,-1.1115367,-1.6584165,-8.087613,-5.425261,-2.2218192
0.84390986,4.2671657,1.4064507,-1.1115367,-1.6584165,-8.087613,-5.425261,-2.2218192
0.8429485,4.270614,1.3766233,-1.1594737,-1.7340503,-8.078036,-5.5497594,-2.2266076
0.8419409,4.2742,1.3766233,-1.1594737,-1.7340503,-8.078036,-5.5497594,-2.2266076
0.84090513,4.2777147,1.3467959,-1.2042148,-1.8086188,-8.0684595,-5.6120086,-2.1021092
0.83984834,4.281273,1.3467959,-1.2042148,-1.8086188,-8.0684595,-5.6120086,-2.1021092
0.8387998,4.284633,1.3180338,-1.2425643,-1.8810568,-8.073248,-5.7365074,-1.9536686
0.83470964,4.297132,1.2903368,-1.2723917,-1.9513643,-8.173804,-5.884948,-1.757344
0.83470964,4.297132,1.2903368,-1.2723917,-1.9513643,-8.173804,-5.884948,-1.757344
0.83470964,4.297132,1.2903368,-1.2723917,-1.9513643,-8.173804,-5.884948,-1.757344
0.8341008,4.298869,1.2647705,-1.2947623,-2.0195413,-8.307879,-6.0860605,-1.7046716
0.83285844,4.3023925,1.2647705,-1.2947623,-2.0195413,-8.307879,-6.0860605,-1.7046716
0.8315415,4.305933,1.2381389,-1.3075454,-2.0887833,-8.441956,-6.3350577,-1.6519991
0.8302073,4.309492,1.2381389,-1.3075454,-2.0887833,-8.441956,-6.3350577,-1.6519991
0.82879525,4.3130608,1.2093768,-1.3139371,-2.1569602,-8.508993,-6.6175733,-1.7764976
0.82737774,4.3166156,1.2093768,-1.3139371,-2.1569602,-8.508993,-6.6175733,-1.7764976
0.82588226,4.3201666,1.1795493,-1.3160676,-2.2272677,-8.580819,-6.8905125,-1.9728222
0.824385,4.3236947,1.1795493,-1.3160676,-2.2272677,-8.580819,-6.8905125,-1.9728222
0.824385,4.3236947,1.1795493,-1.3160676,-2.2272677,-8.580819,-6.8905125,-1.9728222
0.8207443,4.331695,1.1465262,-1.3150023,-2.300771,-8.513782,-7.2304893,-2.231396
0.81945914,4.3342733,1.1113725,-1.3118064,-2.3796005,-8.269572,-7.551312,-2.408567
0.8177029,4.337774,1.1113725,-1.3118064,-2.3796005,-8.269572,-7.551312,-2.408567
0.81578386,4.341206,1.0740882,-1.3086107,-2.465887,-8.034941,-7.8386164,-2.6527755
0.8138464,4.344638,1.0740882,-1.3086107,-2.465887,-8.034941,-7.8386164,-2.6527755
0.81178373,4.3480043,1.036804,-1.3022192,-2.5638914,-8.030152,-8.073248,-2.834735
0.8097226,4.3513336,1.036804,-1.3022192,-2.5638914,-8.030152,-8.073248,-2.834735
0.80753493,4.3546405,1.000585,-1.2958275,-2.6704178,-7.953538,-8.169016,-2.906561
0.80534625,4.357914,1.000585,-1.2958275,-2.6704178,-7.953538,-8.169016,-2.906561
0.8030417,4.3611455,0.9664965,-1.2915665,-2.784401,-7.809886,-8.149862,-2.9831753
0.80073345,4.364349,0.9664965,-1.2915665,-2.784401,-7.809886,-8.149862,-2.9831753
0.798292,4.3675547,0.9387996,-1.2905012,-2.909037,-7.714118,-8.106767,-2.9735985
0.79585683,4.370719,0.9387996,-1.2905012,-2.909037,-7.714118,-8.106767,-2.9735985
0.79329187,4.3738785,0.9185596,-1.2883707,-3.0432603,-7.5561004,-7.991845,-2.930503
0.7907062,4.377031,0.9185596,-1.2883707,-3.0432603,-7.5561004,-7.991845,-2.930503
0.78799784,4.3801713,0.9047112,-1.2830443,-3.1806793,-7.513005,-7.9248075,-2.8682537
0.7852688,4.383302,0.9047112,-1.2830443,-3.1806793,-7.513005,-7.9248075,-2.8682537
0.78240716,4.386427,0.8972543,-1.2745222,-3.3212943,-7.4746976,-7.833828,-2.8203697
0.77954274,4.3895206,0.8972543,-1.2745222,-3.3212943,-7.4746976,-7.833828,-2.8203697
0.77652603,4.3926344,0.8983196,-1.2628043,-3.4672356,-7.4028716,-7.905654,-2.8107927
0.77350646,4.395717,0.8983196,-1.2628043,-3.4672356,-7.4028716,-7.905654,-2.8107927
0.7703268,4.398831,0.9068417,-1.2457601,-3.6174378,-7.417237,-7.97748,-2.72939
0.7671376,4.401918,0.9068417,-1.2457601,-3.6174378,-7.417237,-7.97748,-2.72939
0.76379085,4.405031,0.9217554,-1.22552,-3.7697706,-7.503428,-8.106767,-2.6862943
0.760434,4.4081154,0.9217554,-1.22552,-3.7697706,-7.503428,-8.106767,-2.6862943
0.75690776,4.411212,0.94412595,-1.2042148,-3.9231687,-7.603985,-8.250419,-2.8491
0.7534551,4.4142103,0.94412595,-1.2042148,-3.9231687,-7.603985,-8.250419,-2.8491
0.74980015,4.4172654,0.9718228,-1.1797137,-4.0755014,-7.7811556,-8.384495,-2.8778305
0.74615896,4.4202766,0.9718228,-1.1797137,-4.0755014,-7.7811556,-8.384495,-2.8778305
0.74237996,4.4232965,1.000585,-1.1562779,-4.223573,-7.953538,-8.580819,-3.040636
0.7386151,4.4262753,1.000585,-1.1562779,-4.223573,-7.953538,-8.580819,-3.040636
0.73470193,4.4292793,1.0314777,-1.1307116,-4.368449,-8.202535,-8.710106,-3.2561142
0.73080504,4.4322433,1.0314777,-1.1307116,-4.368449,-8.202535,-8.710106,-3.2561142
0.7267677,4.4352245,1.061305,-1.1051452,-4.503738,-8.312668,-8.767567,-3.4237084
0.72273767,4.438173,1.061305,-1.1051452,-4.503738,-8.312668,-8.767567,-3.4237084
0.71857613,4.44114,1.0911324,-1.0859704,-4.632635,-8.441956,-8.839393,-3.5434184
0.7144255,4.4440713,1.0911324,-1.0859704,-4.632635,-8.441956,-8.839393,-3.5434184
0.710126,4.44703,1.1166987,-1.0667957,-4.754075,-8.513782,-8.882488,-3.620033
0.7058374,4.4499526,1.1166987,-1.0667957,-4.754075,-8.513782,-8.882488,-3.620033
0.7014333,4.452883,1.1380041,-1.0518819,-4.8691235,-8.504205,-8.916007,-3.5098996
0.6968818,4.4558816,1.1380041,-1.0518819,-4.8691235,-8.504205,-8.916007,-3.5098996
0.69244665,4.458743,1.1561136,-1.0369682,-4.9799113,-8.561666,-8.935161,-3.3375173
0.68798226,4.4615965,1.1561136,-1.0369682,-4.9799113,-8.561666,-8.935161,-3.3375173
0.68338716,4.464482,1.1720926,-1.0220546,-5.084307,-8.542512,-9.006987,-3.0502129
0.67877525,4.4673505,1.1720926,-1.0220546,-5.084307,-8.542512,-9.006987,-3.0502129
0.66944593,4.4731016,1.1848757,-1.0028799,-5.1855073,-8.662222,-9.188946,-2.6719291
0.66944593,4.4731016,1.1848757,-1.0028799,-5.1855073,-8.662222,-9.188946,-2.6719291
0.66464704,4.4760475,1.1944631,-0.9826398,-5.2835116,-8.662222,-9.227253,-2.2601264
0.65982306,4.478971,1.1944631,-0.9826398,-5.2835116,-8.662222,-9.227253,-2.2601264
0.6549839,4.481853,1.2040504,-0.96133447,-5.37832,-8.844181,-9.3182335,-2.0207062
0.6501062,4.4847226,1.2040504,-0.96133447,-5.37832,-8.844181,-9.3182335,-2.0207062
0.64506304,4.4876347,1.2125726,-0.9400292,-5.470998,-8.959103,-9.428367,-1.6136919
0.6400866,4.4904747,1.2125726,-0.9400292,-5.470998,-8.959103,-9.428367,-1.6136919
0.6349862,4.493312,1.22216,-0.9165934,-5.5615454,-9.121908,-9.509769,-1.4413095
0.62986696,4.4961267,1.22216,-0.9165934,-5.5615454,-9.121908,-9.509769,-1.4413095
0.6246293,4.4989333,1.226421,-0.8942228,-5.647832,-9.227253,-9.634268,-1.2114661
0.61941963,4.501693,1.226421,-0.8942228,-5.647832,-9.227253,-9.634268,-1.2114661
0.6140996,4.504437,1.2296169,-0.87291753,-5.731988,-9.452309,-9.830592,-1.1013328
0.6087871,4.507146,1.2296169,-0.87291753,-5.731988,-9.452309,-9.830592,-1.1013328
0.6033573,4.509846,1.2317474,-0.8537428,-5.8108172,-9.572019,-10.055647,-0.9816227
0.5979241,4.512518,1.2317474,-0.8537428,-5.8108172,-9.572019,-10.055647,-0.9816227
0.59242547,4.515153,1.2328126,-0.834568,-5.8885818,-9.744401,-10.237606,-0.866701
0.58692914,4.5177574,1.2328126,-0.834568,-5.8885818,-9.744401,-10.237606,-0.866701
0.5813395,4.5203385,1.2296169,-0.8175238,-5.962085,-9.911995,-10.481815,-0.78529817
0.5757579,4.522887,1.2296169,-0.8175238,-5.962085,-9.911995,-10.481815,-0.78529817
0.57007647,4.525412,1.2232252,-0.8026101,-6.038784,-9.907207,-10.702082,-0.81881696
0.56439817,4.5279074,1.2232252,-0.8026101,-6.038784,-9.907207,-10.702082,-0.81881696
0.5585778,4.530391,1.2115073,-0.79195744,-6.1197443,-9.969456,-10.807426,-0.8475474
0.55286974,4.5327997,1.2115073,-0.79195744,-6.1197443,-9.969456,-10.807426,-0.8475474
0.5470106,4.5351987,1.1965936,-0.78769636,-6.2070956,-10.01734,-10.91756,-0.9528923
0.54116035,4.5375667,1.1965936,-0.78769636,-6.2070956,-10.01734,-10.91756,-0.9528923
0.53520226,4.539904,1.1763536,-0.7930227,-6.3040347,-10.089166,-10.936713,-1.0103531
0.52925277,4.542212,1.1763536,-0.7930227,-6.3040347,-10.089166,-10.936713,-1.0103531
0.5231957,4.544485,1.1518525,-0.8068711,-6.4041696,-10.170568,-10.869676,-1.1587936
0.51714736,4.546729,1.1518525,-0.8068711,-6.4041696,-10.170568,-10.869676,-1.1587936
0.5103542,4.5491676,1.1241556,-0.8292417,-6.511761,-10.25676,-10.783484,-1.2354081
0.5047959,4.55114,1.1241556,-0.8292417,-6.511761,-10.25676,-10.783484,-1.2354081
0.4984324,4.553335,1.093263,-0.86439544,-6.62681,-10.251971,-10.520123,-1.0726024
0.49218467,4.5554643,1.093263,-0.86439544,-6.62681,-10.251971,-10.520123,-1.0726024
0.4858501,4.5575705,1.0623703,-0.9123323,-6.74825,-10.189722,-10.304645,-0.8283938
0.4795056,4.559654,1.0623703,-0.9123323,-6.74825,-10.189722,-10.304645,-0.8283938
0.47301334,4.561734,1.0293471,-0.9730524,-6.876082,-10.031705,-9.983821,-0.6560113
0.46648484,4.5638,1.0293471,-0.9730524,-6.876082,-10.031705,-9.983821,-0.6560113
0.45982796,4.5658574,0.9973892,-1.0454904,-7.0113707,-9.734824,-9.672575,-0.5363012
0.45317405,4.567888,0.9973892,-1.0454904,-7.0113707,-9.734824,-9.672575,-0.5363012
0.44637537,4.5699196,0.9675618,-1.1264504,-7.1498547,-9.375694,-9.26556,-0.35913026
0.43955898,4.5719304,0.9675618,-1.1264504,-7.1498547,-9.375694,-9.26556,-0.35913026
0.43263838,4.5739303,0.9398649,-1.2106063,-7.2894044,-9.030929,-9.011775,-0.272939
0.4257208,4.575902,0.9398649,-1.2106063,-7.2894044,-9.030929,-9.011775,-0.272939
0.41866234,4.577873,0.9132333,-1.2947623,-7.4300194,-8.604761,-8.75799,-0.14844051
0.41159278,4.5798197,0.9132333,-1.2947623,-7.4300194,-8.604761,-8.75799,-0.14844051
0.4043852,4.5817676,0.891928,-1.3778529,-7.5674386,-8.078036,-8.566454,-0.090979666
0.39718795,4.5836844,0.891928,-1.3778529,-7.5674386,-8.078036,-8.566454,-0.090979666
0.38979924,4.585617,0.8738185,-1.4556172,-7.6974006,-7.675811,-8.39886,0.01436521
0.3822891,4.587551,0.8738185,-1.4556172,-7.6974006,-7.675811,-8.39886,0.01436521
0.37501988,4.5893908,0.8621006,-1.5237942,-7.815645,-7.1826053,-8.197746,0.019153614
0.3676201,4.591235,0.8621006,-1.5237942,-7.815645,-7.1826053,-8.197746,0.019153614
0.36006686,4.5930862,0.855709,-1.5834489,-7.9211063,-6.679823,-7.8769236,-0.023942016
0.35246408,4.5949206,0.855709,-1.5834489,-7.9211063,-6.679823,-7.8769236,-0.023942016
0.34487438,4.5967193,0.8503827,-1.6303205,-8.008458,-6.3925185,-7.6470804,-0.009576807
0.33722714,4.598503,0.8503827,-1.6303205,-8.008458,-6.3925185,-7.6470804,-0.009576807
0.3295119,4.6002693,0.8503827,-1.6633438,-8.078766,-6.2967505,-7.359776,-0.090979666
0.32194695,4.6019735,0.8503827,-1.6633438,-8.078766,-6.2967505,-7.359776,-0.090979666
0.31416178,4.6036954,0.85357845,-1.6910406,-8.132029,-6.181829,-7.067683,-0.272939
0.30621696,4.605424,0.85357845,-1.6910406,-8.132029,-6.181829,-7.067683,-0.272939
0.29841718,4.607102,0.855709,-1.7176722,-8.162921,-5.793968,-6.8330517,-0.17238252
0.2906447,4.6087465,0.855709,-1.7176722,-8.162921,-5.793968,-6.8330517,-0.17238252
0.28282264,4.6103754,0.8578395,-1.7421733,-8.175704,-5.45878,-6.588843,-0.37349546
0.2749574,4.611986,0.8578395,-1.7421733,-8.175704,-5.45878,-6.588843,-0.37349546
0.26713672,4.613569,0.85997003,-1.7592176,-8.1693125,-4.9320555,-6.3829417,-0.4261679
0.25931218,4.615125,0.85997003,-1.7592176,-8.1693125,-4.9320555,-6.3829417,-0.4261679
0.25151148,4.616655,0.86103535,-1.7656091,-8.143746,-4.6160207,-6.2345014,-0.50757074
0.24370694,4.61816,0.86103535,-1.7656091,-8.143746,-4.6160207,-6.2345014,-0.50757074
0.23594233,4.619637,0.86103535,-1.7656091,-8.101136,-4.295198,-6.167464,-0.5602432
0.22811964,4.6211004,0.86103535,-1.7656091,-8.101136,-4.295198,-6.167464,-0.5602432
0.2203158,4.6225343,0.8578395,-1.7602829,-8.041481,-3.9025488,-6.009446,-0.6655881
0.21271665,4.623907,0.8578395,-1.7602829,-8.041481,-3.9025488,-6.009446,-0.6655881
0.20509015,4.6252623,0.85357845,-1.7538912,-7.964782,-3.5482068,-5.78918,-0.7374141
0.19747569,4.6265936,0.85357845,-1.7538912,-7.964782,-3.5482068,-5.78918,-0.7374141
0.18978003,4.6279087,0.8461216,-1.7474997,-7.8742347,-2.8778305,-5.5401826,-0.80924016
0.18228544,4.6291685,0.8461216,-1.7474997,-7.8742347,-2.8778305,-5.5401826,-0.80924016
0.17485927,4.630384,0.8344037,-1.7357818,-7.7741,-2.4468741,-5.3486466,-0.866701
0.16739312,4.631586,0.8344037,-1.7357818,-7.7741,-2.4468741,-5.3486466,-0.866701
0.16001655,4.63274,0.81842476,-1.716607,-7.6590514,-1.958457,-5.032612,-0.82360536
0.15265271,4.633874,0.81842476,-1.716607,-7.6590514,-1.958457,-5.032612,-0.82360536
0.14537334,4.6349354,0.7981847,-1.6921059,-7.5312195,-1.4173675,-4.7070007,-0.91458505
0.13809396,4.6359797,0.7981847,-1.6921059,-7.5312195,-1.4173675,-4.7070007,-0.91458505
0.13088925,4.6369534,0.7715531,-1.6665395,-7.3895392,-0.89543146,-4.3287168,-0.9672575
0.1236795,4.6379113,0.7715531,-1.6665395,-7.3895392,-0.89543146,-4.3287168,-0.9672575
0.116562806,4.6388073,0.73746467,-1.6345816,-7.236141,-0.34476504,-4.0797195,-0.89543146
0.10942079,4.6396904,0.73746467,-1.6345816,-7.236141,-0.34476504,-4.0797195,-0.89543146
0.10241583,4.640518,0.69591933,-1.5930363,-7.074221,0.22026655,-3.8402996,-1.0151415
0.09539781,4.6413307,0.69591933,-1.5930363,-7.074221,0.22026655,-3.8402996,-1.0151415
0.0885179,4.642083,0.64478666,-1.5408384,-6.9037786,0.7565677,-3.7301662,-1.1252748
0.08134901,4.642851,0.64478666,-1.5408384,-6.9037786,0.7565677,-3.7301662,-1.1252748
0.07480125,4.6435003,0.5861971,-1.4769225,-6.7258797,1.2641385,-3.6727054,-1.2210429
0.06767491,4.644192,0.5861971,-1.4769225,-6.7258797,1.2641385,-3.6727054,-1.2210429
0.061391618,4.644737,0.5190854,-1.4002235,-6.5447845,1.6089035,-3.7062242,-1.364695
0.05274903,4.645467,0.5190854,-1.4002235,-6.5447845,1.6089035,-3.7062242,-1.364695
0.043030027,4.646161,0.44345164,-1.3096759,-6.357298,1.8483237,-3.821146,-1.4987702
0.041424006,4.646273,0.44345164,-1.3096759,-6.357298,1.8483237,-3.821146,-1.4987702
0.035779677,4.646591,0.3614263,-1.2127368,-6.1623545,1.9488802,-3.9456444,-1.6711528
0.024725905,4.647189,0.3614263,-1.2127368,-6.1623545,1.9488802,-3.9456444,-1.6711528
0.023512302,4.6472354,0.27620512,-1.1147326,-5.958889,2.0925324,-4.0701427,-2.030283
0.017701454,4.6474524,0.18565765,-1.015663,-5.7511625,2.0685902,-4.223372,-2.2936451
0.011943797,4.6475677,0.18565765,-1.015663,-5.7511625,2.0685902,-4.223372,-2.2936451
0.0061694,4.6476755,0.18565765,-1.015663,-5.7511625,2.0685902,-4.223372,-2.2936451
0.0006379187,4.6476803,0.09511018,-0.9197892,-5.5359793,2.0733786,-4.3239284,-2.528277
6.2782593,4.6476774,0.09511018,-0.9197892,-5.5359793,2.0733786,-4.3239284,-2.528277
6.2729278,4.64758,0.00988902,-0.8292417,-5.3112082,2.303222,-4.429273,-2.906561
6.2676177,4.647477,0.00988902,-0.8292417,-5.3112082,2.303222,-4.429273,-2.906561
6.262505,4.6472917,-0.06787529,-0.74295527,-5.078981,2.5330653,-4.3766007,-3.0262709
6.257347,4.647099,-0.06787529,-0.74295527,-5.078981,2.5330653,-4.3766007,-3.0262709
6.252491,4.646842,-0.13498695,-0.6556036,-4.842492,2.815581,-4.462792,-3.1364043
6.247621,4.646579,-0.13498695,-0.6556036,-4.842492,2.815581,-4.462792,-3.1364043
6.24299,4.6462574,-0.19251123,-0.56718665,-4.6028075,2.8682537,-4.510676,-3.2273839
6.238346,4.6459303,-0.19251123,-0.56718665,-4.6028075,2.8682537,-4.510676,-3.2273839
6.2339253,4.6455564,-0.24044813,-0.48516127,-4.367384,2.9831753,-4.5537715,-3.2561142
6.2295103,4.645179,-0.24044813,-0.48516127,-4.367384,2.9831753,-4.5537715,-3.2561142
6.2253175,4.6447697,-0.27773237,-0.4095275,-4.134091,3.1028855,-4.572925,-3.0693667
6.221125,4.6443577,-0.27773237,-0.4095275,-4.134091,3.1028855,-4.572925,-3.0693667
6.217154,4.6439285,-0.30223346,-0.33922005,-3.9018636,3.217807,-4.7022123,-2.8491
6.213184,4.643496,-0.30223346,-0.33922005,-3.9018636,3.217807,-4.7022123,-2.8491
6.2094374,4.6430554,-0.3160819,-0.26784733,-3.6717663,3.1316159,-4.8123455,-2.7006595
6.2056913,4.6426125,-0.3160819,-0.26784733,-3.6717663,3.1316159,-4.8123455,-2.7006595
6.2021675,4.642173,-0.32034296,-0.19860514,-3.4469955,2.9640217,-4.975151,-2.456451
6.1986375,4.6417303,-0.32034296,-0.19860514,-3.4469955,2.9640217,-4.975151,-2.456451
6.1953297,4.641305,-0.31288612,-0.13575453,-3.2243552,2.8443117,-5.142745,-2.2409728
6.1920357,4.6408787,-0.31288612,-0.13575453,-3.2243552,2.8443117,-5.142745,-2.2409728
6.1889153,4.6404767,-0.29477662,-0.078230254,-3.005976,2.8682537,-5.305551,-2.054225
6.1858172,4.6400766,-0.29477662,-0.078230254,-3.005976,2.8682537,-5.305551,-2.054225
6.1829133,4.6397142,-0.27027553,-0.029228088,-2.7939885,2.896984,-5.506664,-1.7717092
6.180015,4.639351,-0.27027553,-0.029228088,-2.7939885,2.896984,-5.506664,-1.7717092
6.177312,4.639025,-0.24044813,0.016578285,-2.5883925,2.9113493,-5.731719,-1.7190368
6.1746144,4.6386995,-0.24044813,0.016578285,-2.5883925,2.9113493,-5.731719,-1.7190368
6.171815,4.638387,-0.2052944,0.0581236,-2.393449,2.930503,-5.861006,-1.5801731
6.1695614,4.638135,-0.2052944,0.0581236,-2.393449,2.930503,-5.861006,-1.5801731
6.16712,4.6378927,-0.16907541,0.0911468,-2.2134192,3.0454245,-6.009446,-1.460463
6.164885,4.63767,-0.16907541,0.0911468,-2.2134192,3.0454245,-6.009446,-1.460463
6.1627135,4.63748,-0.13392168,0.116713144,-2.047238,3.2944214,-6.191406,-1.4987702
6.160559,4.6372905,-0.13392168,0.116713144,-2.047238,3.2944214,-6.191406,-1.4987702
6.158526,4.637137,-0.104094274,0.1390837,-1.8959705,3.4620156,-6.325481,-1.460463
6.1564946,4.636984,-0.104094274,0.1390837,-1.8959705,3.4620156,-6.325481,-1.460463
6.1545906,4.6368675,-0.075332135,0.1539974,-1.7670735,3.4332852,-6.459556,-1.3311762
6.152686,4.636751,-0.075332135,0.1539974,-1.7670735,3.4332852,-6.459556,-1.3311762
6.150889,4.6366634,-0.05189632,0.16358478,-1.656286,3.3423057,-6.631939,-1.2449849
6.1490755,4.636575,-0.05189632,0.16358478,-1.656286,3.3423057,-6.631939,-1.2449849
6.1473765,4.6365113,-0.033786822,0.16997637,-1.5593469,3.1986535,-6.813898,-1.1348516
6.145683,4.6364474,-0.033786822,0.16997637,-1.5593469,3.1986535,-6.813898,-1.1348516
6.144058,4.6364017,-0.021003649,0.17317216,-1.4783869,3.0454245,-6.9862804,-1.0247183
6.1424417,4.6363564,-0.021003649,0.17317216,-1.4783869,3.0454245,-6.9862804,-1.0247183
6.140864,4.636327,-0.013546798,0.17104164,-1.4123404,2.8921957,-7.1730285,-0.8810662
6.139313,4.636297,-0.013546798,0.17104164,-1.4123404,2.8921957,-7.1730285,-0.8810662
6.137808,4.636272,-0.008220476,0.16251951,-1.3590772,2.72939,-7.374141,-0.8619126
6.136309,4.636247,-0.008220476,0.16251951,-1.3590772,2.72939,-7.374141,-0.8619126
6.1348386,4.6362224,-0.0071552116,0.15186687,-1.3164667,2.6001031,-7.5704656,-0.8379706
6.133383,4.636198,-0.0071552116,0.15186687,-1.3164667,2.6001031,-7.5704656,-0.8379706
6.1319594,4.6361647,-0.0071552116,0.13482264,-1.281313,2.4708161,-7.7093296,-0.89064306
6.1305366,4.636131,-0.0071552116,0.13482264,-1.281313,2.4708161,-7.7093296,-0.89064306
6.1291423,4.636092,-0.010351005,0.11138682,-1.2568119,2.3463178,-7.776367,-0.8475474
6.127745,4.6360536,-0.010351005,0.11138682,-1.2568119,2.3463178,-7.776367,-0.8475474
6.126371,4.635997,-0.013546798,0.08475521,-1.2408328,2.2697031,-7.833828,-0.91937345
6.124997,4.63594,-0.013546798,0.08475521,-1.2408328,2.2697031,-7.833828,-0.91937345
6.123645,4.635868,-0.015677327,0.05599307,-1.2269844,2.2266076,-7.929596,-0.9864111
6.1222925,4.635795,-0.015677327,0.05599307,-1.2269844,2.2266076,-7.929596,-0.9864111
6.1209607,4.635709,-0.017807856,0.021904606,-1.2142012,2.183512,-7.9631147,-1.0199299
6.119629,4.635622,-0.017807856,0.021904606,-1.2142012,2.183512,-7.9631147,-1.0199299
6.1183186,4.635518,-0.018873122,-0.015379649,-1.2056792,2.2026656,-7.97748,-1.13964
6.1170087,4.635413,-0.018873122,-0.015379649,-1.2056792,2.2026656,-7.97748,-1.13964
6.1157,4.635311,-0.017807856,-0.0558597,-1.1992875,2.2840683,-7.8865004,-1.0773908
6.114391,4.635208,-0.017807856,-0.0558597,-1.1992875,2.2840683,-7.8865004,-1.0773908
6.1130943,4.6351004,-0.012481534,-0.09633975,-1.192896,2.3942018,-7.833828,-1.1683705
6.1117983,4.6349916,-0.012481534,-0.09633975,-1.192896,2.3942018,-7.833828,-1.1683705
6.1105113,4.634885,-0.0039594183,-0.133624,-1.1865044,2.4612393,-7.714118,-1.2018893
6.1092243,4.634777,-0.0039594183,-0.133624,-1.1865044,2.4612393,-7.714118,-1.2018893
6.1079483,4.634676,0.008823755,-0.16558194,-1.1790475,2.4995465,-7.680599,-1.2306197
6.1066723,4.634574,0.008823755,-0.16558194,-1.1790475,2.4995465,-7.680599,-1.2306197
6.105407,4.6344814,0.022672193,-0.19114828,-1.1694602,2.585738,-7.6135616,-1.2593501
6.104142,4.634389,0.022672193,-0.19114828,-1.1694602,2.585738,-7.6135616,-1.2593501
6.102887,4.63431,0.03865116,-0.21351884,-1.1588075,2.6767175,-7.5225816,-1.2689269
6.101632,4.6342297,0.03865116,-0.21351884,-1.1588075,2.6767175,-7.5225816,-1.2689269
6.100384,4.6341705,0.055695392,-0.22736728,-1.1470896,2.7820623,-7.393295,-1.2162545
6.099137,4.6341105,0.055695392,-0.22736728,-1.1470896,2.7820623,-7.393295,-1.2162545
6.097908,4.634063,0.07273962,-0.23375887,-1.1311107,2.8874073,-7.249643,-1.3120226
6.096679,4.6340146,0.07273962,-0.23375887,-1.1311107,2.8874073,-7.249643,-1.3120226
6.0954695,4.6339827,0.09084912,-0.2326936,-1.1130011,2.906561,-7.144298,-1.3503298
6.09426,4.6339498,0.09084912,-0.2326936,-1.1130011,2.906561,-7.144298,-1.3503298
6.0930758,4.6339293,0.104697555,-0.22310622,-1.0906305,2.9592333,-7.091625,-1.4460979
6.091893,4.6339083,0.104697555,-0.22310622,-1.0906305,2.9592333,-7.091625,-1.4460979
6.090739,4.6338987,0.1153502,-0.20712726,-1.0618684,2.9400797,-7.0485296,-1.460463
6.0895834,4.633889,0.1153502,-0.20712726,-1.0618684,2.9400797,-7.0485296,-1.460463
6.0884585,4.633889,0.120676525,-0.18582197,-1.0299104,2.992752,-7.101202,-1.4796166
6.0873322,4.633889,0.120676525,-0.18582197,-1.0299104,2.992752,-7.101202,-1.4796166
6.086251,4.633889,0.122807056,-0.15812509,-0.9936915,2.906561,-6.95755,-1.5993267
6.085168,4.633889,0.122807056,-0.15812509,-0.9936915,2.906561,-6.95755,-1.5993267
6.084126,4.633894,0.120676525,-0.12936294,-0.95001566,2.9640217,-7.0485296,-1.6041151
6.0830836,4.633898,0.120676525,-0.12936294,-0.95001566,2.9640217,-7.0485296,-1.6041151
6.082086,4.6339016,0.11108914,-0.10166607,-0.89994824,3.0502129,-7.144298,-1.5801731
6.0810885,4.633905,0.11108914,-0.10166607,-0.89994824,3.0502129,-7.144298,-1.5801731
6.0801477,4.633899,0.09830597,-0.06864287,-0.846685,2.930503,-7.2209125,-1.5897499
6.0792055,4.633893,0.09830597,-0.06864287,-0.846685,2.930503,-7.2209125,-1.5897499
6.078334,4.633871,0.08339227,-0.035619672,-0.7880955,2.705448,-7.2209125,-1.6519991
6.0774617,4.633849,0.08339227,-0.035619672,-0.7880955,2.705448,-7.2209125,-1.6519991
6.076653,4.63381,0.062086977,-0.008988062,-0.7252449,2.7006595,-7.2687964,-1.6998832
6.0758452,4.6337714,0.062086977,-0.008988062,-0.7252449,2.7006595,-7.2687964,-1.6998832
6.0750937,4.633715,0.03652063,0.014447756,-0.661329,2.777274,-7.3645644,-1.6663644
6.0743437,4.633659,0.03652063,0.014447756,-0.661329,2.777274,-7.3645644,-1.6663644
6.073652,4.63358,0.0066932263,0.035753045,-0.5974131,2.882619,-7.455544,-1.6807296
6.0729604,4.6335015,0.0066932263,0.035753045,-0.5974131,2.882619,-7.455544,-1.6807296
6.072319,4.6334004,-0.027395237,0.054927804,-0.53669304,2.9496565,-7.517793,-1.5466543
6.0716777,4.633299,-0.027395237,0.054927804,-0.53669304,2.9496565,-7.517793,-1.5466543
6.0710926,4.633173,-0.060418434,0.0762331,-0.47490773,2.96881,-7.5800424,-1.484405
6.0705075,4.633047,-0.09557216,0.09647312,-0.4131224,2.9161377,-7.6470804,-1.4030021
6.06998,4.6328936,-0.09557216,0.09647312,-0.4131224,2.9161377,-7.6470804,-1.4030021
6.069449,4.632738,-0.09557216,0.09647312,-0.4131224,2.9161377,-7.6470804,-1.4030021
6.0689774,4.6325626,-0.12859535,0.11564788,-0.3524023,2.8299465,-7.771579,-1.2593501
6.068507,4.6323876,-0.12859535,0.11564788,-0.3524023,2.8299465,-7.771579,-1.2593501
6.0680923,4.6321826,-0.16268381,0.13162684,-0.29381275,2.7006595,-7.824251,-1.1827357
6.0676775,4.631977,-0.16268381,0.13162684,-0.29381275,2.7006595,-7.824251,-1.1827357
6.067313,4.6317425,-0.19464175,0.14547528,-0.23948428,2.6192567,-7.953538,-1.1300632
6.0669537,4.631511,-0.19464175,0.14547528,-0.23948428,2.6192567,-7.953538,-1.1300632
6.0666337,4.6312585,-0.2265997,0.15825845,-0.18728632,2.5617957,-8.025364,-1.0103531
6.066314,4.631006,-0.2265997,0.15825845,-0.18728632,2.5617957,-8.025364,-1.0103531
6.066041,4.6307335,-0.25429657,0.16784583,-0.1372189,2.5713725,-8.178593,-0.9768343
6.065766,4.63046,-0.25429657,0.16784583,-0.1372189,2.5713725,-8.178593,-0.9768343
6.0655384,4.6301646,-0.27879766,0.17530268,-0.091412514,2.5617957,-8.274361,-0.9816227
6.0653114,4.6298714,-0.27879766,0.17530268,-0.091412514,2.5617957,-8.274361,-0.9816227
6.065117,4.6295643,-0.30010295,0.18275954,-0.050932467,2.6527755,-8.288726,-0.9576807
6.064923,4.629259,-0.30010295,0.18275954,-0.050932467,2.6527755,-8.288726,-0.9576807
6.0647626,4.6289377,-0.31821242,0.18915112,-0.015778739,2.6671407,-8.418014,-0.9624691
6.064603,4.628618,-0.31821242,0.18915112,-0.015778739,2.6671407,-8.418014,-0.9624691
6.064476,4.628273,-0.33312613,0.19341218,0.014048667,2.6001031,-8.475474,-0.9959879
6.0643506,4.6279335,-0.33312613,0.19341218,0.014048667,2.6001031,-8.475474,-0.9959879
6.064255,4.6275716,-0.34484404,0.19660798,0.037484486,2.552219,-8.513782,-1.043872
6.06416,4.627212,-0.34484404,0.19660798,0.037484486,2.552219,-8.513782,-1.043872
6.0640893,4.626832,-0.35549667,0.1987385,0.056659244,2.4995465,-8.5473,-1.067814
6.06401,4.6264114,-0.35549667,0.1987385,0.056659244,2.4995465,-8.5473,-1.067814
6.0639653,4.626067,-0.36295354,0.19767325,0.07263821,2.4612393,-8.623915,-1.0773908
6.0639153,4.625682,-0.36295354,0.19767325,0.07263821,2.4612393,-8.623915,-1.0773908
6.06386,4.6253095,-0.3672146,0.19447745,0.08435612,2.408567,-8.700529,-0.94331545
6.063804,4.6249347,-0.3672146,0.19447745,0.08435612,2.408567,-8.700529,-0.94331545
6.063756,4.624564,-0.36827987,0.19341218,0.09500877,2.3989902,-8.719683,-0.92416185
6.063707,4.6241937,-0.36827987,0.19341218,0.09500877,2.3989902,-8.719683,-0.92416185
6.0636654,4.623825,-0.36934513,0.19234692,0.103530884,2.3798366,-8.815451,-0.91458505
6.0635877,4.6231437,-0.36934513,0.19234692,0.103530884,2.3798366,-8.815451,-0.91458505
6.063581,4.623067,-0.36934513,0.19234692,0.112053,2.3223755,-8.858546,-0.90979666
6.063549,4.622695,-0.36934513,0.19234692,0.112053,2.3223755,-8.858546,-0.90979666
6.063549,4.622695,-0.36934513,0.19234692,0.112053,2.3223755,-8.858546,-0.90979666
6.063549,4.622695,-0.36934513,0.19234692,0.112053,2.3223755,-8.858546,-0.90979666
6.063441,4.621607,-0.36295354,0.19341218,0.12590143,2.1787236,-9.131485,-0.80924016
6.0634303,4.621497,-0.36295354,0.19341218,0.12590143,2.1787236,-9.131485,-0.80924016
6.0635066,4.6212792,-0.3576272,0.19341218,0.13229302,2.0733786,-9.222465,-0.8283938
6.0635796,4.6210723,-0.3576272,0.19341218,0.13229302,2.0733786,-9.222465,-0.8283938
6.0637927,4.6206927,-0.3491051,0.19554271,0.13761935,1.9967642,-9.260772,-0.90979666
6.064006,4.6203175,-0.3491051,0.19554271,0.13761935,1.9967642,-9.260772,-0.90979666
6.064273,4.620019,-0.3395177,0.19980377,0.14614145,1.9393034,-9.361329,-0.8714894
6.0645394,4.6197224,-0.3395177,0.19980377,0.14614145,1.9393034,-9.361329,-0.8714894
6.0648074,4.619413,-0.32993034,0.20086904,0.15359831,1.9153614,-9.433155,-0.91458505
6.0650773,4.6191034,-0.32993034,0.20086904,0.15359831,1.9153614,-9.433155,-0.91458505
6.065347,4.618794,-0.3192777,0.20299956,0.1599899,1.8866309,-9.490616,-0.9528923
6.0656195,4.6184826,-0.3192777,0.20299956,0.1599899,1.8866309,-9.490616,-0.9528923
6.065906,4.618231,-0.30862504,0.2051301,0.16744675,1.9632454,-9.548077,-0.89064306
6.066191,4.617983,-0.30862504,0.2051301,0.16744675,1.9632454,-9.548077,-0.89064306
6.0664496,4.617665,-0.29690716,0.20726062,0.17596887,1.9536686,-9.56723,-1.0151415
6.0667067,4.6173487,-0.29690716,0.20726062,0.17596887,1.9536686,-9.56723,-1.0151415
6.0669646,4.6170397,-0.28412396,0.20939115,0.18342571,1.9967642,-9.586384,-1.0055647
6.067223,4.6167316,-0.28412396,0.20939115,0.18342571,1.9967642,-9.586384,-1.0055647
6.067442,4.6164174,-0.27027553,0.21152169,0.18875204,2.0207062,-9.528923,-1.0582372
6.0676613,4.6161027,-0.27027553,0.21152169,0.18875204,2.0207062,-9.528923,-1.0582372
6.0678606,4.615795,-0.25855762,0.21578273,0.19514363,2.0638018,-9.557653,-1.0773908
6.068059,4.615488,-0.25855762,0.21578273,0.19514363,2.0638018,-9.557653,-1.0773908
6.06826,4.6151943,-0.24577445,0.2200438,0.19833942,2.0685902,-9.56723,-1.0630256
6.06846,4.6149006,-0.24577445,0.2200438,0.19833942,2.0685902,-9.56723,-1.0630256
6.068645,4.6146183,-0.23299128,0.22537012,0.19940469,2.078167,-9.524135,-1.0869676
6.068827,4.614337,-0.23299128,0.22537012,0.19940469,2.078167,-9.524135,-1.0869676
6.0689735,4.6140704,-0.22127336,0.23069644,0.19727415,2.0925324,-9.500193,-0.9816227
6.0691156,4.613804,-0.22127336,0.23069644,0.19727415,2.0925324,-9.500193,-0.9816227
6.069407,4.613702,-0.2084902,0.23602276,0.19407836,1.9871874,-9.56723,-0.90500826
6.069697,4.6136017,-0.2084902,0.23602276,0.19407836,1.9871874,-9.56723,-0.90500826
6.069962,4.6135354,-0.19570702,0.24241436,0.1930131,1.9249382,-9.600749,-0.8331822
6.070233,4.613468,-0.19570702,0.24241436,0.1930131,1.9249382,-9.600749,-0.8331822
6.0704756,4.613427,-0.18292385,0.2498712,0.1930131,1.8435353,-9.677363,-0.7086837
6.070722,4.613385,-0.18292385,0.2498712,0.1930131,1.8435353,-9.677363,-0.7086837
6.0709634,4.6133585,-0.17014067,0.25626278,0.19194783,1.7669208,-9.840169,-0.59376204
6.071204,4.6133327,-0.17014067,0.25626278,0.19194783,1.7669208,-9.840169,-0.59376204
6.071452,4.613316,-0.15629223,0.26371965,0.18981731,1.6280571,-9.950302,-0.5267244
6.071699,4.6133,-0.15629223,0.26371965,0.18981731,1.6280571,-9.950302,-0.5267244
6.071944,4.613299,-0.14244379,0.26691544,0.18875204,1.6903064,-9.983821,-0.56982
6.072189,4.6132984,-0.14244379,0.26691544,0.18875204,1.6903064,-9.983821,-0.56982
6.072422,4.613313,-0.12966062,0.26904595,0.18342571,1.685518,-10.108319,-0.50757074
6.0726547,4.613328,-0.12966062,0.26904595,0.18342571,1.685518,-10.108319,-0.50757074
6.0728855,4.6133556,-0.11581218,0.2711765,0.17916466,1.6041151,-10.160992,-0.44532153
6.073116,4.613384,-0.11581218,0.2711765,0.17916466,1.6041151,-10.160992,-0.44532153
6.0733533,4.613417,-0.10196375,0.27011123,0.17277306,1.5514427,-10.218452,-0.5267244
6.0735908,4.613451,-0.10196375,0.27011123,0.17277306,1.5514427,-10.218452,-0.5267244
6.0738134,4.613501,-0.08705004,0.2615891,0.16318569,1.5753847,-10.271125,-0.48841715
6.0740366,4.613551,-0.08705004,0.2615891,0.16318569,1.5753847,-10.271125,-0.48841715
6.074245,4.613617,-0.07000581,0.25093648,0.15146779,1.6089035,-10.34774,-0.47884035
6.074454,4.6136837,-0.07000581,0.25093648,0.15146779,1.6089035,-10.34774,-0.47884035
6.074652,4.613764,-0.052961584,0.2381533,0.13974987,1.5849615,-10.295067,-0.46926352
6.074851,4.613844,-0.052961584,0.2381533,0.13974987,1.5849615,-10.295067,-0.46926352
6.0750384,4.61394,-0.032721557,0.22323959,0.12483617,1.5801731,-10.189722,-0.49320555
6.075226,4.614036,-0.032721557,0.22323959,0.12483617,1.5801731,-10.189722,-0.49320555
6.0753894,4.61415,-0.013546798,0.2051301,0.10566141,1.6232687,-10.13705,-0.47884035
6.0755525,4.614264,-0.013546798,0.2051301,0.10566141,1.6232687,-10.13705,-0.47884035
6.0757074,4.614387,0.003497433,0.18808587,0.087551914,1.541866,-10.022128,-0.48841715
6.0758624,4.6145105,0.003497433,0.18808587,0.087551914,1.541866,-10.022128,-0.48841715
6.0759616,4.614661,0.020541664,0.16784583,0.06837715,1.8004397,-10.170568,-0.35913026
6.076061,4.6148124,0.020541664,0.16784583,0.06837715,1.8004397,-10.170568,-0.35913026
6.0761766,4.614966,0.039716423,0.1508016,0.05026766,1.5370775,-9.911995,-0.4405331
6.0762925,4.6151195,0.039716423,0.1508016,0.05026766,1.5370775,-9.911995,-0.4405331
6.076339,4.615301,0.056760654,0.13162684,0.031092897,1.8818425,-10.299856,-0.095768064
6.076385,4.6154833,0.056760654,0.13162684,0.031092897,1.8818425,-10.299856,-0.095768064
6.0764065,4.6156845,0.07913121,0.11564788,0.009787609,1.9488802,-10.702082,0.11971009
6.076428,4.615885,0.07913121,0.11564788,0.009787609,1.9488802,-10.702082,0.11971009
6.0764513,4.6161137,0.11321967,0.104995236,-0.010452416,1.7190368,-10.290278,-0.10534488
6.0764747,4.6163425,0.11321967,0.104995236,-0.010452416,1.7190368,-10.290278,-0.10534488
6.0765157,4.616596,0.15156919,0.09434259,-0.026431382,1.4891934,-9.945514,-0.33997664
6.0765576,4.61685,0.15156919,0.09434259,-0.026431382,1.4891934,-9.945514,-0.33997664
6.0765953,4.6171265,0.18246186,0.07942889,-0.04027982,1.364695,-9.830592,-0.33039984
6.076633,4.6174026,0.18246186,0.07942889,-0.04027982,1.364695,-9.830592,-0.33039984
6.0766525,4.617705,0.20589767,0.061319392,-0.046671405,1.3551182,-10.19451,-0.10055647
6.0766726,4.6180067,0.20589767,0.061319392,-0.046671405,1.3551182,-10.19451,-0.10055647
6.0766835,4.618331,0.22933349,0.04107937,-0.0498672,1.4030021,-10.338163,0.0047884034
6.076694,4.6186543,0.22933349,0.04107937,-0.0498672,1.4030021,-10.338163,0.0047884034
6.076697,4.6190047,0.25703037,0.016578285,-0.050932467,1.5179238,-10.362105,0.04309563
6.0766997,4.6193542,0.25703037,0.016578285,-0.050932467,1.5179238,-10.362105,0.04309563
6.076683,4.6197333,0.28685778,-0.008988062,-0.05519352,1.7238252,-10.323798,0.08619126
6.0766664,4.6201124,0.28685778,-0.008988062,-0.05519352,1.7238252,-10.323798,0.08619126
6.0766287,4.62052,0.31775045,-0.031358615,-0.060519844,1.934515,-10.271125,0.033518825
6.0765915,4.6209283,0.31775045,-0.031358615,-0.060519844,1.934515,-10.271125,0.033518825
6.076547,4.621362,0.3465126,-0.048402846,-0.06371564,1.9919758,-10.19451,-0.06703765
6.0765033,4.6217957,0.3465126,-0.048402846,-0.06371564,1.9919758,-10.19451,-0.06703765
6.076451,4.6222534,0.37207893,-0.059055492,-0.062650375,2.0638018,-10.089166,0
6.076398,4.622711,0.37207893,-0.059055492,-0.062650375,2.0638018,-10.089166,0
6.076357,4.6232433,0.39551476,-0.066512346,-0.056258786,1.9919758,-10.0987425,-0.033518825
6.076323,4.6236773,0.39551476,-0.066512346,-0.056258786,1.9919758,-10.0987425,-0.033518825
6.076309,4.624177,0.4146895,-0.07183866,-0.048801936,1.8770541,-10.0508585,-0.1436521
6.0762954,4.624667,0.4146895,-0.07183866,-0.048801936,1.8770541,-10.0508585,-0.1436521
6.0763073,4.625175,0.43386427,-0.07503446,-0.036018763,1.7429788,-9.993398,-0.110133275
6.0763197,4.625685,0.43386427,-0.07503446,-0.036018763,1.7429788,-9.993398,-0.110133275
6.076367,4.626212,0.44877797,-0.08142605,-0.015778739,1.6759412,-9.940725,-0.22026655
6.0764136,4.626734,0.44877797,-0.08142605,-0.015778739,1.6759412,-9.940725,-0.22026655
6.0764823,4.627266,0.4604959,-0.091013424,0.00765708,1.661576,-9.854534,-0.18195933
6.0765514,4.627801,0.4604959,-0.091013424,0.00765708,1.661576,-9.854534,-0.18195933
6.0766454,4.6283417,0.47008327,-0.10166607,0.033223428,1.7238252,-9.854534,-0.25857377
6.076739,4.6288815,0.47008327,-0.10166607,0.033223428,1.7238252,-9.854534,-0.25857377
6.076851,4.6294327,0.4786054,-0.11444924,0.059855036,1.8387469,-9.797073,-0.36391866
6.076963,4.6299834,0.4786054,-0.11444924,0.059855036,1.8387469,-9.797073,-0.36391866
6.0770855,4.6305404,0.4807359,-0.1251019,0.08542138,1.9153614,-9.773131,-0.34955344
6.077207,4.631095,0.4807359,-0.1251019,0.08542138,1.9153614,-9.773131,-0.34955344
6.07734,4.6316495,0.4807359,-0.133624,0.10779194,1.9728222,-9.739613,-0.39264908
6.0774727,4.6322017,0.4807359,-0.133624,0.10779194,1.9728222,-9.739613,-0.39264908
6.0776377,4.6327524,0.4786054,-0.13788506,0.13122776,1.9393034,-9.758766,-0.3878607
6.0778036,4.6333075,0.4786054,-0.13788506,0.13122776,1.9393034,-9.758766,-0.3878607
6.077991,4.6338506,0.47114852,-0.14001559,0.15466358,1.9488802,-9.773131,-0.40222588
6.078178,4.6343927,0.47114852,-0.14001559,0.15466358,1.9488802,-9.773131,-0.40222588
6.078397,4.6349263,0.46156114,-0.13895033,0.17703412,1.934515,-9.821015,-0.44532153
6.0786157,4.6354594,0.46156114,-0.13895033,0.17703412,1.934515,-9.821015,-0.44532153
6.078874,4.635978,0.44877797,-0.13468927,0.19940469,1.8722657,-9.849746,-0.4405331
6.079133,4.636498,0.44877797,-0.13468927,0.19940469,1.8722657,-9.849746,-0.4405331
6.0794215,4.636997,0.43386427,-0.12936294,0.22070996,1.8483237,-9.89763,-0.45968673
6.0797105,4.637497,0.43386427,-0.12936294,0.22070996,1.8483237,-9.89763,-0.45968673
6.080027,4.6379805,0.4178853,-0.122971356,0.2377542,1.8387469,-9.959879,-0.48841715
6.0803437,4.638463,0.4178853,-0.122971356,0.2377542,1.8387469,-9.959879,-0.48841715
6.080692,4.6389227,0.3997758,-0.11551451,0.25373316,1.8435353,-9.950302,-0.5554548
6.0810404,4.6393814,0.3997758,-0.11551451,0.25373316,1.8435353,-9.950302,-0.5554548
6.0814285,4.639805,0.3784705,-0.10486186,0.2707774,1.8435353,-9.993398,-0.61770403
6.08182,4.6402307,0.3784705,-0.10486186,0.2707774,1.8435353,-9.993398,-0.61770403
6.082245,4.6406007,0.35716522,-0.09420922,0.28675637,1.8148049,-10.041282,-0.6751649
6.082671,4.6409698,0.35716522,-0.09420922,0.28675637,1.8148049,-10.041282,-0.6751649
6.0831213,4.64128,0.33479467,-0.08249131,0.30060482,1.8100165,-10.060435,-0.7469909
6.083571,4.6415887,0.33479467,-0.08249131,0.30060482,1.8100165,-10.060435,-0.7469909
6.084004,4.641835,0.31135887,-0.07183866,0.3123227,1.8962077,-10.1226845,-0.78529817
6.0844336,4.6420794,0.31135887,-0.07183866,0.3123227,1.8962077,-10.1226845,-0.78529817
6.0848827,4.642309,0.28685778,-0.060120758,0.32510588,1.6280571,-10.055647,-0.8619126
6.0853324,4.642538,0.28685778,-0.060120758,0.32510588,1.6280571,-10.055647,-0.8619126
6.085808,4.64282,0.26129144,-0.04946811,0.3368238,1.8626889,-10.218452,-0.6799533
6.0862846,4.643101,0.26129144,-0.04946811,0.3368238,1.8626889,-10.218452,-0.6799533
6.086761,4.6433015,0.23785561,-0.03881547,0.34428066,1.8962077,-10.261548,-0.7517793
6.0872383,4.6435,0.23785561,-0.03881547,0.34428066,1.8962077,-10.261548,-0.7517793
6.0877094,4.643666,0.21655032,-0.0228365,0.35067225,1.7717092,-10.156203,-0.79966336
6.08818,4.643831,0.21655032,-0.0228365,0.35067225,1.7717092,-10.156203,-0.79966336
6.0886664,4.6439877,0.19417977,-0.007922798,0.35812908,1.5753847,-10.13705,-0.8283938
6.0891523,4.6441436,0.19417977,-0.007922798,0.35812908,1.5753847,-10.13705,-0.8283938
6.0896463,4.64429,0.17180921,0.0016645822,0.36132488,1.6136919,-10.1226845,-0.7757214
6.0901394,4.6444354,0.17180921,0.0016645822,0.36132488,1.6136919,-10.1226845,-0.7757214
6.090642,4.6445932,0.1483734,0.009121433,0.3634554,1.6807296,-10.223241,-0.6895301
6.091145,4.6447506,0.1483734,0.009121433,0.3634554,1.6807296,-10.223241,-0.6895301
6.0916295,4.6449337,0.1270681,0.018708814,0.36452067,1.7190368,-10.342952,-0.58897364
6.092115,4.6451178,0.1270681,0.018708814,0.36452067,1.7190368,-10.342952,-0.58897364
6.0925856,4.6452947,0.10789335,0.029361458,0.36025962,1.7429788,-10.366894,-0.5650316
6.093062,4.6454744,0.10789335,0.029361458,0.36025962,1.7429788,-10.366894,-0.5650316
6.093534,4.645634,0.09297965,0.038948838,0.35599855,1.6950948,-10.362105,-0.5602432
6.093534,4.645634,0.09297965,0.038948838,0.35599855,1.6950948,-10.362105,-0.5602432
6.093534,4.645634,0.09297965,0.038948838,0.35599855,1.6950948,-10.362105,-0.5602432
6.0954566,4.646095,0.06528277,0.054927804,0.33895433,1.6089035,-10.251971,-0.56982
6.0954566,4.646095,0.06528277,0.054927804,0.33895433,1.6089035,-10.251971,-0.56982
6.095928,4.64622,0.06528277,0.054927804,0.33895433,1.6089035,-10.251971,-0.56982
6.096379,4.646331,0.051434334,0.061319392,0.32936695,1.5466543,-10.280702,-0.545878
6.09684,4.6464443,0.051434334,0.061319392,0.32936695,1.5466543,-10.280702,-0.545878
6.0972605,4.646553,0.039716423,0.06664571,0.32191008,1.5370775,-10.275913,-0.49320555
6.0977488,4.646679,0.039716423,0.06664571,0.32191008,1.5370775,-10.275913,-0.49320555
6.098108,4.6467695,0.026933251,0.07090677,0.313388,1.5514427,-10.251971,-0.47405192
6.098513,4.6468716,0.026933251,0.07090677,0.313388,1.5514427,-10.251971,-0.47405192
6.0989356,4.646949,0.015215342,0.074102566,0.30273533,1.5179238,-10.19451,-0.5363012
6.099358,4.647025,0.015215342,0.074102566,0.30273533,1.5179238,-10.19451,-0.5363012
6.099768,4.647092,0.003497433,0.07729836,0.2920827,1.484405,-10.156203,-0.521936
6.1001797,4.6471586,0.003497433,0.07729836,0.2920827,1.484405,-10.156203,-0.521936
6.100573,4.6472235,-0.009285741,0.07836362,0.28249532,1.4891934,-10.13705,-0.47884035
6.100573,4.6472235,-0.009285741,0.07836362,0.28249532,1.4891934,-10.13705,-0.47884035
6.1014714,4.647364,-0.02313418,0.07942889,0.27503845,1.4556746,-10.141838,-0.51714754
6.1017523,4.6473923,-0.02313418,0.07942889,0.27503845,1.4556746,-10.141838,-0.51714754
6.102132,4.647425,-0.03698262,0.08049415,0.26651633,1.4556746,-10.1226845,-0.48841715
6.1025105,4.647458,-0.03698262,0.08049415,0.26651633,1.4556746,-10.1226845,-0.48841715
6.10289,4.6474714,-0.049765788,0.08049415,0.2558637,1.4748282,-10.146626,-0.5267244
6.103262,4.6474843,-0.049765788,0.08049415,0.2558637,1.4748282,-10.146626,-0.5267244
6.1036005,4.647508,-0.06361423,0.08049415,0.2441458,1.4939818,-10.093954,-0.4213795
6.103936,4.6475325,-0.06361423,0.08049415,0.2441458,1.4939818,-10.093954,-0.4213795
6.1042647,4.6475444,-0.076397404,0.08049415,0.23349315,1.4939818,-10.103531,-0.4213795
6.1045904,4.6475563,-0.076397404,0.08049415,0.23349315,1.4939818,-10.103531,-0.4213795
6.104904,4.647554,-0.089180574,0.07942889,0.22070996,1.4987702,-10.108319,-0.4309563
6.105218,4.6475525,-0.089180574,0.07942889,0.22070996,1.4987702,-10.108319,-0.4309563
6.1055136,4.647543,-0.09983322,0.07729836,0.2079268,1.541866,-10.055647,-0.45010993
6.1058125,4.6475334,-0.09983322,0.07729836,0.2079268,1.541866,-10.055647,-0.45010993
6.1061153,4.6474943,-0.11048587,0.073037304,0.1930131,1.5945383,-10.0269165,-0.5554548
6.1064186,4.6474557,-0.11048587,0.073037304,0.1930131,1.5945383,-10.0269165,-0.5554548
6.1066713,4.6474333,-0.11900798,0.07090677,0.1780994,1.6041151,-9.9790325,-0.46926352
6.1069245,4.647412,-0.11900798,0.07090677,0.1780994,1.6041151,-9.9790325,-0.46926352
6.1071463,4.6473885,-0.12646483,0.06771098,0.16212043,1.6041151,-9.931149,-0.4213795
6.107366,4.647365,-0.12646483,0.06771098,0.16212043,1.6041151,-9.931149,-0.4213795
6.1075673,4.647338,-0.13072589,0.06451519,0.14401093,1.6472107,-9.89763,-0.48362875
6.107767,4.6473107,-0.13072589,0.06451519,0.14401093,1.6472107,-9.89763,-0.48362875
6.1079855,4.6472616,-0.13498695,0.062384658,0.1269667,1.5945383,-9.931149,-0.521936
6.108203,4.647213,-0.13498695,0.062384658,0.1269667,1.5945383,-9.931149,-0.521936
6.1084423,4.647125,-0.13711748,0.061319392,0.10992247,1.6184803,-9.907207,-0.60812724
6.1086917,4.647033,-0.13711748,0.061319392,0.10992247,1.6184803,-9.907207,-0.60812724
6.1088457,4.6469946,-0.13818274,0.05918886,0.09607403,1.5993267,-9.907207,-0.48362875
6.109012,4.646953,-0.13818274,0.05918886,0.09607403,1.5993267,-9.907207,-0.48362875
6.10918,4.6469035,-0.13711748,0.0581236,0.08222559,1.5897499,-9.935937,-0.521936
6.10935,4.6468534,-0.13711748,0.0581236,0.08222559,1.5897499,-9.935937,-0.521936
6.109514,4.6468005,-0.1360522,0.054927804,0.07050768,1.5993267,-9.921572,-0.545878
6.1096773,4.6467476,-0.1360522,0.054927804,0.07050768,1.5993267,-9.921572,-0.545878
6.1098127,4.646706,-0.13392168,0.050666746,0.059855036,1.6041151,-9.92636,-0.51235914
6.1099434,4.646666,-0.13392168,0.050666746,0.059855036,1.6041151,-9.92636,-0.51235914
6.11009,4.646616,-0.13072589,0.045340426,0.05133292,1.6424223,-9.916783,-0.58418524
6.110239,4.646565,-0.13072589,0.045340426,0.05133292,1.6424223,-9.916783,-0.58418524
6.110395,4.6465044,-0.12646483,0.040014103,0.04387607,1.6232687,-9.907207,-0.59855044
6.110549,4.6464443,-0.12646483,0.040014103,0.04387607,1.6232687,-9.907207,-0.59855044
6.1107235,4.6463366,-0.12326904,0.033622514,0.03641922,1.6376339,-9.878476,-0.6464345
6.110897,4.646231,-0.12326904,0.033622514,0.03641922,1.6376339,-9.878476,-0.6464345
6.1110306,4.6461873,-0.11794271,0.028296193,0.033223428,1.6184803,-9.835381,-0.58897364
6.111163,4.646144,-0.11794271,0.028296193,0.033223428,1.6184803,-9.835381,-0.58897364
6.111308,4.6460915,-0.11261639,0.022969872,0.030027634,1.6376339,-9.840169,-0.61770403
6.111452,4.6460404,-0.11261639,0.022969872,0.030027634,1.6376339,-9.840169,-0.61770403
6.111593,4.645878,-0.107290074,0.018708814,0.02896237,1.6376339,-9.830592,-0.6895301
6.1117344,4.6457157,-0.107290074,0.018708814,0.02896237,1.6376339,-9.830592,-0.6895301
6.1118064,4.6455235,-0.10089848,0.01551302,0.02683184,1.6950948,-9.844957,-0.6847417
6.111879,4.6453314,-0.10089848,0.01551302,0.02683184,1.6950948,-9.844957,-0.6847417
6.112013,4.645303,-0.09557216,0.014447756,0.02683184,1.6711528,-9.811439,-0.641646
6.112144,4.6452765,-0.09557216,0.014447756,0.02683184,1.6711528,-9.811439,-0.641646
6.112311,4.645174,-0.091311105,0.012317227,0.02896237,1.5993267,-9.825804,-0.6703765
6.112478,4.6450725,-0.091311105,0.012317227,0.02896237,1.5993267,-9.825804,-0.6703765
6.1125975,4.6449103,-0.08705004,0.011251962,0.032158162,1.6376339,-9.77792,-0.7038953
6.112718,4.6447477,-0.08705004,0.011251962,0.032158162,1.6376339,-9.77792,-0.7038953
6.1127586,4.644566,-0.08385425,0.011251962,0.03641922,1.6903064,-9.825804,-0.79487497
6.1127987,4.6443834,-0.08385425,0.011251962,0.03641922,1.6903064,-9.825804,-0.79487497
6.1128273,4.6442046,-0.08065846,0.012317227,0.037484486,1.6950948,-9.753978,-0.80924016
6.1128564,4.644026,-0.08065846,0.012317227,0.037484486,1.6950948,-9.753978,-0.80924016
6.1129036,4.64385,-0.077462666,0.012317227,0.037484486,1.6567876,-9.744401,-0.89543146
6.1129513,4.6436744,-0.077462666,0.012317227,0.037484486,1.6567876,-9.744401,-0.89543146
6.112988,4.6435003,-0.075332135,0.013382491,0.037484486,1.6807296,-9.744401,-0.8714894
6.1130247,4.6433268,-0.075332135,0.013382491,0.037484486,1.6807296,-9.744401,-0.8714894
6.113052,4.643158,-0.07107108,0.014447756,0.03641922,1.6998832,-9.77792,-0.842759
6.1130786,4.6429887,-0.07107108,0.014447756,0.03641922,1.6998832,-9.77792,-0.842759
6.113124,4.642823,-0.06787529,0.014447756,0.03641922,1.6567876,-9.720459,-0.8714894
6.1131687,4.6426573,-0.06787529,0.014447756,0.03641922,1.6567876,-9.720459,-0.8714894
6.1132317,4.6424966,-0.06467949,0.01551302,0.03641922,1.6472107,-9.811439,-0.8331822
6.113295,4.6423364,-0.06467949,0.01551302,0.03641922,1.6472107,-9.811439,-0.8331822
6.113348,4.642178,-0.0614837,0.01551302,0.035353955,1.6519991,-9.782708,-0.8523358
6.113401,4.6420197,-0.0614837,0.01551302,0.035353955,1.6519991,-9.782708,-0.8523358
6.113441,4.6418643,-0.057222642,0.014447756,0.033223428,1.6567876,-9.739613,-0.93373865
6.113481,4.641709,-0.057222642,0.014447756,0.033223428,1.6567876,-9.739613,-0.93373865
6.113528,4.6415606,-0.050831053,0.013382491,0.032158162,1.6376339,-9.720459,-0.90979666
6.113574,4.641412,-0.050831053,0.013382491,0.032158162,1.6376339,-9.720459,-0.90979666
6.1136284,4.641271,-0.043374203,0.012317227,0.033223428,1.6376339,-9.753978,-0.866701
6.1136823,4.6411304,-0.043374203,0.012317227,0.033223428,1.6376339,-9.753978,-0.866701
6.1137385,4.6409974,-0.035917353,0.011251962,0.03428869,1.6280571,-9.696517,-0.8523358
6.1137943,4.6408644,-0.035917353,0.011251962,0.03428869,1.6280571,-9.696517,-0.8523358
6.113861,4.640739,-0.029525764,0.011251962,0.03641922,1.5897499,-9.653421,-0.90021986
6.113928,4.6406136,-0.029525764,0.011251962,0.03641922,1.5897499,-9.653421,-0.90021986
6.1140027,4.6404953,-0.02313418,0.012317227,0.039615013,1.5849615,-9.662998,-0.8858546
6.1140776,4.640377,-0.02313418,0.012317227,0.039615013,1.5849615,-9.662998,-0.8858546
6.114143,4.6402626,-0.017807856,0.011251962,0.041745543,1.5945383,-9.648633,-0.93373865
6.114208,4.640147,-0.017807856,0.011251962,0.041745543,1.5945383,-9.648633,-0.93373865
6.114278,4.640037,-0.013546798,0.009121433,0.041745543,1.5849615,-9.600749,-0.89543146
6.114347,4.639927,-0.013546798,0.009121433,0.041745543,1.5849615,-9.600749,-0.89543146
6.1144085,4.63982,-0.009285741,0.009121433,0.040680278,1.6041151,-9.600749,-0.8714894
6.11447,4.639713,-0.009285741,0.009121433,0.040680278,1.6041151,-9.600749,-0.8714894
6.1145287,4.6396084,-0.006089947,0.008056169,0.03854975,1.6041151,-9.634268,-0.90500826
6.1145873,4.6395044,-0.006089947,0.008056169,0.03854975,1.6041151,-9.634268,-0.90500826
6.1146393,4.6394024,-0.0028941538,0.00592564,0.037484486,1.6041151,-9.586384,-0.92895025
6.114691,4.6393003,-0.0028941538,0.00592564,0.037484486,1.6041151,-9.586384,-0.92895025
6.1147423,4.639199,-0.0028941538,0.00592564,0.037484486,1.6041151,-9.586384,-0.92895025
6.114788,4.639099,0.00030163955,0.003795111,0.037484486,1.6184803,-9.586384,-0.92416185
6.1148334,4.6389995,0.00030163955,0.003795111,0.037484486,1.6184803,-9.586384,-0.92416185
6.1148725,4.6389008,0.0024321685,0.0005993177,0.037484486,1.6232687,-9.528923,-0.8619126
6.114911,4.6388035,0.0024321685,0.0005993177,0.037484486,1.6232687,-9.528923,-0.8619126
6.1149435,4.638708,0.005627962,-0.0025964756,0.035353955,1.6280571,-9.519346,-0.8571242
6.114976,4.6386127,0.005627962,-0.0025964756,0.035353955,1.6280571,-9.519346,-0.8571242
6.115027,4.638521,0.008823755,-0.0047270046,0.033223428,1.5897499,-9.504981,-0.8714894
6.115078,4.6384296,0.008823755,-0.0047270046,0.033223428,1.5897499,-9.504981,-0.8714894
6.1151447,4.638342,0.010954284,-0.0068575335,0.030027634,1.5370775,-9.504981,-0.92416185
6.115211,4.6382546,0.010954284,-0.0068575335,0.030027634,1.5370775,-9.504981,-0.92416185
6.115289,4.638174,0.0141500775,-0.008988062,0.02683184,1.5179238,-9.524135,-0.89543146
6.1153674,4.638092,0.0141500775,-0.008988062,0.02683184,1.5179238,-9.524135,-0.89543146
6.115444,4.638014,0.018411135,-0.010053327,0.024701312,1.532289,-9.495404,-0.8571242
6.115519,4.637938,0.018411135,-0.010053327,0.024701312,1.532289,-9.495404,-0.8571242
6.115574,4.637862,0.023737457,-0.011118591,0.024701312,1.5514427,-9.524135,-0.92895025
6.115629,4.6377854,0.023737457,-0.011118591,0.024701312,1.5514427,-9.524135,-0.92895025
6.115727,4.6377244,0.026933251,-0.012183856,0.025766576,1.5179238,-9.471462,-0.81402856
6.1158247,4.637663,0.026933251,-0.012183856,0.025766576,1.5179238,-9.471462,-0.81402856
6.115899,4.637595,0.02906378,-0.01324912,0.025766576,1.5035586,-9.457097,-0.90500826
6.115973,4.6375275,0.02906378,-0.01324912,0.025766576,1.5035586,-9.457097,-0.90500826
6.1160393,4.63746,0.032259572,-0.014314385,0.024701312,1.541866,-9.437943,-0.842759
6.1161046,4.6373944,0.032259572,-0.014314385,0.024701312,1.541866,-9.437943,-0.842759
6.1161833,4.6373353,0.03652063,-0.014314385,0.02683184,1.4987702,-9.44752,-0.89064306
6.116262,4.6372757,0.03652063,-0.014314385,0.02683184,1.4987702,-9.44752,-0.89064306
6.1163516,4.637224,0.040781688,-0.014314385,0.027897105,1.5227122,-9.457097,-0.82360536
6.116441,4.637172,0.040781688,-0.014314385,0.027897105,1.5227122,-9.457097,-0.82360536
6.116542,4.637125,0.041846953,-0.014314385,0.02896237,1.4556746,-9.485827,-0.89064306
6.1166425,4.6370773,0.041846953,-0.014314385,0.02896237,1.4556746,-9.485827,-0.89064306
6.1167088,4.637022,0.043977484,-0.012183856,0.030027634,1.5131354,-9.442732,-0.93373865
6.1167746,4.6369667,0.043977484,-0.012183856,0.030027634,1.5131354,-9.442732,-0.93373865
6.116858,4.636916,0.045042746,-0.011118591,0.032158162,1.5179238,-9.404425,-0.8331822
6.116942,4.6368656,0.045042746,-0.011118591,0.032158162,1.5179238,-9.404425,-0.8331822
6.1170444,4.63682,0.045042746,-0.011118591,0.033223428,1.4939818,-9.452309,-0.842759
6.117144,4.6367745,0.045042746,-0.011118591,0.033223428,1.4939818,-9.452309,-0.842759
6.1172085,4.6367216,0.045042746,-0.008988062,0.033223428,1.5227122,-9.41879,-0.90021986
6.117274,4.6366677,0.045042746,-0.008988062,0.033223428,1.5227122,-9.41879,-0.90021986
6.1173363,4.6366115,0.043977484,-0.008988062,0.033223428,1.5275006,-9.437943,-0.91937345
6.1173983,4.6365557,0.043977484,-0.008988062,0.033223428,1.5275006,-9.437943,-0.91937345
6.1174498,4.6364975,0.043977484,-0.008988062,0.03428869,1.5514427,-9.490616,-0.9911995
6.117644,4.636327,0.04291222,-0.0068575335,0.035353955,1.5227122,-9.461885,-0.90500826
6.117644,4.636327,0.04291222,-0.0068575335,0.035353955,1.5227122,-9.461885,-0.90500826
6.117644,4.636327,0.04291222,-0.0068575335,0.035353955,1.5227122,-9.461885,-0.90500826
6.1177306,4.6362185,0.041846953,-0.005792269,0.033223428,1.5610195,-9.457097,-0.90021986
6.117746,4.636201,0.040781688,-0.00366174,0.03428869,1.5610195,-9.442732,-0.8523358
6.11779,4.6361494,0.040781688,-0.00366174,0.03428869,1.5610195,-9.442732,-0.8523358
6.1178412,4.6360884,0.040781688,-0.00366174,0.03428869,1.5610195,-9.442732,-0.8523358
6.1178904,4.636028,0.041846953,-0.00366174,0.035353955,1.5562311,-9.452309,-0.9576807
6.117935,4.6359715,0.041846953,-0.00366174,0.035353955,1.5562311,-9.452309,-0.9576807
6.11796,4.6359143,0.041846953,-0.0015312112,0.035353955,1.5945383,-9.414001,-0.89543146
6.117985,4.635856,0.041846953,-0.0015312112,0.035353955,1.5945383,-9.414001,-0.89543146
6.118023,4.6357975,0.041846953,0.0005993177,0.037484486,1.5753847,-9.414001,-0.90021986
6.1180606,4.635739,0.041846953,0.0005993177,0.037484486,1.5753847,-9.414001,-0.90021986
6.1181035,4.635679,0.040781688,0.0005993177,0.037484486,1.5705963,-9.437943,-0.8858546
6.1181455,4.63562,0.040781688,0.0005993177,0.037484486,1.5705963,-9.437943,-0.8858546
6.1181865,4.6355615,0.041846953,0.0016645822,0.03854975,1.5705963,-9.41879,-0.92895025
6.1182275,4.635503,0.041846953,0.0016645822,0.03854975,1.5705963,-9.41879,-0.92895025
6.118285,4.6354456,0.041846953,0.0048603755,0.042810805,1.5562311,-9.457097,-0.89064306
6.118342,4.635389,0.041846953,0.0048603755,0.042810805,1.5562311,-9.457097,-0.89064306
6.1184144,4.6353345,0.04291222,0.00592564,0.044941336,1.541866,-9.457097,-0.8571242
6.1184864,4.6352806,0.04291222,0.00592564,0.044941336,1.541866,-9.457097,-0.8571242
6.1185207,4.635225,0.04291222,0.008056169,0.047071867,1.5993267,-9.471462,-0.8810662
6.1185546,4.635169,0.04291222,0.008056169,0.047071867,1.5993267,-9.471462,-0.8810662
6.118643,4.6351175,0.04291222,0.010186698,0.05026766,1.5227122,-9.481039,-0.8762778
6.118731,4.635066,0.04291222,0.010186698,0.05026766,1.5227122,-9.481039,-0.8762778
6.1188893,4.6350465,0.041846953,0.014447756,0.05346345,1.5035586,-9.461885,-0.7757214
6.1190476,4.635026,0.041846953,0.014447756,0.05346345,1.5035586,-9.461885,-0.7757214
6.1192145,4.6350074,0.041846953,0.016578285,0.0609203,1.4939818,-9.471462,-0.78050977
6.119381,4.634988,0.041846953,0.016578285,0.0609203,1.4939818,-9.471462,-0.78050977
6.1195707,4.6349926,0.041846953,0.017643549,0.0641161,1.5275006,-9.461885,-0.7469909
6.1197596,4.6349945,0.041846953,0.017643549,0.0641161,1.5275006,-9.461885,-0.7469909
6.119955,4.6349955,0.043977484,0.017643549,0.06837715,1.5370775,-9.44752,-0.7422025
6.1201386,4.634993,0.043977484,0.017643549,0.06837715,1.5370775,-9.44752,-0.7422025
6.1202865,4.634959,0.04610801,0.017643549,0.071572945,1.4987702,-9.457097,-0.79966336
6.1204314,4.634925,0.04610801,0.017643549,0.071572945,1.4987702,-9.457097,-0.79966336
6.120581,4.6348906,0.045042746,0.017643549,0.07476874,1.5275006,-9.495404,-0.7757214
6.1207304,4.6348557,0.045042746,0.017643549,0.07476874,1.5275006,-9.495404,-0.7757214
6.12092,4.6348476,0.043977484,0.017643549,0.07476874,1.484405,-9.509769,-0.7757214
6.1211085,4.6348395,0.043977484,0.017643549,0.07476874,1.484405,-9.509769,-0.7757214
6.1212554,4.6348023,0.045042746,0.017643549,0.075834006,1.4891934,-9.533711,-0.8283938
6.121401,4.634765,0.045042746,0.017643549,0.075834006,1.4891934,-9.533711,-0.8283938
6.1216154,4.6348257,0.045042746,0.016578285,0.07689927,1.484405,-9.56723,-0.7374141
6.1218324,4.634886,0.045042746,0.016578285,0.07689927,1.484405,-9.56723,-0.7374141
6.121994,4.634859,0.04610801,0.016578285,0.075834006,1.4700398,-9.533711,-0.81402856
6.122157,4.634831,0.04610801,0.016578285,0.075834006,1.4700398,-9.533711,-0.81402856
6.1223717,4.634879,0.04610801,0.016578285,0.075834006,1.4748282,-9.5385,-0.7422025
6.122586,4.6349263,0.04610801,0.016578285,0.075834006,1.4748282,-9.5385,-0.7422025
6.1227956,4.6349993,0.047173277,0.016578285,0.07476874,1.5035586,-9.528923,-0.7326257
6.1230063,4.635071,0.047173277,0.016578285,0.07476874,1.5035586,-9.528923,-0.7326257
6.123213,4.6350994,0.047173277,0.014447756,0.071572945,1.4939818,-9.5385,-0.7469909
6.1234193,4.6351266,0.047173277,0.014447756,0.071572945,1.4939818,-9.5385,-0.7469909
6.1236167,4.6351395,0.047173277,0.01551302,0.06944242,1.5179238,-9.552865,-0.7469909
6.123812,4.635149,0.047173277,0.01551302,0.06944242,1.5179238,-9.552865,-0.7469909
6.124017,4.635213,0.047173277,0.01551302,0.06731189,1.4460979,-9.586384,-0.7326257
6.124222,4.635276,0.047173277,0.01551302,0.06731189,1.4460979,-9.586384,-0.7326257
6.124414,4.6353674,0.047173277,0.016578285,0.06518136,1.4221559,-9.591172,-0.7038953
6.1246057,4.635459,0.047173277,0.016578285,0.06518136,1.4221559,-9.591172,-0.7038953
6.124781,4.6355686,0.04823854,0.017643549,0.061985567,1.436521,-9.581595,-0.6895301
6.1249566,4.6356773,0.04823854,0.017643549,0.061985567,1.436521,-9.581595,-0.6895301
6.1251216,4.6357927,0.049303804,0.017643549,0.056659244,1.4317327,-9.605537,-0.6799533
6.12529,4.635911,0.049303804,0.017643549,0.056659244,1.4317327,-9.605537,-0.6799533
6.125477,4.6359777,0.05036907,0.018708814,0.05346345,1.4269443,-9.572019,-0.7230489
6.125667,4.6360455,0.05036907,0.018708814,0.05346345,1.4269443,-9.572019,-0.7230489
6.125858,4.636099,0.0524996,0.020839343,0.052398186,1.3503298,-9.653421,-0.7422025
6.1260486,4.6361523,0.0524996,0.020839343,0.052398186,1.3503298,-9.653421,-0.7422025
6.126238,4.6362133,0.055695392,0.022969872,0.05133292,1.412579,-9.667787,-0.7374141
6.126427,4.636274,0.055695392,0.022969872,0.05133292,1.412579,-9.667787,-0.7374141
6.126615,4.6363544,0.056760654,0.024035135,0.052398186,1.3694834,-9.639056,-0.7134721
6.1268034,4.6364346,0.056760654,0.024035135,0.052398186,1.3694834,-9.639056,-0.7134721
6.126991,4.6365066,0.05782592,0.02723093,0.05026766,1.3790601,-9.629479,-0.7230489
6.127178,4.6365786,0.05782592,0.02723093,0.05026766,1.3790601,-9.629479,-0.7230489
6.1273475,4.636694,0.061021715,0.029361458,0.05026766,1.316811,-9.639056,-0.6512229
6.127517,4.63681,0.061021715,0.029361458,0.05026766,1.316811,-9.639056,-0.6512229
6.1276627,4.6369505,0.062086977,0.031491987,0.05133292,1.3838485,-9.643845,-0.63206923
6.127808,4.6370907,0.062086977,0.031491987,0.05133292,1.3838485,-9.643845,-0.63206923
6.1279516,4.637233,0.06315224,0.03468778,0.05026766,1.4173675,-9.639056,-0.6560113
6.1280956,4.637375,0.06315224,0.03468778,0.05026766,1.4173675,-9.639056,-0.6560113
6.1282215,4.6375275,0.06421751,0.03681831,0.04813713,1.4269443,-9.634268,-0.641646
6.128348,4.63768,0.06421751,0.03681831,0.04813713,1.4269443,-9.634268,-0.641646
6.128463,4.637837,0.06528277,0.037883572,0.04387607,1.4077905,-9.600749,-0.61291564
6.1285777,4.637994,0.06528277,0.037883572,0.04387607,1.4077905,-9.600749,-0.61291564
6.1286917,4.63815,0.06528277,0.040014103,0.040680278,1.4413095,-9.615114,-0.6512229
6.128806,4.638306,0.06528277,0.040014103,0.040680278,1.4413095,-9.615114,-0.6512229
6.128957,4.6384373,0.06634804,0.04214463,0.039615013,1.4317327,-9.619903,-0.6799533
6.129109,4.638568,0.06634804,0.04214463,0.039615013,1.4317327,-9.619903,-0.6799533
6.1292005,4.638732,0.06634804,0.04427516,0.035353955,1.412579,-9.605537,-0.58897364
6.1292925,4.638896,0.06634804,0.04427516,0.035353955,1.412579,-9.605537,-0.58897364
6.1294155,4.6390443,0.06528277,0.046405688,0.033223428,1.4460979,-9.591172,-0.6703765
6.129539,4.6391916,0.06528277,0.046405688,0.033223428,1.4460979,-9.591172,-0.6703765
6.129639,4.6393504,0.06528277,0.046405688,0.031092897,1.4317327,-9.595961,-0.6368576
6.1297398,4.639509,0.06528277,0.046405688,0.031092897,1.4317327,-9.595961,-0.6368576
6.129787,4.6396804,0.06528277,0.045340426,0.02683184,1.4508862,-9.586384,-0.5602432
6.129808,4.6398706,0.06528277,0.04427516,0.025766576,1.484405,-9.552865,-0.5506664
6.129827,4.6400437,0.06528277,0.04427516,0.025766576,1.484405,-9.552865,-0.5506664
6.129844,4.6402016,0.06528277,0.04427516,0.025766576,1.484405,-9.552865,-0.5506664
6.1298523,4.6403704,0.06528277,0.043209895,0.023636047,1.4891934,-9.533711,-0.58418524
6.1298604,4.6405396,0.06528277,0.043209895,0.023636047,1.4891934,-9.533711,-0.58418524
6.1298833,4.640711,0.06421751,0.04107937,0.023636047,1.4796166,-9.562442,-0.63206923
6.129906,4.6408825,0.06421751,0.04107937,0.023636047,1.4796166,-9.562442,-0.63206923
6.129895,4.6410503,0.06528277,0.038948838,0.022570781,1.508347,-9.557653,-0.59376204
6.1298842,4.6412196,0.06528277,0.038948838,0.022570781,1.508347,-9.557653,-0.59376204
6.1299105,4.641389,0.06421751,0.03681831,0.018309724,1.4652514,-9.581595,-0.5267244
6.129937,4.641559,0.06421751,0.03681831,0.018309724,1.4652514,-9.581595,-0.5267244
6.129936,4.6417294,0.06421751,0.033622514,0.014048667,1.4939818,-9.557653,-0.5602432
6.129935,4.641898,0.06421751,0.033622514,0.014048667,1.4939818,-9.557653,-0.5602432
6.129924,4.642065,0.06421751,0.030426722,0.011918138,1.5035586,-9.533711,-0.5410896
6.1299124,4.6422324,0.06421751,0.030426722,0.011918138,1.5035586,-9.533711,-0.5410896
6.12989,4.6423993,0.06421751,0.029361458,0.010852873,1.532289,-9.533711,-0.49320555
6.1298676,4.6425653,0.06421751,0.029361458,0.010852873,1.532289,-9.533711,-0.49320555
6.1298676,4.642731,0.06315224,0.0251004,0.010852873,1.484405,-9.485827,-0.47405192
6.129868,4.6428986,0.06315224,0.0251004,0.010852873,1.484405,-9.485827,-0.47405192
6.1298265,4.643057,0.06315224,0.022969872,0.011918138,1.5562311,-9.437943,-0.48841715
6.129785,4.643216,0.06315224,0.022969872,0.011918138,1.5562311,-9.437943,-0.48841715
6.1297154,4.643364,0.06315224,0.020839343,0.011918138,1.5514427,-9.437943,-0.5650316
6.129645,4.643512,0.06315224,0.020839343,0.011918138,1.5514427,-9.437943,-0.5650316
6.129579,4.643658,0.062086977,0.018708814,0.015113931,1.5610195,-9.428367,-0.5506664
6.129513,4.643805,0.062086977,0.018708814,0.015113931,1.5610195,-9.428367,-0.5506664
6.1294756,4.643959,0.05995645,0.01551302,0.018309724,1.541866,-9.428367,-0.51714754
6.129438,4.644113,0.05995645,0.01551302,0.018309724,1.541866,-9.428367,-0.51714754
6.1294355,4.6442723,0.058891185,0.014447756,0.022570781,1.4987702,-9.452309,-0.51714754
6.129433,4.6444325,0.058891185,0.014447756,0.022570781,1.4987702,-9.452309,-0.51714754
6.1294174,4.6445875,0.058891185,0.011251962,0.02896237,1.5466543,-9.390059,-0.45010993
6.129401,4.644743,0.058891185,0.011251962,0.02896237,1.5466543,-9.390059,-0.45010993
6.129353,4.6448827,0.058891185,0.009121433,0.037484486,1.5801731,-9.399636,-0.5267244
6.129305,4.645022,0.058891185,0.009121433,0.037484486,1.5801731,-9.399636,-0.5267244
6.1292677,4.6451635,0.058891185,0.0069909045,0.04387607,1.6328455,-9.44752,-0.47405192
6.12923,4.6453047,0.058891185,0.0069909045,0.04387607,1.6328455,-9.44752,-0.47405192
6.129199,4.645443,0.056760654,0.00592564,0.05133292,1.6519991,-9.428367,-0.45489833
6.129167,4.645581,0.056760654,0.00592564,0.05133292,1.6519991,-9.428367,-0.45489833
6.1291513,4.645722,0.055695392,0.00592564,0.058789775,1.6376339,-9.414001,-0.4357447
6.1291356,4.645863,0.055695392,0.00592564,0.058789775,1.6376339,-9.414001,-0.4357447
6.1291647,4.646016,0.055695392,0.0048603755,0.06518136,1.5514427,-9.385271,-0.37828386
6.129194,4.6461706,0.055695392,0.0048603755,0.06518136,1.5514427,-9.385271,-0.37828386
6.129251,4.6463246,0.055695392,0.0016645822,0.071572945,1.5131354,-9.437943,-0.2777274
6.1293087,4.6464806,0.055695392,0.0016645822,0.071572945,1.5131354,-9.437943,-0.2777274
6.129365,4.646636,0.05782592,-0.00366174,0.08009506,1.5370775,-9.44752,-0.33997664
6.1294208,4.646792,0.05782592,-0.00366174,0.08009506,1.5370775,-9.44752,-0.33997664
6.129483,4.6469502,0.061021715,-0.0068575335,0.088617176,1.5514427,-9.457097,-0.31124622
6.129545,4.6471086,0.061021715,-0.0068575335,0.088617176,1.5514427,-9.457097,-0.31124622
6.129616,4.6472683,0.06315224,-0.012183856,0.09500877,1.5466543,-9.428367,-0.2873042
6.129686,4.647428,0.06315224,-0.012183856,0.09500877,1.5466543,-9.428367,-0.2873042
6.129771,4.6475883,0.06315224,-0.018575443,0.09926982,1.5179238,-9.466674,-0.2633622
6.1298566,4.647748,0.06315224,-0.018575443,0.09926982,1.5179238,-9.466674,-0.2633622
6.1299434,4.647908,0.06421751,-0.023901764,0.10033509,1.5227122,-9.495404,-0.25378537
6.13003,4.6480684,0.06421751,-0.023901764,0.10033509,1.5227122,-9.495404,-0.25378537
6.1301,4.6482263,0.06421751,-0.028162822,0.10033509,1.5753847,-9.471462,-0.2777274
6.1301694,4.6483836,0.06421751,-0.028162822,0.10033509,1.5753847,-9.471462,-0.2777274
6.130256,4.6485434,0.06528277,-0.03242388,0.10140035,1.5035586,-9.409213,-0.2873042
6.1303434,4.6487036,0.06528277,-0.03242388,0.10140035,1.5035586,-9.409213,-0.2873042
6.1304445,4.6488657,0.0674133,-0.035619672,0.102465615,1.4652514,-9.442732,-0.30166942
6.1306453,4.649206,0.0674133,-0.03881547,0.104596145,1.4987702,-9.471462,-0.35913026
6.1306453,4.649206,0.0674133,-0.03881547,0.104596145,1.4987702,-9.471462,-0.35913026
6.1306453,4.649206,0.0674133,-0.03881547,0.104596145,1.4987702,-9.471462,-0.35913026
6.1306453,4.649206,0.0674133,-0.043076526,0.103530884,1.4652514,-9.481039,-0.36870706
6.1310315,4.6498117,0.0674133,-0.043076526,0.103530884,1.4652514,-9.481039,-0.36870706
6.1310506,4.6498394,0.06421751,-0.04627232,0.102465615,1.4460979,-9.476251,-0.31603462
6.1311607,4.6500006,0.06421751,-0.04627232,0.102465615,1.4460979,-9.476251,-0.31603462
6.1312695,4.6501546,0.062086977,-0.052663904,0.103530884,1.4413095,-9.44752,-0.34476504
6.1313763,4.650306,0.062086977,-0.052663904,0.103530884,1.4413095,-9.44752,-0.34476504
6.131473,4.6504674,0.061021715,-0.057990227,0.104596145,1.4796166,-9.495404,-0.4405331
6.131557,4.650608,0.061021715,-0.057990227,0.104596145,1.4796166,-9.495404,-0.4405331
6.1316476,4.650759,0.062086977,-0.062251285,0.106726676,1.4748282,-9.471462,-0.45010993
6.1317387,4.6509113,0.062086977,-0.062251285,0.106726676,1.4748282,-9.471462,-0.45010993
6.131847,4.6510644,0.062086977,-0.064381815,0.10992247,1.460463,-9.495404,-0.40222588
6.131954,4.651217,0.062086977,-0.064381815,0.10992247,1.460463,-9.495404,-0.40222588
6.1320434,4.651366,0.061021715,-0.06757761,0.112053,1.484405,-9.490616,-0.45010993
6.1321316,4.651516,0.061021715,-0.06757761,0.112053,1.484405,-9.490616,-0.45010993
6.13221,4.651662,0.05995645,-0.06864287,0.11524879,1.4891934,-9.495404,-0.48362875
6.1322865,4.6518083,0.05995645,-0.06864287,0.11524879,1.4891934,-9.495404,-0.48362875
6.1323686,4.651953,0.058891185,-0.06864287,0.118444584,1.5035586,-9.514558,-0.45010993
6.132449,4.652098,0.058891185,-0.06864287,0.118444584,1.5035586,-9.514558,-0.45010993
6.1325274,4.6522393,0.056760654,-0.06544708,0.12164038,1.541866,-9.528923,-0.39264908
6.132605,4.652381,0.056760654,-0.06544708,0.12164038,1.541866,-9.528923,-0.39264908
6.1327004,4.652525,0.055695392,-0.06331655,0.12483617,1.5035586,-9.548077,-0.4213795
6.1327944,4.652669,0.055695392,-0.06331655,0.12483617,1.5035586,-9.548077,-0.4213795
6.1328754,4.652807,0.05356486,-0.059055492,0.13016249,1.4987702,-9.471462,-0.45968673
6.132955,4.6529446,0.05356486,-0.059055492,0.13016249,1.4987702,-9.471462,-0.45968673
6.1330776,4.6530895,0.051434334,-0.052663904,0.13548881,1.4556746,-9.490616,-0.46447513
6.133197,4.653232,0.051434334,-0.052663904,0.13548881,1.4556746,-9.490616,-0.46447513
6.133331,4.6533732,0.047173277,-0.04627232,0.14294566,1.4413095,-9.457097,-0.47405192
6.1334624,4.653514,0.047173277,-0.04627232,0.14294566,1.4413095,-9.457097,-0.47405192
6.1335864,4.653649,0.041846953,-0.03988073,0.15040252,1.4460979,-9.504981,-0.5267244
6.1337056,4.6537833,0.041846953,-0.03988073,0.15040252,1.4460979,-9.504981,-0.5267244
6.1340046,4.6538153,0.03545537,-0.031358615,0.1567941,1.4077905,-9.466674,-0.5554548
6.134302,4.653845,0.03545537,-0.031358615,0.1567941,1.4077905,-9.466674,-0.5554548
6.1343255,4.6538663,0.02906378,-0.023901764,0.16212043,1.4508862,-9.457097,-0.5554548
6.134349,4.653887,0.02906378,-0.023901764,0.16212043,1.4508862,-9.457097,-0.5554548
6.134429,4.65383,0.02160693,-0.016444914,0.16957727,1.4796166,-9.452309,-0.60333884
6.1345077,4.6537743,0.02160693,-0.016444914,0.16957727,1.4796166,-9.452309,-0.60333884
6.1345735,4.6537237,0.012019549,-0.010053327,0.17596887,1.5131354,-9.41879,-0.60812724
6.1346393,4.6536736,0.012019549,-0.010053327,0.17596887,1.5131354,-9.41879,-0.60812724
6.134679,4.6536665,0.0024321685,-0.0025964756,0.17916466,1.5514427,-9.433155,-0.5650316
6.134722,4.6536584,0.0024321685,-0.0025964756,0.17916466,1.5514427,-9.433155,-0.5650316
6.134782,4.653603,-0.006089947,0.0048603755,0.18236046,1.5753847,-9.423578,-0.63206923
6.1348476,4.6535425,-0.006089947,0.0048603755,0.18236046,1.5753847,-9.423578,-0.63206923
6.1349177,4.6534696,-0.017807856,0.012317227,0.1866215,1.661576,-9.461885,-0.6799533
6.134988,4.6533976,-0.017807856,0.012317227,0.1866215,1.661576,-9.461885,-0.6799533
6.1350684,4.6533074,-0.0284605,0.020839343,0.18875204,1.6424223,-9.461885,-0.6991069
6.135149,4.6532173,-0.0284605,0.020839343,0.18875204,1.6424223,-9.461885,-0.6991069
6.135236,4.6531143,-0.04017841,0.029361458,0.19194783,1.6376339,-9.466674,-0.7038953
6.1353207,4.6530128,-0.04017841,0.029361458,0.19194783,1.6376339,-9.466674,-0.7038953
6.1354113,4.6528983,-0.050831053,0.03681831,0.19407836,1.6903064,-9.485827,-0.7517793
6.135501,4.6527843,-0.050831053,0.03681831,0.19407836,1.6903064,-9.485827,-0.7517793
6.1355653,4.652689,-0.0614837,0.046405688,0.19514363,1.6567876,-9.504981,-0.6464345
6.1356297,4.652593,-0.0614837,0.046405688,0.19514363,1.6567876,-9.504981,-0.6464345
6.135696,4.652488,-0.07213634,0.05599307,0.19727415,1.7046716,-9.56723,-0.6655881
6.1357617,4.652384,-0.07213634,0.05599307,0.19727415,1.7046716,-9.56723,-0.6655881
6.1358175,4.652301,-0.08385425,0.06451519,0.19940469,1.6519991,-9.615114,-0.59376204
6.1358733,4.6522183,-0.08385425,0.06451519,0.19940469,1.6519991,-9.615114,-0.59376204
6.135932,4.6521106,-0.09557216,0.073037304,0.19940469,1.6424223,-9.65821,-0.61770403
6.1359897,4.6520042,-0.09557216,0.073037304,0.19940469,1.6424223,-9.65821,-0.61770403
6.1360497,4.6518884,-0.10515954,0.08262468,0.20153521,1.5849615,-9.706094,-0.61291564
6.13611,4.651773,-0.10515954,0.08262468,0.20153521,1.5849615,-9.706094,-0.61291564
6.136197,4.6516104,-0.11368166,0.0911468,0.20260048,1.5466543,-9.792285,-0.6464345
6.136282,4.651452,-0.11368166,0.0911468,0.20260048,1.5466543,-9.792285,-0.6464345
6.136572,4.6514225,-0.122203775,0.09966891,0.204731,1.4508862,-9.844957,-0.59376204
6.136837,4.6514044,-0.122203775,0.09966891,0.204731,1.4508862,-9.844957,-0.59376204
6.1370106,4.6511927,-0.13072589,0.10819103,0.20686153,1.4700398,-9.859323,-0.6512229
6.137179,4.650982,-0.13072589,0.10819103,0.20686153,1.4700398,-9.859323,-0.6512229
6.137368,4.6507626,-0.13818274,0.11564788,0.20686153,1.460463,-9.902418,-0.62249243
6.1375394,4.650545,-0.13818274,0.11564788,0.20686153,1.460463,-9.902418,-0.62249243
6.1376247,4.650363,-0.14457433,0.1209742,0.20899206,1.484405,-9.892841,-0.62728083
6.137705,4.650187,-0.14457433,0.1209742,0.20899206,1.484405,-9.892841,-0.62728083
6.137915,4.6499557,-0.15096591,0.12417,0.20899206,1.436521,-9.854534,-0.7278373
6.138124,4.6497245,-0.15096591,0.12417,0.20899206,1.436521,-9.854534,-0.7278373
6.1383457,4.6494913,-0.15522698,0.12736578,0.20686153,1.4221559,-9.864111,-0.7134721
6.1385655,4.649257,-0.15522698,0.12736578,0.20686153,1.4221559,-9.864111,-0.7134721
6.138826,4.6490293,-0.15948802,0.13056158,0.204731,1.3838485,-9.916783,-0.7134721
6.139086,4.648802,-0.15948802,0.13056158,0.204731,1.3838485,-9.916783,-0.7134721
6.1393704,4.648585,-0.16161856,0.13375737,0.20366573,1.340753,-9.89763,-0.7134721
6.1396546,4.648367,-0.16161856,0.13375737,0.20366573,1.340753,-9.89763,-0.7134721
6.1399717,4.6481795,-0.16374908,0.13482264,0.20153521,1.3024458,-9.883265,-0.6799533
6.1402893,4.647992,-0.16374908,0.13482264,0.20153521,1.3024458,-9.883265,-0.6799533
6.1405897,4.6477904,-0.16268381,0.1358879,0.19727415,1.3024458,-9.89763,-0.7038953
6.1408896,4.6475897,-0.16268381,0.1358879,0.19727415,1.3024458,-9.89763,-0.7038953
6.1412053,4.647488,-0.16161856,0.13695318,0.19514363,1.2545617,-9.902418,-0.59376204
6.141519,4.6473875,-0.16161856,0.13695318,0.19514363,1.2545617,-9.902418,-0.59376204
6.14184,4.6472573,-0.15948802,0.14014897,0.19088256,1.2689269,-9.983821,-0.641646
6.142161,4.647128,-0.15948802,0.14014897,0.19088256,1.2689269,-9.983821,-0.641646
6.14248,4.6469936,-0.1541617,0.14227949,0.18875204,1.2306197,-9.983821,-0.6560113
6.1427994,4.646859,-0.1541617,0.14227949,0.18875204,1.2306197,-9.983821,-0.6560113
6.143109,4.6467056,-0.14883539,0.14334476,0.18449098,1.2497733,-9.959879,-0.6847417
6.143419,4.6465526,-0.14883539,0.14334476,0.18449098,1.2497733,-9.959879,-0.6847417
6.1437216,4.646402,-0.14244379,0.14227949,0.17916466,1.2114661,-9.9550905,-0.6991069
6.144025,4.6462517,-0.14244379,0.14227949,0.17916466,1.2114661,-9.9550905,-0.6991069
6.1443253,4.646153,-0.1360522,0.14227949,0.17170781,1.2018893,-9.950302,-0.6368576
6.144624,4.646055,-0.1360522,0.14227949,0.17170781,1.2018893,-9.950302,-0.6368576
6.144869,4.646026,-0.12966062,0.14227949,0.16851202,1.2545617,-9.921572,-0.5410896
6.1451125,4.645997,-0.12966062,0.14227949,0.16851202,1.2545617,-9.921572,-0.5410896
6.145394,4.6459394,-0.122203775,0.14014897,0.16425095,1.2162545,-9.907207,-0.60333884
6.1456733,4.6458826,-0.122203775,0.14014897,0.16425095,1.2162545,-9.907207,-0.60333884
6.145916,4.6458645,-0.11261639,0.13801843,0.15892464,1.2449849,-9.878476,-0.5602432
6.146157,4.6458483,-0.11261639,0.13801843,0.15892464,1.2449849,-9.878476,-0.5602432
6.1463923,4.6458397,-0.10302901,0.1358879,0.15146779,1.1348516,-9.864111,-0.47884035
6.146629,4.645831,-0.10302901,0.1358879,0.15146779,1.1348516,-9.864111,-0.47884035
6.146864,4.6458273,-0.09557216,0.13269211,0.14720672,1.2018893,-9.797073,-0.545878
6.147097,4.6458235,-0.09557216,0.13269211,0.14720672,1.2018893,-9.797073,-0.545878
6.147341,4.645815,-0.08811531,0.12949632,0.14188041,1.1252748,-9.844957,-0.5363012
6.147583,4.645807,-0.08811531,0.12949632,0.14188041,1.1252748,-9.844957,-0.5363012
6.1478086,4.645815,-0.0795932,0.12310473,0.13442355,1.1444284,-9.854534,-0.51714754
6.1480227,4.6458235,-0.0795932,0.12310473,0.13442355,1.1444284,-9.854534,-0.51714754
6.148241,4.64584,-0.07107108,0.117778406,0.12803197,1.1300632,-9.840169,-0.50757074
6.1484694,4.645858,-0.07107108,0.117778406,0.12803197,1.1300632,-9.840169,-0.50757074
