Pitch,Roll,Gyro_X,Gyro_Y,Gyro_Z,Accel_X,Accel_Y,Accel_Z
6.106692,4.8716545,0.025867987,0.0069909045,0.12270564,1.7238252,-9.481039,1.4891934
6.10678,4.87158,0.025867987,0.0069909045,0.12270564,1.7238252,-9.481039,1.4891934
6.106773,4.871583,0.027998514,0.008056169,0.12909722,1.757344,-9.524135,1.5227122
6.106766,4.8715854,0.027998514,0.008056169,0.12909722,1.757344,-9.524135,1.5227122
6.1067796,4.871667,0.030129045,0.010186698,0.13335828,1.757344,-9.481039,1.541866
6.106791,4.871747,0.030129045,0.010186698,0.13335828,1.757344,-9.481039,1.541866
6.106835,4.8718524,0.031194309,0.011251962,0.13761935,1.7764976,-9.528923,1.5753847
6.1068773,4.871957,0.031194309,0.011251962,0.13761935,1.7764976,-9.528923,1.5753847
6.106906,4.8720484,0.032259572,0.013382491,0.14188041,1.7717092,-9.533711,1.5610195
6.1069336,4.8721385,0.032259572,0.013382491,0.14188041,1.7717092,-9.533711,1.5610195
6.107059,4.87227,0.033324838,0.013382491,0.14188041,1.733402,-9.528923,1.6089035
6.107183,4.872402,0.033324838,0.013382491,0.14188041,1.733402,-9.528923,1.6089035
6.107321,4.872537,0.03545537,0.013382491,0.14294566,1.7286136,-9.548077,1.6472107
6.1074576,4.872672,0.03545537,0.013382491,0.14294566,1.7286136,-9.548077,1.6472107
6.107583,4.8728094,0.03865116,0.014447756,0.14614145,1.7286136,-9.481039,1.6280571
6.1077065,4.872946,0.03865116,0.014447756,0.14614145,1.7286136,-9.481039,1.6280571
6.107887,4.873083,0.040781688,0.014447756,0.148272,1.7046716,-9.509769,1.5514427
6.1080546,4.8732224,0.040781688,0.014447756,0.148272,1.7046716,-9.509769,1.5514427
6.1081758,4.873363,0.04291222,0.014447756,0.14933725,1.7142484,-9.466674,1.5897499
6.1082945,4.873503,0.04291222,0.014447756,0.14933725,1.7142484,-9.466674,1.5897499
6.1084995,4.8736386,0.045042746,0.014447756,0.15146779,1.6950948,-9.504981,1.5562311
6.1086955,4.8737774,0.045042746,0.014447756,0.15146779,1.6950948,-9.504981,1.5562311
6.1089673,4.8738756,0.047173277,0.013382491,0.15359831,1.6807296,-9.490616,1.5514427
6.1092377,4.873975,0.047173277,0.013382491,0.15359831,1.6807296,-9.490616,1.5514427
6.10937,4.8741217,0.049303804,0.012317227,0.15572885,1.7142484,-9.514558,1.6280571
6.109501,4.8742685,0.049303804,0.012317227,0.15572885,1.7142484,-9.514558,1.6280571
6.1097546,4.874388,0.05036907,0.012317227,0.15785937,1.661576,-9.495404,1.5705963
6.1100073,4.87451,0.05036907,0.012317227,0.15785937,1.661576,-9.495404,1.5705963
6.1103,4.874523,0.05036907,0.011251962,0.16105516,1.6424223,-9.528923,1.5466543
6.110592,4.8745337,0.05036907,0.011251962,0.16105516,1.6424223,-9.528923,1.5466543
6.1108303,4.8746676,0.051434334,0.012317227,0.16531622,1.6232687,-9.485827,1.6136919
6.1110673,4.8748026,0.051434334,0.012317227,0.16531622,1.6232687,-9.485827,1.6136919
6.111321,4.874935,0.055695392,0.012317227,0.17170781,1.6089035,-9.495404,1.6184803
6.1115746,4.8750696,0.055695392,0.012317227,0.17170781,1.6089035,-9.495404,1.6184803
6.1118913,4.8751287,0.058891185,0.013382491,0.17703412,1.6232687,-9.533711,1.5658079
6.112208,4.875186,0.058891185,0.013382491,0.17703412,1.6232687,-9.533711,1.5658079
6.112512,4.875194,0.061021715,0.013382491,0.18129519,1.6184803,-9.5385,1.5466543
6.112814,4.8752,0.061021715,0.013382491,0.18129519,1.6184803,-9.5385,1.5466543
6.11314,4.875274,0.06421751,0.014447756,0.18768677,1.5801731,-9.543288,1.5753847
6.1134663,4.8753476,0.06421751,0.014447756,0.18768677,1.5801731,-9.543288,1.5753847
6.1136956,4.8755093,0.0674133,0.01551302,0.19407836,1.6280571,-9.519346,1.6376339
6.1139235,4.8756714,0.0674133,0.01551302,0.19407836,1.6280571,-9.519346,1.6376339
6.114131,4.875841,0.07060909,0.017643549,0.20046994,1.6424223,-9.495404,1.6280571
6.114334,4.8760095,0.07060909,0.017643549,0.20046994,1.6424223,-9.495404,1.6280571
6.1146164,4.876164,0.073804885,0.018708814,0.20579627,1.5753847,-9.514558,1.6472107
6.1148973,4.876319,0.073804885,0.018708814,0.20579627,1.5753847,-9.514558,1.6472107
6.11524,4.8764286,0.07700068,0.020839343,0.21112259,1.5275006,-9.519346,1.6041151
6.1155815,4.876538,0.07700068,0.020839343,0.21112259,1.5275006,-9.519346,1.6041151
6.11594,4.8766274,0.08019647,0.021904606,0.21857944,1.532289,-9.437943,1.5705963
6.116298,4.876716,0.08019647,0.021904606,0.21857944,1.532289,-9.437943,1.5705963
6.116663,4.876802,0.08339227,0.021904606,0.22497103,1.4748282,-9.442732,1.5705963
6.1170278,4.8768873,0.08339227,0.021904606,0.22497103,1.4748282,-9.442732,1.5705963
6.117393,4.8769994,0.08339227,0.021904606,0.23242788,1.508347,-9.437943,1.5897499
6.1177573,4.8771114,0.08339227,0.021904606,0.23242788,1.508347,-9.437943,1.5897499
6.1181326,4.877218,0.08552279,0.021904606,0.23881947,1.508347,-9.442732,1.5849615
6.118507,4.877323,0.08552279,0.021904606,0.23881947,1.508347,-9.442732,1.5849615
6.1188684,4.8774633,0.08658806,0.022969872,0.24627632,1.5131354,-9.437943,1.6089035
6.119228,4.8776035,0.08658806,0.022969872,0.24627632,1.5131354,-9.437943,1.6089035
6.119566,4.8777676,0.08658806,0.0251004,0.25373316,1.532289,-9.423578,1.6184803
6.1199017,4.8779325,0.08658806,0.0251004,0.25373316,1.532289,-9.423578,1.6184803
6.1200476,4.877962,0.08871859,0.026165664,0.26012474,1.6089035,-9.399636,1.5514427
6.1201925,4.8779926,0.08871859,0.026165664,0.26012474,1.6089035,-9.399636,1.5514427
6.120341,4.87814,0.09084912,0.024035135,0.26225528,1.6376339,-9.370906,1.6041151
6.1204867,4.8782845,0.09084912,0.024035135,0.26225528,1.6376339,-9.370906,1.6041151
6.1206236,4.878334,0.09084912,0.024035135,0.26545107,1.6998832,-9.346964,1.5227122
6.12076,4.8783836,0.09084912,0.024035135,0.26545107,1.6998832,-9.346964,1.5227122
6.120898,4.8785105,0.09084912,0.024035135,0.26651633,1.6998832,-9.3421755,1.6089035
6.121034,4.8786364,0.09084912,0.024035135,0.26651633,1.6998832,-9.3421755,1.6089035
6.1212115,4.878804,0.091914386,0.026165664,0.26545107,1.7142484,-9.32781,1.70946
6.1213884,4.878971,0.091914386,0.026165664,0.26545107,1.7142484,-9.32781,1.70946
6.1215963,4.8791556,0.09511018,0.030426722,0.26651633,1.6567876,-9.294291,1.733402
6.121803,4.8793397,0.09511018,0.030426722,0.26651633,1.6567876,-9.294291,1.733402
6.122012,4.8795314,0.09617544,0.03681831,0.26651633,1.6184803,-9.308656,1.6711528
6.122209,4.879712,0.09617544,0.03681831,0.26651633,1.6184803,-9.308656,1.6711528
6.122477,4.879903,0.09617544,0.04427516,0.2675816,1.5227122,-9.270349,1.70946
6.1227517,4.8800993,0.09617544,0.04427516,0.2675816,1.5227122,-9.270349,1.70946
6.1230974,4.8802805,0.09511018,0.050666746,0.26864687,1.4700398,-9.313444,1.6472107
6.1234407,4.880462,0.09511018,0.050666746,0.26864687,1.4700398,-9.313444,1.6472107
6.123822,4.880622,0.091914386,0.0581236,0.27184266,1.4173675,-9.294291,1.6424223
6.1242027,4.880783,0.091914386,0.0581236,0.27184266,1.4173675,-9.294291,1.6424223
6.1246114,4.8809175,0.09084912,0.06771098,0.2739732,1.4460979,-9.351752,1.6136919
6.1250196,4.8810525,0.09084912,0.06771098,0.2739732,1.4460979,-9.351752,1.6136919
6.1254478,4.8811417,0.087653324,0.07516783,0.27929953,1.3742718,-9.323022,1.5849615
6.1258755,4.88123,0.087653324,0.07516783,0.27929953,1.3742718,-9.323022,1.5849615
6.1263013,4.8813505,0.08339227,0.08155942,0.28462583,1.3215994,-9.346964,1.6376339
6.1267266,4.8814707,0.08339227,0.08155942,0.28462583,1.3215994,-9.346964,1.6376339
6.127157,4.881591,0.07913121,0.087951005,0.2888869,1.3790601,-9.375694,1.6328455
6.127587,4.881711,0.07913121,0.087951005,0.2888869,1.3790601,-9.375694,1.6328455
6.1280184,4.8817525,0.074870154,0.09327733,0.28995216,1.364695,-9.385271,1.5658079
6.128449,4.881793,0.074870154,0.09327733,0.28995216,1.364695,-9.385271,1.5658079
6.128883,4.881835,0.07060909,0.09753838,0.28995216,1.3934253,-9.457097,1.5897499
6.129316,4.881875,0.07060909,0.09753838,0.28995216,1.3934253,-9.457097,1.5897499
6.129748,4.8819847,0.0674133,0.09966891,0.2888869,1.3742718,-9.428367,1.6424223
6.130179,4.8820944,0.0674133,0.09966891,0.2888869,1.3742718,-9.428367,1.6424223
6.130549,4.8822527,0.06421751,0.10179944,0.2856911,1.364695,-9.452309,1.7621324
6.130917,4.882411,0.06421751,0.10179944,0.2856911,1.364695,-9.452309,1.7621324
6.131332,4.882531,0.05995645,0.104995236,0.28249532,1.3838485,-9.414001,1.6519991
6.1317463,4.8826523,0.05995645,0.104995236,0.28249532,1.3838485,-9.414001,1.6519991
6.132168,4.8827515,0.055695392,0.10712577,0.277169,1.3503298,-9.481039,1.661576
6.132589,4.8828516,0.055695392,0.10712577,0.277169,1.3503298,-9.481039,1.661576
6.1330166,4.882911,0.051434334,0.10925629,0.27290794,1.3215994,-9.490616,1.6328455
6.1334443,4.882971,0.051434334,0.10925629,0.27290794,1.3215994,-9.490616,1.6328455
6.133867,4.8830404,0.047173277,0.11032156,0.26971215,1.283292,-9.495404,1.6519991
6.1342897,4.8831105,0.047173277,0.11032156,0.26971215,1.283292,-9.495404,1.6519991
6.1347075,4.88318,0.04291222,0.10925629,0.26545107,1.2449849,-9.490616,1.661576
6.1351247,4.8832498,0.04291222,0.10925629,0.26545107,1.2449849,-9.490616,1.661576
6.1355257,4.883342,0.039716423,0.10819103,0.26119003,1.2354081,-9.461885,1.6998832
6.1359262,4.8834333,0.039716423,0.10819103,0.26119003,1.2354081,-9.461885,1.6998832
6.1363335,4.8835077,0.03545537,0.1060605,0.26012474,1.1348516,-9.490616,1.7046716
6.1367407,4.8835816,0.03545537,0.1060605,0.26012474,1.1348516,-9.490616,1.7046716
6.1371484,4.8836417,0.031194309,0.102864705,0.25799423,1.1013328,-9.44752,1.6807296
6.1375566,4.8837023,0.031194309,0.102864705,0.25799423,1.1013328,-9.44752,1.6807296
6.137962,4.8837585,0.02906378,0.09753838,0.2558637,1.067814,-9.485827,1.6903064
6.138366,4.883815,0.02906378,0.09753838,0.2558637,1.067814,-9.485827,1.6903064
6.138768,4.8838787,0.026933251,0.09221206,0.25692895,1.0055647,-9.466674,1.7286136
6.139169,4.8839426,0.026933251,0.09221206,0.25692895,1.0055647,-9.466674,1.7286136
6.1395755,4.883996,0.026933251,0.085820474,0.2590595,1.0103531,-9.495404,1.7046716
6.1399813,4.88405,0.026933251,0.085820474,0.2590595,1.0103531,-9.495404,1.7046716
6.1403804,4.884121,0.026933251,0.07942889,0.26225528,1.0151415,-9.519346,1.7669208
6.1407795,4.884192,0.026933251,0.07942889,0.26225528,1.0151415,-9.519346,1.7669208
6.1411867,4.8842506,0.025867987,0.07090677,0.26651633,0.9624691,-9.528923,1.7477672
6.141593,4.88431,0.025867987,0.07090677,0.26651633,0.9624691,-9.528923,1.7477672
6.142006,4.884367,0.026933251,0.06344992,0.27184266,0.9768343,-9.471462,1.7286136
6.142402,4.884423,0.026933251,0.06344992,0.27184266,0.9768343,-9.471462,1.7286136
6.1428223,4.884455,0.025867987,0.053862542,0.27503845,0.94810385,-9.600749,1.685518
6.143257,4.8844886,0.025867987,0.053862542,0.27503845,0.94810385,-9.600749,1.685518
6.143679,4.8845286,0.025867987,0.04427516,0.28036478,0.9576807,-9.557653,1.7046716
6.144097,4.884568,0.025867987,0.04427516,0.28036478,0.9576807,-9.557653,1.7046716
6.144524,4.884573,0.025867987,0.031491987,0.28675637,1.1013328,-9.495404,1.6184803
6.144953,4.8845778,0.025867987,0.031491987,0.28675637,1.1013328,-9.495404,1.6184803
6.1461835,4.884775,0.026933251,-0.00046594674,0.2888869,1.2210429,-9.44752,1.7046716
6.1461835,4.884775,0.026933251,-0.00046594674,0.2888869,1.2210429,-9.44752,1.7046716
6.1461835,4.884775,0.026933251,-0.00046594674,0.2888869,1.2210429,-9.44752,1.7046716
6.1461835,4.884775,0.026933251,-0.00046594674,0.2888869,1.2210429,-9.44752,1.7046716
6.1470895,4.884966,0.025867987,-0.015379649,0.2888869,1.2114661,-9.390059,1.6903064
6.1473603,4.8850203,0.025867987,-0.015379649,0.2888869,1.2114661,-9.390059,1.6903064
6.147753,4.885097,0.026933251,-0.026032293,0.28782162,1.1971009,-9.351752,1.685518
6.1481247,4.885172,0.026933251,-0.026032293,0.28782162,1.1971009,-9.351752,1.685518
6.1485395,4.885197,0.026933251,-0.03242388,0.2888869,1.0821792,-9.380483,1.6519991
6.1489778,4.885224,0.026933251,-0.03242388,0.2888869,1.0821792,-9.380483,1.6519991
6.149397,4.8852277,0.025867987,-0.035619672,0.29314795,1.0007763,-9.3661175,1.6136919
6.1498165,4.885231,0.025867987,-0.035619672,0.29314795,1.0007763,-9.3661175,1.6136919
6.150232,4.8852158,0.022672193,-0.035619672,0.29953954,1.0151415,-9.375694,1.5849615
6.1506486,4.8851995,0.022672193,-0.035619672,0.29953954,1.0151415,-9.375694,1.5849615
6.1510916,4.8851824,0.016280606,-0.033489145,0.3069964,0.9528923,-9.3661175,1.5849615
6.1515455,4.8851643,0.016280606,-0.033489145,0.3069964,0.9528923,-9.3661175,1.5849615
6.151956,4.885128,0.010954284,-0.031358615,0.3187143,1.0151415,-9.457097,1.5753847
6.152394,4.885089,0.010954284,-0.031358615,0.3187143,1.0151415,-9.457097,1.5753847
6.152854,4.8850646,0.005627962,-0.026032293,0.3304322,1.0247183,-9.461885,1.6184803
6.153312,4.8850408,0.005627962,-0.026032293,0.3304322,1.0247183,-9.461885,1.6184803
6.153786,4.88502,0.001366904,-0.0228365,0.34428066,0.9959879,-9.490616,1.6328455
6.154261,4.8849983,0.001366904,-0.0228365,0.34428066,0.9959879,-9.490616,1.6328455
6.1547484,4.8849874,-0.0018288894,-0.020705972,0.35599855,1.0151415,-9.461885,1.6519991
6.1552353,4.8849764,-0.0018288894,-0.020705972,0.35599855,1.0151415,-9.461885,1.6519991
6.155733,4.884947,-0.0028941538,-0.018575443,0.36771646,0.9624691,-9.500193,1.6232687
6.1562314,4.8849173,-0.0028941538,-0.018575443,0.36771646,0.9624691,-9.500193,1.6232687
6.1567316,4.884863,-0.0039594183,-0.017510178,0.37943438,0.9528923,-9.495404,1.5705963
6.1572323,4.8848085,-0.0039594183,-0.017510178,0.37943438,0.9528923,-9.495404,1.5705963
6.1577435,4.8847494,-0.006089947,-0.018575443,0.39221755,0.9624691,-9.504981,1.5705963
6.158255,4.88469,-0.006089947,-0.018575443,0.39221755,0.9624691,-9.504981,1.5705963
6.1587906,4.8846626,-0.008220476,-0.019640706,0.40500072,0.9959879,-9.504981,1.6424223
6.1593256,4.884636,-0.008220476,-0.019640706,0.40500072,0.9959879,-9.504981,1.6424223
6.159871,4.8845882,-0.008220476,-0.021771235,0.41991442,0.9528923,-9.543288,1.6089035
6.1604166,4.8845406,-0.008220476,-0.021771235,0.41991442,0.9528923,-9.543288,1.6089035
6.160956,4.8844604,-0.009285741,-0.023901764,0.43482813,0.9864111,-9.572019,1.5562311
6.161494,4.884379,-0.009285741,-0.023901764,0.43482813,0.9864111,-9.572019,1.5562311
6.1620445,4.8842936,-0.010351005,-0.026032293,0.44974184,0.9911995,-9.552865,1.5514427
6.1625934,4.8842077,-0.010351005,-0.026032293,0.44974184,0.9911995,-9.552865,1.5514427
6.163077,4.8840833,-0.012481534,-0.030293351,0.46465552,1.1348516,-9.476251,1.5514427
6.163555,4.883959,-0.012481534,-0.030293351,0.46465552,1.1348516,-9.476251,1.5514427
6.1639757,4.8838353,-0.013546798,-0.035619672,0.47530818,1.1923125,-9.437943,1.5370775
6.16441,4.883708,-0.013546798,-0.035619672,0.47530818,1.1923125,-9.437943,1.5370775
6.1648316,4.883585,-0.014612063,-0.03988073,0.48489556,1.1971009,-9.404425,1.4987702
6.1652555,4.883462,-0.014612063,-0.03988073,0.48489556,1.1971009,-9.404425,1.4987702
6.165603,4.8833947,-0.013546798,-0.043076526,0.49661347,1.1827357,-9.361329,1.5993267
6.1659503,4.8833303,-0.013546798,-0.043076526,0.49661347,1.1827357,-9.361329,1.5993267
6.166322,4.8833523,-0.013546798,-0.04201126,0.50833136,1.1923125,-9.32781,1.6424223
6.1666923,4.883373,-0.013546798,-0.04201126,0.50833136,1.1923125,-9.32781,1.6424223
6.1670794,4.883398,-0.012481534,-0.037750203,0.5211145,1.1587936,-9.32781,1.6328455
6.1674647,4.883421,-0.012481534,-0.037750203,0.5211145,1.1587936,-9.32781,1.6328455
6.1679697,4.883292,-0.014612063,-0.030293351,0.5338977,1.1109096,-9.361329,1.5705963
6.1684647,4.8831654,-0.014612063,-0.030293351,0.5338977,1.1109096,-9.361329,1.5705963
6.168898,4.8831964,-0.015677327,-0.019640706,0.54881144,1.163582,-9.423578,1.6567876
6.1693096,4.8832235,-0.015677327,-0.019640706,0.54881144,1.163582,-9.423578,1.6567876
6.1697755,4.8831167,-0.018873122,-0.007922798,0.56692094,1.1683705,-9.461885,1.5705963
6.1702394,4.8830113,-0.018873122,-0.007922798,0.56692094,1.1683705,-9.461885,1.5705963
6.1707134,4.882911,-0.021003649,0.003795111,0.58289987,1.2018893,-9.457097,1.5514427
6.1711836,4.8828125,-0.021003649,0.003795111,0.58289987,1.2018893,-9.457097,1.5514427
6.1716323,4.882771,-0.025264706,0.017643549,0.59355253,1.3982137,-9.495404,1.6184803
6.172082,4.8827295,-0.025264706,0.017643549,0.59355253,1.3982137,-9.495404,1.6184803
6.1725483,4.8826632,-0.029525764,0.031491987,0.5999441,1.3742718,-9.428367,1.5562311
6.1730065,4.882599,-0.029525764,0.031491987,0.5999441,1.3742718,-9.428367,1.5562311
6.173465,4.882548,-0.032721557,0.045340426,0.59887886,1.4652514,-9.428367,1.5849615
6.1739235,4.8824973,-0.032721557,0.045340426,0.59887886,1.4652514,-9.428367,1.5849615
6.1743813,4.8824615,-0.035917353,0.062384658,0.59568304,1.5131354,-9.41879,1.6328455
6.174839,4.882426,-0.035917353,0.062384658,0.59568304,1.5131354,-9.41879,1.6328455
6.175297,4.882411,-0.039113145,0.08049415,0.5860957,1.5514427,-9.390059,1.7142484
6.175753,4.8823967,-0.039113145,0.08049415,0.5860957,1.5514427,-9.390059,1.7142484
6.1761894,4.882369,-0.042308938,0.100734174,0.56692094,1.4460979,-9.337387,1.6472107
6.176627,4.8823414,-0.042308938,0.100734174,0.56692094,1.4460979,-9.337387,1.6472107
6.177055,4.8823395,-0.046569996,0.1209742,0.5434851,1.4508862,-9.289502,1.7381904
6.177484,4.8823366,-0.046569996,0.1209742,0.5434851,1.4508862,-9.289502,1.7381904
6.1778784,4.882311,-0.05189632,0.14121422,0.51472294,1.388637,-9.289502,1.6519991
6.1782737,4.8822846,-0.05189632,0.14121422,0.51472294,1.388637,-9.289502,1.6519991
6.178635,4.8822384,-0.05935317,0.15932372,0.48276502,1.3455414,-9.279925,1.6041151
6.1790013,4.882191,-0.05935317,0.15932372,0.48276502,1.3455414,-9.279925,1.6041151
6.1793284,4.882141,-0.06894055,0.17743322,0.44654605,1.2737153,-9.289502,1.6089035
6.1796594,4.8820906,-0.06894055,0.17743322,0.44654605,1.2737153,-9.289502,1.6089035
6.179957,4.882026,-0.077462666,0.19128166,0.4113923,1.1779473,-9.270349,1.5897499
6.180255,4.881962,-0.077462666,0.19128166,0.4113923,1.1779473,-9.270349,1.5897499
6.1805196,4.88188,-0.08598478,0.2019343,0.37517333,1.1923125,-9.270349,1.5705963
6.180784,4.8817983,-0.08598478,0.2019343,0.37517333,1.1923125,-9.270349,1.5705963
6.181015,4.8817472,-0.09557216,0.20726062,0.33469325,1.1827357,-9.26556,1.6328455
6.181246,4.8816967,-0.09557216,0.20726062,0.33469325,1.1827357,-9.26556,1.6328455
6.1814566,4.8816667,-0.104094274,0.21045642,0.2942132,1.1061212,-9.227253,1.6519991
6.181667,4.881636,-0.104094274,0.21045642,0.2942132,1.1061212,-9.227253,1.6519991
6.1818876,4.881632,-0.11048587,0.21045642,0.25373316,0.9959879,-9.203311,1.6328455
6.1821055,4.881626,-0.11048587,0.21045642,0.25373316,0.9959879,-9.203311,1.6328455
6.182437,4.8816013,-0.11900798,0.20939115,0.21218786,0.8379706,-9.222465,1.6759412
6.1827674,4.881578,-0.11900798,0.20939115,0.21218786,0.8379706,-9.222465,1.6759412
6.1831093,4.881496,-0.1275301,0.2083259,0.17596887,0.6991069,-9.179369,1.6184803
6.1834507,4.881415,-0.1275301,0.2083259,0.17596887,0.6991069,-9.179369,1.6184803
6.1837606,4.881325,-0.13392168,0.2051301,0.14294566,0.5554548,-9.184157,1.6424223
6.184072,4.8812356,-0.13392168,0.2051301,0.14294566,0.5554548,-9.184157,1.6424223
6.1843596,4.881106,-0.14244379,0.20086904,0.11524879,0.50757074,-9.208099,1.5562311
6.1846447,4.880978,-0.14244379,0.20086904,0.11524879,0.50757074,-9.208099,1.5562311
6.1849074,4.880829,-0.15096591,0.19447745,0.09287824,0.46447513,-9.294291,1.5275006
6.18517,4.880679,-0.15096591,0.19447745,0.09287824,0.46447513,-9.294291,1.5275006
6.1854105,4.8805146,-0.1573575,0.1838248,0.073703475,0.45010993,-9.375694,1.508347
6.1856503,4.880351,-0.1573575,0.1838248,0.073703475,0.45010993,-9.375694,1.508347
6.185876,4.880194,-0.16374908,0.17317216,0.05772451,0.39264908,-9.428367,1.5658079
6.186102,4.8800383,-0.16374908,0.17317216,0.05772451,0.39264908,-9.428367,1.5658079
6.1863103,4.8798723,-0.17120594,0.15932372,0.042810805,0.33518824,-9.41879,1.5562311
6.1865187,4.8797073,-0.17120594,0.15932372,0.042810805,0.33518824,-9.41879,1.5562311
6.1867166,4.8795266,-0.175467,0.14334476,0.031092897,0.29688102,-9.514558,1.541866
6.186906,4.8793545,-0.175467,0.14334476,0.031092897,0.29688102,-9.514558,1.541866
6.18709,4.87918,-0.17653225,0.12630053,0.023636047,0.2681506,-9.629479,1.5753847
6.187274,4.879006,-0.17653225,0.12630053,0.023636047,0.2681506,-9.629479,1.5753847
6.187449,4.8788443,-0.17653225,0.10712577,0.018309724,0.20590134,-9.629479,1.6472107
6.187624,4.878683,-0.17653225,0.10712577,0.018309724,0.20590134,-9.629479,1.6472107
6.187788,4.878542,-0.17440173,0.087951005,0.015113931,0.21547815,-9.696517,1.7669208
6.187951,4.8784018,-0.17440173,0.087951005,0.015113931,0.21547815,-9.696517,1.7669208
6.188116,4.878254,-0.17014067,0.07090677,0.016179197,0.24420857,-9.725247,1.70946
6.1882815,4.878106,-0.17014067,0.07090677,0.016179197,0.24420857,-9.725247,1.70946
6.188448,4.877945,-0.16481435,0.052797277,0.018309724,0.29209262,-9.763555,1.6280571
6.188615,4.877784,-0.16481435,0.052797277,0.018309724,0.29209262,-9.763555,1.6280571
6.1887746,4.877654,-0.16055329,0.033622514,0.021505518,0.39264908,-9.758766,1.7477672
6.188934,4.8775263,-0.16055329,0.033622514,0.021505518,0.39264908,-9.758766,1.7477672
6.1891,4.8773975,-0.15522698,0.017643549,0.02896237,0.4357447,-9.768343,1.7238252
6.1892653,4.8772693,-0.15522698,0.017643549,0.02896237,0.4357447,-9.768343,1.7238252
6.189434,4.877145,-0.14990065,0.003795111,0.03428869,0.49320555,-9.792285,1.7142484
6.189603,4.877021,-0.14990065,0.003795111,0.03428869,0.49320555,-9.792285,1.7142484
6.189752,4.8769345,-0.14457433,-0.007922798,0.040680278,0.58418524,-9.825804,1.8243817
6.189901,4.8768487,-0.14457433,-0.007922798,0.040680278,0.58418524,-9.825804,1.8243817
6.1900563,4.8767686,-0.13711748,-0.017510178,0.04813713,0.59376204,-9.787497,1.8052281
6.190212,4.8766885,-0.13711748,-0.017510178,0.04813713,0.59376204,-9.787497,1.8052281
6.19035,4.876632,-0.12966062,-0.023901764,0.054528717,0.7374141,-9.821015,1.7956513
6.190488,4.876576,-0.12966062,-0.023901764,0.054528717,0.7374141,-9.821015,1.7956513
6.19059,4.876544,-0.122203775,-0.028162822,0.061985567,0.842759,-9.811439,1.8004397
6.1906915,4.8765125,-0.122203775,-0.028162822,0.061985567,0.842759,-9.811439,1.8004397
6.1908026,4.876487,-0.11474692,-0.030293351,0.06731189,0.842759,-9.859323,1.7956513
6.190913,4.876461,-0.11474692,-0.030293351,0.06731189,0.842759,-9.859323,1.7956513
6.19104,4.876441,-0.106224805,-0.028162822,0.07263821,0.8331822,-9.89763,1.7860745
6.191166,4.876421,-0.106224805,-0.028162822,0.07263821,0.8331822,-9.89763,1.7860745
6.1913147,4.876402,-0.09876795,-0.023901764,0.07796454,0.770933,-9.859323,1.8004397
6.1914635,4.876383,-0.09876795,-0.023901764,0.07796454,0.770933,-9.859323,1.8004397
6.191663,4.876342,-0.092376366,-0.019640706,0.087551914,0.7422025,-9.945514,1.733402
6.191861,4.876302,-0.092376366,-0.019640706,0.087551914,0.7422025,-9.945514,1.733402
6.1920557,4.8762827,-0.08385425,-0.015379649,0.09713929,0.7374141,-9.902418,1.7621324
6.1922493,4.8762646,-0.08385425,-0.015379649,0.09713929,0.7374141,-9.902418,1.7621324
6.192436,4.8762636,-0.07852793,-0.011118591,0.1088572,0.770933,-9.931149,1.7908629
6.192622,4.876263,-0.07852793,-0.011118591,0.1088572,0.770933,-9.931149,1.7908629
6.1928344,4.87627,-0.07320161,-0.00366174,0.12483617,0.78050977,-9.92636,1.7812861
6.1930466,4.8762765,-0.07320161,-0.00366174,0.12483617,0.78050977,-9.92636,1.7812861
6.19327,4.8762712,-0.06894055,0.0027298466,0.14294566,0.7374141,-9.902418,1.7429788
6.193514,4.876265,-0.06894055,0.0027298466,0.14294566,0.7374141,-9.902418,1.7429788
6.193809,4.87622,-0.0614837,0.011251962,0.15892464,0.7086837,-9.868899,1.6567876
6.1941037,4.8761764,-0.0614837,0.011251962,0.15892464,0.7086837,-9.868899,1.6567876
6.194413,4.8761487,-0.056157377,0.019774077,0.1749036,0.7230489,-9.801862,1.6567876
6.1947217,4.876122,-0.056157377,0.019774077,0.1749036,0.7230489,-9.801862,1.6567876
6.1950293,4.876128,-0.05189632,0.028296193,0.1930131,0.6943185,-9.763555,1.70946
6.1954846,4.8761206,-0.046569996,0.03681831,0.21005733,0.6751649,-9.706094,1.6663644
6.195715,4.876117,-0.046569996,0.03681831,0.21005733,0.6751649,-9.706094,1.6663644
6.195715,4.876117,-0.046569996,0.03681831,0.21005733,0.6751649,-9.706094,1.6663644
6.1965275,4.876004,-0.041243672,0.043209895,0.22816682,0.6512229,-9.662998,1.5801731
6.1968327,4.8759623,-0.041243672,0.043209895,0.22816682,0.6512229,-9.662998,1.5801731
6.1972194,4.8758802,-0.035917353,0.04853622,0.2441458,0.6751649,-9.648633,1.532289
6.197615,4.875796,-0.035917353,0.04853622,0.2441458,0.6751649,-9.648633,1.532289
6.197963,4.875717,-0.031656295,0.050666746,0.26225528,0.7230489,-9.581595,1.5275006
6.1983304,4.8756332,-0.031656295,0.050666746,0.26225528,0.7230489,-9.581595,1.5275006
6.1987476,4.875574,-0.0284605,0.052797277,0.27823424,0.7374141,-9.5385,1.5514427
6.199177,4.8755136,-0.0284605,0.052797277,0.27823424,0.7374141,-9.5385,1.5514427
6.1995287,4.8753967,-0.024199443,0.052797277,0.29314795,0.7613561,-9.476251,1.4796166
6.199893,4.875274,-0.024199443,0.052797277,0.29314795,0.7613561,-9.476251,1.4796166
6.200123,4.8751726,-0.018873122,0.050666746,0.3038006,0.8379706,-9.457097,1.5035586
6.2003603,4.8750677,-0.018873122,0.050666746,0.3038006,0.8379706,-9.457097,1.5035586
6.2006083,4.874965,-0.015677327,0.04853622,0.31445324,0.89064306,-9.452309,1.436521
6.2008767,4.874855,-0.015677327,0.04853622,0.31445324,0.89064306,-9.452309,1.436521
6.2010984,4.874768,-0.013546798,0.045340426,0.32191008,0.89064306,-9.44752,1.4413095
6.20134,4.874673,-0.013546798,0.045340426,0.32191008,0.89064306,-9.44752,1.4413095
6.2015586,4.8745975,-0.0114162695,0.040014103,0.32510588,0.9816227,-9.452309,1.4317327
6.2017765,4.8745227,-0.0114162695,0.040014103,0.32510588,0.9816227,-9.452309,1.4317327
6.201999,4.874446,-0.009285741,0.033622514,0.3272364,1.0055647,-9.471462,1.4077905
6.2022214,4.8743696,-0.009285741,0.033622514,0.3272364,1.0055647,-9.471462,1.4077905
6.202453,4.8742886,-0.008220476,0.028296193,0.3304322,0.9864111,-9.428367,1.388637
6.2026834,4.8742085,-0.008220476,0.028296193,0.3304322,0.9864111,-9.428367,1.388637
6.202896,4.8741407,-0.009285741,0.020839343,0.32936695,1.0534488,-9.41879,1.3982137
6.2031083,4.874073,-0.009285741,0.020839343,0.32936695,1.0534488,-9.41879,1.3982137
6.2033153,4.874008,-0.010351005,0.012317227,0.3304322,1.0726024,-9.404425,1.4030021
6.203522,4.8739443,-0.010351005,0.012317227,0.3304322,1.0726024,-9.404425,1.4030021
6.2037296,4.8738766,-0.010351005,0.003795111,0.32936695,1.13964,-9.409213,1.3599066
6.2039366,4.873809,-0.010351005,0.003795111,0.32936695,1.13964,-9.409213,1.3599066
6.2041264,4.87376,-0.0114162695,-0.0047270046,0.3272364,1.163582,-9.361329,1.4221559
6.2043157,4.873712,-0.0114162695,-0.0047270046,0.3272364,1.163582,-9.361329,1.4221559
6.2045026,4.8736615,-0.0114162695,-0.01324912,0.32510588,1.2449849,-9.404425,1.4030021
6.204689,4.8736115,-0.0114162695,-0.01324912,0.32510588,1.2449849,-9.404425,1.4030021
6.2048674,4.8735714,-0.013546798,-0.019640706,0.32297537,1.2737153,-9.414001,1.4508862
6.2050457,4.8735313,-0.013546798,-0.019640706,0.32297537,1.2737153,-9.414001,1.4508862
6.2052183,4.873496,-0.015677327,-0.0228365,0.3187143,1.3311762,-9.409213,1.4700398
6.20539,4.873461,-0.015677327,-0.0228365,0.3187143,1.3311762,-9.409213,1.4700398
6.2055583,4.873426,-0.017807856,-0.026032293,0.313388,1.3024458,-9.404425,1.484405
6.2057247,4.873391,-0.017807856,-0.026032293,0.313388,1.3024458,-9.404425,1.484405
6.2058845,4.8733535,-0.017807856,-0.027097559,0.3069964,1.3455414,-9.409213,1.4652514
6.2060447,4.873316,-0.017807856,-0.027097559,0.3069964,1.3455414,-9.409213,1.4652514
6.206204,4.873268,-0.019938385,-0.023901764,0.3038006,1.2880806,-9.409213,1.436521
6.206363,4.8732204,-0.019938385,-0.023901764,0.3038006,1.2880806,-9.409213,1.436521
6.2065234,4.8731613,-0.02313418,-0.017510178,0.30060482,1.3263878,-9.433155,1.3934253
6.2066836,4.8731027,-0.02313418,-0.017510178,0.30060482,1.3263878,-9.433155,1.3934253
6.2068377,4.8730507,-0.025264706,-0.010053327,0.29634374,1.2689269,-9.495404,1.4508862
6.206992,4.872998,-0.025264706,-0.010053327,0.29634374,1.2689269,-9.495404,1.4508862
6.2071533,4.8729286,-0.03059103,-0.00046594674,0.29634374,1.1540052,-9.514558,1.4269443
6.2073145,4.872859,-0.03059103,-0.00046594674,0.29634374,1.1540052,-9.514558,1.4269443
6.207478,4.8727903,-0.034852087,0.013382491,0.29847428,1.1779473,-9.552865,1.4413095
6.2076416,4.872722,-0.034852087,0.013382491,0.29847428,1.1779473,-9.552865,1.4413095
6.207811,4.872655,-0.03804788,0.02723093,0.3038006,1.0773908,-9.581595,1.4796166
6.20798,4.8725886,-0.03804788,0.02723093,0.3038006,1.0773908,-9.581595,1.4796166
6.2081733,4.872495,-0.041243672,0.04214463,0.3101922,0.9816227,-9.615114,1.4460979
6.2083654,4.872402,-0.041243672,0.04214463,0.3101922,0.9816227,-9.615114,1.4460979
6.2085814,4.872296,-0.045504734,0.0581236,0.32084483,0.9576807,-9.682152,1.436521
6.208796,4.87219,-0.045504734,0.0581236,0.32084483,0.9576807,-9.682152,1.436521
6.2090344,4.8720737,-0.048700526,0.073037304,0.33149746,0.8619126,-9.662998,1.4652514
6.209266,4.8719606,-0.048700526,0.073037304,0.33149746,0.8619126,-9.662998,1.4652514
6.2095222,4.8718386,-0.050831053,0.08475521,0.34215012,0.92895025,-9.667787,1.3982137
6.209782,4.871715,-0.050831053,0.08475521,0.34215012,0.92895025,-9.667787,1.3982137
6.2100525,4.8715935,-0.050831053,0.09327733,0.3549333,0.92895025,-9.610326,1.3742718
6.210321,4.8714724,-0.050831053,0.09327733,0.3549333,0.92895025,-9.610326,1.3742718
6.2105603,4.8714023,-0.050831053,0.100734174,0.36452067,1.0247183,-9.519346,1.4748282
6.2108006,4.8713326,-0.050831053,0.100734174,0.36452067,1.0247183,-9.519346,1.4748282
6.211052,4.8712516,-0.048700526,0.10819103,0.369847,1.1587936,-9.466674,1.388637
6.2113028,4.8711705,-0.048700526,0.10819103,0.369847,1.1587936,-9.466674,1.388637
6.211548,4.8711157,-0.045504734,0.117778406,0.369847,1.2785037,-9.337387,1.436521
6.211793,4.8710613,-0.045504734,0.117778406,0.369847,1.2785037,-9.337387,1.436521
6.212033,4.8710337,-0.04443947,0.13162684,0.36239013,1.3790601,-9.313444,1.5514427
6.2122736,4.8710065,-0.04443947,0.13162684,0.36239013,1.3790601,-9.313444,1.5514427
6.212502,4.8709683,-0.045504734,0.14973634,0.3485417,1.4508862,-9.251195,1.484405
6.21273,4.8709297,-0.045504734,0.14973634,0.3485417,1.4508862,-9.251195,1.484405
6.2129397,4.870899,-0.050831053,0.17423743,0.32617116,1.4700398,-9.26556,1.5466543
6.2131495,4.8708677,-0.050831053,0.17423743,0.32617116,1.4700398,-9.26556,1.5466543
6.2133346,4.8708324,-0.05935317,0.20619535,0.2942132,1.4460979,-9.332599,1.5658079
6.213519,4.870797,-0.05935317,0.20619535,0.2942132,1.4460979,-9.332599,1.5658079
6.213666,4.8707495,-0.06894055,0.2381533,0.25160265,1.3934253,-9.356541,1.532289
6.2138124,4.870701,-0.06894055,0.2381533,0.25160265,1.3934253,-9.356541,1.532289
6.21392,4.8706603,-0.08172372,0.2711765,0.20260048,1.3072342,-9.394848,1.6184803
6.214028,4.87062,-0.08172372,0.2711765,0.20260048,1.3072342,-9.394848,1.6184803
6.2140884,4.870578,-0.093441635,0.29993862,0.14720672,1.2449849,-9.41879,1.6472107
6.214149,4.870536,-0.093441635,0.29993862,0.14720672,1.2449849,-9.41879,1.6472107
6.214165,4.870498,-0.10515954,0.3223092,0.089682445,1.1779473,-9.452309,1.7046716
6.214182,4.870461,-0.10515954,0.3223092,0.089682445,1.1779473,-9.452309,1.7046716
6.2141495,4.870429,-0.11474692,0.34041867,0.025766576,1.0534488,-9.466674,1.7190368
6.214117,4.870397,-0.11474692,0.34041867,0.025766576,1.0534488,-9.466674,1.7190368
6.214056,4.8703833,-0.122203775,0.35320187,-0.041345086,0.8810662,-9.471462,1.7477672
6.2139945,4.870369,-0.122203775,0.35320187,-0.041345086,0.8810662,-9.471462,1.7477672
6.213924,4.8703647,-0.12859535,0.35959345,-0.10952201,0.7086837,-9.476251,1.7717092
6.213859,4.870361,-0.12859535,0.35959345,-0.10952201,0.7086837,-9.476251,1.7717092
6.2138195,4.8703394,-0.13179116,0.36172396,-0.17450315,0.49799395,-9.457097,1.6950948
6.21378,4.8703175,-0.13179116,0.36172396,-0.17450315,0.49799395,-9.457097,1.6950948
6.213729,4.8702545,-0.13179116,0.3574629,-0.23628849,0.30166942,-9.409213,1.6184803
6.213678,4.8701916,-0.13179116,0.3574629,-0.23628849,0.30166942,-9.409213,1.6184803
6.2135816,4.8701015,-0.13179116,0.3489408,-0.2927475,0.1388637,-9.380483,1.5466543
6.213485,4.870011,-0.13179116,0.3489408,-0.2927475,0.1388637,-9.380483,1.5466543
6.213341,4.869904,-0.13179116,0.33615762,-0.34068438,0.0047884034,-9.3421755,1.4748282
6.2132,4.8697996,-0.13179116,0.33615762,-0.34068438,0.0047884034,-9.3421755,1.4748282
6.213011,4.869685,-0.13392168,0.3212439,-0.38436025,-0.17717093,-9.313444,1.436521
6.212817,4.869569,-0.13392168,0.3212439,-0.38436025,-0.17717093,-9.313444,1.436521
6.212585,4.8694353,-0.13711748,0.3041997,-0.42270976,-0.22984336,-9.212888,1.316811
6.212354,4.869303,-0.13711748,0.3041997,-0.42270976,-0.22984336,-9.212888,1.316811
6.212085,4.8691525,-0.13711748,0.2860902,-0.45040664,-0.320823,-9.169792,1.163582
6.2118144,4.8690014,-0.13711748,0.2860902,-0.45040664,-0.320823,-9.169792,1.163582
6.2115083,4.868827,-0.14350906,0.2711765,-0.47384244,-0.24899697,-9.126697,1.0103531
6.2112017,4.868652,-0.14350906,0.2711765,-0.47384244,-0.24899697,-9.126697,1.0103531
6.210838,4.8684454,-0.15096591,0.253067,-0.4994088,-0.019153614,-9.006987,0.8283938
6.210475,4.8682394,-0.15096591,0.253067,-0.4994088,-0.019153614,-9.006987,0.8283938
6.2100363,4.868002,-0.16374908,0.23282696,-0.52817094,0.33997664,-8.868123,0.79008657
6.209599,4.867765,-0.16374908,0.23282696,-0.52817094,0.33997664,-8.868123,0.79008657
6.2090554,4.8675013,-0.18185858,0.21045642,-0.5654552,0.6991069,-8.781932,0.8762778
6.208523,4.867242,-0.18185858,0.21045642,-0.5654552,0.6991069,-8.781932,0.8762778
6.207831,4.867007,-0.20209861,0.18808587,-0.61871845,0.9624691,-8.834604,1.2354081
6.207139,4.8667717,-0.20209861,0.18808587,-0.61871845,0.9624691,-8.834604,1.2354081
6.206388,4.8666396,-0.22020811,0.16465004,-0.6805038,0.9576807,-8.944737,1.5705963
6.20564,4.8665094,-0.22020811,0.16465004,-0.6805038,0.9576807,-8.944737,1.5705963
6.204862,4.8663855,-0.23405655,0.14547528,-0.7486807,0.93373865,-9.030929,1.7429788
6.204091,4.866263,-0.23405655,0.14547528,-0.7486807,0.93373865,-9.030929,1.7429788
6.203234,4.866131,-0.24257866,0.12630053,-0.8200534,0.90979666,-9.035717,1.7956513
6.202422,4.8660064,-0.24257866,0.12630053,-0.8200534,0.90979666,-9.035717,1.7956513
6.2015347,4.8658724,-0.25110078,0.104995236,-0.8892956,0.8283938,-9.021352,1.7381904
6.2006497,4.8657393,-0.25110078,0.104995236,-0.8892956,0.8283938,-9.021352,1.7381904
6.1996727,4.865596,-0.25749236,0.08368994,-0.9606683,0.8523358,-9.078813,1.6089035
6.198698,4.8654537,-0.25749236,0.08368994,-0.9606683,0.8523358,-9.078813,1.6089035
6.197557,4.865221,-0.2649492,0.060254127,-1.0235189,0.94331545,-9.14585,1.4269443
6.1964164,4.8649917,-0.2649492,0.060254127,-1.0235189,0.94331545,-9.14585,1.4269443
6.195227,4.8646874,-0.27560186,0.038948838,-1.084239,1.0199299,-9.203311,1.3359646
6.194038,4.8643827,-0.27560186,0.038948838,-1.084239,1.0199299,-9.203311,1.3359646
6.1928134,4.8640413,-0.28731975,0.019774077,-1.1417632,1.0342951,-9.232041,1.2689269
6.191591,4.8637,-0.28731975,0.019774077,-1.1417632,1.0342951,-9.232041,1.2689269
6.1903276,4.8633394,-0.2979724,0.00592564,-1.192896,1.0342951,-9.255983,1.2449849
6.1890674,4.8629775,-0.2979724,0.00592564,-1.192896,1.0342951,-9.255983,1.2449849
6.1877904,4.862592,-0.30969033,-0.005792269,-1.2365718,1.0151415,-9.308656,1.1875241
6.1865172,4.8622065,-0.30969033,-0.005792269,-1.2365718,1.0151415,-9.308656,1.1875241
6.185194,4.861815,-0.32034296,-0.014314385,-1.2781171,1.0821792,-9.299079,1.1540052
6.1838617,4.861419,-0.32034296,-0.014314385,-1.2781171,1.0821792,-9.299079,1.1540052
6.1824465,4.861043,-0.32993034,-0.020705972,-1.3185972,1.2401965,-9.303867,1.2162545
6.181034,4.8606663,-0.32993034,-0.020705972,-1.3185972,1.2401965,-9.303867,1.2162545
6.179567,4.8602943,-0.3395177,-0.026032293,-1.3569467,1.3455414,-9.308656,1.2306197
6.1781282,4.859929,-0.3395177,-0.026032293,-1.3569467,1.3455414,-9.308656,1.2306197
6.176609,4.8595667,-0.3491051,-0.026032293,-1.3963615,1.388637,-9.3421755,1.292869
6.175062,4.8591976,-0.3491051,-0.026032293,-1.3963615,1.388637,-9.3421755,1.292869
6.1735206,4.8588,-0.360823,-0.0228365,-1.438972,1.388637,-9.428367,1.2162545
6.171987,4.8584037,-0.360823,-0.0228365,-1.438972,1.388637,-9.428367,1.2162545
6.1704206,4.857979,-0.3757367,-0.015379649,-1.4826479,1.283292,-9.543288,1.2497733
6.168847,4.8575497,-0.3757367,-0.015379649,-1.4826479,1.283292,-9.543288,1.2497733
6.1673045,4.857088,-0.38958514,-0.005792269,-1.5263238,1.1875241,-9.715671,1.2354081
6.1673045,4.857088,-0.38958514,-0.005792269,-1.5263238,1.1875241,-9.715671,1.2354081
6.1673045,4.857088,-0.40449885,0.0016645822,-1.5657386,1.091756,-9.773131,1.1827357
6.1625977,4.8556166,-0.40449885,0.0016645822,-1.5657386,1.091756,-9.773131,1.1827357
6.160572,4.854976,-0.4183473,0.0069909045,-1.5966312,0.91937345,-9.921572,1.115698
6.159671,4.854692,-0.4183473,0.0069909045,-1.5966312,0.91937345,-9.921572,1.115698
6.158168,4.85421,-0.43432626,0.009121433,-1.6211323,0.842759,-10.022128,1.0151415
6.1560736,4.853539,-0.43432626,0.009121433,-1.6211323,0.842759,-10.022128,1.0151415
6.1550984,4.8532214,-0.4481747,0.003795111,-1.6403071,0.79966336,-10.117896,0.92416185
6.1534715,4.8526917,-0.4481747,0.003795111,-1.6403071,0.79966336,-10.117896,0.92416185
6.152024,4.8522115,-0.46095788,-0.010053327,-1.6552207,0.89543146,-10.070012,0.842759
6.150453,4.8516903,-0.46095788,-0.010053327,-1.6552207,0.89543146,-10.070012,0.842759
6.1488037,4.851144,-0.47374105,-0.029228088,-1.6722649,1.3072342,-9.993398,0.8810662
6.1471577,4.850598,-0.47374105,-0.029228088,-1.6722649,1.3072342,-9.993398,0.8810662
6.1453776,4.850058,-0.48972002,-0.054794434,-1.6935703,1.9632454,-9.801862,0.8810662
6.1435986,4.849518,-0.48972002,-0.054794434,-1.6935703,1.9632454,-9.801862,0.8810662
6.1417384,4.848996,-0.50996006,-0.08249131,-1.7319198,2.8921957,-9.763555,0.9720459
6.139878,4.848475,-0.50996006,-0.08249131,-1.7319198,2.8921957,-9.763555,0.9720459
6.137932,4.8479414,-0.5376569,-0.106992394,-1.7990315,3.6535518,-9.662998,1.1204864
6.136001,4.847413,-0.5376569,-0.106992394,-1.7990315,3.6535518,-9.662998,1.1204864
6.1339636,4.846866,-0.5717454,-0.12084083,-1.9012969,4.1802764,-9.634268,1.3838485
6.1319265,4.846319,-0.5717454,-0.12084083,-1.9012969,4.1802764,-9.634268,1.3838485
6.12976,4.845741,-0.6122254,-0.13042821,-2.0301938,4.6782703,-9.600749,1.5658079
6.1276326,4.845173,-0.6122254,-0.13042821,-2.0301938,4.6782703,-9.600749,1.5658079
6.125318,4.8445625,-0.65377074,-0.13468927,-2.1835918,5.0996494,-9.65821,1.7669208
6.1229553,4.84394,-0.65377074,-0.13468927,-2.1835918,5.0996494,-9.65821,1.7669208
6.1204624,4.8432913,-0.69425076,-0.1368198,-2.3604257,5.4683566,-9.787497,1.7812861
6.1179476,4.842637,-0.69425076,-0.1368198,-2.3604257,5.4683566,-9.787497,1.7812861
6.1153092,4.8419666,-0.731535,-0.13895033,-2.5553691,5.693412,-9.864111,1.7717092
6.112628,4.8412857,-0.731535,-0.13895033,-2.5553691,5.693412,-9.864111,1.7717092
6.109732,4.8405623,-0.7698846,-0.14534192,-2.7630959,5.8562174,-10.007763,1.5849615
6.106836,4.839839,-0.7698846,-0.14534192,-2.7630959,5.8562174,-10.007763,1.5849615
6.1037216,4.839081,-0.8050383,-0.15386403,-2.9814749,6.019023,-10.060435,1.4796166
6.1006007,4.8383217,-0.8050383,-0.15386403,-2.9814749,6.019023,-10.060435,1.4796166
6.0972652,4.837528,-0.8369962,-0.1666472,-3.2009194,6.1004257,-10.170568,1.2641385
6.0939326,4.8367352,-0.8369962,-0.1666472,-3.2009194,6.1004257,-10.170568,1.2641385
6.09038,4.8359103,-0.8689542,-0.18369143,-3.4171681,6.244078,-10.223241,1.1971009
6.0868306,4.8350863,-0.8689542,-0.18369143,-3.4171681,6.244078,-10.223241,1.1971009
6.0830593,4.8342237,-0.9009121,-0.20712726,-3.6302211,6.5457473,-10.213664,0.9959879
6.0792913,4.8333626,-0.9009121,-0.20712726,-3.6302211,6.5457473,-10.213664,0.9959879
6.0753164,4.8324666,-0.93500054,-0.23482412,-3.8390129,7.053318,-10.146626,0.90500826
6.0696917,4.8312135,-0.97441536,-0.26465154,-4.053131,7.728483,-10.089166,0.93852705
6.0668435,4.830579,-0.97441536,-0.26465154,-4.053131,7.728483,-10.089166,0.93852705
6.062573,4.829629,-0.97441536,-0.26465154,-4.053131,7.728483,-10.089166,0.93852705
6.0582023,4.828664,-1.0202217,-0.29021788,-4.2768364,8.341399,-10.036493,1.0582372
6.0538707,4.827708,-1.0202217,-0.29021788,-4.2768364,8.341399,-10.036493,1.0582372
6.0492287,4.8266873,-1.0713544,-0.31045792,-4.507999,8.762778,-10.0269165,1.163582
6.0445814,4.8256664,-1.0713544,-0.31045792,-4.507999,8.762778,-10.0269165,1.163582
6.039689,4.8245974,-1.1235523,-0.3221758,-4.744488,9.083601,-10.093954,1.2880806
6.0348115,4.8235316,-1.1235523,-0.3221758,-4.744488,9.083601,-10.093954,1.2880806
6.0296764,4.8224225,-1.170424,-0.3253716,-4.983107,9.208099,-10.079589,1.3790601
6.024541,4.821314,-1.170424,-0.3253716,-4.983107,9.208099,-10.079589,1.3790601
6.019197,4.820178,-1.210904,-0.3253716,-5.2195954,9.3421755,-10.127473,1.4508862
6.013826,4.819037,-1.210904,-0.3253716,-5.2195954,9.3421755,-10.127473,1.4508862
6.0082445,4.817879,-1.2417967,-0.3200453,-5.4486275,9.428367,-10.160992,1.5897499
6.0026855,4.8167267,-1.2417967,-0.3200453,-5.4486275,9.428367,-10.160992,1.5897499
5.996877,4.8155575,-1.2609714,-0.31258842,-5.665941,9.428367,-10.266336,1.6328455
5.991074,4.814389,-1.2609714,-0.31258842,-5.665941,9.428367,-10.266336,1.6328455
5.985071,4.813225,-1.2684283,-0.30087054,-5.8683414,9.3661175,-10.338163,1.6567876
5.979068,4.8120604,-1.2684283,-0.30087054,-5.8683414,9.3661175,-10.338163,1.6567876
5.9728775,4.8109074,-1.2652326,-0.28489155,-6.050502,9.275137,-10.338163,1.6089035
5.9666996,4.809758,-1.2652326,-0.28489155,-6.050502,9.275137,-10.338163,1.6089035
5.9603624,4.80863,-1.2556452,-0.26784733,-6.212422,9.203311,-10.304645,1.6328455
5.9540124,4.8075004,-1.2556452,-0.26784733,-6.212422,9.203311,-10.304645,1.6328455
5.9475303,4.806396,-1.2407315,-0.2476073,-6.3519716,9.294291,-10.19451,1.5227122
5.941048,4.805292,-1.2407315,-0.2476073,-6.3519716,9.294291,-10.19451,1.5227122
5.9344416,4.8042116,-1.226883,-0.22523674,-6.477673,9.41879,-10.041282,1.4030021
5.9278345,4.803132,-1.226883,-0.22523674,-6.477673,9.41879,-10.041282,1.4030021
5.921117,4.8020773,-1.2172956,-0.19540934,-6.591656,9.624691,-9.902418,1.388637
5.914398,4.801023,-1.2172956,-0.19540934,-6.591656,9.624691,-9.902418,1.388637
5.90755,4.799987,-1.2140999,-0.15705982,-6.6981826,9.835381,-9.821015,1.3790601
5.9007554,4.7989597,-1.2140999,-0.15705982,-6.6981826,9.835381,-9.821015,1.3790601
5.893831,4.797947,-1.2194262,-0.106992394,-6.804709,9.935937,-9.878476,1.3120226
5.8869057,4.7969356,-1.2194262,-0.106992394,-6.804709,9.935937,-9.878476,1.3120226
5.8798766,4.7959337,-1.2300788,-0.044141788,-6.9112353,9.792285,-10.280702,0.92895025
5.872847,4.7949333,-1.2300788,-0.044141788,-6.9112353,9.792285,-10.280702,0.92895025
5.8657312,4.7939453,-1.2524494,0.052797277,-7.0039134,8.403648,-11.166556,0.6943185
5.858615,4.79296,-1.2524494,0.052797277,-7.0039134,8.403648,-11.166556,0.6943185
5.851464,4.791975,-1.2897336,0.19660798,-7.0603724,6.9048777,-11.9135475,0.545878
5.8443127,4.7909913,-1.2897336,0.19660798,-7.0603724,6.9048777,-11.9135475,0.545878
5.8372083,4.7899966,-1.3376706,0.36598504,-7.077417,6.26802,-12.354081,0.521936
5.8301153,4.789001,-1.3376706,0.36598504,-7.077417,6.26802,-12.354081,0.521936
5.8230114,4.7880545,-1.3792158,0.5183178,-7.0752864,6.670246,-12.469003,0.49320555
5.815916,4.7871084,-1.3792158,0.5183178,-7.0752864,6.670246,-12.469003,0.49320555
5.808793,4.786222,-1.4069127,0.6301706,-7.077417,7.517793,-12.62702,0.39743748
5.8016725,4.7853384,-1.4069127,0.6301706,-7.077417,7.517793,-12.62702,0.39743748
5.7945294,4.784506,-1.4207611,0.71113074,-7.0923305,7.896077,-12.799402,0.49320555
5.7873883,4.7836776,-1.4207611,0.71113074,-7.0923305,7.896077,-12.799402,0.49320555
5.7802277,4.7828937,-1.423957,0.7825034,-7.116832,7.699753,-12.880805,0.62728083
5.773072,4.782112,-1.423957,0.7825034,-7.116832,7.699753,-12.880805,0.62728083
5.7661304,4.7814007,-1.4207611,0.85707194,-7.1445284,6.8522053,-13.010092,0.770933
5.759208,4.780712,-1.4207611,0.85707194,-7.1445284,6.8522053,-13.010092,0.770933
5.7522697,4.7801247,-1.4111738,0.93803203,-7.1583767,5.8705826,-13.10586,0.8523358
5.745331,4.7795496,-1.4111738,0.93803203,-7.1583767,5.8705826,-13.10586,0.8523358
5.7383976,4.77904,-1.4005212,1.0126005,-7.1487894,4.8698063,-13.177686,0.8379706
5.7314777,4.778544,-1.4005212,1.0126005,-7.1487894,4.8698063,-13.177686,0.8379706
5.7245865,4.7781043,-1.3909338,1.0733206,-7.116832,4.2521024,-13.359646,0.79487497
5.717694,4.777677,-1.3909338,1.0733206,-7.116832,4.2521024,-13.359646,0.79487497
5.7108507,4.777295,-1.3802811,1.1127354,-7.068895,4.232949,-13.522451,0.7613561
5.7040076,4.7769275,-1.3802811,1.1127354,-7.068895,4.232949,-13.522451,0.7613561
5.697216,4.7765975,-1.3674979,1.1276491,-7.016697,4.4580035,-13.776237,0.8571242
5.6904244,4.7762814,-1.3674979,1.1276491,-7.016697,4.4580035,-13.776237,0.8571242
5.6836705,4.7760024,-1.3504537,1.1244533,-6.976217,4.7979803,-14.106636,1.1061212
5.6769094,4.7757373,-1.3504537,1.1244533,-6.976217,4.7979803,-14.106636,1.1061212
5.670183,4.7755046,-1.3291484,1.1106049,-6.9517155,4.8267107,-14.551958,1.3263878
5.66345,4.7752857,-1.3291484,1.1106049,-6.9517155,4.8267107,-14.551958,1.3263878
5.6567225,4.775103,-1.2982557,1.0914301,-6.942128,4.7070007,-14.839262,1.508347
5.6499953,4.774935,-1.2982557,1.0914301,-6.942128,4.7070007,-14.839262,1.508347
5.6432605,4.774808,-1.2567104,1.0679944,-6.946389,4.3861775,-14.944607,1.6519991
5.636525,4.7746964,-1.2567104,1.0679944,-6.946389,4.3861775,-14.944607,1.6519991
5.629769,4.7746243,-1.2055777,1.0349711,-6.9591722,3.8019924,-15.093047,1.6376339
5.6230254,4.7745676,-1.2055777,1.0349711,-6.9591722,3.8019924,-15.093047,1.6376339
5.6162653,4.7745466,-1.1459229,0.98809946,-6.9666295,3.3566709,-14.915876,1.5466543
5.609505,4.774541,-1.1459229,0.98809946,-6.9666295,3.3566709,-14.915876,1.5466543
5.6027393,4.77456,-1.0830723,0.9263141,-6.96876,2.9352913,-14.738706,1.3742718
5.595974,4.774595,-1.0830723,0.9263141,-6.96876,2.9352913,-14.738706,1.3742718
5.5892067,4.7746406,-1.021287,0.8474846,-6.9655643,2.873042,-14.618996,1.3263878
5.58244,4.774701,-1.021287,0.8474846,-6.9655643,2.873042,-14.618996,1.3263878
5.5756836,4.7747545,-0.9616322,0.75374126,-6.949585,3.145981,-14.355634,1.2210429
5.5689273,4.7748218,-0.9616322,0.75374126,-6.949585,3.145981,-14.355634,1.2210429
5.5621815,4.7748632,-0.90410787,0.6450843,-6.933606,3.643975,-13.891158,1.0821792
5.5554357,4.7749176,-0.90410787,0.6450843,-6.933606,3.643975,-13.891158,1.0821792
5.548691,4.774931,-0.84977937,0.52364415,-6.925084,3.9983168,-13.532028,1.0582372
5.5419464,4.7749567,-0.84977937,0.52364415,-6.925084,3.9983168,-13.532028,1.0582372
5.5351872,4.7749195,-0.8018425,0.39261663,-6.932541,4.525041,-13.01488,0.94810385
5.5284276,4.7748923,-0.8018425,0.39261663,-6.932541,4.525041,-13.01488,0.94810385
5.521633,4.7747965,-0.7571014,0.25519753,-6.9591722,5.085284,-12.488156,1.0007763
5.5148387,4.7747083,-0.7571014,0.25519753,-6.9591722,5.085284,-12.488156,1.0007763
5.507984,4.774545,-0.7155561,0.11564788,-7.0092397,5.583278,-11.899182,1.1061212
5.501129,4.7743883,-0.7155561,0.11564788,-7.0092397,5.583278,-11.899182,1.1061212
5.4941883,4.774159,-0.675076,-0.021771235,-7.0838084,6.0238113,-11.324574,1.2976574
5.4872475,4.7739334,-0.675076,-0.021771235,-7.0838084,6.0238113,-11.324574,1.2976574
5.4801955,4.773643,-0.63566124,-0.15386403,-7.178617,6.0285997,-10.429143,1.5801731
5.4731436,4.7733536,-0.63566124,-0.15386403,-7.178617,6.0285997,-10.429143,1.5801731
5.465974,4.7729836,-0.5919854,-0.2806305,-7.288339,5.602432,-10.041282,1.5705963
5.4588046,4.7726116,-0.5919854,-0.2806305,-7.288339,5.602432,-10.041282,1.5705963
5.4515195,4.772146,-0.5493748,-0.41165802,-7.396996,5.779603,-9.706094,1.4460979
5.4442353,4.771677,-0.5493748,-0.41165802,-7.396996,5.779603,-9.706094,1.4460979
5.436843,4.7711124,-0.50889474,-0.53948975,-7.4960656,6.0956373,-9.251195,1.3694834
5.429451,4.770541,-0.50889474,-0.53948975,-7.4960656,6.0956373,-9.251195,1.3694834
5.4219613,4.769863,-0.47161052,-0.65666884,-7.590874,5.731719,-8.944737,1.2066777
5.414427,4.7691703,-0.47161052,-0.65666884,-7.590874,5.731719,-8.944737,1.2066777
5.4068236,4.7683606,-0.44391364,-0.7599995,-7.673965,5.046977,-8.676587,0.92895025
5.3991065,4.7675242,-0.44391364,-0.7599995,-7.673965,5.046977,-8.676587,0.92895025
5.391666,4.7666035,-0.41941255,-0.86013436,-7.7293587,4.19943,-8.39886,0.6655881
5.384043,4.7656426,-0.41941255,-0.86013436,-7.7293587,4.19943,-8.39886,0.6655881
5.376381,4.764525,-0.39810726,-0.9709219,-7.7421417,3.7062242,-8.00621,0.33997664
5.3687344,4.7633877,-0.39810726,-0.9709219,-7.7421417,3.7062242,-8.00621,0.33997664
5.3611674,4.7620697,-0.38106304,-1.0987536,-7.7123146,4.098873,-7.4028716,0.10055647
5.3535333,4.7607117,-0.38106304,-1.0987536,-7.7123146,4.098873,-7.4028716,0.10055647
5.345969,4.75914,-0.37147567,-1.2340422,-7.6526594,5.0613422,-6.766014,0.05746084
5.33607,4.7570314,-0.37147567,-1.2340422,-7.6526594,5.0613422,-6.766014,0.05746084
5.3295445,4.755431,-0.37147567,-1.3640045,-7.5876784,6.1387334,-6.167464,0.11492168
5.3194084,4.7526684,-0.38106304,-1.4737266,-7.5322847,6.9958572,-5.693412,0.24899697
5.3150377,4.7514524,-0.38106304,-1.4737266,-7.5322847,6.9958572,-5.693412,0.24899697
5.308286,4.7495403,-0.38106304,-1.4737266,-7.5322847,6.9958572,-5.693412,0.24899697
5.300869,4.7473564,-0.39597675,-1.560013,-7.497131,7.73806,-5.2624555,0.20590134
5.288129,4.7431293,-0.4119557,-1.6249943,-7.484348,8.408437,-4.8267107,0.06703765
5.28556,4.7422547,-0.4119557,-1.6249943,-7.484348,8.408437,-4.8267107,0.06703765
5.277835,4.7395782,-0.4119557,-1.6249943,-7.484348,8.408437,-4.8267107,0.06703765
5.2703214,4.736803,-0.42899993,-1.6739964,-7.4907393,8.781932,-4.596867,-0.038307227
5.262682,4.7339044,-0.42899993,-1.6739964,-7.4907393,8.781932,-4.596867,-0.038307227
5.255027,4.730851,-0.4481747,-1.7016933,-7.51311,8.863335,-4.4723687,-0.110133275
5.247331,4.727693,-0.4481747,-1.7016933,-7.51311,8.863335,-4.4723687,-0.110133275
5.239636,4.7244287,-0.46521893,-1.7102154,-7.5397415,8.872911,-4.357447,-0.11971009
5.231953,4.7210727,-0.46521893,-1.7102154,-7.5397415,8.872911,-4.357447,-0.11971009
5.2242517,4.717564,-0.4811979,-1.704889,-7.564243,8.7053175,-4.3382936,-0.21547815
5.216719,4.7140217,-0.4811979,-1.704889,-7.564243,8.7053175,-4.3382936,-0.21547815
5.209079,4.710231,-0.4993074,-1.6899754,-7.582352,8.451532,-4.414908,-0.3878607
5.201315,4.7062435,-0.4993074,-1.6899754,-7.582352,8.451532,-4.414908,-0.3878607
5.193757,4.702231,-0.5152864,-1.6697353,-7.5919394,8.24563,-4.4915223,-0.50757074
5.1862745,4.698129,-0.5152864,-1.6697353,-7.5919394,8.24563,-4.4915223,-0.50757074
5.1787786,4.6939225,-0.5312653,-1.644169,-7.585548,8.054094,-4.7070007,-0.6464345
5.171277,4.6895804,-0.5312653,-1.644169,-7.585548,8.054094,-4.7070007,-0.6464345
5.1638765,4.6852083,-0.54617906,-1.6143416,-7.559982,7.8386164,-4.8937483,-0.6655881
5.156481,4.6807,-0.54617906,-1.6143416,-7.559982,7.8386164,-4.8937483,-0.6655881
5.149148,4.676151,-0.5578969,-1.5834489,-7.521632,7.7332716,-5.109226,-0.5554548
5.14184,4.671469,-0.5578969,-1.5834489,-7.521632,7.7332716,-5.109226,-0.5554548
5.134549,4.666677,-0.5642885,-1.5504258,-7.4694343,7.680599,-5.3199162,-0.6368576
5.127283,4.6617374,-0.5642885,-1.5504258,-7.4694343,7.680599,-5.3199162,-0.6368576
5.1201515,4.656752,-0.5674843,-1.519533,-7.4087143,7.7907324,-5.521029,-0.6991069
5.1129227,4.651521,-0.5674843,-1.519533,-7.4087143,7.7907324,-5.521029,-0.6991069
5.105865,4.646299,-0.5674843,-1.4897057,-7.3426676,8.0445175,-5.717354,-0.49799395
5.0987816,4.6408677,-0.5674843,-1.4897057,-7.3426676,8.0445175,-5.717354,-0.49799395
5.0917916,4.6354113,-0.5642885,-1.4577477,-7.2766213,8.346188,-5.90889,-0.17238252
5.084785,4.629735,-0.5642885,-1.4577477,-7.2766213,8.346188,-5.90889,-0.17238252
5.077689,4.623879,-0.55683166,-1.4247246,-7.219097,8.566454,-6.133945,0.18195933
5.0709047,4.61806,-0.55683166,-1.4247246,-7.219097,8.566454,-6.133945,0.18195933
5.064,4.6119823,-0.54298323,-1.3917013,-7.1732907,8.690952,-6.3781533,0.22505496
5.0571632,4.6057186,-0.54298323,-1.3917013,-7.1732907,8.690952,-6.3781533,0.22505496
5.050344,4.599325,-0.52061266,-1.3597434,-7.1328106,8.461109,-6.7085533,0.51235914
5.043538,4.5926733,-0.52061266,-1.3597434,-7.1328106,8.461109,-6.7085533,0.51235914
5.0367928,4.585868,-0.48652422,-1.3373728,-7.0891347,8.087613,-7.0102224,0.59376204
5.03005,4.5787644,-0.48652422,-1.3373728,-7.0891347,8.087613,-7.0102224,0.59376204
5.023404,4.5714283,-0.44071785,-1.329916,-7.0273495,7.091625,-6.6175733,0.15322891
5.0167694,4.56377,-0.44071785,-1.329916,-7.0273495,7.091625,-6.6175733,0.15322891
5.010213,4.5558743,-0.39491147,-1.3480254,-6.9485197,8.1163435,-7.565677,1.2785037
5.0036755,4.547627,-0.39491147,-1.3480254,-6.9485197,8.1163435,-7.565677,1.2785037
4.9972687,4.538986,-0.33845246,-1.3789182,-6.84945,7.699753,-7.795521,0.90500826
4.9908843,4.5299506,-0.33845246,-1.3789182,-6.84945,7.699753,-7.795521,0.90500826
4.98467,4.520591,-0.2660145,-1.3980929,-6.7067046,7.747637,-7.3166804,0.6703765
4.9784803,4.5107937,-0.2660145,-1.3980929,-6.7067046,7.747637,-7.3166804,0.6703765
4.9724903,4.5006585,-0.19570702,-1.4183329,-6.5351973,7.675811,-7.2304893,0.5793968
4.966529,4.490044,-0.19570702,-1.4183329,-6.5351973,7.675811,-7.2304893,0.5793968
4.960726,4.478926,-0.13285641,-1.442834,-6.3477106,7.85777,-6.8665705,0.33518824
4.9551783,4.4677353,-0.13285641,-1.442834,-6.3477106,7.85777,-6.8665705,0.33518824
4.949712,4.4558587,-0.075332135,-1.4673351,-6.1453104,8.293514,-6.5696893,0.21547815
4.9441843,4.4431896,-0.075332135,-1.4673351,-6.1453104,8.293514,-6.5696893,0.21547815
4.938994,4.430351,-0.027395237,-1.4875752,-5.9365187,8.949526,-6.205771,0.11971009
4.9338226,4.416852,-0.027395237,-1.4875752,-5.9365187,8.949526,-6.205771,0.11971009
4.9285865,4.4021397,0.013084813,-1.4939667,-5.727727,9.504981,-5.5976434,0.090979666
4.923903,4.3882327,0.013084813,-1.4939667,-5.727727,9.504981,-5.5976434,0.090979666
4.9193807,4.3738766,0.049303804,-1.483314,-5.5253267,10.0029745,-5.0374002,-0.08140286
4.9148526,4.3587036,0.049303804,-1.483314,-5.5253267,10.0029745,-5.0374002,-0.08140286
4.910484,4.343159,0.08019647,-1.4513562,-5.332514,10.271125,-4.2904096,-0.22026655
4.90616,4.3268948,0.08019647,-1.4513562,-5.332514,10.271125,-4.2904096,-0.22026655
4.902021,4.310466,0.105762824,-1.3991581,-5.153549,10.309433,-3.6870706,-0.35434186
4.897992,4.2935467,0.105762824,-1.3991581,-5.153549,10.309433,-3.6870706,-0.35434186
4.89408,4.2763147,0.12387232,-1.325655,-4.987368,10.060435,-3.083732,-0.5315128
4.8902884,4.2586317,0.12387232,-1.325655,-4.987368,10.060435,-3.083732,-0.5315128
4.886637,4.240781,0.13559023,-1.2393686,-4.8254476,9.696517,-2.5330653,-0.7230489
4.883059,4.2222476,0.13559023,-1.2393686,-4.8254476,9.696517,-2.5330653,-0.7230489
4.8796387,4.2034616,0.1366555,-1.1424295,-4.665658,9.251195,-1.9919758,-1.0007763
4.876288,4.1839647,0.1366555,-1.1424295,-4.665658,9.251195,-1.9919758,-1.0007763
4.873057,4.16426,0.13239443,-1.0422946,-4.504803,8.671799,-1.6567876,-1.2449849
4.8699045,4.1438446,0.13239443,-1.0422946,-4.504803,8.671799,-1.6567876,-1.2449849
4.8668594,4.123401,0.119611256,-0.9378987,-4.3354263,8.173804,-1.2976574,-1.4939818
4.863892,4.1022243,0.119611256,-0.9378987,-4.3354263,8.173804,-1.2976574,-1.4939818
4.861058,4.081326,0.09830597,-0.8313722,-4.158592,7.52737,-1.067814,-1.6807296
4.858302,4.0596814,0.09830597,-0.8313722,-4.158592,7.52737,-1.067814,-1.6807296
4.855664,4.038331,0.07167436,-0.7280416,-3.9785626,7.0724716,-0.62249243,-1.9488802
4.8531,4.01624,0.07167436,-0.7280416,-3.9785626,7.0724716,-0.62249243,-1.9488802
4.8506737,3.994644,0.039716423,-0.628972,-3.7921412,6.7133417,-0.34476504,-2.1978772
4.8483133,3.9722683,0.039716423,-0.628972,-3.7921412,6.7133417,-0.34476504,-2.1978772
4.8460865,3.95048,0.0024321685,-0.536294,-3.6089158,6.50744,-0.047884032,-2.4037786
4.8439255,3.9279666,0.0024321685,-0.536294,-3.6089158,6.50744,-0.047884032,-2.4037786
4.8418827,3.906028,-0.03804788,-0.45213807,-3.436343,6.4739213,0.29209262,-2.504335
4.8399043,3.883358,-0.03804788,-0.45213807,-3.436343,6.4739213,0.29209262,-2.504335
4.838022,3.8612049,-0.08065846,-0.37756956,-3.2818797,6.6175733,0.6512229,-2.3558946
4.8362045,3.8383713,-0.08065846,-0.37756956,-3.2818797,6.6175733,0.6512229,-2.3558946
4.834471,3.8159404,-0.1275301,-0.31045792,-3.1529825,6.7229185,0.89064306,-2.3750482
4.8328,3.7928555,-0.1275301,-0.31045792,-3.1529825,6.7229185,0.89064306,-2.3750482
4.831169,3.7698317,-0.1722712,-0.24228097,-3.0592394,6.6654577,1.1731589,-2.1883004
4.828705,3.7318573,-0.1722712,-0.24228097,-3.0592394,6.6654577,1.1731589,-2.1883004
4.827256,3.70844,-0.21594705,-0.18049563,-3.0006497,6.3206925,1.4317327,-2.2218192
4.8266325,3.6978064,-0.21594705,-0.18049563,-3.0006497,6.3206925,1.4317327,-2.2218192
4.8252563,3.674106,-0.2596229,-0.12829769,-2.9708223,5.923255,1.4987702,-2.255338
4.823931,3.6495152,-0.2596229,-0.12829769,-2.9708223,5.923255,1.4987702,-2.255338
4.8226423,3.6244318,-0.30010295,-0.08781763,-2.961235,5.439626,1.4939818,-2.3989902
4.821431,3.598882,-0.30010295,-0.08781763,-2.961235,5.439626,1.4939818,-2.3989902
4.820262,3.5726402,-0.3373872,-0.059055492,-2.965496,4.8841715,1.2976574,-2.4277205
4.819165,3.5457673,-0.3373872,-0.059055492,-2.965496,4.8841715,1.2976574,-2.4277205
4.8181453,3.5185587,-0.37147567,-0.044141788,-2.9772139,4.4005427,1.0534488,-2.4468741
4.817204,3.490793,-0.37147567,-0.044141788,-2.9772139,4.4005427,1.0534488,-2.4468741
4.816347,3.4624953,-0.39810726,-0.044141788,-2.9899971,3.8163576,0.81402856,-2.360683
4.8155746,3.4337583,-0.39810726,-0.044141788,-2.9899971,3.8163576,0.81402856,-2.360683
4.814907,3.4045599,-0.41941255,-0.060120758,-3.0006497,3.3039982,0.58418524,-2.3127987
4.8143234,3.3748326,-0.41941255,-0.060120758,-3.0006497,3.3039982,0.58418524,-2.3127987
4.813872,3.345029,-0.43432626,-0.095274486,-3.0006497,2.8299465,0.29209262,-2.0829554
4.8135095,3.3149028,-0.43432626,-0.095274486,-3.0006497,2.8299465,0.29209262,-2.0829554
4.813301,3.2850614,-0.44284838,-0.15066823,-2.993193,2.5474305,0.047884032,-1.9009962
4.81318,3.2549171,-0.44284838,-0.15066823,-2.993193,2.5474305,0.047884032,-1.9009962
4.8132234,3.2249038,-0.44604418,-0.21991043,-2.9750834,2.3942018,-0.06703765,-1.8531121
4.8133554,3.1949775,-0.44604418,-0.21991043,-2.9750834,2.3942018,-0.06703765,-1.8531121
4.8136563,3.1654792,-0.4449789,-0.29980525,-2.945256,2.336741,-0.19632454,-1.7286136
4.814043,3.136243,-0.4449789,-0.29980525,-2.945256,2.336741,-0.19632454,-1.7286136
4.814599,3.1077497,-0.44071785,-0.38715693,-2.90158,2.4899697,-0.2681506,-1.6663644
4.8152366,3.0795908,-0.44071785,-0.38715693,-2.90158,2.4899697,-0.2681506,-1.6663644
4.8160305,3.0524783,-0.433261,-0.47344336,-2.8493822,2.657564,-0.37828386,-1.6136919
4.816901,3.0258007,-0.433261,-0.47344336,-2.8493822,2.657564,-0.37828386,-1.6136919
4.8179092,3.000288,-0.4236736,-0.55333817,-2.7897274,2.920926,-0.41180268,-1.6041151
4.818984,2.9752777,-0.4236736,-0.55333817,-2.7897274,2.920926,-0.41180268,-1.6041151
4.820175,2.9515913,-0.4119557,-0.62364566,-2.7258115,3.347094,-0.50757074,-1.541866
4.8214226,2.9284384,-0.4119557,-0.62364566,-2.7258115,3.347094,-0.50757074,-1.541866
4.8227634,2.9066844,-0.397042,-0.6875615,-2.659765,3.9121256,-0.6464345,-1.4700398
4.824152,2.885466,-0.397042,-0.6875615,-2.659765,3.9121256,-0.6464345,-1.4700398
4.8256216,2.8654447,-0.3789325,-0.7386942,-2.5979798,4.4723687,-0.61770403,-1.4891934
4.8271317,2.8459482,-0.3789325,-0.7386942,-2.5979798,4.4723687,-0.61770403,-1.4891934
4.828695,2.827622,-0.35975775,-0.77704376,-2.5415208,4.7979803,-0.6368576,-1.3694834
4.830293,2.8097913,-0.35975775,-0.77704376,-2.5415208,4.7979803,-0.6368576,-1.3694834
4.831911,2.7930903,-0.3395177,-0.80793643,-2.4925187,5.12838,-0.7469909,-1.13964
4.8335605,2.7768412,-0.3395177,-0.80793643,-2.4925187,5.12838,-0.7469909,-1.13964
4.8352156,2.7615323,-0.3160819,-0.83350277,-2.4477775,5.3103395,-0.7757214,-0.90500826
4.836899,2.74663,-0.3160819,-0.83350277,-2.4477775,5.3103395,-0.7757214,-0.90500826
4.8386006,2.7325397,-0.29051554,-0.85480803,-2.4030364,5.439626,-0.8283938,-0.8714894
4.840291,2.7190955,-0.29051554,-0.85480803,-2.4030364,5.439626,-0.8283938,-0.8714894
4.842037,2.7061589,-0.26388395,-0.87611336,-2.3561647,5.473145,-0.8331822,-0.8810662
4.8438425,2.693303,-0.26388395,-0.87611336,-2.3561647,5.473145,-0.8331822,-0.8810662
4.84562,2.6814609,-0.23618707,-0.8995491,-2.2997057,5.6551046,-0.8810662,-0.80924016
4.8473907,2.6700764,-0.23618707,-0.8995491,-2.2997057,5.6551046,-0.8810662,-0.80924016
4.849186,2.659423,-0.2084902,-0.9219197,-2.2304635,5.722142,-0.82360536,-0.81402856
4.850999,2.6490126,-0.2084902,-0.9219197,-2.2304635,5.722142,-0.82360536,-0.81402856
4.8527937,2.6395159,-0.18185858,-0.9421597,-2.1463077,5.90889,-0.842759,-0.81402856
4.8545976,2.6302657,-0.18185858,-0.9421597,-2.1463077,5.90889,-0.842759,-0.81402856
4.8563843,2.6219373,-0.15842277,-0.9645303,-2.047238,5.9759274,-0.7278373,-0.81881696
4.8581815,2.6137948,-0.15842277,-0.9645303,-2.047238,5.9759274,-0.7278373,-0.81881696
4.8599453,2.6065962,-0.13285641,-0.9826398,-1.9321895,6.1530986,-0.5793968,-0.82360536
4.861713,2.599571,-0.13285641,-0.9826398,-1.9321895,6.1530986,-0.5793968,-0.82360536
4.8634596,2.5934834,-0.11261639,-0.9911619,-1.8064883,6.3829417,-0.25378537,-0.9720459
4.865202,2.5875666,-0.11261639,-0.9911619,-1.8064883,6.3829417,-0.25378537,-0.9720459
4.866867,2.5825553,-0.09663743,-0.99222714,-1.6690692,6.5361705,-0.14844051,-0.9576807
4.868576,2.5775223,-0.09663743,-0.99222714,-1.6690692,6.5361705,-0.14844051,-0.9576807
4.8701487,2.5735557,-0.08385425,-0.98157454,-1.5231279,6.7324953,0.10055647,-1.0151415
4.87174,2.5696154,-0.08385425,-0.98157454,-1.5231279,6.7324953,0.10055647,-1.0151415
4.873948,2.5650406,-0.075332135,-0.9623997,-1.3707951,6.919243,0.31603462,-1.0247183
4.8749495,2.5630016,-0.075332135,-0.9623997,-1.3707951,6.919243,0.31603462,-1.0247183
4.8763013,2.5607421,-0.06894055,-0.93257236,-1.213136,7.129933,0.51235914,-1.1300632
4.8777776,2.5583308,-0.06894055,-0.93257236,-1.213136,7.129933,0.51235914,-1.1300632
4.8793025,2.5559895,-0.06894055,-0.8952881,-1.0533463,7.350199,0.7326257,-1.2018893
4.8806205,2.554012,-0.06894055,-0.8952881,-1.0533463,7.350199,0.7326257,-1.2018893
4.8819885,2.5521214,-0.07107108,-0.8526775,-0.8946219,7.5944076,0.89064306,-1.2354081
4.8832293,2.5504313,-0.07107108,-0.8526775,-0.8946219,7.5944076,0.89064306,-1.2354081
4.884402,2.5488317,-0.077462666,-0.8026101,-0.7390933,7.824251,1.0055647,-1.1731589
4.885576,2.5472379,-0.077462666,-0.8026101,-0.7390933,7.824251,1.0055647,-1.1731589
4.8866386,2.5464063,-0.08491952,-0.75147736,-0.588891,7.9726915,0.9959879,-1.2641385
4.8877034,2.5455723,-0.08491952,-0.75147736,-0.588891,7.9726915,0.9959879,-1.2641385
4.888603,2.5449176,-0.093441635,-0.6982142,-0.44721085,8.0924015,1.0486604,-1.1731589
4.8895016,2.5442593,-0.093441635,-0.6982142,-0.44721085,8.0924015,1.0486604,-1.1731589
4.8902884,2.5440717,-0.09983322,-0.6470815,-0.3140528,8.145074,1.115698,-1.1971009
4.8910723,2.5438783,-0.09983322,-0.6470815,-0.3140528,8.145074,1.115698,-1.1971009
4.891743,2.5440896,-0.106224805,-0.6012751,-0.19048211,8.178593,1.2354081,-1.1875241
4.892413,2.5442955,-0.106224805,-0.6012751,-0.19048211,8.178593,1.2354081,-1.1875241
4.8929796,2.5448532,-0.1094206,-0.5586645,-0.07969461,8.202535,1.2018893,-1.1827357
4.8935456,2.5454078,-0.1094206,-0.5586645,-0.07969461,8.202535,1.2018893,-1.1827357
4.89404,2.5463257,-0.108355336,-0.51924974,0.019374989,8.030152,1.3311762,-1.2114661
4.894534,2.5472338,-0.108355336,-0.51924974,0.019374989,8.030152,1.3311762,-1.2114661
4.8949523,2.5484407,-0.106224805,-0.48303074,0.10779194,7.848193,1.3503298,-1.2018893
4.895362,2.549613,-0.106224805,-0.48303074,0.10779194,7.848193,1.3503298,-1.2018893
4.8957253,2.5511172,-0.104094274,-0.4542686,0.1866215,7.61835,1.4030021,-1.2354081
4.8960934,2.552649,-0.104094274,-0.4542686,0.1866215,7.61835,1.4030021,-1.2354081
4.8964033,2.5544395,-0.09876795,-0.4329633,0.26012474,7.3406224,1.460463,-1.2449849
4.8967113,2.5562098,-0.09876795,-0.4329633,0.26012474,7.3406224,1.460463,-1.2449849
4.896966,2.5582478,-0.093441635,-0.41378856,0.33149746,7.1826053,1.4748282,-1.2162545
4.897219,2.5602834,-0.093441635,-0.41378856,0.33149746,7.1826053,1.4748282,-1.2162545
4.8974395,2.5626717,-0.089180574,-0.4010054,0.40180492,7.0724716,1.5131354,-1.3311762
4.8976583,2.565053,-0.089180574,-0.4010054,0.40180492,7.0724716,1.5131354,-1.3311762
4.89783,2.5676737,-0.08598478,-0.391418,0.4689166,6.8665705,1.4413095,-1.2497733
4.898003,2.570282,-0.08598478,-0.391418,0.4689166,6.8665705,1.4413095,-1.2497733
4.8981495,2.573262,-0.08172372,-0.38715693,0.5338977,6.6415157,1.4939818,-1.3503298
4.898297,2.576247,-0.08172372,-0.38715693,0.5338977,6.6415157,1.4939818,-1.3503298
4.8984127,2.579595,-0.077462666,-0.38502643,0.6020746,6.469133,1.5227122,-1.4652514
4.8985324,2.5829558,-0.077462666,-0.38502643,0.6020746,6.469133,1.5227122,-1.4652514
4.898633,2.5872889,-0.07426687,-0.38609168,0.6723821,6.349423,1.3934253,-1.4173675
4.898707,2.5903363,-0.07426687,-0.38609168,0.6723821,6.349423,1.3934253,-1.4173675
4.8987627,2.5942402,-0.07000581,-0.39035273,0.74055904,6.3206925,1.2785037,-1.3311762
4.898822,2.5981889,-0.07000581,-0.39035273,0.74055904,6.3206925,1.2785037,-1.3311762
4.89886,2.6025794,-0.06574476,-0.39887485,0.8098012,6.38773,1.2066777,-1.4173675
4.898902,2.606986,-0.06574476,-0.39887485,0.8098012,6.38773,1.2066777,-1.4173675
4.89892,2.6119163,-0.060418434,-0.40739697,0.88010865,6.469133,0.9911995,-1.4652514
4.8989415,2.61684,-0.060418434,-0.40739697,0.88010865,6.469133,0.9911995,-1.4652514
4.8989415,2.6221764,-0.050831053,-0.41698435,0.9482856,6.5840545,0.8283938,-1.3551182
4.8989477,2.6275005,-0.050831053,-0.41698435,0.9482856,6.5840545,0.8283938,-1.3551182
4.8989153,2.633518,-0.039113145,-0.42976752,1.0153973,6.679823,0.6368576,-1.3599066
4.898893,2.6395056,-0.039113145,-0.42976752,1.0153973,6.679823,0.6368576,-1.3599066
4.898798,2.6462414,-0.024199443,-0.44468123,1.0835742,6.789956,0.47405192,-1.2689269
4.898713,2.653011,-0.024199443,-0.44468123,1.0835742,6.789956,0.47405192,-1.2689269
4.898532,2.660239,-0.0050246827,-0.46172544,1.1517512,6.9000893,0.20111294,-1.1827357
4.8983593,2.6674852,-0.0050246827,-0.46172544,1.1517512,6.9000893,0.20111294,-1.1827357
4.8981795,2.6751516,0.016280606,-0.48303074,1.2220585,7.0581064,0.08140286,-1.2066777
4.89801,2.682831,0.016280606,-0.48303074,1.2220585,7.0581064,0.08140286,-1.2066777
4.8978276,2.6909084,0.039716423,-0.50966233,1.2944965,7.1155677,-0.019153614,-1.1444284
4.897658,2.6990051,0.039716423,-0.50966233,1.2944965,7.1155677,-0.019153614,-1.1444284
4.897476,2.7074869,0.06315224,-0.536294,1.3743913,7.302315,-0.20111294,-1.0486604
4.8973083,2.716014,0.06315224,-0.536294,1.3743913,7.302315,-0.20111294,-1.0486604
4.89715,2.7250962,0.08552279,-0.5629256,1.4628084,7.517793,-0.35434186,-1.1300632
4.897007,2.7341712,0.08552279,-0.5629256,1.4628084,7.517793,-0.35434186,-1.1300632
4.896867,2.7438936,0.104697555,-0.58529615,1.5640085,7.6135616,-0.4405331,-1.2018893
4.8967423,2.7536087,0.104697555,-0.58529615,1.5640085,7.6135616,-0.4405331,-1.2018893
4.8966174,2.7639568,0.119611256,-0.5980793,1.6737307,7.7189064,-0.5602432,-1.3072342
4.896513,2.7743163,0.119611256,-0.5980793,1.6737307,7.7189064,-0.5602432,-1.3072342
4.8963985,2.7853084,0.12919864,-0.60553616,1.791975,7.881712,-0.6512229,-1.3934253
4.896306,2.7963345,0.12919864,-0.60553616,1.791975,7.881712,-0.6512229,-1.3934253
4.896209,2.8080347,0.13452496,-0.60553616,1.9198067,8.010999,-0.6368576,-1.541866
4.8961353,2.8197224,0.13452496,-0.60553616,1.9198067,8.010999,-0.6368576,-1.541866
4.896041,2.8321452,0.1366555,-0.5991446,2.0561607,8.264784,-0.6560113,-1.6089035
4.895975,2.8445663,0.1366555,-0.5991446,2.0561607,8.264784,-0.6560113,-1.6089035
4.895904,2.8576977,0.13985129,-0.592753,2.1957102,8.595184,-0.6895301,-1.7717092
4.8958635,2.870877,0.13985129,-0.592753,2.1957102,8.595184,-0.6895301,-1.7717092
4.8958054,2.884722,0.1451776,-0.5863614,2.330999,8.959103,-0.7086837,-1.7669208
4.8957825,2.8985865,0.1451776,-0.5863614,2.330999,8.959103,-0.7086837,-1.7669208
4.895745,2.9131181,0.15583025,-0.58210033,2.4588306,9.461885,-0.7326257,-1.733402
4.8957467,2.9276516,0.15583025,-0.58210033,2.4588306,9.461885,-0.7326257,-1.733402
4.8957443,2.942742,0.16967869,-0.5799698,2.5685527,10.25676,-0.641646,-1.7429788
4.8957853,2.957826,0.16967869,-0.5799698,2.5685527,10.25676,-0.641646,-1.7429788
4.8958135,2.9732096,0.18672292,-0.57783926,2.6527088,11.180922,-0.4213795,-1.6328455
4.8958845,2.988541,0.18672292,-0.57783926,2.6527088,11.180922,-0.4213795,-1.6328455
4.895956,3.003788,0.20589767,-0.5650561,2.694254,12.157756,-0.19632454,-1.3742718
4.896071,3.0190163,0.20589767,-0.5650561,2.694254,12.157756,-0.19632454,-1.3742718
4.896215,3.0349355,0.22187665,-0.5416203,2.6867971,12.670115,0.23463176,-1.0199299
4.8963785,3.04875,0.22187665,-0.5416203,2.6867971,12.670115,0.23463176,-1.0199299
4.896563,3.0631554,0.23572509,-0.50646657,2.633534,12.756307,0.45968673,-0.81402856
4.8967867,3.0775325,0.23572509,-0.50646657,2.633534,12.756307,0.45968673,-0.81402856
4.8970213,3.0913403,0.24957353,-0.47131285,2.5472476,12.765883,0.770933,-0.6464345
4.8972907,3.1051023,0.24957353,-0.47131285,2.5472476,12.765883,0.770933,-0.6464345
4.8975744,3.1181743,0.2655525,-0.44468123,2.4396558,12.464214,0.9911995,-0.6512229
4.89789,3.1312106,0.2655525,-0.44468123,2.4396558,12.464214,0.9911995,-0.6512229
4.898221,3.1435652,0.2804662,-0.42657173,2.3256726,12.066776,1.0007763,-0.79487497
4.8985806,3.1558797,0.2804662,-0.42657173,2.3256726,12.066776,1.0007763,-0.79487497
4.898959,3.1674893,0.29324937,-0.41698435,2.2170155,11.731588,1.0342951,-1.0007763
4.8993635,3.179068,0.29324937,-0.41698435,2.2170155,11.731588,1.0342951,-1.0007763
4.899793,3.189992,0.30496728,-0.4148538,2.1211417,11.243171,1.0295067,-1.2162545
4.9002447,3.2008715,0.30496728,-0.4148538,2.1211417,11.243171,1.0295067,-1.2162545
4.900716,3.2112818,0.30816308,-0.41698435,2.0444427,10.840945,0.8858546,-1.2880806
4.90121,3.2216353,0.30816308,-0.41698435,2.0444427,10.840945,0.8858546,-1.2880806
4.9017363,3.2317953,0.3070978,-0.42018014,1.9911795,10.524911,0.79008657,-1.4269443
4.9022636,3.2415392,0.3070978,-0.42018014,1.9911795,10.524911,0.79008657,-1.4269443
4.9028254,3.251105,0.3017715,-0.42337593,1.9602869,10.199299,0.7182605,-1.5610195
4.9034085,3.2606504,0.3017715,-0.42337593,1.9602869,10.199299,0.7182605,-1.5610195
4.903998,3.270087,0.29431462,-0.42337593,1.9453732,9.9550905,0.62249243,-1.4700398
4.904606,3.2794812,0.29431462,-0.42337593,1.9453732,9.9550905,0.62249243,-1.4700398
4.905225,3.2888367,0.28472725,-0.4191149,1.9496342,9.753978,0.51714754,-1.4700398
4.905862,3.29812,0.28472725,-0.4191149,1.9496342,9.753978,0.51714754,-1.4700398
4.9065104,3.3074813,0.27620512,-0.4148538,1.97307,9.648633,0.44532153,-1.436521
4.907175,3.316767,0.27620512,-0.4148538,1.97307,9.648633,0.44532153,-1.436521
4.9078546,3.3262198,0.26981354,-0.40846223,2.0082238,9.586384,0.37828386,-1.3934253
4.90855,3.3355925,0.26981354,-0.40846223,2.0082238,9.586384,0.37828386,-1.3934253
4.909258,3.3451734,0.26448724,-0.3978096,2.0540302,9.519346,0.272939,-1.3694834
4.9099836,3.3546693,0.26448724,-0.3978096,2.0540302,9.519346,0.272939,-1.3694834
4.9107184,3.364493,0.25809565,-0.38609168,2.106228,9.562442,0.11971009,-1.2641385
4.9114733,3.3742344,0.25809565,-0.38609168,2.106228,9.562442,0.11971009,-1.2641385
4.9122477,3.3843296,0.25489986,-0.37543905,2.1637523,9.543288,-0.10534488,-1.2162545
4.9130425,3.394344,0.25489986,-0.37543905,2.1637523,9.543288,-0.10534488,-1.2162545
4.913866,3.4047697,0.25383458,-0.3647864,2.223407,9.624691,-0.4213795,-1.1923125
4.914709,3.4150853,0.25383458,-0.3647864,2.223407,9.624691,-0.4213795,-1.1923125
4.915593,3.4257903,0.25383458,-0.35413375,2.283062,9.701305,-0.7278373,-1.1444284
4.9164977,3.4363887,0.25383458,-0.35413375,2.283062,9.701305,-0.7278373,-1.1444284
4.917457,3.4473546,0.2559651,-0.3466769,2.3459125,9.787497,-1.13964,-1.1013328
4.91844,3.4582195,0.2559651,-0.3466769,2.3459125,9.787497,-1.13964,-1.1013328
4.919479,3.469348,0.2623567,-0.3434811,2.4108937,9.878476,-1.541866,-1.0486604
4.9205422,3.4803698,0.2623567,-0.3434811,2.4108937,9.878476,-1.541866,-1.0486604
4.92167,3.4916391,0.27087882,-0.34561163,2.4790707,9.873688,-1.9393034,-1.0199299
4.922824,3.502795,0.27087882,-0.34561163,2.4790707,9.873688,-1.9393034,-1.0199299
4.924049,3.5141768,0.283662,-0.35306847,2.5547044,9.849746,-2.255338,-1.0342951
4.925298,3.5254133,0.283662,-0.35306847,2.5547044,9.849746,-2.255338,-1.0342951
4.926632,3.5369334,0.3007062,-0.36372113,2.6441865,9.787497,-2.566584,-1.1013328
4.927994,3.5483203,0.3007062,-0.36372113,2.6441865,9.787497,-2.566584,-1.1013328
4.92944,3.5599897,0.3188157,-0.37437376,2.750713,9.701305,-2.896984,-1.091756
4.930917,3.5715265,0.3188157,-0.37437376,2.750713,9.701305,-2.896984,-1.091756
4.9324865,3.5834022,0.33799046,-0.3828959,2.8742838,9.730036,-3.1172507,-1.1013328
4.9340835,3.5951085,0.33799046,-0.3828959,2.8742838,9.730036,-3.1172507,-1.1013328
4.9357796,3.6072018,0.36249155,-0.38609168,3.012768,9.619903,-3.2848446,-1.1348516
4.937514,3.6191607,0.36249155,-0.38609168,3.012768,9.619903,-3.2848446,-1.1348516
4.939522,3.6326895,0.38699263,-0.3828959,3.1682968,9.490616,-3.5434184,-1.091756
4.9412527,3.6439457,0.38699263,-0.3828959,3.1682968,9.490616,-3.5434184,-1.091756
4.9431887,3.6563709,0.41682005,-0.37117797,3.3430002,9.370906,-3.7014358,-1.0247183
4.94516,3.6685905,0.41682005,-0.37117797,3.3430002,9.370906,-3.7014358,-1.0247183
4.9472775,3.681531,0.44877797,-0.35413375,3.5294213,9.23683,-3.892972,-0.93852705
4.9494762,3.6944926,0.44877797,-0.35413375,3.5294213,9.23683,-3.892972,-0.93852705
4.951768,3.7077703,0.48499697,-0.334959,3.7286258,9.150639,-4.1515455,-0.8762778
4.954088,3.7207327,0.48499697,-0.334959,3.7286258,9.150639,-4.1515455,-0.8762778
4.9565578,3.7343125,0.52441174,-0.31152317,3.934222,9.11712,-4.3861775,-0.79008657
4.9592447,3.748528,0.52441174,-0.31152317,3.934222,9.11712,-4.3861775,-0.79008657
4.9592447,3.748528,0.56915283,-0.2838263,4.1430135,9.02614,-4.6495395,-0.6895301
4.964605,3.7758446,0.56915283,-0.2838263,4.1430135,9.02614,-4.6495395,-0.6895301
4.9679365,3.7921443,0.6202856,-0.25186837,4.3560667,8.901642,-4.9176903,-0.6799533
4.9702187,3.802896,0.6202856,-0.25186837,4.3560667,8.901642,-4.9176903,-0.6799533
4.9733324,3.8173282,0.6767446,-0.21991043,4.5691195,8.738836,-5.195418,-0.62728083
4.977051,3.8338308,0.6767446,-0.21991043,4.5691195,8.738836,-5.195418,-0.62728083
4.9795713,3.8447926,0.7385299,-0.18688722,4.782172,8.647857,-5.530606,-0.5410896
4.982884,3.8587008,0.7385299,-0.18688722,4.782172,8.647857,-5.530606,-0.5410896
4.986289,3.8726673,0.80670685,-0.1517335,4.9962907,8.42759,-5.8322754,-0.63206923
4.989806,3.886542,0.80670685,-0.1517335,4.9962907,8.42759,-5.8322754,-0.63206923
4.9935064,3.900784,0.87807953,-0.11657977,5.2093434,8.054094,-6.167464,-0.641646
4.9972644,3.9146752,0.87807953,-0.11657977,5.2093434,8.054094,-6.167464,-0.641646
5.0012035,3.9288554,0.9515828,-0.08355658,5.4202657,7.704541,-6.4643445,-0.6847417
5.005197,3.9426608,0.9515828,-0.08355658,5.4202657,7.704541,-6.4643445,-0.6847417
5.0093813,3.9567153,1.0282818,-0.05372917,5.632253,7.383718,-6.742072,-0.80445176
5.0136313,3.9704268,1.0282818,-0.05372917,5.632253,7.383718,-6.742072,-0.80445176
5.0180526,3.9842715,1.1071115,-0.028162822,5.83998,7.1395097,-7.0006456,-0.7757214
5.022531,3.997744,1.1071115,-0.028162822,5.83998,7.1395097,-7.0006456,-0.7757214
5.027217,4.0113897,1.185941,-0.008988062,6.044511,6.8522053,-7.28795,-0.80924016
5.031946,4.0246186,1.185941,-0.008988062,6.044511,6.8522053,-7.28795,-0.80924016
5.036997,4.038283,1.2679664,0.0069909045,6.24265,6.5840545,-7.541735,-0.81881696
5.041873,4.050954,1.2679664,0.0069909045,6.24265,6.5840545,-7.541735,-0.81881696
5.0470514,4.0639567,1.3510569,0.01551302,6.4343977,6.4260373,-7.7428484,-0.8619126
5.0522866,4.0765896,1.3510569,0.01551302,6.4343977,6.4260373,-7.7428484,-0.8619126
5.0577154,4.0892334,1.4373434,0.019774077,6.6208186,6.277597,-7.920019,-0.93852705
5.063199,4.101513,1.4373434,0.019774077,6.6208186,6.277597,-7.920019,-0.93852705
5.068879,4.113777,1.524695,0.018708814,6.798718,6.0381765,-8.101978,-1.0055647
5.074607,4.1256733,1.524695,0.018708814,6.798718,6.0381765,-8.101978,-1.0055647
5.080529,4.1375303,1.6120467,0.011251962,6.963834,6.0285997,-8.255207,-1.0151415
5.086484,4.149007,1.6120467,0.011251962,6.963834,6.0285997,-8.255207,-1.0151415
5.092627,4.160405,1.6993984,-0.0015312112,7.1161666,5.841852,-8.365341,-1.1492168
5.098689,4.1712427,1.6993984,-0.0015312112,7.1161666,5.841852,-8.365341,-1.1492168
5.1050506,4.182191,1.789946,-0.021771235,7.257847,5.755661,-8.39886,-1.3024458
5.1115875,4.193031,1.789946,-0.021771235,7.257847,5.755661,-8.39886,-1.3024458
5.11816,4.203498,1.8794281,-0.050533377,7.3878093,5.6215854,-8.389283,-1.5370775
5.124737,4.213604,1.8794281,-0.050533377,7.3878093,5.6215854,-8.389283,-1.5370775
5.1315136,4.223599,1.9678451,-0.08675237,7.503923,5.530606,-8.470686,-1.8435353
5.1383524,4.2333384,1.9678451,-0.08675237,7.503923,5.530606,-8.470686,-1.8435353
5.145297,4.2428303,2.0541315,-0.13149348,7.6061883,5.511452,-8.451532,-1.9919758
5.1522803,4.252057,2.0541315,-0.13149348,7.6061883,5.511452,-8.451532,-1.9919758
5.1593866,4.2610583,2.1361568,-0.18262617,7.6956706,5.521029,-8.465898,-2.2505496
5.1665497,4.269839,2.1361568,-0.18262617,7.6956706,5.521029,-8.465898,-2.2505496
5.173892,4.2784467,2.2149863,-0.24441151,7.773435,5.631162,-8.384495,-2.566584
5.1811733,4.2867155,2.2149863,-0.24441151,7.773435,5.631162,-8.384495,-2.566584
5.1885915,4.2947636,2.2852938,-0.3136537,7.838416,5.8801594,-8.384495,-2.906561
5.19598,4.302539,2.2852938,-0.3136537,7.838416,5.8801594,-8.384495,-2.906561
5.203536,4.310138,2.3492098,-0.391418,7.8884835,6.3925185,-8.379706,-3.0023289
5.2110977,4.317522,2.3492098,-0.391418,7.8884835,6.3925185,-8.379706,-3.0023289
5.2187304,4.3246317,2.4046035,-0.4755739,7.918311,6.9048777,-8.389283,-3.1842883
5.2263894,4.3315673,2.4046035,-0.4755739,7.918311,6.9048777,-8.389283,-3.1842883
5.2340956,4.33823,2.454671,-0.56079507,7.925768,7.393295,-8.389283,-3.3087866
5.2418246,4.344735,2.454671,-0.56079507,7.925768,7.393295,-8.389283,-3.3087866
5.249579,4.3509755,2.5026078,-0.6460162,7.9055276,7.8146744,-8.422802,-3.442862
5.2573695,4.357086,2.5026078,-0.6460162,7.9055276,7.8146744,-8.422802,-3.442862
5.2651258,4.3629036,2.5441532,-0.7323026,7.8671784,8.169016,-8.312668,-3.53863
5.2729006,4.3685937,2.5441532,-0.7323026,7.8671784,8.169016,-8.312668,-3.53863
5.280662,4.374031,2.584633,-0.8175238,7.8085885,8.470686,-8.307879,-3.739743
5.2884398,4.3793573,2.584633,-0.8175238,7.8085885,8.470686,-8.307879,-3.739743
5.2961583,4.384437,2.6229827,-0.8974186,7.729759,8.724471,-8.183381,-3.7445314
5.303891,4.3894186,2.6229827,-0.8974186,7.729759,8.724471,-8.183381,-3.7445314
5.3115635,4.3941793,2.6581364,-0.97411764,7.6392117,9.083601,-8.130709,-3.7349546
5.3192406,4.398848,2.6581364,-0.97411764,7.6392117,9.083601,-8.130709,-3.7349546
5.3268566,4.403332,2.6911597,-1.0412294,7.543338,9.380483,-8.1402855,-3.667917
5.3344603,4.407726,2.6911597,-1.0412294,7.543338,9.380483,-8.1402855,-3.667917
5.3419867,4.411952,2.7231176,-1.0976883,7.443203,9.859323,-8.087613,-3.5817258
5.3495126,4.4161057,2.7231176,-1.0976883,7.443203,9.859323,-8.087613,-3.5817258
5.3569574,4.4201336,2.7518797,-1.1381683,7.3409376,9.797073,-8.111555,-3.4763808
5.3644013,4.4240956,2.7518797,-1.1381683,7.3409376,9.797073,-8.111555,-3.4763808
5.371741,4.4279394,2.777446,-1.1669306,7.233346,9.816227,-7.991845,-3.466804
5.379077,4.431725,2.777446,-1.1669306,7.233346,9.816227,-7.991845,-3.466804
5.386327,4.4354196,2.7998166,-1.1882358,7.1342764,9.255983,-7.929596,-3.8307228
5.3935738,4.4390635,2.7998166,-1.1882358,7.1342764,9.255983,-7.929596,-3.8307228
5.400757,4.442639,2.816861,-1.2052801,7.0458593,8.504205,-7.9726915,-4.003105
5.4079375,4.4461675,2.816861,-1.2052801,7.0458593,8.504205,-7.9726915,-4.003105
5.4150724,4.44964,2.825383,-1.221259,6.9723563,8.336611,-8.288726,-3.691859
5.4222045,4.4530687,2.825383,-1.221259,6.9723563,8.336611,-8.288726,-3.691859
5.4292755,4.4564133,2.833905,-1.2468253,6.916962,8.944737,-8.327033,-3.53863
5.4363422,4.459719,2.833905,-1.2468253,6.916962,8.944737,-8.327033,-3.53863
5.4433584,4.4629564,2.845623,-1.2723917,6.8700905,9.26556,-8.384495,-3.3854012
5.450369,4.466158,2.845623,-1.2723917,6.8700905,9.26556,-8.384495,-3.3854012
5.4573345,4.469313,2.861602,-1.2905012,6.82535,9.428367,-8.504205,-3.2321723
5.4642925,4.472437,2.861602,-1.2905012,6.82535,9.428367,-8.504205,-3.2321723
5.4711857,4.4755235,2.877581,-1.3000885,6.781674,9.706094,-8.561666,-3.0262709
5.4780693,4.4785833,2.877581,-1.3000885,6.781674,9.706094,-8.561666,-3.0262709
5.4848914,4.481624,2.89356,-1.2990233,6.7316065,9.677363,-8.508993,-2.96881
5.4917054,4.4846416,2.89356,-1.2990233,6.7316065,9.677363,-8.508993,-2.96881
5.498466,4.4876485,2.9074082,-1.2883707,6.6794086,9.586384,-8.576031,-2.906561
5.505219,4.490635,2.9074082,-1.2883707,6.6794086,9.586384,-8.576031,-2.906561
5.511945,4.4936132,2.9201915,-1.2723917,6.629341,9.174581,-8.599973,-2.9257145
5.5187163,4.4965944,2.9201915,-1.2723917,6.629341,9.174581,-8.599973,-2.9257145
5.5260043,4.4998207,2.9329746,-1.2521517,6.5899262,8.944737,-8.619126,-2.9496565
5.5321946,4.5025454,2.9329746,-1.2521517,6.5899262,8.944737,-8.619126,-2.9496565
5.538715,4.505431,2.9468231,-1.2287159,6.562229,8.66701,-8.772355,-2.906561
5.545361,4.5083575,2.9468231,-1.2287159,6.562229,8.66701,-8.772355,-2.906561
5.552018,4.511303,2.9606717,-1.2031496,6.549446,8.341399,-8.868123,-2.9496565
5.5586743,4.514232,2.9606717,-1.2031496,6.549446,8.341399,-8.868123,-2.9496565
5.565332,4.5171757,2.97452,-1.1786485,6.553707,8.101978,-8.978256,-2.9592333
5.572009,4.520112,2.97452,-1.1786485,6.553707,8.101978,-8.978256,-2.9592333
5.5786376,4.5230594,2.990499,-1.1520169,6.569686,8.461109,-8.916007,-2.9975405
5.5852733,4.5259967,2.990499,-1.1520169,6.569686,8.461109,-8.916007,-2.9975405
5.591926,4.5289645,3.0086086,-1.1211241,6.5941873,8.394072,-8.963891,-2.9496565
5.598587,4.5319223,3.0086086,-1.1211241,6.5941873,8.394072,-8.963891,-2.9496565
5.6052356,4.5349135,3.0245874,-1.0838399,6.621884,8.532935,-8.963891,-2.8060043
5.6118793,4.5378895,3.0245874,-1.0838399,6.621884,8.532935,-8.963891,-2.8060043
5.618518,4.5409164,3.0405664,-1.0401641,6.649581,8.930372,-8.916007,-2.7485435
5.625168,4.543935,3.0405664,-1.0401641,6.649581,8.930372,-8.916007,-2.7485435
5.6318035,4.5470037,3.0576105,-0.98370504,6.670886,9.040505,-9.078813,-2.566584
5.638425,4.5500517,3.0576105,-0.98370504,6.670886,9.040505,-9.078813,-2.566584
5.645048,4.5531774,3.0778506,-0.9197892,6.684735,9.428367,-9.045294,-2.4277205
5.6516714,4.5562863,3.0778506,-0.9197892,6.684735,9.428367,-9.045294,-2.4277205
5.658277,4.559445,3.0970254,-0.85054696,6.6836696,9.150639,-9.241618,-2.3175871
5.6648893,4.5625906,3.0970254,-0.85054696,6.6836696,9.150639,-9.241618,-2.3175871
5.6714783,4.5658083,3.1204612,-0.77704376,6.669821,9.380483,-9.279925,-2.2026656
5.6780605,4.569006,3.1204612,-0.77704376,6.669821,9.380483,-9.279925,-2.2026656
5.684604,4.5722666,3.1428318,-0.70247525,6.6517115,9.26556,-9.375694,-1.9871874
5.690972,4.575423,3.1428318,-0.70247525,6.6517115,9.26556,-9.375694,-1.9871874
5.697677,4.578825,3.167333,-0.6311025,6.6272106,9.380483,-9.442732,-1.9057846
5.704194,4.5821133,3.167333,-0.6311025,6.6272106,9.380483,-9.442732,-1.9057846
5.710663,4.5854607,3.1928992,-0.5629256,6.5952525,9.744401,-9.433155,-1.7525556
5.717139,4.588794,3.1928992,-0.5629256,6.5952525,9.744401,-9.433155,-1.7525556
5.7235627,4.5921826,3.2152698,-0.49155286,6.5515766,9.222465,-9.696517,-1.5466543
5.729988,4.5955524,3.2152698,-0.49155286,6.5515766,9.222465,-9.696517,-1.5466543
5.7363567,4.5989795,3.2355099,-0.4191149,6.5025744,9.050082,-9.797073,-1.3311762
5.7427263,4.6023884,3.2355099,-0.4191149,6.5025744,9.050082,-9.797073,-1.3311762
5.7490497,4.6058407,3.2557497,-0.35200322,6.4620943,8.983045,-9.797073,-1.2593501
5.755374,4.6092753,3.2557497,-0.35200322,6.4620943,8.983045,-9.797073,-1.2593501
5.761661,4.612751,3.2759898,-0.28595683,6.4301367,8.968679,-9.883265,-1.2306197
5.767949,4.61621,3.2759898,-0.28595683,6.4301367,8.968679,-9.883265,-1.2306197
5.7742057,4.6197114,3.2940993,-0.2145841,6.403505,9.102755,-9.9550905,-1.1923125
5.780463,4.6231956,3.2940993,-0.2145841,6.403505,9.102755,-9.9550905,-1.1923125
5.7866907,4.626723,3.3090131,-0.13468927,6.379004,9.14585,-10.036493,-1.1540052
5.7929196,4.630233,3.3090131,-0.13468927,6.379004,9.14585,-10.036493,-1.1540052
5.7991176,4.6337895,3.3228614,-0.037750203,6.3545027,9.011775,-10.093954,-1.1683705
5.8053236,4.6373334,3.3228614,-0.037750203,6.3545027,9.011775,-10.093954,-1.1683705
5.8114867,4.640911,3.3313837,0.073037304,6.330002,8.743625,-10.055647,-1.2737153
5.8176584,4.644476,3.3313837,0.073037304,6.330002,8.743625,-10.055647,-1.2737153
5.8238034,4.6480823,3.3335142,0.19660798,6.3086963,8.408437,-10.0508585,-1.3263878
5.8299513,4.651672,3.3335142,0.19660798,6.3086963,8.408437,-10.0508585,-1.3263878
5.836078,4.655307,3.3313837,0.3276355,6.2937827,8.169016,-10.060435,-1.2545617
5.8422203,4.6589327,3.3313837,0.3276355,6.2937827,8.169016,-10.060435,-1.2545617
5.84834,4.662591,3.3228614,0.45866305,6.282065,7.9726915,-10.022128,-1.2018893
5.854457,4.666229,3.3228614,0.45866305,6.282065,7.9726915,-10.022128,-1.2018893
5.860551,4.6698914,3.3079479,0.58756006,6.268216,7.872135,-10.089166,-1.1300632
5.866654,4.673541,3.3079479,0.58756006,6.268216,7.872135,-10.089166,-1.1300632
5.872732,4.6772184,3.2909036,0.70686966,6.246911,7.752425,-10.151415,-0.89064306
5.8788204,4.680881,3.2909036,0.70686966,6.246911,7.752425,-10.151415,-0.89064306
5.884873,4.684554,3.268533,0.8165919,6.2181487,7.5465236,-10.180145,-0.7182605
5.890929,4.688209,3.268533,0.8165919,6.2181487,7.5465236,-10.180145,-0.7182605
5.8969464,4.6918674,3.2419014,0.9124657,6.1787343,7.335834,-10.242394,-0.5267244
5.903034,4.695547,3.2419014,0.9124657,6.1787343,7.335834,-10.242394,-0.5267244
5.909321,4.699375,3.2184656,0.9966216,6.1307974,7.120356,-10.237606,-0.37828386
5.909321,4.699375,3.2184656,0.9966216,6.1307974,7.120356,-10.237606,-0.37828386
5.909321,4.699375,3.1950297,1.0711901,6.074338,7.005434,-10.199299,-0.32561144
5.927201,4.710272,3.1950297,1.0711901,6.074338,7.005434,-10.199299,-0.32561144
5.9327307,4.713644,3.1747897,1.139367,6.010422,6.799533,-10.146626,-0.32561144
5.938747,4.7172933,3.1747897,1.139367,6.010422,6.799533,-10.146626,-0.32561144
5.944653,4.7208986,3.159876,1.2043482,5.9433107,6.4882865,-9.998186,-0.41180268
5.9509187,4.724703,3.159876,1.2043482,5.9433107,6.4882865,-9.998186,-0.41180268
5.956012,4.7278147,3.148158,1.2650682,5.8719378,6.1195793,-9.935937,-0.5506664
5.9616385,4.731236,3.148158,1.2650682,5.8719378,6.1195793,-9.935937,-0.5506664
5.9673343,4.734724,3.1375055,1.3225925,5.7995,5.5976434,-9.868899,-0.5554548
5.973029,4.738194,3.1375055,1.3225925,5.7995,5.5976434,-9.868899,-0.5554548
5.9786725,4.7416534,3.127918,1.3726599,5.731323,5.085284,-9.753978,-0.5315128
5.9843197,4.7450986,3.127918,1.3726599,5.731323,5.085284,-9.753978,-0.5315128
5.9899144,4.748527,3.1172655,1.4152706,5.667407,4.572925,-9.65821,-0.4357447
5.99553,4.7519526,3.1172655,1.4152706,5.667407,4.572925,-9.65821,-0.4357447
6.001077,4.755343,3.103417,1.4450979,5.610948,4.189853,-9.610326,-0.33039984
6.006628,4.758721,3.103417,1.4450979,5.610948,4.189853,-9.610326,-0.33039984
6.0121284,4.7620687,3.0842423,1.4642727,5.55875,3.8259344,-9.619903,-0.15322891
6.017654,4.765418,3.0842423,1.4642727,5.55875,3.8259344,-9.619903,-0.15322891
6.0231338,4.7687387,3.0618718,1.4706643,5.5193353,3.5769374,-9.634268,0.06703765
6.028617,4.772047,3.0618718,1.4706643,5.5193353,3.5769374,-9.634268,0.06703765
6.034056,4.775316,3.0373707,1.465338,5.485247,3.4476504,-9.662998,0.17717093
6.0395045,4.778578,3.0373707,1.465338,5.485247,3.4476504,-9.662998,0.17717093
6.04491,4.7818193,3.010739,1.4525548,5.452224,3.2561142,-9.730036,0.4405331
6.05032,4.785048,3.010739,1.4525548,5.452224,3.2561142,-9.730036,0.4405331
6.0557036,4.7882442,2.9841075,1.4355105,5.426657,3.169923,-9.801862,0.5410896
6.0610805,4.7914214,2.9841075,1.4355105,5.426657,3.169923,-9.801862,0.5410896
6.0664525,4.794594,2.961737,1.4120747,5.404287,3.0933087,-9.840169,0.7038953
6.0718174,4.797746,2.961737,1.4120747,5.404287,3.0933087,-9.840169,0.7038953
6.077158,4.8008685,2.9436274,1.3875736,5.3851123,3.1172507,-9.864111,0.7613561
6.0823197,4.8038726,2.9436274,1.3875736,5.3851123,3.1172507,-9.864111,0.7613561
6.0876594,4.8069544,2.9287136,1.3630725,5.3680677,3.0502129,-9.782708,0.7326257
6.0931787,4.810127,2.9287136,1.3630725,5.3680677,3.0502129,-9.782708,0.7326257
6.0985045,4.813174,2.9138,1.3364409,5.352089,3.1028855,-9.691729,0.7613561
6.103807,4.8161955,2.9138,1.3364409,5.352089,3.1028855,-9.691729,0.7613561
6.1091127,4.8192053,2.8988862,1.3108746,5.335045,3.1172507,-9.591172,0.79008657
6.1144476,4.8222218,2.8988862,1.3108746,5.335045,3.1172507,-9.591172,0.79008657
6.119736,4.8252063,2.881842,1.284243,5.3180003,3.0933087,-9.394848,0.90500826
6.1250424,4.828191,2.881842,1.284243,5.3180003,3.0933087,-9.394848,0.90500826
6.130414,4.8312016,2.865863,1.2586766,5.299891,3.098097,-9.165004,0.9528923
6.1356235,4.834113,2.865863,1.2586766,5.299891,3.098097,-9.165004,0.9528923
6.140796,4.8369913,2.8477535,1.2384366,5.2785854,3.1028855,-9.035717,0.9768343
6.146028,4.839895,2.8477535,1.2384366,5.2785854,3.1028855,-9.035717,0.9768343
6.1512556,4.8427734,2.8307092,1.2213924,5.2572803,3.169923,-8.748413,0.81402856
6.1564846,4.8456454,2.8307092,1.2213924,5.2572803,3.169923,-8.748413,0.81402856
6.161697,4.848495,2.8115346,1.207544,5.2349095,3.145981,-8.523358,0.79008657
6.1669106,4.8513384,2.8115346,1.207544,5.2349095,3.145981,-8.523358,0.79008657
6.1720986,4.854153,2.7870336,1.195826,5.2093434,3.0885203,-8.240842,0.770933
6.1772933,4.856965,2.7870336,1.195826,5.2093434,3.0885203,-8.240842,0.770933
6.1824584,4.8597374,2.7582712,1.1851734,5.183777,3.0023289,-8.09719,0.7182605
6.1876245,4.8625054,2.7582712,1.1851734,5.183777,3.0023289,-8.09719,0.7182605
6.1927543,4.865236,2.7273786,1.1766512,5.1582108,3.1172507,-7.9631147,0.7278373
6.1979055,4.867973,2.7273786,1.1766512,5.1582108,3.1172507,-7.9631147,0.7278373
6.2030144,4.870673,2.692225,1.1702597,5.127318,3.2130187,-7.833828,0.8331822
6.2081194,4.873367,2.692225,1.1702597,5.127318,3.2130187,-7.833828,0.8331822
6.213201,4.8760242,2.65281,1.167064,5.09323,3.4141316,-7.8050976,0.80924016
6.2182736,4.8786726,2.65281,1.167064,5.09323,3.4141316,-7.8050976,0.80924016
6.2233143,4.8812876,2.6112647,1.171325,5.05488,3.5673606,-7.85777,0.9672575
6.2283607,4.883902,2.6112647,1.171325,5.05488,3.5673606,-7.85777,0.9672575
6.2333484,4.8864694,2.5665238,1.1798471,5.0037475,3.7780502,-7.9487495,1.0773908
6.2383423,4.8890367,2.5665238,1.1798471,5.0037475,3.7780502,-7.9487495,1.0773908
6.2432766,4.8915644,2.5207174,1.1947608,4.9398317,3.9791632,-8.030152,1.2737153
6.248212,4.8940887,2.5207174,1.1947608,4.9398317,3.9791632,-8.030152,1.2737153
6.2530766,4.8965697,2.4738457,1.2150007,4.8631325,4.0462008,-8.0445175,1.3934253
6.2579517,4.899053,2.4738457,1.2150007,4.8631325,4.0462008,-8.0445175,1.3934253
6.2627344,4.9014835,2.426974,1.2426977,4.777911,3.9695864,-8.054094,1.4700398
6.267518,4.903911,2.426974,1.2426977,4.777911,3.9695864,-8.054094,1.4700398
6.272223,4.906291,2.3758414,1.2746556,4.685233,3.8546648,-8.049306,1.5466543
6.2769327,4.9086714,2.3758414,1.2746556,4.685233,3.8546648,-8.049306,1.5466543
6.2815495,4.9109945,2.3225782,1.3087441,4.587229,3.6487634,-8.001422,1.5705963
0.0029770315,4.913313,2.3225782,1.3087441,4.587229,3.6487634,-8.001422,1.5705963
0.007513187,4.9155807,2.269315,1.3449631,4.491355,3.5290532,-7.9870567,1.5849615
0.012045738,4.917844,2.269315,1.3449631,4.491355,3.5290532,-7.9870567,1.5849615
0.016493957,4.920054,2.217117,1.3811821,4.396547,3.41892,-7.9104424,1.6280571
0.020938616,4.9222593,2.217117,1.3811821,4.396547,3.41892,-7.9104424,1.6280571
0.025298985,4.92441,2.1659844,1.4163358,4.2974772,3.3662477,-7.7907324,1.5514427
0.029660286,4.926558,2.1659844,1.4163358,4.2974772,3.3662477,-7.7907324,1.5514427
0.033934824,4.928647,2.1105905,1.4536201,4.199473,3.2369606,-7.608773,1.5227122
0.03821037,4.930733,2.1105905,1.4536201,4.199473,3.2369606,-7.608773,1.5227122
0.042397913,4.932757,2.0530663,1.4930348,4.099338,3.2082303,-7.422025,1.484405
0.046590783,4.93478,2.0530663,1.4930348,4.099338,3.2082303,-7.422025,1.484405
0.050685193,4.936735,1.9923462,1.5356454,3.9960072,3.1555579,-7.2544312,1.4796166
0.05478489,4.9386888,1.9923462,1.5356454,3.9960072,3.1555579,-7.2544312,1.4796166
0.05879236,4.9405723,1.9284303,1.5814518,3.8894808,3.145981,-7.129933,1.460463
0.06280508,4.9424553,1.9284303,1.5814518,3.8894808,3.145981,-7.129933,1.460463
0.06670801,4.944257,1.8581228,1.6293887,3.7723017,3.0933087,-6.9144545,1.412579
0.07062404,4.946061,1.8581228,1.6293887,3.7723017,3.0933087,-6.9144545,1.412579
0.07441583,4.947778,1.7835543,1.6762604,3.6476657,3.098097,-6.789956,1.4508862
0.078216575,4.949496,1.7835543,1.6762604,3.6476657,3.098097,-6.789956,1.4508862
0.0818924,4.9511237,1.7068553,1.7210014,3.5145078,3.1316159,-6.6510925,1.3934253
0.08557702,4.952752,1.7068553,1.7210014,3.5145078,3.1316159,-6.6510925,1.3934253
0.089132346,4.9542923,1.6248299,1.7657425,3.3685665,3.1124623,-6.4882865,1.4556746
0.09268913,4.955829,1.6248299,1.7657425,3.3685665,3.1124623,-6.4882865,1.4556746
0.09610861,4.9572735,1.5406741,1.8062226,3.2151685,3.2609026,-6.3206925,1.4413095
0.09952958,4.9587135,1.5406741,1.8062226,3.2151685,3.2609026,-6.3206925,1.4413095
0.10279929,4.96006,1.4543877,1.8424416,3.047922,3.3423057,-6.172252,1.484405
0.10607038,4.9614034,1.4543877,1.8424416,3.047922,3.3423057,-6.172252,1.484405
0.109177835,4.9626474,1.3649054,1.8743995,2.8689575,3.4141316,-6.033388,1.4987702
0.11228675,4.963888,1.3649054,1.8743995,2.8689575,3.4141316,-6.033388,1.4987702
0.11521958,4.965025,1.2732927,1.9074227,2.6772099,3.4715924,-5.9759274,1.4700398
0.11815377,4.966158,1.2732927,1.9074227,2.6772099,3.4715924,-5.9759274,1.4700398
0.120895065,4.9671865,1.18168,1.9351196,2.4694831,3.5338416,-5.9663506,1.4460979
0.12363765,4.968211,1.18168,1.9351196,2.4694831,3.5338416,-5.9663506,1.4460979
0.12616955,4.9691286,1.0858061,1.9553596,2.2447124,3.4955344,-5.837064,1.4556746
0.12870269,4.9700427,1.0858061,1.9553596,2.2447124,3.4955344,-5.837064,1.4556746
0.13101134,4.9708495,0.9931281,1.9702733,2.0082238,3.2944214,-5.813122,1.3934253
0.13333046,4.9716563,0.9931281,1.9702733,2.0082238,3.2944214,-5.813122,1.3934253
0.13541229,4.972352,0.90151536,1.9798607,1.7674739,3.0693667,-5.683835,1.2449849
0.13756387,4.9730673,0.90151536,1.9798607,1.7674739,3.0693667,-5.683835,1.2449849
0.13936958,4.9736357,0.80883735,1.9830564,1.5235285,2.8299465,-5.602432,1.0773908
0.14118524,4.9742045,0.80883735,1.9830564,1.5235285,2.8299465,-5.602432,1.0773908
0.14279519,4.9746695,0.7182899,1.9830564,1.2785176,2.6240451,-5.530606,0.8283938
0.14441873,4.9751363,0.7182899,1.9830564,1.2785176,2.6240451,-5.530606,0.8283938
0.14581713,4.975496,0.6277424,1.9809259,1.038833,2.3654714,-5.506664,0.7134721
0.14720085,4.975849,0.6277424,1.9809259,1.038833,2.3654714,-5.506664,0.7134721
0.14833987,4.9760942,0.53612965,1.9787954,0.8044749,2.2218192,-5.4204726,0.7038953
0.14949429,4.9763412,0.53612965,1.9787954,0.8044749,2.2218192,-5.4204726,0.7038953
0.15042265,4.9764833,0.44132113,1.9809259,0.5701167,2.1643584,-5.2768207,0.7038953
0.151354,4.9766235,0.44132113,1.9809259,0.5701167,2.1643584,-5.2768207,0.7038953
0.1520596,4.976656,0.34225154,1.9862523,0.333628,2.1452048,-5.104438,0.7326257
0.15276317,4.9766874,0.34225154,1.9862523,0.333628,2.1452048,-5.104438,0.7326257
0.15323833,4.9766045,0.23679034,1.9979702,0.0939435,1.8339585,-5.056554,0.866701
0.15371324,4.9765205,0.23679034,1.9979702,0.0939435,1.8339585,-5.056554,0.866701
0.15395848,4.976316,0.12493758,2.0182102,-0.15106732,1.8674773,-4.759673,0.90979666
0.15419911,4.9761143,0.12493758,2.0182102,-0.15106732,1.8674773,-4.759673,0.90979666
0.15420453,4.975781,0.0077584907,2.0427113,-0.40246972,1.5801731,-4.7500963,0.9672575
0.15420924,4.9754477,0.0077584907,2.0427113,-0.40246972,1.5801731,-4.7500963,0.9672575
0.15397055,4.9749727,-0.11581218,2.0714734,-0.661329,1.1444284,-4.711789,0.9720459
0.15373056,4.9744987,-0.11581218,2.0714734,-0.661329,1.1444284,-4.711789,0.9720459
0.15325017,4.9738626,-0.24151339,2.0991702,-0.9244493,0.5363012,-4.8745947,0.866701
0.15276732,4.9732275,-0.24151339,2.0991702,-0.9244493,0.5363012,-4.8745947,0.866701
0.15205996,4.972433,-0.3672146,2.122606,-1.1790475,0.1436521,-5.023035,0.80924016
0.15135133,4.9716415,-0.3672146,2.122606,-1.1790475,0.1436521,-5.023035,0.80924016
0.15046084,4.970685,-0.49078527,2.1407156,-1.4251236,-0.37828386,-5.2241483,0.7134721
0.14956826,4.9697304,-0.49078527,2.1407156,-1.4251236,-0.37828386,-5.2241483,0.7134721
0.14851265,4.968641,-0.6100949,2.150303,-1.6626776,-0.8571242,-5.401319,0.7278373
0.1474552,4.967554,-0.6100949,2.150303,-1.6626776,-0.8571242,-5.401319,0.7278373
0.1462005,4.966352,-0.7230129,2.1481724,-1.8853178,-1.0773908,-5.674258,0.62728083
0.14493997,4.9651494,-0.7230129,2.1481724,-1.8853178,-1.0773908,-5.674258,0.62728083
0.14345166,4.963794,-0.8284741,2.1364546,-2.0983708,-1.6807296,-5.971139,0.7086837
0.14209154,4.9625626,-0.8284741,2.1364546,-2.0983708,-1.6807296,-5.971139,0.7086837
0.14049357,4.961201,-0.9254132,2.1130188,-2.3039668,-2.0973208,-6.196194,0.7278373
0.13888657,4.95984,-0.9254132,2.1130188,-2.3039668,-2.0973208,-6.196194,0.7278373
0.13708553,4.958396,-1.0106343,2.0757344,-2.4925187,-2.6479871,-6.493075,0.521936
0.13528149,4.9569583,-1.0106343,2.0757344,-2.4925187,-2.6479871,-6.493075,0.521936
0.13330258,4.9554577,-1.0873333,2.0224712,-2.6640263,-3.3423057,-6.8091097,0.4213795
0.13132238,4.9539647,-1.0873333,2.0224712,-2.6640263,-3.3423057,-6.8091097,0.4213795
0.12918045,4.9524145,-1.1565756,1.9521638,-2.8110328,-3.9791632,-7.1634517,0.320823
0.12701365,4.9508557,-1.1565756,1.9521638,-2.8110328,-3.9791632,-7.1634517,0.320823
0.12471667,4.9492583,-1.2183609,1.8626816,-2.9324727,-4.3382936,-7.489063,0.25378537
0.12245508,4.947695,-1.2183609,1.8626816,-2.9324727,-4.3382936,-7.489063,0.25378537
0.11970751,4.945855,-1.2694936,1.7540246,-3.030477,-4.745308,-7.7572136,0.21068975
0.117545895,4.944416,-1.2694936,1.7540246,-3.030477,-4.745308,-7.7572136,0.21068975
0.115072906,4.9428134,-1.3142347,1.630454,-3.1050456,-5.0900726,-8.063671,0.22505496
0.111841165,4.9407325,-1.3142347,1.630454,-3.1050456,-5.0900726,-8.063671,0.22505496
0.10987895,4.939498,-1.3483231,1.4919696,-3.1529825,-5.3821654,-8.379706,0.21068975
0.105760895,4.9369245,-1.3483231,1.4919696,-3.1529825,-5.3821654,-8.379706,0.21068975
0.10476921,4.9363155,-1.3728242,1.3449631,-3.1732225,-5.5162406,-8.6334915,0.17238252
0.1020772,4.93467,-1.3728242,1.3449631,-3.1732225,-5.5162406,-8.6334915,0.17238252
0.099405035,4.9330654,-1.3888032,1.1883692,-3.171092,-5.7125654,-8.939949,0.29209262
0.09670316,4.93145,-1.3888032,1.1883692,-3.171092,-5.7125654,-8.939949,0.29209262
0.09398631,4.9298453,-1.3994559,1.0275142,-3.1433952,-5.779603,-9.155427,0.4213795
0.09125894,4.928241,-1.3994559,1.0275142,-3.1433952,-5.779603,-9.155427,0.4213795
0.088560276,4.9266624,-1.4047822,0.86665934,-3.0911973,-5.7125654,-9.399636,0.61291564
0.08585951,4.9250894,-1.4047822,0.86665934,-3.0911973,-5.7125654,-9.399636,0.61291564
0.08317927,4.923526,-1.4058474,0.7090002,-3.021955,-5.3678,-9.543288,0.6512229
0.08051059,4.921974,-1.4058474,0.7090002,-3.021955,-5.3678,-9.543288,0.6512229
0.07789128,4.9204473,-1.4015864,0.55986315,-2.940995,-5.1906295,-9.739613,0.79487497
0.07525736,4.9189167,-1.4015864,0.55986315,-2.940995,-5.1906295,-9.739613,0.79487497
0.072684824,4.9174166,-1.3898685,0.42244405,-2.8536432,-5.1523223,-9.873688,0.8619126
0.07011871,4.915925,-1.3898685,0.42244405,-2.8536432,-5.1523223,-9.873688,0.8619126
0.0676017,4.914453,-1.3738896,0.29674283,-2.7588346,-5.109226,-9.974244,0.9528923
0.065096125,4.912992,-1.3738896,0.29674283,-2.7588346,-5.109226,-9.974244,0.9528923
0.0626679,4.911558,-1.35578,0.17956375,-2.6523082,-5.0613422,-10.127473,0.9720459
0.060238864,4.9101267,-1.35578,0.17956375,-2.6523082,-5.0613422,-10.127473,0.9720459
0.057898585,4.908726,-1.3334094,0.069841504,-2.538325,-4.8267107,-10.266336,0.9816227
0.055555385,4.9073257,-1.3334094,0.069841504,-2.538325,-4.8267107,-10.266336,0.9816227
0.05331427,4.905961,-1.3089083,-0.03242388,-2.4179502,-4.548983,-10.323798,1.043872
0.051072776,4.904598,-1.3089083,-0.03242388,-2.4179502,-4.548983,-10.323798,1.043872
0.048929453,4.9032693,-1.283342,-0.124036625,-2.2943795,-4.3287168,-10.34774,1.2354081
0.046839427,4.901974,-1.283342,-0.124036625,-2.2943795,-4.3287168,-10.34774,1.2354081
0.044804744,4.9006786,-1.2588409,-0.20499672,-2.171874,-4.003105,-10.462662,1.2976574
0.042721145,4.899353,-1.2588409,-0.20499672,-2.171874,-4.003105,-10.462662,1.2976574
0.04079305,4.8980966,-1.2343398,-0.27530417,-2.0514991,-3.7110126,-10.539276,1.5658079
0.038882162,4.896852,-1.2343398,-0.27530417,-2.0514991,-3.7110126,-10.539276,1.5658079
0.037057202,4.895625,-1.210904,-0.33602425,-1.9353853,-3.4093432,-10.596737,1.6567876
0.03522316,4.8943934,-1.210904,-0.33602425,-1.9353853,-3.4093432,-10.596737,1.6567876
0.03350045,4.8931975,-1.1864029,-0.38609168,-1.8224672,-3.1507695,-10.6877165,1.7429788
0.03177953,4.892004,-1.1864029,-0.38609168,-1.8224672,-3.1507695,-10.6877165,1.7429788
0.030153323,4.890835,-1.1640325,-0.42550647,-1.7159408,-2.873042,-10.840945,1.8291701
0.028528892,4.889667,-1.1640325,-0.42550647,-1.7159408,-2.873042,-10.840945,1.8291701
0.02698972,4.888516,-1.1448576,-0.45320335,-1.6136755,-2.5761611,-10.994174,1.9249382
0.025461394,4.887374,-1.1448576,-0.45320335,-1.6136755,-2.5761611,-10.994174,1.9249382
0.02403825,4.886258,-1.1267482,-0.46811703,-1.5146059,-2.4516625,-11.190498,1.9536686
0.022606712,4.8851366,-1.1267482,-0.46811703,-1.5146059,-2.4516625,-11.190498,1.9536686
0.021265374,4.884037,-1.1086386,-0.47344336,-1.4219278,-2.327164,-11.343728,2.0254946
0.019924192,4.882938,-1.1086386,-0.47344336,-1.4219278,-2.327164,-11.343728,2.0254946
0.01866829,4.8818617,-1.0905292,-0.47344336,-1.3335109,-2.207454,-11.544841,2.1260512
0.017412383,4.880786,-1.0905292,-0.47344336,-1.3335109,-2.207454,-11.544841,2.1260512
0.016234493,4.87974,-1.0702891,-0.4691823,-1.249355,-2.030283,-11.707646,2.303222
0.01505896,4.8786974,-1.0702891,-0.4691823,-1.249355,-2.030283,-11.707646,2.303222
0.013958718,4.8776836,-1.0500491,-0.46172544,-1.1705254,-1.7477672,-11.87524,2.3894134
0.012849467,4.8766623,-1.0500491,-0.46172544,-1.1705254,-1.7477672,-11.87524,2.3894134
0.011812358,4.875703,-1.0266134,-0.45213807,-1.0991527,-1.3934253,-11.975797,2.60968
0.01076779,4.874737,-1.0266134,-0.45213807,-1.0991527,-1.3934253,-11.975797,2.60968
0.009760051,4.8738136,-0.9999817,-0.44148543,-1.0394979,-1.1252748,-12.0332575,2.8060043
0.008751429,4.8728895,-0.9999817,-0.44148543,-1.0394979,-1.1252748,-12.0332575,2.8060043
0.007776213,4.8720074,-0.96908903,-0.43083277,-0.99049574,-0.90021986,-12.071565,2.9113493
0.006800401,4.871124,-0.96908903,-0.43083277,-0.99049574,-0.90021986,-12.071565,2.9113493
0.0058491076,4.8702817,-0.9339353,-0.4212454,-0.95001566,-0.6464345,-12.076353,2.896984
0.0048993556,4.86944,-0.9339353,-0.4212454,-0.95001566,-0.6464345,-12.076353,2.896984
0.0039615217,4.868637,-0.8977163,-0.4127233,-0.9169925,-0.4261679,-12.066776,2.9640217
0.0030237308,4.867834,-0.8977163,-0.4127233,-0.9169925,-0.4261679,-12.066776,2.9640217
0.0020943484,4.867073,-0.8593668,-0.40739697,-0.8924914,-0.19632454,-12.028469,2.9640217
0.0011652095,4.866311,-0.8593668,-0.40739697,-0.8924914,-0.19632454,-12.028469,2.9640217
0.00022978966,4.86559,-0.81888676,-0.40420118,-0.87331665,0.095768064,-11.9853735,2.896984
6.282481,4.8648686,-0.81888676,-0.40420118,-0.87331665,0.095768064,-11.9853735,2.896984
6.2815456,4.8641853,-0.7784067,-0.40207064,-0.8584029,0.2825158,-12.095507,2.882619
6.2806115,4.863503,-0.7784067,-0.40207064,-0.8584029,0.2825158,-12.095507,2.882619
6.279664,4.862854,-0.7400572,-0.4010054,-0.8498808,0.58897364,-12.196063,2.954445
6.278718,4.8622046,-0.7400572,-0.4010054,-0.8498808,0.58897364,-12.196063,2.954445
6.277772,4.861596,-0.6974466,-0.40207064,-0.8445545,0.521936,-11.57836,2.5953147
6.2768474,4.8610015,-0.6974466,-0.40207064,-0.8445545,0.521936,-11.57836,2.5953147
6.2758837,4.860423,-0.6580318,-0.40313593,-0.8402934,1.1300632,-11.602302,2.9496565
6.2749014,4.8598337,-0.6580318,-0.40313593,-0.8402934,1.1300632,-11.602302,2.9496565
6.273933,4.859279,-0.63140017,-0.40313593,-0.8434892,1.6903064,-12.698846,3.5913026
6.27297,4.8587284,-0.63140017,-0.40313593,-0.8434892,1.6903064,-12.698846,3.5913026
6.271984,4.858204,-0.5898549,-0.38609168,-0.8445545,2.336741,-12.832921,3.53863
6.2709956,4.8576784,-0.5898549,-0.38609168,-0.8445545,2.336741,-12.832921,3.53863
6.270002,4.8572025,-0.5312653,-0.34987268,-0.84561974,2.801216,-12.765883,3.3327289
6.2690015,4.856724,-0.5312653,-0.34987268,-0.84561974,2.801216,-12.765883,3.3327289
6.268009,4.8563013,-0.46947998,-0.29341367,-0.8445545,2.896984,-12.641385,2.96881
6.2670126,4.855877,-0.46947998,-0.29341367,-0.8445545,2.896984,-12.641385,2.96881
6.2660456,4.855519,-0.41089043,-0.22097568,-0.83283657,2.3175871,-12.301409,2.7868507
6.2650766,4.8551598,-0.41089043,-0.22097568,-0.83283657,2.3175871,-12.301409,2.7868507
6.2641587,4.8548665,-0.35975775,-0.14534192,-0.8083355,1.661576,-12.061988,2.6910827
6.2632356,4.854572,-0.35975775,-0.14534192,-0.8083355,1.661576,-12.061988,2.6910827
6.2623987,4.8543425,-0.3160819,-0.08142605,-0.769986,1.0342951,-11.851298,2.743755
6.261557,4.854112,-0.3160819,-0.08142605,-0.769986,1.0342951,-11.851298,2.743755
6.2607937,4.8539295,-0.27560186,-0.03242388,-0.71991855,0.81402856,-11.702858,2.791639
6.2599435,4.8537264,-0.27560186,-0.03242388,-0.71991855,0.81402856,-11.702858,2.791639
6.25931,4.8535967,-0.23725234,0.003795111,-0.6602637,0.8714894,-11.779472,2.8538885
6.2586236,4.853456,-0.23725234,0.003795111,-0.6602637,0.8714894,-11.779472,2.8538885
6.2579775,4.8533497,-0.19677228,0.035753045,-0.59954363,1.1061212,-11.84651,2.8443117
6.257329,4.8532434,-0.19677228,0.035753045,-0.59954363,1.1061212,-11.84651,2.8443117
6.2567234,4.8531756,-0.14990065,0.071972035,-0.53988886,1.3694834,-11.736377,2.6910827
6.256118,4.853108,-0.14990065,0.071972035,-0.53988886,1.3694834,-11.736377,2.6910827
6.255563,4.853085,-0.09983322,0.118843675,-0.4844951,1.436521,-11.544841,2.5139117
6.2550073,4.8530626,-0.09983322,0.118843675,-0.4844951,1.436521,-11.544841,2.5139117
6.254507,4.853088,-0.049765788,0.17849848,-0.4312319,1.3742718,-11.358093,2.3415294
6.254007,4.853113,-0.049765788,0.17849848,-0.4312319,1.3742718,-11.358093,2.3415294
6.2535906,4.853198,-0.0039594183,0.2466754,-0.37583813,1.0534488,-11.15698,2.3223755
6.253175,4.8532834,-0.0039594183,0.2466754,-0.37583813,1.0534488,-11.15698,2.3223755
6.2528486,4.8534203,0.03652063,0.31698287,-0.31937912,0.78529817,-10.898406,2.2984335
6.252523,4.853558,0.03652063,0.31698287,-0.31937912,0.78529817,-10.898406,2.2984335
6.252303,4.8537407,0.07167436,0.38409454,-0.26292008,0.4261679,-10.6637745,2.2122424
6.2520843,4.853923,0.07167436,0.38409454,-0.26292008,0.4261679,-10.6637745,2.2122424
6.251954,4.854136,0.1004365,0.44694513,-0.20752634,0.24420857,-10.433931,2.207454
6.251824,4.8543487,0.1004365,0.44694513,-0.20752634,0.24420857,-10.433931,2.207454
6.2517695,4.8545847,0.12387232,0.50127363,-0.15426312,0.1388637,-10.25676,2.135628
6.251715,4.854821,0.12387232,0.50127363,-0.15426312,0.1388637,-10.25676,2.135628
6.251726,4.8550787,0.1451776,0.55134106,-0.10526095,0.07182605,-10.0508585,2.087744
6.2517376,4.8553305,0.1451776,0.55134106,-0.10526095,0.07182605,-10.0508585,2.087744
6.251818,4.8556023,0.1632871,0.5992779,-0.06158511,-0.04309563,-9.89763,2.006341
6.2519007,4.8558803,0.1632871,0.5992779,-0.06158511,-0.04309563,-9.89763,2.006341
6.2520437,4.856162,0.175005,0.6450843,-0.022170324,-0.11971009,-9.749189,1.9201498
6.252184,4.8564377,0.175005,0.6450843,-0.022170324,-0.11971009,-9.749189,1.9201498
6.2523966,4.8567104,0.18672292,0.69089067,0.009787609,-0.272939,-9.56723,1.7525556
6.252609,4.856983,0.18672292,0.69089067,0.009787609,-0.272939,-9.56723,1.7525556
6.25287,4.8572474,0.19524503,0.73350126,0.035353955,-0.545878,-9.428367,1.7046716
6.2531323,4.8575115,0.19524503,0.73350126,0.035353955,-0.545878,-9.428367,1.7046716
6.253437,4.857754,0.19950609,0.77185076,0.05772451,-0.866701,-9.246407,1.5275006
6.2537427,4.8579974,0.19950609,0.77185076,0.05772451,-0.866701,-9.246407,1.5275006
6.2540736,4.8582406,0.20057136,0.8016782,0.07689927,-1.1109096,-9.102755,1.5179238
6.254401,4.8584805,0.20057136,0.8016782,0.07689927,-1.1109096,-9.102755,1.5179238
6.254755,4.858718,0.19844083,0.825114,0.09500877,-1.3072342,-9.059659,1.4987702
6.2551045,4.858952,0.19844083,0.825114,0.09500877,-1.3072342,-9.059659,1.4987702
6.255471,4.8591785,0.19524503,0.84109294,0.1088572,-1.5993267,-8.949526,1.4508862
6.255841,4.8594055,0.19524503,0.84109294,0.1088572,-1.5993267,-8.949526,1.4508862
6.256222,4.8596296,0.19204924,0.8496151,0.120575115,-1.7860745,-8.868123,1.460463
6.2566013,4.859853,0.19204924,0.8496151,0.120575115,-1.7860745,-8.868123,1.460463
6.256992,4.8600655,0.18565765,0.85068035,0.12803197,-1.9440918,-8.7532015,1.3838485
6.2573824,4.860277,0.18565765,0.85068035,0.12803197,-1.9440918,-8.7532015,1.3838485
6.2577753,4.860483,0.17820081,0.84215826,0.13229302,-2.1212628,-8.6813755,1.412579
6.258168,4.8606887,0.17820081,0.84215826,0.13229302,-2.1212628,-8.6813755,1.412579
6.2585607,4.860882,0.16861342,0.8272445,0.13335828,-2.2170308,-8.576031,1.3599066
6.2589536,4.8610744,0.16861342,0.8272445,0.13335828,-2.2170308,-8.576031,1.3599066
6.2593412,4.8612514,0.15583025,0.8070045,0.13122776,-2.2744915,-8.513782,1.3215994
6.2597303,4.8614283,0.15583025,0.8070045,0.13122776,-2.2744915,-8.513782,1.3215994
6.2601075,4.8615885,0.14091654,0.7803729,0.12377091,-2.3511062,-8.48984,1.3024458
6.2604847,4.8617477,0.14091654,0.7803729,0.12377091,-2.3511062,-8.48984,1.3024458
6.260848,4.861889,0.12493758,0.74948025,0.11418352,-2.432509,-8.37013,1.2545617
6.2612114,4.8620296,0.12493758,0.74948025,0.11418352,-2.432509,-8.37013,1.2545617
6.2615533,4.862151,0.10789335,0.71539176,0.09713929,-2.3798366,-8.379706,1.2354081
6.261895,4.8622723,0.10789335,0.71539176,0.09713929,-2.3798366,-8.379706,1.2354081
6.262212,4.8623757,0.087653324,0.67704225,0.07796454,-2.4133554,-8.336611,1.292869
6.262529,4.862479,0.087653324,0.67704225,0.07796454,-2.4133554,-8.336611,1.292869
6.26282,4.8625593,0.0674133,0.6376275,0.05772451,-2.4660277,-8.365341,1.2641385
6.26282,4.8625593,0.0674133,0.6376275,0.05772451,-2.4660277,-8.365341,1.2641385
6.2634306,4.8627205,0.045042746,0.5928863,0.03428869,-2.4708161,-8.39886,1.1827357
6.2636724,4.8627687,0.045042746,0.5928863,0.03428869,-2.4708161,-8.39886,1.1827357
6.2639165,4.862801,0.022672193,0.5460147,0.009787609,-2.4899697,-8.331821,1.2162545
6.2639165,4.862801,0.022672193,0.5460147,0.009787609,-2.4899697,-8.331821,1.2162545
6.2639165,4.862801,0.022672193,0.5460147,0.009787609,-2.4899697,-8.331821,1.2162545
6.264713,4.862893,-0.0018288894,0.49701256,-0.016844003,-2.504335,-8.331821,1.1300632
6.264799,4.862879,-0.027395237,0.44694513,-0.043475613,-2.5234885,-8.379706,1.115698
6.2649384,4.8628554,-0.027395237,0.44694513,-0.043475613,-2.5234885,-8.379706,1.115698
6.265068,4.862799,-0.05189632,0.39581242,-0.0679767,-2.6192567,-8.451532,1.0342951
6.265199,4.8627424,-0.05189632,0.39581242,-0.0679767,-2.6192567,-8.451532,1.0342951
6.265298,4.862657,-0.07852793,0.34361446,-0.092477776,-2.7102363,-8.465898,0.9959879
6.2653975,4.862571,-0.07852793,0.34361446,-0.092477776,-2.7102363,-8.465898,0.9959879
6.265467,4.8624554,-0.10515954,0.29141653,-0.11378307,-2.7485435,-8.504205,0.94810385
6.2655377,4.862339,-0.10515954,0.29141653,-0.11378307,-2.7485435,-8.504205,0.94810385
6.2655826,4.862196,-0.13285641,0.2381533,-0.1308273,-2.7724855,-8.556877,0.9624691
6.2656283,4.8620515,-0.13285641,0.2381533,-0.1308273,-2.7724855,-8.556877,0.9624691
6.2656527,4.861879,-0.15948802,0.18489006,-0.14361048,-2.7581203,-8.6095495,0.94810385
6.265677,4.8617063,-0.15948802,0.18489006,-0.14361048,-2.7581203,-8.6095495,0.94810385
6.265685,4.861509,-0.18398911,0.13056158,-0.15213259,-2.7102363,-8.714894,0.9624691
6.265693,4.86131,-0.18398911,0.13056158,-0.15213259,-2.7102363,-8.714894,0.9624691
6.265688,4.861085,-0.20742492,0.07516783,-0.15639365,-2.8107927,-8.465898,0.8283938
6.265683,4.8608584,-0.20742492,0.07516783,-0.15639365,-2.8107927,-8.465898,0.8283938
6.265665,4.860613,-0.23299128,0.018708814,-0.16171996,-2.4708161,-8.748413,1.0582372
6.2656474,4.8603683,-0.23299128,0.018708814,-0.16171996,-2.4708161,-8.748413,1.0582372
6.265615,4.860106,-0.25749236,-0.037750203,-0.16811156,-2.0973208,-9.045294,1.2880806
6.2655826,4.8598447,-0.25749236,-0.037750203,-0.16811156,-2.0973208,-9.045294,1.2880806
6.265536,4.8595605,-0.27560186,-0.08888289,-0.1755684,-1.6711528,-9.179369,1.2497733
6.2654886,4.859275,-0.27560186,-0.08888289,-0.1755684,-1.6711528,-9.179369,1.2497733
6.265426,4.8589697,-0.28838503,-0.13255873,-0.18409052,-1.2976574,-9.279925,1.2114661
6.2653637,4.8586645,-0.28838503,-0.13255873,-0.18409052,-1.2976574,-9.279925,1.2114661
6.265284,4.85835,-0.30010295,-0.16771246,-0.1968737,-1.0199299,-9.3421755,1.283292
6.2652044,4.858037,-0.30010295,-0.16771246,-0.1968737,-1.0199299,-9.3421755,1.283292
6.2651076,4.8577304,-0.31075558,-0.19540934,-0.20965686,-0.90500826,-9.457097,1.4413095
6.2650113,4.857424,-0.31075558,-0.19540934,-0.20965686,-0.90500826,-9.457097,1.4413095
6.264893,4.857115,-0.32034296,-0.21777989,-0.2235053,-0.8762778,-9.524135,1.541866
6.264778,4.8568153,-0.32034296,-0.21777989,-0.2235053,-0.8762778,-9.524135,1.541866
6.2646446,4.8565044,-0.32993034,-0.23695466,-0.23735374,-0.81402856,-9.572019,1.5610195
6.264509,4.856191,-0.32993034,-0.23695466,-0.23735374,-0.81402856,-9.572019,1.5610195
6.264353,4.8558865,-0.33845246,-0.25825995,-0.25226745,-0.7230489,-9.639056,1.6472107
6.264196,4.855581,-0.33845246,-0.25825995,-0.25226745,-0.7230489,-9.639056,1.6472107
6.2640247,4.8552566,-0.34697458,-0.27849996,-0.26292008,-0.58897364,-9.797073,1.6041151
6.2638545,4.854935,-0.34697458,-0.27849996,-0.26292008,-0.58897364,-9.797073,1.6041151
6.263644,4.854613,-0.35443142,-0.29874,-0.274638,-0.33518824,-10.012551,1.6903064
6.263453,4.8543196,-0.35443142,-0.29874,-0.274638,-0.33518824,-10.012551,1.6903064
6.263218,4.8540397,-0.35975775,-0.31471896,-0.29061696,-0.110133275,-10.151415,1.7190368
6.262976,4.8537517,-0.35975775,-0.31471896,-0.29061696,-0.110133275,-10.151415,1.7190368
6.262693,4.8534727,-0.3618883,-0.32643688,-0.30553067,0.038307227,-10.314221,1.7046716
6.2624097,4.8531923,-0.3618883,-0.32643688,-0.30553067,0.038307227,-10.314221,1.7046716
6.2620687,4.852923,-0.3618883,-0.33602425,-0.31724858,0.16759412,-10.414778,1.7286136
6.26173,4.8526535,-0.3618883,-0.33602425,-0.31724858,0.16759412,-10.414778,1.7286136
6.2613254,4.8523874,-0.35549667,-0.34241584,-0.33003175,0.30645782,-10.486604,1.7429788
6.260923,4.8521223,-0.35549667,-0.34241584,-0.33003175,0.30645782,-10.486604,1.7429788
6.2605,4.851864,-0.34697458,-0.34880742,-0.33961913,0.39743748,-10.539276,1.8770541
6.260077,4.851605,-0.34697458,-0.34880742,-0.33961913,0.39743748,-10.539276,1.8770541
6.2596216,4.851348,-0.33845246,-0.35306847,-0.34814125,0.5554548,-10.524911,1.9153614
6.2591667,4.8510904,-0.33845246,-0.35306847,-0.34814125,0.5554548,-10.524911,1.9153614
6.258693,4.850838,-0.32886508,-0.35413375,-0.3555981,0.6560113,-10.55843,1.9393034
6.258221,4.850587,-0.32886508,-0.35413375,-0.3555981,0.6560113,-10.55843,1.9393034
6.2577333,4.85034,-0.31714717,-0.35306847,-0.35879388,0.79008657,-10.5440645,1.9632454
6.257247,4.850094,-0.31714717,-0.35306847,-0.35879388,0.79008657,-10.5440645,1.9632454
6.2567487,4.849854,-0.30329874,-0.34880742,-0.35879388,0.90021986,-10.5680065,1.9297266
6.2562504,4.849614,-0.30329874,-0.34880742,-0.35879388,0.90021986,-10.5680065,1.9297266
6.2557487,4.8493843,-0.28838503,-0.34241584,-0.35666338,1.043872,-10.58716,1.958457
6.2552476,4.8491545,-0.28838503,-0.34241584,-0.35666338,1.043872,-10.58716,1.958457
6.2547493,4.8489375,-0.27240607,-0.33282846,-0.3502718,1.1061212,-10.601525,1.9440918
6.2542515,4.84872,-0.27240607,-0.33282846,-0.3502718,1.1061212,-10.601525,1.9440918
6.2537594,4.8485165,-0.25429657,-0.3168495,-0.34174967,1.2641385,-10.596737,1.958457
6.2532673,4.848313,-0.25429657,-0.3168495,-0.34174967,1.2641385,-10.596737,1.958457
6.252785,4.8481236,-0.2351218,-0.29660946,-0.3289665,1.364695,-10.601525,1.934515
6.252313,4.847938,-0.2351218,-0.29660946,-0.3289665,1.364695,-10.601525,1.934515
6.251846,4.847766,-0.21488178,-0.26997787,-0.31511804,1.4508862,-10.654198,1.9249382
6.251367,4.8475895,-0.21488178,-0.26997787,-0.31511804,1.4508862,-10.654198,1.9249382
6.250921,4.8474407,-0.19570702,-0.23695466,-0.30233487,1.4508862,-10.582372,1.9393034
6.250475,4.847292,-0.19570702,-0.23695466,-0.30233487,1.4508862,-10.582372,1.9393034
6.2500467,4.84716,-0.17653225,-0.1996704,-0.28529066,1.4987702,-10.534488,1.9153614
6.249617,4.8470273,-0.17653225,-0.1996704,-0.28529066,1.4987702,-10.534488,1.9153614
6.2492137,4.8469186,-0.15842277,-0.16025561,-0.26931167,1.5227122,-10.505757,1.9728222
6.2488112,4.84681,-0.15842277,-0.16025561,-0.26931167,1.5227122,-10.505757,1.9728222
6.2484226,4.846717,-0.139248,-0.1187103,-0.25546324,1.4796166,-10.457873,1.8770541
6.2480345,4.846624,-0.139248,-0.1187103,-0.25546324,1.4796166,-10.457873,1.8770541
6.2476673,4.846551,-0.12326904,-0.077164985,-0.2416148,1.4173675,-10.43872,1.8722657
6.2473006,4.846478,-0.12326904,-0.077164985,-0.2416148,1.4173675,-10.43872,1.8722657
6.246949,4.846418,-0.1094206,-0.036684938,-0.22989689,1.4173675,-10.386047,1.8387469
6.2465973,4.8463583,-0.1094206,-0.036684938,-0.22989689,1.4173675,-10.386047,1.8387469
6.246264,4.8463135,-0.09770269,0.0016645822,-0.21817899,1.3455414,-10.34774,1.8195933
6.24593,4.846268,-0.09770269,0.0016645822,-0.21817899,1.3455414,-10.34774,1.8195933
6.2456074,4.846232,-0.08598478,0.038948838,-0.20859161,1.2737153,-10.290278,1.7286136
6.245282,4.8461947,-0.08598478,0.038948838,-0.20859161,1.2737153,-10.290278,1.7286136
6.2449684,4.8461637,-0.07320161,0.073037304,-0.19900422,1.2689269,-10.228029,1.6376339
6.2446527,4.8461323,-0.07320161,0.073037304,-0.19900422,1.2689269,-10.228029,1.6376339
6.244351,4.8461156,-0.062548965,0.104995236,-0.19154738,1.1923125,-10.160992,1.6280571
6.2440495,4.8461,-0.062548965,0.104995236,-0.19154738,1.1923125,-10.160992,1.6280571
6.2437544,4.846093,-0.05189632,0.13482264,-0.18728632,1.0965444,-10.1226845,1.5753847
6.2434587,4.8460865,-0.05189632,0.13482264,-0.18728632,1.0965444,-10.1226845,1.5753847
6.243177,4.846099,-0.042308938,0.16038899,-0.18302526,0.92895025,-10.117896,1.5658079
6.2428946,4.846112,-0.042308938,0.16038899,-0.18302526,0.92895025,-10.117896,1.5658079
6.242619,4.846135,-0.032721557,0.18275954,-0.17982946,0.82360536,-10.060435,1.5179238
6.2423434,4.8461595,-0.032721557,0.18275954,-0.17982946,0.82360536,-10.060435,1.5179238
6.242068,4.8461857,-0.026329972,0.2019343,-0.1787642,0.6799533,-10.0269165,1.4413095
6.2417917,4.8462114,-0.026329972,0.2019343,-0.1787642,0.6799533,-10.0269165,1.4413095
6.241563,4.846281,-0.019938385,0.21897852,-0.1755684,0.5363012,-9.969456,1.4556746
6.2413344,4.8463516,-0.019938385,0.21897852,-0.1755684,0.5363012,-9.969456,1.4556746
6.2412868,4.846424,-0.013546798,0.23282696,-0.17024209,0.34955344,-9.902418,1.3934253
6.2412343,4.846505,-0.013546798,0.23282696,-0.17024209,0.34955344,-9.902418,1.3934253
6.241235,4.846538,-0.009285741,0.24347961,-0.1638505,0.23942018,-9.888053,1.3838485
6.2412353,4.8465757,-0.009285741,0.24347961,-0.1638505,0.23942018,-9.888053,1.3838485
6.24125,4.8466096,-0.0050246827,0.25200173,-0.15426312,0.12928689,-9.840169,1.388637
6.241265,4.846644,-0.0050246827,0.25200173,-0.15426312,0.12928689,-9.840169,1.388637
6.2412953,4.8466434,-0.0007636249,0.25839332,-0.14467573,0,-9.811439,1.292869
6.241326,4.8466434,-0.0007636249,0.25839332,-0.14467573,0,-9.811439,1.292869
6.241367,4.8466673,0.001366904,0.2615891,-0.1340231,-0.05746084,-9.801862,1.3599066
6.2414083,4.846691,0.001366904,0.2615891,-0.1340231,-0.05746084,-9.801862,1.3599066
6.2414627,4.8466926,0.0024321685,0.26585016,-0.121239915,-0.18674773,-9.782708,1.2689269
6.2415175,4.8466945,0.0024321685,0.26585016,-0.121239915,-0.18674773,-9.782708,1.2689269
