Pitch,Roll,Gyro_X,Gyro_Y,Gyro_Z,Accel_X,Accel_Y,Accel_Z
6.241479,4.6651597,0.08126174,-0.01324912,0.040680278,0.8283938,-9.457097,-0.48841715
6.241388,4.665243,0.08126174,-0.01324912,0.049202394,0.8331822,-9.437943,-0.4405331
6.2413006,4.6653233,0.08126174,-0.01324912,0.049202394,0.8331822,-9.437943,-0.4405331
6.2412186,4.6654105,0.08126174,-0.015379649,0.056659244,0.842759,-9.394848,-0.4213795
6.2411366,4.6654973,0.08126174,-0.015379649,0.056659244,0.842759,-9.394848,-0.4213795
6.241062,4.665574,0.08126174,-0.015379649,0.06518136,0.8714894,-9.41879,-0.45489833
6.2409883,4.6656513,0.08126174,-0.015379649,0.06518136,0.8714894,-9.41879,-0.45489833
6.2409215,4.665737,0.08126174,-0.015379649,0.07263821,0.8858546,-9.399636,-0.4213795
6.240855,4.665823,0.08126174,-0.015379649,0.07263821,0.8858546,-9.399636,-0.4213795
6.2407994,4.665897,0.07913121,-0.016444914,0.08329086,0.8571242,-9.346964,-0.45010993
6.2407436,4.665971,0.07913121,-0.016444914,0.08329086,0.8571242,-9.346964,-0.45010993
6.240697,4.6660643,0.07700068,-0.016444914,0.089682445,0.8379706,-9.433155,-0.38307226
6.2406497,4.6661577,0.07700068,-0.016444914,0.089682445,0.8379706,-9.433155,-0.38307226
6.240607,4.6662493,0.074870154,-0.015379649,0.0939435,0.8283938,-9.428367,-0.38307226
6.240564,4.6663404,0.074870154,-0.015379649,0.0939435,0.8283938,-9.428367,-0.38307226
6.240526,4.6664257,0.07167436,-0.012183856,0.10033509,0.81402856,-9.423578,-0.39264908
6.240489,4.6665106,0.07167436,-0.012183856,0.10033509,0.81402856,-9.423578,-0.39264908
6.240456,4.6665735,0.0674133,-0.011118591,0.106726676,0.81402856,-9.399636,-0.44532153
6.240423,4.6666355,0.0674133,-0.011118591,0.106726676,0.81402856,-9.399636,-0.44532153
6.2403955,4.6666956,0.06315224,-0.008988062,0.112053,0.81402856,-9.437943,-0.4405331
6.240368,4.6667557,0.06315224,-0.008988062,0.112053,0.81402856,-9.437943,-0.4405331
6.2403445,4.6668015,0.05782592,-0.007922798,0.11524879,0.79966336,-9.437943,-0.46447513
6.2403207,4.666847,0.05782592,-0.007922798,0.11524879,0.79966336,-9.437943,-0.46447513
6.240304,4.666888,0.051434334,-0.005792269,0.12270564,0.7613561,-9.495404,-0.45968673
6.2402873,4.666929,0.051434334,-0.005792269,0.12270564,0.7613561,-9.495404,-0.45968673
6.240285,4.6670074,0.045042746,-0.00366174,0.12803197,0.7469909,-9.509769,-0.34476504
6.240282,4.6670866,0.045042746,-0.00366174,0.12803197,0.7469909,-9.509769,-0.34476504
6.2402773,4.6671257,0.03865116,-0.0015312112,0.13548881,0.7182605,-9.524135,-0.4309563
6.240273,4.667165,0.03865116,-0.0015312112,0.13548881,0.7182605,-9.524135,-0.4309563
6.2402806,4.667227,0.032259572,-0.0015312112,0.14081514,0.7182605,-9.557653,-0.36391866
6.2402883,4.667289,0.032259572,-0.0015312112,0.14081514,0.7182605,-9.557653,-0.36391866
6.240296,4.667334,0.026933251,0.0016645822,0.1450762,0.7038953,-9.56723,-0.39264908
6.2403035,4.66738,0.026933251,0.0016645822,0.1450762,0.7038953,-9.56723,-0.39264908
6.2403145,4.667409,0.018411135,0.00592564,0.15040252,0.6655881,-9.557653,-0.41180268
6.2403255,4.667438,0.018411135,0.00592564,0.15040252,0.6655881,-9.557653,-0.41180268
6.2403536,4.6674943,0.012019549,0.008056169,0.15359831,0.6751649,-9.605537,-0.33997664
6.2403817,4.66755,0.012019549,0.008056169,0.15359831,0.6751649,-9.605537,-0.33997664
6.2404017,4.667577,0.005627962,0.012317227,0.15785937,0.6464345,-9.605537,-0.39743748
6.240422,4.6676025,0.005627962,0.012317227,0.15785937,0.6464345,-9.605537,-0.39743748
6.2404413,4.6676,-0.0007636249,0.01551302,0.1599899,0.61770403,-9.639056,-0.4357447
6.2404604,4.667598,-0.0007636249,0.01551302,0.1599899,0.61770403,-9.639056,-0.4357447
6.2404857,4.667614,-0.008220476,0.01551302,0.16212043,0.61291564,-9.629479,-0.39743748
6.2405114,4.6676292,-0.008220476,0.01551302,0.16212043,0.61291564,-9.629479,-0.39743748
6.2405357,4.6676335,-0.013546798,0.017643549,0.16318569,0.6560113,-9.634268,-0.40222588
6.24056,4.6676373,-0.013546798,0.017643549,0.16318569,0.6560113,-9.634268,-0.40222588
6.2405844,4.667633,-0.017807856,0.019774077,0.16425095,0.6847417,-9.624691,-0.40701428
6.240609,4.667629,-0.017807856,0.019774077,0.16425095,0.6847417,-9.624691,-0.40701428
6.2406387,4.6676426,-0.021003649,0.021904606,0.16105516,0.6991069,-9.648633,-0.35913026
6.240667,4.6676555,-0.021003649,0.021904606,0.16105516,0.6991069,-9.648633,-0.35913026
6.2406864,4.667657,-0.024199443,0.024035135,0.1567941,0.6799533,-9.615114,-0.38307226
6.2407064,4.6676574,-0.024199443,0.024035135,0.1567941,0.6799533,-9.615114,-0.38307226
6.2407207,4.667643,-0.029525764,0.0251004,0.15359831,0.6560113,-9.639056,-0.40701428
6.2407346,4.667629,-0.029525764,0.0251004,0.15359831,0.6560113,-9.639056,-0.40701428
6.240754,4.6676354,-0.032721557,0.026165664,0.14933725,0.6607997,-9.667787,-0.35913026
6.240773,4.667642,-0.032721557,0.026165664,0.14933725,0.6607997,-9.667787,-0.35913026
6.240777,4.6676073,-0.034852087,0.026165664,0.1450762,0.6655881,-9.667787,-0.4357447
6.240781,4.667572,-0.034852087,0.026165664,0.1450762,0.6655881,-9.667787,-0.4357447
6.240786,4.6675677,-0.035917353,0.02723093,0.13974987,0.6799533,-9.677363,-0.37349546
6.240792,4.667563,-0.035917353,0.02723093,0.13974987,0.6799533,-9.677363,-0.37349546
6.2408032,4.6675706,-0.039113145,0.028296193,0.13655408,0.6703765,-9.68694,-0.33997664
6.240814,4.667578,-0.039113145,0.028296193,0.13655408,0.6703765,-9.68694,-0.33997664
6.2408266,4.667591,-0.04017841,0.028296193,0.13229302,0.61770403,-9.691729,-0.34476504
6.240839,4.667604,-0.04017841,0.028296193,0.13229302,0.61770403,-9.691729,-0.34476504
6.24084,4.6676064,-0.042308938,0.029361458,0.12803197,0.60812724,-9.720459,-0.36870706
6.240841,4.6676083,-0.042308938,0.029361458,0.12803197,0.60812724,-9.720459,-0.36870706
6.2408233,4.6675787,-0.04443947,0.029361458,0.12270564,0.60812724,-9.730036,-0.4165911
6.240806,4.667549,-0.04443947,0.029361458,0.12270564,0.60812724,-9.730036,-0.4165911
6.24079,4.6675277,-0.046569996,0.02723093,0.120575115,0.58897364,-9.744401,-0.40701428
6.240773,4.6675067,-0.046569996,0.02723093,0.120575115,0.58897364,-9.744401,-0.40701428
6.240763,4.667499,-0.04763526,0.02723093,0.119509846,0.59855044,-9.768343,-0.38307226
6.240753,4.667492,-0.04763526,0.02723093,0.119509846,0.59855044,-9.768343,-0.38307226
6.2407303,4.6674385,-0.049765788,0.02723093,0.118444584,0.61291564,-9.744401,-0.44532153
6.240708,4.667385,-0.049765788,0.02723093,0.118444584,0.61291564,-9.744401,-0.44532153
6.2406845,4.667344,-0.049765788,0.0251004,0.11737932,0.60333884,-9.696517,-0.4261679
6.240661,4.667304,-0.049765788,0.0251004,0.11737932,0.60333884,-9.696517,-0.4261679
6.2406416,4.6672297,-0.049765788,0.024035135,0.11737932,0.6512229,-9.730036,-0.48362875
6.240622,4.6671557,-0.049765788,0.024035135,0.11737932,0.6512229,-9.730036,-0.48362875
6.2405972,4.667099,-0.048700526,0.022969872,0.11631405,0.6703765,-9.706094,-0.45489833
6.2405725,4.6670427,-0.048700526,0.022969872,0.11631405,0.6703765,-9.706094,-0.45489833
6.240552,4.66697,-0.046569996,0.024035135,0.11524879,0.6895301,-9.710882,-0.49799395
6.2405314,4.6668973,-0.046569996,0.024035135,0.11524879,0.6895301,-9.710882,-0.49799395
6.2405033,4.6668653,-0.04443947,0.026165664,0.112053,0.6703765,-9.706094,-0.4213795
6.2404747,4.666833,-0.04443947,0.026165664,0.112053,0.6703765,-9.706094,-0.4213795
6.240441,4.666789,-0.041243672,0.026165664,0.106726676,0.6703765,-9.677363,-0.45010993
6.2404065,4.666744,-0.041243672,0.026165664,0.106726676,0.6703765,-9.677363,-0.45010993
6.240368,4.6667027,-0.03804788,0.02723093,0.103530884,0.6751649,-9.691729,-0.45010993
6.2403307,4.6666627,-0.03804788,0.02723093,0.103530884,0.6751649,-9.691729,-0.45010993
6.2402945,4.6666503,-0.033786822,0.02723093,0.10140035,0.61770403,-9.730036,-0.4165911
6.2402554,4.6666365,-0.033786822,0.02723093,0.10140035,0.61770403,-9.730036,-0.4165911
6.240216,4.6666055,-0.029525764,0.028296193,0.10140035,0.61291564,-9.715671,-0.45010993
6.2401776,4.666575,-0.029525764,0.028296193,0.10140035,0.61291564,-9.715671,-0.45010993
6.2401776,4.666575,-0.026329972,0.030426722,0.103530884,0.5506664,-9.749189,-0.45489833
6.2400947,4.6665015,-0.026329972,0.030426722,0.103530884,0.5506664,-9.749189,-0.45489833
6.2400885,4.666541,-0.025264706,0.031491987,0.103530884,0.5746084,-9.821015,-0.36391866
6.240083,4.666572,-0.025264706,0.031491987,0.103530884,0.5746084,-9.821015,-0.36391866
6.240048,4.666581,-0.024199443,0.03468778,0.102465615,0.5602432,-9.782708,-0.4165911
6.2400184,4.666589,-0.024199443,0.03468778,0.102465615,0.5602432,-9.782708,-0.4165911
6.2399855,4.666589,-0.02313418,0.033622514,0.104596145,0.545878,-9.811439,-0.4309563
6.2399855,4.666589,-0.02313418,0.033622514,0.104596145,0.545878,-9.811439,-0.4309563
6.239921,4.6666226,-0.022068914,0.033622514,0.10779194,0.5506664,-9.801862,-0.4165911
6.23991,4.6666284,-0.022068914,0.033622514,0.10779194,0.5506664,-9.801862,-0.4165911
6.2398796,4.6666093,-0.022068914,0.032557253,0.11098773,0.59376204,-9.758766,-0.44532153
6.239849,4.6665907,-0.022068914,0.032557253,0.11098773,0.59376204,-9.758766,-0.44532153
6.2398586,4.6666393,-0.021003649,0.031491987,0.11098773,0.5650316,-9.749189,-0.34955344
6.239869,4.6666965,-0.021003649,0.031491987,0.11098773,0.5650316,-9.749189,-0.34955344
6.239845,4.66669,-0.018873122,0.029361458,0.11098773,0.60333884,-9.787497,-0.4357447
6.239815,4.666682,-0.018873122,0.029361458,0.11098773,0.60333884,-9.787497,-0.4357447
6.2398005,4.6667147,-0.015677327,0.02723093,0.1088572,0.58897364,-9.768343,-0.38307226
6.239785,4.666748,-0.015677327,0.02723093,0.1088572,0.58897364,-9.768343,-0.38307226
6.239777,4.666787,-0.01674259,0.0251004,0.10992247,0.62728083,-9.725247,-0.34955344
6.2397695,4.666825,-0.01674259,0.0251004,0.10992247,0.62728083,-9.725247,-0.34955344
6.2397413,4.666834,-0.015677327,0.022969872,0.1088572,0.6368576,-9.739613,-0.40701428
6.239713,4.666843,-0.015677327,0.022969872,0.1088572,0.6368576,-9.739613,-0.40701428
6.2396793,4.666826,-0.012481534,0.020839343,0.106726676,0.6560113,-9.648633,-0.45010993
6.239645,4.666808,-0.012481534,0.020839343,0.106726676,0.6560113,-9.648633,-0.45010993
6.2396326,4.6668534,-0.010351005,0.020839343,0.104596145,0.61291564,-9.639056,-0.34955344
6.2396197,4.6668983,-0.010351005,0.020839343,0.104596145,0.61291564,-9.639056,-0.34955344
6.2395945,4.6669335,-0.008220476,0.017643549,0.10140035,0.62728083,-9.639056,-0.36870706
6.239569,4.6669693,-0.008220476,0.017643549,0.10140035,0.62728083,-9.639056,-0.36870706
6.2395287,4.666991,-0.0071552116,0.01551302,0.0939435,0.6512229,-9.610326,-0.3878607
6.239488,4.667013,-0.0071552116,0.01551302,0.0939435,0.6512229,-9.610326,-0.3878607
6.2394395,4.666996,-0.006089947,0.014447756,0.09074771,0.6943185,-9.595961,-0.45968673
6.23939,4.6669784,-0.006089947,0.014447756,0.09074771,0.6943185,-9.595961,-0.45968673
6.2393413,4.666996,-0.0050246827,0.014447756,0.088617176,0.6943185,-9.595961,-0.39264908
6.239293,4.6670136,-0.0050246827,0.014447756,0.088617176,0.6943185,-9.595961,-0.39264908
6.2392373,4.6670117,-0.0050246827,0.014447756,0.08542138,0.6895301,-9.610326,-0.4309563
6.2391825,4.667011,-0.0050246827,0.014447756,0.08542138,0.6895301,-9.610326,-0.4309563
6.239132,4.667031,-0.0071552116,0.013382491,0.08435612,0.7278373,-9.557653,-0.37349546
6.2390814,4.667051,-0.0071552116,0.013382491,0.08435612,0.7278373,-9.557653,-0.37349546
6.2390285,4.6670675,-0.008220476,0.013382491,0.08329086,0.7278373,-9.543288,-0.37828386
6.238976,4.667084,-0.008220476,0.013382491,0.08329086,0.7278373,-9.543288,-0.37828386
6.238941,4.667127,-0.009285741,0.010186698,0.08435612,0.6607997,-9.552865,-0.33039984
6.238906,4.6671696,-0.009285741,0.010186698,0.08435612,0.6607997,-9.552865,-0.33039984
6.2388506,4.667157,-0.012481534,0.010186698,0.08542138,0.6751649,-9.495404,-0.4309563
6.2387953,4.6671443,-0.012481534,0.010186698,0.08542138,0.6751649,-9.495404,-0.4309563
6.2387443,4.667142,-0.014612063,0.010186698,0.088617176,0.7182605,-9.524135,-0.40701428
6.2386937,4.667139,-0.014612063,0.010186698,0.088617176,0.7182605,-9.524135,-0.40701428
6.238647,4.6671014,-0.017807856,0.010186698,0.09074771,0.6847417,-9.481039,-0.46926352
6.2386,4.667063,-0.017807856,0.010186698,0.09074771,0.6847417,-9.481039,-0.46926352
6.238552,4.667042,-0.022068914,0.010186698,0.09287824,0.7326257,-9.495404,-0.4309563
6.2385044,4.6670203,-0.022068914,0.010186698,0.09287824,0.7326257,-9.495404,-0.4309563
6.238461,4.6669846,-0.025264706,0.010186698,0.09607403,0.7182605,-9.500193,-0.45489833
6.2384157,4.666948,-0.025264706,0.010186698,0.09607403,0.7182605,-9.500193,-0.45489833
6.2383866,4.666883,-0.029525764,0.010186698,0.10033509,0.7038953,-9.471462,-0.51235914
6.238356,4.666816,-0.029525764,0.010186698,0.10033509,0.7038953,-9.471462,-0.51235914
6.2383313,4.666748,-0.032721557,0.011251962,0.106726676,0.7038953,-9.423578,-0.50757074
6.2383065,4.66668,-0.032721557,0.011251962,0.106726676,0.7038953,-9.423578,-0.50757074
6.2382865,4.6666126,-0.03698262,0.012317227,0.11418352,0.7278373,-9.428367,-0.50278234
6.2382665,4.666545,-0.03698262,0.012317227,0.11418352,0.7278373,-9.428367,-0.50278234
6.2382565,4.6664686,-0.041243672,0.013382491,0.12164038,0.7326257,-9.428367,-0.51714754
6.238246,4.6663923,-0.041243672,0.013382491,0.12164038,0.7326257,-9.428367,-0.51714754
6.238232,4.6663504,-0.042308938,0.014447756,0.1269667,0.7326257,-9.433155,-0.4357447
6.2382183,4.6663084,-0.042308938,0.014447756,0.1269667,0.7326257,-9.433155,-0.4357447
6.2382154,4.6662407,-0.045504734,0.014447756,0.13442355,0.6991069,-9.471462,-0.48362875
6.2382126,4.6661725,-0.045504734,0.014447756,0.13442355,0.6991069,-9.471462,-0.48362875
6.23822,4.6660953,-0.046569996,0.01551302,0.14188041,0.6847417,-9.471462,-0.49799395
6.238228,4.6660194,-0.046569996,0.01551302,0.14188041,0.6847417,-9.471462,-0.49799395
6.2382355,4.665965,-0.045504734,0.017643549,0.148272,0.7182605,-9.437943,-0.45968673
6.2382436,4.6659102,-0.045504734,0.017643549,0.148272,0.7182605,-9.437943,-0.45968673
6.238261,4.6658535,-0.046569996,0.017643549,0.15785937,0.6895301,-9.514558,-0.46447513
6.238279,4.6657963,-0.046569996,0.017643549,0.15785937,0.6895301,-9.514558,-0.46447513
6.2383084,4.665721,-0.048700526,0.018708814,0.16531622,0.6943185,-9.504981,-0.49799395
6.2383375,4.6656456,-0.048700526,0.018708814,0.16531622,0.6943185,-9.504981,-0.49799395
6.23837,4.6655827,-0.05189632,0.019774077,0.17277306,0.6799533,-9.543288,-0.46926352
6.2384024,4.6655197,-0.05189632,0.019774077,0.17277306,0.6799533,-9.543288,-0.46926352
6.23845,4.665437,-0.052961584,0.020839343,0.18236046,0.7134721,-9.509769,-0.51235914
6.2384977,4.6653547,-0.052961584,0.020839343,0.18236046,0.7134721,-9.509769,-0.51235914
6.2385516,4.6652746,-0.05509211,0.021904606,0.19088256,0.6847417,-9.524135,-0.49799395
6.2386055,4.665196,-0.05509211,0.021904606,0.19088256,0.6847417,-9.524135,-0.49799395
6.2386684,4.6651115,-0.057222642,0.024035135,0.19833942,0.61291564,-9.504981,-0.48841715
6.2387304,4.665028,-0.057222642,0.024035135,0.19833942,0.61291564,-9.504981,-0.48841715
6.2388167,4.664913,-0.0614837,0.026165664,0.204731,0.61291564,-9.557653,-0.5410896
6.238902,4.6647987,-0.0614837,0.026165664,0.204731,0.61291564,-9.557653,-0.5410896
6.2389965,4.6646776,-0.06574476,0.028296193,0.21112259,0.5506664,-9.548077,-0.51714754
6.2390895,4.664558,-0.06574476,0.028296193,0.21112259,0.5506664,-9.548077,-0.51714754
6.2391877,4.664433,-0.07107108,0.029361458,0.21644892,0.5746084,-9.600749,-0.5315128
6.2392855,4.6643085,-0.07107108,0.029361458,0.21644892,0.5746084,-9.600749,-0.5315128
6.2393646,4.664221,-0.07426687,0.031491987,0.21964471,0.60333884,-9.634268,-0.48362875
6.2394443,4.6641335,-0.07426687,0.031491987,0.21964471,0.60333884,-9.634268,-0.48362875
6.239533,4.664018,-0.077462666,0.032557253,0.21964471,0.60333884,-9.648633,-0.521936
6.2396216,4.6639037,-0.077462666,0.032557253,0.21964471,0.60333884,-9.648633,-0.521936
6.239706,4.663802,-0.07852793,0.03468778,0.22177523,0.5506664,-9.677363,-0.49320555
6.239791,4.6637,-0.07852793,0.03468778,0.22177523,0.5506664,-9.677363,-0.49320555
6.2398725,4.663625,-0.0795932,0.035753045,0.22177523,0.58897364,-9.715671,-0.46926352
6.239952,4.6635513,-0.0795932,0.035753045,0.22177523,0.58897364,-9.715671,-0.46926352
6.24003,4.6634645,-0.07852793,0.037883572,0.21964471,0.59376204,-9.734824,-0.48841715
6.240108,4.6633787,-0.07852793,0.037883572,0.21964471,0.59376204,-9.734824,-0.48841715
6.240191,4.6633415,-0.075332135,0.037883572,0.21538365,0.5506664,-9.720459,-0.4405331
6.240275,4.6633043,-0.075332135,0.037883572,0.21538365,0.5506664,-9.720459,-0.4405331
6.240352,4.6632004,-0.07320161,0.03681831,0.21218786,0.5363012,-9.734824,-0.50757074
6.2404304,4.6630964,-0.07320161,0.03681831,0.21218786,0.5363012,-9.734824,-0.50757074
6.2404966,4.6630397,-0.07000581,0.037883572,0.2079268,0.5746084,-9.758766,-0.46926352
6.2405634,4.662983,-0.07000581,0.037883572,0.2079268,0.5746084,-9.758766,-0.46926352
6.240628,4.662895,-0.06574476,0.03681831,0.20260048,0.5554548,-9.768343,-0.50757074
6.240692,4.6628084,-0.06574476,0.03681831,0.20260048,0.5554548,-9.768343,-0.50757074
6.240748,4.662733,-0.060418434,0.03681831,0.1962089,0.5602432,-9.77792,-0.50278234
6.2408037,4.662658,-0.060418434,0.03681831,0.1962089,0.5602432,-9.77792,-0.50278234
6.2408543,4.662598,-0.05509211,0.03681831,0.19194783,0.5410896,-9.782708,-0.49320555
6.2409043,4.6625385,-0.05509211,0.03681831,0.19194783,0.5410896,-9.782708,-0.49320555
6.240962,4.662446,-0.05189632,0.03681831,0.1866215,0.51235914,-9.816227,-0.521936
6.241019,4.6623554,-0.05189632,0.03681831,0.1866215,0.51235914,-9.816227,-0.521936
6.241059,4.662297,-0.048700526,0.035753045,0.18129519,0.545878,-9.825804,-0.50278234
6.241099,4.662239,-0.048700526,0.035753045,0.18129519,0.545878,-9.825804,-0.50278234
6.241136,4.6621747,-0.045504734,0.033622514,0.17596887,0.521936,-9.77792,-0.50757074
6.241173,4.662111,-0.045504734,0.033622514,0.17596887,0.521936,-9.77792,-0.50757074
6.241214,4.6620326,-0.042308938,0.032557253,0.17277306,0.51235914,-9.801862,-0.521936
6.241254,4.661956,-0.042308938,0.032557253,0.17277306,0.51235914,-9.801862,-0.521936
6.241282,4.661925,-0.039113145,0.031491987,0.16957727,0.50757074,-9.768343,-0.48841715
6.24131,4.6618943,-0.039113145,0.031491987,0.16957727,0.50757074,-9.768343,-0.48841715
6.2413497,4.661816,-0.034852087,0.030426722,0.16638148,0.50278234,-9.773131,-0.5267244
6.241388,4.6617403,-0.034852087,0.030426722,0.16638148,0.50278234,-9.773131,-0.5267244
6.241413,4.6616845,-0.03059103,0.030426722,0.16212043,0.5410896,-9.787497,-0.521936
6.2414384,4.661629,-0.03059103,0.030426722,0.16212043,0.5410896,-9.787497,-0.521936
6.24149,4.6616697,-0.025264706,0.028296193,0.15892464,0.521936,-9.816227,-0.4309563
6.241541,4.6617103,-0.025264706,0.028296193,0.15892464,0.521936,-9.816227,-0.4309563
6.2415614,4.661663,-0.021003649,0.02723093,0.1567941,0.5506664,-9.816227,-0.5267244
6.2415814,4.6616163,-0.021003649,0.02723093,0.1567941,0.5506664,-9.816227,-0.5267244
6.241615,4.6615496,-0.015677327,0.0251004,0.15359831,0.5363012,-9.80665,-0.5554548
6.2416477,4.661482,-0.015677327,0.0251004,0.15359831,0.5363012,-9.80665,-0.5554548
6.241658,4.661468,-0.010351005,0.024035135,0.15146779,0.5793968,-9.849746,-0.50757074
6.241668,4.6614547,-0.010351005,0.024035135,0.15146779,0.5793968,-9.849746,-0.50757074
6.2417517,4.6615353,-0.006089947,0.021904606,0.15040252,0.5315128,-9.950302,-0.34476504
6.2418365,4.6616178,-0.006089947,0.021904606,0.15040252,0.5315128,-9.950302,-0.34476504
6.2418923,4.661694,0.00030163955,0.018708814,0.148272,0.50278234,-9.892841,-0.4261679
6.2419477,4.66177,0.00030163955,0.018708814,0.148272,0.50278234,-9.892841,-0.4261679
6.2419853,4.6618404,0.0066932263,0.01551302,0.14614145,0.51235914,-9.763555,-0.4309563
6.242022,4.66191,0.0066932263,0.01551302,0.14614145,0.51235914,-9.763555,-0.4309563
6.2420278,4.661943,0.0141500775,0.009121433,0.14401093,0.49320555,-9.715671,-0.47884035
6.2420335,4.661975,0.0141500775,0.009121433,0.14401093,0.49320555,-9.715671,-0.47884035
6.2420397,4.661972,0.02160693,0.0027298466,0.14188041,0.50757074,-9.653421,-0.50757074
6.2420454,4.6619687,0.02160693,0.0027298466,0.14188041,0.50757074,-9.653421,-0.50757074
6.242088,4.6619287,0.031194309,-0.00366174,0.14081514,0.59376204,-9.605537,-0.62728083
6.2421293,4.661889,0.031194309,-0.00366174,0.14081514,0.59376204,-9.605537,-0.62728083
6.2421618,4.661865,0.039716423,-0.007922798,0.14081514,0.6464345,-9.634268,-0.63206923
6.2421937,4.661842,0.039716423,-0.007922798,0.14081514,0.6464345,-9.634268,-0.63206923
6.242199,4.6618624,0.04610801,-0.010053327,0.14081514,0.6991069,-9.581595,-0.5410896
6.242204,4.6618834,0.04610801,-0.010053327,0.14081514,0.6991069,-9.581595,-0.5410896
6.242208,4.66191,0.05036907,-0.011118591,0.13974987,0.7422025,-9.65821,-0.5506664
6.2422123,4.6619344,0.05036907,-0.011118591,0.13974987,0.7422025,-9.65821,-0.5506664
6.242211,4.661977,0.0524996,-0.012183856,0.13761935,0.7086837,-9.639056,-0.51235914
6.2422094,4.662016,0.0524996,-0.012183856,0.13761935,0.7086837,-9.639056,-0.51235914
6.242206,4.662075,0.055695392,-0.012183856,0.13655408,0.6560113,-9.610326,-0.49799395
6.242204,4.662117,0.055695392,-0.012183856,0.13655408,0.6560113,-9.610326,-0.49799395
6.2422075,4.6621914,0.05995645,-0.012183856,0.14081514,0.62249243,-9.639056,-0.45489833
6.2422113,4.6622667,0.05995645,-0.012183856,0.14081514,0.62249243,-9.639056,-0.45489833
6.2422357,4.6623793,0.062086977,-0.014314385,0.14294566,0.5746084,-9.586384,-0.40222588
6.2422614,4.6624985,0.062086977,-0.014314385,0.14294566,0.5746084,-9.586384,-0.40222588
6.2422943,4.6626163,0.06315224,-0.017510178,0.14614145,0.61291564,-9.543288,-0.36391866
6.2423277,4.662736,0.06315224,-0.017510178,0.14614145,0.61291564,-9.543288,-0.36391866
6.2423706,4.662858,0.06315224,-0.021771235,0.15040252,0.641646,-9.524135,-0.32561144
6.242441,4.663059,0.06315224,-0.021771235,0.15040252,0.641646,-9.524135,-0.32561144
6.24245,4.6630964,0.06315224,-0.02496703,0.15253304,0.7230489,-9.543288,-0.38307226
6.242473,4.6631927,0.06315224,-0.02496703,0.15253304,0.7230489,-9.543288,-0.38307226
6.242525,4.663318,0.06528277,-0.029228088,0.15785937,0.6655881,-9.519346,-0.30166942
6.242578,4.6634464,0.06528277,-0.029228088,0.15785937,0.6655881,-9.519346,-0.30166942
6.2426286,4.6635714,0.06847856,-0.03242388,0.16212043,0.6655881,-9.528923,-0.32561144
6.2426786,4.6636953,0.06847856,-0.03242388,0.16212043,0.6655881,-9.528923,-0.32561144
6.2427154,4.663805,0.07167436,-0.035619672,0.16318569,0.6607997,-9.471462,-0.37828386
6.2427516,4.6639137,0.07167436,-0.035619672,0.16318569,0.6607997,-9.471462,-0.37828386
6.2427893,4.664018,0.074870154,-0.03988073,0.16851202,0.6607997,-9.514558,-0.39743748
6.242827,4.664122,0.074870154,-0.03988073,0.16851202,0.6607997,-9.514558,-0.39743748
6.242878,4.6642423,0.07806595,-0.045207053,0.17383833,0.6991069,-9.509769,-0.34955344
6.2429285,4.664362,0.07806595,-0.045207053,0.17383833,0.6991069,-9.509769,-0.34955344
6.2429876,4.6644864,0.08019647,-0.048402846,0.18022992,0.6512229,-9.466674,-0.35434186
6.2430468,4.6646104,0.08019647,-0.048402846,0.18022992,0.6512229,-9.466674,-0.35434186
6.2430997,4.664709,0.08445753,-0.052663904,0.18875204,0.7517793,-9.433155,-0.40701428
6.2431536,4.6648088,0.08445753,-0.052663904,0.18875204,0.7517793,-9.433155,-0.40701428
6.243219,4.6649218,0.08658806,-0.05692496,0.1962089,0.8331822,-9.370906,-0.34476504
6.2432847,4.6650357,0.08658806,-0.05692496,0.1962089,0.8331822,-9.370906,-0.34476504
6.2434154,4.6652026,0.08658806,-0.059055492,0.20366573,0.5506664,-9.461885,-0.25857377
6.243546,4.66537,0.08658806,-0.059055492,0.20366573,0.5506664,-9.461885,-0.25857377
6.243707,4.6655493,0.089783855,-0.06331655,0.21005733,0.47884035,-9.457097,-0.25857377
6.2438684,4.6657286,0.089783855,-0.06331655,0.21005733,0.47884035,-9.457097,-0.25857377
6.2440047,4.6658945,0.09084912,-0.06970814,0.21857944,0.60333884,-9.452309,-0.22984336
6.244141,4.6660604,0.09084912,-0.06970814,0.21857944,0.60333884,-9.452309,-0.22984336
6.2442436,4.6661882,0.091914386,-0.077164985,0.22710156,0.7278373,-9.375694,-0.32561144
6.244348,4.666319,0.091914386,-0.077164985,0.22710156,0.7278373,-9.375694,-0.32561144
6.244454,4.6664276,0.09297965,-0.08355658,0.23562367,0.79966336,-9.303867,-0.3878607
6.2445483,4.666524,0.09297965,-0.08355658,0.23562367,0.79966336,-9.303867,-0.3878607
6.2446566,4.666609,0.09511018,-0.08888289,0.24201526,0.7757214,-9.241618,-0.45010993
6.2447658,4.666694,0.09511018,-0.08888289,0.24201526,0.7757214,-9.241618,-0.45010993
6.244878,4.6668024,0.09937123,-0.09207869,0.24840684,0.7038953,-9.232041,-0.3878607
6.2449913,4.666911,0.09937123,-0.09207869,0.24840684,0.7038953,-9.232041,-0.3878607
6.245109,4.667009,0.10150176,-0.09633975,0.25373316,0.6751649,-9.227253,-0.4213795
6.245227,4.6671057,0.10150176,-0.09633975,0.25373316,0.6751649,-9.227253,-0.4213795
6.245352,4.6672235,0.104697555,-0.10060081,0.25799423,0.7038953,-9.227253,-0.37828386
6.2454753,4.6673393,0.104697555,-0.10060081,0.25799423,0.7038953,-9.227253,-0.37828386
6.245607,4.6674705,0.11002388,-0.1037966,0.26225528,0.78050977,-9.179369,-0.33518824
6.2457385,4.667601,0.11002388,-0.1037966,0.26225528,0.78050977,-9.179369,-0.33518824
6.2458754,4.667739,0.11748073,-0.108057655,0.26651633,0.7517793,-9.174581,-0.34476504
6.2460136,4.6678777,0.11748073,-0.108057655,0.26651633,0.7517793,-9.174581,-0.34476504
6.2461557,4.6680293,0.122807056,-0.11338398,0.2707774,0.7422025,-9.188946,-0.2873042
6.2462997,4.6681833,0.122807056,-0.11338398,0.2707774,0.7422025,-9.188946,-0.2873042
6.2464542,4.668348,0.12813337,-0.1187103,0.27610373,0.7326257,-9.155427,-0.2777274
6.2466083,4.6685123,0.12813337,-0.1187103,0.27610373,0.7326257,-9.155427,-0.2777274
6.246774,4.6686954,0.13772075,-0.1251019,0.28036478,0.7613561,-9.131485,-0.22505496
6.246939,4.6688776,0.13772075,-0.1251019,0.28036478,0.7613561,-9.131485,-0.22505496
6.2471075,4.6690655,0.1483734,-0.13468927,0.28675637,0.7613561,-9.107543,-0.24420857
6.2472754,4.669253,0.1483734,-0.13468927,0.28675637,0.7613561,-9.107543,-0.24420857
6.2474413,4.6694365,0.15902604,-0.14427665,0.29314795,0.79008657,-9.107543,-0.29209262
6.2476077,4.6696196,0.15902604,-0.14427665,0.29314795,0.79008657,-9.107543,-0.29209262
6.2477837,4.669818,0.17074396,-0.15599456,0.30060482,0.7230489,-9.069236,-0.29209262
6.247957,4.6700134,0.17074396,-0.15599456,0.30060482,0.7230489,-9.069236,-0.29209262
6.24814,4.6702223,0.18352713,-0.16771246,0.30806166,0.7086837,-9.136273,-0.29688102
6.248322,4.67043,0.18352713,-0.16771246,0.30806166,0.7086837,-9.136273,-0.29688102
6.2485166,4.6706557,0.19737557,-0.1815609,0.31764904,0.7182605,-9.093178,-0.2825158
6.248709,4.6708784,0.19737557,-0.1815609,0.31764904,0.7182605,-9.093178,-0.2825158
6.2489066,4.6710978,0.211224,-0.19753987,0.3272364,0.7422025,-9.016563,-0.33039984
6.2491035,4.671316,0.211224,-0.19753987,0.3272364,0.7422025,-9.016563,-0.33039984
6.249314,4.671536,0.2261377,-0.2145841,0.33895433,0.8475474,-8.978256,-0.37828386
6.2495184,4.671749,0.2261377,-0.2145841,0.33895433,0.8475474,-8.978256,-0.37828386
6.249743,4.6720004,0.2410514,-0.23162833,0.3517375,0.8331822,-9.035717,-0.30645782
6.2499638,4.672247,0.2410514,-0.23162833,0.3517375,0.8331822,-9.035717,-0.30645782
6.2502003,4.672508,0.25489986,-0.24973783,0.36558592,0.9720459,-8.939949,-0.2873042
6.250436,4.672767,0.25489986,-0.24973783,0.36558592,0.9720459,-8.939949,-0.2873042
6.2506986,4.673067,0.27087882,-0.26784733,0.37943438,0.92895025,-8.939949,-0.19153613
6.2509494,4.673353,0.27087882,-0.26784733,0.37943438,0.92895025,-8.939949,-0.19153613
6.251229,4.6736765,0.28685778,-0.28489155,0.3911523,0.89064306,-9.011775,-0.12928689
6.251516,4.6740093,0.28685778,-0.28489155,0.3911523,0.89064306,-9.011775,-0.12928689
6.251797,4.674324,0.30283675,-0.30087054,0.406066,1.0582372,-9.006987,-0.22505496
6.2520795,4.674639,0.30283675,-0.30087054,0.406066,1.0582372,-9.006987,-0.22505496
6.2523785,4.6749654,0.32094625,-0.31471896,0.42311022,1.2210429,-8.959103,-0.2633622
6.252673,4.6752863,0.32094625,-0.31471896,0.42311022,1.2210429,-8.959103,-0.2633622
6.2529964,4.6756525,0.3369252,-0.3253716,0.43908918,0.9672575,-9.045294,-0.10055647
6.253324,4.676024,0.3369252,-0.3253716,0.43908918,0.9672575,-9.045294,-0.10055647
6.2536764,4.67642,0.35290417,-0.334959,0.45719868,0.7469909,-9.021352,-0.10055647
6.254033,4.6768208,0.35290417,-0.334959,0.45719868,0.7469909,-9.021352,-0.10055647
6.2544193,4.677246,0.36888313,-0.3466769,0.47530818,0.6607997,-9.059659,-0.033518825
6.25481,4.6776757,0.36888313,-0.3466769,0.47530818,0.6607997,-9.059659,-0.033518825
6.2552137,4.678113,0.38592738,-0.35946006,0.49980927,0.7038953,-9.112331,-0.05746084
6.255619,4.6785517,0.38592738,-0.35946006,0.49980927,0.7038953,-9.112331,-0.05746084
6.2560472,4.6790023,0.4008411,-0.3733085,0.52644086,0.6847417,-9.050082,-0.10534488
6.256464,4.6794415,0.4008411,-0.3733085,0.52644086,0.6847417,-9.050082,-0.10534488
6.2569003,4.67988,0.41362426,-0.38502643,0.55413777,0.7134721,-9.11712,-0.16759412
6.2573524,4.6803355,0.41362426,-0.38502643,0.55413777,0.7134721,-9.11712,-0.16759412
6.2578006,4.6807694,0.42640743,-0.39567906,0.58289987,0.6655881,-9.088389,-0.18674773
6.258263,4.6812162,0.42640743,-0.39567906,0.58289987,0.6655881,-9.088389,-0.18674773
6.258751,4.6816683,0.43492955,-0.40526643,0.6095315,0.7134721,-9.198523,-0.19153613
6.259238,4.6821194,0.43492955,-0.40526643,0.6095315,0.7134721,-9.198523,-0.19153613
6.259748,4.682571,0.4423864,-0.41165802,0.6361631,0.7278373,-9.246407,-0.20590134
6.2602606,4.6830244,0.4423864,-0.41165802,0.6361631,0.7278373,-9.246407,-0.20590134
6.2608027,4.683489,0.44558218,-0.4148538,0.66172945,0.60812724,-9.332599,-0.20111294
6.261338,4.683947,0.44558218,-0.4148538,0.66172945,0.60812724,-9.332599,-0.20111294
6.2618923,4.684391,0.44558218,-0.4159191,0.68410003,0.44532153,-9.437943,-0.25378537
6.2624497,4.6848354,0.44558218,-0.4159191,0.68410003,0.44532153,-9.437943,-0.25378537
6.263031,4.685243,0.44558218,-0.41698435,0.7054053,0.36391866,-9.471462,-0.29688102
6.263614,4.685651,0.44558218,-0.41698435,0.7054053,0.36391866,-9.471462,-0.29688102
6.264344,4.6859865,0.44345164,-0.4180496,0.7256453,0.19153613,-9.5385,-0.36391866
6.2650723,4.686324,0.44345164,-0.4180496,0.7256453,0.19153613,-9.5385,-0.36391866
6.2658505,4.6866584,0.44025585,-0.4212454,0.7437548,0.1388637,-9.610326,-0.38307226
6.2666273,4.6869946,0.44025585,-0.4212454,0.7437548,0.1388637,-9.610326,-0.38307226
6.267439,4.6873293,0.43492955,-0.42337593,0.76079905,0.10534488,-9.615114,-0.40222588
6.2682195,4.687653,0.43492955,-0.42337593,0.76079905,0.10534488,-9.615114,-0.40222588
6.268999,4.6879835,0.43066847,-0.42657173,0.7746475,0.18195933,-9.509769,-0.46926352
6.2697406,4.6883,0.43066847,-0.42657173,0.7746475,0.18195933,-9.509769,-0.46926352
6.270481,4.6886253,0.4242769,-0.42976752,0.7842349,0.25857377,-9.605537,-0.45968673
6.271245,4.688964,0.4242769,-0.42976752,0.7842349,0.25857377,-9.605537,-0.45968673
6.2721744,4.6894093,0.4178853,-0.43189806,0.78743064,-0.01436521,-9.758766,-0.19632454
6.2731085,4.689855,0.4178853,-0.43189806,0.78743064,-0.01436521,-9.758766,-0.19632454
6.273999,4.690332,0.41362426,-0.43509385,0.7895612,-0.21547815,-9.888053,0.0047884034
6.2748985,4.690814,0.41362426,-0.43509385,0.7895612,-0.21547815,-9.888053,0.0047884034
6.2757964,4.691298,0.41149372,-0.44148543,0.7884959,-0.21547815,-9.902418,0.01436521
6.2766795,4.691775,0.41149372,-0.44148543,0.7884959,-0.21547815,-9.902418,0.01436521
6.2775555,4.6922636,0.4146895,-0.45213807,0.78530014,-0.18195933,-10.01734,0.023942016
6.278439,4.692758,0.4146895,-0.45213807,0.78530014,-0.18195933,-10.01734,0.023942016
6.279333,4.693244,0.41895056,-0.46172544,0.78103906,-0.23942018,-10.113108,-0.009576807
6.2802234,4.693728,0.41895056,-0.46172544,0.78103906,-0.23942018,-10.113108,-0.009576807
6.281121,4.694204,0.42534214,-0.4691823,0.77677804,-0.18195933,-10.199299,-0.090979666
6.2820067,4.6946745,0.42534214,-0.4691823,0.77677804,-0.18195933,-10.199299,-0.090979666
6.2828856,4.6951876,0.42960322,-0.47663915,0.76719064,-0.10055647,-10.232818,-0.08619126
0.00056278484,4.695693,0.42960322,-0.47663915,0.76719064,-0.10055647,-10.232818,-0.08619126
0.0014536672,4.696184,0.432799,-0.48409602,0.75227696,-0.1388637,-10.309433,-0.11492168
0.0023204181,4.696661,0.432799,-0.48409602,0.75227696,-0.1388637,-10.309433,-0.11492168
0.0031920346,4.69711,0.43492955,-0.4872918,0.73629797,-0.16280572,-10.28549,-0.1436521
0.0040828115,4.697566,0.43492955,-0.4872918,0.73629797,-0.16280572,-10.28549,-0.1436521
0.0049504167,4.697998,0.43492955,-0.48835707,0.71818846,-0.25857377,-10.342952,-0.16280572
0.005814965,4.6984262,0.43492955,-0.48835707,0.71818846,-0.25857377,-10.342952,-0.16280572
0.0066612237,4.698854,0.43173376,-0.4904876,0.6990137,-0.41180268,-10.333375,-0.16280572
0.0075028054,4.699278,0.43173376,-0.4904876,0.6990137,-0.41180268,-10.333375,-0.16280572
0.008325679,4.6997375,0.42747268,-0.4936834,0.67983896,-0.45010993,-10.400413,-0.062249243
0.009143871,4.7001934,0.42747268,-0.4936834,0.67983896,-0.45010993,-10.400413,-0.062249243
0.009943086,4.7006483,0.42214635,-0.4968792,0.65959895,-0.49799395,-10.453085,-0.04309563
0.0107464455,4.701105,0.42214635,-0.4968792,0.65959895,-0.49799395,-10.453085,-0.04309563
0.011504901,4.701586,0.41575477,-0.500075,0.64361995,-0.4261679,-10.496181,0.05267244
0.012261729,4.702066,0.41575477,-0.500075,0.64361995,-0.4261679,-10.496181,0.05267244
0.012966277,4.7025657,0.40829793,-0.50327075,0.6265757,-0.30645782,-10.534488,0.10055647
0.013666146,4.703064,0.40829793,-0.50327075,0.6265757,-0.30645782,-10.534488,0.10055647
0.014347283,4.70356,0.40190634,-0.50327075,0.60527045,-0.36870706,-10.5680065,0.17717093
0.015023411,4.704053,0.40190634,-0.50327075,0.60527045,-0.36870706,-10.5680065,0.17717093
0.015678853,4.704538,0.39551476,-0.500075,0.5860957,-0.37349546,-10.572795,0.17238252
0.01635978,4.7050424,0.39551476,-0.500075,0.5860957,-0.37349546,-10.572795,0.17238252
0.01635978,4.7050424,0.39551476,-0.500075,0.5860957,-0.37349546,-10.572795,0.17238252
0.017995331,4.7062383,0.38060105,-0.4936834,0.54881144,-0.6655881,-10.649409,0.37349546
0.018323895,4.70648,0.38060105,-0.4936834,0.54881144,-0.6655881,-10.649409,0.37349546
0.01893696,4.7069306,0.38060105,-0.4936834,0.54881144,-0.6655881,-10.649409,0.37349546
0.019578008,4.7073903,0.3731442,-0.4904876,0.5317672,-0.7326257,-10.630256,0.32561144
0.02020877,4.7078433,0.3731442,-0.4904876,0.5317672,-0.7326257,-10.630256,0.32561144
0.020837197,4.7083035,0.36355683,-0.48835707,0.51791877,-0.6368576,-10.572795,0.29688102
0.021521451,4.7088056,0.36355683,-0.48835707,0.51791877,-0.6368576,-10.572795,0.29688102
0.022141486,4.7092733,0.35183892,-0.4872918,0.5051356,-0.56982,-10.520123,0.30645782
0.022584604,4.709608,0.35183892,-0.4872918,0.5051356,-0.56982,-10.520123,0.30645782
0.023125187,4.710039,0.3369252,-0.48516127,0.4902219,-0.44532153,-10.453085,0.29688102
0.023680301,4.7104826,0.3369252,-0.48516127,0.4902219,-0.44532153,-10.453085,0.29688102
0.024191206,4.7109065,0.3188157,-0.47983494,0.4721124,-0.34476504,-10.371682,0.22026655
0.024700616,4.711331,0.3188157,-0.47983494,0.4721124,-0.34476504,-10.371682,0.22026655
0.025139447,4.7117395,0.29751042,-0.4755739,0.45293763,-0.22505496,-10.342952,0.17717093
0.025573583,4.7121463,0.29751042,-0.4755739,0.45293763,-0.22505496,-10.342952,0.17717093
0.025935853,4.712516,0.27300933,-0.47024757,0.43376285,-0.10055647,-10.362105,0.19153613
0.026297139,4.712886,0.27300933,-0.47024757,0.43376285,-0.10055647,-10.362105,0.19153613
0.026653767,4.7132435,0.24850826,-0.46385598,0.4145881,-0.1436521,-10.271125,0.16280572
0.026984485,4.7135773,0.24850826,-0.46385598,0.4145881,-0.1436521,-10.271125,0.16280572
0.027319858,4.7139034,0.22187665,-0.45639914,0.39221755,-0.1388637,-10.275913,0.22026655
0.027646786,4.7142234,0.22187665,-0.45639914,0.39221755,-0.1388637,-10.275913,0.22026655
0.027977938,4.714522,0.19204924,-0.45213807,0.36771646,-0.17717093,-10.28549,0.31603462
0.028308887,4.714822,0.19204924,-0.45213807,0.36771646,-0.17717093,-10.28549,0.31603462
0.028602712,4.71509,0.1632871,-0.44787702,0.34428066,-0.1340753,-10.223241,0.31603462
0.028895462,4.715357,0.1632871,-0.44787702,0.34428066,-0.1340753,-10.223241,0.31603462
0.029155778,4.715594,0.1366555,-0.44361597,0.32510588,-0.033518825,-10.175357,0.3878607
0.029415151,4.7158303,0.1366555,-0.44361597,0.32510588,-0.033518825,-10.175357,0.3878607
0.029642643,4.716035,0.10895862,-0.4393549,0.3038006,-0.047884032,-10.127473,0.31124622
0.029875476,4.716245,0.10895862,-0.4393549,0.3038006,-0.047884032,-10.127473,0.31124622
0.03009665,4.7164288,0.08126174,-0.43509385,0.28356057,-0.076614454,-10.0508585,0.34955344
0.030307718,4.716604,0.08126174,-0.43509385,0.28356057,-0.076614454,-10.0508585,0.34955344
0.030481841,4.716747,0.054630127,-0.42976752,0.26651633,-0.090979666,-10.070012,0.22026655
0.030652972,4.716887,0.054630127,-0.42976752,0.26651633,-0.090979666,-10.070012,0.22026655
0.030805767,4.717001,0.027998514,-0.42550647,0.24840684,-0.076614454,-10.041282,0.22505496
0.030960098,4.7171164,0.027998514,-0.42550647,0.24840684,-0.076614454,-10.041282,0.22505496
0.031129368,4.7172194,0.0024321685,-0.4244412,0.2345584,-0.15801731,-10.113108,0.2633622
0.031304713,4.7173266,0.0024321685,-0.4244412,0.2345584,-0.15801731,-10.113108,0.2633622
0.03145136,4.717405,-0.017807856,-0.42550647,0.2228405,-0.090979666,-10.0508585,0.33039984
0.03160315,4.7174854,-0.017807856,-0.42550647,0.2228405,-0.090979666,-10.0508585,0.33039984
0.031703256,4.7175226,-0.034852087,-0.42870227,0.21325313,0.019153614,-10.0508585,0.22505496
0.031806286,4.717561,-0.034852087,-0.42870227,0.21325313,0.019153614,-10.0508585,0.22505496
0.031875376,4.717558,-0.050831053,-0.4329633,0.204731,0.04309563,-9.969456,0.1436521
0.031944375,4.717554,-0.050831053,-0.4329633,0.204731,0.04309563,-9.969456,0.1436521
0.031999387,4.717513,-0.05935317,-0.4361591,0.19727415,0.07182605,-9.89763,0.062249243
0.032055214,4.7174716,-0.05935317,-0.4361591,0.19727415,0.07182605,-9.89763,0.062249243
0.03210956,4.717396,-0.06574476,-0.4372244,0.1930131,0.05746084,-9.873688,-0.019153614
0.03216514,4.717318,-0.06574476,-0.4372244,0.1930131,0.05746084,-9.873688,-0.019153614
0.03224549,4.7171974,-0.06894055,-0.4393549,0.18875204,0.062249243,-9.878476,-0.18674773
0.03232539,4.7170773,-0.06894055,-0.4393549,0.18875204,0.062249243,-9.878476,-0.18674773
0.032422286,4.716941,-0.07107108,-0.44361597,0.1866215,0.02873042,-9.916783,-0.25857377
0.032516733,4.716808,-0.07107108,-0.44361597,0.1866215,0.02873042,-9.916783,-0.25857377
0.032625034,4.7166653,-0.07426687,-0.44787702,0.18981731,0.0047884034,-10.01734,-0.30166942
0.032732997,4.7165236,-0.07426687,-0.44787702,0.18981731,0.0047884034,-10.01734,-0.30166942
0.032860074,4.7163715,-0.076397404,-0.4510728,0.19194783,0.0047884034,-10.0508585,-0.4309563
0.03298647,4.7162204,-0.076397404,-0.4510728,0.19194783,0.0047884034,-10.0508585,-0.4309563
0.033139475,4.7160616,-0.0795932,-0.45533386,0.19833942,-0.08619126,-10.0987425,-0.5315128
0.033295766,4.7158995,-0.0795932,-0.45533386,0.19833942,-0.08619126,-10.0987425,-0.5315128
0.03346386,4.7157316,-0.08598478,-0.45852965,0.2079268,-0.05267244,-10.127473,-0.6799533
0.033631377,4.715564,-0.08598478,-0.45852965,0.2079268,-0.05267244,-10.127473,-0.6799533
0.033824652,4.7153873,-0.092376366,-0.4606602,0.21751417,-0.15322891,-10.160992,-0.78529817
0.034017738,4.7152104,-0.092376366,-0.4606602,0.21751417,-0.15322891,-10.160992,-0.78529817
0.034218322,4.7150245,-0.10196375,-0.46385598,0.2260363,-0.1388637,-10.160992,-0.82360536
0.03441893,4.7148385,-0.10196375,-0.46385598,0.2260363,-0.1388637,-10.160992,-0.82360536
0.034628257,4.7146435,-0.11155113,-0.46598652,0.23562367,-0.062249243,-10.189722,-1.1444284
0.034837887,4.7144475,-0.11155113,-0.46598652,0.23562367,-0.062249243,-10.189722,-1.1444284
0.035044912,4.7142434,-0.121138506,-0.4691823,0.24201526,0.08619126,-10.170568,-1.2737153
0.03525166,4.71404,-0.121138506,-0.4691823,0.24201526,0.08619126,-10.170568,-1.2737153
0.035453495,4.7138276,-0.12966062,-0.47131285,0.2441458,0.24899697,-10.0987425,-1.3934253
0.035654463,4.713617,-0.12966062,-0.47131285,0.2441458,0.24899697,-10.0987425,-1.3934253
0.03584502,4.713398,-0.13818274,-0.47131285,0.23881947,0.37828386,-10.0987425,-1.4939818
0.036036257,4.7131786,-0.13818274,-0.47131285,0.23881947,0.37828386,-10.0987425,-1.4939818
0.036216367,4.712954,-0.14457433,-0.47024757,0.22816682,0.33039984,-9.998186,-1.4173675
0.036396988,4.7127295,-0.14457433,-0.47024757,0.22816682,0.33039984,-9.998186,-1.4173675
0.03655445,4.7124996,-0.14990065,-0.46811703,0.2079268,0.31603462,-9.888053,-1.2880806
0.036734354,4.7122383,-0.14990065,-0.46811703,0.2079268,0.31603462,-9.888053,-1.2880806
0.036853433,4.7120347,-0.15096591,-0.4691823,0.18236046,0.22984336,-9.768343,-1.1923125
0.036984626,4.71181,-0.15096591,-0.4691823,0.18236046,0.22984336,-9.768343,-1.1923125
0.03709239,4.711586,-0.1456396,-0.4691823,0.15572885,0.17717093,-9.653421,-1.0630256
0.037198134,4.7113647,-0.1456396,-0.4691823,0.15572885,0.17717093,-9.653421,-1.0630256
0.037271123,4.711151,-0.13711748,-0.47131285,0.1269667,0.1340753,-9.629479,-0.8571242
0.037345894,4.7109323,-0.13711748,-0.47131285,0.1269667,0.1340753,-9.629479,-0.8571242
0.03738278,4.710735,-0.12646483,-0.47344336,0.09926982,0.1340753,-9.591172,-0.7278373
0.03741957,4.7105374,-0.12646483,-0.47344336,0.09926982,0.1340753,-9.591172,-0.7278373
0.037415642,4.7103543,-0.11368166,-0.47663915,0.07263821,0.15322891,-9.619903,-0.5793968
0.037411742,4.7101746,-0.11368166,-0.47663915,0.07263821,0.15322891,-9.619903,-0.5793968
0.03738565,4.7100086,-0.09770269,-0.4787697,0.04813713,0.19153613,-9.552865,-0.6464345
0.03735946,4.709843,-0.09770269,-0.4787697,0.04813713,0.19153613,-9.552865,-0.6464345
0.037305817,4.709696,-0.08278899,-0.48090023,0.027897105,0.2777274,-9.557653,-0.6560113
0.03725224,4.709549,-0.08278899,-0.48090023,0.027897105,0.2777274,-9.557653,-0.6560113
0.037199378,4.7094116,-0.06467949,-0.48196548,0.011918138,0.20590134,-9.500193,-0.79008657
0.0371458,4.7092724,-0.06467949,-0.48196548,0.011918138,0.20590134,-9.500193,-0.79008657
0.037099283,4.709146,-0.048700526,-0.48303074,0.00020022877,0.090979666,-9.514558,-0.90979666
0.03705344,4.7090216,-0.048700526,-0.48303074,0.00020022877,0.090979666,-9.514558,-0.90979666
0.03700078,4.708909,-0.034852087,-0.4872918,-0.004060829,0.15322891,-9.514558,-0.9911995
0.036947973,4.7087965,-0.034852087,-0.4872918,-0.004060829,0.15322891,-9.514558,-0.9911995
0.036890086,4.7087,-0.021003649,-0.4958139,-0.0029955646,0.23463176,-9.595961,-1.0055647
0.036832303,4.708604,-0.021003649,-0.4958139,-0.0029955646,0.23463176,-9.595961,-1.0055647
0.03677739,4.708524,-0.0071552116,-0.50646657,0.0065918155,0.32561144,-9.65821,-1.0199299
0.036721922,4.708443,-0.0071552116,-0.50646657,0.0065918155,0.32561144,-9.65821,-1.0199299
0.036681432,4.708374,0.0066932263,-0.51498866,0.023636047,0.30166942,-9.682152,-0.9720459
0.036643986,4.70831,0.0066932263,-0.51498866,0.023636047,0.30166942,-9.682152,-0.9720459
0.036630474,4.7082562,0.019476399,-0.52138025,0.04387607,0.2825158,-9.749189,-1.0342951
0.036616825,4.7082024,0.019476399,-0.52138025,0.04387607,0.2825158,-9.749189,-1.0342951
0.036644787,4.7081566,0.032259572,-0.5256413,0.06944242,0.08619126,-9.753978,-1.0247183
0.036672715,4.708112,0.032259572,-0.5256413,0.06944242,0.08619126,-9.753978,-1.0247183
0.036752462,4.7080736,0.04291222,-0.52457607,0.106726676,-0.05746084,-9.77792,-1.067814
0.03683222,4.7080364,0.04291222,-0.52457607,0.106726676,-0.05746084,-9.77792,-1.067814
0.036973096,4.708005,0.05036907,-0.52244556,0.15040252,-0.24420857,-9.868899,-1.0821792
0.037114136,4.707973,0.05036907,-0.52244556,0.15040252,-0.24420857,-9.868899,-1.0821792
0.037312433,4.707942,0.051434334,-0.5181845,0.20153521,-0.30166942,-9.821015,-1.2497733
0.037510563,4.7079105,0.051434334,-0.5181845,0.20153521,-0.30166942,-9.821015,-1.2497733
0.037772845,4.7078743,0.047173277,-0.50966233,0.26012474,-0.35913026,-9.859323,-1.2785037
0.038034115,4.707839,0.047173277,-0.50966233,0.26012474,-0.35913026,-9.859323,-1.2785037
0.03836255,4.7077923,0.03652063,-0.4958139,0.32191008,-0.4261679,-9.840169,-1.2785037
0.038690712,4.7077456,0.03652063,-0.4958139,0.32191008,-0.4261679,-9.840169,-1.2785037
0.039079554,4.7076783,0.016280606,-0.47663915,0.38689122,-0.37828386,-9.840169,-1.1923125
0.03946769,4.707611,0.016280606,-0.47663915,0.38689122,-0.37828386,-9.840169,-1.1923125
0.03993172,4.707513,-0.0114162695,-0.45320335,0.45293763,-0.34955344,-9.763555,-1.1827357
0.040371474,4.7074203,-0.0114162695,-0.45320335,0.45293763,-0.34955344,-9.763555,-1.1827357
0.040883873,4.7072906,-0.045504734,-0.42231068,0.5200493,-0.29688102,-9.691729,-1.1540052
0.041400492,4.7071595,-0.045504734,-0.42231068,0.5200493,-0.29688102,-9.691729,-1.1540052
0.04198364,4.7069845,-0.089180574,-0.38076535,0.58289987,-0.3878607,-9.639056,-1.091756
0.042566292,4.7068095,-0.089180574,-0.38076535,0.58289987,-0.3878607,-9.639056,-1.091756
0.043218836,4.7065825,-0.14031327,-0.33069792,0.6404242,-0.49320555,-9.639056,-0.8619126
0.043870077,4.7063556,-0.14031327,-0.33069792,0.6404242,-0.49320555,-9.639056,-0.8619126
0.044597786,4.706066,-0.20209861,-0.27210838,0.69475263,-0.62728083,-9.629479,-0.7326257
0.04532395,4.705777,-0.20209861,-0.27210838,0.69475263,-0.62728083,-9.629479,-0.7326257
0.046133604,4.705421,-0.27347133,-0.20499672,0.74908113,-0.8619126,-9.696517,-0.7182605
0.046942648,4.705065,-0.27347133,-0.20499672,0.74908113,-0.8619126,-9.696517,-0.7182605
0.04782119,4.704628,-0.35656196,-0.12829769,0.8012791,-1.0821792,-9.749189,-0.770933
0.048698485,4.7041917,-0.35656196,-0.12829769,0.8012791,-1.0821792,-9.749189,-0.770933
0.049639482,4.7036586,-0.45456627,-0.040945996,0.85028124,-1.3263878,-9.92636,-0.8283938
0.05057839,4.703127,-0.45456627,-0.040945996,0.85028124,-1.3263878,-9.92636,-0.8283938
0.05157158,4.7024803,-0.5674843,0.05173201,0.89821815,-1.5466543,-10.070012,-0.91937345
0.052564636,4.701833,-0.5674843,0.05173201,0.89821815,-1.5466543,-10.070012,-0.91937345
0.053605188,4.7010527,-0.69638133,0.1508016,0.9461551,-1.7860745,-10.19451,-1.0821792
0.054648675,4.70027,-0.69638133,0.1508016,0.9461551,-1.7860745,-10.19451,-1.0821792
0.05572569,4.699336,-0.840192,0.253067,0.99089617,-1.8531121,-10.299856,-1.2689269
0.05680349,4.6984,-0.840192,0.253067,0.99089617,-1.8531121,-10.299856,-1.2689269
0.057911724,4.6973047,-0.99252486,0.35533237,1.0249846,-1.910573,-10.386047,-1.3599066
0.059019573,4.6962085,-0.99252486,0.35533237,1.0249846,-1.910573,-10.386047,-1.3599066
0.060156107,4.6949477,-1.1512493,0.4597283,1.0516162,-1.9440918,-10.433931,-1.3215994
0.061289843,4.693689,-1.1512493,0.4597283,1.0516162,-1.9440918,-10.433931,-1.3215994
0.06244667,4.6922655,-1.3110389,0.56732,1.0697258,-2.0446482,-10.505757,-1.2689269
0.063602865,4.690842,-1.3110389,0.56732,1.0697258,-2.0446482,-10.505757,-1.2689269
0.064774185,4.6892633,-1.4697633,0.67704225,1.0739868,-2.1787236,-10.58716,-1.0773908
0.06594369,4.687686,-1.4697633,0.67704225,1.0739868,-2.1787236,-10.58716,-1.0773908
0.06712086,4.6859546,-1.6263572,0.7867645,1.0686605,-2.3463178,-10.793061,-0.8762778
0.068294846,4.684226,-1.6263572,0.7867645,1.0686605,-2.3463178,-10.793061,-0.8762778
0.069667384,4.6820173,-1.7722985,0.897552,1.0548121,-2.566584,-11.089942,-0.7661445
0.07064492,4.680443,-1.7722985,0.897552,1.0548121,-2.566584,-11.089942,-0.7661445
0.07179655,4.6784067,-1.9097176,1.006209,1.030311,-2.834735,-11.444284,-0.6847417
0.07179655,4.6784067,-1.9097176,1.006209,1.030311,-2.834735,-11.444284,-0.6847417
0.076242544,4.670195,-2.16112,1.2150007,0.96852565,-3.7014358,-12.440272,-0.6655881
0.076242544,4.670195,-2.16112,1.2150007,0.96852565,-3.7014358,-12.440272,-0.6655881
0.076242544,4.670195,-2.16112,1.2150007,0.96852565,-3.7014358,-12.440272,-0.6655881
0.077344455,4.667828,-2.16112,1.2150007,0.96852565,-3.7014358,-12.440272,-0.6655881
0.07832714,4.665511,-2.2761686,1.3087441,0.93443716,-4.185065,-13.005303,-0.7374141
0.079339996,4.6631155,-2.2761686,1.3087441,0.93443716,-4.185065,-13.005303,-0.7374141
0.080272116,4.660705,-2.3848255,1.3950305,0.9003487,-4.6686935,-13.637373,-0.7565677
0.08123826,4.6581964,-2.3848255,1.3950305,0.9003487,-4.6686935,-13.637373,-0.7565677
0.08215731,4.655592,-2.4902866,1.47386,0.8673255,-5.209783,-14.216769,-0.7757214
0.083075024,4.6529794,-2.4902866,1.47386,0.8673255,-5.209783,-14.216769,-0.7757214
0.08395351,4.6502724,-2.5872257,1.5452328,0.83962864,-5.81791,-14.901511,-0.79008657
0.08524008,4.646282,-2.5872257,1.5452328,0.83962864,-5.81791,-14.901511,-0.79008657
0.08567869,4.644818,-2.6799037,1.6102139,0.8161928,-6.4787097,-15.533581,-0.78529817
0.08651338,4.6420183,-2.6799037,1.6102139,0.8161928,-6.4787097,-15.533581,-0.78529817
0.08732891,4.639096,-2.7672553,1.6698687,0.7980833,-7.120356,-16.084248,-0.9768343
0.08813673,4.636182,-2.7672553,1.6698687,0.7980833,-7.120356,-16.084248,-0.9768343
0.08891854,4.6331854,-2.846085,1.7210014,0.7821043,-7.6375036,-16.591818,-1.2066777
0.08969169,4.6302004,-2.846085,1.7210014,0.7821043,-7.6375036,-16.591818,-1.2066777
0.09045138,4.627095,-2.915327,1.7604162,0.7661254,-8.039729,-17.00362,-1.4413095
0.09119546,4.6240296,-2.915327,1.7604162,0.7661254,-8.039729,-17.00362,-1.4413095
0.0919105,4.620896,-2.9696558,1.7881131,0.74268955,-8.350976,-17.310078,-1.5801731
0.092620924,4.617755,-2.9696558,1.7881131,0.74268955,-8.350976,-17.310078,-1.5801731
0.093289375,4.6145716,-3.0080051,1.804092,0.7075358,-8.350976,-17.463306,-1.7381904
0.093969464,4.611302,-3.0080051,1.804092,0.7075358,-8.350976,-17.463306,-1.7381904
0.09457681,4.608103,-3.0250494,1.8104836,0.65959895,-8.255207,-17.496826,-1.8100165
0.095165335,4.6049705,-3.0250494,1.8104836,0.65959895,-8.255207,-17.496826,-1.8100165
0.09569317,4.601776,-3.0197232,1.8083531,0.591422,-8.0924015,-17.563864,-1.733402
0.096205875,4.5986357,-3.0197232,1.8083531,0.591422,-8.0924015,-17.563864,-1.733402
0.09662916,4.595463,-2.9920263,1.8030268,0.49767873,-7.9726915,-17.57344,-1.5275006
0.09705025,4.5922585,-2.9920263,1.8030268,0.49767873,-7.9726915,-17.57344,-1.5275006
0.09734249,4.5891676,-2.9440894,1.7987658,0.38369542,-7.9583263,-17.750612,-1.1971009
0.097629346,4.5860686,-2.9440894,1.7987658,0.38369542,-7.9583263,-17.750612,-1.1971009
0.097774126,4.58304,-2.8769777,1.8051573,0.25053737,-8.279149,-18.018763,-0.8762778
0.097912595,4.5800157,-2.8769777,1.8051573,0.25053737,-8.279149,-18.018763,-0.8762778
0.09790012,4.577067,-2.7981482,1.8243321,0.106726676,-8.805874,-18.44493,-0.8619126
0.09788161,4.574116,-2.7981482,1.8243321,0.106726676,-8.805874,-18.44493,-0.8619126
0.09770563,4.5712457,-2.7161226,1.8552247,-0.04454088,-9.586384,-18.938135,-1.0965444
0.09752314,4.5683646,-2.7161226,1.8552247,-0.04454088,-9.586384,-18.938135,-1.0965444
0.0971811,4.5655546,-2.6394236,1.8871827,-0.19793896,-10.237606,-19.34515,-1.4939818
0.09683518,4.56276,-2.6394236,1.8871827,-0.19793896,-10.237606,-19.34515,-1.4939818
0.096329086,4.5600457,-2.5733774,1.9159448,-0.35666338,-10.702082,-19.718645,-1.9249382
0.09581354,4.5573115,-2.5733774,1.9159448,-0.35666338,-10.702082,-19.718645,-1.9249382
0.09512806,4.5546227,-2.5211794,1.9383154,-0.52177936,-10.7356,-19.847933,-2.3750482
0.094438665,4.551942,-2.5211794,1.9383154,-0.52177936,-10.7356,-19.847933,-2.3750482
0.09357177,4.5493016,-2.4775035,1.9510986,-0.69541746,-10.510546,-19.891027,-2.6862943
0.09250117,4.5460653,-2.4775035,1.9510986,-0.69541746,-10.510546,-19.891027,-2.6862943
0.09163604,4.5439587,-2.4380887,1.9596206,-0.88503456,-10.170568,-19.670761,-2.7629087
0.09054248,4.5413103,-2.4380887,1.9596206,-0.88503456,-10.170568,-19.670761,-2.7629087
0.08927781,4.538813,-2.3965435,1.9670775,-1.0970222,-9.753978,-19.215862,-2.4420857
0.088000715,4.5363045,-2.3965435,1.9670775,-1.0970222,-9.753978,-19.215862,-2.4420857
0.0864662,4.533838,-2.34328,1.9745344,-1.3356414,-9.208099,-18.684351,-1.9009962
0.08492553,4.5313725,-2.34328,1.9745344,-1.3356414,-9.208099,-18.684351,-1.9009962
0.08311281,4.528999,-2.270842,1.9841217,-1.6008923,-8.590396,-18.009186,-1.2018893
0.08129393,4.526627,-2.270842,1.9841217,-1.6008923,-8.590396,-18.009186,-1.2018893
0.079169706,4.5243635,-2.1760337,1.9990355,-1.8949052,-8.135497,-17.425,-0.5746084
0.07704367,4.522106,-2.1760337,1.9990355,-1.8949052,-8.135497,-17.425,-0.5746084
0.074592024,4.5199747,-2.0620503,2.0224712,-2.2166152,-8.049306,-16.955736,-0.19632454
0.0721343,4.517846,-2.0620503,2.0224712,-2.2166152,-8.049306,-16.955736,-0.19632454
0.069332354,4.515846,-1.9384797,2.057625,-2.558565,-8.240842,-16.658855,-0.22505496
0.06652435,4.5138483,-1.9384797,2.057625,-2.558565,-8.240842,-16.658855,-0.22505496
0.06337171,4.511976,-1.8181047,2.098105,-2.9101024,-8.676587,-16.558298,-0.5793968
0.060212936,4.510107,-1.8181047,2.098105,-2.9101024,-8.676587,-16.558298,-0.5793968
0.056700736,4.5083394,-1.7126436,2.1364546,-3.26377,-9.050082,-16.366762,-1.2066777
0.053192817,4.5065813,-1.7126436,2.1364546,-3.26377,-9.050082,-16.366762,-1.2066777
0.04921497,4.5048532,-1.6306182,2.1652167,-3.618503,-9.227253,-16.098612,-1.7525556
0.045458637,4.503228,-1.6306182,2.1652167,-3.618503,-9.227253,-16.098612,-1.7525556
0.041249886,4.501617,-1.5720288,2.1854568,-3.9668446,-9.184157,-15.710752,-2.1068976
0.037042994,4.500014,-1.5720288,2.1854568,-3.9668446,-9.184157,-15.710752,-2.1068976
0.03249926,4.4984503,-1.5336791,2.195044,-4.3055987,-8.853758,-15.140931,-2.4037786
0.02796252,4.496896,-1.5336791,2.195044,-4.3055987,-8.853758,-15.140931,-2.4037786
0.02309276,4.495366,-1.509178,2.1982398,-4.636896,-8.221688,-14.4130945,-2.6240451
0.018216206,4.49384,-1.509178,2.1982398,-4.636896,-8.221688,-14.4130945,-2.6240451
0.013024794,4.4923368,-1.4931991,2.195044,-4.9649973,-7.4124484,-13.666103,-2.6910827
0.007831595,4.490839,-1.4931991,2.195044,-4.9649973,-7.4124484,-13.666103,-2.6910827
0.0023264298,4.489364,-1.4793507,2.186522,-5.2909684,-6.540959,-12.957419,-2.5234885
6.279994,4.4878917,-1.4793507,2.186522,-5.2909684,-6.540959,-12.957419,-2.5234885
6.2741604,4.4864554,-1.4623065,2.1769347,-5.615874,-5.8705826,-12.41633,-1.8339585
6.2683253,4.4850245,-1.4623065,2.1769347,-5.615874,-5.8705826,-12.41633,-1.8339585
6.262162,4.483637,-1.4399359,2.1694777,-5.9397144,-5.506664,-12.071565,-0.80924016
6.2559977,4.482254,-1.4399359,2.1694777,-5.9397144,-5.506664,-12.071565,-0.80924016
6.2493777,4.480878,-1.4154348,2.1652167,-6.248641,-5.645528,-12.018892,0.1436521
6.242433,4.4794397,-1.4154348,2.1652167,-6.248641,-5.645528,-12.018892,0.1436521
6.2363048,4.478246,-1.3898685,2.1726735,-6.529871,-6.373365,-12.11466,0.51714754
6.229568,4.476938,-1.3898685,2.1726735,-6.529871,-6.373365,-12.11466,0.51714754
6.222583,4.4756336,-1.3770853,2.1854568,-6.7727513,-7.240066,-12.229582,0.23463176
6.215576,4.474329,-1.3770853,2.1854568,-6.7727513,-7.240066,-12.229582,0.23463176
6.208396,4.473007,-1.387738,2.190783,-6.9708905,-7.809886,-12.176909,-0.4357447
6.2012224,4.471689,-1.387738,2.190783,-6.9708905,-7.809886,-12.176909,-0.4357447
6.1938996,4.470327,-1.4218264,2.1801305,-7.125354,-7.603985,-11.860875,-1.115698
6.186569,4.4689655,-1.4218264,2.1801305,-7.125354,-7.603985,-11.860875,-1.115698
6.1791477,4.4675446,-1.4750897,2.1449766,-7.2467937,-6.7803793,-11.492168,-1.5562311
6.1716437,4.4661093,-1.4750897,2.1449766,-7.2467937,-6.7803793,-11.492168,-1.5562311
6.1641884,4.464625,-1.5390055,2.0949092,-7.343733,-5.5737014,-10.749966,-1.7621324
6.1566796,4.463131,-1.5390055,2.0949092,-7.343733,-5.5737014,-10.749966,-1.7621324
6.149108,4.4615703,-1.6007909,2.0341892,-7.4310846,-4.271256,-9.916783,-1.5466543
6.1415286,4.4600077,-1.6007909,2.0341892,-7.4310846,-4.271256,-9.916783,-1.5466543
6.133869,4.4583964,-1.649793,1.9681427,-7.5237627,-2.9735985,-8.939949,-1.0151415
6.1262097,4.4567833,-1.649793,1.9681427,-7.5237627,-2.9735985,-8.939949,-1.0151415
6.118448,4.455149,-1.6764246,1.8989006,-7.626028,-1.7956513,-7.8146744,-0.22026655
6.1106863,4.453512,-1.6764246,1.8989006,-7.626028,-1.7956513,-7.8146744,-0.22026655
6.1027946,4.4518747,-1.6774899,1.8317889,-7.7421417,-0.60333884,-6.6654577,0.4357447
6.094904,4.4502325,-1.6774899,1.8317889,-7.7421417,-0.60333884,-6.6654577,0.4357447
6.0868697,4.4486,-1.6551193,1.7657425,-7.8689084,0.36391866,-5.5880666,0.8619126
6.078829,4.4469595,-1.6551193,1.7657425,-7.8689084,0.36391866,-5.5880666,0.8619126
6.0706635,4.4453344,-1.617835,1.7018267,-8.003132,1.0342951,-4.8602295,0.92416185
6.062492,4.443701,-1.617835,1.7018267,-8.003132,1.0342951,-4.8602295,0.92416185
6.0541587,4.4420705,-1.5741593,1.6379108,-8.139485,2.0829554,-4.0653543,0.770933
6.045836,4.4404335,-1.5741593,1.6379108,-8.139485,2.0829554,-4.0653543,0.770933
6.0373464,4.4387555,-1.536875,1.5750601,-8.266252,4.1419687,-2.6767175,0.5363012
6.0288663,4.4370694,-1.536875,1.5750601,-8.266252,4.1419687,-2.6767175,0.5363012
6.0202293,4.435338,-1.5177002,1.5313843,-8.370647,4.6351743,-1.6903064,0.019153614
6.0116878,4.4336147,-1.5177002,1.5313843,-8.370647,4.6351743,-1.6903064,0.019153614
6.0030675,4.431842,-1.5240918,1.4994264,-8.455869,4.247314,-1.3120226,-0.48362875
5.9943533,4.4300356,-1.5240918,1.4994264,-8.455869,4.247314,-1.3120226,-0.48362875
5.985719,4.4281874,-1.5560497,1.4589463,-8.512328,4.5633483,-1.1109096,-0.6799533
5.9770255,4.4263115,-1.5560497,1.4589463,-8.512328,4.5633483,-1.1109096,-0.6799533
5.9683313,4.4243507,-1.6039866,1.4056832,-8.531503,5.2480903,-0.93373865,-0.8571242
5.959639,4.422374,-1.6039866,1.4056832,-8.531503,5.2480903,-0.93373865,-0.8571242
5.950991,4.4203,-1.6647067,1.3428326,-8.509132,6.4164605,-0.6560113,-1.0151415
5.942345,4.4182086,-1.6647067,1.3428326,-8.509132,6.4164605,-0.6560113,-1.0151415
5.9337797,4.4160185,-1.7286226,1.2757208,-8.453738,7.8050976,0.08619126,-1.0342951
5.9252167,4.4138093,-1.7286226,1.2757208,-8.453738,7.8050976,0.08619126,-1.0342951
5.916743,4.4115033,-1.7904079,1.211805,-8.37917,9.088389,0.9576807,-0.90021986
5.908289,4.4091816,-1.7904079,1.211805,-8.37917,9.088389,0.9576807,-0.90021986
5.899938,4.406776,-1.8426058,1.155346,-8.288623,10.295067,2.0254946,-0.6512229
5.89159,4.4043484,-1.8426058,1.155346,-8.288623,10.295067,2.0254946,-0.6512229
5.883362,4.401856,-1.8809553,1.1074091,-8.1863575,11.190498,2.9640217,-0.33997664
5.875137,4.399341,-1.8809553,1.1074091,-8.1863575,11.190498,2.9640217,-0.33997664
5.867048,4.3967876,-1.9001302,1.0690596,-8.071308,11.9135475,3.8163576,0.0047884034
5.8589463,4.3942056,-1.9001302,1.0690596,-8.071308,11.9135475,3.8163576,0.0047884034
5.8509965,4.3916144,-1.8969344,1.0381669,-7.945607,12.4785795,4.4196963,0.44532153
5.8430586,4.3890023,-1.8969344,1.0381669,-7.945607,12.4785795,4.4196963,0.44532153
5.83523,4.38639,-1.8745638,1.0189922,-7.8081884,12.607866,4.7309427,0.641646
5.827413,4.3837557,-1.8745638,1.0189922,-7.8081884,12.607866,4.7309427,0.641646
5.8197303,4.3811464,-1.8362143,1.0072743,-7.650529,12.50731,4.7022123,0.545878
5.8121047,4.3785305,-1.8362143,1.0072743,-7.650529,12.50731,4.7022123,0.545878
5.8046308,4.375954,-1.7872121,0.9987521,-7.4704995,12.124237,4.5298295,0.10534488
5.797355,4.3734207,-1.7872121,0.9987521,-7.4704995,12.124237,4.5298295,0.10534488
5.790086,4.37087,-1.7403405,0.98809946,-7.262773,11.81778,4.237737,-0.40222588
5.7825007,4.368181,-1.7403405,0.98809946,-7.262773,11.81778,4.237737,-0.40222588
5.7755523,4.365685,-1.69773,0.9710552,-7.0230885,11.477803,3.98874,-0.93852705
5.768509,4.36313,-1.69773,0.9710552,-7.0230885,11.477803,3.98874,-0.93852705
5.7618003,4.3606434,-1.6636415,0.9422931,-6.751446,11.271901,3.7588966,-1.3790601
5.755028,4.358109,-1.6636415,0.9422931,-6.751446,11.271901,3.7588966,-1.3790601
5.748437,4.35558,-1.633814,0.90713936,-6.4563675,11.013328,3.5625722,-1.4221559
5.7420955,4.353123,-1.633814,0.90713936,-6.4563675,11.013328,3.5625722,-1.4221559
5.7420955,4.353123,-1.633814,0.90713936,-6.4563675,11.013328,3.5625722,-1.4221559
5.726527,4.3467603,-1.5688329,0.8293751,-5.7831206,10.175357,3.098097,-0.842759
5.7249856,4.3461223,-1.5688329,0.8293751,-5.7831206,10.175357,3.098097,-0.842759
5.7183695,4.343368,-1.5688329,0.8293751,-5.7831206,10.175357,3.098097,-0.842759
5.7133713,4.341238,-1.5198307,0.79209083,-5.4209304,9.725247,2.9496565,-0.5315128
5.708006,4.338934,-1.5198307,0.79209083,-5.4209304,9.725247,2.9496565,-0.5315128
5.702908,4.3367066,-1.4559149,0.7569371,-5.042762,9.380483,2.6192567,-0.20590134
5.6980352,4.334562,-1.4559149,0.7569371,-5.042762,9.380483,2.6192567,-0.20590134
5.693102,4.332362,-1.3781506,0.7239139,-4.649679,9.040505,2.384625,-0.10055647
5.688507,4.3302984,-1.3781506,0.7239139,-4.649679,9.040505,2.384625,-0.10055647
5.6842265,4.328367,-1.2812115,0.6876949,-4.2555313,8.7532015,2.135628,-0.07182605
5.680076,4.3264832,-1.2812115,0.6876949,-4.2555313,8.7532015,2.135628,-0.07182605
5.676169,4.324717,-1.166163,0.6482801,-3.859253,8.542512,1.8626889,-0.23463176
5.6722593,4.322939,-1.166163,0.6482801,-3.859253,8.542512,1.8626889,-0.23463176
5.668578,4.321283,-1.041527,0.6067348,-3.4704313,8.350976,1.7286136,-0.49320555
5.6650224,4.3196745,-1.041527,0.6067348,-3.4704313,8.350976,1.7286136,-0.49320555
5.6618524,4.3182707,-0.90836895,0.5651895,-3.094393,8.202535,1.6567876,-0.90979666
5.658677,4.316858,-0.90836895,0.5651895,-3.094393,8.202535,1.6567876,-0.90979666
5.655749,4.315598,-0.77308035,0.52684,-2.735399,8.020576,1.5897499,-1.316811
5.652989,4.314406,-0.77308035,0.52684,-2.735399,8.020576,1.5897499,-1.316811
5.6504965,4.313378,-0.6409876,0.49062097,-2.393449,7.9726915,1.6376339,-1.7286136
5.648002,4.3123455,-0.6409876,0.49062097,-2.393449,7.9726915,1.6376339,-1.7286136
5.6458097,4.3115005,-0.5142211,0.4597283,-2.074935,7.967903,1.685518,-1.9488802
5.643602,4.310647,-0.5142211,0.4597283,-2.074935,7.967903,1.685518,-1.9488802
5.641675,4.309979,-0.39491147,0.43629247,-1.7841177,8.00621,1.8435353,-2.0207062
5.639742,4.3093066,-0.39491147,0.43629247,-1.7841177,8.00621,1.8435353,-2.0207062
5.638081,4.308817,-0.2830587,0.41924825,-1.5252584,8.073248,1.8674773,-2.0398598
5.6364098,4.308324,-0.2830587,0.41924825,-1.5252584,8.073248,1.8674773,-2.0398598
5.6349444,4.3079953,-0.17759752,0.41285667,-1.3004876,8.058883,1.8387469,-2.0638018
5.63346,4.307662,-0.17759752,0.41285667,-1.3004876,8.058883,1.8387469,-2.0638018
5.6321797,4.307488,-0.08278899,0.41498718,-1.1066096,8.001422,1.8770541,-1.9871874
5.630894,4.307314,-0.08278899,0.41498718,-1.1066096,8.001422,1.8770541,-1.9871874
5.6297493,4.3072834,0.005627962,0.4235093,-0.9457546,7.9391727,1.8148049,-1.8866309
5.6286044,4.307253,0.005627962,0.4235093,-0.9457546,7.9391727,1.8148049,-1.8866309
5.627571,4.3073587,0.08871859,0.43948826,-0.8179229,7.776367,1.6041151,-1.7046716
5.6265264,4.3074656,0.08871859,0.43948826,-0.8179229,7.776367,1.6041151,-1.7046716
5.6255846,4.3076935,0.16541763,0.45866305,-0.71778804,7.675811,1.3982137,-1.5849615
5.6246343,4.307923,0.16541763,0.45866305,-0.71778804,7.675811,1.3982137,-1.5849615
5.6237445,4.3082633,0.23679034,0.48209885,-0.6400237,7.445967,1.1492168,-1.6328455
5.622855,4.308604,0.23679034,0.48209885,-0.6400237,7.445967,1.1492168,-1.6328455
5.6220064,4.3090396,0.3017715,0.50659996,-0.58462995,7.225701,0.90979666,-1.7860745
5.6211567,4.309476,0.3017715,0.50659996,-0.58462995,7.225701,0.90979666,-1.7860745
5.6203294,4.3099957,0.36355683,0.53003573,-0.5473457,7.091625,0.6943185,-2.054225
5.6195035,4.3105154,0.36355683,0.53003573,-0.5473457,7.091625,0.6943185,-2.054225
5.6186895,4.311105,0.41895056,0.54708,-0.5271057,7.0245876,0.59376204,-2.2026656
5.6178675,4.3117013,0.41895056,0.54708,-0.5271057,7.0245876,0.59376204,-2.2026656
5.6170597,4.3123465,0.47008327,0.55773264,-0.5228446,7.019799,0.46926352,-2.2170308
5.616245,4.3129983,0.47008327,0.55773264,-0.5228446,7.019799,0.46926352,-2.2170308
5.6154194,4.313693,0.51588964,0.56199366,-0.532432,7.015011,0.36870706,-2.3415294
5.6145954,4.314387,0.51588964,0.56199366,-0.532432,7.015011,0.36870706,-2.3415294
5.6137505,4.3151207,0.5595655,0.5609284,-0.5516068,7.005434,0.2777274,-2.360683
5.612908,4.3158545,0.5595655,0.5609284,-0.5516068,7.005434,0.2777274,-2.360683
5.6120405,4.3166227,0.6011108,0.5566674,-0.5793036,6.9767036,0.2825158,-2.2218192
5.611174,4.3173914,0.6011108,0.5566674,-0.5793036,6.9767036,0.2825158,-2.2218192
5.6102858,4.3181868,0.64159083,0.5492105,-0.6080658,7.043741,0.29209262,-2.2026656
5.6093874,4.318992,0.64159083,0.5492105,-0.6080658,7.043741,0.29209262,-2.2026656
5.6084814,4.319805,0.6788751,0.5385579,-0.63895845,7.1155677,0.320823,-2.135628
5.607568,4.320627,0.6788751,0.5385579,-0.63895845,7.1155677,0.320823,-2.135628
5.6066284,4.3214707,0.71402884,0.5279052,-0.67198163,7.019799,0.40222588,-1.9680338
5.605689,4.3223147,0.71402884,0.5279052,-0.67198163,7.019799,0.40222588,-1.9680338
5.60473,4.323185,0.74598676,0.5140568,-0.69967854,7.2113357,0.39743748,-1.6089035
5.6037664,4.3240604,0.74598676,0.5140568,-0.69967854,7.2113357,0.39743748,-1.6089035
5.6027937,4.324941,0.77048784,0.4991431,-0.71991855,7.019799,0.5506664,-1.5562311
5.6018248,4.325819,0.77048784,0.4991431,-0.71991855,7.019799,0.5506664,-1.5562311
5.600857,4.326708,0.7928584,0.48209885,-0.7305712,7.005434,0.79487497,-1.3263878
5.599872,4.327612,0.7928584,0.48209885,-0.7305712,7.005434,0.79487497,-1.3263878
5.598917,4.32851,0.8056416,0.45866305,-0.7327017,7.489063,0.40701428,-0.79487497
5.597954,4.329417,0.8056416,0.45866305,-0.7327017,7.489063,0.40701428,-0.79487497
5.5970106,4.330326,0.8120332,0.44055355,-0.7231143,7.503428,0.2825158,-0.50757074
5.5960627,4.3312407,0.8120332,0.44055355,-0.7231143,7.503428,0.2825158,-0.50757074
5.5951457,4.332157,0.81309843,0.4267051,-0.697548,7.4124484,-0.009576807,-0.39264908
5.5942283,4.333075,0.81309843,0.4267051,-0.697548,7.4124484,-0.009576807,-0.39264908
5.5933537,4.3339915,0.8045763,0.41498718,-0.6581332,7.417237,-0.6512229,-0.35434186
5.5924745,4.3349147,0.8045763,0.41498718,-0.6581332,7.417237,-0.6512229,-0.35434186
5.591647,4.33582,0.783271,0.40753034,-0.60486996,7.2687964,-1.1348516,-0.62728083
5.59081,4.3367386,0.783271,0.40753034,-0.60486996,7.2687964,-1.1348516,-0.62728083
5.5900536,4.3376126,0.7491826,0.4032693,-0.53030145,6.9144545,-1.4748282,-1.0630256
5.589291,4.3384957,0.7491826,0.4032693,-0.53030145,6.9144545,-1.4748282,-1.0630256
5.5886106,4.3393354,0.7044414,0.3936819,-0.44294977,6.7612257,-1.6998832,-1.4939818
5.5879264,4.3401804,0.7044414,0.3936819,-0.44294977,6.7612257,-1.6998832,-1.4939818
5.587344,4.3409777,0.64691716,0.37663767,-0.34174967,6.789956,-1.958457,-1.6759412
5.5867605,4.3417764,0.64691716,0.37663767,-0.34174967,6.789956,-1.958457,-1.6759412
5.5862937,4.34253,0.5830013,0.35320187,-0.22776636,6.8186865,-2.1212628,-1.6041151
5.5858245,4.3432884,0.5830013,0.35320187,-0.22776636,6.8186865,-2.1212628,-1.6041151
5.585479,4.344004,0.5169549,0.32976604,-0.107391484,6.8809357,-2.2840683,-1.460463
5.585129,4.344728,0.5169549,0.32976604,-0.107391484,6.8809357,-2.2840683,-1.460463
5.5849094,4.3454084,0.4541043,0.3063302,0.015113931,7.015011,-2.5330653,-1.2593501
5.584687,4.346096,0.4541043,0.3063302,0.015113931,7.015011,-2.5330653,-1.2593501
5.5845933,4.34676,0.3997758,0.28502494,0.14081514,7.07726,-2.7341783,-1.0773908
5.5844994,4.347425,0.3997758,0.28502494,0.14081514,7.07726,-2.7341783,-1.0773908
5.5845327,4.348076,0.35077363,0.2679807,0.26545107,7.1969705,-3.0358477,-0.8523358
5.5845656,4.3487315,0.35077363,0.2679807,0.26545107,7.1969705,-3.0358477,-0.8523358
5.584725,4.3493853,0.31135887,0.253067,0.3879565,7.249643,-3.3327289,-0.58897364
5.584884,4.3500385,0.31135887,0.253067,0.3879565,7.249643,-3.3327289,-0.58897364
5.5851645,4.35069,0.27940091,0.23708802,0.5072661,7.2065473,-3.6631286,-0.47405192
5.585449,4.3513517,0.27940091,0.23708802,0.5072661,7.2065473,-3.6631286,-0.47405192
5.5858445,4.352006,0.2559651,0.2200438,0.61911887,7.1826053,-3.9552212,-0.33518824
5.586242,4.3526645,0.2559651,0.2200438,0.61911887,7.1826053,-3.9552212,-0.33518824
5.586752,4.353328,0.23785561,0.19980377,0.7256453,7.1730285,-4.367024,-0.2777274
5.587265,4.353996,0.23785561,0.19980377,0.7256453,7.1730285,-4.367024,-0.2777274
5.5878887,4.3546705,0.22400717,0.17849848,0.8300412,7.1730285,-4.8267107,-0.33518824
5.588501,4.3553314,0.22400717,0.17849848,0.8300412,7.1730285,-4.8267107,-0.33518824
5.5892553,4.356035,0.211224,0.1571932,0.9291108,7.062895,-5.377377,-0.47405192
5.589955,4.3566856,0.211224,0.1571932,0.9291108,7.062895,-5.377377,-0.47405192
5.5907836,4.3573666,0.1963103,0.13801843,1.0260499,6.847417,-5.8705826,-0.78529817
5.5916257,4.3580575,0.1963103,0.13801843,1.0260499,6.847417,-5.8705826,-0.78529817
5.592557,4.3587418,0.18033133,0.118843675,1.1187279,6.588843,-6.291962,-1.0726024
5.593497,4.3594303,0.18033133,0.118843675,1.1187279,6.588843,-6.291962,-1.0726024
5.5945425,4.36012,0.16009131,0.09966891,1.2071449,6.3685765,-6.631939,-1.2737153
5.595591,4.360809,0.16009131,0.09966891,1.2071449,6.3685765,-6.631939,-1.2737153
5.5967417,4.361491,0.1366555,0.08049415,1.2934313,6.26802,-6.847417,-1.541866
5.597884,4.3621664,0.1366555,0.08049415,1.2934313,6.26802,-6.847417,-1.541866
5.599135,4.3628354,0.11321967,0.062384658,1.3786525,6.1626754,-7.1347213,-1.7956513
5.60039,4.363505,0.11321967,0.062384658,1.3786525,6.1626754,-7.1347213,-1.7956513
5.601737,4.3641577,0.089783855,0.04427516,1.453221,6.129156,-7.374141,-1.7908629
5.6030993,4.364816,0.089783855,0.04427516,1.453221,6.129156,-7.374141,-1.7908629
5.604518,4.365446,0.06847856,0.028296193,1.5171368,6.1387334,-7.603985,-1.8674773
5.605953,4.3660817,0.06847856,0.028296193,1.5171368,6.1387334,-7.603985,-1.8674773
5.6074557,4.3666945,0.04823854,0.012317227,1.5704,6.1100025,-7.833828,-1.8962077
5.6089573,4.3673058,0.04823854,0.012317227,1.5704,6.1100025,-7.833828,-1.8962077
5.6104994,4.3678966,0.033324838,-0.0025964756,1.6130106,6.1770406,-8.039729,-1.8818425
5.612061,4.368493,0.033324838,-0.0025964756,1.6130106,6.1770406,-8.039729,-1.8818425
5.613647,4.369075,0.025867987,-0.012183856,1.642838,6.2249246,-8.202535,-1.9393034
5.6152086,4.3696465,0.025867987,-0.012183856,1.642838,6.2249246,-8.202535,-1.9393034
5.6168303,4.3702292,0.023737457,-0.020705972,1.6588169,6.291962,-8.240842,-1.934515
5.6183777,4.3707833,0.023737457,-0.020705972,1.6588169,6.291962,-8.240842,-1.934515
5.620096,4.3713946,0.026933251,-0.026032293,1.6598823,6.363788,-8.355764,-1.9728222
5.621634,4.37194,0.026933251,-0.026032293,1.6598823,6.363788,-8.355764,-1.9728222
5.6232257,4.3725047,0.034390103,-0.031358615,1.6481644,6.421249,-8.504205,-2.0207062
5.624811,4.3730655,0.034390103,-0.031358615,1.6481644,6.421249,-8.504205,-2.0207062
5.626388,4.3736296,0.045042746,-0.03455441,1.6268591,6.5218053,-8.6095495,-2.1739352
5.627963,4.3741913,0.045042746,-0.03455441,1.6268591,6.5218053,-8.6095495,-2.1739352
5.6295285,4.374751,0.05782592,-0.03881547,1.5959663,6.4547677,-8.695741,-2.2936451
5.6311083,4.3753147,0.05782592,-0.03881547,1.5959663,6.4547677,-8.695741,-2.2936451
5.6326323,4.375865,0.07060909,-0.04201126,1.5576168,6.469133,-8.796297,-2.3558946
5.634184,4.376425,0.07060909,-0.04201126,1.5576168,6.469133,-8.796297,-2.3558946
5.6356645,4.376969,0.08339227,-0.04627232,1.513941,6.4882865,-8.829816,-2.3989902
5.637157,4.3775167,0.08339227,-0.04627232,1.513941,6.4882865,-8.829816,-2.3989902
5.638627,4.3780584,0.09830597,-0.051598642,1.4660041,6.517017,-9.016563,-2.5139117
5.6400924,4.378598,0.09830597,-0.051598642,1.4660041,6.517017,-9.016563,-2.5139117
5.641517,4.379136,0.11321967,-0.057990227,1.4201977,6.5265937,-9.069236,-2.504335
5.64294,4.3796735,0.11321967,-0.057990227,1.4201977,6.5265937,-9.069236,-2.504335
5.6443176,4.3802133,0.13132916,-0.064381815,1.3743913,6.5696893,-9.040505,-2.5330653
5.645693,4.3807526,0.13132916,-0.064381815,1.3743913,6.5696893,-9.040505,-2.5330653
5.6470313,4.381295,0.15476498,-0.07183866,1.3264545,6.5265937,-8.834604,-2.6431987
5.6484065,4.3818536,0.15476498,-0.07183866,1.3264545,6.5265937,-8.834604,-2.6431987
5.64962,4.382393,0.18033133,-0.08142605,1.2827786,6.6367273,-8.738836,-2.504335
5.6508656,4.3829465,0.18033133,-0.08142605,1.2827786,6.6367273,-8.738836,-2.504335
5.652025,4.3835,0.21015874,-0.08994816,1.2412333,6.8186865,-8.580819,-2.4133554
5.653183,4.384052,0.21015874,-0.08994816,1.2412333,6.8186865,-8.580819,-2.4133554
5.653183,4.384052,0.24531247,-0.09740501,1.2039491,6.9527617,-8.327033,-2.2697031
5.655673,4.385309,0.24531247,-0.09740501,1.2039491,6.9527617,-8.327033,-2.2697031
5.656517,4.385764,0.2889883,-0.105927125,1.1709259,7.0820484,-8.0684595,-2.1547816
5.657558,4.386324,0.2889883,-0.105927125,1.1709259,7.0820484,-8.0684595,-2.1547816
5.6588125,4.3870516,0.340121,-0.11764504,1.138968,7.1155677,-7.7811556,-2.0638018
5.6616096,4.3887396,0.3976453,-0.13149348,1.1144669,7.0341644,-7.517793,-2.111686
5.6616096,4.3887396,0.3976453,-0.13149348,1.1144669,7.0341644,-7.517793,-2.111686
5.6616096,4.3887396,0.3976453,-0.13149348,1.1144669,7.0341644,-7.517793,-2.111686
5.6629076,4.389595,0.46156114,-0.15599456,1.0974226,7.1395097,-7.2448545,-2.1260512
5.6634564,4.389956,0.46156114,-0.15599456,1.0974226,7.1395097,-7.2448545,-2.1260512
5.6644163,4.3906217,0.52760756,-0.18688722,1.0899658,7.4363904,-7.0102224,-2.0733786
5.66554,4.391399,0.52760756,-0.18688722,1.0899658,7.4363904,-7.0102224,-2.0733786
5.6663275,4.391962,0.59258866,-0.22097568,1.0952921,7.809886,-6.813898,-2.111686
5.667303,4.392658,0.59258866,-0.22097568,1.0952921,7.809886,-6.813898,-2.111686
5.6683073,4.3933973,0.6565046,-0.25719467,1.1091405,8.087613,-6.5218053,-2.0015526
5.669311,4.394135,0.6565046,-0.25719467,1.1091405,8.087613,-6.5218053,-2.0015526
5.6703463,4.394914,0.7182899,-0.28915262,1.1315111,8.37013,-6.3111157,-1.9680338
5.6713853,4.3956957,0.7182899,-0.28915262,1.1315111,8.37013,-6.3111157,-1.9680338
5.672445,4.396504,0.7758142,-0.31578422,1.1655996,8.528147,-6.0142345,-1.958457
5.6735373,4.397336,0.7758142,-0.31578422,1.1655996,8.528147,-6.0142345,-1.958457
5.6746583,4.398198,0.8301427,-0.33602425,1.2124711,8.662222,-5.57849,-1.8818425
5.675785,4.399064,0.8301427,-0.33602425,1.2124711,8.662222,-5.57849,-1.8818425
5.676971,4.399976,0.87807953,-0.35200322,1.2689302,8.743625,-5.133168,-1.7908629
5.6781573,4.400887,0.87807953,-0.35200322,1.2689302,8.743625,-5.133168,-1.7908629
5.679416,4.401843,0.9217554,-0.36798218,1.3392377,8.781932,-4.6160207,-1.6903064
5.6807213,4.402833,0.9217554,-0.36798218,1.3392377,8.781932,-4.6160207,-1.6903064
5.6820307,4.403807,0.96223545,-0.3828959,1.4255241,8.805874,-4.1036615,-1.5610195
5.6833653,4.4047985,0.96223545,-0.3828959,1.4255241,8.805874,-4.1036615,-1.5610195
5.684821,4.4058514,1.0037807,-0.4010054,1.5245937,8.872911,-3.4811692,-1.4700398
5.6862693,4.406897,1.0037807,-0.4010054,1.5245937,8.872911,-3.4811692,-1.4700398
5.6878257,4.4079914,1.0453261,-0.42231068,1.6353812,9.131485,-2.9257145,-1.1492168
5.6893883,4.4090886,1.0453261,-0.42231068,1.6353812,9.131485,-2.9257145,-1.1492168
5.6910796,4.410238,1.0879366,-0.44574648,1.7578865,9.41879,-2.2840683,-0.94810385
5.692771,4.4113855,1.0879366,-0.44574648,1.7578865,9.41879,-2.2840683,-0.94810385
5.6946,4.4125867,1.1305473,-0.46811703,1.8931751,9.825804,-1.7812861,-0.80924016
5.69643,4.413787,1.1305473,-0.46811703,1.8931751,9.825804,-1.7812861,-0.80924016
5.69841,4.415046,1.1720926,-0.48409602,2.0401816,10.314221,-1.1779473,-0.62249243
5.700388,4.4163017,1.1720926,-0.48409602,2.0401816,10.314221,-1.1779473,-0.62249243
5.7025275,4.417621,1.2104421,-0.49474865,2.194645,10.745177,-0.60812724,-0.5554548
5.704659,4.418933,1.2104421,-0.49474865,2.194645,10.745177,-0.60812724,-0.5554548
5.70694,4.4203033,1.2466611,-0.4958139,2.3576305,11.022904,-0.038307227,-0.36391866
5.7092314,4.4216766,1.2466611,-0.4958139,2.3576305,11.022904,-0.038307227,-0.36391866
5.7116885,4.4231114,1.2775537,-0.48942232,2.533399,11.252748,0.60333884,-0.2873042
5.714151,4.424546,1.2775537,-0.48942232,2.533399,11.252748,0.60333884,-0.2873042
5.7167897,4.4260483,1.3063159,-0.47450864,2.7208858,11.473015,1.2880806,-0.095768064
5.719429,4.4275465,1.3063159,-0.47450864,2.7208858,11.473015,1.2880806,-0.095768064
5.7222576,4.4291153,1.3329475,-0.45320335,2.9211555,11.7268,2.0494366,0.02873042
5.725084,4.430678,1.3329475,-0.45320335,2.9211555,11.7268,2.0494366,0.02873042
5.7281733,4.43235,1.3595791,-0.42657173,3.133143,11.956643,2.743755,0.19153613
5.7312818,4.4340267,1.3595791,-0.42657173,3.133143,11.956643,2.743755,0.19153613
5.7345505,4.435753,1.3894064,-0.39887485,3.3600442,12.119449,3.3901896,0.31603462
5.7377787,4.437452,1.3894064,-0.39887485,3.3600442,12.119449,3.3901896,0.31603462
5.7414136,4.4393244,1.4202992,-0.37224326,3.5975983,12.090718,3.8498764,0.47405192
5.7447515,4.4410367,1.4202992,-0.37224326,3.5975983,12.090718,3.8498764,0.47405192
5.7483797,4.442855,1.4554529,-0.355199,3.8490007,12.215217,4.213795,0.63206923
5.752017,4.4446697,1.4554529,-0.355199,3.8490007,12.215217,4.213795,0.63206923
5.755967,4.4465895,1.4938024,-0.34774217,4.116382,12.08593,4.333505,0.81881696
5.75997,4.448526,1.4938024,-0.34774217,4.116382,12.08593,4.333505,0.81881696
5.7642655,4.4505415,1.5321519,-0.34880742,4.400808,11.812991,4.3382936,0.9816227
5.7685204,4.4525275,1.5321519,-0.34880742,4.400808,11.812991,4.3382936,0.9816227
5.7730913,4.4545875,1.5683709,-0.3583948,4.707604,11.473015,4.3047748,1.1492168
5.7776093,4.456612,1.5683709,-0.3583948,4.707604,11.473015,4.3047748,1.1492168
5.782489,4.458709,1.5992635,-0.37543905,5.041032,10.998962,4.4436383,1.1923125
5.78738,4.4607983,1.5992635,-0.37543905,5.041032,10.998962,4.4436383,1.1923125
5.7926216,4.4629307,1.6216341,-0.39887485,5.4032216,9.931149,4.3957543,1.1492168
5.7978706,4.4650526,1.6216341,-0.39887485,5.4032216,9.931149,4.3957543,1.1492168
5.803511,4.4671965,1.637613,-0.4425507,5.796304,9.643845,4.783615,0.23942018
5.8091483,4.469326,1.637613,-0.4425507,5.796304,9.643845,4.783615,0.23942018
5.8152475,4.4714613,1.6461352,-0.5352287,6.2096267,8.087613,4.548983,-0.2825158
5.8213124,4.47357,1.6461352,-0.5352287,6.2096267,8.087613,4.548983,-0.2825158
5.82785,4.4756546,1.6354825,-0.6460162,6.6602335,7.445967,4.295198,-0.32561144
5.834383,4.477723,1.6354825,-0.6460162,6.6602335,7.445967,4.295198,-0.32561144
5.8414335,4.479761,1.6099162,-0.76213,7.1470594,6.766014,3.7828386,0.06703765
5.848465,4.481778,1.6099162,-0.76213,7.1470594,6.766014,3.7828386,0.06703765
5.8560543,4.4837656,1.5779583,-0.8793091,7.6647778,5.8322754,3.1555579,0.6512229
5.863631,4.485734,1.5779583,-0.8793091,7.6647778,5.8322754,3.1555579,0.6512229
5.8718114,4.4876847,1.5428046,-0.99222714,8.208063,4.8506527,2.1930888,1.6089035
5.8799367,4.489606,1.5428046,-0.99222714,8.208063,4.8506527,2.1930888,1.6089035
5.888675,4.4915223,1.5055203,-1.0817094,8.776914,3.289633,0.7230489,2.8921957
5.8974237,4.4934244,1.5055203,-1.0817094,8.776914,3.289633,0.7230489,2.8921957
5.9068036,4.495321,1.4618444,-1.1360378,9.371331,1.2210429,-1.2066777,3.739743
5.9161854,4.4972,1.4618444,-1.1360378,9.371331,1.2210429,-1.2066777,3.739743
5.9262204,4.499049,1.4021896,-1.1552126,9.987055,-1.1923125,-3.2800562,3.6727054
5.936257,4.5008793,1.4021896,-1.1552126,9.987055,-1.1923125,-3.2800562,3.6727054
5.9469576,4.5026407,1.3212296,-1.1530821,10.618756,-3.7253778,-5.377377,2.2744915
5.9576607,4.504383,1.3212296,-1.1530821,10.618756,-3.7253778,-5.377377,2.2744915
5.9690027,4.506004,1.206181,-1.1552126,11.248327,-5.81791,-7.603985,0.07182605
5.980381,4.507608,1.206181,-1.1552126,11.248327,-5.81791,-7.603985,0.07182605
5.992343,4.509035,1.057044,-1.1861053,11.853397,-7.503428,-9.945514,-2.6910827
6.004319,4.5104427,1.057044,-1.1861053,11.853397,-7.503428,-9.945514,-2.6910827
6.016874,4.5116425,0.8823406,-1.261739,12.409466,-8.6574335,-12.263102,-5.3486466
6.0294557,4.512824,0.8823406,-1.261739,12.409466,-8.6574335,-12.263102,-5.3486466
6.044053,4.513879,0.69165826,-1.386375,12.8952265,-9.576807,-14.235924,-7.6949644
6.0558333,4.5147123,0.69165826,-1.386375,12.8952265,-9.576807,-14.235924,-7.6949644
6.0690975,4.5153923,0.5041717,-1.5525563,13.291505,-9.998186,-15.5671,-9.102755
6.082456,4.51606,0.5041717,-1.5525563,13.291505,-9.998186,-15.5671,-9.102755
6.0962195,4.5165176,0.33479467,-1.748565,13.597236,-9.888053,-15.897499,-9.246407
6.110093,4.5169644,0.33479467,-1.748565,13.597236,-9.888053,-15.897499,-9.246407
6.124123,4.517245,0.20589767,-1.9392473,13.815615,-9.155427,-15.662868,-8.240842
6.138167,4.5175133,0.20589767,-1.9392473,13.815615,-9.155427,-15.662868,-8.240842
6.152334,4.5176907,0.13452496,-2.090515,13.937055,-8.149862,-14.676456,-6.531382
6.1665726,4.517859,0.13452496,-2.090515,13.937055,-8.149862,-14.676456,-6.531382
6.1808505,4.5180206,0.13559023,-2.1863885,13.955165,-7.019799,-13.268666,-4.8745947
6.195114,4.518173,0.13559023,-2.1863885,13.955165,-7.019799,-13.268666,-4.8745947
6.2092667,4.5183964,0.21015874,-2.2268686,13.861422,-5.947197,-11.645397,-3.6631286
6.223448,4.518612,0.21015874,-2.2268686,13.861422,-5.947197,-11.645397,-3.6631286
6.2382293,4.5189805,0.34757784,-2.220477,13.649434,-5.281609,-10.103531,-3.0023289
6.251364,4.5193014,0.34757784,-2.220477,13.649434,-5.281609,-10.103531,-3.0023289
6.264976,4.519815,0.5318686,-2.1853232,13.317071,-4.4915223,-9.011775,-2.753332
6.2786155,4.520323,0.5318686,-2.1853232,13.317071,-4.4915223,-9.011775,-2.753332
0.008597439,4.5209975,0.7406604,-2.1384518,12.876052,-3.4093432,-7.9008656,-3.4524388
0.02176381,4.5216656,0.7406604,-2.1384518,12.876052,-3.4093432,-7.9008656,-3.4524388
0.034371663,4.522604,0.95051754,-2.0660138,12.339158,-2.2744915,-8.437167,-1.6376339
0.04704318,4.5235434,0.95051754,-2.0660138,12.339158,-2.2744915,-8.437167,-1.6376339
0.059032362,4.5245795,1.1294819,-1.8689398,11.747936,-0.8379706,-6.943185,-1.7046716
0.071022786,4.5256066,1.1294819,-1.8689398,11.747936,-0.8379706,-6.943185,-1.7046716
0.08221382,4.5267596,1.2882063,-1.720868,11.037405,-0.9911995,-6.229713,-3.2992098
0.093401276,4.5279093,1.2882063,-1.720868,11.037405,-0.9911995,-6.229713,-3.2992098
0.10387192,4.529202,1.3883412,-1.6431037,10.2416525,-2.2218192,-7.503428,-2.3223755
0.114360526,4.5304937,1.3883412,-1.6431037,10.2416525,-2.2218192,-7.503428,-2.3223755
0.12404836,4.5318947,1.4128423,-1.531251,9.422464,-4.3718123,-8.7053175,-1.3599066
0.13371733,4.533292,1.4128423,-1.531251,9.422464,-4.3718123,-8.7053175,-1.3599066
0.1425349,4.534672,1.3723623,-1.402354,8.583036,-7.321469,-11.104307,-0.7086837
0.15136164,4.5360537,1.3723623,-1.402354,8.583036,-7.321469,-11.104307,-0.7086837
0.15936686,4.5373273,1.2732927,-1.2542822,7.7926097,-11.228806,-12.813767,-0.6560113
0.16746858,4.538617,1.2732927,-1.2542822,7.7926097,-11.228806,-12.813767,-0.6560113
0.1746282,4.5397186,1.1273514,-1.1157979,7.089535,-14.350845,-14.403518,-0.93373865
0.18198524,4.5408506,1.1273514,-1.1157979,7.089535,-14.350845,-14.403518,-0.93373865
0.1886501,4.5417914,0.9451912,-1.0124671,6.455703,-16.122555,-15.916653,-1.3263878
0.19525526,4.5427246,0.9451912,-1.0124671,6.455703,-16.122555,-15.916653,-1.3263878
0.20135416,4.5434775,0.74811727,-0.95600814,5.877264,-16.49126,-17.128119,-1.685518
0.20745929,4.5442324,0.74811727,-0.95600814,5.877264,-16.49126,-17.128119,-1.685518
0.21300428,4.544816,0.56276125,-0.9378987,5.33611,-15.9262295,-17.932571,-1.757344
0.21854937,4.5454006,0.56276125,-0.9378987,5.33611,-15.9262295,-17.932571,-1.757344
0.22358617,4.5458612,0.41362426,-0.94322497,4.8151956,-14.9063,-18.104954,-1.6184803
0.22860296,4.546322,0.41362426,-0.94322497,4.8151956,-14.9063,-18.104954,-1.6184803
0.23313098,4.5467234,0.31988096,-0.9581387,4.2953467,-13.144167,-18.138472,-1.2689269
0.23766793,4.5471277,0.31988096,-0.9581387,4.2953467,-13.144167,-18.138472,-1.2689269
0.24167897,4.5475245,0.2889883,-0.96772605,3.7701712,-12.6461735,-17.7554,-1.3455414
0.24568184,4.547923,0.2889883,-0.96772605,3.7701712,-12.6461735,-17.7554,-1.3455414
0.24916689,4.5483823,0.3252073,-0.9730524,3.2364736,-11.827356,-16.898275,-1.3982137
0.25265178,4.548844,0.3252073,-0.9730524,3.2364736,-11.827356,-16.898275,-1.3982137
0.25555125,4.549428,0.4178853,-0.9805092,2.6867971,-10.457873,-16.79293,-1.1013328
0.25847682,4.5500193,0.4178853,-0.9805092,2.6867971,-10.457873,-16.79293,-1.1013328
0.26087257,4.5507593,0.5531739,-0.95920396,2.1392512,-9.816227,-15.844827,-1.5179238
0.263268,4.5515003,0.5531739,-0.95920396,2.1392512,-9.816227,-15.844827,-1.5179238
0.2651429,4.5523863,0.7055067,-0.9080713,1.6183369,-10.275913,-15.097836,-2.0925324
0.26701924,4.5532737,0.7055067,-0.9080713,1.6183369,-10.275913,-15.097836,-2.0925324
0.26841146,4.554311,0.8482521,-0.84841645,1.1400332,-10.611102,-15.442601,-2.0685902
0.26979885,4.5553455,0.8482521,-0.84841645,1.1400332,-10.611102,-15.442601,-2.0685902
0.2709514,4.5567336,0.9675618,-0.7866311,0.7192537,-10.955867,-16.112978,-2.006341
0.27199107,4.557988,0.9675618,-0.7866311,0.7192537,-10.955867,-16.112978,-2.006341
0.27243805,4.5589266,1.0676966,-0.725911,0.36558592,-11.391612,-16.682798,-1.8387469
0.27309224,4.5603013,1.0676966,-0.725911,0.36558592,-11.391612,-16.682798,-1.8387469
0.27337104,4.5615206,1.1475915,-0.6673215,0.08222559,-11.784261,-17.152061,-1.388637
0.27368075,4.5628777,1.1475915,-0.6673215,0.08222559,-11.784261,-17.152061,-1.388637
0.2737624,4.5643015,1.2072463,-0.6108625,-0.13295783,-12.277467,-17.84638,-0.8619126
0.27384785,4.565801,1.2072463,-0.6108625,-0.13295783,-12.277467,-17.84638,-0.8619126
0.27377236,4.567234,1.2530526,-0.556534,-0.2778338,-12.952631,-18.55985,-0.31603462
0.27369726,4.568647,1.2530526,-0.556534,-0.2778338,-12.952631,-18.55985,-0.31603462
0.2735302,4.5701694,1.2903368,-0.50966233,-0.35772863,-13.618219,-19.024326,-0.36391866
0.2733753,4.571576,1.2903368,-0.50966233,-0.35772863,-13.618219,-19.024326,-0.36391866
0.27318627,4.573064,1.3190991,-0.47770444,-0.38222972,-13.881581,-19.22544,-0.5554548
0.27299523,4.574563,1.3190991,-0.47770444,-0.38222972,-13.881581,-19.22544,-0.5554548
0.27282032,4.5760756,1.3414696,-0.46705177,-0.367316,-13.455414,-19.144037,-0.9624691
0.27264547,4.5775833,1.3414696,-0.46705177,-0.367316,-13.455414,-19.144037,-0.9624691
0.2725059,4.579112,1.3563833,-0.47450864,-0.33322755,-12.473791,-18.780119,-1.2114661
0.2723662,4.580637,1.3563833,-0.47450864,-0.33322755,-12.473791,-18.780119,-1.2114661
0.2722639,4.582174,1.3649054,-0.48835707,-0.29807383,-11.314998,-18.047493,-1.3694834
0.27216148,4.583705,1.3649054,-0.48835707,-0.29807383,-11.314998,-18.047493,-1.3694834
0.2720854,4.585241,1.3723623,-0.4936834,-0.27357274,-10.204087,-17.142485,-1.4987702
0.2720084,4.5867825,1.3723623,-0.4936834,-0.27357274,-10.204087,-17.142485,-1.4987702
0.2719355,4.588286,1.3766233,-0.48516127,-0.27250746,-8.963891,-16.026787,-1.6950948
0.27185985,4.589833,1.3766233,-0.48516127,-0.27250746,-8.963891,-16.026787,-1.6950948
0.27174732,4.591408,1.3723623,-0.45852965,-0.3044654,-7.7811556,-15.078682,-1.8866309
0.27164325,4.592853,1.3723623,-0.45852965,-0.3044654,-7.7811556,-15.078682,-1.8866309
0.27146602,4.5943227,1.3574486,-0.4127233,-0.36838126,-6.775591,-14.269443,-1.9488802
0.27128807,4.5957894,1.3574486,-0.4127233,-0.36838126,-6.775591,-14.269443,-1.9488802
0.2710049,4.597207,1.3286865,-0.34880742,-0.46425506,-5.9807158,-13.661315,-1.9440918
0.27072123,4.598622,1.3286865,-0.34880742,-0.46425506,-5.9807158,-13.661315,-1.9440918
0.27030283,4.5999746,1.2860758,-0.27317366,-0.5899563,-5.415684,-13.22557,-1.8243817
0.2698799,4.6013384,1.2860758,-0.27317366,-0.5899563,-5.415684,-13.22557,-1.8243817
0.2693131,4.6026254,1.2338779,-0.19114828,-0.7358975,-4.9081135,-12.885593,-1.5466543
0.2687422,4.6039186,1.2338779,-0.19114828,-0.7358975,-4.9081135,-12.885593,-1.5466543
0.26799816,4.605161,1.1731578,-0.108057655,-0.898883,-4.582502,-12.650962,-1.2689269
0.26725355,4.6064024,1.1731578,-0.108057655,-0.898883,-4.582502,-12.650962,-1.2689269
0.2663203,4.6075892,1.1028503,-0.026032293,-1.0639989,-4.2904096,-12.454638,-1.0199299
0.26538858,4.6087728,1.1028503,-0.026032293,-1.0639989,-4.2904096,-12.454638,-1.0199299
0.26424536,4.609901,1.0261513,0.046405688,-1.2248539,-4.003105,-12.344504,-0.6560113
0.26310226,4.6110296,1.0261513,0.046405688,-1.2248539,-4.003105,-12.344504,-0.6560113
0.26176265,4.612079,0.9451912,0.10819103,-1.3761214,-3.6152446,-12.196063,-0.49799395
0.26041338,4.6131372,0.9451912,0.10819103,-1.3761214,-3.6152446,-12.196063,-0.49799395
0.258916,4.61409,0.86316586,0.15825845,-1.5124753,-3.2848446,-12.023681,-0.35913026
0.25740734,4.615051,0.86316586,0.15825845,-1.5124753,-3.2848446,-12.023681,-0.35913026
0.25573698,4.615919,0.77900994,0.19447745,-1.6307197,-2.8395233,-11.789049,-0.31124622
0.25406846,4.6167874,0.77900994,0.19447745,-1.6307197,-2.8395233,-11.789049,-0.31124622
0.2522571,4.6175566,0.69591933,0.21897852,-1.7276587,-2.3798366,-11.453861,-0.41180268
0.25044712,4.618326,0.69591933,0.21897852,-1.7276587,-2.3798366,-11.453861,-0.41180268
0.24853384,4.618993,0.613894,0.23602276,-1.8022273,-1.8579005,-11.056423,-0.39264908
0.24661736,4.6196613,0.613894,0.23602276,-1.8022273,-1.8579005,-11.056423,-0.39264908
0.24462202,4.620221,0.53399915,0.24880594,-1.857621,-1.2018893,-10.606314,-0.47405192
0.24260476,4.6207876,0.53399915,0.24880594,-1.857621,-1.2018893,-10.606314,-0.47405192
0.24058707,4.6212473,0.4541043,0.25839332,-1.8917094,-0.6847417,-10.0508585,-0.51714754
0.23855099,4.621711,0.4541043,0.25839332,-1.8917094,-0.6847417,-10.0508585,-0.51714754
0.23649839,4.622094,0.37527472,0.2679807,-1.9087536,-0.23463176,-9.557653,-0.3878607
0.2344417,4.6224785,0.37527472,0.2679807,-1.9087536,-0.23463176,-9.557653,-0.3878607
0.23238495,4.622778,0.29751042,0.27863333,-1.9087536,0.21068975,-9.107543,-0.34955344
0.23033231,4.623077,0.29751042,0.27863333,-1.9087536,0.21068975,-9.107543,-0.34955344
0.22828723,4.623295,0.22507244,0.29035124,-1.8895789,0.5410896,-8.738836,-0.40222588
0.22624628,4.6235123,0.22507244,0.29035124,-1.8895789,0.5410896,-8.738836,-0.40222588
0.224241,4.623653,0.15156919,0.30206916,-1.8533599,0.8475474,-8.475474,-0.34955344
0.22221568,4.6237955,0.15156919,0.30206916,-1.8533599,0.8475474,-8.475474,-0.34955344
0.22027777,4.623855,0.075935416,0.31378707,-1.8022273,0.9720459,-8.355764,-0.34955344
0.21834765,4.623915,0.075935416,0.31378707,-1.8022273,0.9720459,-8.355764,-0.34955344
0.21642877,4.6239004,0.001366904,0.325505,-1.7372462,1.0055647,-8.360553,-0.2873042
0.2145458,4.6238866,0.001366904,0.325505,-1.7372462,1.0055647,-8.360553,-0.2873042
0.21273462,4.6237955,-0.07320161,0.33615762,-1.6552207,0.93852705,-8.274361,-0.2681506
0.21092531,4.6237054,-0.07320161,0.33615762,-1.6552207,0.93852705,-8.274361,-0.2681506
0.20921491,4.6235394,-0.14670485,0.3425492,-1.5572164,0.91937345,-8.283937,-0.2633622
0.2075012,4.6233735,-0.14670485,0.3425492,-1.5572164,0.91937345,-8.283937,-0.2633622
0.20589417,4.623129,-0.21914284,0.34467974,-1.4496247,1.0630256,-8.264784,-0.34476504
0.20427263,4.622883,-0.21914284,0.34467974,-1.4496247,1.0630256,-8.264784,-0.34476504
0.2027679,4.622566,-0.28838503,0.34681025,-1.3345761,1.2449849,-8.173804,-0.272939
0.20129892,4.6222577,-0.28838503,0.34681025,-1.3345761,1.2449849,-8.173804,-0.272939
0.19994672,4.621881,-0.35230088,0.345745,-1.213136,1.4317327,-8.025364,-0.320823
0.19856027,4.6214952,-0.35230088,0.345745,-1.213136,1.4317327,-8.025364,-0.320823
0.19730301,4.621049,-0.41089043,0.34467974,-1.0938264,1.6328455,-7.762002,-0.36870706
0.19605196,4.620605,-0.41089043,0.34467974,-1.0938264,1.6328455,-7.762002,-0.36870706
0.19490959,4.6200976,-0.46095788,0.34681025,-0.9798431,1.7812861,-7.5561004,-0.60812724
0.19376712,4.619591,-0.46095788,0.34681025,-0.9798431,1.7812861,-7.5561004,-0.60812724
0.19272694,4.619032,-0.5035685,0.34681025,-0.87331665,1.7429788,-7.345411,-0.7565677
0.19167927,4.6184697,-0.5035685,0.34681025,-0.87331665,1.7429788,-7.345411,-0.7565677
0.19074607,4.6178765,-0.5376569,0.3425492,-0.7731818,1.8052281,-7.2592196,-0.8523358
0.18981832,4.617288,-0.5376569,0.3425492,-0.7731818,1.8052281,-7.2592196,-0.8523358
0.18895502,4.6166534,-0.56641906,0.33722287,-0.68369955,1.7812861,-7.192182,-0.8475474
0.18810603,4.6160293,-0.56641906,0.33722287,-0.68369955,1.7812861,-7.192182,-0.8475474
0.1873232,4.6153655,-0.5919854,0.3308313,-0.60060894,1.8435353,-7.120356,-0.8571242
0.1865686,4.614726,-0.5919854,0.3308313,-0.60060894,1.8435353,-7.120356,-0.8571242
0.18587704,4.6140594,-0.6143559,0.325505,-0.5271057,1.7956513,-7.1826053,-0.770933
0.18518381,4.613392,-0.6143559,0.325505,-0.5271057,1.7956513,-7.1826053,-0.770933
0.18455623,4.6127076,-0.63353074,0.3212439,-0.46105927,1.6424223,-7.2352777,-0.7086837
0.1839222,4.612017,-0.63353074,0.3212439,-0.46105927,1.6424223,-7.2352777,-0.7086837
0.18335648,4.6113195,-0.6505749,0.31378707,-0.403535,1.4987702,-7.3406224,-0.79487497
0.18278542,4.610616,-0.6505749,0.31378707,-0.403535,1.4987702,-7.3406224,-0.79487497
0.18226619,4.609909,-0.66548866,0.30526495,-0.35453284,1.3599066,-7.4842744,-0.6464345
0.18174535,4.6091995,-0.66548866,0.30526495,-0.35453284,1.3599066,-7.4842744,-0.6464345
0.1812727,4.6084833,-0.67614126,0.29567757,-0.3076612,1.3024458,-7.479486,-0.62728083
0.18080038,4.6077676,-0.67614126,0.29567757,-0.3076612,1.3024458,-7.479486,-0.62728083
0.18036672,4.607053,-0.67827183,0.2828944,-0.26931167,1.1779473,-7.541735,-0.60333884
0.17993386,4.60634,-0.67827183,0.2828944,-0.26931167,1.1779473,-7.541735,-0.60333884
0.17953303,4.605637,-0.670815,0.26904595,-0.23841901,1.0821792,-7.541735,-0.60333884
0.17905217,4.6047945,-0.670815,0.26904595,-0.23841901,1.0821792,-7.541735,-0.60333884
0.17874019,4.604224,-0.65377074,0.25093648,-0.21285266,1.0390835,-7.5800424,-0.6607997
0.17836474,4.6035385,-0.65377074,0.25093648,-0.21285266,1.0390835,-7.5800424,-0.6607997
0.17800695,4.6028714,-0.62713915,0.22750065,-0.1936779,1.0534488,-7.5704656,-0.79966336
0.17763977,4.6021876,-0.62713915,0.22750065,-0.1936779,1.0534488,-7.5704656,-0.79966336
0.17729577,4.6015487,-0.59305066,0.20086904,-0.17982946,1.0390835,-7.6614456,-0.94810385
0.17696635,4.6009374,-0.59305066,0.20086904,-0.17982946,1.0390835,-7.6614456,-0.94810385
0.17664884,4.6003623,-0.55470115,0.17104164,-0.16811156,0.93852705,-7.7572136,-0.9911995
0.17632402,4.599775,-0.55470115,0.17104164,-0.16811156,0.93852705,-7.7572136,-0.9911995
0.17601432,4.5992336,-0.5131558,0.14014897,-0.15532838,0.78529817,-7.752425,-0.9672575
0.1757048,4.598693,-0.5131558,0.14014897,-0.15532838,0.78529817,-7.752425,-0.9672575
0.17541163,4.5981965,-0.47054526,0.10819103,-0.14361048,0.7757214,-7.8912888,-1.0773908
0.17511313,4.5976915,-0.47054526,0.10819103,-0.14361048,0.7757214,-7.8912888,-1.0773908
0.17484058,4.597242,-0.42899993,0.07729836,-0.12869677,0.7517793,-7.967903,-1.1540052
0.17456526,4.5967875,-0.42899993,0.07729836,-0.12869677,0.7517793,-7.967903,-1.1540052
0.17431039,4.5963683,-0.38851988,0.050666746,-0.11271781,0.521936,-8.034941,-1.283292
0.17405447,4.5959473,-0.38851988,0.050666746,-0.11271781,0.521936,-8.034941,-1.283292
0.17382249,4.595557,-0.35230088,0.024035135,-0.093543045,0.2681506,-8.154651,-1.364695
0.17359315,4.5951724,-0.35230088,0.024035135,-0.093543045,0.2681506,-8.154651,-1.364695
0.1733923,4.594816,-0.3192777,-0.0015312112,-0.0679767,0.11492168,-8.207323,-1.3982137
0.17319141,4.5944605,-0.3192777,-0.0015312112,-0.0679767,0.11492168,-8.207323,-1.3982137
0.17302895,4.594136,-0.28731975,-0.026032293,-0.036018763,0.0047884034,-8.250419,-1.4508862
0.17286636,4.5938115,-0.28731975,-0.026032293,-0.036018763,0.0047884034,-8.250419,-1.4508862
0.17274418,4.5935163,-0.2564271,-0.050533377,-0.0019303001,-0.038307227,-8.24563,-1.5131354
0.17262131,4.59322,-0.2564271,-0.050533377,-0.0019303001,-0.038307227,-8.24563,-1.5131354
0.17253567,4.592953,-0.22766495,-0.07503446,0.030027634,-0.10055647,-8.298303,-1.5466543
0.17244996,4.592686,-0.22766495,-0.07503446,0.030027634,-0.10055647,-8.298303,-1.5466543
0.1723975,4.5924563,-0.19890282,-0.09740501,0.06305083,-0.22505496,-8.408437,-1.4700398
0.17234491,4.592225,-0.19890282,-0.09740501,0.06305083,-0.22505496,-8.408437,-1.4700398
0.17232278,4.5920286,-0.17120594,-0.11764504,0.09287824,-0.37828386,-8.595184,-1.4173675
0.17230058,4.591832,-0.17120594,-0.11764504,0.09287824,-0.37828386,-8.595184,-1.4173675
0.17231636,4.591656,-0.14350906,-0.133624,0.12164038,-0.641646,-8.710106,-1.4413095
0.17233223,4.5914793,-0.14350906,-0.133624,0.12164038,-0.641646,-8.710106,-1.4413095
0.17237103,4.59134,-0.11687745,-0.14534192,0.14933725,-0.8379706,-8.887277,-1.3263878
0.17240961,4.591202,-0.11687745,-0.14534192,0.14933725,-0.8379706,-8.887277,-1.3263878
0.1725297,4.591046,-0.092376366,-0.1549293,0.17703412,-1.2258313,-9.045294,-1.5227122
0.17264935,4.59089,-0.092376366,-0.1549293,0.17703412,-1.2258313,-9.045294,-1.5227122
0.17279771,4.590761,-0.06681002,-0.16451667,0.20366573,-1.340753,-9.227253,-1.4556746
0.17294566,4.5906324,-0.06681002,-0.16451667,0.20366573,-1.340753,-9.227253,-1.4556746
0.17314616,4.5905194,-0.04017841,-0.17197353,0.22390577,-1.4317327,-9.303867,-1.6041151
0.17334495,4.590408,-0.04017841,-0.17197353,0.22390577,-1.4317327,-9.303867,-1.6041151
0.17358473,4.590319,-0.013546798,-0.17729984,0.23988473,-1.5658079,-9.404425,-1.7286136
0.17382607,4.5902295,-0.013546798,-0.17729984,0.23988473,-1.5658079,-9.404425,-1.7286136
0.17408103,4.590168,0.013084813,-0.18369143,0.24947211,-1.6184803,-9.524135,-1.6807296
0.17433546,4.590106,0.013084813,-0.18369143,0.24947211,-1.6184803,-9.524135,-1.6807296
0.17459336,4.5900736,0.041846953,-0.18901776,0.25053737,-1.6472107,-9.639056,-1.7238252
0.17485084,4.590041,0.041846953,-0.18901776,0.25053737,-1.6472107,-9.639056,-1.7238252
0.1751194,4.5900407,0.07273962,-0.19327882,0.24308053,-1.7477672,-9.648633,-1.6998832
0.1753875,4.5900397,0.07273962,-0.19327882,0.24308053,-1.7477672,-9.648633,-1.6998832
0.17565061,4.5900726,0.104697555,-0.19753987,0.2228405,-1.8148049,-9.672575,-1.7238252
0.17590754,4.590105,0.104697555,-0.19753987,0.2228405,-1.8148049,-9.672575,-1.7238252
0.1761535,4.590172,0.1366555,-0.19860514,0.19514363,-1.8914193,-9.725247,-1.7429788
0.17641929,4.5902452,0.1366555,-0.19860514,0.19514363,-1.8914193,-9.725247,-1.7429788
0.17661604,4.590333,0.16754816,-0.19860514,0.16212043,-1.9776106,-9.782708,-1.757344
0.17684308,4.5904355,0.16754816,-0.19860514,0.16212043,-1.9776106,-9.782708,-1.757344
0.17703027,4.590559,0.19524503,-0.19753987,0.12377091,-2.15957,-9.868899,-1.8722657
0.17733663,4.5907607,0.19524503,-0.19753987,0.12377091,-2.15957,-9.868899,-1.8722657
0.17741844,4.5908365,0.21761559,-0.19434407,0.08435612,-2.2457612,-9.935937,-1.8579005
0.17761977,4.5910234,0.21761559,-0.19434407,0.08435612,-2.2457612,-9.935937,-1.8579005
0.17773098,4.5911684,0.23572509,-0.19114828,0.04387607,-2.327164,-10.0269165,-1.8531121
0.17786506,4.591343,0.23572509,-0.19114828,0.04387607,-2.327164,-10.0269165,-1.8531121
0.17797074,4.59154,0.24957353,-0.18901776,0.0023307577,-2.4229321,-10.089166,-1.8291701
0.17807508,4.5917344,0.24957353,-0.18901776,0.0023307577,-2.4229321,-10.089166,-1.8291701
0.17815065,4.5919557,0.26129144,-0.18688722,-0.03814929,-2.4660277,-10.113108,-1.7860745
0.17822075,4.5921617,0.26129144,-0.18688722,-0.03814929,-2.4660277,-10.113108,-1.7860745
0.17827076,4.5924063,0.27194408,-0.18262617,-0.075433545,-2.4516625,-10.084377,-1.6567876
0.17831653,4.5926323,0.27194408,-0.18262617,-0.075433545,-2.4516625,-10.084377,-1.6567876
0.178338,4.592885,0.28153145,-0.17729984,-0.11378307,-2.4037786,-10.0269165,-1.5179238
0.17835894,4.593136,0.28153145,-0.17729984,-0.11378307,-2.4037786,-10.0269165,-1.5179238
0.17833889,4.593395,0.29111883,-0.17197353,-0.15106732,-2.3080103,-10.070012,-1.484405
0.17831843,4.593654,0.29111883,-0.17197353,-0.15106732,-2.3080103,-10.070012,-1.484405
0.1782857,4.5939484,0.2985757,-0.16558194,-0.18515578,-2.2457612,-10.070012,-1.316811
0.1782519,4.594247,0.2985757,-0.16558194,-0.18515578,-2.2457612,-10.070012,-1.316811
0.17818709,4.594547,0.30496728,-0.15919036,-0.21711372,-2.1260512,-10.036493,-1.2737153
0.17812157,4.594846,0.30496728,-0.15919036,-0.21711372,-2.1260512,-10.036493,-1.2737153
0.17802487,4.595148,0.3070978,-0.1517335,-0.24800639,-2.1164744,-10.084377,-1.2689269
0.17792383,4.5954604,0.3070978,-0.1517335,-0.24800639,-2.1164744,-10.084377,-1.2689269
0.17780767,4.5957565,0.30603254,-0.14321138,-0.274638,-2.0350714,-9.998186,-1.2210429
0.17768604,4.596063,0.30603254,-0.14321138,-0.274638,-2.0350714,-9.998186,-1.2210429
0.17753682,4.596429,0.3007062,-0.133624,-0.29700854,-1.910573,-9.931149,-1.1300632
0.17738955,4.596791,0.3007062,-0.133624,-0.29700854,-1.910573,-9.931149,-1.1300632
0.17711858,4.597209,0.2921841,-0.122971356,-0.3140528,-1.8100165,-9.825804,-0.9959879
0.17684734,4.5976305,0.2921841,-0.122971356,-0.3140528,-1.8100165,-9.825804,-0.9959879
0.17648523,4.598028,0.27833566,-0.11338398,-0.32683596,-1.6759412,-9.792285,-0.9816227
0.17612384,4.5984263,0.27833566,-0.11338398,-0.32683596,-1.6759412,-9.792285,-0.9816227
0.17571354,4.5987887,0.26022616,-0.10060081,-0.33642334,-1.5370775,-9.730036,-0.93852705
0.17530203,4.599152,0.26022616,-0.10060081,-0.33642334,-1.5370775,-9.730036,-0.93852705
0.17487292,4.599481,0.23785561,-0.08675237,-0.33961913,-1.3982137,-9.65821,-0.8858546
0.17444363,4.59981,0.23785561,-0.08675237,-0.33961913,-1.3982137,-9.65821,-0.8858546
0.17401181,4.600109,0.21228927,-0.07290393,-0.33961913,-1.3120226,-9.605537,-0.8379706
0.1735785,4.6004095,0.21228927,-0.07290393,-0.33961913,-1.3120226,-9.605537,-0.8379706
0.17313872,4.600671,0.18565765,-0.059055492,-0.33642334,-1.1300632,-9.562442,-0.79008657
0.1726971,4.600934,0.18565765,-0.059055492,-0.33642334,-1.1300632,-9.562442,-0.79008657
0.17226282,4.60116,0.15583025,-0.045207053,-0.32683596,-1.0965444,-9.576807,-0.79487497
0.1718293,4.6013856,0.15583025,-0.045207053,-0.32683596,-1.0965444,-9.576807,-0.79487497
0.17140801,4.6015825,0.12493758,-0.03242388,-0.31724858,-1.0486604,-9.533711,-0.7326257
0.17098635,4.6017804,0.12493758,-0.03242388,-0.31724858,-1.0486604,-9.533711,-0.7326257
0.17057541,4.6019416,0.09297965,-0.017510178,-0.30340013,-0.9768343,-9.552865,-0.7086837
0.1701645,4.6021028,0.09297965,-0.017510178,-0.30340013,-0.9768343,-9.552865,-0.7086837
0.16978295,4.6022415,0.062086977,-0.0025964756,-0.28742117,-0.89064306,-9.576807,-0.51714754
0.16940565,4.602379,0.062086977,-0.0025964756,-0.28742117,-0.89064306,-9.576807,-0.51714754
0.1690333,4.602485,0.033324838,0.010186698,-0.2682464,-0.8283938,-9.552865,-0.51714754
0.1686765,4.6025867,0.033324838,0.010186698,-0.2682464,-0.8283938,-9.552865,-0.51714754
0.16832593,4.602665,0.008823755,0.021904606,-0.24800639,-0.7278373,-9.552865,-0.45489833
0.1678974,4.602761,0.008823755,0.021904606,-0.24800639,-0.7278373,-9.552865,-0.45489833
0.16761875,4.602808,-0.009285741,0.032557253,-0.22457057,-0.7517793,-9.557653,-0.50278234
0.16729976,4.6028614,-0.009285741,0.032557253,-0.22457057,-0.7517793,-9.557653,-0.50278234
0.16698925,4.602896,-0.025264706,0.043209895,-0.20220003,-0.6991069,-9.562442,-0.51235914
0.16667894,4.602931,-0.025264706,0.043209895,-0.20220003,-0.6991069,-9.562442,-0.51235914
0.16638118,4.6029468,-0.03698262,0.050666746,-0.18195999,-0.60333884,-9.581595,-0.5363012
0.16608198,4.602963,-0.03698262,0.050666746,-0.18195999,-0.60333884,-9.581595,-0.5363012
0.16580099,4.6029663,-0.04763526,0.05599307,-0.1638505,-0.5363012,-9.629479,-0.521936
0.16552034,4.602969,-0.04763526,0.05599307,-0.1638505,-0.5363012,-9.629479,-0.521936
0.16525432,4.602961,-0.056157377,0.05918886,-0.14680627,-0.47884035,-9.562442,-0.521936
0.16498737,4.602953,-0.056157377,0.05918886,-0.14680627,-0.47884035,-9.562442,-0.521936
0.1647381,4.602936,-0.06361423,0.060254127,-0.1308273,-0.4261679,-9.504981,-0.50757074
0.16448838,4.602919,-0.06361423,0.060254127,-0.1308273,-0.4261679,-9.504981,-0.50757074
0.16424744,4.6028914,-0.06894055,0.0581236,-0.11378307,-0.38307226,-9.437943,-0.5602432
0.1640099,4.6028643,-0.06894055,0.0581236,-0.11378307,-0.38307226,-9.437943,-0.5602432
0.16378096,4.602832,-0.07000581,0.053862542,-0.10206516,-0.31603462,-9.44752,-0.59376204
0.16355005,4.6027994,-0.07000581,0.053862542,-0.10206516,-0.31603462,-9.44752,-0.59376204
0.1633319,4.60277,-0.07213634,0.04853622,-0.09460831,-0.2681506,-9.41879,-0.521936
0.16311356,4.60274,-0.07213634,0.04853622,-0.09460831,-0.2681506,-9.41879,-0.521936
0.16289896,4.602709,-0.07320161,0.040014103,-0.09034725,-0.2777274,-9.452309,-0.5506664
0.16268447,4.602678,-0.07320161,0.040014103,-0.09034725,-0.2777274,-9.452309,-0.5506664
0.1624853,4.6026607,-0.07107108,0.032557253,-0.08502093,-0.4165911,-9.552865,-0.46926352
0.16228628,4.602643,-0.07107108,0.032557253,-0.08502093,-0.4165911,-9.552865,-0.46926352
0.16209982,4.6026354,-0.06787529,0.022969872,-0.078629345,-0.521936,-9.68694,-0.45968673
0.16191232,4.602627,-0.06787529,0.022969872,-0.078629345,-0.521936,-9.68694,-0.45968673
0.16173688,4.602626,-0.06467949,0.014447756,-0.07117249,-0.56982,-9.797073,-0.4405331
0.16156612,4.602626,-0.06467949,0.014447756,-0.07117249,-0.56982,-9.797073,-0.4405331
0.16140023,4.602632,-0.058287904,0.003795111,-0.062650375,-0.6607997,-9.868899,-0.51714754
0.16123275,4.6026382,-0.058287904,0.003795111,-0.062650375,-0.6607997,-9.868899,-0.51714754
0.1610652,4.6026435,-0.049765788,-0.007922798,-0.05199773,-0.6799533,-9.849746,-0.6751649
0.16089769,4.6026487,-0.049765788,-0.007922798,-0.05199773,-0.6799533,-9.849746,-0.6751649
0.16073143,4.602656,-0.04017841,-0.019640706,-0.04454088,-0.6512229,-9.835381,-0.7613561
0.16056421,4.602663,-0.04017841,-0.019640706,-0.04454088,-0.6512229,-9.835381,-0.7613561
0.16040042,4.602676,-0.0284605,-0.031358615,-0.03814929,-0.51714754,-9.720459,-0.78529817
0.16023247,4.602689,-0.0284605,-0.031358615,-0.03814929,-0.51714754,-9.720459,-0.78529817
0.16006495,4.602701,-0.015677327,-0.044141788,-0.037084028,-0.4165911,-9.619903,-0.89064306
0.15990002,4.602713,-0.015677327,-0.044141788,-0.037084028,-0.4165911,-9.619903,-0.89064306
0.15972549,4.6027246,-0.0050246827,-0.0558597,-0.04241035,-0.33039984,-9.509769,-0.9911995
0.15955257,4.6027355,-0.0050246827,-0.0558597,-0.04241035,-0.33039984,-9.509769,-0.9911995
0.15937021,4.6027617,0.005627962,-0.06331655,-0.050932467,-0.2825158,-9.457097,-0.9576807
0.15918534,4.602788,0.005627962,-0.06331655,-0.050932467,-0.2825158,-9.457097,-0.9576807
0.15899141,4.602827,0.015215342,-0.06757761,-0.06371564,-0.25857377,-9.394848,-0.92895025
0.1587971,4.602866,0.015215342,-0.06757761,-0.06371564,-0.25857377,-9.394848,-0.92895025
0.15858327,4.6029015,0.022672193,-0.0707734,-0.0828904,-0.31124622,-9.375694,-1.0295067
0.15836836,4.6029367,0.022672193,-0.0707734,-0.0828904,-0.31124622,-9.375694,-1.0295067
0.15813436,4.6029716,0.027998514,-0.07183866,-0.10313042,-0.33997664,-9.399636,-1.0869676
0.15789816,4.6030064,0.027998514,-0.07183866,-0.10313042,-0.33997664,-9.399636,-1.0869676
0.1576498,4.6030464,0.031194309,-0.07290393,-0.11910939,-0.4165911,-9.500193,-1.0726024
0.15739688,4.6030884,0.031194309,-0.07290393,-0.11910939,-0.4165911,-9.500193,-1.0726024
0.15713587,4.603137,0.032259572,-0.07290393,-0.13189256,-0.47884035,-9.533711,-1.0247183
0.156873,4.6031857,0.032259572,-0.07290393,-0.13189256,-0.47884035,-9.533711,-1.0247183
0.15660188,4.6032395,0.032259572,-0.07183866,-0.14147994,-0.5554548,-9.68694,-1.0055647
0.15632933,4.603294,0.032259572,-0.07183866,-0.14147994,-0.5554548,-9.68694,-1.0055647
0.15605097,4.60335,0.031194309,-0.0707734,-0.1489368,-0.6560113,-9.768343,-0.9959879
0.15576419,4.6034083,0.031194309,-0.0707734,-0.1489368,-0.6560113,-9.768343,-0.9959879
0.15548891,4.6034575,0.030129045,-0.06864287,-0.15106732,-0.7278373,-9.878476,-1.0390835
0.15520711,4.603508,0.030129045,-0.06864287,-0.15106732,-0.7278373,-9.878476,-1.0390835
0.15492973,4.603562,0.027998514,-0.066512346,-0.14787152,-0.82360536,-9.921572,-1.0151415
0.15465103,4.6036158,0.027998514,-0.066512346,-0.14787152,-0.82360536,-9.921572,-1.0151415
0.15437587,4.603657,0.025867987,-0.064381815,-0.14361048,-0.90500826,-10.0029745,-1.0821792
0.15409958,4.603697,0.025867987,-0.064381815,-0.14361048,-0.90500826,-10.0029745,-1.0821792
0.1538326,4.6037498,0.022672193,-0.062251285,-0.1372189,-0.94331545,-10.0508585,-1.0151415
0.15356563,4.6038027,0.022672193,-0.062251285,-0.1372189,-0.94331545,-10.0508585,-1.0151415
0.15330732,4.603854,0.020541664,-0.06118602,-0.12869677,-0.9720459,-10.01734,-1.0103531
0.15304895,4.603905,0.020541664,-0.06118602,-0.12869677,-0.9720459,-10.01734,-1.0103531
0.15280123,4.603943,0.019476399,-0.059055492,-0.1159136,-0.93373865,-10.01734,-1.0630256
0.15255202,4.6039796,0.019476399,-0.059055492,-0.1159136,-0.93373865,-10.01734,-1.0630256
0.1523131,4.60401,0.016280606,-0.05692496,-0.106326215,-0.92895025,-10.012551,-1.0726024
0.15207304,4.6040406,0.016280606,-0.05692496,-0.106326215,-0.92895025,-10.012551,-1.0726024
0.15183479,4.60406,0.0141500775,-0.0558597,-0.10526095,-0.8858546,-9.974244,-1.1061212
0.15159628,4.60408,0.0141500775,-0.0558597,-0.10526095,-0.8858546,-9.974244,-1.1061212
0.15135604,4.604088,0.012019549,-0.052663904,-0.108456746,-0.90979666,-9.945514,-1.1444284
0.15111078,4.604095,0.012019549,-0.052663904,-0.108456746,-0.90979666,-9.945514,-1.1444284
0.15086584,4.604124,0.010954284,-0.048402846,-0.1159136,-0.8858546,-9.988609,-1.043872
0.15061587,4.604153,0.010954284,-0.048402846,-0.1159136,-0.8858546,-9.988609,-1.043872
0.1503593,4.604195,0.010954284,-0.04627232,-0.12656625,-0.90979666,-10.007763,-0.9911995
0.15010214,4.6042366,0.010954284,-0.04627232,-0.12656625,-0.90979666,-10.007763,-0.9911995
0.14983031,4.6042666,0.008823755,-0.04201126,-0.13934942,-0.93373865,-10.065224,-1.0390835
0.14955682,4.6042967,0.008823755,-0.04201126,-0.13934942,-0.93373865,-10.065224,-1.0390835
0.14926964,4.6043305,0.005627962,-0.035619672,-0.15532838,-0.9864111,-10.1226845,-1.0199299
0.1489818,4.604364,0.005627962,-0.035619672,-0.15532838,-0.9864111,-10.1226845,-1.0199299
0.14867604,4.604357,0.00030163955,-0.030293351,-0.17237261,-1.0534488,-10.175357,-1.1540052
0.14836779,4.6043496,0.00030163955,-0.030293351,-0.17237261,-1.0534488,-10.175357,-1.1540052
0.14804803,4.604326,-0.0050246827,-0.026032293,-0.18835159,-1.0199299,-10.160992,-1.1971009
0.14772804,4.604302,-0.0050246827,-0.026032293,-0.18835159,-1.0199299,-10.160992,-1.1971009
0.14738987,4.604274,-0.0114162695,-0.0228365,-0.20646107,-1.0007763,-10.204087,-1.1971009
0.14704978,4.604245,-0.0114162695,-0.0228365,-0.20646107,-1.0007763,-10.204087,-1.1971009
0.14669289,4.604204,-0.018873122,-0.019640706,-0.22563584,-0.9672575,-10.189722,-1.2210429
0.14633606,4.604163,-0.018873122,-0.019640706,-0.22563584,-0.9672575,-10.189722,-1.2210429
0.14596757,4.604101,-0.024199443,-0.018575443,-0.24694112,-0.94331545,-10.16578,-1.3024458
0.14559695,4.6040387,-0.024199443,-0.018575443,-0.24694112,-0.94331545,-10.16578,-1.3024458
0.14522101,4.603957,-0.0284605,-0.015379649,-0.26611587,-0.91458505,-10.089166,-1.3934253
0.14484291,4.6038756,-0.0284605,-0.015379649,-0.26611587,-0.91458505,-10.089166,-1.3934253
0.14443403,4.6038055,-0.031656295,-0.010053327,-0.28529066,-0.8810662,-10.055647,-1.3024458
0.1440252,4.6037354,-0.031656295,-0.010053327,-0.28529066,-0.8810662,-10.055647,-1.3024458
0.14358567,4.603666,-0.032721557,-0.0068575335,-0.30553067,-0.8714894,-10.031705,-1.283292
0.14358567,4.603666,-0.031656295,-0.0025964756,-0.32150963,-0.7422025,-10.031705,-1.4748282
0.14358567,4.603666,-0.031656295,-0.0025964756,-0.32150963,-0.7422025,-10.031705,-1.4748282
0.14227623,4.603403,-0.031656295,-0.0025964756,-0.32150963,-0.7422025,-10.031705,-1.4748282
0.14179634,4.603333,-0.03059103,0.0016645822,-0.33642334,-0.7326257,-10.012551,-1.3263878
0.14118975,4.603244,-0.03059103,0.0016645822,-0.33642334,-0.7326257,-10.012551,-1.3263878
0.14118975,4.603244,-0.03059103,0.0016645822,-0.33642334,-0.7326257,-10.012551,-1.3263878
0.1402138,4.603115,-0.029525764,0.0048603755,-0.3502718,-0.6799533,-9.921572,-1.3024458
0.13990617,4.6030726,-0.027395237,0.008056169,-0.36198968,-0.6607997,-9.873688,-1.340753
0.1392818,4.6029863,-0.027395237,0.008056169,-0.36198968,-0.6607997,-9.873688,-1.340753
0.13832434,4.60286,-0.025264706,0.010186698,-0.3705118,-0.6847417,-9.878476,-1.3311762
0.13832434,4.60286,-0.025264706,0.010186698,-0.3705118,-0.6847417,-9.878476,-1.3311762
0.13737378,4.602747,-0.022068914,0.011251962,-0.37796864,-0.63206923,-9.873688,-1.3311762
0.13737378,4.602747,-0.022068914,0.011251962,-0.37796864,-0.63206923,-9.873688,-1.3311762
0.13682619,4.602692,-0.018873122,0.011251962,-0.38116443,-0.521936,-9.888053,-1.3215994
0.1364091,4.6026506,-0.018873122,0.011251962,-0.38116443,-0.521936,-9.888053,-1.3215994
0.13585968,4.6026006,-0.015677327,0.009121433,-0.38116443,-0.45010993,-9.80665,-1.3215994
0.13539076,4.602557,-0.015677327,0.009121433,-0.38116443,-0.45010993,-9.80665,-1.3215994
0.13539076,4.602557,-0.015677327,0.009121433,-0.38116443,-0.45010993,-9.80665,-1.3215994
0.13427031,4.602468,-0.013546798,0.0069909045,-0.38009918,-0.44532153,-9.825804,-1.2976574
0.13385758,4.602448,-0.0114162695,0.0048603755,-0.3737076,-0.40222588,-9.782708,-1.2018893
0.13334894,4.602423,-0.0114162695,0.0048603755,-0.3737076,-0.40222588,-9.782708,-1.2018893
0.13284644,4.6023936,-0.0114162695,-0.00046594674,-0.367316,-0.35913026,-9.768343,-1.2401965
0.13234289,4.602364,-0.0114162695,-0.00046594674,-0.367316,-0.35913026,-9.768343,-1.2401965
0.13185081,4.6023417,-0.010351005,-0.00366174,-0.35772863,-0.33997664,-9.763555,-1.2018893
0.13135284,4.602319,-0.010351005,-0.00366174,-0.35772863,-0.33997664,-9.763555,-1.2018893
0.13087526,4.6023097,-0.009285741,-0.007922798,-0.3460107,-0.31603462,-9.768343,-1.1204864
0.13039376,4.6023006,-0.009285741,-0.007922798,-0.3460107,-0.31603462,-9.768343,-1.1204864
0.12992316,4.6022964,-0.010351005,-0.014314385,-0.3342928,-0.29209262,-9.744401,-1.0821792
0.12945303,4.602292,-0.010351005,-0.014314385,-0.3342928,-0.29209262,-9.744401,-1.0821792
0.12899707,4.6022816,-0.0114162695,-0.021771235,-0.32044438,-0.21068975,-9.753978,-1.1252748
0.12854108,4.602271,-0.0114162695,-0.021771235,-0.32044438,-0.21068975,-9.753978,-1.1252748
0.128098,4.6022725,-0.012481534,-0.029228088,-0.30872646,-0.17717093,-9.725247,-1.0342951
0.12765495,4.602273,-0.012481534,-0.029228088,-0.30872646,-0.17717093,-9.725247,-1.0342951
0.12722604,4.602279,-0.0114162695,-0.037750203,-0.2959433,-0.14844051,-9.68694,-1.0055647
0.12679282,4.6022854,-0.0114162695,-0.037750203,-0.2959433,-0.14844051,-9.68694,-1.0055647
0.1263656,4.6023006,-0.009285741,-0.048402846,-0.28529066,-0.12449849,-9.624691,-0.9528923
0.12596375,4.602315,-0.009285741,-0.048402846,-0.28529066,-0.12449849,-9.624691,-0.9528923
0.1255621,4.602343,-0.006089947,-0.057990227,-0.27570325,-0.11492168,-9.5385,-0.866701
0.12516007,4.602371,-0.006089947,-0.057990227,-0.27570325,-0.11492168,-9.5385,-0.866701
0.12476983,4.602409,-0.0018288894,-0.06864287,-0.26611587,-0.11492168,-9.514558,-0.8331822
0.12437959,4.602446,-0.0018288894,-0.06864287,-0.26611587,-0.11492168,-9.514558,-0.8331822
0.123997524,4.6024847,0.001366904,-0.079295516,-0.25759378,-0.08140286,-9.457097,-0.8523358
0.12361557,4.6025224,0.001366904,-0.079295516,-0.25759378,-0.08140286,-9.457097,-0.8523358
0.12324152,4.602566,0.0066932263,-0.08888289,-0.2501369,-0.05746084,-9.41879,-0.8571242
0.122867495,4.6026096,0.0066932263,-0.08888289,-0.2501369,-0.05746084,-9.41879,-0.8571242
0.12250342,4.6026654,0.010954284,-0.09740501,-0.2448106,-0.090979666,-9.423578,-0.79487497
0.122138575,4.602722,0.010954284,-0.09740501,-0.2448106,-0.090979666,-9.423578,-0.79487497
0.1217794,4.602779,0.015215342,-0.105927125,-0.23841901,-0.076614454,-9.394848,-0.8283938
0.121420205,4.6028357,0.015215342,-0.105927125,-0.23841901,-0.076614454,-9.394848,-0.8283938
0.12106272,4.6028786,0.017345872,-0.11444924,-0.23096216,-0.10055647,-9.356541,-0.9672575
0.1207081,4.602921,0.017345872,-0.11444924,-0.23096216,-0.10055647,-9.356541,-0.9672575
0.12036012,4.602974,0.018411135,-0.12084083,-0.22563584,-0.076614454,-9.394848,-0.90021986
0.12001209,4.603027,0.018411135,-0.12084083,-0.22563584,-0.076614454,-9.394848,-0.90021986
0.11966619,4.603068,0.020541664,-0.12616715,-0.22137478,-0.062249243,-9.3421755,-1.0055647
0.11932023,4.6031094,0.020541664,-0.12616715,-0.22137478,-0.062249243,-9.3421755,-1.0055647
0.11897799,4.603148,0.019476399,-0.13255873,-0.21817899,-0.07182605,-9.284714,-1.0151415
0.118635744,4.603186,0.019476399,-0.13255873,-0.21817899,-0.07182605,-9.284714,-1.0151415
0.11829917,4.6032176,0.017345872,-0.1368198,-0.21285266,-0.033518825,-9.270349,-1.0534488
0.117962606,4.603249,0.017345872,-0.1368198,-0.21285266,-0.033518825,-9.270349,-1.0534488
0.11763173,4.6032786,0.0141500775,-0.13788506,-0.20752634,-0.0047884034,-9.26556,-1.043872
0.11729994,4.6033077,0.0141500775,-0.13788506,-0.20752634,-0.0047884034,-9.26556,-1.043872
0.11697239,4.6033373,0.010954284,-0.13895033,-0.20433055,-0.06703765,-9.203311,-1.0103531
0.11664455,4.603367,0.010954284,-0.13895033,-0.20433055,-0.06703765,-9.203311,-1.0103531
0.11631883,4.6033955,0.0066932263,-0.1368198,-0.20220003,-0.16280572,-9.241618,-0.9864111
0.115993075,4.6034245,0.0066932263,-0.1368198,-0.20220003,-0.16280572,-9.241618,-0.9864111
0.11566725,4.6034484,0.00030163955,-0.13468927,-0.20220003,-0.22026655,-9.3182335,-0.9864111
0.11534138,4.6034718,0.00030163955,-0.13468927,-0.20220003,-0.22026655,-9.3182335,-0.9864111
0.11502184,4.6035004,-0.0071552116,-0.13255873,-0.19793896,-0.33518824,-9.380483,-0.92895025
0.11470235,4.6035285,-0.0071552116,-0.13255873,-0.19793896,-0.33518824,-9.380483,-0.92895025
0.11438321,4.6035466,-0.015677327,-0.12936294,-0.1968737,-0.4309563,-9.414001,-0.94810385
0.11406435,4.603565,-0.015677327,-0.12936294,-0.1968737,-0.4309563,-9.414001,-0.94810385
0.11374969,4.603586,-0.024199443,-0.12723242,-0.19580843,-0.4213795,-9.476251,-0.89543146
0.11343535,4.603607,-0.024199443,-0.12723242,-0.19580843,-0.4213795,-9.476251,-0.89543146
0.113121904,4.603618,-0.033786822,-0.12616715,-0.19474317,-0.47884035,-9.504981,-0.90979666
0.112808526,4.603629,-0.033786822,-0.12616715,-0.19474317,-0.47884035,-9.504981,-0.90979666
0.1124919,4.6036277,-0.041243672,-0.12616715,-0.19580843,-0.46447513,-9.548077,-0.93852705
0.112175256,4.603626,-0.041243672,-0.12616715,-0.19580843,-0.46447513,-9.548077,-0.93852705
0.11185626,4.60362,-0.04763526,-0.12829769,-0.19900422,-0.521936,-9.581595,-0.94331545
0.11153743,4.603614,-0.04763526,-0.12829769,-0.19900422,-0.521936,-9.581595,-0.94331545
0.111217014,4.603613,-0.052961584,-0.13149348,-0.20539582,-0.5602432,-9.591172,-0.90979666
0.11089668,4.603612,-0.052961584,-0.13149348,-0.20539582,-0.5602432,-9.591172,-0.90979666
0.11056007,4.603594,-0.056157377,-0.13575453,-0.21604845,-0.5602432,-9.562442,-0.9672575
0.11022348,4.6035767,-0.056157377,-0.13575453,-0.21604845,-0.5602432,-9.562442,-0.9672575
0.10987329,4.603537,-0.057222642,-0.13895033,-0.2267011,-0.47884035,-9.452309,-1.0342951
0.10952309,4.6034975,-0.057222642,-0.13895033,-0.2267011,-0.47884035,-9.452309,-1.0342951
0.10915859,4.603453,-0.056157377,-0.14321138,-0.2416148,-0.34476504,-9.375694,-1.0582372
0.10879418,4.6034083,-0.056157377,-0.14321138,-0.2416148,-0.34476504,-9.375694,-1.0582372
0.10841438,4.603346,-0.056157377,-0.14534192,-0.26078957,-0.2825158,-9.203311,-1.13964
0.10803467,4.603284,-0.056157377,-0.14534192,-0.26078957,-0.2825158,-9.203311,-1.13964
0.107642174,4.6032085,-0.05509211,-0.14640717,-0.27996433,-0.21068975,-9.121908,-1.2354081
0.107249714,4.603133,-0.05509211,-0.14640717,-0.27996433,-0.21068975,-9.121908,-1.2354081
0.10684366,4.6030507,-0.052961584,-0.14427665,-0.29913908,-0.19153613,-9.040505,-1.2976574
0.10643766,4.602968,-0.052961584,-0.14427665,-0.29913908,-0.19153613,-9.040505,-1.2976574
0.10601269,4.6028857,-0.05189632,-0.14108086,-0.31831384,-0.16759412,-8.954314,-1.2976574
0.1055877,4.602803,-0.05189632,-0.14108086,-0.31831384,-0.16759412,-8.954314,-1.2976574
0.10515207,4.602714,-0.050831053,-0.13468927,-0.3342928,-0.18195933,-8.930372,-1.3503298
0.10471659,4.602625,-0.050831053,-0.13468927,-0.3342928,-0.18195933,-8.930372,-1.3503298
0.10425694,4.602545,-0.05189632,-0.12723242,-0.3492065,-0.1388637,-8.896853,-1.2689269
0.10379739,4.6024647,-0.05189632,-0.12723242,-0.3492065,-0.1388637,-8.896853,-1.2689269
0.10332333,4.6023874,-0.052961584,-0.1187103,-0.35985917,-0.18674773,-8.901642,-1.2162545
0.102849394,4.6023097,-0.052961584,-0.1187103,-0.35985917,-0.18674773,-8.901642,-1.2162545
0.10237472,4.6022205,-0.05402685,-0.109122925,-0.36625075,-0.15801731,-8.939949,-1.3072342
0.101900145,4.602131,-0.05402685,-0.109122925,-0.36625075,-0.15801731,-8.939949,-1.3072342
0.10142255,4.602028,-0.056157377,-0.10060081,-0.367316,-0.18195933,-8.930372,-1.364695
0.10094562,4.601926,-0.056157377,-0.10060081,-0.367316,-0.18195933,-8.930372,-1.364695
0.10046198,4.6018305,-0.05935317,-0.09207869,-0.36305496,-0.1436521,-8.992621,-1.292869
0.0998415,4.6017075,-0.05935317,-0.09207869,-0.36305496,-0.1436521,-8.992621,-1.292869
