Pitch,Roll,Gyro_X,Gyro_Y,Gyro_Z,Accel_X,Accel_Y,Accel_Z
1.0003637,2.9251494,0.058901753,0.09122362,0.38658234,0.090979666,-9.859323,1.0869676
1.0003637,2.9251494,0.058901753,0.09122362,0.38658234,0.090979666,-9.859323,1.0869676
0.99984443,2.9239302,0.06422807,0.09441942,0.38338655,0.05746084,-9.787497,1.0582372
0.99971366,2.9236243,0.06422807,0.09441942,0.38338655,0.05746084,-9.787497,1.0582372
0.99958014,2.9233143,0.06422807,0.09441942,0.381256,0.038307227,-9.830592,0.9864111
0.99942535,2.9229565,0.06422807,0.09441942,0.381256,0.038307227,-9.830592,0.9864111
0.9992715,2.9226034,0.0663586,0.09441942,0.38019076,0.033518825,-9.80665,1.0295067
0.99910027,2.922211,0.0663586,0.09441942,0.38019076,0.033518825,-9.80665,1.0295067
0.9989523,2.921877,0.067423865,0.09548468,0.37806022,-0.0047884034,-9.744401,1.0342951
0.99878585,2.921502,0.067423865,0.09548468,0.37806022,-0.0047884034,-9.744401,1.0342951
0.9986472,2.9211898,0.067423865,0.09441942,0.3759297,-0.038307227,-9.792285,1.0582372
0.99849236,2.9208405,0.067423865,0.09441942,0.3759297,-0.038307227,-9.792285,1.0582372
0.9983336,2.9204845,0.067423865,0.09441942,0.37486443,-0.033518825,-9.768343,1.043872
0.99817693,2.9201338,0.067423865,0.09441942,0.37486443,-0.033518825,-9.768343,1.043872
0.99802226,2.91979,0.068489134,0.09441942,0.37379918,-0.01436521,-9.758766,1.0582372
0.99786794,2.919448,0.068489134,0.09441942,0.37379918,-0.01436521,-9.758766,1.0582372
0.99771494,2.9191082,0.070619665,0.09228889,0.37273392,0.033518825,-9.710882,0.9911995
0.9975601,2.9187644,0.070619665,0.09228889,0.37273392,0.033518825,-9.710882,0.9911995
0.99740547,2.9184213,0.07275019,0.09122362,0.37060338,-0.038307227,-9.739613,1.091756
0.99725264,2.918082,0.07275019,0.09122362,0.37060338,-0.038307227,-9.739613,1.091756
0.9971025,2.9177496,0.07168493,0.09122362,0.37060338,-0.08140286,-9.706094,1.0390835
0.9969514,2.9174144,0.07168493,0.09122362,0.37060338,-0.08140286,-9.706094,1.0390835
0.9967987,2.9170773,0.070619665,0.09122362,0.37060338,-0.07182605,-9.677363,0.9720459
0.9966452,2.9167387,0.070619665,0.09122362,0.37060338,-0.07182605,-9.677363,0.9720459
0.99649405,2.916404,0.070619665,0.09015836,0.36953813,-0.08619126,-9.744401,0.9864111
0.9963423,2.916068,0.070619665,0.09015836,0.36953813,-0.08619126,-9.744401,0.9864111
0.99619174,2.9157329,0.070619665,0.0890931,0.36847284,-0.0047884034,-9.739613,1.0390835
0.99604094,2.9153976,0.070619665,0.0890931,0.36847284,-0.0047884034,-9.739613,1.0390835
0.9958876,2.9150536,0.070619665,0.08802783,0.37060338,-0.033518825,-9.701305,0.9864111
0.9957371,2.9147162,0.070619665,0.08802783,0.37060338,-0.033518825,-9.701305,0.9864111
0.99559003,2.914381,0.07275019,0.084832035,0.37060338,-0.019153614,-9.68694,0.9959879
0.99544215,2.9140446,0.07275019,0.084832035,0.37060338,-0.019153614,-9.68694,0.9959879
0.9952953,2.913709,0.07275019,0.08376677,0.36953813,-0.009576807,-9.653421,0.9864111
0.9951488,2.9133747,0.07275019,0.08376677,0.36953813,-0.009576807,-9.653421,0.9864111
0.99500585,2.9130409,0.07275019,0.08057098,0.3674076,-0.01436521,-9.639056,1.0869676
0.9948635,2.912708,0.07275019,0.08057098,0.3674076,-0.01436521,-9.639056,1.0869676
0.9947236,2.9123769,0.07275019,0.07737519,0.36527705,0.023942016,-9.615114,1.0534488
0.99458367,2.912046,0.07275019,0.07737519,0.36527705,0.023942016,-9.615114,1.0534488
0.994447,2.9117162,0.07168493,0.07524466,0.3642118,0.009576807,-9.600749,1.0582372
0.99430907,2.911385,0.07168493,0.07524466,0.3642118,0.009576807,-9.600749,1.0582372
0.9941739,2.9110563,0.07381546,0.07311413,0.3642118,-0.047884032,-9.600749,1.043872
0.9940388,2.9107287,0.07381546,0.07311413,0.3642118,-0.047884032,-9.600749,1.043872
0.9939034,2.9103985,0.07381546,0.07311413,0.36527705,-0.02873042,-9.56723,1.0630256
0.99376726,2.9100685,0.07381546,0.07311413,0.36527705,-0.02873042,-9.56723,1.0630256
0.9936314,2.9097342,0.07275019,0.072048865,0.3674076,-0.05267244,-9.56723,1.0342951
0.9934961,2.9094005,0.07275019,0.072048865,0.3674076,-0.05267244,-9.56723,1.0342951
0.99335873,2.90906,0.069554396,0.07311413,0.37060338,-0.05267244,-9.5385,0.9864111
0.9932209,2.90872,0.069554396,0.07311413,0.37060338,-0.05267244,-9.5385,0.9864111
0.99308,2.9083712,0.068489134,0.07524466,0.3759297,-0.095768064,-9.524135,0.9624691
0.99293923,2.9080236,0.068489134,0.07524466,0.3759297,-0.095768064,-9.524135,0.9624691
0.99279535,2.9076684,0.067423865,0.07737519,0.38019076,-0.08140286,-9.466674,1.0247183
0.9926511,2.9073133,0.067423865,0.07737519,0.38019076,-0.08140286,-9.466674,1.0247183
0.9925036,2.906952,0.06529334,0.07950571,0.3844518,-0.06703765,-9.461885,0.9959879
0.9923562,2.9065893,0.06529334,0.07950571,0.3844518,-0.06703765,-9.461885,0.9959879
0.9922044,2.9062145,0.06103228,0.08163624,0.38977814,-0.05746084,-9.409213,0.9911995
0.9920533,2.9058414,0.06103228,0.08163624,0.38977814,-0.05746084,-9.409213,0.9911995
0.9918997,2.9054623,0.056771226,0.08376677,0.3908434,-0.019153614,-9.404425,1.0726024
0.99174637,2.9050837,0.056771226,0.08376677,0.3908434,-0.019153614,-9.404425,1.0726024
0.9915901,2.9047053,0.052510165,0.086962566,0.38871288,0.01436521,-9.390059,1.0630256
0.99143416,2.9043283,0.052510165,0.086962566,0.38871288,0.01436521,-9.390059,1.0630256
0.9912745,2.9039474,0.047183845,0.09015836,0.38658234,0.02873042,-9.394848,1.1013328
0.99111503,2.9035683,0.047183845,0.09015836,0.38658234,0.02873042,-9.394848,1.1013328
0.990953,2.9031878,0.039726995,0.09335415,0.38338655,0.05746084,-9.437943,1.0486604
0.99079084,2.9028082,0.039726995,0.09335415,0.38338655,0.05746084,-9.437943,1.0486604
0.9906273,2.9024339,0.033335406,0.09654994,0.3759297,0.02873042,-9.442732,1.0726024
0.9904636,2.90206,0.033335406,0.09654994,0.3759297,0.02873042,-9.442732,1.0726024
0.9903004,2.901694,0.028009083,0.098680474,0.3674076,0.01436521,-9.442732,1.1444284
0.9901365,2.9013271,0.028009083,0.098680474,0.3674076,0.01436521,-9.442732,1.1444284
0.989973,2.90097,0.021617498,0.100811005,0.3578202,-0.019153614,-9.404425,1.1300632
0.9898099,2.9006135,0.021617498,0.100811005,0.3578202,-0.019153614,-9.404425,1.1300632
0.98964703,2.900267,0.015225911,0.102941535,0.34716755,-0.047884032,-9.476251,1.13964
0.98948187,2.8999164,0.015225911,0.102941535,0.34716755,-0.047884032,-9.476251,1.13964
0.9893224,2.8995843,0.008834324,0.102941535,0.33438438,-0.08619126,-9.500193,1.1348516
0.9891637,2.8992534,0.008834324,0.102941535,0.33438438,-0.08619126,-9.500193,1.1348516
0.98900545,2.8989308,0.0035080016,0.1040068,0.324797,-0.15322891,-9.581595,1.1061212
0.9888463,2.8986075,0.0035080016,0.1040068,0.324797,-0.15322891,-9.581595,1.1061212
0.9886914,2.8982964,-0.00075305626,0.102941535,0.31414437,-0.18674773,-9.586384,1.1109096
0.98853624,2.8979855,-0.00075305626,0.102941535,0.31414437,-0.18674773,-9.586384,1.1109096
0.9883864,2.8976786,-0.0060793785,0.099745736,0.3066875,-0.23463176,-9.600749,1.13964
0.9882363,2.897372,-0.0060793785,0.099745736,0.3066875,-0.23463176,-9.600749,1.13964
0.9880892,2.8970666,-0.010340436,0.09761521,0.30242646,-0.21547815,-9.648633,1.1587936
0.9879427,2.896762,-0.010340436,0.09761521,0.30242646,-0.21547815,-9.648633,1.1587936
0.9877978,2.8964608,-0.01353623,0.09654994,0.29710013,-0.21547815,-9.667787,1.1731589
0.9876527,2.8961596,-0.01353623,0.09654994,0.29710013,-0.21547815,-9.667787,1.1731589
0.9875118,2.8958642,-0.015666759,0.09335415,0.2917738,-0.22505496,-9.65821,1.0869676
0.9873706,2.8955693,-0.015666759,0.09335415,0.2917738,-0.22505496,-9.65821,1.0869676
0.98723507,2.8952746,-0.016732022,0.0890931,0.2896433,-0.30166942,-9.701305,1.1587936
0.9870993,2.8949797,-0.016732022,0.0890931,0.2896433,-0.30166942,-9.701305,1.1587936
0.9869698,2.8946855,-0.016732022,0.082701504,0.28751275,-0.2873042,-9.68694,1.1731589
0.98684096,2.8943915,-0.016732022,0.082701504,0.28751275,-0.2873042,-9.68694,1.1731589
0.98671913,2.894095,-0.017797288,0.07524466,0.2864475,-0.2777274,-9.691729,1.1875241
0.98659647,2.8937972,-0.017797288,0.07524466,0.2864475,-0.2777274,-9.691729,1.1875241
0.98648226,2.8935034,-0.016732022,0.0677878,0.2853822,-0.25378537,-9.696517,1.0821792
0.98636717,2.8932087,-0.016732022,0.0677878,0.2853822,-0.25378537,-9.696517,1.0821792
0.98625743,2.8929162,-0.014601494,0.062461484,0.28431696,-0.21547815,-9.691729,1.0726024
0.9861476,2.8926227,-0.014601494,0.062461484,0.28431696,-0.21547815,-9.691729,1.0726024
0.98604226,2.8923256,-0.014601494,0.05713516,0.2853822,-0.15801731,-9.734824,1.1013328
0.9859369,2.892029,-0.014601494,0.05713516,0.2853822,-0.15801731,-9.734824,1.1013328
0.9858349,2.8917258,-0.014601494,0.052874103,0.288578,-0.17238252,-9.696517,1.1109096
0.9857329,2.8914227,-0.014601494,0.052874103,0.288578,-0.17238252,-9.696517,1.1109096
0.98563313,2.891115,-0.014601494,0.04967831,0.29070854,-0.12928689,-9.696517,1.1252748
0.9855337,2.8908079,-0.014601494,0.04967831,0.29070854,-0.12928689,-9.696517,1.1252748
0.98543715,2.8905034,-0.011405701,0.046482515,0.29070854,-0.11971009,-9.725247,1.1300632
0.98534036,2.8901973,-0.011405701,0.046482515,0.29070854,-0.11971009,-9.725247,1.1300632
0.9852456,2.889894,-0.008209907,0.044351988,0.29070854,-0.062249243,-9.753978,1.1923125
0.9852456,2.889894,-0.008209907,0.044351988,0.29070854,-0.062249243,-9.753978,1.1923125
0.9852456,2.889894,-0.008209907,0.044351988,0.29070854,-0.062249243,-9.753978,1.1923125
0.9852456,2.889894,-0.008209907,0.044351988,0.29070854,-0.062249243,-9.753978,1.1923125
0.9852456,2.889894,-0.008209907,0.044351988,0.29070854,-0.062249243,-9.753978,1.1923125
0.9846992,2.8881025,-0.005014114,0.043286722,0.3034917,-0.10534488,-9.753978,1.1540052
0.98460114,2.887782,-0.005014114,0.043286722,0.3034917,-0.10534488,-9.753978,1.1540052
0.98460114,2.887782,-0.005014114,0.043286722,0.3034917,-0.10534488,-9.753978,1.1540052
0.98460114,2.887782,-0.005014114,0.043286722,0.3034917,-0.10534488,-9.753978,1.1540052
0.98460114,2.887782,-0.005014114,0.043286722,0.3034917,-0.10534488,-9.753978,1.1540052
0.98460114,2.887782,-0.005014114,0.043286722,0.3034917,-0.10534488,-9.753978,1.1540052
0.9841343,2.8862622,0.0035080016,0.052874103,0.3279928,-0.06703765,-9.744401,1.0630256
0.9840304,2.885951,0.0035080016,0.052874103,0.3279928,-0.06703765,-9.744401,1.0630256
0.98390394,2.8855777,0.009899588,0.056069896,0.33758017,-0.062249243,-9.782708,1.0582372
0.98381406,2.885317,0.009899588,0.056069896,0.33758017,-0.062249243,-9.782708,1.0582372
0.98381406,2.885317,0.009899588,0.056069896,0.33758017,-0.062249243,-9.782708,1.0582372
0.98381406,2.885317,0.009899588,0.056069896,0.33758017,-0.062249243,-9.782708,1.0582372
0.98381406,2.885317,0.009899588,0.056069896,0.33758017,-0.062249243,-9.782708,1.0582372
0.9832104,2.8836744,0.01735644,0.06565727,0.35888547,-0.033518825,-9.758766,1.091756
0.9831732,2.8835733,0.01735644,0.06565727,0.35888547,-0.033518825,-9.758766,1.091756
0.98298067,2.8830519,0.01735644,0.06565727,0.35888547,-0.033518825,-9.758766,1.091756
0.98298067,2.8830519,0.01735644,0.06565727,0.35888547,-0.033518825,-9.758766,1.091756
0.98298067,2.8830519,0.01735644,0.06565727,0.35888547,-0.033518825,-9.758766,1.091756
0.9825072,2.881827,0.028009083,0.08163624,0.3908434,0.01436521,-9.720459,1.0869676
0.9823467,2.8814292,0.028009083,0.08163624,0.3908434,0.01436521,-9.720459,1.0869676
0.9821875,2.8810441,0.031204877,0.086962566,0.39616972,0.009576807,-9.744401,1.1348516
0.98212063,2.8808835,0.031204877,0.086962566,0.39616972,0.009576807,-9.744401,1.1348516
0.98193276,2.8804343,0.031204877,0.086962566,0.39616972,0.009576807,-9.744401,1.1348516
0.9817307,2.8799684,0.0365312,0.09122362,0.4004308,0.047884032,-9.696517,1.1204864
0.98137486,2.8791487,0.0365312,0.09122362,0.4004308,0.047884032,-9.696517,1.1204864
0.98137486,2.8791487,0.0365312,0.09122362,0.4004308,0.047884032,-9.696517,1.1204864
0.9811902,2.8787313,0.03866173,0.09441942,0.40469185,0,-9.701305,1.1109096
0.9810271,2.8783712,0.042922787,0.09761521,0.4089529,0,-9.672575,1.1061212
0.980834,2.877946,0.042922787,0.09761521,0.4089529,0,-9.672575,1.1061212
0.980834,2.877946,0.042922787,0.09761521,0.4089529,0,-9.672575,1.1061212
0.980834,2.877946,0.042922787,0.09761521,0.4089529,0,-9.672575,1.1061212
0.980834,2.877946,0.042922787,0.09761521,0.4089529,-0.05267244,-9.667787,1.0534488
0.98008287,2.8763254,0.04824911,0.099745736,0.41214868,-0.062249243,-9.696517,1.1348516
0.9798845,2.8758984,0.04824911,0.099745736,0.41214868,-0.062249243,-9.696517,1.1348516
0.9797932,2.8757024,0.04824911,0.099745736,0.41214868,-0.062249243,-9.696517,1.1348516
0.97960925,2.8753088,0.050379638,0.098680474,0.41214868,-0.04309563,-9.662998,1.0773908
0.9792437,2.874528,0.052510165,0.09761521,0.41108343,-0.08140286,-9.610326,1.0630256
0.9792437,2.874528,0.052510165,0.09761521,0.41108343,-0.08140286,-9.610326,1.0630256
0.9790615,2.8741395,0.052510165,0.09761521,0.41108343,-0.08140286,-9.610326,1.0630256
0.9788816,2.8737519,0.05357543,0.09548468,0.41108343,-0.076614454,-9.600749,1.1013328
0.9787043,2.8733706,0.05357543,0.09548468,0.41108343,-0.076614454,-9.600749,1.1013328
0.9787043,2.8733706,0.05357543,0.09548468,0.41108343,-0.076614454,-9.600749,1.1013328
0.97825456,2.8723917,0.054640695,0.09122362,0.40682238,-0.110133275,-9.495404,1.0582372
0.97816384,2.872194,0.054640695,0.09122362,0.40682238,-0.110133275,-9.495404,1.0582372
0.9780066,2.8718529,0.054640695,0.09122362,0.40682238,-0.110133275,-9.495404,1.0582372
0.97783625,2.871475,0.05570596,0.085897304,0.40469185,-0.08140286,-9.471462,1.0055647
0.977666,2.8710973,0.05570596,0.085897304,0.40469185,-0.08140286,-9.471462,1.0055647
0.97748816,2.8706913,0.05570596,0.08163624,0.40469185,-0.047884032,-9.471462,1.0199299
0.9772414,2.8701189,0.05357543,0.07950571,0.40469185,-0.05746084,-9.466674,1.0103531
0.9771744,2.8699634,0.05357543,0.07950571,0.40469185,-0.05746084,-9.466674,1.0103531
0.97695243,2.8694494,0.05357543,0.07950571,0.40469185,-0.05746084,-9.466674,1.0103531
0.97679335,2.8690763,0.050379638,0.07737519,0.4025613,0.023942016,-9.394848,0.92895025
0.97668165,2.8688152,0.050379638,0.07737519,0.4025613,0.023942016,-9.394848,0.92895025
0.97668165,2.8688152,0.050379638,0.07737519,0.4025613,0.023942016,-9.394848,0.92895025
0.97668165,2.8688152,0.050379638,0.07737519,0.4025613,0.023942016,-9.394848,0.92895025
0.9761092,2.867497,0.04824911,0.07844045,0.397235,0.07182605,-9.346964,0.94810385
0.9759613,2.8671622,0.0365312,0.082701504,0.37806022,0.12928689,-9.217676,1.0534488
0.9758738,2.8669682,0.0365312,0.082701504,0.37806022,0.12928689,-9.217676,1.0534488
0.97570574,2.8665962,0.0365312,0.082701504,0.37806022,0.12928689,-9.217676,1.0534488
0.9755491,2.8662562,0.02694382,0.084832035,0.36314654,0.12449849,-9.174581,1.0965444
0.975389,2.8659096,0.02694382,0.084832035,0.36314654,0.12449849,-9.174581,1.0965444
0.97523284,2.8655903,0.018421704,0.09015836,0.3461023,0.090979666,-9.126697,1.0582372
0.9750722,2.865263,0.018421704,0.09015836,0.3461023,0.090979666,-9.126697,1.0582372
0.974916,2.864952,0.006703795,0.09122362,0.32692754,0.05746084,-9.131485,1.0247183
0.9747592,2.8646412,0.006703795,0.09122362,0.32692754,0.05746084,-9.131485,1.0247183
0.97460747,2.8643484,-0.0060793785,0.09228889,0.30562225,0.038307227,-9.11712,1.0199299
0.9744542,2.8640532,-0.0060793785,0.09228889,0.30562225,0.038307227,-9.11712,1.0199299
0.974308,2.8637815,-0.018862553,0.09441942,0.28431696,-0.009576807,-9.14585,1.0630256
0.9741603,2.863507,-0.018862553,0.09441942,0.28431696,-0.009576807,-9.14585,1.0630256
0.97401965,2.8632514,-0.031645726,0.09335415,0.2619464,-0.01436521,-9.217676,1.0726024
0.9738792,2.8629963,-0.031645726,0.09335415,0.2619464,-0.01436521,-9.217676,1.0726024
0.9737456,2.8627625,-0.04229837,0.09228889,0.23957585,-0.047884032,-9.313444,1.0007763
0.9736118,2.8625288,-0.04229837,0.09228889,0.23957585,-0.047884032,-9.313444,1.0007763
0.9734849,2.8623135,-0.052951016,0.09122362,0.21827057,-0.05267244,-9.404425,1.0486604
0.9733583,2.8620987,-0.052951016,0.09122362,0.21827057,-0.05267244,-9.404425,1.0486604
0.9732395,2.8619022,-0.06253839,0.0890931,0.19803053,-0.14844051,-9.471462,1.067814
0.97312087,2.8617055,-0.06253839,0.0890931,0.19803053,-0.14844051,-9.471462,1.067814
0.97300804,2.8615263,-0.07106051,0.08802783,0.17992105,-0.17238252,-9.5385,1.043872
0.9728957,2.8613472,-0.07106051,0.08802783,0.17992105,-0.17238252,-9.5385,1.043872
0.9727925,2.8611803,-0.07851736,0.082701504,0.16394207,-0.15801731,-9.615114,1.1013328
0.97268915,2.8610132,-0.07851736,0.082701504,0.16394207,-0.15801731,-9.615114,1.1013328
0.97259545,2.8608613,-0.08277842,0.07737519,0.14902838,-0.19153613,-9.634268,1.0869676
0.97250164,2.8607092,-0.08277842,0.07737519,0.14902838,-0.19153613,-9.634268,1.0869676
0.9724172,2.8605645,-0.08703948,0.070983596,0.139441,-0.23463176,-9.720459,1.091756
0.9723322,2.8604193,-0.08703948,0.070983596,0.139441,-0.23463176,-9.720459,1.091756
0.9722568,2.8602817,-0.08917001,0.06352675,0.13091888,-0.22505496,-9.715671,1.0390835
0.972181,2.8601441,-0.08917001,0.06352675,0.13091888,-0.22505496,-9.715671,1.0390835
0.9721137,2.8600106,-0.08917001,0.056069896,0.12665781,-0.23942018,-9.782708,0.9816227
0.9720465,2.8598769,-0.08917001,0.056069896,0.12665781,-0.23942018,-9.782708,0.9816227
0.9719875,2.8597422,-0.08810474,0.04754778,0.12559256,-0.21547815,-9.816227,1.0103531
0.97192836,2.8596067,-0.08810474,0.04754778,0.12559256,-0.21547815,-9.816227,1.0103531
0.9718775,2.8594701,-0.08490895,0.039025664,0.12665781,-0.18195933,-9.849746,1.0151415
0.97182614,2.8593333,-0.08490895,0.039025664,0.12665781,-0.18195933,-9.849746,1.0151415
0.97178173,2.8591907,-0.08064789,0.030503549,0.13091888,-0.16759412,-9.873688,1.043872
0.97173774,2.8590486,-0.08064789,0.030503549,0.13091888,-0.16759412,-9.873688,1.043872
0.97169805,2.858895,-0.07638683,0.023046698,0.139441,-0.1436521,-9.907207,1.043872
0.9716586,2.8587422,-0.07638683,0.023046698,0.139441,-0.1436521,-9.907207,1.043872
0.9716216,2.858581,-0.06999525,0.017720375,0.1479631,-0.110133275,-9.931149,1.0486604
0.9715846,2.8584201,-0.06999525,0.017720375,0.1479631,-0.110133275,-9.931149,1.0486604
0.9715494,2.8582487,-0.06147313,0.012394054,0.15968102,-0.08140286,-9.916783,1.0582372
0.97151387,2.8580775,-0.06147313,0.012394054,0.15968102,-0.08140286,-9.916783,1.0582372
0.9714763,2.857896,-0.052951016,0.010263525,0.17246419,-0.04309563,-10.007763,0.9672575
0.971439,2.8577158,-0.052951016,0.010263525,0.17246419,-0.04309563,-10.007763,0.9672575
0.9713984,2.8575191,-0.043363634,0.008132996,0.18950842,0.076614454,-9.988609,1.0007763
0.9713577,2.8573222,-0.043363634,0.008132996,0.18950842,0.076614454,-9.988609,1.0007763
0.97131294,2.857116,-0.03271099,0.008132996,0.20442213,0.10534488,-10.0029745,0.9911995
0.97126806,2.8569088,-0.03271099,0.008132996,0.20442213,0.10534488,-10.0029745,0.9911995
0.97121555,2.8566916,-0.022058345,0.011328789,0.21933582,0.17717093,-9.983821,1.0821792
0.9711635,2.8564746,-0.022058345,0.011328789,0.21933582,0.17717093,-9.983821,1.0821792
0.97110075,2.8562472,-0.011405701,0.016655112,0.23424953,0.20590134,-10.036493,1.0295067
0.9710379,2.85602,-0.011405701,0.016655112,0.23424953,0.20590134,-10.036493,1.0295067
0.9709647,2.8557892,-0.00075305626,0.024111962,0.24809797,0.30166942,-10.070012,1.0821792
0.9708929,2.8555627,-0.00075305626,0.024111962,0.24809797,0.30166942,-10.070012,1.0821792
0.97080576,2.8553305,0.009899588,0.034764607,0.25981587,0.33518824,-10.0508585,1.1109096
0.9707191,2.855098,0.009899588,0.034764607,0.25981587,0.33518824,-10.0508585,1.1109096
0.9706179,2.8548596,0.019486967,0.045417253,0.27366433,0.2825158,-10.093954,1.1444284
0.970517,2.8546214,0.019486967,0.045417253,0.27366433,0.2825158,-10.093954,1.1444284
0.9704012,2.8543801,0.031204877,0.056069896,0.28751275,0.34476504,-10.04607,1.091756
0.97028625,2.85414,0.031204877,0.056069896,0.28751275,0.34476504,-10.04607,1.091756
0.9701581,2.853898,0.042922787,0.06565727,0.29923066,0.30645782,-10.089166,1.13964
0.97002983,2.8536558,0.042922787,0.06565727,0.29923066,0.30645782,-10.089166,1.13964
0.96988714,2.853411,0.05357543,0.07737519,0.3130791,0.30645782,-10.070012,1.1348516
0.96974385,2.8531654,0.05357543,0.07737519,0.3130791,0.30645782,-10.070012,1.1348516
0.9695863,2.852917,0.06422807,0.08802783,0.3258623,0.272939,-10.055647,1.1300632
0.96942806,2.8526673,0.06422807,0.08802783,0.3258623,0.272939,-10.055647,1.1300632
0.9692539,2.8524134,0.07594599,0.099745736,0.34077597,0.272939,-10.0508585,1.1492168
0.96908385,2.8521655,0.07594599,0.099745736,0.34077597,0.272939,-10.0508585,1.1492168
0.96889603,2.8519096,0.08659863,0.11146365,0.35568967,0.18195933,-10.022128,1.091756
0.9687091,2.851655,0.08659863,0.11146365,0.35568967,0.18195933,-10.022128,1.091756
0.9685042,2.851392,0.09618601,0.12318156,0.37166864,0.14844051,-9.983821,0.9911995
0.96829975,2.8511295,0.09618601,0.12318156,0.37166864,0.14844051,-9.983821,0.9911995
0.96808195,2.85086,0.10683865,0.13276894,0.3876476,0.1388637,-9.959879,1.0295067
0.9678644,2.8505912,0.10683865,0.13276894,0.3876476,0.1388637,-9.959879,1.0295067
0.967633,2.8503132,0.1174913,0.14129105,0.40469185,0.06703765,-9.873688,0.9720459
0.9674028,2.8500361,0.1174913,0.14129105,0.40469185,0.06703765,-9.873688,0.9720459
0.96715903,2.849747,0.12601341,0.1487479,0.42173606,0.033518825,-9.849746,0.92416185
0.9669155,2.8494582,0.12601341,0.1487479,0.42173606,0.033518825,-9.849746,0.92416185
0.9666607,2.8491597,0.13347027,0.15620476,0.43664977,0.062249243,-9.773131,0.92416185
0.96640635,2.8488626,0.13347027,0.15620476,0.43664977,0.062249243,-9.773131,0.92416185
0.9661406,2.8485541,0.13986185,0.16259634,0.45049822,0.023942016,-9.691729,0.92416185
0.9658751,2.8482463,0.13986185,0.16259634,0.45049822,0.023942016,-9.691729,0.92416185
0.9656025,2.8479307,0.14518817,0.1668574,0.46115085,0.05267244,-9.691729,0.9816227
0.96532935,2.8476145,0.14518817,0.1668574,0.46115085,0.05267244,-9.691729,0.9816227
0.9650487,2.847289,0.1505145,0.16898793,0.47073823,0.009576807,-9.662998,0.9720459
0.9647758,2.8469732,0.1505145,0.16898793,0.47073823,0.009576807,-9.662998,0.9720459
0.9644954,2.846646,0.15371029,0.1700532,0.4781951,-0.02873042,-9.643845,0.9816227
0.9644954,2.846646,0.15371029,0.1700532,0.4781951,-0.02873042,-9.643845,0.9816227
0.9644954,2.846646,0.15371029,0.1700532,0.4781951,-0.02873042,-9.643845,0.9816227
0.9644954,2.846646,0.15371029,0.1700532,0.4781951,-0.02873042,-9.643845,0.9816227
0.9644954,2.846646,0.15371029,0.1700532,0.4781951,-0.02873042,-9.643845,0.9816227
0.9644954,2.846646,0.15371029,0.1700532,0.4781951,-0.02873042,-9.643845,0.9816227
0.9625924,2.844436,0.16436294,0.17218372,0.49204352,-0.07182605,-9.528923,0.9720459
0.9623124,2.8441124,0.16649346,0.1700532,0.49310878,-0.110133275,-9.5385,0.90979666
0.9621886,2.8439689,0.16649346,0.1700532,0.49310878,-0.110133275,-9.5385,0.90979666
0.9621886,2.8439689,0.16649346,0.1700532,0.49310878,-0.110133275,-9.5385,0.90979666
0.9621886,2.8439689,0.16649346,0.1700532,0.49310878,-0.110133275,-9.5385,0.90979666
0.9621886,2.8439689,0.16649346,0.1700532,0.49310878,-0.110133275,-9.5385,0.90979666
0.96089184,2.8424358,0.16542819,0.1668574,0.49630457,-0.1436521,-9.543288,0.8762778
0.9607517,2.842271,0.16542819,0.1668574,0.49630457,-0.1436521,-9.543288,0.8762778
0.9607517,2.842271,0.16542819,0.1668574,0.49630457,-0.1436521,-9.543288,0.8762778
0.960112,2.8415198,0.16542819,0.1668574,0.49630457,-0.1436521,-9.543288,0.8762778
0.960112,2.8415198,0.16542819,0.1668574,0.49630457,-0.1436521,-9.543288,0.8762778
0.9582541,2.8392107,0.15371029,0.1487479,0.49736986,-0.2633622,-9.442732,0.91937345
0.9582541,2.8392107,0.15371029,0.1487479,0.49736986,-0.2633622,-9.442732,0.91937345
0.9582541,2.8392107,0.15371029,0.1487479,0.49736986,-0.2633622,-9.442732,0.91937345
0.9582541,2.8392107,0.15371029,0.1487479,0.49736986,-0.2633622,-9.442732,0.91937345
0.9582541,2.8392107,0.15371029,0.1487479,0.49736986,-0.2633622,-9.442732,0.91937345
0.9582541,2.8392107,0.15371029,0.1487479,0.49736986,-0.2633622,-9.442732,0.91937345
0.9579905,2.8388648,0.15371029,0.1487479,0.49736986,-0.2633622,-9.442732,0.91937345
0.95772725,2.838509,0.14944923,0.14448684,0.49736986,-0.30166942,-9.385271,0.8762778
0.9574645,2.8381543,0.14944923,0.14448684,0.49736986,-0.30166942,-9.385271,0.8762778
0.95721,2.837797,0.14518817,0.13702999,0.49523932,-0.33039984,-9.385271,0.866701
0.95694804,2.8374298,0.14518817,0.13702999,0.49523932,-0.33039984,-9.385271,0.866701
0.956704,2.837074,0.14092712,0.1306384,0.49417406,-0.35913026,-9.361329,0.8379706
0.956704,2.837074,0.14092712,0.1306384,0.49417406,-0.35913026,-9.361329,0.8379706
0.956704,2.837074,0.14092712,0.1306384,0.49417406,-0.35913026,-9.361329,0.8379706
0.9558531,2.8356955,0.13027447,0.115724705,0.49630457,-0.40222588,-9.346964,0.8475474
0.95564115,2.8353531,0.13027447,0.115724705,0.49630457,-0.40222588,-9.346964,0.8475474
0.9555193,2.835157,0.13027447,0.115724705,0.49630457,-0.40222588,-9.346964,0.8475474
0.9555193,2.835157,0.13027447,0.115724705,0.49630457,-0.40222588,-9.346964,0.8475474
0.95494914,2.834178,0.12601341,0.10613733,0.49736986,-0.37828386,-9.332599,0.89064306
0.9548197,2.833942,0.12281762,0.09654994,0.49736986,-0.36391866,-9.3182335,0.9528923
0.9546245,2.833587,0.12281762,0.09654994,0.49736986,-0.36391866,-9.3182335,0.9528923
0.9544157,2.8331857,0.11962183,0.086962566,0.49736986,-0.2873042,-9.32781,0.89064306
0.9542073,2.8327858,0.11962183,0.086962566,0.49736986,-0.2873042,-9.32781,0.89064306
0.95400286,2.8323798,0.116426036,0.08057098,0.49523932,-0.19632454,-9.3182335,0.8379706
0.9536948,2.8317435,0.112164974,0.07417939,0.48884773,-0.19632454,-9.394848,0.9528923
0.9536089,2.8315666,0.112164974,0.07417939,0.48884773,-0.19632454,-9.394848,0.9528923
0.9534114,2.8311596,0.112164974,0.07417939,0.48884773,-0.19632454,-9.394848,0.9528923
0.95322055,2.8307567,0.10683865,0.06885307,0.47926036,-0.04309563,-9.461885,0.9768343
0.9530252,2.8303454,0.10683865,0.06885307,0.47926036,-0.04309563,-9.461885,0.9768343
0.9530252,2.8303454,0.10683865,0.06885307,0.47926036,-0.04309563,-9.461885,0.9768343
0.9530252,2.8303454,0.10683865,0.06885307,0.47926036,-0.04309563,-9.461885,0.9768343
0.95239896,2.8290486,0.098316535,0.06459201,0.44304135,-0.033518825,-9.552865,1.043872
0.95226526,2.8287737,0.09405548,0.062461484,0.4206708,-0.08619126,-9.56723,1.091756
0.9521623,2.828565,0.09405548,0.062461484,0.4206708,-0.08619126,-9.56723,1.091756
0.95196116,2.8281567,0.09405548,0.062461484,0.4206708,-0.08619126,-9.56723,1.091756
0.9518322,2.827897,0.08979442,0.059265688,0.39830026,-0.15801731,-9.605537,1.1779473
0.95167756,2.8275864,0.08979442,0.059265688,0.39830026,-0.15801731,-9.605537,1.1779473
0.95153105,2.827286,0.083402835,0.052874103,0.37486443,-0.14844051,-9.615114,1.2737153
0.9513951,2.8270073,0.083402835,0.052874103,0.37486443,-0.14844051,-9.615114,1.2737153
0.9512651,2.826734,0.07701125,0.046482515,0.35462442,-0.15322891,-9.648633,1.2593501
0.95113385,2.8264582,0.07701125,0.046482515,0.35462442,-0.15322891,-9.648633,1.2593501
0.9510133,2.8262043,0.07168493,0.041156195,0.33438438,-0.038307227,-9.739613,1.1348516
0.9508933,2.8259516,0.07168493,0.041156195,0.33438438,-0.038307227,-9.739613,1.1348516
0.9507811,2.8257155,0.0663586,0.036895137,0.31520963,0.110133275,-9.763555,1.0390835
0.95067,2.8254824,0.0663586,0.036895137,0.31520963,0.110133275,-9.763555,1.0390835
0.9505658,2.825276,0.06103228,0.035829872,0.2896433,0.39743748,-9.677363,0.9911995
0.9504618,2.8250701,0.06103228,0.035829872,0.2896433,0.39743748,-9.677363,0.9911995
0.95036525,2.8249047,0.052510165,0.039025664,0.25235903,0.7086837,-9.56723,1.0342951
0.9502673,2.8247373,0.052510165,0.039025664,0.25235903,0.7086837,-9.56723,1.0342951
0.95017415,2.8246236,0.0365312,0.048613045,0.2022916,0.8762778,-9.380483,1.0486604
0.95008385,2.824513,0.0365312,0.048613045,0.2022916,0.8762778,-9.380483,1.0486604
0.9499992,2.8244681,0.012030117,0.06352675,0.13731046,1.0630256,-9.193734,1.1300632
0.949914,2.824423,0.012030117,0.06352675,0.13731046,1.0630256,-9.193734,1.1300632
0.9498389,2.8244603,-0.022058345,0.08057098,0.053154573,1.091756,-9.040505,1.3359646
0.9497638,2.8244972,-0.022058345,0.08057098,0.053154573,1.091756,-9.040505,1.3359646
0.9497063,2.8246303,-0.06360366,0.09548468,-0.045915022,1.0534488,-8.882488,1.412579
0.94964844,2.8247626,-0.06360366,0.09548468,-0.045915022,1.0534488,-8.882488,1.412579
0.9496132,2.824999,-0.111540556,0.10826785,-0.15670252,1.0582372,-8.724471,1.4652514
0.94957787,2.8252354,-0.111540556,0.10826785,-0.15670252,1.0582372,-8.724471,1.4652514
0.9495702,2.825582,-0.161608,0.117855236,-0.27494687,1.067814,-8.643068,1.4891934
0.9495623,2.82593,-0.161608,0.117855236,-0.27494687,1.067814,-8.643068,1.4891934
0.94958615,2.826388,-0.21593648,0.12424682,-0.3974523,1.0342951,-8.700529,1.412579
0.94961023,2.8268564,-0.21593648,0.12424682,-0.3974523,1.0342951,-8.700529,1.412579
0.94966495,2.8274279,-0.2723955,0.13170367,-0.5220882,0.9528923,-8.7771435,1.316811
0.94971967,2.8280032,-0.2723955,0.13170367,-0.5220882,0.9528923,-8.7771435,1.316811
0.9498051,2.8286967,-0.3235282,0.13916053,-0.64672416,0.82360536,-8.882488,1.1971009
0.9498904,2.82939,-0.3235282,0.13916053,-0.64672416,0.82360536,-8.882488,1.1971009
0.95000404,2.8301985,-0.37253034,0.14768264,-0.76603377,0.6751649,-8.935161,1.163582
0.9501169,2.8310084,-0.37253034,0.14768264,-0.76603377,0.6751649,-8.935161,1.163582
0.95025975,2.831929,-0.41514093,0.15300897,-0.8800171,0.48841715,-8.944737,1.1827357
0.950402,2.8328512,-0.41514093,0.15300897,-0.8800171,0.48841715,-8.944737,1.1827357
0.95057297,2.833876,-0.45135993,0.15513949,-0.98228246,0.24420857,-8.983045,1.1061212
0.95074314,2.8349035,-0.45135993,0.15513949,-0.98228246,0.24420857,-8.983045,1.1061212
0.95094085,2.8360217,-0.4822526,0.15407422,-1.0717647,-0.038307227,-8.939949,0.9624691
0.95113724,2.8371398,-0.4822526,0.15407422,-1.0717647,-0.038307227,-8.939949,0.9624691
0.9513614,2.8383346,-0.51101476,0.1487479,-1.1484637,-0.2633622,-8.863335,0.8810662
0.9515842,2.839528,-0.51101476,0.1487479,-1.1484637,-0.2633622,-8.863335,0.8810662
0.9518324,2.84078,-0.53764635,0.14022578,-1.2113143,-0.4165911,-8.848969,0.7613561
0.9520794,2.8420334,-0.53764635,0.14022578,-1.2113143,-0.4165911,-8.848969,0.7613561
0.95235455,2.8433235,-0.5632127,0.12424682,-1.2613817,-0.4405331,-8.90643,0.7661445
0.9526281,2.844615,-0.5632127,0.12424682,-1.2613817,-0.4405331,-8.90643,0.7661445
0.95292926,2.8459315,-0.5866485,0.10613733,-1.3007965,-0.4357447,-9.02614,0.78529817
0.9532281,2.8472476,-0.5866485,0.10613733,-1.3007965,-0.4357447,-9.02614,0.78529817
0.95355606,2.8485794,-0.6079538,0.08376677,-1.3327545,-0.4213795,-9.193734,0.7613561
0.95393205,2.85012,-0.6079538,0.08376677,-1.3327545,-0.4213795,-9.193734,0.7613561
0.9542302,2.8512564,-0.6228675,0.06139622,-1.3551251,-0.33997664,-9.303867,0.8331822
0.95457995,2.8525984,-0.6228675,0.06139622,-1.3551251,-0.33997664,-9.303867,0.8331822
0.9549518,2.8539374,-0.6335201,0.039025664,-1.3679082,-0.31124622,-9.380483,0.8475474
0.9553234,2.8552842,-0.6335201,0.039025664,-1.3679082,-0.31124622,-9.380483,0.8475474
0.95571613,2.8566334,-0.6377812,0.017720375,-1.3732345,-0.23942018,-9.495404,0.80924016
0.9561101,2.8579943,-0.6377812,0.017720375,-1.3732345,-0.23942018,-9.495404,0.80924016
0.95650864,2.8593104,-0.6356507,-0.0014543843,-1.366843,-0.29209262,-9.610326,0.80924016
0.95691115,2.8606465,-0.6356507,-0.0014543843,-1.366843,-0.29209262,-9.610326,0.80924016
0.9573184,2.86196,-0.6292591,-0.015302822,-1.3487334,-0.30645782,-9.682152,0.6847417
0.95772994,2.8632944,-0.6292591,-0.015302822,-1.3487334,-0.30645782,-9.682152,0.6847417
0.9581357,2.8645864,-0.6196717,-0.023824938,-1.3199713,-0.20111294,-9.744401,0.6655881
0.9585364,2.86587,-0.6196717,-0.023824938,-1.3199713,-0.20111294,-9.744401,0.6655881
0.9589301,2.8671157,-0.60901904,-0.02915126,-1.2826871,-0.095768064,-9.768343,0.58897364
0.9593232,2.8683662,-0.60901904,-0.02915126,-1.2826871,-0.095768064,-9.768343,0.58897364
0.95970416,2.8695743,-0.5962359,-0.030216524,-1.242207,0.047884032,-9.80665,0.6655881
0.96008366,2.8707848,-0.5962359,-0.030216524,-1.242207,0.047884032,-9.80665,0.6655881
0.96044874,2.8719575,-0.5834527,-0.027020732,-1.2017269,0.2633622,-9.749189,0.7374141
0.96081126,2.8731296,-0.5834527,-0.027020732,-1.2017269,0.2633622,-9.749189,0.7374141
0.96115685,2.8742642,-0.57280004,-0.020629145,-1.1633774,0.45010993,-9.835381,0.8619126
0.96150064,2.8753998,-0.57280004,-0.020629145,-1.1633774,0.45010993,-9.835381,0.8619126
0.9618241,2.8765059,-0.56214744,-0.0099765,-1.1314195,0.4261679,-9.782708,0.89543146
0.96214694,2.877615,-0.56214744,-0.0099765,-1.1314195,0.4261679,-9.782708,0.89543146
0.96244866,2.8786967,-0.5504295,0.0006761446,-1.1026573,0.6751649,-9.821015,0.9528923
0.96275127,2.8797865,-0.5504295,0.0006761446,-1.1026573,0.6751649,-9.821015,0.9528923
0.96303356,2.8808548,-0.5408421,0.013459318,-1.0781562,0.7278373,-9.849746,1.0390835
0.9633138,2.8819225,-0.5408421,0.013459318,-1.0781562,0.7278373,-9.849746,1.0390835
0.9635714,2.8829732,-0.53125477,0.029438285,-1.0536551,0.79008657,-9.821015,1.0965444
0.96382827,2.884025,-0.53125477,0.029438285,-1.0536551,0.79008657,-9.821015,1.0965444
0.964062,2.8850675,-0.52166736,0.046482515,-1.0334152,0.80924016,-9.844957,1.0295067
0.9642946,2.88611,-0.52166736,0.046482515,-1.0334152,0.80924016,-9.844957,1.0295067
0.96450114,2.887143,-0.51314527,0.06672254,-1.0163709,0.8475474,-9.873688,1.0103531
0.964708,2.888182,-0.51314527,0.06672254,-1.0163709,0.8475474,-9.873688,1.0103531
0.96489334,2.8892186,-0.50142735,0.08376677,-1.0025225,0.78529817,-9.935937,1.0151415
0.965078,2.890258,-0.50142735,0.08376677,-1.0025225,0.78529817,-9.935937,1.0151415
0.9652408,2.8913,-0.4875789,0.100811005,-0.9908046,0.89064306,-9.9550905,0.90021986
0.9654025,2.8923435,-0.4875789,0.100811005,-0.9908046,0.89064306,-9.9550905,0.90021986
0.965544,2.8933973,-0.47266522,0.117855236,-0.98228246,1.0151415,-9.9550905,0.8331822
0.9656842,2.8944516,-0.47266522,0.117855236,-0.98228246,1.0151415,-9.9550905,0.8331822
0.96580446,2.895526,-0.45455572,0.13489947,-0.97802144,1.1827357,-9.969456,0.6655881
0.965923,2.8965983,-0.45455572,0.13489947,-0.97802144,1.1827357,-9.969456,0.6655881
0.9660232,2.8976996,-0.439642,0.1519437,-0.98015195,1.508347,-9.892841,0.545878
0.9661227,2.8988087,-0.439642,0.1519437,-0.98015195,1.508347,-9.892841,0.545878
0.96620965,2.8999422,-0.43005463,0.16472687,-0.9940004,1.8674773,-9.701305,0.45968673
0.9662943,2.9010637,-0.43005463,0.16472687,-0.9940004,1.8674773,-9.701305,0.45968673
0.9663729,2.9022403,-0.4311199,0.17644478,-1.024893,2.2697031,-9.595961,0.5410896
0.9664505,2.9034183,-0.4311199,0.17644478,-1.024893,2.2697031,-9.595961,0.5410896
0.96652865,2.9046535,-0.44496834,0.18603216,-1.0760257,2.6048915,-9.56723,0.61770403
0.9666052,2.9058905,-0.44496834,0.18603216,-1.0760257,2.6048915,-9.56723,0.61770403
0.966688,2.9072058,-0.46946943,0.19561954,-1.149529,2.7389667,-9.370906,0.79008657
0.966688,2.9072058,-0.46946943,0.19561954,-1.149529,2.7389667,-9.370906,0.79008657
0.966688,2.9072058,-0.46946943,0.19561954,-1.149529,2.7389667,-9.370906,0.79008657
0.966688,2.9072058,-0.46946943,0.19561954,-1.149529,2.7389667,-9.370906,0.79008657
0.966688,2.9072058,-0.46946943,0.19561954,-1.149529,2.7389667,-9.370906,0.79008657
0.9674858,2.9165025,-0.5813222,0.20094587,-1.4680431,3.3375173,-8.829816,0.91458505
0.9676199,2.9181674,-0.5813222,0.20094587,-1.4680431,3.3375173,-8.829816,0.91458505
0.9676199,2.9181674,-0.5813222,0.20094587,-1.4680431,3.3375173,-8.829816,0.91458505
0.9676199,2.9181674,-0.5813222,0.20094587,-1.4680431,3.3375173,-8.829816,0.91458505
0.9676199,2.9181674,-0.5813222,0.20094587,-1.4680431,3.3375173,-8.829816,0.91458505
0.9676199,2.9181674,-0.5813222,0.20094587,-1.4680431,3.3375173,-8.829816,0.91458505
0.9682688,2.9265592,-0.71128446,0.20627218,-1.8813657,3.6583402,-8.743625,0.6607997
0.9683179,2.9270833,-0.71128446,0.20627218,-1.8813657,3.6583402,-8.743625,0.6607997
0.9683179,2.9270833,-0.71128446,0.20627218,-1.8813657,3.6583402,-8.743625,0.6607997
0.9688723,2.9331682,-0.7517645,0.21585956,-2.0251763,3.845088,-8.623915,0.48841715
0.9688723,2.9331682,-0.7517645,0.21585956,-2.0251763,3.845088,-8.623915,0.48841715
0.9688723,2.9331682,-0.7517645,0.21585956,-2.0251763,3.845088,-8.623915,0.48841715
0.96940994,2.9393635,-0.7517645,0.21585956,-2.0251763,3.845088,-8.623915,0.48841715
0.96940994,2.9393635,-0.7517645,0.21585956,-2.0251763,3.845088,-8.623915,0.48841715
0.96940994,2.9393635,-0.7517645,0.21585956,-2.0251763,3.845088,-8.623915,0.48841715
0.97004557,2.9473033,-0.8870531,0.26166594,-2.4843054,4.7644615,-8.403648,0.2777274
0.97011095,2.9481657,-0.8870531,0.26166594,-2.4843054,4.7644615,-8.403648,0.2777274
0.9704585,2.9529195,-0.8870531,0.26166594,-2.4843054,4.7644615,-8.403648,0.2777274
0.9706638,2.9558856,-1.0052974,0.302146,-2.848626,5.281609,-8.135497,0.45968673
0.9708926,2.959347,-1.0052974,0.302146,-2.848626,5.281609,-8.135497,0.45968673
0.9711053,2.962714,-1.0052974,0.302146,-2.848626,5.281609,-8.135497,0.45968673
0.9713237,2.9663482,-1.0724092,0.32345128,-3.0531566,5.3678,-8.015787,0.4405331
0.97153187,2.9699886,-1.1437818,0.34262604,-3.26834,5.3247046,-7.9343843,0.47405192
0.97153187,2.9699886,-1.1437818,0.34262604,-3.26834,5.3247046,-7.9343843,0.47405192
0.9719838,2.97837,-1.2162198,0.36073554,-3.4845886,5.3247046,-7.905654,0.46926352
0.9721879,2.9825907,-1.2162198,0.36073554,-3.4845886,5.3247046,-7.905654,0.46926352
0.97224927,2.9839303,-1.2162198,0.36073554,-3.4845886,5.3247046,-7.905654,0.46926352
0.97247714,2.9890924,-1.285462,0.37777975,-3.6997721,5.305551,-7.867347,0.4165911
0.97247714,2.9890924,-1.285462,0.37777975,-3.6997721,5.305551,-7.867347,0.4165911
0.97247714,2.9890924,-1.285462,0.37777975,-3.6997721,5.305551,-7.867347,0.4165911
0.97247714,2.9890924,-1.285462,0.37777975,-3.6997721,5.305551,-7.867347,0.4165911
0.97247714,2.9890924,-1.285462,0.37777975,-3.6997721,5.305551,-7.867347,0.4165911
0.9733196,3.014306,-1.4740138,0.42465138,-4.315495,4.9895163,-8.030152,0.2777274
0.9734347,3.0198796,-1.4740138,0.42465138,-4.315495,4.9895163,-8.030152,0.2777274
0.9734734,3.0221207,-1.4740138,0.42465138,-4.315495,4.9895163,-8.030152,0.2777274
0.9735489,3.0273576,-1.5336686,0.44169563,-4.505112,4.7884035,-8.259995,0.19153613
0.9736002,3.0325594,-1.5336686,0.44169563,-4.505112,4.7884035,-8.259995,0.19153613
0.9736002,3.0325594,-1.5336686,0.44169563,-4.505112,4.7884035,-8.259995,0.19153613
0.9736002,3.0325594,-1.5336686,0.44169563,-4.505112,4.7884035,-8.259995,0.19153613
0.97359246,3.0506918,-1.635934,0.4789799,-4.8481274,4.4963107,-8.628703,0.05746084
0.9734692,3.060106,-1.6785445,0.49921992,-5.0015254,4.3287168,-8.748413,-0.04309563
0.9734692,3.060106,-1.6785445,0.49921992,-5.0015254,4.3287168,-8.748413,-0.04309563
0.9733463,3.0661383,-1.6785445,0.49921992,-5.0015254,4.3287168,-8.748413,-0.04309563
0.9733463,3.0661383,-1.6785445,0.49921992,-5.0015254,4.3287168,-8.748413,-0.04309563
0.9733463,3.0661383,-1.6785445,0.49921992,-5.0015254,4.3287168,-8.748413,-0.04309563
0.97267526,3.086885,-1.7158288,0.51626414,-5.1432056,4.122815,-8.872911,-0.04309563
0.97243047,3.0925145,-1.7499173,0.5290473,-5.274233,3.8786068,-9.035717,-0.009576807
0.9722595,3.0961556,-1.7786795,0.5375694,-5.3914123,3.6152446,-9.227253,-0.1340753
0.9722595,3.0961556,-1.7786795,0.5375694,-5.3914123,3.6152446,-9.227253,-0.1340753
0.97137254,3.1125998,-1.7999847,0.5375694,-5.494743,3.4476504,-9.528923,-0.11492168
0.97112775,3.116492,-1.7999847,0.5375694,-5.494743,3.4476504,-9.528923,-0.11492168
0.9707998,3.121624,-1.817029,0.52798206,-5.587421,3.5673606,-9.691729,0.0047884034
0.97035134,3.1281192,-1.817029,0.52798206,-5.587421,3.5673606,-9.691729,0.0047884034
0.9698869,3.1346705,-1.8276815,0.5173294,-5.6705112,2.1547816,-10.548853,0.062249243
0.9693858,3.1411955,-1.8276815,0.5173294,-5.6705112,2.1547816,-10.548853,0.062249243
0.96888256,3.147781,-1.8148984,0.48537147,-5.74508,1.5993267,-10.582372,-0.33039984
0.96833557,3.154425,-1.8148984,0.48537147,-5.74508,1.5993267,-10.582372,-0.33039984
0.9678228,3.1611776,-1.7903973,0.41080296,-5.8175178,1.7764976,-10.304645,-0.38307226
0.9672665,3.1679564,-1.7903973,0.41080296,-5.8175178,1.7764976,-10.304645,-0.38307226
0.96675503,3.1748257,-1.7669616,0.32451653,-5.871846,1.8195933,-10.395624,-0.39743748
0.9662047,3.18166,-1.7669616,0.32451653,-5.871846,1.8195933,-10.395624,-0.39743748
0.9656959,3.1885421,-1.7456563,0.24142592,-5.911261,1.7764976,-10.25676,-0.4261679
0.96514416,3.1954372,-1.7456563,0.24142592,-5.911261,1.7764976,-10.25676,-0.4261679
0.9646351,3.2023916,-1.7243509,0.15833528,-5.942154,1.3359646,-10.25676,-0.34476504
0.9640878,3.2092829,-1.7243509,0.15833528,-5.942154,1.3359646,-10.25676,-0.34476504
0.9635779,3.2163696,-1.704111,0.060330953,-5.9730463,2.27928,-10.0029745,-0.7374141
0.96303606,3.2233016,-1.704111,0.060330953,-5.9730463,2.27928,-10.0029745,-0.7374141
0.96303606,3.2233016,-1.704111,0.060330953,-5.9730463,2.27928,-10.0029745,-0.7374141
0.96303606,3.2233016,-1.704111,0.060330953,-5.9730463,2.27928,-10.0029745,-0.7374141
0.9610644,3.2490976,-1.6849362,-0.046195492,-6.002874,1.9536686,-10.084377,-0.32561144
0.9605863,3.2555342,-1.6487172,-0.19746305,-5.999678,1.9297266,-9.840169,-0.44532153
0.96034807,3.2587965,-1.6487172,-0.19746305,-5.999678,1.9297266,-9.840169,-0.44532153
0.95981765,3.2656415,-1.6487172,-0.19746305,-5.999678,1.9297266,-9.840169,-0.44532153
0.9593018,3.2724416,-1.6306077,-0.25179154,-5.9741116,2.207454,-9.672575,-0.60333884
0.95873344,3.279381,-1.6306077,-0.25179154,-5.9741116,2.207454,-9.672575,-0.60333884
0.9581729,3.2863154,-1.6114329,-0.3007937,-5.942154,2.4277205,-9.763555,-0.7230489
0.9575689,3.2932546,-1.6114329,-0.3007937,-5.942154,2.4277205,-9.763555,-0.7230489
0.9569674,3.3001406,-1.5965192,-0.34127375,-5.9091306,2.6384103,-9.763555,-0.93373865
0.9563254,3.3070095,-1.5965192,-0.34127375,-5.9091306,2.6384103,-9.763555,-0.93373865
0.9556755,3.3138378,-1.5837361,-0.37323168,-5.8739767,2.96881,-9.677363,-1.2497733
0.9549862,3.320641,-1.5837361,-0.37323168,-5.8739767,2.96881,-9.677363,-1.2497733
0.95428383,3.3274186,-1.5784097,-0.39879802,-5.8430843,3.323152,-9.5385,-1.2689269
0.9535435,3.3341563,-1.5784097,-0.39879802,-5.8430843,3.323152,-9.5385,-1.2689269
0.9527786,3.3408954,-1.5784097,-0.41690752,-5.822844,3.6631286,-9.514558,-1.3215994
0.9519859,3.3475204,-1.5784097,-0.41690752,-5.822844,3.6631286,-9.514558,-1.3215994
0.9511555,3.3541875,-1.5784097,-0.4264949,-5.810061,3.8498764,-9.433155,-1.364695
0.9502941,3.3607726,-1.5784097,-0.4264949,-5.810061,3.8498764,-9.433155,-1.364695
0.94938886,3.3673563,-1.5816056,-0.42542964,-5.8058,4.0940847,-9.323022,-1.4269443
0.9484513,3.3738768,-1.5816056,-0.42542964,-5.8058,4.0940847,-9.323022,-1.4269443
0.94746494,3.380405,-1.5869318,-0.41903806,-5.8121915,4.10845,-9.174581,-1.1875241
0.9464414,3.3869007,-1.5869318,-0.41903806,-5.8121915,4.10845,-9.174581,-1.1875241
0.9453646,3.3933954,-1.5933235,-0.4083854,-5.8249745,4.074931,-9.011775,-1.1013328
0.94424605,3.3998816,-1.5933235,-0.4083854,-5.8249745,4.074931,-9.011775,-1.1013328
0.94308496,3.406303,-1.5965192,-0.39773276,-5.8430843,4.060566,-8.748413,-0.9911995
0.9418832,3.4127135,-1.5965192,-0.39773276,-5.8430843,4.060566,-8.748413,-0.9911995
0.94062555,3.4191418,-1.5965192,-0.38921064,-5.863324,3.9791632,-8.441956,-0.94810385
0.9393369,3.4255059,-1.5965192,-0.38921064,-5.863324,3.9791632,-8.441956,-0.94810385
0.93800247,3.4318688,-1.5975845,-0.3881454,-5.889956,4.0653543,-8.236053,-0.93852705
0.93662953,3.4382043,-1.5975845,-0.3881454,-5.889956,4.0653543,-8.236053,-0.93852705
0.9352124,3.4445548,-1.5986497,-0.39240643,-5.924044,4.175488,-8.145074,-0.9672575
0.9337194,3.451033,-1.5986497,-0.39240643,-5.924044,4.175488,-8.145074,-0.9672575
0.9322656,3.4571936,-1.5986497,-0.40412435,-5.9645243,4.486734,-7.9870567,-1.0295067
0.93074405,3.4634504,-1.5986497,-0.40412435,-5.9645243,4.486734,-7.9870567,-1.0295067
0.9291459,3.469886,-1.5965192,-0.41903806,-6.016722,4.745308,-7.85777,-1.1109096
0.9275286,3.476206,-1.5965192,-0.41903806,-6.016722,4.745308,-7.85777,-1.1109096
0.9258783,3.4825358,-1.595454,-0.43714756,-6.080638,4.927267,-7.8146744,-1.2689269
0.92421263,3.4887433,-1.595454,-0.43714756,-6.080638,4.927267,-7.8146744,-1.2689269
0.9224973,3.4950385,-1.5943887,-0.4595181,-6.153076,5.209783,-7.73806,-1.3455414
0.9207266,3.5013545,-1.5943887,-0.4595181,-6.153076,5.209783,-7.73806,-1.3455414
0.9189185,3.5077157,-1.5901276,-0.48508444,-6.237232,5.7269306,-7.599196,-1.3982137
0.9170703,3.5140386,-1.5901276,-0.48508444,-6.237232,5.7269306,-7.599196,-1.3982137
0.9151567,3.520507,-1.5848013,-0.51491183,-6.3341713,5.985504,-7.455544,-1.5897499
0.9132171,3.5268834,-1.5848013,-0.51491183,-6.3341713,5.985504,-7.455544,-1.5897499
0.9112188,3.533376,-1.5816056,-0.5468698,-6.4438934,6.4739213,-7.2687964,-1.7286136
0.90919065,3.5397866,-1.5816056,-0.5468698,-6.4438934,6.4739213,-7.2687964,-1.7286136
0.9071272,3.5462284,-1.5848013,-0.579893,-6.5653334,6.775591,-7.086837,-1.8962077
0.9049977,3.5526962,-1.5848013,-0.579893,-6.5653334,6.775591,-7.086837,-1.8962077
0.9028151,3.5592496,-1.5943887,-0.61717725,-6.7027526,7.1634517,-6.83784,-1.9153614
0.9005725,3.5658007,-1.5943887,-0.61717725,-6.7027526,7.1634517,-6.83784,-1.9153614
0.8982729,3.572455,-1.6093024,-0.6629836,-6.8593464,7.4028716,-6.655881,-1.9488802
0.895935,3.5790377,-1.6093024,-0.6629836,-6.8593464,7.4028716,-6.655881,-1.9488802
0.8935234,3.585772,-1.6263466,-0.7151816,-7.0276585,7.680599,-6.4882865,-2.030283
0.8910647,3.5924516,-1.6263466,-0.7151816,-7.0276585,7.680599,-6.4882865,-2.030283
0.88853526,3.599276,-1.6455214,-0.7737711,-7.211949,7.9583263,-6.3111157,-2.0254946
0.88606066,3.605773,-1.6455214,-0.7737711,-7.211949,7.9583263,-6.3111157,-2.0254946
0.88340485,3.6126986,-1.6657614,-0.83555645,-7.405827,8.207323,-6.2105594,-2.1021092
0.88059926,3.6198077,-1.6657614,-0.83555645,-7.405827,8.207323,-6.2105594,-2.1021092
0.8778555,3.6267145,-1.6860014,-0.9037334,-7.6092925,8.322245,-6.05733,-2.1164744
0.8750429,3.6335988,-1.6860014,-0.9037334,-7.6092925,8.322245,-6.05733,-2.1164744
0.87212056,3.6407173,-1.7019804,-0.9783019,-7.8180847,8.341399,-5.995081,-2.1404164
0.8691342,3.6477866,-1.7019804,-0.9783019,-7.8180847,8.341399,-5.995081,-2.1404164
0.8660779,3.6549976,-1.7136983,-1.0613925,-8.031137,8.307879,-5.9280434,-2.1978772
0.86296743,3.662127,-1.7136983,-1.0613925,-8.031137,8.307879,-5.9280434,-2.1978772
0.85977614,3.6694307,-1.7254162,-1.1551358,-8.24419,8.394072,-5.8466406,-2.3463178
0.85652864,3.676649,-1.7254162,-1.1551358,-8.24419,8.394072,-5.8466406,-2.3463178
0.85320455,3.684039,-1.7371341,-1.2584665,-8.457243,8.671799,-5.765238,-2.3319526
0.84981203,3.6913612,-1.7371341,-1.2584665,-8.457243,8.671799,-5.765238,-2.3319526
0.84634966,3.6988351,-1.748852,-1.3681887,-8.66923,8.829816,-5.6407394,-2.3702598
0.8428271,3.7062154,-1.748852,-1.3681887,-8.66923,8.829816,-5.6407394,-2.3702598
0.83924776,3.7137094,-1.7627004,-1.482172,-8.880153,8.839393,-5.602432,-2.4229321
0.8355884,3.721144,-1.7627004,-1.482172,-8.880153,8.839393,-5.602432,-2.4229321
0.8318513,3.728716,-1.7776141,-1.59509,-9.080422,9.107543,-5.415684,-2.4277205
0.8280503,3.7361865,-1.7776141,-1.59509,-9.080422,9.107543,-5.415684,-2.4277205
0.82417655,3.743762,-1.7935932,-1.703747,-9.264713,9.260772,-5.2863975,-2.3654714
0.82022995,3.751248,-1.7935932,-1.703747,-9.264713,9.260772,-5.2863975,-2.3654714
0.79934216,3.788758,-1.8266163,-1.9945642,-9.71319,8.556877,-5.094861,-1.9632454
0.79934216,3.788758,-1.8266163,-1.9945642,-9.71319,8.556877,-5.094861,-1.9632454
0.79934216,3.788758,-1.8266163,-1.9945642,-9.71319,8.556877,-5.094861,-1.9632454
0.79934216,3.788758,-1.8266163,-1.9945642,-9.71319,8.556877,-5.094861,-1.9632454
0.79934216,3.788758,-1.8266163,-1.9945642,-9.71319,8.556877,-5.094861,-1.9632454
0.79934216,3.788758,-1.8266163,-1.9945642,-9.71319,8.556877,-5.094861,-1.9632454
0.79023194,3.8039126,-1.8234205,-2.082981,-9.805868,7.015011,-5.3821654,-1.9776106
0.7858252,3.8110337,-1.8234205,-2.082981,-9.805868,7.015011,-5.3821654,-1.9776106
0.7858252,3.8110337,-1.8234205,-2.082981,-9.805868,7.015011,-5.3821654,-1.9776106
0.7758159,3.82688,-1.8074416,-2.1884422,-9.853805,8.623915,-4.213795,-1.8100165
0.77224076,3.8324707,-1.7797447,-2.2992299,-9.867653,6.38773,-5.8562174,-2.0159178
0.7677101,3.839371,-1.7797447,-2.2992299,-9.867653,6.38773,-5.8562174,-2.0159178
0.7631533,3.8463016,-1.7520478,-2.391908,-9.8282385,7.7811556,-4.673482,-1.9057846
0.7585718,3.8530688,-1.7520478,-2.391908,-9.8282385,7.7811556,-4.673482,-1.9057846
0.7540211,3.8597715,-1.7296773,-2.4654112,-9.709994,6.0477533,-5.401319,-2.2026656
0.74938285,3.8664083,-1.7296773,-2.4654112,-9.709994,6.0477533,-5.401319,-2.2026656
0.74460435,3.8732257,-1.704111,-2.533588,-9.570444,8.231265,-4.405331,-2.1021092
0.7392474,3.8806326,-1.704111,-2.533588,-9.570444,8.231265,-4.405331,-2.1021092
0.73558044,3.885697,-1.6742835,-2.5953734,-9.444743,8.475474,-4.912902,-2.0590134
0.7300041,3.893186,-1.6742835,-2.5953734,-9.444743,8.475474,-4.912902,-2.0590134
0.72545373,3.8992684,-1.6306077,-2.6411798,-9.31052,7.9870567,-5.434838,-1.8722657
0.7212285,3.904771,-1.6306077,-2.6411798,-9.31052,7.9870567,-5.434838,-1.8722657
0.7212285,3.904771,-1.6306077,-2.6411798,-9.31052,7.9870567,-5.434838,-1.8722657
0.7112691,3.9174726,-1.5805403,-2.6571586,-9.143273,7.5944076,-5.645528,-1.8100165
0.70818794,3.9213068,-1.5304728,-2.6390493,-8.936612,7.9870567,-5.3725886,-1.8148049
0.70241016,3.9283183,-1.5304728,-2.6390493,-8.936612,7.9870567,-5.3725886,-1.8148049
0.6992144,3.9321434,-1.4761443,-2.601765,-8.709711,7.6710224,-5.6407394,-1.6472107
0.69474024,3.9373856,-1.4761443,-2.601765,-8.709711,7.6710224,-5.6407394,-1.6472107
0.6904301,3.9423676,-1.414359,-2.558089,-8.475352,6.6750345,-5.118803,-1.6903064
0.6841155,3.9494588,-1.414359,-2.558089,-8.475352,6.6750345,-5.118803,-1.6903064
0.6815214,3.9523401,-1.3483126,-2.5122826,-8.225016,5.6886234,-4.951209,-1.6998832
0.6750412,3.9595225,-1.2822661,-2.48139,-7.937394,4.865018,-5.827487,-1.685518
0.6733581,3.9613476,-1.2822661,-2.48139,-7.937394,4.865018,-5.827487,-1.685518
0.66908884,3.9659052,-1.2822661,-2.48139,-7.937394,4.865018,-5.827487,-1.685518
0.65728045,3.9783816,-1.156565,-2.433453,-7.2769303,4.5298295,-5.0182467,-2.078167
0.65728045,3.9783816,-1.156565,-2.433453,-7.2769303,4.5298295,-5.0182467,-2.078167
0.65728045,3.9783816,-1.156565,-2.433453,-7.2769303,4.5298295,-5.0182467,-2.078167
0.6514521,3.9843693,-1.156565,-2.433453,-7.2769303,4.5298295,-5.0182467,-2.078167
0.6497265,3.9861631,-1.0979755,-2.4238658,-6.9349804,4.8458643,-4.3047748,-2.3175871
0.646052,3.9899292,-1.0979755,-2.4238658,-6.9349804,4.8458643,-4.3047748,-2.3175871
0.6405438,3.9956253,-1.0521691,-2.413213,-6.5898347,4.8123455,-4.132392,-2.4995465
0.6380187,3.9981813,-1.0521691,-2.413213,-6.5898347,4.8123455,-4.132392,-2.4995465
0.63577807,4.0004935,-1.0191458,-2.396169,-6.2500153,5.391742,-3.7014358,-2.4133554
0.6325123,4.0038147,-1.0191458,-2.396169,-6.2500153,5.391742,-3.7014358,-2.4133554
0.62945986,4.0069594,-0.99251425,-2.372733,-5.9261746,5.4922986,-3.6822822,-2.3080103
0.62945986,4.0069594,-0.99251425,-2.372733,-5.9261746,5.4922986,-3.6822822,-2.3080103
0.6226787,4.0138044,-0.96588266,-2.3471668,-5.624705,5.9280434,-3.2800562,-2.2649148
0.6226787,4.0138044,-0.96588266,-2.3471668,-5.624705,5.9280434,-3.2800562,-2.2649148
0.6157778,4.0206776,-0.96588266,-2.3471668,-5.624705,5.9280434,-3.2800562,-2.2649148
0.6148281,4.0216312,-0.9371205,-2.31947,-5.349867,6.2871737,-3.0550013,-2.1978772
0.6112219,4.0253105,-0.9062278,-2.2853813,-5.097399,6.9719152,-2.384625,-2.087744
0.6095147,4.027026,-0.9062278,-2.2853813,-5.097399,6.9719152,-2.384625,-2.087744
0.60709715,4.029484,-0.87533516,-2.2406402,-4.868367,7.359776,-2.3175871,-2.1021092
0.6046407,4.0319467,-0.87533516,-2.2406402,-4.868367,7.359776,-2.3175871,-2.1021092
0.60238546,4.03421,-0.84870356,-2.183116,-4.661706,7.776367,-1.982399,-1.9440918
0.6000569,4.036517,-0.84870356,-2.183116,-4.661706,7.776367,-1.982399,-1.9440918
0.59780854,4.038725,-0.8231372,-2.1160042,-4.4784803,8.039729,-1.6184803,-2.0638018
0.5955436,4.040921,-0.8231372,-2.1160042,-4.4784803,8.039729,-1.6184803,-2.0638018
0.5933423,4.0430183,-0.8028972,-2.045697,-4.3208213,8.149862,-1.2880806,-2.3223755
0.59116316,4.0450697,-0.8028972,-2.045697,-4.3208213,8.149862,-1.2880806,-2.3223755
0.58902264,4.047041,-0.79011405,-1.9828463,-4.187663,8.2169,-1.0342951,-2.657564
0.58687603,4.048995,-0.79011405,-1.9828463,-4.187663,8.2169,-1.0342951,-2.657564
0.58477587,4.0508604,-0.78904873,-1.9327788,-4.077941,8.437167,-0.5793968,-2.992752
0.5826682,4.052711,-0.78904873,-1.9327788,-4.077941,8.437167,-0.5793968,-2.992752
0.5806069,4.054485,-0.7975709,-1.9040167,-3.9905894,8.925584,-0.48362875,-3.2561142
0.57853425,4.0562487,-0.7975709,-1.9040167,-3.9905894,8.925584,-0.48362875,-3.2561142
0.5757864,4.058551,-0.8114193,-1.8986903,-3.9256082,9.112331,-0.45968673,-3.4811692
0.57437,4.059724,-0.8114193,-1.8986903,-3.9256082,9.112331,-0.45968673,-3.4811692
0.57175547,4.0618834,-0.82846355,-1.9157346,-3.8829975,9.653421,-0.1436521,-3.4524388
0.57041496,4.0629787,-0.82846355,-1.9157346,-3.8829975,9.653421,-0.1436521,-3.4524388
0.56849843,4.0645504,-0.8497688,-1.9519536,-3.8584964,9.911995,-0.14844051,-3.5817258
0.5665283,4.0661483,-0.8497688,-1.9519536,-3.8584964,9.911995,-0.14844051,-3.5817258
0.5645913,4.0677433,-0.86468256,-2.0030863,-3.8414524,10.251971,-0.038307227,-3.6296098
0.56264603,4.0693264,-0.86468256,-2.0030863,-3.8414524,10.251971,-0.038307227,-3.6296098
0.56073564,4.0709233,-0.8742699,-2.0712633,-3.8414524,10.405201,-0.038307227,-3.6343982
0.55882275,4.072504,-0.8742699,-2.0712633,-3.8414524,10.405201,-0.038307227,-3.6343982
0.55695117,4.0741024,-0.878531,-2.1447666,-3.847844,10.82658,0.090979666,-3.5673606
0.55506545,4.075694,-0.878531,-2.1447666,-3.847844,10.82658,0.090979666,-3.5673606
0.5532069,4.0773087,-0.87959623,-2.2108128,-3.856366,11.401189,0.30166942,-3.6822822
0.55133975,4.078913,-0.87959623,-2.2108128,-3.856366,11.401189,0.30166942,-3.6822822
0.54949605,4.080532,-0.87959623,-2.267272,-3.8616922,11.3964,0.24899697,-3.845088
0.5476458,4.082139,-0.87959623,-2.267272,-3.8616922,11.3964,0.24899697,-3.845088
0.54580927,4.0837517,-0.88172674,-2.307752,-3.8712797,11.841722,0.8475474,-3.964798
0.5439494,4.0853662,-0.88172674,-2.307752,-3.8712797,11.841722,0.8475474,-3.964798
0.5420858,4.086977,-0.8870531,-2.3343835,-3.885128,10.951078,0.50278234,-4.1180267
0.5402285,4.088565,-0.8870531,-2.3343835,-3.885128,10.951078,0.50278234,-4.1180267
0.5383854,4.0901504,-0.8955752,-2.3620803,-3.888324,13.10586,1.5370775,-3.7972038
0.5365356,4.0917234,-0.8955752,-2.3620803,-3.888324,13.10586,1.5370775,-3.7972038
0.5346706,4.093257,-0.91581523,-2.365276,-3.8840628,10.132261,-0.21547815,-4.606444
0.5327991,4.094779,-0.91581523,-2.365276,-3.8840628,10.132261,-0.21547815,-4.606444
0.53094804,4.0962315,-0.94564265,-2.3354487,-3.8393219,11.042058,0.7086837,-4.1276035
0.52909124,4.0976725,-0.94564265,-2.3354487,-3.8393219,11.042058,0.7086837,-4.1276035
0.5273061,4.099025,-0.9786658,-2.3098824,-3.7295995,12.966996,0.8379706,-4.050989
0.52551544,4.100366,-0.9786658,-2.3098824,-3.7295995,12.966996,0.8379706,-4.050989
0.523749,4.101616,-1.0074279,-2.255554,-3.655031,13.273455,0.91458505,-4.3239284
0.5219774,4.1028547,-1.0074279,-2.255554,-3.655031,13.273455,0.91458505,-4.3239284
0.52016,4.1040163,-1.031929,-2.167137,-3.6433132,13.340492,0.5793968,-4.027047
0.518338,4.1051674,-1.031929,-2.167137,-3.6433132,13.340492,0.5793968,-4.027047
0.5164715,4.106221,-1.0574954,-2.0563495,-3.614551,12.98615,0.50278234,-4.0078936
0.51460105,4.1072645,-1.0574954,-2.0563495,-3.614551,12.98615,0.50278234,-4.0078936
0.51268315,4.1081877,-1.0830617,-1.909343,-3.5666142,12.780249,0.60333884,-3.9600096
0.51076174,4.1091003,-1.0830617,-1.909343,-3.5666142,12.780249,0.60333884,-3.9600096
0.5087919,4.109886,-1.1096934,-1.7484881,-3.510155,12.497733,0.3878607,-3.787627
0.5068175,4.110663,-1.1096934,-1.7484881,-3.510155,12.497733,0.3878607,-3.787627
0.5047925,4.1113224,-1.1341945,-1.5982858,-3.4643486,11.57836,-0.11971009,-3.6822822
0.50276953,4.111971,-1.1341945,-1.5982858,-3.4643486,11.57836,-0.11971009,-3.6822822
0.5006999,4.1125255,-1.144847,-1.4629972,-3.4185424,10.941502,-0.39264908,-3.6248214
0.4986243,4.1130724,-1.144847,-1.4629972,-3.4185424,10.941502,-0.39264908,-3.6248214
0.49653143,4.113531,-1.1469777,-1.3362308,-3.356757,10.654198,-0.6655881,-3.5482068
0.49443507,4.113982,-1.1469777,-1.3362308,-3.356757,10.654198,-0.6655881,-3.5482068
0.49232572,4.11435,-1.144847,-1.2137253,-3.2832537,10.477027,-0.7517793,-3.667917
0.49021748,4.1147084,-1.144847,-1.2137253,-3.2832537,10.477027,-0.7517793,-3.667917
0.48810634,4.1149874,-1.140586,-1.0933504,-3.2054894,10.5919485,-0.8619126,-3.7349546
0.48599237,4.115258,-1.140586,-1.0933504,-3.2054894,10.5919485,-0.8619126,-3.7349546
0.48387027,4.1154594,-1.1320639,-0.9783019,-3.1319861,10.089166,-1.3455414,-3.7972038
0.48174745,4.115653,-1.1320639,-0.9783019,-3.1319861,10.089166,-1.3455414,-3.7972038
0.47962466,4.1157856,-1.1182154,-0.86964494,-3.0563524,9.691729,-1.5466543,-3.6583402
0.4775014,4.1159115,-1.1182154,-0.86964494,-3.0563524,9.691729,-1.5466543,-3.6583402
0.47538754,4.115981,-1.100106,-0.7684448,-2.974327,9.485827,-1.6519991,-3.7349546
0.4732735,4.116045,-1.100106,-0.7684448,-2.974327,9.485827,-1.6519991,-3.7349546
0.47117653,4.11606,-1.0798659,-0.67789733,-2.8912363,9.222465,-1.6567876,-3.7110126
0.4690795,4.116069,-1.0798659,-0.67789733,-2.8912363,9.222465,-1.6567876,-3.7110126
0.46700665,4.1160417,-1.0574954,-0.60119826,-2.8102763,9.11712,-1.6903064,-3.5242648
0.46493396,4.1160088,-1.0574954,-0.60119826,-2.8102763,9.11712,-1.6903064,-3.5242648
0.46289182,4.115944,-1.0361902,-0.5394129,-2.7303815,8.968679,-1.8148049,-3.4811692
0.46084985,4.115875,-1.0361902,-0.5394129,-2.7303815,8.968679,-1.8148049,-3.4811692
0.45884234,4.115777,-1.0148848,-0.4808234,-2.6462255,8.949526,-2.0254946,-3.3375173
0.45683897,4.1156745,-1.0148848,-0.4808234,-2.6462255,8.949526,-2.0254946,-3.3375173
0.45488364,4.115538,-0.9967753,-0.42862543,-2.5503519,8.920795,-2.030283,-3.3327289
0.45292848,4.1153975,-0.9967753,-0.42862543,-2.5503519,8.920795,-2.030283,-3.3327289
0.45102915,4.1152287,-0.97547,-0.38068852,-2.4523475,9.14585,-1.9680338,-3.2321723
0.44912994,4.1150565,-0.97547,-0.38068852,-2.4523475,9.14585,-1.9680338,-3.2321723
0.44728,4.114871,-0.94777316,-0.34340426,-2.366061,8.911219,-2.1691468,-3.1986535
0.44543043,4.1146817,-0.94777316,-0.34340426,-2.366061,8.911219,-2.1691468,-3.1986535
0.44363207,4.114488,-0.91581523,-0.3125116,-2.2819052,8.796297,-2.4133554,-3.1651347
0.44183406,4.1142907,-0.91581523,-0.3125116,-2.2819052,8.796297,-2.4133554,-3.1651347
0.44009885,4.114092,-0.88172674,-0.28801054,-2.1902924,8.8777,-2.4181437,-3.0502129
0.43836406,4.11389,-0.88172674,-0.28801054,-2.1902924,8.8777,-2.4181437,-3.0502129
0.43669742,4.1136947,-0.84018147,-0.26990104,-2.0954838,8.892065,-2.3942018,-3.098097
0.43503112,4.113496,-0.84018147,-0.26990104,-2.0954838,8.892065,-2.3942018,-3.098097
0.43343148,4.113315,-0.7933098,-0.25924838,-2.007067,8.834604,-2.4851813,-3.098097
0.43183202,4.1131315,-0.7933098,-0.25924838,-2.007067,8.834604,-2.4851813,-3.098097
0.43030164,4.112973,-0.7421771,-0.25605258,-1.9207804,8.7292595,-2.5187001,-3.1028855
0.42877153,4.1128125,-0.7421771,-0.25605258,-1.9207804,8.7292595,-2.5187001,-3.1028855
0.42731482,4.112688,-0.6857181,-0.26670524,-1.8387551,8.647857,-2.4277205,-3.1842883
0.4258582,4.112561,-0.6857181,-0.26670524,-1.8387551,8.647857,-2.4277205,-3.1842883
0.42447728,4.1124783,-0.6260633,-0.28588,-1.7609907,8.66701,-2.3175871,-3.193865
0.42309624,4.1123934,-0.6260633,-0.28588,-1.7609907,8.66701,-2.3175871,-3.193865
0.42179167,4.112355,-0.56640846,-0.31038108,-1.685357,8.662222,-2.2361844,-3.2561142
0.42048696,4.112315,-0.56640846,-0.31038108,-1.685357,8.662222,-2.2361844,-3.2561142
0.41387266,4.1128173,-0.39916196,-0.41051593,-1.4723041,8.887277,-1.5610195,-3.4715924
0.41387266,4.1128173,-0.39916196,-0.41051593,-1.4723041,8.887277,-1.5610195,-3.4715924
0.41387266,4.1128173,-0.39916196,-0.41051593,-1.4723041,8.887277,-1.5610195,-3.4715924
0.41387266,4.1128173,-0.39916196,-0.41051593,-1.4723041,8.887277,-1.5610195,-3.4715924
0.41387266,4.1128173,-0.39916196,-0.41051593,-1.4723041,8.887277,-1.5610195,-3.4715924
0.41387266,4.1128173,-0.39916196,-0.41051593,-1.4723041,8.887277,-1.5610195,-3.4715924
0.41288486,4.112959,-0.346964,-0.44673494,-1.4083883,8.949526,-1.2497733,-3.41892
0.41190884,4.1130967,-0.346964,-0.44673494,-1.4083883,8.949526,-1.2497733,-3.41892
0.4109331,4.113298,-0.29796183,-0.48721498,-1.3476682,9.14585,-1.0486604,-3.1747115
0.40994695,4.1134996,-0.29796183,-0.48721498,-1.3476682,9.14585,-1.0486604,-3.1747115
0.40917963,4.113712,-0.2478944,-0.5255645,-1.2890786,9.457097,-0.90021986,-3.3901896
0.40830556,4.1139517,-0.2478944,-0.5255645,-1.2890786,9.457097,-0.90021986,-3.3901896
0.40752587,4.1142263,-0.19889225,-0.5575224,-1.2315544,9.634268,-0.62249243,-3.6056678
0.40674675,4.114499,-0.19889225,-0.5575224,-1.2315544,9.634268,-0.62249243,-3.6056678
0.4060247,4.114809,-0.15628166,-0.58415407,-1.1750953,9.768343,-0.545878,-3.7732618
0.40529057,4.1151237,-0.15628166,-0.58415407,-1.1750953,9.768343,-0.545878,-3.7732618
0.40457967,4.115486,-0.11793215,-0.6043941,-1.1197016,9.878476,-0.35434186,-3.8115692
0.4039303,4.115816,-0.11793215,-0.6043941,-1.1197016,9.878476,-0.35434186,-3.8115692
0.40333083,4.116169,-0.08490895,-0.6139814,-1.0621773,9.969456,-0.18195933,-3.7445314
0.40272245,4.116526,-0.08490895,-0.6139814,-1.0621773,9.969456,-0.18195933,-3.7445314
0.4021564,4.1169024,-0.054016277,-0.6139814,-1.0025225,9.907207,-0.05267244,-3.7253778
0.4016136,4.117263,-0.054016277,-0.6139814,-1.0025225,9.907207,-0.05267244,-3.7253778
0.40110445,4.1176405,-0.02312361,-0.6033288,-0.94180244,9.873688,0.12449849,-3.739743
0.4005573,4.118045,-0.02312361,-0.6033288,-0.94180244,9.873688,0.12449849,-3.739743
0.40008086,4.1184354,0.0056385305,-0.5852193,-0.8746908,9.825804,0.20111294,-3.8067808
0.3996198,4.1188126,0.0056385305,-0.5852193,-0.8746908,9.825804,0.20111294,-3.8067808
0.3991107,4.1192665,0.029074349,-0.559653,-0.803318,9.744401,0.35434186,-3.892972
0.3986793,4.119651,0.029074349,-0.559653,-0.803318,9.744401,0.35434186,-3.892972
0.39834806,4.119969,0.047183845,-0.527695,-0.7287495,9.662998,0.3878607,-3.892972
0.39791426,4.120385,0.047183845,-0.527695,-0.7287495,9.662998,0.3878607,-3.892972
0.39760488,4.120702,0.06422807,-0.48721498,-0.65311575,9.648633,0.50278234,-3.8977604
0.3972552,4.12106,0.06422807,-0.48721498,-0.65311575,9.648633,0.50278234,-3.8977604
0.39694536,4.121395,0.07914178,-0.44247386,-0.57641673,9.437943,0.51714754,-4.0174704
0.39654812,4.121824,0.07914178,-0.44247386,-0.57641673,9.437943,0.51714754,-4.0174704
0.3963581,4.1220446,0.09512074,-0.3966675,-0.50078297,9.380483,0.6368576,-4.027047
0.39608356,4.122362,0.09512074,-0.3966675,-0.50078297,9.380483,0.6368576,-4.027047
0.39584962,4.1226583,0.11003445,-0.35086113,-0.42301863,9.294291,0.6847417,-4.0701427
0.39584962,4.1226583,0.11003445,-0.35086113,-0.42301863,9.294291,0.6847417,-4.0701427
0.39584962,4.1226583,0.11003445,-0.35086113,-0.42301863,9.294291,0.6847417,-4.0701427
0.39481136,4.12407,0.13666606,-0.2645747,-0.26855528,9.208099,0.6607997,-4.1371803
0.39481136,4.12407,0.13666606,-0.2645747,-0.26855528,9.208099,0.6607997,-4.1371803
0.39481136,4.12407,0.13666606,-0.2645747,-0.26855528,9.208099,0.6607997,-4.1371803
0.3946951,4.1243095,0.15264502,-0.22196412,-0.19398677,9.275137,0.6799533,-4.122815
0.3945794,4.1245484,0.15264502,-0.22196412,-0.19398677,9.275137,0.6799533,-4.122815
0.39450058,4.124769,0.168624,-0.17935355,-0.12261406,9.332599,0.7134721,-4.1132383
0.39441955,4.1249957,0.168624,-0.17935355,-0.12261406,9.332599,0.7134721,-4.1132383
0.3943691,4.125203,0.18353769,-0.13461244,-0.056567665,9.323022,0.62728083,-4.1276035
0.39432064,4.125403,0.18353769,-0.13461244,-0.056567665,9.323022,0.62728083,-4.1276035
0.39429456,4.1255918,0.19419034,-0.08561028,0.0030871434,9.854534,0.8475474,-4.1036615
0.39426816,4.1257825,0.19419034,-0.08561028,0.0030871434,9.854534,0.8475474,-4.1036615
0.39424434,4.1261253,0.20590825,-0.031281788,0.055285104,9.868899,1.0199299,-4.074931
0.39424434,4.1261253,0.20590825,-0.031281788,0.055285104,9.868899,1.0199299,-4.074931
0.39422506,4.126277,0.2165609,0.027307756,0.086177774,9.548077,1.0342951,-4.2042184
0.39420626,4.1264257,0.2165609,0.027307756,0.086177774,9.548077,1.0342951,-4.2042184
0.39417228,4.12656,0.22614828,0.086962566,0.10748306,9.279925,1.1300632,-4.1706996
0.3941384,4.1266937,0.22614828,0.086962566,0.10748306,9.279925,1.1300632,-4.1706996
0.39406365,4.126878,0.2314746,0.14448684,0.1298536,9.212888,1.2737153,-4.175488
0.39404458,4.1269245,0.2314746,0.14448684,0.1298536,9.212888,1.2737153,-4.175488
0.3939905,4.127012,0.22934407,0.1998806,0.15541996,9.136273,1.3359646,-3.9217024
0.3939182,4.1271296,0.22934407,0.1998806,0.15541996,9.136273,1.3359646,-3.9217024
0.3939182,4.1271296,0.22934407,0.1998806,0.15541996,9.136273,1.3359646,-3.9217024
0.3939182,4.1271296,0.22934407,0.1998806,0.15541996,9.136273,1.3359646,-3.9217024
0.3939182,4.1271296,0.22934407,0.1998806,0.15541996,9.136273,1.3359646,-3.9217024
0.39364552,4.1272078,0.21123457,0.30534178,0.21400951,9.006987,1.460463,-4.0557775
0.3935781,4.1271935,0.20377772,0.35434395,0.24170639,8.901642,1.4700398,-4.189853
0.39355114,4.1271877,0.20377772,0.35434395,0.24170639,8.901642,1.4700398,-4.189853
0.39347976,4.127143,0.19738613,0.40015033,0.26940325,8.710106,1.4221559,-4.3287168
0.39340824,4.127098,0.19738613,0.40015033,0.26940325,8.710106,1.4221559,-4.3287168
0.39333844,4.1270285,0.19099455,0.43849984,0.29603487,8.590396,1.3599066,-4.3287168
0.39326817,4.126958,0.19099455,0.43849984,0.29603487,8.590396,1.3599066,-4.3287168
0.39317748,4.126836,0.18779875,0.47152305,0.3216012,8.408437,1.283292,-4.3957543
0.39313132,4.1267743,0.18779875,0.47152305,0.3216012,8.408437,1.283292,-4.3957543
0.39307103,4.126665,0.18673348,0.4960241,0.34823284,8.178593,1.2545617,-4.4005427
0.39301026,4.126556,0.18673348,0.4960241,0.34823284,8.178593,1.2545617,-4.4005427
0.3929638,4.1264396,0.19099455,0.50987256,0.37486443,7.920019,1.1875241,-4.3287168
0.3929174,4.1263237,0.19099455,0.50987256,0.37486443,7.920019,1.1875241,-4.3287168
0.39289135,4.1262064,0.19632086,0.50987256,0.3993655,7.728483,1.1971009,-4.256891
0.3928652,4.12609,0.19632086,0.50987256,0.3993655,7.728483,1.1971009,-4.256891
0.3928659,4.125978,0.20377772,0.49815464,0.4238666,7.599196,1.2210429,-4.280833
0.39286646,4.125866,0.20377772,0.49815464,0.4238666,7.599196,1.2210429,-4.280833
0.39290038,4.125761,0.2101693,0.47684935,0.44943294,7.52737,1.2641385,-4.2904096
0.3929347,4.125654,0.2101693,0.47684935,0.44943294,7.52737,1.2641385,-4.2904096
0.39300293,4.1255655,0.21869142,0.44595668,0.47286877,7.5225816,1.3215994,-4.343082
0.3930763,4.12547,0.21869142,0.44595668,0.47286877,7.5225816,1.3215994,-4.343082
0.3931849,4.125395,0.22614828,0.40867242,0.49630457,7.575254,1.3311762,-4.343082
0.39329824,4.1253157,0.22614828,0.40867242,0.49630457,7.575254,1.3311762,-4.343082
0.39345083,4.125252,0.2314746,0.36819237,0.51867515,7.6949644,1.3982137,-4.4436383
0.3936002,4.12519,0.2314746,0.36819237,0.51867515,7.6949644,1.3982137,-4.4436383
0.393792,4.1251383,0.23467039,0.32771233,0.53891516,7.8386164,1.4748282,-4.55856
0.3939813,4.125087,0.23467039,0.32771233,0.53891516,7.8386164,1.4748282,-4.55856
0.3942154,4.1250496,0.23786618,0.28297123,0.55702466,8.082825,1.5562311,-4.6495395
0.3944457,4.125013,0.23786618,0.28297123,0.55702466,8.082825,1.5562311,-4.6495395
0.3947218,4.124992,0.24106197,0.23716486,0.57300365,8.264784,1.6472107,-4.596867
0.39498982,4.1249714,0.24106197,0.23716486,0.57300365,8.264784,1.6472107,-4.596867
0.39529487,4.1249695,0.24425776,0.18922795,0.582591,8.51857,1.8243817,-4.5394063
0.3956005,4.1249676,0.24425776,0.18922795,0.582591,8.51857,1.8243817,-4.5394063
0.39593974,4.124983,0.2463883,0.14342158,0.5879173,8.75799,1.8722657,-4.55856
0.39628023,4.1249986,0.2463883,0.14342158,0.5879173,8.75799,1.8722657,-4.55856
0.39664322,4.1250296,0.24745356,0.10187627,0.59004784,8.954314,1.9393034,-4.596867
0.3970055,4.12506,0.24745356,0.10187627,0.59004784,8.954314,1.9393034,-4.596867
0.39739594,4.125104,0.2463883,0.06459201,0.5857868,9.102755,2.0207062,-4.673482
0.39776695,4.125146,0.2463883,0.06459201,0.5857868,9.102755,2.0207062,-4.673482
0.39815468,4.1251984,0.24319251,0.034764607,0.57726467,9.14585,2.1068976,-4.5920787
0.39854664,4.125251,0.24319251,0.034764607,0.57726467,9.14585,2.1068976,-4.5920787
0.3989564,4.12531,0.23680092,0.012394054,0.56554675,9.279925,2.1308396,-4.620809
0.39932948,4.1253643,0.23680092,0.012394054,0.56554675,9.279925,2.1308396,-4.620809
0.39972025,4.1254206,0.2282788,-0.0046501774,0.5527636,9.184157,2.1499932,-4.572925
0.40011254,4.125478,0.2282788,-0.0046501774,0.5527636,9.184157,2.1499932,-4.572925
0.4004993,4.1255307,0.21869142,-0.015302822,0.53891516,9.165004,2.1930888,-4.654328
0.4008857,4.1255836,0.21869142,-0.015302822,0.53891516,9.165004,2.1930888,-4.654328
0.40126485,4.125628,0.20590825,-0.020629145,0.526132,9.093178,2.1691468,-4.7070007
0.40164366,4.1256723,0.20590825,-0.020629145,0.526132,9.093178,2.1691468,-4.7070007
0.4020168,4.1257057,0.19312507,-0.021694409,0.51867515,9.030929,2.1547816,-4.6926355
0.40238994,4.125739,0.19312507,-0.021694409,0.51867515,9.030929,2.1547816,-4.6926355
0.40275455,4.1257567,0.17821138,-0.018498616,0.5112183,8.872911,2.1547816,-4.6782703
0.40312022,4.125775,0.17821138,-0.018498616,0.5112183,8.872911,2.1547816,-4.6782703
0.40369675,4.1257772,0.1622324,-0.015302822,0.5080225,8.801085,2.1260512,-4.644751
0.4040275,4.125778,0.1622324,-0.015302822,0.5080225,8.801085,2.1260512,-4.644751
0.40420753,4.1257706,0.14838398,-0.007845971,0.510153,8.662222,2.0829554,-4.5681367
0.40456018,4.125755,0.14838398,-0.007845971,0.510153,8.662222,2.0829554,-4.5681367
0.40491667,4.125721,0.13453554,-0.00038911984,0.5154793,8.604761,2.030283,-4.5872903
0.40527532,4.1256866,0.13453554,-0.00038911984,0.5154793,8.604761,2.030283,-4.5872903
0.40563804,4.1256323,0.11962183,0.008132996,0.52506673,8.51857,2.078167,-4.5441947
0.40600085,4.125577,0.11962183,0.008132996,0.52506673,8.51857,2.078167,-4.5441947
0.40636808,4.1255026,0.10577339,0.014524583,0.5378499,8.461109,2.0254946,-4.5633483
0.40673646,4.125428,0.10577339,0.014524583,0.5378499,8.461109,2.0254946,-4.5633483
0.40711385,4.1253347,0.09299022,0.02091617,0.5538289,8.485051,2.0350714,-4.572925
0.40749335,4.1252403,0.09299022,0.02091617,0.5538289,8.485051,2.0350714,-4.572925
0.4078816,4.1251273,0.08020704,0.027307756,0.5708731,8.561666,2.0111294,-4.644751
0.40827027,4.125014,0.08020704,0.027307756,0.5708731,8.561666,2.0111294,-4.644751
0.4086664,4.1248817,0.067423865,0.034764607,0.5857868,8.695741,2.006341,-4.6686935
0.40906408,4.1247487,0.067423865,0.034764607,0.5857868,8.695741,2.006341,-4.6686935
0.409467,4.124597,0.05357543,0.043286722,0.59857,8.7532015,2.0207062,-4.6016555
0.40986997,4.124445,0.05357543,0.043286722,0.59857,8.7532015,2.0207062,-4.6016555
0.4102738,4.124275,0.040792257,0.052874103,0.6060268,8.963891,2.0350714,-4.6495395
0.4106775,4.1241055,0.040792257,0.052874103,0.6060268,8.963891,2.0350714,-4.6495395
0.41107503,4.1239204,0.028009083,0.06352675,0.6049616,9.11712,2.0494366,-4.510676
0.4114732,4.1237354,0.028009083,0.06352675,0.6049616,9.11712,2.0494366,-4.510676
0.41185492,4.1235356,0.015225911,0.07737519,0.59537417,9.232041,2.111686,-4.501099
0.412237,4.1233354,0.015225911,0.07737519,0.59537417,9.232041,2.111686,-4.501099
0.41259238,4.1231213,0.002442737,0.09441942,0.5740689,9.212888,2.183512,-4.43885
0.41294783,4.1229067,0.002442737,0.09441942,0.5740689,9.212888,2.183512,-4.43885
0.41327146,4.1226826,-0.008209907,0.10933312,0.54530674,9.074024,2.231396,-4.3718123
0.4135943,4.1224594,-0.008209907,0.10933312,0.54530674,9.074024,2.231396,-4.3718123
0.41388592,4.122222,-0.022058345,0.12318156,0.5133488,8.959103,2.2697031,-4.31914
0.4141749,4.1219864,-0.022058345,0.12318156,0.5133488,8.959103,2.2697031,-4.31914
0.4144291,4.1217446,-0.031645726,0.13596474,0.4803256,8.734048,2.2266076,-4.2664676
0.41468382,4.121502,-0.031645726,0.13596474,0.4803256,8.734048,2.2266076,-4.2664676
0.41491005,4.121254,-0.039102577,0.14448684,0.45262873,8.590396,2.1499932,-4.3239284
0.4151359,4.121007,-0.039102577,0.14448684,0.45262873,8.590396,2.1499932,-4.3239284
0.41534093,4.1207576,-0.04549416,0.14661737,0.43025818,8.441956,2.0398598,-4.3239284
0.41534093,4.1207576,-0.04549416,0.14661737,0.43025818,8.441956,2.0398598,-4.3239284
0.41576642,4.1201963,-0.05188575,0.14555211,0.41534448,8.288726,1.934515,-4.4196963
0.41592377,4.1199884,-0.05188575,0.14555211,0.41534448,8.288726,1.934515,-4.4196963
0.41615608,4.1196675,-0.05827734,0.14235632,0.40682238,8.236053,1.8579005,-4.4484267
0.41615608,4.1196675,-0.05827734,0.14235632,0.40682238,8.236053,1.8579005,-4.4484267
0.4165165,4.1191683,-0.06147313,0.13916053,0.40469185,8.1881695,1.7764976,-4.414908
0.4166762,4.118945,-0.06147313,0.13916053,0.40469185,8.1881695,1.7764976,-4.414908
0.41686833,4.118682,-0.065734185,0.13489947,0.40788764,8.159439,1.7190368,-4.2664676
0.41705847,4.1184216,-0.065734185,0.13489947,0.40788764,8.159439,1.7190368,-4.2664676
0.41705847,4.1184216,-0.06999525,0.12957314,0.41427922,8.121132,1.5562311,-4.271256
0.41743195,4.1179204,-0.06999525,0.12957314,0.41427922,8.121132,1.5562311,-4.271256
0.41765016,4.1176414,-0.07212578,0.12318156,0.42493185,8.073248,1.5035586,-4.2664676
0.41785944,4.1173735,-0.07212578,0.12318156,0.42493185,8.073248,1.5035586,-4.2664676
0.4180852,4.117103,-0.07319104,0.115724705,0.43771505,7.9966335,1.412579,-4.1371803
0.4180852,4.117103,-0.07319104,0.115724705,0.43771505,7.9966335,1.412579,-4.1371803
0.41867217,4.1164055,-0.07319104,0.10826785,0.45262873,7.953538,1.3455414,-4.0653543
0.41896036,4.116082,-0.07319104,0.10826785,0.45262873,7.953538,1.3455414,-4.0653543
0.419037,4.116002,-0.07212578,0.100811005,0.47180352,7.8865004,1.2545617,-4.084508
0.41928682,4.1157413,-0.07212578,0.100811005,0.47180352,7.8865004,1.2545617,-4.084508
0.41957638,4.1154633,-0.06999525,0.09122362,0.49310878,7.867347,1.1827357,-4.084508
0.41992646,4.1151266,-0.06999525,0.09122362,0.49310878,7.867347,1.1827357,-4.084508
0.41992646,4.1151266,-0.065734185,0.082701504,0.51654464,7.8529816,1.0486604,-4.1180267
0.42045146,4.114662,-0.065734185,0.082701504,0.51654464,7.8529816,1.0486604,-4.1180267
0.42078382,4.1143913,-0.0593426,0.07524466,0.5399804,7.809886,0.9528923,-4.1659107
0.42110676,4.114128,-0.0593426,0.07524466,0.5399804,7.809886,0.9528923,-4.1659107
0.42167872,4.1137004,-0.052951016,0.06672254,0.5676773,7.7907324,0.8858546,-4.213795
0.4218159,4.1135974,-0.052951016,0.06672254,0.5676773,7.7907324,0.8858546,-4.213795
0.4224558,4.1131663,-0.0444289,0.05500463,0.59750473,7.8625584,0.8858546,-4.223372
0.42255545,4.113099,-0.0444289,0.05500463,0.59750473,7.8625584,0.8858546,-4.223372
0.4231928,4.1127076,-0.036972046,0.045417253,0.6283974,8.00621,0.842759,-4.156334
0.42341477,4.1125712,-0.036972046,0.045417253,0.6283974,8.00621,0.842759,-4.156334
0.42411238,4.1121826,-0.028449932,0.034764607,0.6592901,8.178593,0.80445176,-4.1036615
0.42428905,4.1120834,-0.028449932,0.034764607,0.6592901,8.178593,0.80445176,-4.1036615
0.42476794,4.1118402,-0.018862553,0.024111962,0.68592167,8.379706,0.7661445,-4.084508
0.42523494,4.1116023,-0.018862553,0.024111962,0.68592167,8.379706,0.7661445,-4.084508
0.42572585,4.1113706,-0.009275172,0.017720375,0.7061617,8.599973,0.78050977,-4.0414124
0.4262281,4.1111326,-0.009275172,0.017720375,0.7061617,8.599973,0.78050977,-4.0414124
0.4270218,4.11078,-0.00075305626,0.012394054,0.7210754,8.772355,0.80445176,-4.0174704
0.42724583,4.1106806,-0.00075305626,0.012394054,0.7210754,8.772355,0.80445176,-4.0174704
0.42817685,4.110285,0.008834324,0.012394054,0.727467,8.872911,0.8379706,-3.9983168
0.42829475,4.110235,0.008834324,0.012394054,0.727467,8.872911,0.8379706,-3.9983168
0.42879716,4.110029,0.018421704,0.014524583,0.72853225,8.863335,0.8810662,-3.9935284
0.4293122,4.1098175,0.018421704,0.014524583,0.72853225,8.863335,0.8810662,-3.9935284
0.42982462,4.1096144,0.028009083,0.01878564,0.72533643,8.844181,0.89543146,-3.9504328
0.42982462,4.1096144,0.028009083,0.01878564,0.72533643,8.844181,0.89543146,-3.9504328
0.42982462,4.1096144,0.028009083,0.01878564,0.72533643,8.844181,0.89543146,-3.9504328
0.4316783,4.1088934,0.037596464,0.02624249,0.7210754,8.882488,0.89543146,-3.9552212
0.43200207,4.1087685,0.04611858,0.035829872,0.71681434,8.844181,0.90021986,-3.9217024
0.4323317,4.108641,0.04611858,0.035829872,0.71681434,8.844181,0.90021986,-3.9217024
0.43290642,4.1084247,0.054640695,0.043286722,0.7136185,8.810662,0.90500826,-3.8402996
0.43364528,4.1081457,0.054640695,0.043286722,0.7136185,8.810662,0.90500826,-3.8402996
0.43379185,4.1080914,0.06422807,0.051808838,0.71042275,8.767567,0.8571242,-3.7972038
0.4342762,4.107913,0.06422807,0.051808838,0.71042275,8.767567,0.8571242,-3.7972038
0.43474987,4.1077437,0.07594599,0.060330953,0.71042275,8.734048,0.7517793,-3.8642416
0.43522498,4.1075735,0.07594599,0.060330953,0.71042275,8.734048,0.7517793,-3.8642416
0.43569624,4.107409,0.0876639,0.0677878,0.7136185,8.63828,0.7517793,-4.1371803
0.4361713,4.1072426,0.0876639,0.0677878,0.7136185,8.63828,0.7517793,-4.1371803
0.43664104,4.1070848,0.098316535,0.072048865,0.71894485,8.619126,0.7326257,-4.237737
0.43711454,4.106925,0.098316535,0.072048865,0.71894485,8.619126,0.7326257,-4.237737
0.4375907,4.1067667,0.10364286,0.07737519,0.727467,8.599973,0.7326257,-4.285621
0.4380673,4.1066074,0.10364286,0.07737519,0.727467,8.599973,0.7326257,-4.285621
0.4385501,4.1064463,0.10683865,0.08376677,0.7402502,8.604761,0.6703765,-4.2185836
0.43903103,4.106285,0.10683865,0.08376677,0.7402502,8.604761,0.6703765,-4.2185836
0.43952188,4.1061196,0.11003445,0.09122362,0.75516385,8.532935,0.6464345,-4.1371803
0.44001648,4.105953,0.11003445,0.09122362,0.75516385,8.532935,0.6464345,-4.1371803
0.44052148,4.105785,0.11536077,0.09761521,0.7764691,8.48984,0.6799533,-4.050989
0.44103894,4.105612,0.11536077,0.09761521,0.7764691,8.48984,0.6799533,-4.050989
0.44157133,4.105439,0.12175236,0.099745736,0.7988397,8.504205,0.7326257,-4.036624
0.44208428,4.1052723,0.12175236,0.099745736,0.7988397,8.504205,0.7326257,-4.036624
0.442616,4.1051044,0.12814394,0.100811005,0.8222755,8.571242,0.7613561,-4.0892963
0.44315627,4.1049333,0.12814394,0.100811005,0.8222755,8.571242,0.7613561,-4.0892963
0.4437183,4.104763,0.13666606,0.099745736,0.84784186,8.623915,0.7326257,-4.1659107
0.44428074,4.1045923,0.13666606,0.099745736,0.84784186,8.623915,0.7326257,-4.1659107
0.4448653,4.104422,0.14412291,0.098680474,0.87447345,8.7771435,0.7182605,-4.2425256
0.44545045,4.104251,0.14412291,0.098680474,0.87447345,8.7771435,0.7182605,-4.2425256
0.44605446,4.104081,0.1505145,0.09761521,0.8979093,9.016563,0.7230489,-4.2664676
0.4466596,4.10391,0.1505145,0.09761521,0.8979093,9.016563,0.7230489,-4.2664676
0.44727832,4.103739,0.15477556,0.099745736,0.91495353,9.303867,0.82360536,-4.271256
0.44789654,4.103566,0.15477556,0.099745736,0.91495353,9.303867,0.82360536,-4.271256
0.44851565,4.103394,0.15797135,0.10507206,0.91921455,9.524135,0.9864111,-4.247314
0.44913524,4.103222,0.15797135,0.10507206,0.91921455,9.524135,0.9864111,-4.247314
0.44974232,4.1030426,0.15477556,0.117855236,0.9117577,9.648633,1.091756,-4.19943
0.45034918,4.1028633,0.15477556,0.117855236,0.9117577,9.648633,1.091756,-4.19943
0.45093337,4.1026726,0.1473187,0.13489947,0.8957788,9.624691,1.1587936,-4.2281604
0.45151755,4.102482,0.1473187,0.13489947,0.8957788,9.624691,1.1587936,-4.2281604
0.45206982,4.1022816,0.13773133,0.15407422,0.87021244,9.552865,1.1971009,-4.0653543
0.4526226,4.1020803,0.13773133,0.15407422,0.87021244,9.552865,1.1971009,-4.0653543
0.45314822,4.101866,0.12814394,0.17431425,0.8425155,9.452309,1.2210429,-4.074931
0.45366707,4.1016526,0.12814394,0.17431425,0.8425155,9.452309,1.2210429,-4.074931
0.4541501,4.1014323,0.11962183,0.19348902,0.8148187,9.337387,1.1204864,-3.98874
0.4546341,4.101211,0.11962183,0.19348902,0.8148187,9.337387,1.1204864,-3.98874
0.45508838,4.1009855,0.11536077,0.20840271,0.79138285,9.160215,1.0390835,-4.036624
0.45554444,4.1007586,0.11536077,0.20840271,0.79138285,9.160215,1.0390835,-4.036624
0.45597997,4.1005297,0.11536077,0.2211859,0.7775344,9.045294,0.9528923,-4.0892963
0.4564161,4.1003003,0.11536077,0.2211859,0.7775344,9.045294,0.9528923,-4.0892963
0.4568414,4.10007,0.11855656,0.23077327,0.7743386,8.920795,0.8810662,-4.19943
0.45726737,4.099839,0.11855656,0.23077327,0.7743386,8.920795,0.8810662,-4.19943
0.45769382,4.0996075,0.12494815,0.24036065,0.783926,8.748413,0.8523358,-4.223372
0.45812255,4.099374,0.12494815,0.24036065,0.783926,8.748413,0.8523358,-4.223372
0.45856625,4.0991364,0.132405,0.24888276,0.80949235,8.643068,0.79966336,-4.2664676
0.4590093,4.098899,0.132405,0.24888276,0.80949235,8.643068,0.79966336,-4.2664676
0.45947963,4.0986495,0.13666606,0.25740486,0.8510376,8.5473,0.79966336,-4.2999864
0.45994943,4.0984,0.13666606,0.25740486,0.8510376,8.5473,0.79966336,-4.2999864
0.46045744,4.098135,0.14199238,0.26699227,0.90430087,8.451532,0.78050977,-4.3382936
0.4609761,4.097864,0.14199238,0.26699227,0.90430087,8.451532,0.78050977,-4.3382936
0.46152833,4.0975814,0.14838398,0.27977544,0.9703473,8.422802,0.7374141,-4.343082
0.46207717,4.0972996,0.14838398,0.27977544,0.9703473,8.422802,0.7374141,-4.343082
0.4627421,4.09696,0.15264502,0.2957544,1.0449158,8.441956,0.7230489,-4.3622355
0.4632905,4.096679,0.15264502,0.2957544,1.0449158,8.441956,0.7230489,-4.3622355
0.4639507,4.0963426,0.15584081,0.3138639,1.1280065,8.63828,0.7517793,-4.367024
0.46462402,4.0959983,0.15584081,0.3138639,1.1280065,8.63828,0.7517793,-4.367024
0.4653313,4.0956373,0.16116714,0.33623445,1.211097,8.767567,0.7182605,-4.31914
0.4660461,4.0952706,0.16116714,0.33623445,1.211097,8.767567,0.7182605,-4.31914
0.46681365,4.0948734,0.16649346,0.36286607,1.2931224,8.949526,0.7038953,-4.3287168
0.46757928,4.0944767,0.16649346,0.36286607,1.2931224,8.949526,0.7038953,-4.3287168
0.46839663,4.094046,0.17181979,0.39269346,1.3708867,9.069236,0.7374141,-4.285621
0.46920952,4.0936165,0.17181979,0.39269346,1.3708867,9.069236,0.7374141,-4.285621
0.47006223,4.093156,0.1771461,0.42571667,1.4422594,9.121908,0.6895301,-4.2760444
0.47091377,4.0926943,0.1771461,0.42571667,1.4422594,9.121908,0.6895301,-4.2760444
0.47180006,4.092202,0.18140717,0.45980513,1.5072405,9.227253,0.7230489,-4.232949
0.4726797,4.091711,0.18140717,0.45980513,1.5072405,9.227253,0.7230489,-4.232949
0.4735923,4.0911856,0.18247244,0.49495885,1.5647649,9.361329,0.6607997,-4.1419687
0.47450143,4.09066,0.18247244,0.49495885,1.5647649,9.361329,0.6607997,-4.1419687
0.47543085,4.0901065,0.18566823,0.5290473,1.6158975,9.433155,0.6512229,-4.146757
0.47636035,4.089551,0.18566823,0.5290473,1.6158975,9.433155,0.6512229,-4.146757
0.47730634,4.0889673,0.18779875,0.56420106,1.6638345,9.485827,0.60333884,-4.1515455
0.47825065,4.0883827,0.18779875,0.56420106,1.6638345,9.485827,0.60333884,-4.1515455
0.47921124,4.0877705,0.19099455,0.59722424,1.7043145,9.481039,0.51714754,-4.1180267
0.48016906,4.0871577,0.19099455,0.59722424,1.7043145,9.481039,0.51714754,-4.1180267
0.48113328,4.086521,0.1952556,0.63344324,1.738403,9.514558,0.51235914,-4.098873
0.48209578,4.085883,0.1952556,0.63344324,1.738403,9.514558,0.51235914,-4.098873
0.48306206,4.085224,0.20164719,0.668597,1.7703608,9.504981,0.4405331,-4.1180267
0.48402727,4.0845633,0.20164719,0.668597,1.7703608,9.504981,0.4405331,-4.1180267
0.48499584,4.083883,0.20803878,0.70162016,1.8001883,9.44752,0.39264908,-4.122815
0.4859633,4.0832005,0.20803878,0.70162016,1.8001883,9.44752,0.39264908,-4.122815
0.4869329,4.0824976,0.21229984,0.7335781,1.8289504,9.375694,0.35434186,-4.122815
0.4879023,4.0817914,0.21229984,0.7335781,1.8289504,9.375694,0.35434186,-4.122815
0.48887515,4.081066,0.21869142,0.76660126,1.8587779,9.275137,0.31124622,-4.027047
0.48984772,4.0803385,0.21869142,0.76660126,1.8587779,9.275137,0.31124622,-4.027047
0.49082693,4.079588,0.22401774,0.7964287,1.891801,9.136273,0.22505496,-4.156334
0.49179894,4.0788403,0.22401774,0.7964287,1.891801,9.136273,0.22505496,-4.156334
0.49278563,4.0780663,0.2282788,0.8241256,1.9258895,8.973468,0.2633622,-4.1371803
0.4937748,4.0772867,0.2282788,0.8241256,1.9258895,8.973468,0.2633622,-4.1371803
0.49477133,4.076489,0.23360512,0.85182244,1.964239,8.767567,0.17717093,-4.132392
0.49576828,4.075687,0.23360512,0.85182244,1.964239,8.767567,0.17717093,-4.132392
0.49678138,4.0748615,0.23786618,0.8773888,2.0068495,8.523358,0.15322891,-4.1132383
0.4977917,4.0740337,0.23786618,0.8773888,2.0068495,8.523358,0.15322891,-4.1132383
0.4988276,4.0731835,0.24425776,0.8986941,2.0537212,8.389283,0.11971009,-4.0222588
0.4998649,4.0723276,0.24425776,0.8986941,2.0537212,8.389283,0.11971009,-4.0222588
0.5009179,4.071461,0.25064936,0.9157383,2.1059191,8.303091,0.07182605,-4.0653543
0.50237507,4.070255,0.25064936,0.9157383,2.1059191,8.303091,0.07182605,-4.0653543
0.503102,4.069659,0.2591715,0.92958677,2.1613128,8.226477,0.06703765,-4.027047
0.50437236,4.0686126,0.2591715,0.92958677,2.1613128,8.226477,0.06703765,-4.027047
0.505458,4.0677295,0.26875886,0.9391741,2.2167068,8.1402855,-0.047884032,-4.1132383
0.505458,4.0677295,0.26875886,0.9391741,2.2167068,8.1402855,-0.047884032,-4.1132383
0.5083407,4.0654116,0.27728096,0.9455657,2.26997,8.159439,-0.10055647,-4.084508
0.5089722,4.0648994,0.27728096,0.9455657,2.26997,8.159439,-0.10055647,-4.084508
0.5100322,4.0640564,0.28686833,0.9487615,2.3200374,8.240842,-0.095768064,-4.0892963
0.5124935,4.062104,0.29539046,0.9498268,2.3647785,8.384495,-0.15322891,-4.0557775
0.5124935,4.062104,0.29539046,0.9498268,2.3647785,8.384495,-0.15322891,-4.0557775
0.513708,4.061143,0.29539046,0.9498268,2.3647785,8.384495,-0.15322891,-4.0557775
0.51498467,4.060145,0.30284733,0.9498268,2.3978016,8.508993,-0.10534488,-3.9839516
0.5162594,4.0591426,0.30284733,0.9498268,2.3978016,8.508993,-0.10534488,-3.9839516
0.5174818,4.0581894,0.3092389,0.9498268,2.4201722,8.532935,-0.16759412,-3.8498764
0.51873654,4.057205,0.3092389,0.9498268,2.4201722,8.532935,-0.16759412,-3.8498764
0.5199337,4.0562716,0.3124347,0.9455657,2.4297595,8.595184,-0.17717093,-3.7205894
0.52247566,4.0542803,0.3156305,0.94023937,2.4286942,8.604761,-0.22026655,-3.6583402
0.52247566,4.0542803,0.3156305,0.94023937,2.4286942,8.604761,-0.22026655,-3.6583402
0.5237251,4.053296,0.3156305,0.94023937,2.4286942,8.604761,-0.22026655,-3.6583402
0.525089,4.052229,0.3209568,0.930652,2.4201722,8.576031,-0.24899697,-3.596091
0.526559,4.0510707,0.3241526,0.9157383,2.407389,8.542512,-0.32561144,-3.5817258
0.52797925,4.049959,0.3241526,0.9157383,2.407389,8.542512,-0.32561144,-3.5817258
0.5288945,4.049239,0.3241526,0.9157383,2.407389,8.542512,-0.32561144,-3.5817258
0.53013074,4.048282,0.3305442,0.89656353,2.3924754,8.461109,-0.4357447,-3.5051112
0.5313549,4.0473285,0.3305442,0.89656353,2.3924754,8.461109,-0.4357447,-3.5051112
0.5333549,4.0457993,0.33800104,0.87206244,2.3764963,8.39886,-0.5554548,-3.6056678
0.5338311,4.045432,0.33800104,0.87206244,2.3764963,8.39886,-0.5554548,-3.6056678
0.535107,4.044478,0.34865367,0.8464961,2.3637133,8.336611,-0.60333884,-3.6296098
0.5366849,4.043289,0.34865367,0.8464961,2.3637133,8.336611,-0.60333884,-3.6296098
0.5376341,4.0425973,0.3603716,0.8198645,2.3573215,8.322245,-0.6895301,-3.5673606
0.53887045,4.041691,0.3603716,0.8198645,2.3573215,8.322245,-0.6895301,-3.5673606
0.54013616,4.0407977,0.37315476,0.79110235,2.3583868,8.307879,-0.7469909,-3.4763808
0.54143953,4.039872,0.37315476,0.79110235,2.3583868,8.307879,-0.7469909,-3.4763808
0.54143953,4.039872,0.37315476,0.79110235,2.3583868,8.307879,-0.7469909,-3.4763808
0.54477227,4.0375996,0.390199,0.761275,2.366909,8.303091,-0.866701,-3.4380736
0.5466343,4.0363765,0.40937376,0.7335781,2.379692,8.288726,-1.0103531,-3.6152446
0.5466343,4.0363765,0.40937376,0.7335781,2.379692,8.288726,-1.0103531,-3.6152446
0.54799,4.035521,0.42748326,0.7069465,2.3978016,8.288726,-1.0773908,-3.8163576
0.54934555,4.0346603,0.42748326,0.7069465,2.3978016,8.288726,-1.0773908,-3.8163576
0.5507157,4.033825,0.44346222,0.6824454,2.4223027,8.379706,-1.163582,-3.8594532
0.55209947,4.032975,0.44346222,0.6824454,2.4223027,8.379706,-1.163582,-3.8594532
0.5548389,4.0313406,0.4562454,0.66327065,2.4510648,8.360553,-1.2737153,-3.8115692
0.5548389,4.0313406,0.4562454,0.66327065,2.4510648,8.360553,-1.2737153,-3.8115692
0.55624306,4.030525,0.46902856,0.64729166,2.4830227,8.408437,-1.3694834,-3.6487634
0.5576887,4.02968,0.46902856,0.64729166,2.4830227,8.408437,-1.3694834,-3.6487634
0.55915046,4.0288453,0.48181173,0.63557374,2.5171113,8.403648,-1.460463,-3.5625722
0.5606135,4.0280037,0.48181173,0.63557374,2.5171113,8.403648,-1.460463,-3.5625722
0.56210995,4.027161,0.4956602,0.62705165,2.5533302,8.389283,-1.4939818,-3.490746
0.5636062,4.0263124,0.4956602,0.62705165,2.5533302,8.389283,-1.4939818,-3.490746
0.5651353,4.025465,0.51270443,0.61852956,2.5895493,8.346188,-1.5993267,-3.4476504
0.56666726,4.0246096,0.51270443,0.61852956,2.5895493,8.346188,-1.5993267,-3.4476504
0.56823534,4.023759,0.53081393,0.60681164,2.628964,8.274361,-1.7142484,-3.3327289
0.5698,4.0229025,0.53081393,0.60681164,2.628964,8.274361,-1.7142484,-3.3327289
0.5713935,4.0220566,0.5521192,0.59722424,2.6726398,8.312668,-1.8531121,-3.2321723
0.5729898,4.021202,0.5521192,0.59722424,2.6726398,8.312668,-1.8531121,-3.2321723
0.5746264,4.0203547,0.57768553,0.5855063,2.7184463,8.231265,-1.9919758,-3.2321723
0.5762659,4.019499,0.60538244,0.57272315,2.7706442,8.130709,-2.1021092,-3.217807
0.5762659,4.019499,0.60538244,0.57272315,2.7706442,8.130709,-2.1021092,-3.217807
0.5762659,4.019499,0.60538244,0.57272315,2.7706442,8.130709,-2.1021092,-3.217807
0.58197474,4.0165954,0.60538244,0.57272315,2.7706442,8.130709,-2.1021092,-3.217807
0.5840254,4.0155735,0.63414454,0.56420106,2.830299,7.9966335,-2.2170308,-3.2130187
0.5849089,4.0151477,0.6671678,0.5578095,2.8995411,7.728483,-2.303222,-3.107674
0.5868343,4.0142136,0.6671678,0.5578095,2.8995411,7.728483,-2.303222,-3.107674
0.5884919,4.0134335,0.70232147,0.5535484,2.9805014,7.627927,-2.4037786,-3.0933087
0.59022886,4.0126085,0.70232147,0.5535484,2.9805014,7.627927,-2.4037786,-3.0933087
0.5921315,4.0117283,0.7385405,0.5514179,3.0742445,7.536947,-2.4660277,-3.0933087
0.594038,4.0108376,0.7385405,0.5514179,3.0742445,7.536947,-2.4660277,-3.0933087
0.5960153,4.009934,0.77689,0.5514179,3.1797059,7.398083,-2.585738,-3.1651347
0.5979984,4.009018,0.77689,0.5514179,3.1797059,7.398083,-2.585738,-3.1651347
0.6000649,4.0080795,0.8152395,0.5556789,3.2958195,7.3406224,-2.6479871,-3.1172507
0.6021291,4.007132,0.8152395,0.5556789,3.2958195,7.3406224,-2.6479871,-3.1172507
0.604283,4.0061564,0.85571957,0.5620705,3.4204555,7.2831616,-2.8060043,-3.145981
0.6064447,4.005166,0.85571957,0.5620705,3.4204555,7.2831616,-2.8060043,-3.145981
0.60867566,4.004156,0.89619964,0.5684621,3.5482872,7.321469,-2.873042,-3.0933087
0.61091036,4.0031323,0.89619964,0.5684621,3.5482872,7.321469,-2.873042,-3.0933087
0.6132352,4.002079,0.9377449,0.57485366,3.6814454,7.3071036,-3.0023289,-2.9400797
0.61556154,4.001013,0.9377449,0.57485366,3.6814454,7.3071036,-3.0023289,-2.9400797
0.6179861,3.99991,0.9803555,0.58231056,3.8156686,7.326257,-3.169923,-2.9496565
0.62040997,3.9987931,0.9803555,0.58231056,3.8156686,7.326257,-3.169923,-2.9496565
0.6229178,3.9976466,1.0261619,0.5918979,3.9488268,7.3645644,-3.2561142,-2.882619
0.6254223,3.9964862,1.0261619,0.5918979,3.9488268,7.3645644,-3.2561142,-2.882619
0.6280185,3.9952931,1.0740988,0.6014853,4.0787888,7.4986396,-3.3566709,-2.801216
0.630611,3.9940856,1.0740988,0.6014853,4.0787888,7.4986396,-3.3566709,-2.801216
0.63328695,3.9928465,1.1241663,0.6132032,4.20449,7.560889,-3.3997664,-2.767697
0.63596183,3.9915905,1.1241663,0.6132032,4.20449,7.560889,-3.3997664,-2.767697
0.6387085,3.9903078,1.1742337,0.6238558,4.3227344,7.6470804,-3.5482068,-2.8299465
0.64146453,3.9890018,1.1742337,0.6238558,4.3227344,7.6470804,-3.5482068,-2.8299465
0.64431727,3.9876568,1.2221706,0.6345085,4.4345875,7.7093296,-3.6774938,-2.6431987
0.64709216,3.9863288,1.2221706,0.6345085,4.4345875,7.7093296,-3.6774938,-2.6431987
0.6499691,3.9849553,1.2701074,0.64729166,4.537918,7.7572136,-3.7253778,-2.5187001
0.6528411,3.983563,1.2701074,0.64729166,4.537918,7.7572136,-3.7253778,-2.5187001
0.65577924,3.9821358,1.3191096,0.6643359,4.6369877,7.8625584,-3.8019924,-2.566584
0.6587097,3.9806898,1.3191096,0.6643359,4.6369877,7.8625584,-3.8019924,-2.566584
0.66169155,3.9792142,1.364916,0.6792496,4.730731,8.00621,-3.9504328,-2.6144683
0.6646682,3.9777174,1.364916,0.6792496,4.730731,8.00621,-3.9504328,-2.6144683
0.6677645,3.9761593,1.4085919,0.68990225,4.8138213,8.259995,-4.084508,-2.528277
0.6708277,3.974592,1.4085919,0.68990225,4.8138213,8.259995,-4.084508,-2.528277
0.6740173,3.97296,1.4501371,0.69629383,4.8851943,8.379706,-4.2425256,-2.4851813
0.67684597,3.971489,1.4501371,0.69629383,4.8851943,8.379706,-4.2425256,-2.4851813
0.6799401,3.9698832,1.4895519,0.69842434,4.9469795,8.461109,-4.2904096,-2.4181437
0.68302804,3.9682536,1.4895519,0.69842434,4.9469795,8.461109,-4.2904096,-2.4181437
0.6879904,3.9656286,1.5289667,0.7005549,4.9991775,8.432379,-4.4484267,-2.2170308
0.68931735,3.9649148,1.5289667,0.7005549,4.9991775,8.432379,-4.4484267,-2.2170308
0.69255346,3.9631839,1.5683814,0.7026854,5.046049,8.312668,-4.6255975,-2.2361844
0.6956733,3.9614859,1.5683814,0.7026854,5.046049,8.312668,-4.6255975,-2.2361844
0.69880927,3.9597821,1.6088616,0.70375067,5.08866,8.259995,-4.7548847,-2.327164
0.7018757,3.9580877,1.6088616,0.70375067,5.08866,8.259995,-4.7548847,-2.327164
0.70503116,3.9563475,1.6472111,0.70162016,5.12914,8.135497,-4.9176903,-2.4037786
0.70818913,3.9545758,1.6472111,0.70162016,5.12914,8.135497,-4.9176903,-2.4037786
0.71137476,3.952788,1.6834301,0.7005549,5.167489,8.121132,-5.00867,-2.4277205
0.7145564,3.9509711,1.6834301,0.7005549,5.167489,8.121132,-5.00867,-2.4277205
0.7177558,3.9491444,1.7185838,0.6973591,5.2005124,8.025364,-5.171476,-2.4899697
0.72095096,3.9472878,1.7185838,0.6973591,5.2005124,8.025364,-5.171476,-2.4899697
0.72415835,3.9454222,1.751607,0.6941633,5.233536,7.9966335,-5.305551,-2.4708161
0.7273611,3.943526,1.751607,0.6941633,5.233536,7.9966335,-5.305551,-2.4708161
0.7305991,3.94161,1.7835649,0.68564117,5.263363,7.9248075,-5.3438582,-2.504335
0.7338356,3.9396603,1.7835649,0.68564117,5.263363,7.9248075,-5.3438582,-2.504335
0.737135,3.9376822,1.8144575,0.672858,5.292125,7.714118,-6.0764837,-2.4181437
0.7403362,3.935728,1.8144575,0.672858,5.292125,7.714118,-6.0764837,-2.4181437
0.7435267,3.933791,1.848546,0.652618,5.3187566,8.413225,-5.9041014,-2.6431987
0.7467613,3.9317915,1.848546,0.652618,5.3187566,8.413225,-5.9041014,-2.6431987
0.75002015,3.9298036,1.8868955,0.62492114,5.3411274,7.824251,-5.9567738,-2.815581
0.75329,3.9277718,1.8868955,0.62492114,5.3411274,7.824251,-5.9567738,-2.815581
0.7565797,3.9257615,1.9177883,0.5876369,5.360302,7.896077,-6.205771,-2.6623523
0.75986755,3.9237146,1.9177883,0.5876369,5.360302,7.896077,-6.205771,-2.6623523
0.7631881,3.9216998,1.9476156,0.53224313,5.3709545,8.121132,-6.397307,-2.6048915
0.76650035,3.919652,1.9476156,0.53224313,5.3709545,8.121132,-6.397307,-2.6048915
0.7698596,3.917639,1.9785084,0.46726197,5.378412,8.408437,-6.6079965,-2.60968
0.77321064,3.9155922,1.9785084,0.46726197,5.378412,8.408437,-6.6079965,-2.60968
0.7766072,3.9135911,2.0147274,0.39908504,5.3848033,8.571242,-6.871359,-2.5617957
0.77998555,3.911562,2.0147274,0.39908504,5.3848033,8.571242,-6.871359,-2.5617957
0.783427,3.9095771,2.0573378,0.32664707,5.39226,8.772355,-6.9479733,-2.5713725
0.7868569,3.9075594,2.0573378,0.32664707,5.39226,8.772355,-6.9479733,-2.5713725
0.79033834,3.905597,2.10634,0.25420907,5.4029126,8.868123,-6.8426285,-2.6192567
0.79380476,3.903603,2.10634,0.25420907,5.4029126,8.868123,-6.8426285,-2.6192567
0.79733706,3.9016578,2.1606686,0.18283637,5.421022,8.767567,-6.8091097,-2.743755
0.80085826,3.899678,2.1606686,0.18283637,5.421022,8.767567,-6.8091097,-2.743755
0.8044524,3.897737,2.2160623,0.11252891,5.4508495,8.652645,-6.5984197,-2.8921957
0.8080821,3.8957338,2.2160623,0.11252891,5.4508495,8.652645,-6.5984197,-2.8921957
0.8134907,3.8928359,2.2703907,0.045417253,5.4945254,8.623915,-6.459556,-2.9592333
0.8153525,3.8918164,2.2703907,0.045417253,5.4945254,8.623915,-6.459556,-2.9592333
0.8190204,3.8898683,2.3268497,-0.012107029,5.5552454,8.461109,-6.349423,-3.1794999
0.82266587,3.887889,2.3268497,-0.012107029,5.5552454,8.461109,-6.349423,-3.1794999
0.826439,3.885864,2.383309,-0.054717608,5.634075,8.346188,-6.0716953,-3.2465374
0.83020777,3.8837948,2.383309,-0.054717608,5.634075,8.346188,-6.0716953,-3.2465374
0.8340558,3.8816717,2.436572,-0.080283955,5.7320795,8.250419,-5.8801594,-3.3614593
0.8378952,3.8795037,2.436572,-0.080283955,5.7320795,8.250419,-5.8801594,-3.3614593
0.8418094,3.877244,2.4855742,-0.08774081,5.851389,8.010999,-5.6646814,-3.5098996
0.845714,3.8749366,2.4855742,-0.08774081,5.851389,8.010999,-5.6646814,-3.5098996
0.8577968,3.8672986,2.5665343,-0.061109193,6.1485977,7.723695,-5.386954,-3.7732618
0.8577968,3.8672986,2.5665343,-0.061109193,6.1485977,7.723695,-5.386954,-3.7732618
0.8577968,3.8672986,2.5665343,-0.061109193,6.1485977,7.723695,-5.386954,-3.7732618
0.86184096,3.8645797,2.5665343,-0.061109193,6.1485977,7.723695,-5.386954,-3.7732618
0.8658844,3.8617082,2.5963616,-0.027020732,6.3233013,7.7907324,-5.281609,-3.7780502
0.8700702,3.8586636,2.5963616,-0.027020732,6.3233013,7.7907324,-5.281609,-3.7780502
0.87422764,3.855456,2.6208627,0.016655112,6.5075917,7.848193,-5.185841,-3.667917
0.8791453,3.8515613,2.6208627,0.016655112,6.5075917,7.848193,-5.185841,-3.667917
0.88286984,3.8484201,2.6411028,0.070983596,6.698274,7.9343843,-5.109226,-3.6631286
0.88693297,3.8449156,2.6411028,0.070983596,6.698274,7.9343843,-5.109226,-3.6631286
0.89115465,3.841041,2.6570818,0.1338342,6.8921523,8.00621,-5.425261,-3.6248214
0.89549583,3.8369563,2.6570818,0.1338342,6.8921523,8.00621,-5.425261,-3.6248214
0.89979255,3.8326597,2.6709301,0.19881533,7.0870957,8.121132,-5.837064,-3.490746
0.90822184,3.8237555,2.6890397,0.26379648,7.2841697,8.365341,-5.851429,-3.5769374
0.90822184,3.8237555,2.6890397,0.26379648,7.2841697,8.365341,-5.851429,-3.5769374
0.9124664,3.8190246,2.6890397,0.26379648,7.2841697,8.365341,-5.851429,-3.5769374
0.9167896,3.8139236,2.7082145,0.3319734,7.479113,8.437167,-5.81791,-3.5673606
0.92121524,3.8085597,2.7082145,0.3319734,7.479113,8.437167,-5.81791,-3.5673606
0.926212,3.8021383,2.7263238,0.40334612,7.6729913,8.432379,-5.9998693,-3.4284968
0.9320112,3.7944264,2.7263238,0.40334612,7.6729913,8.432379,-5.9998693,-3.4284968
0.9347776,3.7905388,2.7476292,0.47791463,7.864739,8.0684595,-6.2249246,-3.3566709
0.9389732,3.7845066,2.7476292,0.47791463,7.864739,8.0684595,-6.2249246,-3.3566709
0.94519794,3.7749777,2.771065,0.5578095,8.061812,7.7093296,-6.435614,-3.3279405
0.9473276,3.7716231,2.799827,0.63876957,8.270604,7.479486,-6.411672,-3.2513258
0.95193905,3.763989,2.799827,0.63876957,8.270604,7.479486,-6.411672,-3.2513258
0.95193905,3.763989,2.799827,0.63876957,8.270604,7.479486,-6.411672,-3.2513258
0.95193905,3.763989,2.834981,0.71440333,8.486854,7.101202,-6.6079965,-3.2321723
0.9651524,3.7400992,2.834981,0.71440333,8.486854,7.101202,-6.6079965,-3.2321723
0.96822494,3.7340794,2.8754609,0.7836455,8.711624,7.091625,-6.7133417,-3.098097
0.97248095,3.7254922,2.8754609,0.7836455,8.711624,7.091625,-6.7133417,-3.098097
0.976706,3.7165263,2.9191368,0.8464961,8.93959,7.1730285,-6.885724,-3.0023289
0.9805851,3.7080045,2.9191368,0.8464961,8.93959,7.1730285,-6.885724,-3.0023289
0.9805851,3.7080045,2.9191368,0.8464961,8.93959,7.1730285,-6.885724,-3.0023289
0.9904356,3.684641,2.963878,0.90828145,9.167558,7.07726,-7.029376,-2.9352913
0.9923626,3.679778,3.0118148,0.96900153,9.391263,7.038953,-7.1251445,-2.8491
0.99609053,3.6700363,3.0118148,0.96900153,9.391263,7.038953,-7.1251445,-2.8491
0.99993694,3.6594615,3.0629475,1.0254606,9.604316,7.0724716,-7.249643,-2.801216
1.0036892,3.6487086,3.0629475,1.0254606,9.604316,7.0724716,-7.249643,-2.801216
1.0073687,3.637586,3.113015,1.079789,9.804585,7.335834,-7.3166804,-2.7581203
1.0109642,3.626227,3.113015,1.079789,9.804585,7.335834,-7.3166804,-2.7581203
1.014593,3.6140702,3.1662781,1.1394439,9.985681,7.4986396,-7.52737,-2.7485435
1.014593,3.6140702,3.1662781,1.1394439,9.985681,7.4986396,-7.52737,-2.7485435
1.0226659,3.584685,3.1662781,1.1394439,9.985681,7.4986396,-7.52737,-2.7485435
1.0257995,3.5720677,3.2248678,1.2033597,10.143339,7.675811,-7.6614456,-2.6719291
1.0257995,3.5720677,3.2248678,1.2033597,10.143339,7.675811,-7.6614456,-2.6719291
1.0257995,3.5720677,3.2248678,1.2033597,10.143339,7.675811,-7.6614456,-2.6719291
1.0345948,3.5317008,3.2855878,1.2736672,10.278628,7.7332716,-7.723695,-2.7341783
1.0366883,3.520661,3.3484385,1.3461051,10.387285,7.714118,-7.7189064,-2.7341783
1.0383121,3.5114682,3.4123542,1.4174778,10.469311,7.441179,-7.7189064,-2.6001031
1.0406511,3.4974267,3.4123542,1.4174778,10.469311,7.441179,-7.7189064,-2.6001031
1.0406511,3.4974267,3.4123542,1.4174778,10.469311,7.441179,-7.7189064,-2.6001031
1.0406511,3.4974267,3.4123542,1.4174778,10.469311,7.441179,-7.7189064,-2.6001031
1.0475755,3.4464858,3.5327291,1.5282654,10.579033,7.015011,-7.5848308,-2.360683
1.0482979,3.4399788,3.5327291,1.5282654,10.579033,7.015011,-7.5848308,-2.360683
1.0497928,3.4251633,3.5870576,1.5676801,10.613121,6.8905125,-7.666234,-2.27928
1.0511234,3.4103246,3.5870576,1.5676801,10.613121,6.8905125,-7.666234,-2.27928
1.052278,3.3953576,3.637125,1.5975076,10.634426,6.679823,-7.8290396,-2.1883004
1.0532732,3.3803155,3.637125,1.5975076,10.634426,6.679823,-7.8290396,-2.1883004
1.0540864,3.3652139,3.6829314,1.6220087,10.646144,6.5026517,-8.192958,-2.3415294
1.054737,3.3500755,3.6829314,1.6220087,10.646144,6.5026517,-8.192958,-2.3415294
1.0552126,3.334948,3.7223463,1.6358571,10.646144,6.493075,-8.480263,-2.2697031
1.0555269,3.3197768,3.7223463,1.6358571,10.646144,6.493075,-8.480263,-2.2697031
1.0556711,3.3046467,3.7596304,1.6433139,10.633361,6.50744,-8.738836,-2.1164744
1.0556532,3.2895117,3.7596304,1.6433139,10.633361,6.50744,-8.738836,-2.1164744
1.0554662,3.2744482,3.7958496,1.6486403,10.609925,6.2249246,-9.069236,-1.982399
1.0551196,3.2594476,3.7958496,1.6486403,10.609925,6.2249246,-9.069236,-1.982399
1.0545987,3.2443037,3.8331337,1.651836,10.577968,6.0716953,-9.44752,-1.8291701
1.0535755,3.2228258,3.8331337,1.651836,10.577968,6.0716953,-9.44752,-1.8291701
1.0530968,3.2147117,3.870418,1.6529013,10.542813,6.019023,-9.801862,-1.733402
1.0521228,3.2002513,3.870418,1.6529013,10.542813,6.019023,-9.801862,-1.733402
1.0509833,3.1857812,3.9098327,1.6529013,10.503399,6.0477533,-10.266336,-1.5705963
1.049692,3.1713932,3.9098327,1.6529013,10.503399,6.0477533,-10.266336,-1.5705963
1.0482447,3.157234,3.9545739,1.6592929,10.454396,5.3438582,-10.869676,-1.6184803
1.0466459,3.1431327,3.9545739,1.6592929,10.454396,5.3438582,-10.869676,-1.6184803
1.0449107,3.1293464,4.006772,1.6582277,10.397938,5.233725,-11.056423,-1.484405
1.0430324,3.1156626,4.006772,1.6582277,10.397938,5.233725,-11.056423,-1.484405
1.0410306,3.1022823,4.0642962,1.6486403,10.341478,5.291186,-11.247959,-1.412579
1.0388888,3.0890043,4.0642962,1.6486403,10.341478,5.291186,-11.247959,-1.412579
1.0366293,3.0760229,4.125016,1.6369224,10.280759,5.4683566,-11.362882,-1.3024458
1.0342364,3.0631695,4.125016,1.6369224,10.280759,5.4683566,-11.362882,-1.3024458
1.0317326,3.0506647,4.1868014,1.631596,10.208321,6.0285997,-11.382035,-1.1348516
1.0291046,3.0383096,4.1868014,1.631596,10.208321,6.0285997,-11.382035,-1.1348516
1.0263479,3.026276,4.245391,1.6433139,10.129491,5.899313,-11.482592,-1.1061212
1.023485,3.014448,4.245391,1.6433139,10.129491,5.899313,-11.482592,-1.1061212
1.0204841,3.0029173,4.3018503,1.663554,10.037878,6.2345014,-11.96622,-0.7182605
1.0173819,2.9915853,4.3018503,1.663554,10.037878,6.2345014,-11.96622,-0.7182605
1.0141698,2.9806569,4.3583093,1.6848593,9.928156,5.9280434,-12.004527,-0.545878
1.0108716,2.969949,4.3583093,1.6848593,9.928156,5.9280434,-12.004527,-0.545878
1.0074567,2.959617,4.4083767,1.7114909,9.80352,6.191406,-12.038046,-0.48841715
1.0039214,2.949382,4.4083767,1.7114909,9.80352,6.191406,-12.038046,-0.48841715
1.0002491,2.9394486,4.4520526,1.7296003,9.656513,6.3350577,-11.865664,-0.37349546
0.9965867,2.9299455,4.4520526,1.7296003,9.656513,6.3350577,-11.865664,-0.37349546
0.9928262,2.920813,4.482945,1.7498404,9.489267,5.7508726,-11.908759,0.14844051
0.98899287,2.9118636,4.482945,1.7498404,9.489267,5.7508726,-11.908759,0.14844051
0.9851137,2.9033515,4.4893365,1.7572973,9.290063,7.383718,-12.157756,0.94810385
0.98116976,2.8950152,4.4893365,1.7572973,9.290063,7.383718,-12.157756,0.94810385
0.97718024,2.8871536,4.491467,1.7849941,9.07488,6.7229185,-11.927913,0.9672575
0.9731344,2.8794599,4.491467,1.7849941,9.07488,6.7229185,-11.927913,0.9672575
0.96910805,2.8723464,4.478684,1.8244089,8.840521,5.391742,-12.133814,1.2880806
0.9649554,2.8652546,4.478684,1.8244089,8.840521,5.391742,-12.133814,1.2880806
0.96084183,2.8586836,4.4552484,1.8254741,8.572075,4.3766007,-12.105083,1.5514427
0.9566776,2.8522472,4.4552484,1.8254741,8.572075,4.3766007,-12.105083,1.5514427
0.9525881,2.8462877,4.4243555,1.7871246,8.283388,3.7445314,-11.832145,1.6376339
0.94845915,2.8404574,4.4243555,1.7871246,8.283388,3.7445314,-11.832145,1.6376339
0.9444423,2.835071,4.3838754,1.7178824,7.981918,3.490746,-11.621455,1.7860745
0.9403875,2.829797,4.3838754,1.7178824,7.981918,3.490746,-11.621455,1.7860745
0.93647724,2.8249402,4.3316774,1.6262697,7.6697955,3.3854012,-11.219229,1.7764976
0.93253785,2.820189,4.3316774,1.6262697,7.6697955,3.3854012,-11.219229,1.7764976
0.92876446,2.815841,4.269892,1.5314611,7.354477,3.5529952,-10.5680065,1.7477672
0.92495215,2.8115697,4.269892,1.5314611,7.354477,3.5529952,-10.5680065,1.7477672
0.92128897,2.8076663,4.1963887,1.4547621,7.0466156,3.643975,-9.945514,1.6519991
0.9176017,2.8038433,4.1963887,1.4547621,7.0466156,3.643975,-9.945514,1.6519991
0.91403854,2.8003478,4.106907,1.4025642,6.7515373,3.5577838,-9.246407,1.4700398
0.91046953,2.7969377,4.106907,1.4025642,6.7515373,3.5577838,-9.246407,1.4700398
0.9069776,2.7937899,3.9961193,1.3727368,6.467112,3.3901896,-8.690952,1.4652514
0.90348196,2.7907195,3.9961193,1.3727368,6.467112,3.3901896,-8.690952,1.4652514
0.90008146,2.7879047,3.870418,1.3567578,6.1922736,3.1124623,-8.374918,1.5897499
0.8966658,2.7851486,3.870418,1.3567578,6.1922736,3.1124623,-8.374918,1.5897499
0.8933464,2.7826266,3.7319336,1.3439746,5.917435,2.6479871,-8.09719,1.6663644
0.89001435,2.7801573,3.7319336,1.3439746,5.917435,2.6479871,-8.09719,1.6663644
0.8867876,2.7779062,3.5870576,1.3269304,5.6404667,2.0254946,-7.819463,1.7429788
0.88354677,2.7757,3.5870576,1.3269304,5.6404667,2.0254946,-7.819463,1.7429788
0.8804287,2.773693,3.43579,1.2949724,5.361367,1.4891934,-7.517793,1.6711528
0.87730443,2.7717302,3.43579,1.2949724,5.361367,1.4891934,-7.517793,1.6711528
0.8743053,2.7699358,3.278131,1.2459702,5.0790725,1.292869,-7.0820484,1.5610195
0.87133735,2.7682016,3.278131,1.2459702,5.0790725,1.292869,-7.0820484,1.5610195
0.86850077,2.766605,3.1108844,1.1841849,4.7989078,1.283292,-6.579266,1.4556746
0.865646,2.7650342,3.1108844,1.1841849,4.7989078,1.283292,-6.579266,1.4556746
0.86296827,2.7636013,2.9287243,1.1181386,4.514482,1.7477672,-6.38773,1.532289
0.8602634,2.7621849,2.9287243,1.1181386,4.514482,1.7477672,-6.38773,1.532289
0.8577331,2.76089,2.7369766,1.0510269,4.2215343,1.9776106,-5.329493,1.5610195
0.8551982,2.7596197,2.7369766,1.0510269,4.2215343,1.9776106,-5.329493,1.5610195
0.85282624,2.7584739,2.5430984,0.99243736,3.9264562,1.6136919,-5.080496,1.2018893
0.8504387,2.7573438,2.5430984,0.99243736,3.9264562,1.6136919,-5.080496,1.2018893
0.84819645,2.7563267,2.3343067,0.94023937,3.6175294,0.6607997,-4.9081135,0.90979666
0.8459997,2.7553492,2.3343067,0.94023937,3.6175294,0.6607997,-4.9081135,0.90979666
0.843953,2.7544441,2.1148622,0.8859109,3.3320386,0.1388637,-4.654328,0.7326257
0.8419015,2.753553,2.1148622,0.8859109,3.3320386,0.1388637,-4.654328,0.7326257
0.84001124,2.7526922,1.8879608,0.8262561,3.0710487,-0.18674773,-4.3526587,0.91937345
0.83809406,2.751833,1.8879608,0.8262561,3.0710487,-0.18674773,-4.3526587,0.91937345
0.83635247,2.7509863,1.6578637,0.7538181,2.8164506,0.272939,-4.2425256,1.1923125
0.8346069,2.7501493,1.6578637,0.7538181,2.8164506,0.272939,-4.2425256,1.1923125
0.83302563,2.7493246,1.4309623,0.6792496,2.5575912,0.29688102,-4.285621,1.3120226
0.8314428,2.7485087,1.4309623,0.6792496,2.5575912,0.29688102,-4.285621,1.3120226
0.8300267,2.7477186,1.2147137,0.6078769,2.2976668,-0.023942016,-4.295198,1.3024458
0.82860905,2.7469356,1.2147137,0.6078769,2.2976668,-0.023942016,-4.295198,1.3024458
0.8273528,2.7461782,1.0069871,0.5386347,2.0473297,-0.21547815,-4.3526587,1.1683705
0.8260952,2.7454264,1.0069871,0.5386347,2.0473297,-0.21547815,-4.3526587,1.1683705
0.82498825,2.7446895,0.80565214,0.4693925,1.810841,-0.35913026,-4.5920787,0.92895025
0.8238826,2.7439582,0.80565214,0.4693925,1.810841,-0.35913026,-4.5920787,0.92895025
0.82292527,2.7432337,0.6128393,0.40015033,1.5903312,-0.38307226,-4.596867,0.7230489
0.82134455,2.742046,0.6128393,0.40015033,1.5903312,-0.38307226,-4.596867,0.7230489
0.82103795,2.741776,0.42961377,0.33303866,1.3826046,-0.4309563,-4.6591167,0.5746084
0.8202053,2.7410455,0.42961377,0.33303866,1.3826046,-0.4309563,-4.6591167,0.5746084
0.8195487,2.7403502,0.25171462,0.26912278,1.1865959,-0.58418524,-4.936844,0.45968673
0.8188604,2.7396233,0.25171462,0.26912278,1.1865959,-0.58418524,-4.936844,0.45968673
0.81787205,2.7383246,0.08233757,0.20733745,1.0012399,-0.5746084,-5.243302,0.40222588
0.81769663,2.7380948,0.08233757,0.20733745,1.0012399,-0.5746084,-5.243302,0.40222588
0.81727636,2.737369,-0.07638683,0.14235632,0.8222755,-0.39743748,-5.473145,0.46447513
0.81685585,2.7366443,-0.07638683,0.14235632,0.8222755,-0.39743748,-5.473145,0.46447513
0.81657493,2.7359376,-0.22765438,0.07311413,0.6433111,-0.29688102,-5.770026,0.56982
0.81626254,2.7351537,-0.22765438,0.07311413,0.6433111,-0.29688102,-5.770026,0.56982
0.8160968,2.734403,-0.36933455,0.0028066735,0.4664772,-0.01436521,-6.0285997,0.6943185
0.8159309,2.733653,-0.36933455,0.0028066735,0.4664772,-0.01436521,-6.0285997,0.6943185
0.8159005,2.7329752,-0.5024926,-0.065370254,0.28751275,0.25378537,-6.2728086,0.92416185
0.8158658,2.732201,-0.5024926,-0.065370254,0.28751275,0.25378537,-6.2728086,0.92416185
0.81596404,2.7314942,-0.62499803,-0.13567771,0.11067885,0.521936,-6.5361705,1.0103531
0.81606364,2.730779,-0.62499803,-0.13567771,0.11067885,0.521936,-6.5361705,1.0103531
0.81629485,2.7300873,-0.7389813,-0.20385464,-0.064024515,0.6751649,-6.847417,1.0773908
0.8166734,2.7289553,-0.7389813,-0.20385464,-0.064024515,0.6751649,-6.847417,1.0773908
0.8168919,2.7285538,-0.84337723,-0.26883575,-0.23340157,0.79966336,-7.16824,1.0486604
0.817252,2.7278914,-0.84337723,-0.26883575,-0.23340157,0.79966336,-7.16824,1.0486604
0.8176161,2.727421,-0.93818575,-0.33275163,-0.39638704,0.9528923,-7.4603324,1.0869676
0.8182637,2.7265851,-0.93818575,-0.33275163,-0.39638704,0.9528923,-7.4603324,1.0869676
0.81899863,2.7258642,-1.023407,-0.39134118,-0.5487198,1.2018893,-7.6853876,1.1013328
0.8193048,2.725564,-1.023407,-0.39134118,-0.5487198,1.2018893,-7.6853876,1.1013328
0.82029986,2.7247958,-1.0979755,-0.44353914,-0.69146526,1.4269443,-7.9726915,1.0247183
0.82071733,2.724474,-1.0979755,-0.44353914,-0.69146526,1.4269443,-7.9726915,1.0247183
0.8218599,2.7237563,-1.1661524,-0.4829539,-0.8235581,1.6376339,-8.212111,1.0630256
0.82224447,2.7235148,-1.1661524,-0.4829539,-0.8235581,1.6376339,-8.212111,1.0630256
0.823092,2.7230697,-1.2268724,-0.50852025,-0.9407372,1.7717092,-8.341399,1.1061212
0.8242293,2.7224739,-1.2268724,-0.50852025,-0.9407372,1.7717092,-8.341399,1.1061212
0.82485914,2.7221942,-1.2790704,-0.5213034,-1.0440679,1.9488802,-8.643068,1.1252748
0.82577395,2.7217891,-1.2790704,-0.5213034,-1.0440679,1.9488802,-8.643068,1.1252748
0.8267172,2.7214339,-1.3238115,-0.5191729,-1.1346153,1.9249382,-8.844181,1.13964
0.82835275,2.7208223,-1.3238115,-0.5191729,-1.1346153,1.9249382,-8.844181,1.13964
0.8285741,2.72075,-1.3610958,-0.5042592,-1.2070533,2.135628,-8.954314,1.283292
0.82960266,2.7204165,-1.3610958,-0.5042592,-1.2070533,2.135628,-8.954314,1.283292
0.83057034,2.7201421,-1.394119,-0.4829539,-1.2656429,2.0590134,-9.050082,1.1971009
0.8315387,2.7198694,-1.394119,-0.4829539,-1.2656429,2.0590134,-9.050082,1.1971009
0.8324989,2.7196314,-1.4207506,-0.45206124,-1.3093187,1.7621324,-9.375694,1.115698
0.83346266,2.7193947,-1.4207506,-0.45206124,-1.3093187,1.7621324,-9.375694,1.115698
0.83440626,2.7191806,-1.43886,-0.41584226,-1.3316892,1.5993267,-9.41879,1.1109096
0.8352935,2.718981,-1.43886,-0.41584226,-1.3316892,1.5993267,-9.41879,1.1109096
0.83653224,2.7187064,-1.4516432,-0.37536222,-1.3327545,1.4508862,-9.907207,1.0486604
0.83713573,2.718574,-1.4516432,-0.37536222,-1.3327545,1.4508862,-9.907207,1.0486604
0.83799875,2.7183776,-1.4569696,-0.3274253,-1.3167756,0.770933,-9.399636,1.0342951
0.8388433,2.7181873,-1.4569696,-0.3274253,-1.3167756,0.770933,-9.399636,1.0342951
0.8396269,2.7179892,-1.4569696,-0.27416208,-1.2826871,0.5554548,-10.103531,1.1444284
0.84043485,2.717787,-1.4569696,-0.27416208,-1.2826871,0.5554548,-10.103531,1.1444284
0.8412508,2.7175364,-1.4569696,-0.22196412,-1.2336849,0.35913026,-10.505757,1.3790601
0.84189004,2.7173412,-1.4569696,-0.22196412,-1.2336849,0.35913026,-10.505757,1.3790601
0.842726,2.7170215,-1.4484475,-0.17722303,-1.1740301,0.51235914,-10.903194,1.5801731
0.8432372,2.716827,-1.4484475,-0.17722303,-1.1740301,0.51235914,-10.903194,1.5801731
0.84386015,2.7165592,-1.41862,-0.14952615,-1.1186364,0.38307226,-11.176133,1.6472107
0.84386015,2.7165592,-1.41862,-0.14952615,-1.1186364,0.38307226,-11.176133,1.6472107
0.84524107,2.7159681,-1.3696179,-0.13780823,-1.068569,0.16280572,-11.501745,1.5131354
0.84593415,2.7156656,-1.3696179,-0.13780823,-1.068569,0.16280572,-11.501745,1.5131354
0.84626526,2.7155218,-1.305702,-0.13567771,-1.0142404,-0.07182605,-11.678916,1.3790601
0.84626526,2.7155218,-1.305702,-0.13567771,-1.0142404,-0.07182605,-11.678916,1.3790601
0.8476073,2.714943,-1.305702,-0.13567771,-1.0142404,-0.07182605,-11.678916,1.3790601
0.8479237,2.7148023,-1.2343293,-0.13780823,-0.948194,0.05746084,-11.765107,1.364695
0.84846413,2.7145476,-1.1586956,-0.14313456,-0.875756,0.33039984,-11.736377,1.4700398
0.84897035,2.7143097,-1.1586956,-0.14313456,-0.875756,0.33039984,-11.736377,1.4700398
0.8494584,2.7140818,-1.0756049,-0.1505914,-0.8097096,0.59855044,-11.75553,1.5562311
0.84995264,2.713851,-1.0756049,-0.1505914,-0.8097096,0.59855044,-11.75553,1.5562311
0.8504262,2.7136436,-0.98612267,-0.15591773,-0.7479243,0.6512229,-11.899182,1.6807296
0.85090107,2.713436,-0.98612267,-0.15591773,-0.7479243,0.6512229,-11.899182,1.6807296
0.8513517,2.7132561,-0.8966405,-0.15698299,-0.6882695,0.6991069,-11.870452,1.6711528
0.851803,2.7130766,-0.8966405,-0.15698299,-0.6882695,0.6991069,-11.870452,1.6711528
0.8523639,2.7128606,-0.81248456,-0.1537872,-0.6222231,0.80445176,-11.803414,1.6519991
0.8526505,2.7127504,-0.81248456,-0.1537872,-0.6222231,0.80445176,-11.803414,1.6519991
0.8530306,2.7126002,-0.7325897,-0.1420693,-0.55191565,1.0821792,-11.654974,1.7046716
0.8534095,2.7124515,-0.7325897,-0.1420693,-0.55191565,1.0821792,-11.654974,1.7046716
0.8534095,2.7124515,-0.7325897,-0.1420693,-0.55191565,1.0821792,-11.654974,1.7046716
0.85407734,2.7121646,-0.65908647,-0.11969874,-0.48054293,1.2785037,-11.540052,1.8866309
0.85433006,2.7120366,-0.59197485,-0.082414486,-0.40703967,1.4652514,-11.477803,1.9919758
0.85459405,2.7119033,-0.59197485,-0.082414486,-0.40703967,1.4652514,-11.477803,1.9919758
0.8547811,2.7117805,-0.53125477,-0.030216524,-0.33566695,1.4748282,-11.463438,2.0350714
0.85496855,2.711658,-0.53125477,-0.030216524,-0.33566695,1.4748282,-11.463438,2.0350714
0.85506463,2.711544,-0.47799152,0.036895137,-0.2621637,1.4077905,-11.405977,2.0350714
0.85516083,2.7114303,-0.47799152,0.036895137,-0.2621637,1.4077905,-11.405977,2.0350714
0.8551564,2.7113247,-0.42898938,0.113594174,-0.18759519,1.3215994,-11.300632,2.0159178
0.85515195,2.7112188,-0.42898938,0.113594174,-0.18759519,1.3215994,-11.300632,2.0159178
0.8550466,2.7111204,-0.38424826,0.19242375,-0.11515721,1.13964,-11.295844,2.0111294
0.85494065,2.7110214,-0.38424826,0.19242375,-0.11515721,1.13964,-11.295844,2.0111294
0.8547323,2.7109299,-0.34057242,0.27338386,-0.04271923,0.9864111,-11.262324,2.006341
0.85452336,2.7108383,-0.34057242,0.27338386,-0.04271923,0.9864111,-11.262324,2.006341
0.8542156,2.7107553,-0.29902712,0.3522134,0.025457697,0.7182605,-11.161768,1.958457
0.8539077,2.7106724,-0.29902712,0.3522134,0.025457697,0.7182605,-11.161768,1.958457
0.8535083,2.710596,-0.25854707,0.42358613,0.0915041,0.46926352,-11.066,1.9201498
0.8531089,2.7105193,-0.25854707,0.42358613,0.0915041,0.46926352,-11.066,1.9201498
0.8526332,2.7104483,-0.21913227,0.48217568,0.15222417,0.1340753,-10.955867,1.8243817
0.85215545,2.7103767,-0.21913227,0.48217568,0.15222417,0.1340753,-10.955867,1.8243817
0.85161257,2.7103112,-0.17865223,0.53011256,0.20868318,-0.19632454,-10.94629,1.7381904
0.8510698,2.7102458,-0.17865223,0.53011256,0.20868318,-0.19632454,-10.94629,1.7381904
0.85047835,2.7101824,-0.13710691,0.56100523,0.2619464,-0.47884035,-10.836157,1.6519991
0.8498857,2.710119,-0.13710691,0.56100523,0.2619464,-0.47884035,-10.836157,1.6519991
0.84925735,2.7100585,-0.0923658,0.57911474,0.31094858,-0.7086837,-10.7356,1.6280571
0.84862953,2.7099986,-0.0923658,0.57911474,0.31094858,-0.7086837,-10.7356,1.6280571
0.84797865,2.7099357,-0.049755223,0.5833758,0.3578202,-0.9624691,-10.644621,1.532289
0.84732795,2.7098727,-0.049755223,0.5833758,0.3578202,-0.9624691,-10.644621,1.532289
0.8466676,2.7098033,-0.008209907,0.57485366,0.40149605,-1.1252748,-10.500969,1.4700398
0.8460071,2.7097342,-0.008209907,0.57485366,0.40149605,-1.1252748,-10.500969,1.4700398
0.84534824,2.7096534,0.031204877,0.55461365,0.44304135,-1.2258313,-10.342952,1.3455414
0.8446883,2.709573,0.031204877,0.55461365,0.44304135,-1.2258313,-10.342952,1.3455414
0.84403765,2.709476,0.067423865,0.5269168,0.48245615,-1.2641385,-10.213664,1.283292
0.84338665,2.7093794,0.067423865,0.5269168,0.48245615,-1.2641385,-10.213664,1.283292
0.8427489,2.7092643,0.10151233,0.49495885,0.52080566,-1.3263878,-10.060435,1.1444284
0.84211135,2.7091498,0.10151233,0.49495885,0.52080566,-1.3263878,-10.060435,1.1444284
0.841492,2.7090132,0.13027447,0.45980513,0.55489415,-1.2545617,-9.9790325,1.1444284
0.8408746,2.7088776,0.13027447,0.45980513,0.55489415,-1.2545617,-9.9790325,1.1444284
0.8402754,2.7087164,0.15371029,0.42252088,0.5857868,-1.1923125,-9.92636,1.115698
0.8396719,2.708555,0.15371029,0.42252088,0.5857868,-1.1923125,-9.92636,1.115698
0.8390932,2.7083683,0.17395031,0.38417134,0.6145489,-1.0390835,-9.878476,1.0486604
0.83851504,2.708182,0.17395031,0.38417134,0.6145489,-1.0390835,-9.878476,1.0486604
0.8379592,2.7079694,0.19205981,0.34688708,0.6411806,-0.90979666,-9.734824,1.1348516
0.83740366,2.7077575,0.19205981,0.34688708,0.6411806,-0.90979666,-9.734824,1.1348516
0.83687294,2.707522,0.20697351,0.30853757,0.66248584,-0.7326257,-9.701305,1.0869676
0.8363414,2.7072868,0.20697351,0.30853757,0.66248584,-0.7326257,-9.701305,1.0869676
0.83582103,2.707024,0.2197567,0.27338386,0.68059534,-0.5602432,-9.710882,1.0869676
0.8352213,2.706722,0.2197567,0.27338386,0.68059534,-0.5602432,-9.710882,1.0869676
0.83482856,2.7064989,0.23040932,0.24036065,0.695509,-0.46447513,-9.653421,1.1109096
0.8343496,2.7062275,0.23040932,0.24036065,0.695509,-0.46447513,-9.653421,1.1109096
0.833865,2.705954,0.23040932,0.24036065,0.695509,-0.46447513,-9.653421,1.1109096
0.83340144,2.705669,0.24212724,0.21053325,0.7061617,-0.3878607,-9.629479,0.9911995
0.8329376,2.7053843,0.24212724,0.21053325,0.7061617,-0.3878607,-9.629479,0.9911995
0.8324973,2.705086,0.25064936,0.17964058,0.7146838,-0.31124622,-9.562442,0.93852705
0.83205724,2.7047887,0.25064936,0.17964058,0.7146838,-0.31124622,-9.562442,0.93852705
0.83163965,2.7044816,0.26023674,0.15087843,0.7210754,-0.18674773,-9.457097,0.93373865
0.8312218,2.704175,0.26023674,0.15087843,0.7210754,-0.18674773,-9.457097,0.93373865
0.8308262,2.7038624,0.26769358,0.12424682,0.7242712,-0.1388637,-9.332599,0.79008657
0.8304303,2.7035503,0.26769358,0.12424682,0.7242712,-0.1388637,-9.332599,0.79008657
0.830054,2.703228,0.27088937,0.100811005,0.727467,-0.05267244,-9.26556,0.7757214
