Pitch,Roll,Gyro_X,Gyro_Y,Gyro_Z,Accel_X,Accel_Y,Accel_Z
6.1408877,4.641026,0.00988902,-0.03455441,0.018309724,1.910573,-9.41879,-0.9959879
6.1407,4.6409087,0.0077584907,-0.020705972,0.015113931,1.8243817,-9.490616,-0.93852705
6.1406045,4.6408467,0.003497433,-0.007922798,0.014048667,1.7764976,-9.500193,-0.91458505
6.140509,4.640785,0.003497433,-0.007922798,0.014048667,1.7764976,-9.500193,-0.91458505
6.1404185,4.6407127,-0.0018288894,0.0016645822,0.010852873,1.7381904,-9.519346,-0.93373865
6.140328,4.6406403,-0.0018288894,0.0016645822,0.010852873,1.7381904,-9.519346,-0.93373865
6.1402307,4.6405663,-0.0050246827,0.010186698,0.005526551,1.685518,-9.509769,-0.89543146
6.140134,4.640492,-0.0050246827,0.010186698,0.005526551,1.685518,-9.509769,-0.89543146
6.1400256,4.640421,-0.009285741,0.017643549,0.0023307577,1.6711528,-9.490616,-0.8571242
6.139918,4.64035,-0.009285741,0.017643549,0.0023307577,1.6711528,-9.490616,-0.8571242
6.1398363,4.640255,-0.014612063,0.022969872,0.00020022877,1.5610195,-9.428367,-0.8810662
6.139755,4.64016,-0.014612063,0.022969872,0.00020022877,1.5610195,-9.428367,-0.8810662
6.1396856,4.6400537,-0.019938385,0.026165664,-0.0029955646,1.5275006,-9.452309,-0.90021986
6.139617,4.639948,-0.019938385,0.026165664,-0.0029955646,1.5275006,-9.452309,-0.90021986
6.1395707,4.639832,-0.022068914,0.02723093,-0.006191358,1.460463,-9.442732,-0.90979666
6.1395245,4.6397166,-0.022068914,0.02723093,-0.006191358,1.460463,-9.442732,-0.90979666
6.139512,4.6395946,-0.025264706,0.028296193,-0.0072566224,1.3742718,-9.433155,-0.8331822
6.1394997,4.639473,-0.025264706,0.028296193,-0.0072566224,1.3742718,-9.433155,-0.8331822
6.139527,4.6393523,-0.0284605,0.028296193,-0.010452416,1.340753,-9.476251,-0.7757214
6.139554,4.6392317,-0.0284605,0.028296193,-0.010452416,1.340753,-9.476251,-0.7757214
6.139618,4.639123,-0.029525764,0.026165664,-0.01151768,1.3120226,-9.457097,-0.7565677
6.1396823,4.6390133,-0.029525764,0.026165664,-0.01151768,1.3120226,-9.457097,-0.7565677
6.139788,4.6389337,-0.0284605,0.022969872,-0.009387151,1.3072342,-9.586384,-0.7422025
6.1398945,4.6388545,-0.0284605,0.022969872,-0.009387151,1.3072342,-9.586384,-0.7422025
6.140004,4.638776,-0.027395237,0.017643549,-0.0072566224,1.3120226,-9.605537,-0.7422025
6.1401143,4.638698,-0.027395237,0.017643549,-0.0072566224,1.3120226,-9.605537,-0.7422025
6.140245,4.6386924,-0.026329972,0.011251962,-0.006191358,1.3359646,-9.639056,-0.7038953
6.140375,4.638687,-0.026329972,0.011251962,-0.006191358,1.3359646,-9.639056,-0.7038953
6.140493,4.638713,-0.024199443,0.0027298466,-0.004060829,1.3072342,-9.68694,-0.6799533
6.140611,4.6387386,-0.024199443,0.0027298466,-0.004060829,1.3072342,-9.68694,-0.6799533
6.140692,4.6386337,-0.021003649,-0.0068575335,-0.0008650357,1.364695,-9.720459,-0.7517793
6.140692,4.6386337,-0.021003649,-0.0068575335,-0.0008650357,1.364695,-9.720459,-0.7517793
6.1408052,4.6384134,-0.01674259,-0.014314385,0.0012654932,1.388637,-9.710882,-0.7469909
6.1408334,4.6382985,-0.01674259,-0.014314385,0.0012654932,1.388637,-9.710882,-0.7469909
6.140806,4.6381855,-0.012481534,-0.021771235,0.0023307577,1.4221559,-9.696517,-0.80445176
6.1407785,4.6380725,-0.012481534,-0.021771235,0.0023307577,1.4221559,-9.696517,-0.80445176
6.140764,4.6379595,-0.009285741,-0.029228088,0.0033960221,1.4221559,-9.744401,-0.82360536
6.1407495,4.6378465,-0.009285741,-0.029228088,0.0033960221,1.4221559,-9.744401,-0.82360536
6.1407266,4.6377363,-0.006089947,-0.03455441,0.0023307577,1.4413095,-9.753978,-0.8571242
6.140703,4.637627,-0.006089947,-0.03455441,0.0023307577,1.4413095,-9.753978,-0.8571242
6.140663,4.637522,-0.0028941538,-0.03988073,-0.0019303001,1.4796166,-9.816227,-0.8858546
6.1406226,4.637417,-0.0028941538,-0.03988073,-0.0019303001,1.4796166,-9.816227,-0.8858546
6.1405396,4.637328,0.00030163955,-0.045207053,-0.006191358,1.541866,-9.821015,-0.866701
6.1404567,4.6372385,0.00030163955,-0.045207053,-0.006191358,1.541866,-9.821015,-0.866701
6.1403565,4.6371593,0.003497433,-0.04946811,-0.010452416,1.5705963,-9.821015,-0.8619126
6.1402564,4.6370797,0.003497433,-0.04946811,-0.010452416,1.5705963,-9.821015,-0.8619126
6.1401467,4.637004,0.005627962,-0.05372917,-0.015778739,1.5897499,-9.835381,-0.866701
6.1400375,4.6369286,0.005627962,-0.05372917,-0.015778739,1.5897499,-9.835381,-0.866701
6.1399126,4.636862,0.0066932263,-0.05692496,-0.02110506,1.6472107,-9.821015,-0.8762778
6.139788,4.636795,0.0066932263,-0.05692496,-0.02110506,1.6472107,-9.821015,-0.8762778
6.1396656,4.6367245,0.00988902,-0.057990227,-0.027496647,1.6519991,-9.844957,-0.90500826
6.1395435,4.636654,0.00988902,-0.057990227,-0.027496647,1.6519991,-9.844957,-0.90500826
6.139377,4.6366305,0.012019549,-0.059055492,-0.034953497,1.6567876,-9.835381,-0.79008657
6.1392117,4.6366076,0.012019549,-0.059055492,-0.034953497,1.6567876,-9.835381,-0.79008657
6.139066,4.6365495,0.015215342,-0.057990227,-0.04027982,1.7142484,-9.801862,-0.90979666
6.138921,4.636492,0.015215342,-0.057990227,-0.04027982,1.7142484,-9.801862,-0.90979666
6.1387796,4.6364293,0.017345872,-0.0558597,-0.04454088,1.70946,-9.758766,-0.93852705
6.1386375,4.636367,0.017345872,-0.0558597,-0.04454088,1.70946,-9.758766,-0.93852705
6.1384926,4.6363106,0.020541664,-0.052663904,-0.046671405,1.6424223,-9.725247,-0.8858546
6.1383467,4.636254,0.020541664,-0.052663904,-0.046671405,1.6424223,-9.725247,-0.8858546
6.138186,4.6362085,0.02160693,-0.048402846,-0.0498672,1.6711528,-9.691729,-0.866701
6.1380258,4.6361637,0.02160693,-0.048402846,-0.0498672,1.6711528,-9.691729,-0.866701
6.1378503,4.6361375,0.023737457,-0.044141788,-0.050932467,1.6903064,-9.65821,-0.8283938
6.137676,4.636111,0.023737457,-0.044141788,-0.050932467,1.6903064,-9.65821,-0.8283938
6.137522,4.6360645,0.025867987,-0.03881547,-0.0498672,1.6328455,-9.629479,-0.866701
6.1373677,4.636018,0.025867987,-0.03881547,-0.0498672,1.6328455,-9.629479,-0.866701
6.137184,4.6360426,0.026933251,-0.03242388,-0.046671405,1.6041151,-9.629479,-0.7326257
6.137001,4.6360674,0.026933251,-0.03242388,-0.046671405,1.6041151,-9.629479,-0.7326257
6.13683,4.6360507,0.031194309,-0.028162822,-0.043475613,1.5849615,-9.615114,-0.79008657
6.136664,4.636034,0.031194309,-0.028162822,-0.043475613,1.5849615,-9.615114,-0.79008657
6.1364923,4.636094,0.03545537,-0.021771235,-0.039214555,1.5705963,-9.514558,-0.6943185
6.136321,4.636154,0.03545537,-0.021771235,-0.039214555,1.5705963,-9.514558,-0.6943185
6.1361523,4.6362042,0.03652063,-0.016444914,-0.03282297,1.4796166,-9.509769,-0.7182605
6.1359825,4.636254,0.03652063,-0.016444914,-0.03282297,1.4796166,-9.509769,-0.7182605
6.1358175,4.636298,0.03865116,-0.014314385,-0.026431382,1.5035586,-9.428367,-0.7134721
6.135653,4.636342,0.03865116,-0.014314385,-0.026431382,1.5035586,-9.428367,-0.7134721
6.1355224,4.63644,0.041846953,-0.010053327,-0.017909266,1.460463,-9.390059,-0.6847417
6.135392,4.6365376,0.041846953,-0.010053327,-0.017909266,1.460463,-9.390059,-0.6847417
6.1352544,4.6366158,0.043977484,-0.0068575335,-0.0072566224,1.4317327,-9.332599,-0.6991069
6.135116,4.6366925,0.043977484,-0.0068575335,-0.0072566224,1.4317327,-9.332599,-0.6991069
6.135038,4.6366553,0.045042746,-0.005792269,0.0033960221,1.4221559,-9.337387,-0.7326257
6.13496,4.636617,0.045042746,-0.005792269,0.0033960221,1.4221559,-9.337387,-0.7326257
6.1349816,4.6367626,0.04610801,-0.0047270046,0.015113931,1.388637,-9.284714,-0.6799533
6.1350026,4.6369085,0.04610801,-0.0047270046,0.015113931,1.388637,-9.284714,-0.6799533
6.1350584,4.637051,0.045042746,-0.0025964756,0.024701312,1.3790601,-9.270349,-0.6751649
6.135114,4.637194,0.045042746,-0.0025964756,0.024701312,1.3790601,-9.270349,-0.6751649
6.135161,4.6373386,0.045042746,-0.0015312112,0.035353955,1.3838485,-9.275137,-0.6703765
6.1352067,4.637484,0.045042746,-0.0015312112,0.035353955,1.3838485,-9.275137,-0.6703765
6.13525,4.6374283,0.043977484,-0.0015312112,0.04813713,1.388637,-9.275137,-0.7326257
6.1352925,4.637372,0.043977484,-0.0015312112,0.04813713,1.388637,-9.275137,-0.7326257
6.135248,4.637347,0.041846953,-0.0025964756,0.0609203,1.436521,-9.313444,-0.7278373
6.135204,4.637323,0.041846953,-0.0025964756,0.0609203,1.436521,-9.313444,-0.7278373
6.135175,4.6374326,0.039716423,-0.0047270046,0.07050768,1.436521,-9.370906,-0.6799533
6.1351447,4.637541,0.039716423,-0.0047270046,0.07050768,1.436521,-9.370906,-0.6799533
6.135187,4.6374807,0.037585896,-0.0068575335,0.07796454,1.4317327,-9.404425,-0.770933
6.135229,4.637421,0.037585896,-0.0068575335,0.07796454,1.4317327,-9.404425,-0.770933
6.1352363,4.637372,0.03545537,-0.007922798,0.08435612,1.4891934,-9.399636,-0.79487497
6.135243,4.6373224,0.03545537,-0.007922798,0.08435612,1.4891934,-9.399636,-0.79487497
6.135243,4.6373224,0.032259572,-0.008988062,0.09074771,1.4891934,-9.428367,-0.8283938
6.1353064,4.637204,0.032259572,-0.008988062,0.09074771,1.4891934,-9.428367,-0.8283938
6.1353736,4.637133,0.027998514,-0.012183856,0.09500877,1.460463,-9.466674,-0.866701
6.1354403,4.6370616,0.027998514,-0.012183856,0.09500877,1.460463,-9.466674,-0.866701
6.1354866,4.63699,0.023737457,-0.01324912,0.09607403,1.5035586,-9.442732,-0.8810662
6.1355324,4.636919,0.023737457,-0.01324912,0.09607403,1.5035586,-9.442732,-0.8810662
6.135603,4.636839,0.020541664,-0.014314385,0.09607403,1.4652514,-9.509769,-0.8858546
6.135673,4.6367598,0.020541664,-0.014314385,0.09607403,1.4652514,-9.509769,-0.8858546
6.13573,4.6366787,0.017345872,-0.017510178,0.09500877,1.4987702,-9.481039,-0.91937345
6.1357856,4.6365976,0.017345872,-0.017510178,0.09500877,1.4987702,-9.481039,-0.91937345
6.1358724,4.636509,0.0141500775,-0.020705972,0.0939435,1.4317327,-9.490616,-0.90979666
6.1359587,4.6364202,0.0141500775,-0.020705972,0.0939435,1.4317327,-9.490616,-0.90979666
6.1359587,4.6364202,0.0141500775,-0.020705972,0.0939435,1.4317327,-9.490616,-0.90979666
6.13615,4.6362343,0.010954284,-0.02496703,0.09500877,1.412579,-9.471462,-0.8810662
6.1362357,4.6361403,0.008823755,-0.029228088,0.09607403,1.4317327,-9.490616,-0.89543146
6.136323,4.636044,0.008823755,-0.029228088,0.09607403,1.4317327,-9.490616,-0.89543146
6.136323,4.636044,0.008823755,-0.029228088,0.09607403,1.4317327,-9.490616,-0.89543146
6.136415,4.6359425,0.0077584907,-0.03455441,0.09926982,1.436521,-9.514558,-0.8858546
6.1365414,4.635764,0.0077584907,-0.037750203,0.10140035,1.4556746,-9.504981,-0.79487497
6.1365414,4.635764,0.0077584907,-0.037750203,0.10140035,1.4556746,-9.504981,-0.79487497
6.136589,4.635609,0.008823755,-0.03988073,0.10140035,1.4508862,-9.481039,-0.7565677
6.136589,4.635609,0.008823755,-0.03988073,0.10140035,1.4508862,-9.481039,-0.7565677
6.136582,4.6355057,0.008823755,-0.03988073,0.10140035,1.4508862,-9.481039,-0.7565677
6.136725,4.635393,0.00988902,-0.03988073,0.103530884,1.4030021,-9.481039,-0.7374141
6.136887,4.63549,0.00988902,-0.037750203,0.104596145,1.4077905,-9.524135,-0.7326257
6.136975,4.6355953,0.00988902,-0.037750203,0.104596145,1.4077905,-9.524135,-0.7326257
6.137158,4.6356845,0.008823755,-0.033489145,0.104596145,1.3551182,-9.557653,-0.6751649
6.13734,4.635774,0.008823755,-0.033489145,0.104596145,1.3551182,-9.557653,-0.6751649
6.137511,4.635866,0.0066932263,-0.028162822,0.102465615,1.3455414,-9.619903,-0.6464345
6.13768,4.635958,0.0066932263,-0.028162822,0.102465615,1.3455414,-9.619903,-0.6464345
6.137863,4.6360416,0.0024321685,-0.023901764,0.10140035,1.2976574,-9.629479,-0.61770403
6.137863,4.6360416,0.0024321685,-0.023901764,0.10140035,1.2976574,-9.629479,-0.61770403
6.1382666,4.63619,-0.0007636249,-0.021771235,0.102465615,1.2545617,-9.639056,-0.6607997
6.1384826,4.6362433,-0.0007636249,-0.021771235,0.102465615,1.2545617,-9.639056,-0.6607997
6.1387076,4.6362925,-0.0028941538,-0.0228365,0.10033509,1.2162545,-9.667787,-0.6512229
6.138924,4.63634,-0.0028941538,-0.0228365,0.10033509,1.2162545,-9.667787,-0.6512229
6.1391597,4.6363487,-0.0039594183,-0.02496703,0.09607403,1.2354081,-9.667787,-0.7182605
6.1393948,4.6363573,-0.0039594183,-0.02496703,0.09607403,1.2354081,-9.667787,-0.7182605
6.139624,4.636325,-0.0028941538,-0.027097559,0.09181297,1.2162545,-9.605537,-0.7661445
6.1398525,4.6362925,-0.0028941538,-0.027097559,0.09181297,1.2162545,-9.605537,-0.7661445
6.1400647,4.6362367,-0.0018288894,-0.031358615,0.088617176,1.1587936,-9.615114,-0.8283938
6.1402764,4.636181,-0.0018288894,-0.031358615,0.088617176,1.1587936,-9.615114,-0.8283938
6.1404824,4.636121,-0.0007636249,-0.036684938,0.08648665,1.1492168,-9.595961,-0.842759
6.140689,4.6360598,-0.0007636249,-0.036684938,0.08648665,1.1492168,-9.595961,-0.842759
6.140887,4.635991,0.00030163955,-0.045207053,0.08648665,1.1444284,-9.562442,-0.866701
6.1410832,4.635922,0.00030163955,-0.045207053,0.08648665,1.1444284,-9.562442,-0.866701
6.14125,4.6358333,0.001366904,-0.054794434,0.08435612,1.2018893,-9.552865,-0.90979666
6.141417,4.635744,0.001366904,-0.054794434,0.08435612,1.2018893,-9.552865,-0.90979666
6.141577,4.635651,0.0024321685,-0.06757761,0.08435612,1.2545617,-9.586384,-0.8810662
6.1417356,4.6355577,0.0024321685,-0.06757761,0.08435612,1.2545617,-9.586384,-0.8810662
6.141856,4.635453,0.003497433,-0.08036078,0.08542138,1.3359646,-9.581595,-0.8475474
6.141977,4.635348,0.003497433,-0.08036078,0.08542138,1.3359646,-9.581595,-0.8475474
6.142071,4.635239,0.0045626974,-0.093143955,0.087551914,1.3694834,-9.591172,-0.91458505
6.142165,4.635131,0.0045626974,-0.093143955,0.087551914,1.3694834,-9.591172,-0.91458505
6.1422186,4.635029,0.0077584907,-0.106992394,0.088617176,1.460463,-9.68694,-0.92416185
6.1422715,4.634926,0.0077584907,-0.106992394,0.088617176,1.460463,-9.68694,-0.92416185
6.1422834,4.634841,0.010954284,-0.11657977,0.088617176,1.5466543,-9.710882,-0.90500826
6.1422954,4.634756,0.010954284,-0.11657977,0.088617176,1.5466543,-9.710882,-0.90500826
6.142299,4.63468,0.016280606,-0.12616715,0.088617176,1.6041151,-9.749189,-0.92895025
6.1423035,4.634604,0.016280606,-0.12616715,0.088617176,1.6041151,-9.749189,-0.92895025
6.142311,4.6345286,0.02160693,-0.133624,0.08648665,1.6663644,-9.787497,-1.0007763
6.1423187,4.634453,0.02160693,-0.133624,0.08648665,1.6663644,-9.787497,-1.0007763
6.142312,4.6343913,0.026933251,-0.13788506,0.08542138,1.7621324,-9.80665,-1.0103531
6.1423054,4.63433,0.026933251,-0.13788506,0.08542138,1.7621324,-9.80665,-1.0103531
6.142281,4.6342883,0.032259572,-0.14108086,0.08435612,1.8387469,-9.821015,-0.9672575
6.1422567,4.634246,0.032259572,-0.14108086,0.08435612,1.8387469,-9.821015,-0.9672575
6.142236,4.634204,0.037585896,-0.14321138,0.08222559,1.934515,-9.844957,-1.0486604
6.1422153,4.6341615,0.037585896,-0.14321138,0.08222559,1.934515,-9.844957,-1.0486604
6.1421795,4.634144,0.04610801,-0.14321138,0.08116033,2.0015526,-9.883265,-0.9768343
6.142144,4.634126,0.04610801,-0.14321138,0.08116033,2.0015526,-9.883265,-0.9768343
6.1421084,4.6341133,0.05356486,-0.14214613,0.08009506,1.9728222,-9.89763,-0.9816227
6.1420746,4.6341014,0.05356486,-0.14214613,0.08009506,1.9728222,-9.89763,-0.9816227
6.1420345,4.6341004,0.062086977,-0.13788506,0.07689927,2.0494366,-9.830592,-0.9911995
6.141995,4.6340995,0.062086977,-0.13788506,0.07689927,2.0494366,-9.830592,-0.9911995
6.141962,4.6340923,0.07060909,-0.13149348,0.07263821,2.111686,-9.840169,-1.1348516
6.1419296,4.6340847,0.07060909,-0.13149348,0.07263821,2.111686,-9.840169,-1.1348516
6.141922,4.6340675,0.07700068,-0.124036625,0.07476874,1.6759412,-9.892841,-0.9911995
6.141914,4.6340513,0.07700068,-0.124036625,0.07476874,1.6759412,-9.892841,-0.9911995
6.1419315,4.634037,0.08552279,-0.110188186,0.08435612,1.4987702,-9.974244,-0.866701
6.1419487,4.634022,0.08552279,-0.110188186,0.08435612,1.4987702,-9.974244,-0.866701
6.141928,4.634142,0.0972407,-0.09420922,0.102465615,1.5658079,-10.0748005,-0.7565677
6.1419077,4.634257,0.0972407,-0.09420922,0.102465615,1.5658079,-10.0748005,-0.7565677
6.1419015,4.634391,0.11321967,-0.079295516,0.120575115,1.7717092,-9.998186,-0.7038953
6.1418953,4.6345305,0.11321967,-0.079295516,0.120575115,1.7717092,-9.998186,-0.7038953
6.1419053,4.634682,0.13132916,-0.06544708,0.1386846,1.8914193,-9.945514,-0.6799533
6.141915,4.634832,0.13132916,-0.06544708,0.1386846,1.8914193,-9.945514,-0.6799533
6.1419373,4.6349936,0.14943866,-0.051598642,0.15572885,1.8339585,-9.945514,-0.7182605
6.141959,4.635156,0.14943866,-0.051598642,0.15572885,1.8339585,-9.945514,-0.7182605
6.142,4.6353455,0.1664829,-0.03881547,0.17277306,1.7238252,-9.888053,-0.7038953
6.142041,4.6355343,0.1664829,-0.03881547,0.17277306,1.7238252,-9.888053,-0.7038953
6.1421146,4.635763,0.1813966,-0.026032293,0.1930131,1.6328455,-9.873688,-0.6703765
6.1421876,4.635991,0.1813966,-0.026032293,0.1930131,1.6328455,-9.873688,-0.6703765
6.1422977,4.6362514,0.1963103,-0.011118591,0.21644892,1.5801731,-9.816227,-0.641646
6.1424074,4.6365123,0.1963103,-0.011118591,0.21644892,1.5801731,-9.816227,-0.641646
6.1425447,4.636794,0.21015874,0.0027298466,0.2377542,1.6376339,-9.782708,-0.5746084
6.1426806,4.6370745,0.21015874,0.0027298466,0.2377542,1.6376339,-9.782708,-0.5746084
6.142811,4.6373367,0.22081138,0.01551302,0.26119003,1.6567876,-9.624691,-0.6464345
6.1429396,4.6375976,0.22081138,0.01551302,0.26119003,1.6567876,-9.624691,-0.6464345
6.143084,4.637865,0.22933349,0.028296193,0.27929953,1.6759412,-9.581595,-0.641646
6.1432285,4.638133,0.22933349,0.028296193,0.27929953,1.6759412,-9.581595,-0.641646
6.143406,4.6384335,0.23785561,0.04107937,0.297409,1.6041151,-9.562442,-0.59376204
6.1435823,4.638734,0.23785561,0.04107937,0.297409,1.6041151,-9.562442,-0.59376204
6.1437855,4.6390457,0.2410514,0.053862542,0.31764904,1.5610195,-9.471462,-0.5746084
6.1439877,4.639358,0.2410514,0.053862542,0.31764904,1.5610195,-9.471462,-0.5746084
6.1442184,4.6396847,0.24531247,0.06558045,0.3368238,1.460463,-9.433155,-0.59855044
6.144447,4.6400094,0.24531247,0.06558045,0.3368238,1.460463,-9.433155,-0.59855044
6.14474,4.6403637,0.24957353,0.073037304,0.3549333,1.4030021,-9.423578,-0.545878
6.145031,4.6407175,0.24957353,0.073037304,0.3549333,1.4030021,-9.423578,-0.545878
6.1453753,4.6410837,0.25489986,0.07729836,0.37730384,1.3503298,-9.457097,-0.5506664
6.1457195,4.641452,0.25489986,0.07729836,0.37730384,1.3503298,-9.457097,-0.5506664
6.1461096,4.6418266,0.26129144,0.08049415,0.40393546,1.3215994,-9.457097,-0.46926352
6.1465,4.6422024,0.26129144,0.08049415,0.40393546,1.3215994,-9.457097,-0.46926352
6.146935,4.642584,0.26661775,0.08049415,0.4295018,1.2785037,-9.457097,-0.47405192
6.147368,4.6429644,0.26661775,0.08049415,0.4295018,1.2785037,-9.457097,-0.47405192
6.1478586,4.64335,0.27513987,0.07942889,0.45719868,1.1875241,-9.461885,-0.40701428
6.148348,4.643736,0.27513987,0.07942889,0.45719868,1.1875241,-9.461885,-0.40701428
6.148873,4.6441298,0.2857925,0.0762331,0.48809135,1.1731589,-9.461885,-0.4213795
6.1494,4.6445255,0.2857925,0.0762331,0.48809135,1.1731589,-9.461885,-0.4213795
6.1499577,4.644934,0.2985757,0.07090677,0.52217984,1.163582,-9.433155,-0.39743748
6.150513,4.645342,0.2985757,0.07090677,0.52217984,1.163582,-9.433155,-0.39743748
6.1510963,4.6457615,0.31135887,0.062384658,0.5573335,1.1540052,-9.399636,-0.33997664
6.1510963,4.6457615,0.31135887,0.062384658,0.5573335,1.1540052,-9.399636,-0.33997664
6.152291,4.646616,0.3252073,0.053862542,0.59568304,1.1875241,-9.346964,-0.4261679
6.152906,4.6470532,0.3252073,0.053862542,0.59568304,1.1875241,-9.346964,-0.4261679
6.153532,4.6475,0.33799046,0.04427516,0.6308368,1.2210429,-9.356541,-0.33997664
6.154157,4.647947,0.33799046,0.04427516,0.6308368,1.2210429,-9.356541,-0.33997664
6.154783,4.648403,0.35077363,0.033622514,0.66599053,1.2785037,-9.23683,-0.39264908
6.1554093,4.648862,0.35077363,0.033622514,0.66599053,1.2785037,-9.23683,-0.39264908
6.156043,4.6493244,0.3614263,0.021904606,0.70220953,1.3072342,-9.23683,-0.47884035
6.1566367,4.6497583,0.3614263,0.021904606,0.70220953,1.3072342,-9.23683,-0.47884035
6.157283,4.650215,0.37207893,0.012317227,0.73416746,1.4030021,-9.150639,-0.35434186
6.1579266,4.65067,0.37207893,0.012317227,0.73416746,1.4030021,-9.150639,-0.35434186
6.1585717,4.651106,0.3795358,0.0016645822,0.7650601,1.4317327,-9.074024,-0.44532153
6.159218,4.651542,0.3795358,0.0016645822,0.7650601,1.4317327,-9.074024,-0.44532153
6.159218,4.651542,0.3795358,0.0016645822,0.7650601,1.4317327,-9.074024,-0.44532153
6.160552,4.652399,0.3848621,-0.007922798,0.79488754,1.4221559,-9.006987,-0.45968673
6.1612372,4.6528172,0.39018843,-0.016444914,0.8247149,1.4221559,-9.002198,-0.47884035
6.161922,4.6532335,0.39018843,-0.016444914,0.8247149,1.4221559,-9.002198,-0.47884035
6.162647,4.65367,0.39338422,-0.023901764,0.8524118,1.3838485,-8.944737,-0.4405331
6.163368,4.6541023,0.39338422,-0.023901764,0.8524118,1.3838485,-8.944737,-0.4405331
6.164141,4.654561,0.39551476,-0.030293351,0.8811739,1.2976574,-8.944737,-0.40701428
6.1649084,4.6550155,0.39551476,-0.030293351,0.8811739,1.2976574,-8.944737,-0.40701428
6.1657386,4.655493,0.39551476,-0.03455441,0.9110013,1.316811,-8.896853,-0.2633622
6.166563,4.655967,0.39551476,-0.03455441,0.9110013,1.316811,-8.896853,-0.2633622
6.1674647,4.6564574,0.3944495,-0.03881547,0.94402456,1.2258313,-8.887277,-0.1340753
6.1683574,4.6569433,0.3944495,-0.03881547,0.94402456,1.2258313,-8.887277,-0.1340753
6.169304,4.6574364,0.39551476,-0.04201126,0.9813088,1.1683705,-8.810662,-0.11971009
6.1702447,4.6579275,0.39551476,-0.04201126,0.9813088,1.1683705,-8.810662,-0.11971009
6.1712475,4.6584215,0.39551476,-0.04201126,1.0196583,1.091756,-8.801085,0.02873042
6.172245,4.658914,0.39551476,-0.04201126,1.0196583,1.091756,-8.801085,0.02873042
6.1733017,4.6594105,0.3944495,-0.03988073,1.0569426,0.9959879,-8.7771435,0.02873042
6.1743526,4.659904,0.3944495,-0.03988073,1.0569426,0.9959879,-8.7771435,0.02873042
6.1754494,4.660402,0.39658,-0.035619672,1.0920963,0.94331545,-8.743625,0.095768064
6.1765394,4.6608977,0.39658,-0.035619672,1.0920963,0.94331545,-8.743625,0.095768064
6.177685,4.661399,0.3997758,-0.03242388,1.1325763,0.8714894,-8.714894,0.1340753
6.1788244,4.6618986,0.3997758,-0.03242388,1.1325763,0.8714894,-8.714894,0.1340753
6.1800094,4.6624055,0.4061674,-0.028162822,1.1741216,0.842759,-8.686164,0.16280572
6.181191,4.662912,0.4061674,-0.028162822,1.1741216,0.842759,-8.686164,0.16280572
6.1824465,4.663424,0.41362426,-0.026032293,1.2124711,0.63206923,-8.796297,0.18674773
6.183695,4.6639338,0.41362426,-0.026032293,1.2124711,0.63206923,-8.796297,0.18674773
6.18502,4.664442,0.42001584,-0.028162822,1.2550818,0.45968673,-8.882488,0.090979666
6.186307,4.6649365,0.42001584,-0.028162822,1.2550818,0.45968673,-8.882488,0.090979666
6.186307,4.6649365,0.42001584,-0.028162822,1.2550818,0.45968673,-8.882488,0.090979666
6.18918,4.665971,0.43066847,-0.03242388,1.3051492,0.22026655,-8.992621,0.05267244
6.18918,4.665971,0.44451693,-0.04201126,1.3637388,-0.023942016,-9.26556,0.095768064
6.190699,4.666497,0.44451693,-0.04201126,1.3637388,-0.023942016,-9.26556,0.095768064
6.192258,4.667037,0.44451693,-0.04201126,1.3637388,-0.023942016,-9.26556,0.095768064
6.192258,4.667037,0.44451693,-0.04201126,1.3637388,-0.023942016,-9.26556,0.095768064
6.1969123,4.6685724,0.47647485,-0.07609972,1.5245937,-0.25857377,-9.629479,0.23463176
6.1974716,4.668757,0.47647485,-0.07609972,1.5245937,-0.25857377,-9.629479,0.23463176
6.19872,4.6691694,0.47647485,-0.07609972,1.5245937,-0.272939,-9.80665,0.31603462
6.202032,4.6702456,0.4967149,-0.09633975,1.6257938,-0.272939,-9.80665,0.31603462
6.2038536,4.6708403,0.521216,-0.11338398,1.7365813,-0.24899697,-9.907207,0.5602432
6.205676,4.6714354,0.521216,-0.11338398,1.7365813,-0.24899697,-9.907207,0.5602432
6.207609,4.67206,0.5499781,-0.1251019,1.8580215,-0.22505496,-10.01734,0.6464345
6.207609,4.67206,0.5499781,-0.1251019,1.8580215,-0.22505496,-10.01734,0.6464345
6.2115555,4.67334,0.58726233,-0.13149348,1.9837227,-0.18195933,-10.146626,0.842759
6.2135944,4.6740046,0.58726233,-0.13149348,1.9837227,-0.18195933,-10.146626,0.842759
6.215777,4.674718,0.6309382,-0.13042821,2.1147501,-0.22984336,-10.247183,0.8810662
6.217959,4.675431,0.6309382,-0.13042821,2.1147501,-0.22984336,-10.247183,0.8810662
6.2202687,4.6761956,0.68313617,-0.1251019,2.2532346,-0.25857377,-10.342952,0.9864111
6.222583,4.6769624,0.68313617,-0.1251019,2.2532346,-0.25857377,-10.342952,0.9864111
6.225033,4.6777816,0.73746467,-0.1187103,2.3938494,-0.38307226,-10.395624,1.1013328
6.22748,4.6786003,0.73746467,-0.1187103,2.3938494,-0.38307226,-10.395624,1.1013328
6.2300806,4.679479,0.79498893,-0.110188186,2.5387254,-0.4357447,-10.520123,1.1013328
6.2326803,4.6803584,0.79498893,-0.110188186,2.5387254,-0.4357447,-10.520123,1.1013328
6.2354326,4.681296,0.85464376,-0.10273133,2.6878624,-0.59855044,-10.668563,1.1779473
6.238181,4.682233,0.85464376,-0.10273133,2.6878624,-0.59855044,-10.668563,1.1779473
6.2410975,4.683228,0.9132333,-0.10060081,2.8433912,-0.7757214,-10.788273,1.1827357
6.244007,4.6842213,0.9132333,-0.10060081,2.8433912,-0.7757214,-10.788273,1.1827357
6.247091,4.6852784,0.9750186,-0.10166607,3.0063765,-0.93373865,-10.912771,1.2641385
6.250165,4.6863327,0.9750186,-0.10166607,3.0063765,-0.93373865,-10.912771,1.2641385
6.253414,4.687451,1.041065,-0.1037966,3.177884,-1.1109096,-10.94629,1.316811
6.2566657,4.688571,1.041065,-0.1037966,3.177884,-1.1109096,-10.94629,1.316811
6.2601023,4.689759,1.1124377,-0.106992394,3.3557832,-1.2258313,-10.989386,1.1923125
6.263535,4.690946,1.1124377,-0.106992394,3.3557832,-1.2258313,-10.989386,1.1923125
6.2671647,4.69221,1.1912673,-0.106992394,3.5432699,-1.3599066,-11.022904,1.1204864
6.270794,4.6934743,1.1912673,-0.106992394,3.5432699,-1.3599066,-11.022904,1.1204864
6.274624,4.6948175,1.2743579,-0.10486186,3.737148,-1.5035586,-11.03727,1.0342951
6.2784534,4.6961617,1.2743579,-0.10486186,3.737148,-1.5035586,-11.03727,1.0342951
6.2824836,4.6975875,1.3595791,-0.10273133,3.9320912,-1.6328455,-11.113884,0.9720459
0.0033272898,4.699013,1.3595791,-0.10273133,3.9320912,-1.6328455,-11.113884,0.9720459
0.0075642476,4.7005267,1.4469308,-0.09847028,4.132361,-1.7142484,-11.243171,0.93373865
0.011796436,4.702039,1.4469308,-0.09847028,4.132361,-1.7142484,-11.243171,0.93373865
0.016231284,4.7036405,1.5342824,-0.09740501,4.3368917,-1.6184803,-11.3964,0.90021986
0.02066527,4.705243,1.5342824,-0.09740501,4.3368917,-1.6184803,-11.3964,0.90021986
0.02529042,4.7069397,1.6184384,-0.10060081,4.5414224,-1.292869,-11.463438,0.8858546
0.02991387,4.708637,1.6184384,-0.10060081,4.5414224,-1.292869,-11.463438,0.8858546
0.034723386,4.7104216,1.6972679,-0.106992394,4.7406273,-1.0726024,-11.602302,0.842759
0.039529927,4.7122073,1.6972679,-0.106992394,4.7406273,-1.0726024,-11.602302,0.842759
0.044511076,4.714073,1.7697059,-0.11977556,4.9323745,-0.8858546,-11.789049,0.78050977
0.0494871,4.715942,1.7697059,-0.11977556,4.9323745,-0.8858546,-11.789049,0.78050977
0.054610122,4.7178826,1.834687,-0.13895033,5.1166654,-0.6464345,-11.999739,0.78529817
0.059724655,4.719825,1.834687,-0.13895033,5.1166654,-0.6464345,-11.999739,0.78529817
0.06497899,4.721824,1.8922113,-0.1634514,5.2945647,-0.49320555,-12.20564,0.6607997
0.070221595,4.7238226,1.8922113,-0.1634514,5.2945647,-0.49320555,-12.20564,0.6607997
0.07559788,4.7258625,1.943344,-0.19008303,5.4639416,-0.40222588,-12.310986,0.5602432
0.0809581,4.7278957,1.943344,-0.19008303,5.4639416,-0.40222588,-12.310986,0.5602432
0.08647856,4.729972,1.9880852,-0.21777989,5.6290574,-0.32561144,-12.344504,0.5554548
0.09198647,4.732042,1.9880852,-0.21777989,5.6290574,-0.32561144,-12.344504,0.5554548
0.097634204,4.73413,2.0264347,-0.24547677,5.787782,-0.24420857,-12.282255,0.4165911
0.10327356,4.7362137,2.0264347,-0.24547677,5.787782,-0.24420857,-12.282255,0.4165911
0.10907272,4.738341,2.064784,-0.26997787,5.944376,-0.24899697,-12.243947,0.4261679
0.11487563,4.74047,2.064784,-0.26997787,5.944376,-0.24899697,-12.243947,0.4261679
0.12082718,4.742653,2.099938,-0.2923484,6.0956435,-0.272939,-12.11466,0.56982
0.126776,4.7448363,2.099938,-0.2923484,6.0956435,-0.272939,-12.11466,0.56982
0.13287053,4.7470613,2.1361568,-0.30726212,6.2437153,-0.2873042,-12.0332575,0.58418524
0.13287053,4.7470613,2.1361568,-0.30726212,6.2437153,-0.2873042,-12.0332575,0.58418524
0.14497076,4.7514896,2.1734412,-0.31791475,6.3896565,-0.4213795,-11.971008,0.79487497
0.15140595,4.7538524,2.1734412,-0.31791475,6.3896565,-0.4213795,-11.971008,0.79487497
0.15793967,4.756254,2.213921,-0.3221758,6.536663,-0.6943185,-11.836933,0.866701
0.16425137,4.7585783,2.213921,-0.3221758,6.536663,-0.6943185,-11.836933,0.866701
0.17078273,4.760988,2.2544012,-0.3253716,6.6836696,-0.9672575,-11.808203,0.9816227
0.17734072,4.763413,2.2544012,-0.3253716,6.6836696,-0.9672575,-11.808203,0.9816227
0.17734072,4.763413,2.2544012,-0.3253716,6.6836696,-0.9672575,-11.808203,0.9816227
0.1907653,4.7684,2.293816,-0.3285674,6.8317413,-1.3120226,-11.760319,1.1779473
0.19759487,4.770942,2.334296,-0.33389372,6.98727,-1.6567876,-11.707646,1.3455414
0.20446163,4.7735066,2.334296,-0.33389372,6.98727,-1.6567876,-11.707646,1.3455414
0.21153606,4.7761464,2.3758414,-0.34774217,7.14919,-2.0590134,-11.69807,1.4508862
0.2185903,4.77879,2.3758414,-0.34774217,7.14919,-2.0590134,-11.69807,1.4508862
0.22585684,4.7815003,2.4173868,-0.36798218,7.3164363,-2.5809495,-11.587936,1.3790601
0.2331279,4.7842293,2.4173868,-0.36798218,7.3164363,-2.5809495,-11.587936,1.3790601
0.24063486,4.787001,2.458932,-0.3967443,7.4943357,-3.217807,-11.36767,1.4221559
0.2481392,4.789791,2.458932,-0.3967443,7.4943357,-3.217807,-11.36767,1.4221559
0.25587103,4.792639,2.5058036,-0.43189806,7.685018,-3.8163576,-11.137826,1.5466543
0.26357418,4.795494,2.5058036,-0.43189806,7.685018,-3.8163576,-11.137826,1.5466543
0.27152523,4.798436,2.563328,-0.46811703,7.89381,-4.357447,-10.845734,1.6472107
0.2794562,4.8013897,2.563328,-0.46811703,7.89381,-4.357447,-10.845734,1.6472107
0.28760618,4.80444,2.6304395,-0.50114024,8.118581,-4.8841715,-10.606314,1.8674773
0.2957518,4.8075094,2.6304395,-0.50114024,8.118581,-4.8841715,-10.606314,1.8674773
0.30411947,4.810696,2.709269,-0.52883714,8.352939,-5.329493,-10.500969,2.183512
0.31248218,4.8139043,2.709269,-0.52883714,8.352939,-5.329493,-10.500969,2.183512
0.32108003,4.8172436,2.8008819,-0.55333817,8.599015,-5.770026,-10.515334,2.4708161
0.32967207,4.820608,2.8008819,-0.55333817,8.599015,-5.770026,-10.515334,2.4708161
0.33850127,4.824112,2.9031472,-0.57570875,8.853613,-6.1626754,-10.673351,2.6431987
0.34733298,4.8276467,2.9031472,-0.57570875,8.853613,-6.1626754,-10.673351,2.6431987
0.3564206,4.8313317,3.010739,-0.59701407,9.113538,-6.4499793,-10.874464,2.585738
0.3655015,4.8350472,3.010739,-0.59701407,9.113538,-6.4499793,-10.874464,2.585738
0.3748438,4.8389206,3.1183307,-0.6225804,9.381985,-6.603208,-11.032481,2.504335
0.38417873,4.8428288,3.1183307,-0.6225804,9.381985,-6.603208,-11.032481,2.504335
0.3937779,4.846895,3.220596,-0.65240777,9.653626,-6.679823,-11.152191,2.3654714
0.40336892,4.851001,3.220596,-0.65240777,9.653626,-6.679823,-11.152191,2.3654714
0.4132216,4.855268,3.3196657,-0.68436575,9.924204,-6.631939,-11.195287,2.2026656
0.42306548,4.859578,3.3196657,-0.68436575,9.924204,-6.631939,-11.195287,2.2026656
0.43317604,4.8640404,3.4155395,-0.7163237,10.195847,-6.603208,-11.123461,1.934515
0.4432269,4.8685255,3.4155395,-0.7163237,10.195847,-6.603208,-11.123461,1.934515
0.45357963,4.873184,3.506087,-0.74189,10.461097,-6.646304,-11.070788,1.7908629
0.4639935,4.877924,3.506087,-0.74189,10.461097,-6.646304,-11.070788,1.7908629
0.47455963,4.88277,3.5955691,-0.76106477,10.71463,-6.4260373,-11.046846,1.6472107
0.48505026,4.887635,3.5955691,-0.76106477,10.71463,-6.4260373,-11.046846,1.6472107
0.49579456,4.892684,3.6850514,-0.7706522,10.948988,-6.3446345,-11.080365,1.661576
0.5065259,4.897795,3.6850514,-0.7706522,10.948988,-6.3446345,-11.080365,1.661576
0.51732415,4.9030538,3.772403,-0.76745635,11.15991,-6.114791,-11.295844,1.5514427
0.52806795,4.908378,3.772403,-0.76745635,11.15991,-6.114791,-11.295844,1.5514427
0.5389745,4.913878,3.852298,-0.7482816,11.343136,-6.081272,-11.449073,1.4700398
0.5498562,4.9194603,3.852298,-0.7482816,11.343136,-6.081272,-11.449073,1.4700398
0.56086195,4.925187,3.9226053,-0.7120626,11.491208,-6.081272,-11.760319,1.2401965
0.5719216,4.931044,3.9226053,-0.7120626,11.491208,-6.081272,-11.760319,1.2401965
0.58301234,4.937008,3.9843907,-0.6630604,11.607322,-5.9567738,-12.0332575,1.1444284
0.5940032,4.9430256,3.9843907,-0.6630604,11.607322,-5.9567738,-12.0332575,1.1444284
0.6051903,4.949227,4.030197,-0.6066014,11.688282,-5.9663506,-12.220005,0.9576807
0.6162987,4.9555006,4.030197,-0.6066014,11.688282,-5.9663506,-12.220005,0.9576807
0.62745553,4.961882,4.0610895,-0.5469466,11.731957,-6.0956373,-12.344504,0.8762778
0.63855505,4.968354,4.0610895,-0.5469466,11.731957,-6.0956373,-12.344504,0.8762778
0.64970213,4.974938,4.073873,-0.4904876,11.741545,-5.93762,-12.129025,0.6799533
0.66082394,4.9816394,4.073873,-0.4904876,11.741545,-5.93762,-12.129025,0.6799533
0.67189014,4.9883976,4.0706773,-0.4372244,11.714913,-5.717354,-11.765107,0.47884035
0.68294144,4.9952874,4.0706773,-0.4372244,11.714913,-5.717354,-11.765107,0.47884035
0.6939229,5.002222,4.047241,-0.38715693,11.645671,-5.741296,-11.291056,0.24899697
0.7048771,5.009289,4.047241,-0.38715693,11.645671,-5.741296,-11.291056,0.24899697
0.71572614,5.016375,4.0035653,-0.3434811,11.533818,-5.9184666,-10.673351,-0.08619126
0.72654593,5.0236006,4.0035653,-0.3434811,11.533818,-5.9184666,-10.673351,-0.08619126
0.7372234,5.0308304,3.9385843,-0.31152317,11.387877,-6.066907,-10.01734,-0.32561144
0.7478704,5.038205,3.9385843,-0.31152317,11.387877,-6.066907,-10.01734,-0.32561144
0.7583461,5.0455766,3.8586895,-0.29447892,11.212109,-6.3829417,-9.399636,-0.61770403
0.76878,5.053091,3.8586895,-0.29447892,11.212109,-6.3829417,-9.399636,-0.61770403
0.7790036,5.060596,3.7670767,-0.29767472,11.011839,-6.6606693,-8.719683,-0.9768343
0.78922516,5.06828,3.7670767,-0.29767472,11.011839,-6.6606693,-8.719683,-0.9768343
0.79922783,5.075984,3.6690724,-0.32324108,10.798786,-6.7612257,-8.0445175,-0.94331545
0.80917656,5.0838346,3.6690724,-0.32324108,10.798786,-6.7612257,-8.0445175,-0.94331545
0.8188789,5.0917134,3.5700028,-0.36904746,10.571885,-7.0006456,-7.4507556,-0.9911995
0.8285449,5.0997605,3.5700028,-0.36904746,10.571885,-7.0006456,-7.4507556,-0.9911995
0.83795,5.1078463,3.469868,-0.42870227,10.336461,-7.1347213,-6.799533,-0.9911995
0.84730804,5.1160984,3.469868,-0.42870227,10.336461,-7.1347213,-6.799533,-0.9911995
0.8564203,5.1244187,3.3686678,-0.4990097,10.1031685,-7.216124,-6.114791,-0.842759
0.86531115,5.132749,3.3686678,-0.4990097,10.1031685,-7.216124,-6.114791,-0.842759
0.8741071,5.1412964,3.2621415,-0.576774,9.869875,-7.369353,-5.511452,-0.60333884
0.88303536,5.150206,3.2621415,-0.576774,9.869875,-7.369353,-5.511452,-0.60333884
0.89151824,5.159001,3.148158,-0.6587994,9.640843,-7.5465236,-5.080496,-0.39264908
0.9000237,5.16806,3.148158,-0.6587994,9.640843,-7.5465236,-5.080496,-0.39264908
0.9081251,5.177032,3.026718,-0.7450858,9.417138,-7.6614456,-4.7261543,-0.1388637
0.9162532,5.186282,3.026718,-0.7450858,9.417138,-7.6614456,-4.7261543,-0.1388637
0.9162532,5.186282,3.026718,-0.7450858,9.417138,-7.6614456,-4.7261543,-0.1388637
0.9162532,5.186282,3.026718,-0.7450858,9.417138,-7.6614456,-4.7261543,-0.1388637
0.9162532,5.186282,3.026718,-0.7450858,9.417138,-7.6614456,-4.7261543,-0.1388637
0.9162532,5.186282,3.026718,-0.7450858,9.417138,-7.6614456,-4.7261543,-0.1388637
0.952659,5.232758,2.644288,-0.9986187,8.834438,-7.2209125,-3.6583402,0.33039984
0.96029246,5.2433558,2.644288,-0.9986187,8.834438,-7.2209125,-3.6583402,0.33039984
0.96029246,5.2433558,2.644288,-0.9986187,8.834438,-7.2209125,-3.6583402,0.33039984
0.97421664,5.2637806,2.5239131,-1.0731872,8.669322,-6.871359,-3.1316159,0.49320555
0.98109615,5.2744317,2.4099298,-1.1360378,8.513794,-6.3781533,-2.4995465,0.62249243
0.98109615,5.2744317,2.4099298,-1.1360378,8.513794,-6.3781533,-2.4995465,0.62249243
0.98802596,5.285494,2.4099298,-1.1360378,8.513794,-6.3781533,-2.4995465,0.62249243
0.9986781,5.3033705,2.3023381,-1.1818442,8.3572,-5.78918,-1.6950948,0.78529817
1.001024,5.307429,2.1990075,-1.2031496,8.19315,-5.2624555,-0.8283938,0.94331545
1.0129614,5.32902,2.1990075,-1.2031496,8.19315,-5.2624555,-0.8283938,0.94331545
1.018897,5.340293,2.0892851,-1.1956927,8.017381,-4.8602295,0.033518825,0.9959879
1.0248615,5.351982,2.0892851,-1.1956927,8.017381,-4.8602295,0.033518825,0.9959879
1.0248615,5.351982,2.0892851,-1.1956927,8.017381,-4.8602295,0.033518825,0.9959879
1.0326827,5.3678265,1.9635841,-1.1605389,7.8149805,-4.55856,0.7661445,1.0055647
1.0414102,5.386223,1.8133818,-1.1030147,7.580622,-4.3957543,1.2401965,1.0007763
1.0466766,5.3977323,1.8133818,-1.1030147,7.580622,-4.3957543,1.2401965,1.0007763
1.0466766,5.3977323,1.8133818,-1.1030147,7.580622,-4.3957543,1.2401965,1.0007763
1.0569091,5.4207096,1.6312215,-1.0284462,7.3132405,-4.2425256,1.436521,0.8714894
1.061841,5.432057,1.4192339,-0.94961655,7.00964,-4.1611223,1.292869,0.8714894
1.0666103,5.4433813,1.4192339,-0.94961655,7.00964,-4.1611223,1.292869,0.8714894
1.0709674,5.4537835,1.1827452,-0.8739828,6.670886,-4.0078936,0.90500826,0.90500826
1.0753238,5.4644957,1.1827452,-0.8739828,6.670886,-4.0078936,0.90500826,0.90500826
1.0794661,5.4747043,0.9302775,-0.80580586,6.3012395,-3.8977604,0.2681506,0.92895025
1.0835656,5.485104,0.9302775,-0.80580586,6.3012395,-3.8977604,0.2681506,0.92895025
1.0873706,5.494746,0.6724835,-0.75147736,5.9070916,-3.8738184,-0.62728083,1.0342951
1.0911338,5.504547,0.6724835,-0.75147736,5.9070916,-3.8738184,-0.62728083,1.0342951
1.0944405,5.513245,0.4210811,-0.7120626,5.492704,-3.9456444,-1.733402,1.283292
1.0977049,5.522066,0.4210811,-0.7120626,5.492704,-3.9456444,-1.733402,1.283292
1.1005872,5.530165,0.18565765,-0.6875615,5.062337,-4.0414124,-2.9831753,1.5658079
1.103434,5.538358,0.18565765,-0.6875615,5.062337,-4.0414124,-2.9831753,1.5658079
1.1059649,5.5458126,-0.026329972,-0.6758436,4.623448,-4.1036615,-4.333505,1.7812861
1.1084626,5.553337,-0.026329972,-0.6758436,4.623448,-4.1036615,-4.333505,1.7812861
1.1106424,5.5601134,-0.21062072,-0.67264783,4.184559,-4.19943,-5.482722,2.1021092
1.1127932,5.566936,-0.21062072,-0.67264783,4.184559,-4.19943,-5.482722,2.1021092
1.1146412,5.5730352,-0.3640188,-0.67477834,3.7520616,-4.2664676,-6.6606693,2.408567
1.116466,5.5791755,-0.3640188,-0.67477834,3.7520616,-4.2664676,-6.6606693,2.408567
1.1180007,5.584605,-0.48758948,-0.67690885,3.3334126,-4.333505,-7.7332716,2.8299465
1.119521,5.5900807,-0.48758948,-0.67690885,3.3334126,-4.333505,-7.7332716,2.8299465
1.1207626,5.594853,-0.5802675,-0.6801047,2.9296775,-4.357447,-8.7771435,3.1794999
1.1219939,5.599664,-0.5802675,-0.6801047,2.9296775,-4.357447,-8.7771435,3.1794999
1.122968,5.603822,-0.6409876,-0.6801047,2.540856,-4.2999864,-9.706094,3.5913026
1.1239312,5.6079965,-0.6409876,-0.6801047,2.540856,-4.2999864,-9.706094,3.5913026
1.1246603,5.611566,-0.6729455,-0.67690885,2.1754704,-4.2281604,-10.472239,3.9073372
1.1253822,5.615149,-0.6729455,-0.67690885,2.1754704,-4.2281604,-10.472239,3.9073372
1.1258932,5.6181674,-0.67614126,-0.66625625,1.832455,-4.122815,-11.085154,4.223372
1.1264,5.6211967,-0.67614126,-0.66625625,1.832455,-4.122815,-11.085154,4.223372
1.1267169,5.6236835,-0.65377074,-0.6449509,1.5064842,-4.175488,-11.468226,4.381389
1.1270312,5.6261787,-0.65377074,-0.6449509,1.5064842,-4.175488,-11.468226,4.381389
1.1271789,5.628182,-0.60796434,-0.6172541,1.2039491,-4.0653543,-11.602302,4.5058875
1.127324,5.630189,-0.60796434,-0.6172541,1.2039491,-4.0653543,-11.602302,4.5058875
1.1273248,5.6317472,-0.5493748,-0.5831656,0.92484975,-3.9983168,-11.51611,4.5058875
1.1273237,5.6333046,-0.5493748,-0.5831656,0.92484975,-3.9983168,-11.51611,4.5058875
1.127193,5.634441,-0.48226315,-0.5448161,0.6627947,-3.86903,-11.18571,4.3957543
1.1270621,5.635576,-0.48226315,-0.5448161,0.6627947,-3.86903,-11.18571,4.3957543
1.1268153,5.6363063,-0.41408622,-0.500075,0.4145881,-3.7253778,-10.58716,4.1946416
1.1265689,5.637034,-0.41408622,-0.500075,0.4145881,-3.7253778,-10.58716,4.1946416
1.1262176,5.637377,-0.3437788,-0.45213807,0.1780994,-3.4237084,-9.830592,3.9743748
1.1258669,5.6377177,-0.3437788,-0.45213807,0.1780994,-3.4237084,-9.830592,3.9743748
1.125418,5.6376677,-0.27773237,-0.39887485,-0.05519352,-3.1172507,-8.983045,3.643975
1.1249683,5.6376166,-0.27773237,-0.39887485,-0.05519352,-3.1172507,-8.983045,3.643975
1.1244258,5.63717,-0.21914284,-0.3413506,-0.28529066,-2.815581,-8.101978,3.3423057
1.123884,5.6367235,-0.21914284,-0.3413506,-0.28529066,-2.815581,-8.101978,3.3423057
1.12325,5.635866,-0.16587962,-0.2806305,-0.5175183,-2.5617957,-7.1873937,2.9113493
1.1226166,5.6350102,-0.16587962,-0.2806305,-0.5175183,-2.5617957,-7.1873937,2.9113493
1.121893,5.6337256,-0.121138506,-0.21564937,-0.7518765,-2.408567,-6.3781533,2.4995465
1.1211694,5.632445,-0.121138506,-0.21564937,-0.7518765,-2.408567,-6.3781533,2.4995465
1.1203554,5.630732,-0.08598478,-0.15066823,-0.9851694,-2.2266076,-5.497087,2.0973208
1.11954,5.629025,-0.08598478,-0.15066823,-0.9851694,-2.2266076,-5.497087,2.0973208
1.1186364,5.6268754,-0.06681002,-0.08355658,-1.2163317,-2.0159178,-4.7740383,1.7525556
1.1177309,5.6247344,-0.06681002,-0.08355658,-1.2163317,-2.0159178,-4.7740383,1.7525556
1.1167401,5.6221514,-0.060418434,-0.014314385,-1.4453636,-1.757344,-3.9839516,1.436521
1.1157429,5.6195726,-0.060418434,-0.014314385,-1.4453636,-1.757344,-3.9839516,1.436521
1.1146562,5.616532,-0.07000581,0.05599307,-1.6754608,-1.6232687,-3.3183637,1.1971009
1.1135666,5.613508,-0.07000581,0.05599307,-1.6754608,-1.6232687,-3.3183637,1.1971009
1.1123912,5.610009,-0.093441635,0.12843105,-1.9012969,-1.5610195,-2.705448,0.90979666
1.1112106,5.6065283,-0.093441635,0.12843105,-1.9012969,-1.5610195,-2.705448,0.90979666
1.1099426,5.6025853,-0.12966062,0.20619535,-2.1239371,-1.4748282,-2.2218192,0.8475474
1.1086676,5.5986643,-0.12966062,0.20619535,-2.1239371,-1.4748282,-2.2218192,0.8475474
1.107311,5.594281,-0.17972806,0.29035124,-2.3433816,-1.4700398,-1.8004397,0.79966336
1.1059425,5.589915,-0.17972806,0.29035124,-2.3433816,-1.4700398,-1.8004397,0.79966336
1.1044961,5.5850444,-0.24470918,0.3808987,-2.561761,-1.3503298,-1.4796166,0.6560113
1.1030383,5.580205,-0.24470918,0.3808987,-2.561761,-1.3503298,-1.4796166,0.6560113
1.1015135,5.574862,-0.32460403,0.48209885,-2.7822704,-1.316811,-1.2737153,0.5650316
1.0999696,5.5695324,-0.32460403,0.48209885,-2.7822704,-1.316811,-1.2737153,0.5650316
1.0983552,5.5636544,-0.41728202,0.59395164,-3.0070412,-1.2354081,-1.067814,0.47405192
1.0967293,5.5578346,-0.41728202,0.59395164,-3.0070412,-1.2354081,-1.067814,0.47405192
1.0950336,5.551422,-0.5227432,0.712196,-3.2371385,-1.043872,-1.0295067,0.30166942
1.093318,5.545056,-0.5227432,0.712196,-3.2371385,-1.043872,-1.0295067,0.30166942
1.0915279,5.5381017,-0.638857,0.8368319,-3.4768229,-0.8810662,-1.0534488,0.12928689
1.0897174,5.5312057,-0.638857,0.8368319,-3.4768229,-0.8810662,-1.0534488,0.12928689
1.0878043,5.52372,-0.7656235,0.96572894,-3.7260947,-0.7469909,-1.1683705,0.047884032
1.085869,5.516308,-0.7656235,0.96572894,-3.7260947,-0.7469909,-1.1683705,0.047884032
1.0838244,5.5082746,-0.89984685,1.098887,-3.984954,-0.80924016,-1.4221559,-0.05267244
1.0817461,5.500291,-0.89984685,1.098887,-3.984954,-0.80924016,-1.4221559,-0.05267244
1.0795507,5.4917345,-1.0362006,1.2331103,-4.244879,-1.0055647,-1.7908629,-0.05746084
1.0773213,5.4832525,-1.0362006,1.2331103,-4.244879,-1.0055647,-1.7908629,-0.05746084
1.0749608,5.474214,-1.1682935,1.3683989,-4.499477,-1.2354081,-2.2505496,0.023942016
1.0725722,5.465295,-1.1682935,1.3683989,-4.499477,-1.2354081,-2.2505496,0.023942016
1.070032,5.4557743,-1.2961252,1.5026222,-4.7476835,-1.5705963,-2.7485435,0.12449849
1.0674589,5.4463854,-1.2961252,1.5026222,-4.7476835,-1.5705963,-2.7485435,0.12449849
1.0647535,5.436512,-1.4165001,1.6357802,-4.983107,-1.9297266,-3.217807,0.2633622
1.0620031,5.4267406,-1.4165001,1.6357802,-4.983107,-1.9297266,-3.217807,0.2633622
1.0591199,5.4165406,-1.5251571,1.7700036,-5.201486,-2.3080103,-3.6056678,0.5602432
1.0561877,5.4064527,-1.5251571,1.7700036,-5.201486,-2.3080103,-3.6056678,0.5602432
1.0531492,5.3960037,-1.625292,1.9052922,-5.39856,-2.5234885,-3.9025488,0.62249243
1.0500436,5.385621,-1.625292,1.9052922,-5.39856,-2.5234885,-3.9025488,0.62249243
1.0468433,5.3749185,-1.7179699,2.0405807,-5.575394,-2.8538885,-4.19943,0.62728083
1.0435815,5.3643208,-1.7179699,2.0405807,-5.575394,-2.8538885,-4.19943,0.62728083
1.0402279,5.353429,-1.8042563,2.178,-5.736249,-3.0550013,-4.2904096,0.641646
1.036811,5.3426476,-1.8042563,2.178,-5.736249,-3.0550013,-4.2904096,0.641646
1.0333097,5.331601,-1.887347,2.315419,-5.88219,-3.2752678,-4.534618,0.5746084
1.0297422,5.320671,-1.887347,2.315419,-5.88219,-3.2752678,-4.534618,0.5746084
1.0260829,5.3094745,-1.9725682,2.456034,-6.0185437,-3.5051112,-4.7644615,0.63206923
1.0223768,5.298466,-1.9725682,2.456034,-6.0185437,-3.5051112,-4.7644615,0.63206923
1.0185663,5.2871513,-2.0577893,2.5955834,-6.1453104,-3.7828386,-5.070919,0.5554548
1.0147079,5.27603,-2.0577893,2.5955834,-6.1453104,-3.7828386,-5.070919,0.5554548
1.0107477,5.264631,-2.1419451,2.738329,-6.26462,-4.1706996,-5.602432,0.5506664
1.0066782,5.253262,-2.1419451,2.738329,-6.26462,-4.1706996,-5.602432,0.5506664
1.0025082,5.241709,-2.2261012,2.8800092,-6.377538,-3.691859,-5.6982,0.7469909
0.99834245,5.2305074,-2.2261012,2.8800092,-6.377538,-3.691859,-5.6982,0.7469909
0.99415576,5.219225,-2.3123875,3.0259504,-6.489391,-4.6495395,-6.694188,0.46926352
0.9898343,5.2079167,-2.3123875,3.0259504,-6.489391,-4.6495395,-6.694188,0.46926352
0.9853963,5.1963835,-2.4008045,3.1718917,-6.6087003,-4.256891,-6.8330517,0.4309563
0.9808898,5.1850157,-2.4008045,3.1718917,-6.6087003,-4.256891,-6.8330517,0.4309563
0.9762713,5.173461,-2.4870908,3.3071802,-6.7301407,-4.6399627,-7.326257,0.34955344
0.9715834,5.1620755,-2.4870908,3.3071802,-6.7301407,-4.6399627,-7.326257,0.34955344
0.9667928,5.1505704,-2.5744426,3.4371424,-6.861168,-4.936844,-7.833828,0.16280572
0.9618882,5.1391344,-2.5744426,3.4371424,-6.861168,-4.936844,-7.833828,0.16280572
0.95685226,5.1275916,-2.6585984,3.5500605,-6.998587,-5.2959743,-8.293514,0.07182605
0.95174074,5.1162143,-2.6585984,3.5500605,-6.998587,-5.2959743,-8.293514,0.07182605
0.946484,5.1047773,-2.737428,3.6469996,-7.143463,-5.722142,-8.973468,0.076614454
0.9411844,5.0935745,-2.737428,3.6469996,-7.143463,-5.722142,-8.973468,0.076614454
0.9356685,5.082225,-2.8088007,3.7258291,-7.2936654,-6.1770406,-9.581595,0.04309563
0.930038,5.070969,-2.8088007,3.7258291,-7.2936654,-6.1770406,-9.581595,0.04309563
0.92426103,5.059774,-2.869521,3.7844186,-7.4385414,-6.4787097,-10.184934,0.047884032
0.91842693,5.0487857,-2.869521,3.7844186,-7.4385414,-6.4787097,-10.184934,0.047884032
0.9123925,5.0378017,-2.9174578,3.8248987,-7.5802217,-6.775591,-10.783484,0.05746084
0.90629697,5.027014,-2.9174578,3.8248987,-7.5802217,-6.775591,-10.783484,0.05746084
0.9000125,5.0162873,-2.954742,3.8536608,-7.7165756,-6.823475,-11.228806,0.10534488
0.8936763,5.005766,-2.954742,3.8536608,-7.7165756,-6.823475,-11.228806,0.10534488
0.88710976,4.9952574,-2.9803083,3.873901,-7.8497334,-6.8186865,-11.420342,0.038307227
0.8805002,4.9849634,-2.9803083,3.873901,-7.8497334,-6.8186865,-11.420342,0.038307227
0.87377626,4.9748783,-3.0016136,3.8888147,-7.9871526,-6.9288197,-11.611878,0.038307227
0.8669111,4.9648514,-3.0016136,3.8888147,-7.9871526,-6.9288197,-11.611878,0.038307227
0.85987496,4.9549475,-3.022919,3.9037282,-8.132029,-6.9383965,-11.611878,-0.1436521
0.8527885,4.945231,-3.022919,3.9037282,-8.132029,-6.9383965,-11.611878,-0.1436521
0.8304387,4.9165783,-3.0740516,3.918642,-8.430303,-7.3549876,-11.722012,-0.17238252
0.8304387,4.9165783,-3.0740516,3.918642,-8.430303,-7.3549876,-11.722012,-0.17238252
0.8304387,4.9165783,-3.0740516,3.918642,-8.430303,-7.3549876,-11.722012,-0.17238252
0.8069636,4.8891163,-3.1102705,3.9197073,-8.580505,-7.5561004,-11.75553,-0.17717093
0.8069636,4.8891163,-3.1102705,3.9197073,-8.580505,-7.5561004,-11.75553,-0.17717093
0.8069636,4.8891163,-3.1102705,3.9197073,-8.580505,-7.5561004,-11.75553,-0.17717093
0.8069636,4.8891163,-3.1486201,3.914381,-8.733903,-8.154651,-11.99495,-0.18195933
0.7990575,4.8804464,-3.1486201,3.914381,-8.733903,-8.154651,-11.99495,-0.18195933
0.7830555,4.863562,-3.1869695,3.902663,-8.877714,-8.480263,-12.119449,-0.14844051
0.7747708,4.8551936,-3.1869695,3.902663,-8.877714,-8.480263,-12.119449,-0.14844051
0.76630473,4.8469257,-3.216797,3.8813577,-9.008741,-8.949526,-12.20564,-0.22984336
0.7577979,4.8388076,-3.216797,3.8813577,-9.008741,-8.949526,-12.20564,-0.22984336
0.7577979,4.8388076,-3.216797,3.8813577,-9.008741,-8.949526,-12.20564,-0.22984336
0.74043167,4.8229685,-3.2391677,3.8525956,-9.122725,-9.390059,-12.167333,-0.076614454
0.7316396,4.815271,-3.2455592,3.8153114,-9.219664,-10.146626,-12.11466,-0.18195933
0.7228352,4.8077245,-3.2455592,3.8153114,-9.219664,-10.146626,-12.11466,-0.18195933
0.71387386,4.800286,-3.2349064,3.7631133,-9.298493,-10.874464,-12.076353,-0.22505496
0.7049705,4.7930446,-3.2349064,3.7631133,-9.298493,-10.874464,-12.076353,-0.22505496
0.6960057,4.786017,-3.2061443,3.6938713,-9.350691,-11.33894,-12.023681,-0.24899697
0.6870043,4.779102,-3.2061443,3.6938713,-9.350691,-11.33894,-12.023681,-0.24899697
0.6780026,4.77246,-3.160338,3.6065195,-9.374127,-11.789049,-12.0571995,-0.30166942
0.6780026,4.77246,-3.160338,3.6065195,-9.374127,-11.789049,-12.0571995,-0.30166942
0.660138,4.7598147,-3.1017485,3.499993,-9.377323,-12.325351,-12.061988,-0.08619126
0.6507383,4.753444,-3.1017485,3.499993,-9.377323,-12.325351,-12.061988,-0.08619126
0.6416656,4.747578,-3.035702,3.3700309,-9.354952,-12.440272,-12.090718,0.095768064
0.63260865,4.7418337,-3.035702,3.3700309,-9.354952,-12.440272,-12.090718,0.095768064
0.6235183,4.7363324,-2.9664598,3.2198286,-9.310211,-12.454638,-12.181698,0.17238252
0.61437285,4.730898,-2.9664598,3.2198286,-9.310211,-12.454638,-12.181698,0.17238252
0.6053219,4.725777,-2.8918912,3.0536473,-9.249491,-12.253524,-12.186486,0.272939
0.59624505,4.7207294,-2.8918912,3.0536473,-9.249491,-12.253524,-12.186486,0.272939
0.58722353,4.7159576,-2.8162575,2.8778787,-9.175988,-11.956643,-12.172121,0.38307226
0.57819664,4.711259,-2.8162575,2.8778787,-9.175988,-11.956643,-12.172121,0.38307226
0.5692266,4.706806,-2.7427542,2.6957183,-9.088636,-11.573571,-12.133814,0.30645782
0.5601994,4.7023926,-2.7427542,2.6957183,-9.088636,-11.573571,-12.133814,0.30645782
0.5513659,4.6982775,-2.6692512,2.5082319,-8.992763,-11.061212,-12.014104,0.25378537
0.54241514,4.6941667,-2.6692512,2.5082319,-8.992763,-11.061212,-12.014104,0.25378537
0.53367484,4.690338,-2.5978785,2.3228757,-8.891562,-10.5919485,-11.899182,0.19632454
0.5248642,4.6865296,-2.5978785,2.3228757,-8.891562,-10.5919485,-11.899182,0.19632454
0.51616144,4.682931,-2.5297015,2.1439114,-8.78184,-10.084377,-11.745954,0.06703765
0.50745136,4.679373,-2.5297015,2.1439114,-8.78184,-10.084377,-11.745954,0.06703765
0.4988743,4.676011,-2.4657855,1.9734691,-8.666791,-9.576807,-11.631032,-0.076614454
0.49026516,4.6726747,-2.4657855,1.9734691,-8.666791,-9.576807,-11.631032,-0.076614454
0.48178542,4.669504,-2.4082613,1.81581,-8.549612,-9.150639,-11.563994,-0.2873042
0.4733005,4.6663656,-2.4082613,1.81581,-8.549612,-9.150639,-11.563994,-0.2873042
0.4649356,4.663371,-2.3528676,1.6730645,-8.424976,-8.7053175,-11.554418,-0.4405331
0.45657486,4.660407,-2.3528676,1.6730645,-8.424976,-8.7053175,-11.554418,-0.4405331
0.4483645,4.657581,-2.2996044,1.5452328,-8.295014,-8.365341,-11.540052,-0.5554548
0.4401177,4.654768,-2.2996044,1.5452328,-8.295014,-8.365341,-11.540052,-0.5554548
0.43203375,4.6520944,-2.246341,1.4323148,-8.15866,-8.1163435,-11.57836,-0.46926352
0.42394686,4.649441,-2.246341,1.4323148,-8.15866,-8.1163435,-11.57836,-0.46926352
0.41598818,4.6469088,-2.1909473,1.3332452,-8.013784,-7.9104424,-11.707646,-0.30645782
0.408035,4.644397,-2.1909473,1.3332452,-8.013784,-7.9104424,-11.707646,-0.30645782
0.40023267,4.6420093,-2.1280968,1.243763,-7.8603864,-7.599196,-11.793838,-0.1436521
0.39242855,4.6396356,-2.1280968,1.243763,-7.8603864,-7.599196,-11.793838,-0.1436521
0.38477534,4.637389,-2.0556588,1.1638681,-7.703792,-7.417237,-11.903971,0.090979666
0.37712112,4.635154,-2.0556588,1.1638681,-7.703792,-7.417237,-11.903971,0.090979666
0.3696155,4.633044,-1.9725682,1.094626,-7.540807,-7.177817,-11.942278,0.33039984
0.36212453,4.6309476,-1.9725682,1.094626,-7.540807,-7.177817,-11.942278,0.33039984
0.35478893,4.6289716,-1.883086,1.0360364,-7.3735604,-7.0006456,-11.947066,0.51235914
0.34756362,4.6270323,-1.883086,1.0360364,-7.3735604,-7.0006456,-11.947066,0.51235914
0.34038022,4.625186,-1.7882774,0.98383844,-7.207379,-6.7564373,-11.9135475,0.7613561
0.33308986,4.623318,-1.7882774,0.98383844,-7.207379,-6.7564373,-11.9135475,0.7613561
0.32608563,4.621602,-1.6913383,0.9359015,-7.0475893,-6.646304,-12.004527,0.91458505
0.31909624,4.6198945,-1.6913383,0.9359015,-7.0475893,-6.646304,-12.004527,0.91458505
0.31222552,4.618292,-1.5965297,0.88689935,-6.8952565,-6.4882865,-11.99495,0.93373865
0.30534202,4.61669,-1.5965297,0.88689935,-6.8952565,-6.4882865,-11.99495,0.93373865
0.2986098,4.6152005,-1.5027865,0.83470136,-6.7461195,-6.349423,-12.066776,0.9576807
0.29190537,4.6137204,-1.5027865,0.83470136,-6.7461195,-6.349423,-12.066776,0.9576807
0.28535303,4.6123457,-1.4111738,0.7814382,-6.6012435,-6.205771,-12.119449,0.7613561
0.2787886,4.6109705,-1.4111738,0.7814382,-6.6012435,-6.205771,-12.119449,0.7613561
0.27238426,4.6097016,-1.3227568,0.72497916,-6.4595633,-5.7604494,-11.899182,0.545878
0.2659298,4.608424,-1.3227568,0.72497916,-6.4595633,-5.7604494,-11.899182,0.545878
0.25963107,4.607235,-1.2417967,0.6717159,-6.3189487,-5.7604494,-11.8896055,0.25857377
0.253277,4.606035,-1.2417967,0.6717159,-6.3189487,-5.7604494,-11.8896055,0.25857377
0.24726504,4.6049376,-1.166163,0.6354969,-6.1740727,-5.9998693,-11.9135475,-0.14844051
0.24126568,4.6038427,-1.166163,0.6354969,-6.1740727,-5.9998693,-11.9135475,-0.14844051
0.23534694,4.602808,-1.0883986,0.603539,-6.022805,-6.1626754,-11.803414,-0.32561144
0.2294165,4.6017714,-1.0883986,0.603539,-6.022805,-6.1626754,-11.803414,-0.32561144
0.22365347,4.600814,-1.0148954,0.57584214,-5.86195,-6.253655,-11.69807,-0.22984336
0.21787904,4.5998545,-1.0148954,0.57584214,-5.86195,-6.253655,-11.69807,-0.22984336
0.21227853,4.5989747,-0.94671845,0.5587979,-5.692573,-6.315904,-11.784261,0.1436521
0.20667268,4.5980935,-0.94671845,0.5587979,-5.692573,-6.315904,-11.784261,0.1436521
0.20122671,4.597289,-0.8796068,0.5492105,-5.52,-6.2488666,-12.0093155,0.7038953
0.1957812,4.596485,-0.8796068,0.5492105,-5.52,-6.2488666,-12.0093155,0.7038953
0.19049178,4.5957527,-0.81142986,0.5502758,-5.3516884,-6.205771,-12.253524,1.2354081
0.18521349,4.595022,-0.81142986,0.5502758,-5.3516884,-6.205771,-12.253524,1.2354081
0.18006209,4.594359,-0.7411224,0.5566674,-5.187638,-6.0764837,-12.579136,1.6663644
0.17493191,4.5936985,-0.7411224,0.5566674,-5.187638,-6.0764837,-12.579136,1.6663644
0.16995074,4.593112,-0.66548866,0.5651895,-5.0363703,-6.0285997,-12.933477,1.9249382
0.16495034,4.5925236,-0.66548866,0.5651895,-5.0363703,-6.0285997,-12.933477,1.9249382
0.16008994,4.5920157,-0.5834633,0.56838524,-4.9042773,-5.9567738,-13.31655,1.8818425
0.15523021,4.591508,-0.5834633,0.56838524,-4.9042773,-5.9567738,-13.31655,1.8818425
0.1504906,4.5910864,-0.4961116,0.55986315,-4.786033,-5.889736,-13.661315,1.6998832
0.14575158,4.590664,-0.4961116,0.55986315,-4.786033,-5.889736,-13.661315,1.6998832
0.14112373,4.590334,-0.40556413,0.53536206,-4.6805716,-5.7125654,-13.977349,1.3359646
0.1367187,4.5900183,-0.40556413,0.53536206,-4.6805716,-5.7125654,-13.977349,1.3359646
0.1321873,4.589785,-0.30862504,0.49168622,-4.5910897,-5.592855,-14.121001,0.92416185
0.12743933,4.5895395,-0.30862504,0.49168622,-4.5910897,-5.592855,-14.121001,0.92416185
0.12300145,4.589413,-0.2052944,0.42990088,-4.5143905,-5.3342814,-14.226347,0.5602432
0.118586354,4.5892863,-0.2052944,0.42990088,-4.5143905,-5.3342814,-14.226347,0.5602432
0.114235096,4.58927,-0.09876795,0.35320187,-4.4462137,-5.080496,-14.092271,0.2681506
0.10985405,4.589252,-0.09876795,0.35320187,-4.4462137,-5.080496,-14.092271,0.2681506
0.1055716,4.5893497,0.012019549,0.26371965,-4.3844285,-4.7979803,-13.958196,-0.009576807
0.10130693,4.589445,0.012019549,0.26371965,-4.3844285,-4.7979803,-13.958196,-0.009576807
0.09708999,4.5896606,0.12493758,0.16678058,-4.3290343,-4.486734,-13.718776,-0.16759412
0.09288208,4.589873,0.12493758,0.16678058,-4.3290343,-4.486734,-13.718776,-0.16759412
0.08874368,4.5902033,0.23679034,0.06664571,-4.275771,-4.2664676,-13.412318,-0.19632454
0.084572636,4.5905337,0.23679034,0.06664571,-4.275771,-4.2664676,-13.412318,-0.19632454
0.08049519,4.590974,0.34225154,-0.030293351,-4.2214427,-4.0078936,-12.957419,-0.17238252
0.07641823,4.5914106,0.34225154,-0.030293351,-4.2214427,-4.0078936,-12.957419,-0.17238252
0.07243914,4.591947,0.44132113,-0.121906094,-4.1649837,-3.8738184,-12.545617,-0.10534488
0.068432406,4.5924835,0.44132113,-0.121906094,-4.1649837,-3.8738184,-12.545617,-0.10534488
0.06448675,4.593116,0.5318686,-0.20073566,-4.105329,-3.715801,-12.100295,0.033518825
0.060545363,4.5937443,0.5318686,-0.20073566,-4.105329,-3.715801,-12.100295,0.033518825
0.056666546,4.594455,0.613894,-0.2657168,-4.043544,-3.6535518,-11.549629,0.033518825
0.05279566,4.595159,0.613894,-0.2657168,-4.043544,-3.6535518,-11.549629,0.033518825
0.048996806,4.5959353,0.6863319,-0.32111055,-3.973236,-3.7445314,-11.042058,0.1436521
0.04519416,4.5967083,0.6863319,-0.32111055,-3.973236,-3.7445314,-11.042058,0.1436521
0.041486625,4.597539,0.75024784,-0.36691692,-3.8954718,-3.6966474,-10.505757,0.12449849
0.037764125,4.598369,0.75024784,-0.36691692,-3.8954718,-3.6966474,-10.505757,0.12449849
0.03413718,4.5992517,0.8077721,-0.4095275,-3.811316,-3.7588966,-10.01734,0.19153613
0.030517237,4.600129,0.8077721,-0.4095275,-3.811316,-3.7588966,-10.01734,0.19153613
0.026981808,4.6010566,0.8589048,-0.45000756,-3.7197032,-3.739743,-9.519346,0.22505496
0.023449536,4.6019793,0.8589048,-0.45000756,-3.7197032,-3.739743,-9.519346,0.22505496
0.020024214,4.6029396,0.9047112,-0.4904876,-3.6206336,-3.6008794,-8.90643,0.04309563
0.016598424,4.603896,0.9047112,-0.4904876,-3.6206336,-3.6008794,-8.90643,0.04309563
0.013288036,4.604892,0.948387,-0.53309816,-3.5119767,-3.490746,-8.422802,0.05267244
0.009970427,4.6058855,0.948387,-0.53309816,-3.5119767,-3.490746,-8.422802,0.05267244
0.006776133,4.6069145,0.98673654,-0.57570875,-3.396928,-3.3758245,-7.967903,0.12449849
0.003574851,4.6079416,0.98673654,-0.57570875,-3.396928,-3.3758245,-7.967903,0.12449849
0.00050395716,4.6089973,1.020825,-0.6193846,-3.2765532,-3.1986535,-7.61835,0.090979666
6.2806115,4.610051,1.020825,-0.6193846,-3.2765532,-3.1986535,-7.61835,0.090979666
6.277662,4.6111317,1.0474566,-0.6673215,-3.155113,-2.8491,-7.398083,0.17238252
6.274705,4.612211,1.0474566,-0.6673215,-3.155113,-2.8491,-7.398083,0.17238252
6.2718873,4.613306,1.0740882,-0.7184542,-3.0294118,-2.6623523,-7.07726,0.0047884034
6.269098,4.6143875,1.0740882,-0.7184542,-3.0294118,-2.6623523,-7.07726,0.0047884034
6.2664037,4.615502,1.0943283,-0.76745635,-2.90158,-2.2170308,-6.9288197,-0.0047884034
6.263682,4.616625,1.0943283,-0.76745635,-2.90158,-2.2170308,-6.9288197,-0.0047884034
6.2611074,4.6177673,1.113503,-0.8196543,-2.7737484,-1.4939818,-6.991069,0.076614454
6.2585483,4.618901,1.113503,-0.8196543,-2.7737484,-1.4939818,-6.991069,0.076614454
6.256122,4.620045,1.133743,-0.8675912,-2.6416557,-1.412579,-6.7468605,-0.10534488
6.256122,4.620045,1.133743,-0.8675912,-2.6416557,-1.412579,-6.7468605,-0.10534488
6.253598,4.6212316,1.133743,-0.8675912,-2.6416557,-1.412579,-6.7468605,-0.10534488
6.2491026,4.6234794,1.1571789,-0.9176586,-2.5095627,-1.1300632,-6.3781533,-0.37349546
6.2469673,4.6245985,1.1752883,-0.9730524,-2.3742743,-0.7038953,-6.081272,-0.62249243
6.2448263,4.625717,1.1752883,-0.9730524,-2.3742743,-0.7038953,-6.081272,-0.62249243
6.2427807,4.6267815,1.185941,-1.031642,-2.240051,-0.1388637,-5.899313,-0.79008657
6.2407303,4.6278453,1.185941,-1.031642,-2.240051,-0.1388637,-5.899313,-0.79008657
6.238703,4.6288795,1.190202,-1.0881009,-2.1058276,0.320823,-5.722142,-0.79008657
6.236676,4.6299114,1.190202,-1.0881009,-2.1058276,0.320823,-5.722142,-0.79008657
6.230786,4.633131,1.1880715,-1.1786485,-1.8437725,1.3455414,-5.4444146,-0.90500826
6.230786,4.633131,1.1880715,-1.1786485,-1.8437725,1.3455414,-5.4444146,-0.90500826
6.230786,4.633131,1.1880715,-1.1786485,-1.8437725,1.3455414,-5.4444146,-0.90500826
6.230786,4.633131,1.1880715,-1.1786485,-1.8437725,1.3455414,-5.4444146,-0.90500826
6.2289066,4.6342,1.1880715,-1.1786485,-1.8437725,1.3455414,-5.4444146,-0.90500826
6.2264934,4.6356707,1.1795493,-1.2084758,-1.7148756,1.733402,-5.4444146,-0.8571242
6.225375,4.6363487,1.1635704,-1.22552,-1.5891744,2.2888567,-5.046977,-1.067814
6.2237883,4.637365,1.1635704,-1.22552,-1.5891744,2.2888567,-5.046977,-1.067814
6.222087,4.6384506,1.1635704,-1.22552,-1.5891744,2.2888567,-5.046977,-1.067814
6.2191963,4.640403,1.1369388,-1.22552,-1.4613426,3.2992098,-4.6112323,-1.2114661
6.217818,4.6413937,1.0900671,-1.1978232,-1.3345761,4.0892963,-5.281609,-0.7661445
6.216435,4.642384,1.0900671,-1.1978232,-1.3345761,4.0892963,-5.281609,-0.7661445
6.216435,4.642384,1.0900671,-1.1978232,-1.3345761,4.0892963,-5.281609,-0.7661445
6.21389,4.6442704,1.0357387,-1.1371031,-1.2173971,3.514688,-5.765238,-0.61291564
6.2127137,4.6451674,0.98886704,-1.0742525,-1.1161969,3.98874,-5.9280434,-0.6847417
6.211535,4.6460633,0.98886704,-1.0742525,-1.1161969,3.98874,-5.9280434,-0.6847417
6.211535,4.6460633,0.98886704,-1.0742525,-1.1161969,3.98874,-5.9280434,-0.6847417
6.2093744,4.6477814,0.9473217,-1.0177935,-1.0139315,5.281609,-5.8945246,-0.770933
6.208392,4.648594,0.9047112,-0.9283113,-0.90847033,5.2528787,-6.0381765,-1.043872
6.20741,4.6494055,0.9047112,-0.9283113,-0.90847033,5.2528787,-6.0381765,-1.043872
6.206513,4.6501765,0.8578395,-0.81539327,-0.81259656,5.0134583,-6.172252,-1.1013328
6.205615,4.6509466,0.8578395,-0.81539327,-0.81259656,5.0134583,-6.172252,-1.1013328
6.205615,4.6509466,0.8578395,-0.81539327,-0.81259656,5.0134583,-6.172252,-1.1013328
6.203966,4.652414,0.8099026,-0.71099734,-0.7273754,5.2624555,-6.196194,-1.1540052
6.203235,4.6530814,0.76090044,-0.61192775,-0.6464153,5.0757074,-6.315904,-1.3599066
6.202493,4.653758,0.76090044,-0.61192775,-0.6464153,5.0757074,-6.315904,-1.3599066
6.2018113,4.654386,0.70976776,-0.51924974,-0.57823837,4.7548847,-6.4260373,-1.5275006
6.201129,4.6550136,0.70976776,-0.51924974,-0.57823837,4.7548847,-6.4260373,-1.5275006
6.2004952,4.6555963,0.6586351,-0.4425507,-0.5249751,4.7261543,-6.6750345,-1.5275006
6.199861,4.656178,0.6586351,-0.4425507,-0.5249751,4.7261543,-6.6750345,-1.5275006
6.1992674,4.6567183,0.6096329,-0.3797001,-0.48023403,4.630386,-7.0006456,-1.4460979
6.1986737,4.657258,0.6096329,-0.3797001,-0.48023403,4.630386,-7.0006456,-1.4460979
6.1981163,4.6577578,0.56382656,-0.3221758,-0.43975398,4.5872903,-7.345411,-1.412579
6.197559,4.6582575,0.56382656,-0.3221758,-0.43975398,4.5872903,-7.345411,-1.412579
6.1970367,4.65872,0.521216,-0.27104312,-0.40140447,4.3718123,-7.776367,-1.3263878
6.196515,4.659182,0.521216,-0.27104312,-0.40140447,4.3718123,-7.776367,-1.3263878
6.1960287,4.6596136,0.48499697,-0.22097568,-0.36198968,4.1659107,-7.9487495,-1.2593501
6.195543,4.660044,0.48499697,-0.22097568,-0.36198968,4.1659107,-7.9487495,-1.2593501
6.195093,4.660451,0.4573001,-0.17197353,-0.32364017,3.9935284,-8.159439,-1.2306197
6.1946435,4.6608577,0.4573001,-0.17197353,-0.32364017,3.9935284,-8.159439,-1.2306197
6.194234,4.661244,0.43492955,-0.124036625,-0.28102958,3.892972,-8.274361,-1.2737153
6.193822,4.6616325,0.43492955,-0.124036625,-0.28102958,3.892972,-8.274361,-1.2737153
6.193453,4.6620026,0.41575477,-0.0707734,-0.23948428,3.739743,-8.456321,-1.2593501
6.193084,4.662372,0.41575477,-0.0707734,-0.23948428,3.739743,-8.456321,-1.2593501
6.192753,4.662728,0.39871055,-0.015379649,-0.19900422,3.466804,-8.662222,-1.2449849
6.192421,4.663084,0.39871055,-0.015379649,-0.19900422,3.466804,-8.662222,-1.2449849
6.192126,4.6634254,0.3816663,0.04107937,-0.16278523,3.1986535,-8.848969,-1.2162545
6.19183,4.6637664,0.3816663,0.04107937,-0.16278523,3.1986535,-8.848969,-1.2162545
6.191564,4.6641035,0.36568734,0.09540785,-0.1276315,2.944868,-9.088389,-1.0295067
6.191299,4.6644397,0.36568734,0.09540785,-0.1276315,2.944868,-9.088389,-1.0295067
6.1910653,4.6647596,0.34970838,0.14547528,-0.09673884,2.566584,-9.299079,-1.0007763
6.190831,4.665079,0.34970838,0.14547528,-0.09673884,2.566584,-9.299079,-1.0007763
6.1906247,4.6653886,0.33479467,0.18595533,-0.0679767,2.3463178,-9.476251,-0.91937345
6.1904182,4.665698,0.33479467,0.18595533,-0.0679767,2.3463178,-9.476251,-0.91937345
6.190237,4.665997,0.3252073,0.21471748,-0.043475613,2.1643584,-9.691729,-0.90500826
6.190057,4.666296,0.3252073,0.21471748,-0.043475613,2.1643584,-9.691729,-0.90500826
6.189897,4.666589,0.31988096,0.23069644,-0.02323559,2.0207062,-9.859323,-0.8714894
6.1897383,4.6668816,0.31988096,0.23069644,-0.02323559,2.0207062,-9.859323,-0.8714894
6.1896067,4.6671615,0.31775045,0.23708802,-0.006191358,1.8339585,-9.940725,-0.92416185
6.1894755,4.6674404,0.31775045,0.23708802,-0.006191358,1.8339585,-9.940725,-0.92416185
6.1893654,4.6677165,0.32094625,0.23176171,0.008722344,1.7812861,-9.983821,-0.9624691
6.189256,4.6679916,0.32094625,0.23176171,0.008722344,1.7812861,-9.983821,-0.9624691
6.189165,4.6682673,0.32733783,0.21897852,0.019374989,1.733402,-10.055647,-1.0007763
6.189074,4.668544,0.32733783,0.21897852,0.019374989,1.733402,-10.055647,-1.0007763
6.188996,4.66882,0.33372942,0.20086904,0.024701312,1.6424223,-10.13705,-0.9911995
6.188917,4.669096,0.33372942,0.20086904,0.024701312,1.6424223,-10.13705,-0.9911995
6.18885,4.6693716,0.340121,0.17956375,0.025766576,1.6184803,-10.247183,-1.0534488
6.188782,4.6696477,0.340121,0.17956375,0.025766576,1.6184803,-10.247183,-1.0534488
6.188714,4.6699276,0.3465126,0.1571932,0.023636047,1.5610195,-10.333375,-0.9911995
6.1886463,4.670208,0.3465126,0.1571932,0.023636047,1.5610195,-10.333375,-0.9911995
6.18859,4.6704865,0.35396942,0.1358879,0.019374989,1.4556746,-10.405201,-1.0247183
6.1885343,4.670764,0.35396942,0.1358879,0.019374989,1.4556746,-10.405201,-1.0247183
6.1884775,4.671046,0.35929576,0.11564788,0.016179197,1.3455414,-10.46745,-0.8858546
6.1884212,4.671328,0.35929576,0.11564788,0.016179197,1.3455414,-10.46745,-0.8858546
6.1883726,4.671611,0.36568734,0.09647312,0.012983402,1.2354081,-10.5440645,-0.79966336
6.188325,4.6718936,0.36568734,0.09647312,0.012983402,1.2354081,-10.5440645,-0.79966336
6.1882963,4.67218,0.37634,0.07836362,0.011918138,1.1492168,-10.625467,-0.78050977
6.188268,4.672467,0.37634,0.07836362,0.011918138,1.1492168,-10.625467,-0.78050977
6.1882663,4.6727614,0.3880579,0.061319392,0.016179197,1.0534488,-10.67814,-0.6512229
6.188265,4.673056,0.3880579,0.061319392,0.016179197,1.0534488,-10.67814,-0.6512229
6.1882887,4.6733613,0.4008411,0.045340426,0.019374989,1.0007763,-10.611102,-0.59855044
6.1883116,4.673667,0.4008411,0.045340426,0.019374989,1.0007763,-10.611102,-0.59855044
6.1883683,4.6739874,0.4146895,0.028296193,0.022570781,0.9528923,-10.5919485,-0.5650316
6.1884236,4.674308,0.4146895,0.028296193,0.022570781,0.9528923,-10.5919485,-0.5650316
6.1885133,4.674648,0.42853796,0.009121433,0.027897105,0.90021986,-10.582372,-0.5554548
6.1886015,4.6749873,0.42853796,0.009121433,0.027897105,0.90021986,-10.582372,-0.5554548
6.1887155,4.6753454,0.4423864,-0.010053327,0.035353955,0.80445176,-10.515334,-0.59855044
6.188828,4.6757035,0.4423864,-0.010053327,0.035353955,0.80445176,-10.515334,-0.59855044
6.1889424,4.6760707,0.4573001,-0.031358615,0.0460066,0.79966336,-10.433931,-0.62728083
6.189056,4.6764364,0.4573001,-0.031358615,0.0460066,0.79966336,-10.433931,-0.62728083
6.1891675,4.6768103,0.47114852,-0.052663904,0.055593982,0.8571242,-10.357317,-0.5793968
6.1892776,4.677184,0.47114852,-0.052663904,0.055593982,0.8571242,-10.357317,-0.5793968
6.18939,4.677565,0.48286644,-0.07396919,0.06624663,0.8619126,-10.304645,-0.59855044
6.1895022,4.677946,0.48286644,-0.07396919,0.06624663,0.8619126,-10.304645,-0.59855044
6.189595,4.6783323,0.49458435,-0.095274486,0.0790298,0.94331545,-10.251971,-0.5506664
6.1896873,4.6787186,0.49458435,-0.095274486,0.0790298,0.94331545,-10.251971,-0.5506664
6.189746,4.6791162,0.5041717,-0.11444924,0.09074771,1.0486604,-10.189722,-0.58897364
6.189805,4.6795125,0.5041717,-0.11444924,0.09074771,1.0486604,-10.189722,-0.58897364
6.189852,4.679923,0.51375914,-0.133624,0.10566141,1.13964,-10.175357,-0.59855044
6.1899,4.680335,0.51375914,-0.133624,0.10566141,1.13964,-10.175357,-0.59855044
6.18993,4.6807704,0.5233465,-0.1517335,0.120575115,1.2401965,-10.079589,-0.5506664
6.1899605,4.6812057,0.5233465,-0.1517335,0.120575115,1.2401965,-10.079589,-0.5506664
6.18999,4.681661,0.5308033,-0.16771246,0.13761935,1.3503298,-9.940725,-0.5315128
6.1900206,4.6821156,0.5308033,-0.16771246,0.13761935,1.3503298,-9.940725,-0.5315128
6.1900644,4.682578,0.5350644,-0.17943038,0.1567941,1.3934253,-9.878476,-0.51714754
6.1901093,4.6830416,0.5350644,-0.17943038,0.1567941,1.3934253,-9.878476,-0.51714754
6.1901627,4.683517,0.54039073,-0.18795249,0.17277306,1.484405,-9.787497,-0.50278234
6.1902165,4.6839924,0.54039073,-0.18795249,0.17277306,1.484405,-9.787497,-0.50278234
6.1902757,4.684491,0.54252124,-0.19327882,0.18981731,1.541866,-9.792285,-0.39743748
6.1903353,4.6849895,0.54252124,-0.19327882,0.18981731,1.541866,-9.792285,-0.39743748
6.190416,4.685482,0.54252124,-0.19540934,0.20899206,1.5945383,-9.749189,-0.4309563
6.1904964,4.685974,0.54252124,-0.19540934,0.20899206,1.5945383,-9.749189,-0.4309563
6.1905966,4.6864653,0.541456,-0.19327882,0.22816682,1.6472107,-9.706094,-0.4405331
6.1906967,4.6869545,0.541456,-0.19327882,0.22816682,1.6472107,-9.706094,-0.4405331
6.1908126,4.6874466,0.53826016,-0.18901776,0.24627632,1.6759412,-9.720459,-0.41180268
6.1909285,4.6879387,0.53826016,-0.18901776,0.24627632,1.6759412,-9.720459,-0.41180268
6.1909285,4.6879387,0.53826016,-0.18901776,0.24627632,1.6759412,-9.720459,-0.41180268
6.191092,4.6885405,0.53399915,-0.18262617,0.26225528,1.661576,-9.648633,-0.41180268
6.191207,4.688961,0.52760756,-0.17516932,0.27823424,1.6472107,-9.576807,-0.4309563
6.1914945,4.6898704,0.52760756,-0.17516932,0.27823424,1.6472107,-9.576807,-0.4309563
6.191663,4.6903253,0.5201507,-0.16984299,0.2910174,1.6759412,-9.509769,-0.51714754
6.1918335,4.690784,0.5201507,-0.16984299,0.2910174,1.6759412,-9.509769,-0.51714754
6.1920257,4.6912446,0.51375914,-0.16558194,0.30486587,1.661576,-9.452309,-0.5410896
6.192209,4.691683,0.51375914,-0.16558194,0.30486587,1.661576,-9.452309,-0.5410896
6.192405,4.692116,0.505237,-0.1634514,0.3187143,1.6807296,-9.32781,-0.5410896
6.1926045,4.692553,0.505237,-0.1634514,0.3187143,1.6807296,-9.32781,-0.5410896
6.192816,4.692986,0.4967149,-0.1634514,0.33256274,1.70946,-9.279925,-0.521936
6.193027,4.6934195,0.4967149,-0.1634514,0.33256274,1.70946,-9.279925,-0.521936
6.1932516,4.6938443,0.48712748,-0.16451667,0.34641117,1.7669208,-9.26556,-0.5267244
6.1934752,4.6942687,0.48712748,-0.16451667,0.34641117,1.7669208,-9.26556,-0.5267244
6.193714,4.6946845,0.4754096,-0.1666472,0.36239013,1.8435353,-9.174581,-0.5315128
6.1939526,4.6951,0.4754096,-0.1666472,0.36239013,1.8435353,-9.174581,-0.5315128
6.1942024,4.695508,0.46369168,-0.17090826,0.37730384,2.030283,-9.150639,-0.5315128
6.194452,4.695916,0.46369168,-0.17090826,0.37730384,2.030283,-9.150639,-0.5315128
6.1947145,4.696312,0.44984323,-0.1730388,0.3911523,2.1452048,-9.050082,-0.545878
6.194977,4.6967072,0.44984323,-0.1730388,0.3911523,2.1452048,-9.050082,-0.545878
6.195249,4.697094,0.4359948,-0.17410405,0.40287018,2.27928,-9.064447,-0.521936
6.1955204,4.69748,0.4359948,-0.17410405,0.40287018,2.27928,-9.064447,-0.521936
6.195804,4.6978517,0.4210811,-0.17090826,0.4145881,2.3654714,-9.064447,-0.545878
6.1960883,4.698224,0.4210811,-0.17090826,0.4145881,2.3654714,-9.064447,-0.545878
6.1963816,4.69858,0.4061674,-0.16238615,0.42417547,2.4277205,-9.121908,-0.56982
6.1966743,4.6989355,0.4061674,-0.16238615,0.42417547,2.4277205,-9.121908,-0.56982
6.196977,4.69928,0.39018843,-0.15066823,0.43482813,2.4516625,-9.126697,-0.5363012
6.1972795,4.6996236,0.39018843,-0.15066823,0.43482813,2.4516625,-9.126697,-0.5363012
6.19759,4.699955,0.37420946,-0.133624,0.44335026,2.4660277,-9.093178,-0.51235914
6.197888,4.700273,0.37420946,-0.133624,0.44335026,2.4660277,-9.093178,-0.51235914
6.1982036,4.7005873,0.35609996,-0.11551451,0.44867656,2.4612393,-9.064447,-0.51714754
6.198531,4.7009134,0.35609996,-0.11551451,0.44867656,2.4612393,-9.064447,-0.51714754
6.198849,4.701211,0.3369252,-0.09420922,0.45293763,2.4277205,-9.083601,-0.48362875
6.199167,4.7015076,0.3369252,-0.09420922,0.45293763,2.4277205,-9.083601,-0.48362875
6.1995134,4.701804,0.31668517,-0.07290393,0.45506814,2.3894134,-9.131485,-0.521936
6.1995134,4.701804,0.31668517,-0.07290393,0.45506814,2.3894134,-9.131485,-0.521936
6.199837,4.7020817,0.31668517,-0.07290393,0.45506814,2.3894134,-9.131485,-0.521936
6.200471,4.7025795,0.29751042,-0.05372917,0.45719868,2.336741,-9.059659,-0.5410896
6.200471,4.7025795,0.29751042,-0.05372917,0.45719868,2.336741,-9.059659,-0.5410896
6.20112,4.703054,0.27940091,-0.035619672,0.45826393,2.3223755,-9.093178,-0.5410896
6.20112,4.703054,0.27940091,-0.035619672,0.45826393,2.3223755,-9.093178,-0.5410896
6.2015667,4.7033525,0.26022616,-0.017510178,0.45932922,2.3175871,-9.155427,-0.5554548
6.201854,4.7035446,0.26022616,-0.017510178,0.45932922,2.3175871,-9.155427,-0.5554548
6.202431,4.7038913,0.24318193,-0.0015312112,0.45826393,2.2601264,-9.160215,-0.60812724
6.202756,4.7040825,0.22720297,0.013382491,0.45826393,2.327164,-9.246407,-0.521936
6.202756,4.7040825,0.22720297,0.013382491,0.45826393,2.327164,-9.246407,-0.521936
6.203407,4.704458,0.211224,0.029361458,0.45826393,2.27928,-9.260772,-0.44532153
6.2037306,4.704639,0.211224,0.029361458,0.45826393,2.27928,-9.260772,-0.44532153
6.204047,4.7048025,0.1963103,0.047470953,0.4508071,2.3175871,-9.375694,-0.50278234
6.204047,4.7048025,0.1963103,0.047470953,0.4508071,2.3175871,-9.375694,-0.50278234
6.2046742,4.7051167,0.18246186,0.06558045,0.44228497,2.231396,-9.466674,-0.49320555
6.204986,4.705268,0.18246186,0.06558045,0.44228497,2.231396,-9.466674,-0.49320555
6.2052817,4.7054114,0.16861342,0.086885735,0.43163234,2.183512,-9.586384,-0.40222588
6.205578,4.705555,0.16861342,0.086885735,0.43163234,2.183512,-9.586384,-0.40222588
6.2058625,4.705684,0.15476498,0.10712577,0.41884917,2.111686,-9.65821,-0.41180268
6.2061462,4.705813,0.15476498,0.10712577,0.41884917,2.111686,-9.65821,-0.41180268
6.2064195,4.705921,0.14198181,0.12949632,0.40180492,2.0111294,-9.821015,-0.49320555
6.206692,4.706029,0.14198181,0.12949632,0.40180492,2.0111294,-9.821015,-0.49320555
6.2069435,4.7061253,0.1270681,0.1508016,0.38156492,1.8674773,-9.907207,-0.4261679
6.2071958,4.7062216,0.1270681,0.1508016,0.38156492,1.8674773,-9.907207,-0.4261679
6.20743,4.7063055,0.11428493,0.17210689,0.3634554,1.8195933,-10.036493,-0.4213795
6.207664,4.706389,0.11428493,0.17210689,0.3634554,1.8195933,-10.036493,-0.4213795
6.2078757,4.706464,0.102567025,0.19021639,0.34108487,1.7142484,-10.160992,-0.36870706
6.2080865,4.7065387,0.102567025,0.19021639,0.34108487,1.7142484,-10.160992,-0.36870706
6.20828,4.7065935,0.091914386,0.20299956,0.3155185,1.6424223,-10.232818,-0.4357447
6.208466,4.706646,0.091914386,0.20299956,0.3155185,1.6424223,-10.232818,-0.4357447
6.208636,4.706689,0.082327,0.21152169,0.2888869,1.5131354,-10.275913,-0.40701428
6.2088113,4.706733,0.082327,0.21152169,0.2888869,1.5131354,-10.275913,-0.40701428
6.2089615,4.706762,0.075935416,0.216848,0.26225528,1.4460979,-10.290278,-0.44532153
6.209111,4.7067904,0.075935416,0.216848,0.26225528,1.4460979,-10.290278,-0.44532153
6.209239,4.7068076,0.06954383,0.21897852,0.23242788,1.3551182,-10.314221,-0.44532153
6.209367,4.7068253,0.06954383,0.21897852,0.23242788,1.3551182,-10.314221,-0.44532153
6.209471,4.7068324,0.06528277,0.216848,0.20153521,1.2162545,-10.309433,-0.40701428
6.2095757,4.7068396,0.06528277,0.216848,0.20153521,1.2162545,-10.309433,-0.40701428
6.209648,4.7068458,0.062086977,0.21365221,0.17277306,1.1444284,-10.371682,-0.33039984
6.2097206,4.706852,0.062086977,0.21365221,0.17277306,1.1444284,-10.371682,-0.33039984
6.2097473,4.7068744,0.058891185,0.20939115,0.14720672,0.9864111,-10.405201,-0.15322891
6.2097735,4.706897,0.058891185,0.20939115,0.14720672,0.9864111,-10.405201,-0.15322891
6.2097735,4.706897,0.058891185,0.2051301,0.12483617,0.8571242,-10.443508,-0.10534488
6.2097864,4.7069106,0.058891185,0.2051301,0.12483617,0.8571242,-10.443508,-0.10534488
6.209899,4.7070937,0.058891185,0.20086904,0.10566141,0.7757214,-10.510546,0.076614454
6.21,4.707266,0.058891185,0.20086904,0.10566141,0.7757214,-10.510546,0.076614454
6.2101436,4.7074304,0.05995645,0.19767325,0.088617176,0.641646,-10.5440645,0.15801731
6.2102866,4.7075953,0.05995645,0.19767325,0.088617176,0.641646,-10.5440645,0.15801731
6.210442,4.7077518,0.06315224,0.19128166,0.07476874,0.48841715,-10.58716,0.22505496
6.210598,4.7079086,0.06315224,0.19128166,0.07476874,0.48841715,-10.58716,0.22505496
6.210744,4.70807,0.06847856,0.18275954,0.06624663,0.35434186,-10.572795,0.35913026
6.2108903,4.708231,0.06847856,0.18275954,0.06624663,0.35434186,-10.572795,0.35913026
6.211043,4.708393,0.07700068,0.17104164,0.059855036,0.37349546,-10.577583,0.25857377
6.2111955,4.7085547,0.07700068,0.17104164,0.059855036,0.37349546,-10.577583,0.25857377
6.211335,4.708732,0.087653324,0.15612793,0.05772451,0.35434186,-10.524911,0.34476504
6.2114744,4.70891,0.087653324,0.15612793,0.05772451,0.35434186,-10.524911,0.34476504
6.211621,4.709096,0.1004365,0.13801843,0.058789775,0.29209262,-10.46745,0.35434186
6.2117677,4.7092814,0.1004365,0.13801843,0.058789775,0.29209262,-10.46745,0.35434186
6.2119064,4.709487,0.1153502,0.11458261,0.06305083,0.34476504,-10.357317,0.39264908
6.2120447,4.7096915,0.1153502,0.11458261,0.06305083,0.34476504,-10.357317,0.39264908
6.212178,4.7099166,0.13026391,0.089016266,0.071572945,0.4309563,-10.299856,0.40222588
6.212311,4.7101407,0.13026391,0.089016266,0.071572945,0.4309563,-10.299856,0.40222588
6.212448,4.7103815,0.14624287,0.06344992,0.08222559,0.50757074,-10.295067,0.33997664
6.2125854,4.7106223,0.14624287,0.06344992,0.08222559,0.50757074,-10.295067,0.33997664
6.212694,4.7108865,0.1632871,0.03681831,0.09500877,0.6703765,-10.242394,0.35913026
6.212803,4.7111497,0.1632871,0.03681831,0.09500877,0.6703765,-10.242394,0.35913026
6.212878,4.7114267,0.18033133,0.011251962,0.1088572,0.8475474,-10.247183,0.33997664
6.2129526,4.7117033,0.18033133,0.011251962,0.1088572,0.8475474,-10.247183,0.33997664
6.213003,4.71198,0.19417977,-0.010053327,0.12590143,1.0007763,-10.13705,0.30645782
6.2130513,4.712244,0.19417977,-0.010053327,0.12590143,1.0007763,-10.13705,0.30645782
6.213114,4.712539,0.21015874,-0.029228088,0.14401093,1.1013328,-10.036493,0.36870706
6.2131743,4.7128267,0.21015874,-0.029228088,0.14401093,1.1013328,-10.036493,0.36870706
6.2132273,4.713107,0.22400717,-0.044141788,0.16212043,1.2593501,-9.988609,0.31124622
6.2132797,4.7133884,0.22400717,-0.044141788,0.16212043,1.2593501,-9.988609,0.31124622
6.2133436,4.7136745,0.23679034,-0.054794434,0.18022992,1.316811,-9.993398,0.29209262
6.2134075,4.71396,0.23679034,-0.054794434,0.18022992,1.316811,-9.993398,0.29209262
6.213494,4.71426,0.24957353,-0.060120758,0.20046994,1.412579,-9.950302,0.35913026
6.2135797,4.7145605,0.24957353,-0.060120758,0.20046994,1.412579,-9.950302,0.35913026
6.213678,4.714861,0.26022616,-0.06331655,0.22070996,1.508347,-9.892841,0.32561144
6.213678,4.714861,0.26022616,-0.06331655,0.22070996,1.508347,-9.892841,0.32561144
6.213776,4.7151628,0.26981354,-0.062251285,0.24201526,1.5562311,-9.816227,0.31124622
6.214009,4.715775,0.26981354,-0.062251285,0.24201526,1.5562311,-9.816227,0.31124622
6.214148,4.716089,0.2772704,-0.059055492,0.26438582,1.6184803,-9.830592,0.34955344
6.2142878,4.716405,0.2772704,-0.059055492,0.26438582,1.6184803,-9.830592,0.34955344
6.214446,4.716724,0.2857925,-0.054794434,0.2856911,1.6519991,-9.758766,0.32561144
6.2146034,4.717043,0.2857925,-0.054794434,0.2856911,1.6519991,-9.758766,0.32561144
6.214779,4.71736,0.29111883,-0.048402846,0.30806166,1.6472107,-9.734824,0.25857377
6.2149544,4.717676,0.29111883,-0.048402846,0.30806166,1.6472107,-9.734824,0.25857377
6.2151546,4.7180037,0.29751042,-0.04201126,0.3304322,1.70946,-9.653421,0.31603462
6.2153544,4.718331,0.29751042,-0.04201126,0.3304322,1.70946,-9.653421,0.31603462
6.215577,4.718663,0.3017715,-0.033489145,0.35280275,1.733402,-9.634268,0.33039984
6.2158,4.718995,0.3017715,-0.033489145,0.35280275,1.733402,-9.634268,0.33039984
6.216036,4.7193146,0.30603254,-0.02496703,0.37410805,1.8052281,-9.557653,0.20111294
6.216274,4.7196355,0.30603254,-0.02496703,0.37410805,1.8052281,-9.557653,0.20111294
6.216533,4.7199655,0.30816308,-0.016444914,0.39434808,1.7908629,-9.504981,0.2633622
6.2167926,4.720295,0.30816308,-0.016444914,0.39434808,1.7908629,-9.504981,0.2633622
6.2170696,4.720619,0.30816308,-0.007922798,0.41352284,1.8674773,-9.433155,0.23463176
6.2173467,4.7209444,0.30816308,-0.007922798,0.41352284,1.8674773,-9.433155,0.23463176
6.217639,4.721268,0.3070978,0.0027298466,0.4295018,1.8626889,-9.375694,0.23942018
6.2179327,4.7215934,0.3070978,0.0027298466,0.4295018,1.8626889,-9.375694,0.23942018
6.218237,4.7219105,0.30496728,0.013382491,0.44228497,1.8674773,-9.394848,0.19153613
6.2185416,4.7222276,0.30496728,0.013382491,0.44228497,1.8674773,-9.394848,0.19153613
6.218858,4.722538,0.30283675,0.0251004,0.45506814,1.9249382,-9.351752,0.15322891
6.219174,4.7228484,0.30283675,0.0251004,0.45506814,1.9249382,-9.351752,0.15322891
6.219497,4.723157,0.29964095,0.040014103,0.462525,1.9201498,-9.370906,0.16759412
6.219822,4.7234664,0.29964095,0.040014103,0.462525,1.9201498,-9.370906,0.16759412
6.2201486,4.723758,0.29324937,0.053862542,0.4657208,1.910573,-9.351752,0.062249243
6.220475,4.72405,0.29324937,0.053862542,0.4657208,1.910573,-9.351752,0.062249243
6.220802,4.724334,0.2857925,0.06664571,0.4657208,1.8674773,-9.3661175,0.05746084
6.2211285,4.724618,0.2857925,0.06664571,0.4657208,1.8674773,-9.3661175,0.05746084
6.2214527,4.724888,0.27833566,0.07836362,0.46359026,1.8339585,-9.370906,0.009576807
6.221779,4.7251596,0.27833566,0.07836362,0.46359026,1.8339585,-9.370906,0.009576807
6.2221,4.7254143,0.26768303,0.090081535,0.45826393,1.7764976,-9.390059,-0.038307227
6.2224207,4.7256684,0.26768303,0.090081535,0.45826393,1.7764976,-9.390059,-0.038307227
6.2227354,4.725912,0.25809565,0.09966891,0.4508071,1.7142484,-9.337387,-0.04309563
6.223049,4.7261553,0.25809565,0.09966891,0.4508071,1.7142484,-9.337387,-0.04309563
6.2233553,4.726388,0.24744299,0.10712577,0.44335026,1.6472107,-9.289502,-0.033518825
6.2236633,4.7266216,0.24744299,0.10712577,0.44335026,1.6472107,-9.289502,-0.033518825
6.223957,4.7268453,0.23679034,0.11351735,0.43163234,1.6519991,-9.289502,-0.01436521
6.2242527,4.7270703,0.23679034,0.11351735,0.43163234,1.6519991,-9.289502,-0.01436521
6.2245364,4.727289,0.2261377,0.117778406,0.42097968,1.5514427,-9.255983,0.038307227
6.2248197,4.7275085,0.2261377,0.117778406,0.42097968,1.5514427,-9.255983,0.038307227
6.225091,4.727723,0.2144198,0.11990894,0.41032705,1.5227122,-9.193734,0.10055647
6.225364,4.7279387,0.2144198,0.11990894,0.41032705,1.5227122,-9.193734,0.10055647
6.2256284,4.7281365,0.20270188,0.1209742,0.40180492,1.4460979,-9.14585,0.06703765
6.225893,4.7283344,0.20270188,0.1209742,0.40180492,1.4460979,-9.14585,0.06703765
6.226146,4.728524,0.19204924,0.12203947,0.39221755,1.364695,-9.083601,0.095768064
6.2264013,4.728715,0.19204924,0.12203947,0.39221755,1.364695,-9.083601,0.095768064
6.226645,4.728905,0.18246186,0.12417,0.38156492,1.316811,-9.088389,0.15322891
6.226889,4.729095,0.18246186,0.12417,0.38156492,1.316811,-9.088389,0.15322891
6.2271204,4.729281,0.17074396,0.12630053,0.36878175,1.2497733,-9.126697,0.20111294
6.2273526,4.729468,0.17074396,0.12630053,0.36878175,1.2497733,-9.126697,0.20111294
6.2275763,4.7296576,0.15796077,0.12949632,0.35599855,1.1444284,-9.165004,0.272939
6.2278,4.729847,0.15796077,0.12949632,0.35599855,1.1444284,-9.165004,0.272939
6.2280135,4.7300296,0.1451776,0.13375737,0.34428066,1.0534488,-9.193734,0.2873042
6.228228,4.730212,0.1451776,0.13375737,0.34428066,1.0534488,-9.193734,0.2873042
6.228445,4.730406,0.13452496,0.1358879,0.33256274,0.90500826,-9.217676,0.33997664
6.2286625,4.7306,0.13452496,0.1358879,0.33256274,0.90500826,-9.217676,0.33997664
6.2288876,4.7307997,0.12387232,0.13695318,0.32191008,0.78050977,-9.279925,0.35913026
6.229112,4.7309995,0.12387232,0.13695318,0.32191008,0.78050977,-9.279925,0.35913026
6.229372,4.7312098,0.11321967,0.13375737,0.31125745,0.6847417,-9.3421755,0.47884035
6.2296324,4.731421,0.11321967,0.13375737,0.31125745,0.6847417,-9.3421755,0.47884035
6.2298894,4.7316256,0.105762824,0.12949632,0.30060482,0.60333884,-9.370906,0.38307226
6.230146,4.7318316,0.105762824,0.12949632,0.30060482,0.60333884,-9.370906,0.38307226
6.2303963,4.7320304,0.09937123,0.12203947,0.29314795,0.63206923,-9.409213,0.45489833
6.2306457,4.7322283,0.09937123,0.12203947,0.29314795,0.63206923,-9.409213,0.45489833
6.230876,4.7324166,0.09297965,0.11138682,0.28462583,0.6464345,-9.404425,0.4309563
6.2311068,4.7326055,0.09297965,0.11138682,0.28462583,0.6464345,-9.404425,0.4309563
6.2311068,4.7326055,0.09297965,0.11138682,0.28462583,0.6464345,-9.404425,0.4309563
6.231571,4.7329803,0.087653324,0.09860365,0.27823424,0.6512229,-9.44752,0.46447513
6.2317624,4.7331467,0.08552279,0.08475521,0.2707774,0.7230489,-9.461885,0.45489833
6.2319617,4.73332,0.08552279,0.08475521,0.2707774,0.7230489,-9.461885,0.45489833
6.2321353,4.73348,0.08126174,0.07090677,0.26332054,0.7374141,-9.495404,0.39743748
6.2321353,4.73348,0.08126174,0.07090677,0.26332054,0.7374141,-9.495404,0.39743748
6.232316,4.733646,0.08126174,0.07090677,0.26332054,0.7374141,-9.495404,0.39743748
6.232316,4.733646,0.08126174,0.07090677,0.26332054,0.7374141,-9.495404,0.39743748
6.232852,4.73411,0.075935416,0.0581236,0.25692895,0.7278373,-9.514558,0.50278234
6.232891,4.734147,0.07167436,0.045340426,0.24627632,0.7757214,-9.471462,0.4309563
6.233173,4.734418,0.06634804,0.03468778,0.2345584,0.7565677,-9.44752,0.46926352
6.23332,4.73456,0.06634804,0.03468778,0.2345584,0.7565677,-9.44752,0.46926352
6.233457,4.7346992,0.062086977,0.024035135,0.22390577,0.80924016,-9.504981,0.49799395
6.233593,4.734838,0.062086977,0.024035135,0.22390577,0.80924016,-9.504981,0.49799395
6.233711,4.7349677,0.056760654,0.014447756,0.21112259,0.81881696,-9.471462,0.48362875
6.233829,4.735098,0.056760654,0.014447756,0.21112259,0.81881696,-9.471462,0.48362875
6.2339277,4.7352185,0.0524996,0.0069909045,0.19833942,0.8523358,-9.433155,0.47884035
6.2340264,4.735339,0.0524996,0.0069909045,0.19833942,0.8523358,-9.433155,0.47884035
6.2341037,4.735447,0.047173277,-0.0015312112,0.1866215,0.8331822,-9.428367,0.4213795
6.234181,4.7355547,0.047173277,-0.0015312112,0.1866215,0.8331822,-9.428367,0.4213795
6.234239,4.7356534,0.04291222,-0.011118591,0.17170781,0.8475474,-9.452309,0.41180268
6.234298,4.7357535,0.04291222,-0.011118591,0.17170781,0.8475474,-9.452309,0.41180268
6.234357,4.7358537,0.03545537,-0.017510178,0.16212043,0.8714894,-9.41879,0.48362875
6.234417,4.735956,0.03545537,-0.017510178,0.16212043,0.8714894,-9.41879,0.48362875
6.2344584,4.7360444,0.031194309,-0.02496703,0.15146779,0.93373865,-9.394848,0.48841715
6.2345004,4.7361345,0.031194309,-0.02496703,0.15146779,0.93373865,-9.394848,0.48841715
6.234517,4.736203,0.025867987,-0.03242388,0.14081514,0.9816227,-9.332599,0.41180268
6.2345333,4.736272,0.025867987,-0.03242388,0.14081514,0.9816227,-9.332599,0.41180268
6.2345486,4.7363424,0.02160693,-0.03881547,0.13442355,0.9911995,-9.3182335,0.45489833
6.234564,4.7364135,0.02160693,-0.03881547,0.13442355,0.9911995,-9.3182335,0.45489833
6.234578,4.7364836,0.016280606,-0.043076526,0.12909722,0.9528923,-9.275137,0.46926352
6.2345924,4.736553,0.016280606,-0.043076526,0.12909722,0.9528923,-9.275137,0.46926352
6.234605,4.736619,0.010954284,-0.048402846,0.12590143,1.0007763,-9.193734,0.50278234
6.234617,4.7366843,0.010954284,-0.048402846,0.12590143,1.0007763,-9.193734,0.50278234
6.2346244,4.7367406,0.0077584907,-0.05372917,0.1269667,1.0390835,-9.184157,0.47884035
6.234632,4.7367964,0.0077584907,-0.05372917,0.1269667,1.0390835,-9.184157,0.47884035
6.23464,4.7368503,0.003497433,-0.05692496,0.12590143,1.0295067,-9.097966,0.48841715
6.2346478,4.7369037,0.003497433,-0.05692496,0.12590143,1.0295067,-9.097966,0.48841715
6.2346697,4.7369614,-0.0018288894,-0.059055492,0.12909722,1.0103531,-9.02614,0.5602432
6.2346916,4.7370195,-0.0018288894,-0.059055492,0.12909722,1.0103531,-9.02614,0.5602432
6.2347074,4.737062,-0.0071552116,-0.060120758,0.13335828,1.0342951,-8.959103,0.49320555
6.2347226,4.737105,-0.0071552116,-0.060120758,0.13335828,1.0342951,-8.959103,0.49320555
6.2347426,4.7371435,-0.013546798,-0.060120758,0.13548881,1.0295067,-8.920795,0.50757074
6.234762,4.7371817,-0.013546798,-0.060120758,0.13548881,1.0295067,-8.920795,0.50757074
6.2347927,4.737221,-0.018873122,-0.059055492,0.13974987,1.0342951,-8.887277,0.5602432
6.2348228,4.7372594,-0.018873122,-0.059055492,0.13974987,1.0342951,-8.887277,0.5602432
6.2348495,4.7372804,-0.025264706,-0.057990227,0.14720672,1.067814,-8.90643,0.48362875
6.2348757,4.7373013,-0.025264706,-0.057990227,0.14720672,1.067814,-8.90643,0.48362875
6.23491,4.737317,-0.032721557,-0.05692496,0.15359831,1.043872,-8.920795,0.48841715
6.2349443,4.737333,-0.032721557,-0.05692496,0.15359831,1.043872,-8.920795,0.48841715
6.234987,4.737342,-0.041243672,-0.05692496,0.1599899,1.0199299,-8.939949,0.49320555
6.235029,4.737351,-0.041243672,-0.05692496,0.1599899,1.0199299,-8.939949,0.49320555
6.2350826,4.737359,-0.048700526,-0.059055492,0.16425095,1.0007763,-8.963891,0.5315128
6.2351356,4.7373667,-0.048700526,-0.059055492,0.16425095,1.0007763,-8.963891,0.5315128
6.2351847,4.737359,-0.05509211,-0.060120758,0.16957727,0.9864111,-8.963891,0.45968673
6.2352343,4.7373514,-0.05509211,-0.060120758,0.16957727,0.9864111,-8.963891,0.45968673
6.235289,4.737335,-0.062548965,-0.062251285,0.17596887,1.0007763,-9.002198,0.45968673
6.235344,4.737319,-0.062548965,-0.062251285,0.17596887,1.0007763,-9.002198,0.45968673
6.235405,4.7372994,-0.06894055,-0.064381815,0.17916466,0.94810385,-9.030929,0.45968673
6.235466,4.737281,-0.06894055,-0.064381815,0.17916466,0.94810385,-9.030929,0.45968673
6.2355423,4.737267,-0.075332135,-0.06544708,0.18129519,0.91937345,-9.088389,0.5315128
6.2356186,4.737253,-0.075332135,-0.06544708,0.18129519,0.91937345,-9.088389,0.5315128
6.2356935,4.73723,-0.08065846,-0.06757761,0.18555625,0.91458505,-9.150639,0.49320555
6.235769,4.737206,-0.08065846,-0.06757761,0.18555625,0.91458505,-9.150639,0.49320555
6.2358375,4.7371693,-0.08598478,-0.07290393,0.18768677,0.91937345,-9.246407,0.44532153
6.235906,4.737132,-0.08598478,-0.07290393,0.18768677,0.91937345,-9.246407,0.44532153
6.235977,4.7370915,-0.09024584,-0.077164985,0.18875204,1.0103531,-9.356541,0.49320555
6.236048,4.737051,-0.09024584,-0.077164985,0.18875204,1.0103531,-9.356541,0.49320555
6.236119,4.7370048,-0.093441635,-0.08249131,0.19088256,1.0151415,-9.476251,0.47884035
6.2361894,4.7369585,-0.093441635,-0.08249131,0.19088256,1.0151415,-9.476251,0.47884035
6.236245,4.736888,-0.0945069,-0.08781763,0.19088256,1.1348516,-9.5385,0.38307226
6.236301,4.7368183,-0.0945069,-0.08781763,0.19088256,1.1348516,-9.5385,0.38307226
6.2363505,4.7367377,-0.0945069,-0.09633975,0.18875204,1.2641385,-9.610326,0.34476504
6.2364,4.736657,-0.0945069,-0.09633975,0.18875204,1.2641385,-9.610326,0.34476504
6.236446,4.736581,-0.093441635,-0.10273133,0.18342571,1.292869,-9.706094,0.37349546
6.236491,4.736505,-0.093441635,-0.10273133,0.18342571,1.292869,-9.706094,0.37349546
6.236531,4.7364154,-0.09024584,-0.109122925,0.18129519,1.3503298,-9.787497,0.272939
6.23657,4.7363253,-0.09024584,-0.109122925,0.18129519,1.3503298,-9.787497,0.272939
6.236604,4.7362347,-0.08598478,-0.11338398,0.17703412,1.4077905,-9.849746,0.23942018
6.236639,4.736144,-0.08598478,-0.11338398,0.17703412,1.4077905,-9.849746,0.23942018
6.236665,4.736059,-0.08278899,-0.11657977,0.16851202,1.4317327,-9.964667,0.2633622
6.236691,4.735975,-0.08278899,-0.11657977,0.16851202,1.4317327,-9.964667,0.2633622
6.236708,4.7358885,-0.07852793,-0.11764504,0.1599899,1.5658079,-9.931149,0.21547815
6.236726,4.735802,-0.07852793,-0.11764504,0.1599899,1.5658079,-9.931149,0.21547815
6.236737,4.735731,-0.07426687,-0.11657977,0.15253304,1.5753847,-10.0029745,0.30645782
6.2367477,4.7356606,-0.07426687,-0.11657977,0.15253304,1.5753847,-10.0029745,0.30645782
6.236748,4.735585,-0.07000581,-0.11125345,0.14294566,1.6280571,-10.04607,0.23463176
6.2367487,4.73551,-0.07000581,-0.11125345,0.14294566,1.6280571,-10.04607,0.23463176
6.236739,4.735443,-0.06574476,-0.10486186,0.13229302,1.6472107,-10.007763,0.2681506
6.2367296,4.7353764,-0.06574476,-0.10486186,0.13229302,1.6472107,-10.007763,0.2681506
6.2367096,4.7353106,-0.062548965,-0.09740501,0.12164038,1.685518,-10.103531,0.23463176
6.236689,4.735244,-0.062548965,-0.09740501,0.12164038,1.685518,-10.103531,0.23463176
6.236656,4.735182,-0.058287904,-0.08462184,0.1088572,1.6567876,-10.079589,0.23463176
6.2366233,4.73512,-0.058287904,-0.08462184,0.1088572,1.6567876,-10.079589,0.23463176
6.236579,4.7350698,-0.05509211,-0.07183866,0.09607403,1.6136919,-10.0748005,0.29688102
6.2365346,4.7350197,-0.05509211,-0.07183866,0.09607403,1.6136919,-10.0748005,0.29688102
6.23648,4.734976,-0.052961584,-0.057990227,0.08542138,1.5658079,-10.089166,0.32561144
6.2364264,4.734933,-0.052961584,-0.057990227,0.08542138,1.5658079,-10.089166,0.32561144
6.2363605,4.73489,-0.049765788,-0.043076526,0.073703475,1.5562311,-10.089166,0.30166942
6.2362947,4.734848,-0.049765788,-0.043076526,0.073703475,1.5562311,-10.089166,0.30166942
6.2362204,4.7348137,-0.046569996,-0.028162822,0.0641161,1.5131354,-10.103531,0.33039984
6.236146,4.7347794,-0.046569996,-0.028162822,0.0641161,1.5131354,-10.103531,0.33039984
6.236063,4.734741,-0.04443947,-0.016444914,0.056659244,1.4460979,-10.079589,0.2777274
6.2359805,4.7347035,-0.04443947,-0.016444914,0.056659244,1.4460979,-10.079589,0.2777274
6.2358913,4.7346764,-0.041243672,-0.005792269,0.049202394,1.4173675,-10.079589,0.320823
6.2358027,4.7346487,-0.041243672,-0.005792269,0.049202394,1.4173675,-10.079589,0.320823
6.235712,4.734621,-0.03804788,0.0069909045,0.04813713,1.4173675,-10.0508585,0.29209262
6.2356224,4.734594,-0.03804788,0.0069909045,0.04813713,1.4173675,-10.0508585,0.29209262
6.235528,4.734571,-0.033786822,0.01551302,0.04387607,1.3503298,-10.0508585,0.2873042
6.2354326,4.7345476,-0.033786822,0.01551302,0.04387607,1.3503298,-10.0508585,0.2873042
6.235334,4.7345285,-0.0284605,0.022969872,0.039615013,1.3503298,-10.01734,0.272939
6.2352357,4.7345095,-0.0284605,0.022969872,0.039615013,1.3503298,-10.01734,0.272939
6.235135,4.734493,-0.02313418,0.030426722,0.03854975,1.3455414,-9.998186,0.25378537
6.2350345,4.734476,-0.02313418,0.030426722,0.03854975,1.3455414,-9.998186,0.25378537
6.2349353,4.7344685,-0.01674259,0.03468778,0.039615013,1.3455414,-9.974244,0.2633622
6.2348366,4.73446,-0.01674259,0.03468778,0.039615013,1.3455414,-9.974244,0.2633622
6.2347417,4.734464,-0.009285741,0.037883572,0.042810805,1.340753,-9.950302,0.29209262
6.2346473,4.7344685,-0.009285741,0.037883572,0.042810805,1.340753,-9.950302,0.29209262
6.234556,4.7344823,-0.0028941538,0.04107937,0.0460066,1.3120226,-9.89763,0.30645782
6.234465,4.734496,-0.0028941538,0.04107937,0.0460066,1.3120226,-9.89763,0.30645782
6.2343774,4.734511,0.003497433,0.043209895,0.05026766,1.3024458,-9.888053,0.272939
6.23429,4.734525,0.003497433,0.043209895,0.05026766,1.3024458,-9.888053,0.272939
6.2342086,4.734543,0.00988902,0.040014103,0.05772451,1.283292,-9.849746,0.24899697
6.2341266,4.73456,0.00988902,0.040014103,0.05772451,1.283292,-9.849746,0.24899697
6.2340546,4.734584,0.015215342,0.037883572,0.06731189,1.2689269,-9.821015,0.25378537
6.2339845,4.7346067,0.015215342,0.037883572,0.06731189,1.2689269,-9.821015,0.25378537
6.2339206,4.7346277,0.02160693,0.035753045,0.07476874,1.3311762,-9.749189,0.20590134
6.233856,4.7346497,0.02160693,0.035753045,0.07476874,1.3311762,-9.749189,0.20590134
6.233803,4.734684,0.030129045,0.032557253,0.08542138,1.3263878,-9.720459,0.23463176
6.2337494,4.7347183,0.030129045,0.032557253,0.08542138,1.3263878,-9.720459,0.23463176
6.233705,4.734756,0.03545537,0.028296193,0.09500877,1.388637,-9.677363,0.22026655
6.2336607,4.7347937,0.03545537,0.028296193,0.09500877,1.388637,-9.677363,0.22026655
6.2336283,4.7348366,0.041846953,0.024035135,0.106726676,1.388637,-9.634268,0.21547815
6.233596,4.734879,0.041846953,0.024035135,0.106726676,1.388637,-9.634268,0.21547815
6.2335706,4.7349176,0.04610801,0.020839343,0.11418352,1.412579,-9.600749,0.15801731
6.233546,4.734956,0.04610801,0.020839343,0.11418352,1.412579,-9.600749,0.15801731
6.23353,4.735002,0.051434334,0.017643549,0.12377091,1.4413095,-9.548077,0.17238252
6.2335143,4.735048,0.051434334,0.017643549,0.12377091,1.4413095,-9.548077,0.17238252
6.233507,4.735093,0.055695392,0.016578285,0.13229302,1.3934253,-9.509769,0.1436521
6.2335005,4.7351384,0.055695392,0.016578285,0.13229302,1.3934253,-9.509769,0.1436521
6.2335005,4.735191,0.056760654,0.020839343,0.13974987,1.4077905,-9.543288,0.18195933
6.233501,4.735243,0.056760654,0.020839343,0.13974987,1.4077905,-9.543288,0.18195933
6.2335076,4.7353044,0.05782592,0.02723093,0.14614145,1.4221559,-9.552865,0.22984336
6.233515,4.735365,0.05782592,0.02723093,0.14614145,1.4221559,-9.552865,0.22984336
6.2335277,4.7354383,0.058891185,0.033622514,0.15040252,1.3072342,-9.710882,0.30166942
6.2335405,4.735512,0.058891185,0.033622514,0.15040252,1.3072342,-9.710882,0.30166942
6.2335544,4.7355742,0.056760654,0.04214463,0.15253304,1.3120226,-9.744401,0.24899697
6.2335687,4.7356367,0.056760654,0.04214463,0.15253304,1.3120226,-9.744401,0.24899697
6.233584,4.735712,0.054630127,0.049601484,0.15146779,1.2689269,-9.835381,0.33039984
6.2335997,4.7357864,0.054630127,0.049601484,0.15146779,1.2689269,-9.835381,0.33039984
6.2335997,4.7357864,0.054630127,0.049601484,0.15146779,1.2689269,-9.835381,0.33039984
6.2335997,4.7357864,0.054630127,0.054927804,0.15253304,1.2401965,-9.892841,0.2681506
6.2335997,4.7357864,0.05356486,0.05918886,0.15146779,1.1971009,-9.921572,0.33518824
6.233656,4.7360487,0.05356486,0.05918886,0.15146779,1.1971009,-9.921572,0.33518824
6.2336664,4.7360964,0.054630127,0.05918886,0.14720672,1.1587936,-9.911995,0.30645782
6.2336764,4.7361665,0.054630127,0.05918886,0.14720672,1.1587936,-9.911995,0.30645782
6.233693,4.736303,0.056760654,0.0581236,0.14401093,1.1587936,-9.92636,0.25857377
6.233693,4.736303,0.056760654,0.0581236,0.14401093,1.1587936,-9.92636,0.25857377
6.2337003,4.736436,0.058891185,0.05599307,0.1386846,1.1061212,-9.931149,0.2825158
6.233701,4.7365074,0.058891185,0.05599307,0.1386846,1.1061212,-9.931149,0.2825158
6.233701,4.7365074,0.058891185,0.05599307,0.1386846,1.1061212,-9.931149,0.2825158
6.23369,4.7366514,0.062086977,0.052797277,0.13229302,1.091756,-9.988609,0.272939
6.2336783,4.7367315,0.06421751,0.047470953,0.12590143,1.0965444,-9.993398,0.30166942
6.2336674,4.7368107,0.06421751,0.047470953,0.12590143,1.0965444,-9.993398,0.30166942
6.233654,4.7369013,0.06634804,0.043209895,0.12164038,1.067814,-10.031705,0.33518824
6.23364,4.736991,0.06634804,0.043209895,0.12164038,1.067814,-10.031705,0.33518824
6.2336287,4.7371,0.06847856,0.038948838,0.11524879,1.0630256,-10.070012,0.4165911
6.233617,4.737208,0.06847856,0.038948838,0.11524879,1.0630256,-10.070012,0.4165911
6.2335987,4.7373214,0.07167436,0.033622514,0.10779194,1.0726024,-10.0748005,0.4309563
6.23358,4.7374344,0.07167436,0.033622514,0.10779194,1.0726024,-10.0748005,0.4309563
6.233553,4.7375455,0.075935416,0.029361458,0.102465615,0.9720459,-10.041282,0.37349546
6.233525,4.7376566,0.075935416,0.029361458,0.102465615,0.9720459,-10.041282,0.37349546
6.233495,4.737778,0.08126174,0.0251004,0.09713929,0.9768343,-10.141838,0.40222588
6.233465,4.7379,0.08126174,0.0251004,0.09713929,0.9768343,-10.141838,0.40222588
6.2334404,4.7380366,0.08445753,0.020839343,0.09287824,0.93373865,-10.16578,0.44532153
6.233415,4.7381735,0.08445753,0.020839343,0.09287824,0.93373865,-10.16578,0.44532153
6.233397,4.7383237,0.08871859,0.016578285,0.09074771,0.90500826,-10.089166,0.48362875
6.233379,4.7384734,0.08871859,0.016578285,0.09074771,0.90500826,-10.089166,0.48362875
6.2333555,4.7386265,0.09404491,0.012317227,0.087551914,0.91458505,-10.1226845,0.47884035
6.233331,4.7387795,0.09404491,0.012317227,0.087551914,0.91458505,-10.1226845,0.47884035
6.2333007,4.7389374,0.10150176,0.008056169,0.08329086,0.90021986,-10.084377,0.45968673
6.233269,4.7390947,0.10150176,0.008056169,0.08329086,0.90021986,-10.084377,0.45968673
6.233238,4.7392616,0.10789335,0.003795111,0.08009506,0.93852705,-10.070012,0.49799395
6.2332067,4.7394276,0.10789335,0.003795111,0.08009506,0.93852705,-10.070012,0.49799395
6.2331753,4.739594,0.10789335,0.003795111,0.08009506,0.93852705,-10.070012,0.49799395
6.2331376,4.7397614,0.1153502,-0.0015312112,0.08009506,0.9768343,-10.089166,0.48362875
6.2331,4.7399287,0.1153502,-0.0015312112,0.08009506,0.9768343,-10.089166,0.48362875
6.2330546,4.740098,0.12600285,-0.0068575335,0.08009506,0.9864111,-10.0987425,0.44532153
6.23301,4.7402673,0.12600285,-0.0068575335,0.08009506,0.9864111,-10.0987425,0.44532153
6.232962,4.74044,0.13452496,-0.012183856,0.08009506,1.0534488,-10.0508585,0.45010993
6.2329144,4.740613,0.13452496,-0.012183856,0.08009506,1.0534488,-10.0508585,0.45010993
6.232863,4.7407894,0.14304708,-0.018575443,0.0790298,1.1348516,-10.022128,0.45010993
6.232811,4.740966,0.14304708,-0.018575443,0.0790298,1.1348516,-10.022128,0.45010993
6.2327533,4.7411375,0.15156919,-0.02496703,0.0790298,1.1875241,-9.964667,0.39264908
6.2326956,4.7413087,0.15156919,-0.02496703,0.0790298,1.1875241,-9.964667,0.39264908
6.2326403,4.741492,0.16009131,-0.029228088,0.08009506,1.2401965,-9.950302,0.4213795
6.232584,4.741676,0.16009131,-0.029228088,0.08009506,1.2401965,-9.950302,0.4213795
6.2325244,4.7418466,0.16541763,-0.03242388,0.08009506,1.2976574,-9.868899,0.33518824
6.2324643,4.7420177,0.16541763,-0.03242388,0.08009506,1.2976574,-9.868899,0.33518824
6.2324038,4.7421937,0.17180921,-0.03455441,0.08009506,1.3024458,-9.873688,0.32561144
6.2323437,4.7423687,0.17180921,-0.03455441,0.08009506,1.3024458,-9.873688,0.32561144
6.2322826,4.742562,0.17607027,-0.033489145,0.0790298,1.3455414,-9.792285,0.38307226
6.232223,4.7427483,0.17607027,-0.033489145,0.0790298,1.3455414,-9.792285,0.38307226
6.232161,4.7429347,0.17926607,-0.031358615,0.07796454,1.388637,-9.753978,0.34955344
6.2320995,4.7431183,0.17926607,-0.031358615,0.07796454,1.388637,-9.753978,0.34955344
6.2320375,4.743306,0.1813966,-0.029228088,0.07796454,1.3838485,-9.749189,0.34955344
6.2319756,4.743493,0.1813966,-0.029228088,0.07796454,1.3838485,-9.749189,0.34955344
6.231914,4.7436814,0.18246186,-0.023901764,0.0790298,1.3455414,-9.706094,0.33997664
6.231853,4.743868,0.18246186,-0.023901764,0.0790298,1.3455414,-9.706094,0.33997664
6.231794,4.7440495,0.1813966,-0.016444914,0.08116033,1.3694834,-9.696517,0.31603462
6.2317343,4.744233,0.1813966,-0.016444914,0.08116033,1.3694834,-9.696517,0.31603462
6.2316732,4.7444186,0.18246186,-0.010053327,0.0790298,1.340753,-9.634268,0.33039984
6.2316127,4.744603,0.18246186,-0.010053327,0.0790298,1.340753,-9.634268,0.33039984
6.2315526,4.7447777,0.1813966,-0.0025964756,0.08009506,1.340753,-9.639056,0.272939
6.231493,4.744952,0.1813966,-0.0025964756,0.08009506,1.340753,-9.639056,0.272939
6.231436,4.7451386,0.17926607,0.0027298466,0.08222559,1.316811,-9.562442,0.35434186
6.231379,4.745325,0.17926607,0.0027298466,0.08222559,1.316811,-9.562442,0.35434186
6.231322,4.745501,0.17713554,0.009121433,0.08222559,1.3072342,-9.509769,0.30645782
6.231264,4.7456775,0.17713554,0.009121433,0.08222559,1.3072342,-9.509769,0.30645782
6.231208,4.7458544,0.175005,0.014447756,0.08329086,1.3024458,-9.437943,0.32561144
6.231152,4.7460318,0.175005,0.014447756,0.08329086,1.3024458,-9.437943,0.32561144
6.231095,4.7462087,0.17287448,0.018708814,0.08222559,1.3263878,-9.476251,0.33518824
6.231038,4.7463846,0.17287448,0.018708814,0.08222559,1.3263878,-9.476251,0.33518824
6.2309823,4.7465563,0.16967869,0.022969872,0.08329086,1.3455414,-9.370906,0.32561144
6.230926,4.7467294,0.16967869,0.022969872,0.08329086,1.3455414,-9.370906,0.32561144
6.230926,4.7467294,0.16967869,0.022969872,0.08329086,1.3455414,-9.370906,0.32561144
6.2308216,4.747044,0.1664829,0.028296193,0.08648665,1.3263878,-9.356541,0.25378537
6.230774,4.7471914,0.16222183,0.031491987,0.089682445,1.3551182,-9.337387,0.23942018
6.230726,4.747341,0.16222183,0.031491987,0.089682445,1.3551182,-9.337387,0.23942018
6.230679,4.747495,0.15902604,0.03681831,0.09181297,1.4077905,-9.323022,0.2825158
6.230632,4.747649,0.15902604,0.03681831,0.09181297,1.4077905,-9.323022,0.2825158
6.2305875,4.747789,0.15263446,0.04107937,0.09287824,1.4221559,-9.270349,0.22505496
6.2305427,4.747928,0.15263446,0.04107937,0.09287824,1.4221559,-9.270349,0.22505496
6.2304974,4.7480674,0.14624287,0.043209895,0.09287824,1.436521,-9.255983,0.2681506
6.230452,4.7482066,0.14624287,0.043209895,0.09287824,1.436521,-9.255983,0.2681506
6.2304077,4.748329,0.14091654,0.047470953,0.09181297,1.4460979,-9.332599,0.19153613
6.2303634,4.748451,0.14091654,0.047470953,0.09181297,1.4460979,-9.332599,0.19153613
6.230319,4.74857,0.13452496,0.05173201,0.09181297,1.4317327,-9.332599,0.21068975
6.230274,4.748688,0.13452496,0.05173201,0.09181297,1.4317327,-9.332599,0.21068975
6.2302303,4.748798,0.12813337,0.054927804,0.09181297,1.460463,-9.323022,0.19153613
6.2301865,4.7489076,0.12813337,0.054927804,0.09181297,1.460463,-9.323022,0.19153613
6.2301407,4.7490263,0.12174179,0.0581236,0.09181297,1.364695,-9.308656,0.30166942
6.2300944,4.7491446,0.12174179,0.0581236,0.09181297,1.364695,-9.308656,0.30166942
6.2300467,4.749254,0.11428493,0.06344992,0.089682445,1.3120226,-9.332599,0.29688102
6.229999,4.7493634,0.11428493,0.06344992,0.089682445,1.3120226,-9.332599,0.29688102
6.2299504,4.7494693,0.10789335,0.069841504,0.088617176,1.2497733,-9.433155,0.320823
6.2299013,4.749575,0.10789335,0.069841504,0.088617176,1.2497733,-9.433155,0.320823
6.2298536,4.749696,0.102567025,0.07729836,0.087551914,1.2401965,-9.490616,0.4261679
6.229806,4.749816,0.102567025,0.07729836,0.087551914,1.2401965,-9.490616,0.4261679
6.2297544,4.7499313,0.09617544,0.08475521,0.08329086,1.1923125,-9.524135,0.4309563
6.229703,4.7500467,0.09617544,0.08475521,0.08329086,1.1923125,-9.524135,0.4309563
6.229651,4.7501597,0.091914386,0.090081535,0.08222559,1.0630256,-9.595961,0.4261679
6.229599,4.750272,0.091914386,0.090081535,0.08222559,1.0630256,-9.595961,0.4261679
6.2295537,4.7504034,0.08871859,0.09434259,0.08009506,1.0247183,-9.634268,0.51235914
6.2295084,4.750534,0.08871859,0.09434259,0.08009506,1.0247183,-9.634268,0.51235914
6.2294703,4.750675,0.08658806,0.09753838,0.07796454,0.9864111,-9.624691,0.5602432
6.2294316,4.7508163,0.08658806,0.09753838,0.07796454,0.9864111,-9.624691,0.5602432
6.229386,4.750943,0.08445753,0.09860365,0.0790298,0.94331545,-9.619903,0.49320555
6.2293396,4.75107,0.08445753,0.09860365,0.0790298,0.94331545,-9.619903,0.49320555
6.2293034,4.7512093,0.08552279,0.09753838,0.08116033,0.90500826,-9.572019,0.5267244
6.229267,4.7513485,0.08552279,0.09753838,0.08116033,0.90500826,-9.572019,0.5267244
6.229237,4.751494,0.087653324,0.09647312,0.08329086,0.90979666,-9.600749,0.5506664
6.2292066,4.7516394,0.087653324,0.09647312,0.08329086,0.90979666,-9.600749,0.5506664
6.229175,4.7517843,0.09084912,0.09327733,0.08542138,0.866701,-9.519346,0.51714754
6.229143,4.751929,0.09084912,0.09327733,0.08542138,0.866701,-9.519346,0.51714754
6.2291226,4.752083,0.091914386,0.090081535,0.088617176,0.89543146,-9.533711,0.56982
6.2291017,4.752237,0.091914386,0.090081535,0.088617176,0.89543146,-9.533711,0.56982
6.229066,4.752373,0.09404491,0.085820474,0.089682445,0.8571242,-9.485827,0.47884035
6.2290297,4.752509,0.09404491,0.085820474,0.089682445,0.8571242,-9.485827,0.47884035
6.2290144,4.75267,0.09617544,0.08155942,0.09181297,0.8379706,-9.437943,0.5554548
6.228999,4.7528296,0.09617544,0.08155942,0.09181297,0.8379706,-9.437943,0.5554548
6.228988,4.752991,0.09617544,0.0762331,0.09500877,0.80445176,-9.433155,0.545878
6.2289767,4.7531524,0.09617544,0.0762331,0.09500877,0.80445176,-9.433155,0.545878
6.22899,4.75333,0.09830597,0.07090677,0.09820456,0.80924016,-9.428367,0.641646
6.229003,4.753508,0.09830597,0.07090677,0.09820456,0.80924016,-9.428367,0.641646
6.229028,4.7536917,0.1004365,0.06664571,0.103530884,0.7565677,-9.442732,0.62728083
6.2290525,4.7538757,0.1004365,0.06664571,0.103530884,0.7565677,-9.442732,0.62728083
6.2291017,4.754069,0.102567025,0.06344992,0.10992247,0.7182605,-9.461885,0.6751649
6.2291503,4.754262,0.102567025,0.06344992,0.10992247,0.7182605,-9.461885,0.6751649
6.229211,4.7544594,0.105762824,0.0581236,0.11737932,0.7182605,-9.414001,0.7038953
6.2292705,4.754657,0.105762824,0.0581236,0.11737932,0.7182605,-9.414001,0.7038953
6.229326,4.7548523,0.10895862,0.053862542,0.12483617,0.7038953,-9.423578,0.62728083
6.2293806,4.7550488,0.10895862,0.053862542,0.12483617,0.7038953,-9.423578,0.62728083
6.2294517,4.7552514,0.11321967,0.049601484,0.13335828,0.6991069,-9.375694,0.6607997
6.2295218,4.7554536,0.11321967,0.049601484,0.13335828,0.6991069,-9.375694,0.6607997
6.2295814,4.7556524,0.119611256,0.045340426,0.1450762,0.770933,-9.289502,0.6368576
6.22964,4.75585,0.119611256,0.045340426,0.1450762,0.770933,-9.289502,0.6368576
6.229714,4.756053,0.12387232,0.04107937,0.15785937,0.7565677,-9.241618,0.6368576
6.2297873,4.756256,0.12387232,0.04107937,0.15785937,0.7565677,-9.241618,0.6368576
6.2298455,4.756443,0.1270681,0.035753045,0.16851202,0.81881696,-9.217676,0.5746084
6.229903,4.75663,0.1270681,0.035753045,0.16851202,0.81881696,-9.217676,0.5746084
6.22995,4.7567925,0.13026391,0.030426722,0.1780994,0.866701,-9.141062,0.49320555
6.2299967,4.756954,0.13026391,0.030426722,0.1780994,0.866701,-9.141062,0.49320555
6.230056,4.757128,0.13132916,0.024035135,0.18555625,0.90500826,-9.078813,0.5363012
6.2301145,4.757298,0.13132916,0.024035135,0.18555625,0.90500826,-9.078813,0.5363012
6.2301674,4.7574444,0.12919864,0.020839343,0.18981731,1.0007763,-9.054871,0.46926352
6.2302203,4.7575903,0.12919864,0.020839343,0.18981731,1.0007763,-9.054871,0.46926352
6.2302785,4.7577357,0.12493758,0.018708814,0.19407836,1.0486604,-9.069236,0.49320555
6.2303367,4.757881,0.12493758,0.018708814,0.19407836,1.0486604,-9.069236,0.49320555
6.2303977,4.758011,0.118545994,0.016578285,0.19940469,1.0773908,-9.059659,0.45968673
6.2303977,4.758011,0.118545994,0.016578285,0.19940469,1.0773908,-9.059659,0.45968673
6.2303977,4.758011,0.118545994,0.016578285,0.19940469,1.0773908,-9.059659,0.45968673
6.2303977,4.758011,0.118545994,0.016578285,0.19940469,1.0773908,-9.059659,0.45968673
6.2303977,4.758011,0.104697555,0.014447756,0.1962089,1.1540052,-9.083601,0.37349546
6.2303977,4.758011,0.104697555,0.014447756,0.1962089,1.1540052,-9.083601,0.37349546
6.2303977,4.758011,0.09511018,0.013382491,0.1930131,1.1923125,-9.121908,0.35434186
6.230777,4.7585926,0.09511018,0.013382491,0.1930131,1.1923125,-9.121908,0.35434186
6.230827,4.7586694,0.08658806,0.012317227,0.18875204,1.2162545,-9.155427,0.36870706
6.230827,4.7586694,0.08658806,0.012317227,0.18875204,1.2162545,-9.155427,0.36870706
6.230878,4.758747,0.08658806,0.012317227,0.18875204,1.2162545,-9.155427,0.36870706
6.230923,4.758812,0.07806595,0.012317227,0.18236046,1.1827357,-9.126697,0.34476504
6.230966,4.758873,0.07806595,0.012317227,0.18236046,1.1827357,-9.126697,0.34476504
6.2310085,4.7589087,0.0674133,0.011251962,0.17596887,1.1875241,-9.165004,0.25857377
6.231084,4.7589736,0.056760654,0.009121433,0.16957727,1.1923125,-9.160215,0.2873042
6.231118,4.7590036,0.056760654,0.009121433,0.16957727,1.1923125,-9.160215,0.2873042
6.231143,4.7590303,0.04823854,0.0069909045,0.16212043,1.2066777,-9.074024,0.30645782
6.231168,4.7590566,0.04823854,0.0069909045,0.16212043,1.2066777,-9.074024,0.30645782
6.231186,4.7590704,0.03652063,0.008056169,0.15466358,1.2210429,-9.083601,0.30166942
6.231186,4.7590704,0.03652063,0.008056169,0.15466358,1.2210429,-9.083601,0.30166942
6.2312145,4.7590933,0.03652063,0.008056169,0.15466358,1.2210429,-9.083601,0.30166942
6.231231,4.759096,0.025867987,0.010186698,0.148272,1.1731589,-9.093178,0.30166942
6.2312346,4.7590938,0.016280606,0.013382491,0.14081514,1.1587936,-9.184157,0.33518824
6.231238,4.7590914,0.016280606,0.013382491,0.14081514,1.1587936,-9.184157,0.33518824
6.2312326,4.759085,0.0066932263,0.016578285,0.13335828,1.115698,-9.184157,0.36870706
6.231228,4.7590795,0.0066932263,0.016578285,0.13335828,1.115698,-9.184157,0.36870706
6.231218,4.7590714,-0.0028941538,0.021904606,0.12909722,1.0726024,-9.23683,0.40701428
6.231218,4.7590714,-0.0028941538,0.021904606,0.12909722,1.0726024,-9.23683,0.40701428
6.231194,4.7590513,-0.013546798,0.02723093,0.12164038,1.0151415,-9.260772,0.4165911
6.2311773,4.7590346,-0.013546798,0.02723093,0.12164038,1.0151415,-9.260772,0.4165911
6.231155,4.759028,-0.02313418,0.031491987,0.11418352,0.9816227,-9.289502,0.48841715
6.2311325,4.7590218,-0.02313418,0.031491987,0.11418352,0.9816227,-9.289502,0.48841715
6.231104,4.758997,-0.03059103,0.03468778,0.10992247,0.8714894,-9.394848,0.45010993
6.231076,4.758972,-0.03059103,0.03468778,0.10992247,0.8714894,-9.394848,0.45010993
6.2310467,4.758958,-0.03698262,0.037883572,0.10566141,0.866701,-9.3421755,0.49320555
6.2310176,4.7589436,-0.03698262,0.037883572,0.10566141,0.866701,-9.3421755,0.49320555
6.2309837,4.7589126,-0.043374203,0.040014103,0.103530884,0.8283938,-9.41879,0.46447513
6.23095,4.7588816,-0.043374203,0.040014103,0.103530884,0.8283938,-9.41879,0.46447513
6.2309237,4.758867,-0.049765788,0.040014103,0.103530884,0.866701,-9.404425,0.5315128
6.230898,4.758852,-0.049765788,0.040014103,0.103530884,0.866701,-9.404425,0.5315128
6.230862,4.7588124,-0.05509211,0.037883572,0.10140035,0.8714894,-9.375694,0.47405192
6.230827,4.758773,-0.05509211,0.037883572,0.10140035,0.8714894,-9.375694,0.47405192
6.230788,4.7587104,-0.05935317,0.03681831,0.09926982,0.89543146,-9.404425,0.4213795
6.230749,4.7586474,-0.05935317,0.03681831,0.09926982,0.89543146,-9.404425,0.4213795
6.2307096,4.758585,-0.06361423,0.032557253,0.09926982,0.8762778,-9.442732,0.4357447
6.2306705,4.758522,-0.06361423,0.032557253,0.09926982,0.8762778,-9.442732,0.4357447
6.23063,4.7584662,-0.06787529,0.026165664,0.09713929,0.9576807,-9.514558,0.47405192
6.230589,4.75841,-0.06787529,0.026165664,0.09713929,0.9576807,-9.514558,0.47405192
6.230544,4.758346,-0.07107108,0.020839343,0.0939435,0.9911995,-9.519346,0.45968673
6.2304997,4.758282,-0.07107108,0.020839343,0.0939435,0.9911995,-9.519346,0.45968673
6.2304525,4.758199,-0.075332135,0.016578285,0.09181297,1.0103531,-9.533711,0.40701428
6.2304053,4.758116,-0.075332135,0.016578285,0.09181297,1.0103531,-9.533711,0.40701428
6.230353,4.758027,-0.077462666,0.011251962,0.08648665,1.043872,-9.557653,0.39264908
6.2303004,4.757939,-0.077462666,0.011251962,0.08648665,1.043872,-9.557653,0.39264908
6.230245,4.7578554,-0.0795932,0.0069909045,0.08435612,1.0869676,-9.643845,0.4213795
6.23019,4.7577715,-0.0795932,0.0069909045,0.08435612,1.0869676,-9.643845,0.4213795
6.230131,4.757681,-0.08491952,0.003795111,0.08116033,1.2018893,-9.677363,0.41180268
6.230073,4.757591,-0.08491952,0.003795111,0.08116033,1.2018893,-9.677363,0.41180268
6.23001,4.7574935,-0.08811531,0.0005993177,0.07689927,1.1587936,-9.667787,0.39743748
6.229947,4.757397,-0.08811531,0.0005993177,0.07689927,1.1587936,-9.667787,0.39743748
6.2298794,4.757288,-0.09024584,-0.0015312112,0.07050768,1.2545617,-9.715671,0.33997664
6.2298117,4.7571793,-0.09024584,-0.0015312112,0.07050768,1.2545617,-9.715671,0.33997664
6.2297435,4.757061,-0.092376366,-0.00046594674,0.06731189,1.2689269,-9.749189,0.29209262
6.229675,4.7569423,-0.092376366,-0.00046594674,0.06731189,1.2689269,-9.749189,0.29209262
6.229601,4.7568274,-0.09557216,-0.00046594674,0.0641161,1.3072342,-9.763555,0.32561144
6.229527,4.756713,-0.09557216,-0.00046594674,0.0641161,1.3072342,-9.763555,0.32561144
6.229447,4.7566047,-0.09770269,-0.00046594674,0.059855036,1.316811,-9.77792,0.37828386
6.2293673,4.7564974,-0.09770269,-0.00046594674,0.059855036,1.316811,-9.77792,0.37828386
6.2292857,4.756387,-0.09983322,0.0027298466,0.05772451,1.292869,-9.787497,0.37349546
6.2292037,4.7562766,-0.09983322,0.0027298466,0.05772451,1.292869,-9.787497,0.37349546
6.229117,4.756169,-0.09983322,0.008056169,0.052398186,1.340753,-9.835381,0.38307226
6.2290297,4.756061,-0.09983322,0.008056169,0.052398186,1.340753,-9.835381,0.38307226
6.22894,4.7559485,-0.10196375,0.013382491,0.049202394,1.316811,-9.830592,0.36870706
6.2288504,4.755837,-0.10196375,0.013382491,0.049202394,1.316811,-9.830592,0.36870706
6.228755,4.755734,-0.10302901,0.019774077,0.04387607,1.3694834,-9.888053,0.4261679
6.22866,4.7556314,-0.10302901,0.019774077,0.04387607,1.3694834,-9.888053,0.4261679
6.2285585,4.7555313,-0.104094274,0.026165664,0.037484486,1.2785037,-9.916783,0.4405331
6.2284575,4.755431,-0.104094274,0.026165664,0.037484486,1.2785037,-9.916783,0.4405331
6.2283525,4.755334,-0.10302901,0.03468778,0.033223428,1.2641385,-9.950302,0.45010993
6.228247,4.7552366,-0.10302901,0.03468778,0.033223428,1.2641385,-9.950302,0.45010993
6.2281423,4.7551436,-0.10302901,0.043209895,0.032158162,1.2401965,-9.9790325,0.46447513
6.228037,4.7550507,-0.10302901,0.043209895,0.032158162,1.2401965,-9.9790325,0.46447513
6.227927,4.754958,-0.10089848,0.050666746,0.027897105,1.2258313,-10.0029745,0.45489833
6.227818,4.754866,-0.10089848,0.050666746,0.027897105,1.2258313,-10.0029745,0.45489833
6.2277083,4.7547793,-0.09983322,0.05918886,0.02683184,1.1587936,-10.0269165,0.46926352
6.2275987,4.754693,-0.09983322,0.05918886,0.02683184,1.1587936,-10.0269165,0.46926352
6.2274885,4.7546134,-0.09663743,0.06558045,0.025766576,1.1683705,-9.998186,0.48362875
6.2273793,4.7545347,-0.09663743,0.06558045,0.025766576,1.1683705,-9.998186,0.48362875
6.227271,4.7544556,-0.092376366,0.069841504,0.027897105,1.1492168,-9.993398,0.46447513
6.2271633,4.754378,-0.092376366,0.069841504,0.027897105,1.1492168,-9.993398,0.46447513
6.227054,4.754305,-0.08705004,0.073037304,0.02683184,1.1348516,-10.036493,0.46447513
6.226945,4.754233,-0.08705004,0.073037304,0.02683184,1.1348516,-10.036493,0.46447513
6.226841,4.7541814,-0.08278899,0.07516783,0.02683184,1.1204864,-10.012551,0.5315128
6.226737,4.75413,-0.08278899,0.07516783,0.02683184,1.1204864,-10.012551,0.5315128
6.2266316,4.754063,-0.07852793,0.07729836,0.031092897,1.0630256,-10.0269165,0.44532153
6.2265267,4.753997,-0.07852793,0.07729836,0.031092897,1.0630256,-10.0269165,0.44532153
6.226425,4.753943,-0.07426687,0.07942889,0.033223428,1.067814,-9.969456,0.47405192
6.2263246,4.7538896,-0.07426687,0.07942889,0.033223428,1.067814,-9.969456,0.47405192
6.2262235,4.753831,-0.06894055,0.07942889,0.035353955,1.0965444,-9.959879,0.4357447
6.2261224,4.7537723,-0.06894055,0.07942889,0.035353955,1.0965444,-9.959879,0.4357447
6.226025,4.753723,-0.06467949,0.07836362,0.03854975,1.115698,-9.935937,0.45489833
6.2259283,4.7536745,-0.06467949,0.07836362,0.03854975,1.115698,-9.935937,0.45489833
6.225835,4.7536354,-0.0614837,0.07729836,0.040680278,1.067814,-9.993398,0.47884035
6.2257414,4.753597,-0.0614837,0.07729836,0.040680278,1.067814,-9.993398,0.47884035
6.225651,4.7535644,-0.056157377,0.07729836,0.042810805,1.1252748,-9.9790325,0.48841715
6.2255597,4.7535315,-0.056157377,0.07729836,0.042810805,1.1252748,-9.9790325,0.48841715
6.225474,4.7535105,-0.05189632,0.07729836,0.044941336,1.0726024,-9.9790325,0.50757074
6.225387,4.7534895,-0.05189632,0.07729836,0.044941336,1.0726024,-9.9790325,0.50757074
6.2253056,4.753481,-0.046569996,0.0762331,0.0460066,1.0773908,-9.998186,0.5410896
6.2252235,4.7534733,-0.046569996,0.0762331,0.0460066,1.0773908,-9.998186,0.5410896
6.22514,4.753462,-0.042308938,0.07516783,0.047071867,1.0821792,-10.041282,0.51235914
6.2250557,4.7534504,-0.042308938,0.07516783,0.047071867,1.0821792,-10.041282,0.51235914
6.224984,4.7534623,-0.03698262,0.0762331,0.049202394,1.0486604,-10.084377,0.5793968
6.224912,4.7534747,-0.03698262,0.0762331,0.049202394,1.0486604,-10.084377,0.5793968
6.224834,4.753475,-0.03059103,0.07729836,0.052398186,1.1013328,-10.065224,0.51714754
6.2247553,4.753476,-0.03059103,0.07729836,0.052398186,1.1013328,-10.065224,0.51714754
6.224692,4.7535005,-0.027395237,0.07729836,0.055593982,1.0199299,-10.055647,0.5793968
