Pitch,Roll,Gyro_X,Gyro_Y,Gyro_Z,Accel_X,Accel_Y,Accel_Z
0.026791738,4.7670937,-0.0039594183,0.01551302,-0.033888236,-0.35913026,-9.634268,0.48362875
0.02687779,4.7670374,-0.0039594183,0.01551302,-0.033888236,-0.35913026,-9.634268,0.48362875
0.026980761,4.767025,-0.0071552116,0.01551302,-0.037084028,-0.35913026,-9.691729,0.5267244
0.027084807,4.7670126,-0.0071552116,0.01551302,-0.037084028,-0.35913026,-9.691729,0.5267244
0.027176918,4.766968,-0.008220476,0.016578285,-0.041345086,-0.4165911,-9.691729,0.48841715
0.027176918,4.766968,-0.008220476,0.016578285,-0.041345086,-0.4165911,-9.691729,0.48841715
0.027176918,4.766968,-0.008220476,0.016578285,-0.041345086,-0.4165911,-9.691729,0.48841715
0.027427975,4.7669067,-0.008220476,0.01551302,-0.045606144,-0.37828386,-9.787497,0.59855044
0.027514096,4.7669306,-0.008220476,0.01551302,-0.048801936,-0.4165911,-9.787497,0.56982
0.027598172,4.7669535,-0.008220476,0.01551302,-0.048801936,-0.4165911,-9.787497,0.56982
0.027658243,4.767004,-0.009285741,0.013382491,-0.050932467,-0.39264908,-9.835381,0.60333884
0.027719844,4.767056,-0.009285741,0.013382491,-0.050932467,-0.39264908,-9.835381,0.60333884
0.027785972,4.767101,-0.008220476,0.010186698,-0.05199773,-0.37828386,-9.902418,0.58897364
0.027852494,4.767146,-0.008220476,0.010186698,-0.05199773,-0.37828386,-9.902418,0.58897364
0.02793761,4.767156,-0.006089947,0.008056169,-0.05412826,-0.4165911,-9.911995,0.5602432
0.028020516,4.7671666,-0.006089947,0.008056169,-0.05412826,-0.4165911,-9.911995,0.5602432
0.028084336,4.7672167,-0.0028941538,0.003795111,-0.05412826,-0.4405331,-9.916783,0.61770403
0.028146947,4.7672663,-0.0028941538,0.003795111,-0.05412826,-0.4405331,-9.916783,0.61770403
0.02819641,4.7673364,0.00030163955,-0.00046594674,-0.05199773,-0.40222588,-9.892841,0.62728083
0.028245479,4.767405,0.00030163955,-0.00046594674,-0.05199773,-0.40222588,-9.892841,0.62728083
0.02833275,4.767388,0.005627962,-0.00366174,-0.048801936,-0.40222588,-9.935937,0.5267244
0.028419318,4.76737,0.005627962,-0.00366174,-0.048801936,-0.40222588,-9.935937,0.5267244
0.028514516,4.767371,0.010954284,-0.0068575335,-0.04454088,-0.4309563,-9.868899,0.5315128
0.028610416,4.7673707,0.010954284,-0.0068575335,-0.04454088,-0.4309563,-9.868899,0.5315128
0.028711619,4.7673817,0.0141500775,-0.007922798,-0.039214555,-0.40222588,-9.80665,0.5363012
0.028808288,4.767391,0.0141500775,-0.007922798,-0.039214555,-0.40222588,-9.80665,0.5363012
0.028912522,4.7674303,0.018411135,-0.007922798,-0.03282297,-0.37828386,-9.835381,0.5554548
0.028912522,4.7674303,0.018411135,-0.007922798,-0.03282297,-0.37828386,-9.835381,0.5554548
0.028912522,4.7674303,0.018411135,-0.007922798,-0.03282297,-0.37828386,-9.835381,0.5554548
0.029233215,4.767549,0.018411135,-0.007922798,-0.03282297,-0.37828386,-9.835381,0.5554548
0.029338127,4.7675495,0.02906378,-0.005792269,-0.016844003,-0.33518824,-9.811439,0.5315128
0.029459797,4.767549,0.02906378,-0.005792269,-0.016844003,-0.33518824,-9.811439,0.5315128
0.029549591,4.7676516,0.033324838,-0.005792269,-0.009387151,-0.32561144,-9.763555,0.5650316
0.029639231,4.7677517,0.033324838,-0.005792269,-0.009387151,-0.32561144,-9.763555,0.5650316
0.029627975,4.7676897,0.03652063,-0.0068575335,-0.0029955646,-0.2825158,-9.730036,0.45968673
0.029616786,4.767627,0.03652063,-0.0068575335,-0.0029955646,-0.2825158,-9.730036,0.45968673
0.029518383,4.767598,0.03865116,-0.007922798,0.0044612866,-0.24420857,-9.691729,0.50757074
0.02942011,4.7675695,0.03865116,-0.007922798,0.0044612866,-0.24420857,-9.691729,0.50757074
0.029348314,4.767527,0.039716423,-0.0068575335,0.010852873,-0.21068975,-9.682152,0.45968673
0.029279627,4.7674866,0.039716423,-0.0068575335,0.010852873,-0.21068975,-9.682152,0.45968673
0.029206658,4.76745,0.041846953,-0.005792269,0.015113931,-0.22505496,-9.610326,0.47884035
0.029134942,4.767413,0.041846953,-0.005792269,0.015113931,-0.22505496,-9.610326,0.47884035
0.0290393,4.7673993,0.045042746,-0.00366174,0.018309724,-0.17717093,-9.586384,0.47405192
0.028846785,4.76738,0.045042746,-0.00046594674,0.022570781,-0.19632454,-9.56723,0.49320555
0.028846785,4.76738,0.045042746,-0.00046594674,0.022570781,-0.19632454,-9.56723,0.49320555
0.02875122,4.767375,0.045042746,-0.00046594674,0.022570781,-0.19632454,-9.56723,0.49320555
0.028691387,4.767341,0.043977484,0.0016645822,0.023636047,-0.18195933,-9.591172,0.4405331
0.028629862,4.767306,0.043977484,0.0016645822,0.023636047,-0.18195933,-9.591172,0.4405331
0.028577423,4.7672663,0.041846953,0.00592564,0.02683184,-0.17717093,-9.524135,0.4261679
0.028522408,4.7672253,0.041846953,0.00592564,0.02683184,-0.17717093,-9.524135,0.4261679
0.028503338,4.767174,0.039716423,0.010186698,0.02896237,-0.21068975,-9.457097,0.40701428
0.028483642,4.7671204,0.039716423,0.010186698,0.02896237,-0.21068975,-9.457097,0.40701428
0.028416896,4.7670617,0.03652063,0.012317227,0.030027634,-0.15801731,-9.461885,0.40701428
0.0283774,4.767027,0.03652063,0.012317227,0.030027634,-0.15801731,-9.461885,0.40701428
0.028353315,4.7669673,0.032259572,0.01551302,0.031092897,-0.16280572,-9.495404,0.34476504
0.028327879,4.766905,0.032259572,0.01551302,0.031092897,-0.16280572,-9.495404,0.34476504
0.028269585,4.7668576,0.027998514,0.016578285,0.030027634,-0.1388637,-9.428367,0.40701428
0.02821014,4.7668095,0.027998514,0.016578285,0.030027634,-0.1388637,-9.428367,0.40701428
0.028130578,4.7667665,0.023737457,0.018708814,0.025766576,-0.1340753,-9.428367,0.4309563
0.028052451,4.766724,0.023737457,0.018708814,0.025766576,-0.1340753,-9.428367,0.4309563
0.028052451,4.766724,0.023737457,0.018708814,0.025766576,-0.1340753,-9.428367,0.4309563
0.027919792,4.766613,0.018411135,0.020839343,0.023636047,-0.110133275,-9.428367,0.3878607
0.027861552,4.766538,0.012019549,0.022969872,0.020440254,-0.15322891,-9.404425,0.39264908
0.02780618,4.766467,0.012019549,0.022969872,0.020440254,-0.15322891,-9.404425,0.39264908
0.02771405,4.7664137,0.008823755,0.026165664,0.01724446,-0.12928689,-9.399636,0.4357447
0.027621854,4.7663608,0.008823755,0.026165664,0.01724446,-0.12928689,-9.399636,0.4357447
0.027536968,4.7662964,0.0045626974,0.028296193,0.015113931,-0.1436521,-9.433155,0.4309563
0.02744931,4.7662306,0.0045626974,0.028296193,0.015113931,-0.1436521,-9.433155,0.4309563
0.027360268,4.7661715,0.00030163955,0.031491987,0.014048667,-0.11971009,-9.461885,0.4309563
0.02727181,4.7661133,0.00030163955,0.031491987,0.014048667,-0.11971009,-9.461885,0.4309563
0.027148528,4.76608,-0.0050246827,0.032557253,0.009787609,-0.08619126,-9.466674,0.47405192
0.027025215,4.7660465,-0.0050246827,0.032557253,0.009787609,-0.08619126,-9.466674,0.47405192
0.026896762,4.7660027,-0.010351005,0.03468778,0.0023307577,-0.05267244,-9.485827,0.45968673
0.026767839,4.7659593,-0.010351005,0.03468778,0.0023307577,-0.05267244,-9.485827,0.45968673
0.026623445,4.765935,-0.01674259,0.037883572,-0.0051260935,-0.11971009,-9.485827,0.50278234
0.026480038,4.7659116,-0.01674259,0.037883572,-0.0051260935,-0.11971009,-9.485827,0.50278234
0.026358472,4.765945,-0.02313418,0.043209895,-0.013648209,-0.19632454,-9.476251,0.5363012
0.026234638,4.76598,-0.02313418,0.043209895,-0.013648209,-0.19632454,-9.476251,0.5363012
0.026080003,4.765929,-0.029525764,0.046405688,-0.020039797,-0.17717093,-9.476251,0.49799395
0.02592507,4.7658796,-0.029525764,0.046405688,-0.020039797,-0.17717093,-9.476251,0.49799395
0.02585709,4.765746,-0.03698262,0.046405688,-0.031757705,-0.23463176,-9.528923,0.47884035
0.025789246,4.7656116,-0.03698262,0.046405688,-0.031757705,-0.23463176,-9.528923,0.47884035
0.0257395,4.7654696,-0.042308938,0.046405688,-0.039214555,-0.23942018,-9.509769,0.45968673
0.025691377,4.76533,-0.042308938,0.046405688,-0.039214555,-0.23942018,-9.509769,0.45968673
0.025667837,4.7651825,-0.04763526,0.045340426,-0.04773667,-0.25857377,-9.562442,0.45010993
0.025644926,4.7650337,-0.04763526,0.045340426,-0.04773667,-0.25857377,-9.562442,0.45010993
0.025609815,4.7650785,-0.05189632,0.04427516,-0.05412826,-0.24899697,-9.629479,0.51714754
0.025579128,4.7651234,-0.05189632,0.04427516,-0.05412826,-0.24899697,-9.629479,0.51714754
0.02565831,4.765045,-0.05402685,0.043209895,-0.059454583,-0.320823,-9.667787,0.49799395
0.025737686,4.7649684,-0.05402685,0.043209895,-0.059454583,-0.320823,-9.667787,0.49799395
0.025795054,4.7649612,-0.057222642,0.04107937,-0.064780906,-0.31124622,-9.691729,0.5363012
0.025851825,4.7649546,-0.057222642,0.04107937,-0.064780906,-0.31124622,-9.691729,0.5363012
0.02591026,4.7649364,-0.05935317,0.03681831,-0.07010722,-0.2681506,-9.725247,0.51714754
0.025967851,4.7649207,-0.05935317,0.03681831,-0.07010722,-0.2681506,-9.725247,0.51714754
0.025977708,4.764782,-0.058287904,0.032557253,-0.07330302,-0.2873042,-9.80665,0.48362875
0.025989823,4.764643,-0.058287904,0.032557253,-0.07330302,-0.2873042,-9.80665,0.48362875
0.02605331,4.764602,-0.05935317,0.029361458,-0.075433545,-0.33518824,-9.763555,0.521936
0.026116459,4.764562,-0.05935317,0.029361458,-0.075433545,-0.33518824,-9.763555,0.521936
0.026158297,4.764556,-0.05935317,0.02723093,-0.076498814,-0.33039984,-9.787497,0.545878
0.026199773,4.7645507,-0.05935317,0.02723093,-0.076498814,-0.33039984,-9.787497,0.545878
0.026257714,4.764522,-0.058287904,0.0251004,-0.076498814,-0.32561144,-9.787497,0.5267244
0.026315538,4.764494,-0.058287904,0.0251004,-0.076498814,-0.32561144,-9.787497,0.5267244
0.0263254,4.764357,-0.057222642,0.024035135,-0.075433545,-0.320823,-9.77792,0.45010993
0.02633644,4.7642207,-0.057222642,0.024035135,-0.075433545,-0.320823,-9.77792,0.45010993
0.026400706,4.764142,-0.05402685,0.022969872,-0.07330302,-0.33039984,-9.749189,0.49320555
0.02646518,4.7640657,-0.05402685,0.022969872,-0.07330302,-0.33039984,-9.749189,0.49320555
0.0265138,4.763959,-0.05189632,0.024035135,-0.07010722,-0.30645782,-9.773131,0.48362875
0.026563827,4.7638535,-0.05189632,0.024035135,-0.07010722,-0.30645782,-9.773131,0.48362875
0.02649043,4.763705,-0.049765788,0.024035135,-0.06691143,-0.25857377,-9.763555,0.48841715
0.026421256,4.7635546,-0.049765788,0.024035135,-0.06691143,-0.25857377,-9.763555,0.48841715
0.026421256,4.7635546,-0.049765788,0.024035135,-0.06691143,-0.25857377,-9.763555,0.48841715
0.026421256,4.7635546,-0.049765788,0.024035135,-0.06691143,-0.25857377,-9.763555,0.48841715
0.026476499,4.7631264,-0.046569996,0.026165664,-0.062650375,-0.2825158,-9.758766,0.47405192
0.026468858,4.763159,-0.04443947,0.029361458,-0.06158511,-0.2777274,-9.734824,0.5315128
0.026468858,4.763159,-0.04443947,0.029361458,-0.06158511,-0.2777274,-9.734824,0.5315128
0.026295647,4.7628727,-0.043374203,0.031491987,-0.062650375,-0.25378537,-9.734824,0.47884035
0.026240237,4.762928,-0.043374203,0.033622514,-0.064780906,-0.2633622,-9.782708,0.5602432
0.026187638,4.762981,-0.043374203,0.033622514,-0.064780906,-0.2633622,-9.782708,0.5602432
0.026187638,4.762981,-0.043374203,0.033622514,-0.064780906,-0.2633622,-9.782708,0.5602432
0.026273353,4.7630196,-0.042308938,0.035753045,-0.06691143,-0.31124622,-9.773131,0.5267244
0.02631472,4.7629128,-0.042308938,0.037883572,-0.0679767,-0.33039984,-9.821015,0.45489833
0.026356995,4.762806,-0.042308938,0.037883572,-0.0679767,-0.33039984,-9.821015,0.45489833
0.026419625,4.7627964,-0.042308938,0.040014103,-0.07117249,-0.36391866,-9.816227,0.521936
0.026481928,4.7627864,-0.042308938,0.040014103,-0.07117249,-0.36391866,-9.816227,0.521936
0.026529156,4.762797,-0.041243672,0.040014103,-0.07330302,-0.38307226,-9.835381,0.5506664
0.026576,4.7628074,-0.041243672,0.040014103,-0.07330302,-0.38307226,-9.835381,0.5506664
0.026643647,4.7627788,-0.04017841,0.040014103,-0.07330302,-0.4261679,-9.859323,0.51235914
0.026711142,4.76275,-0.04017841,0.040014103,-0.07330302,-0.4261679,-9.859323,0.51235914
0.02677788,4.7626987,-0.03804788,0.038948838,-0.07436828,-0.46926352,-9.868899,0.47884035
0.026845612,4.762646,-0.03804788,0.038948838,-0.07436828,-0.46926352,-9.868899,0.47884035
0.026882831,4.762549,-0.034852087,0.038948838,-0.07330302,-0.40701428,-9.825804,0.41180268
0.026920708,4.7624507,-0.034852087,0.038948838,-0.07330302,-0.40701428,-9.825804,0.41180268
0.026987027,4.7623973,-0.033786822,0.03681831,-0.07330302,-0.49799395,-9.797073,0.45968673
0.027053451,4.7623444,-0.033786822,0.03681831,-0.07330302,-0.49799395,-9.797073,0.45968673
0.027123818,4.762307,-0.031656295,0.033622514,-0.07117249,-0.47405192,-9.811439,0.48362875
0.027194394,4.76227,-0.031656295,0.033622514,-0.07117249,-0.47405192,-9.811439,0.48362875
0.0272672,4.762223,-0.029525764,0.031491987,-0.06691143,-0.47405192,-9.811439,0.46447513
0.027339973,4.7621756,-0.029525764,0.031491987,-0.06691143,-0.47405192,-9.811439,0.46447513
0.027390542,4.76209,-0.026329972,0.028296193,-0.064780906,-0.40701428,-9.787497,0.4165911
0.027441377,4.762005,-0.026329972,0.028296193,-0.064780906,-0.40701428,-9.787497,0.4165911
0.02751383,4.7619486,-0.026329972,0.0251004,-0.062650375,-0.45010993,-9.768343,0.44532153
0.027586853,4.7618923,-0.026329972,0.0251004,-0.062650375,-0.45010993,-9.768343,0.44532153
0.02765373,4.7619066,-0.026329972,0.021904606,-0.06158511,-0.39264908,-9.734824,0.521936
0.027720539,4.76192,-0.026329972,0.021904606,-0.06158511,-0.39264908,-9.734824,0.521936
0.02779347,4.761922,-0.025264706,0.019774077,-0.062650375,-0.39264908,-9.734824,0.50757074
0.027866157,4.761924,-0.025264706,0.019774077,-0.062650375,-0.39264908,-9.734824,0.50757074
0.027947074,4.761882,-0.024199443,0.016578285,-0.06584617,-0.320823,-9.753978,0.47884035
0.028014041,4.7618475,-0.024199443,0.016578285,-0.06584617,-0.320823,-9.753978,0.47884035
0.028079096,4.76185,-0.024199443,0.014447756,-0.07010722,-0.39743748,-9.749189,0.50757074
0.028144239,4.7618527,-0.024199443,0.014447756,-0.07010722,-0.39743748,-9.749189,0.50757074
0.028205266,4.7618036,-0.024199443,0.011251962,-0.075433545,-0.4309563,-9.753978,0.45489833
0.028266262,4.761755,-0.024199443,0.011251962,-0.075433545,-0.4309563,-9.753978,0.45489833
0.028327271,4.7617426,-0.024199443,0.009121433,-0.078629345,-0.40222588,-9.763555,0.49320555
0.028388027,4.76173,-0.024199443,0.009121433,-0.078629345,-0.40222588,-9.763555,0.49320555
0.028443784,4.76169,-0.024199443,0.00592564,-0.0828904,-0.4165911,-9.730036,0.46447513
0.028499724,4.76165,-0.024199443,0.00592564,-0.0828904,-0.4165911,-9.730036,0.46447513
0.028538074,4.761579,-0.02313418,0.0027298466,-0.08502093,-0.44532153,-9.758766,0.4165911
0.028576873,4.7615085,-0.02313418,0.0027298466,-0.08502093,-0.44532153,-9.758766,0.4165911
0.028612103,4.7614365,-0.022068914,-0.00046594674,-0.08608619,-0.48362875,-9.792285,0.39743748
0.028647682,4.7613645,-0.022068914,-0.00046594674,-0.08608619,-0.48362875,-9.792285,0.39743748
0.028684985,4.761296,-0.021003649,-0.0025964756,-0.08608619,-0.49320555,-9.773131,0.39743748
0.028722635,4.761228,-0.021003649,-0.0025964756,-0.08608619,-0.49320555,-9.773131,0.39743748
0.028741019,4.7611437,-0.018873122,-0.005792269,-0.08715145,-0.48362875,-9.80665,0.35434186
0.028759725,4.7610593,-0.018873122,-0.005792269,-0.08715145,-0.48362875,-9.80665,0.35434186
0.028795358,4.7609944,-0.018873122,-0.010053327,-0.08821672,-0.48841715,-9.830592,0.40222588
0.028831072,4.760929,-0.018873122,-0.010053327,-0.08821672,-0.48841715,-9.830592,0.40222588
0.028835624,4.7608395,-0.015677327,-0.014314385,-0.08821672,-0.47884035,-9.816227,0.320823
0.028840508,4.76075,-0.015677327,-0.014314385,-0.08821672,-0.47884035,-9.816227,0.320823
0.028852444,4.7606654,-0.013546798,-0.021771235,-0.08502093,-0.51235914,-9.801862,0.30645782
0.028864585,4.760581,-0.013546798,-0.021771235,-0.08502093,-0.51235914,-9.801862,0.30645782
0.028847594,4.7604837,-0.009285741,-0.028162822,-0.08075987,-0.45489833,-9.811439,0.23942018
0.028830668,4.760386,-0.009285741,-0.028162822,-0.08075987,-0.45489833,-9.811439,0.23942018
0.028830668,4.760386,-0.009285741,-0.028162822,-0.08075987,-0.45489833,-9.811439,0.23942018
0.028810343,4.760185,-0.006089947,-0.033489145,-0.076498814,-0.4357447,-9.811439,0.2777274
0.028796433,4.760108,-0.0018288894,-0.03881547,-0.0679767,-0.36870706,-9.773131,0.31603462
0.028779726,4.760014,-0.0018288894,-0.03881547,-0.0679767,-0.36870706,-9.773131,0.31603462
0.028706992,4.7599077,0.0024321685,-0.044141788,-0.059454583,-0.2681506,-9.710882,0.19153613
0.028647378,4.75982,0.0024321685,-0.044141788,-0.059454583,-0.2681506,-9.710882,0.19153613
0.028564883,4.7597346,0.0077584907,-0.048402846,-0.053062994,-0.18195933,-9.619903,0.15322891
0.028480068,4.7596464,0.0077584907,-0.048402846,-0.053062994,-0.18195933,-9.619903,0.15322891
0.028397616,4.759563,0.012019549,-0.050533377,-0.045606144,-0.1436521,-9.562442,0.090979666
0.028315373,4.759479,0.012019549,-0.050533377,-0.045606144,-0.1436521,-9.562442,0.090979666
0.028220093,4.759403,0.015215342,-0.051598642,-0.03814929,-0.05746084,-9.519346,0.090979666
0.028125184,4.759328,0.015215342,-0.051598642,-0.03814929,-0.05746084,-9.519346,0.090979666
0.028014671,4.759259,0.015215342,-0.048402846,-0.03282297,0.0047884034,-9.519346,0.1388637
0.027904905,4.759191,0.015215342,-0.048402846,-0.03282297,0.0047884034,-9.519346,0.1388637
0.027781935,4.7591295,0.013084813,-0.043076526,-0.028561912,0.08619126,-9.524135,0.15801731
0.027658906,4.7590685,0.013084813,-0.043076526,-0.028561912,0.08619126,-9.524135,0.15801731
0.027539752,4.7589993,0.008823755,-0.037750203,-0.029627176,0.11971009,-9.504981,0.10055647
0.027420687,4.75893,0.008823755,-0.037750203,-0.029627176,0.11971009,-9.504981,0.10055647
0.027299728,4.7588587,0.005627962,-0.03242388,-0.03069244,0.14844051,-9.471462,0.08140286
0.02717881,4.758787,0.005627962,-0.03242388,-0.03069244,0.14844051,-9.471462,0.08140286
0.02705457,4.7587113,0.003497433,-0.027097559,-0.033888236,0.15322891,-9.490616,0.07182605
0.02693125,4.7586365,0.003497433,-0.027097559,-0.033888236,0.15322891,-9.490616,0.07182605
0.026799342,4.758563,-0.0007636249,-0.0228365,-0.037084028,0.19632454,-9.485827,0.08619126
0.026666176,4.758488,-0.0007636249,-0.0228365,-0.037084028,0.19632454,-9.485827,0.08619126
0.026534332,4.7584066,-0.0039594183,-0.020705972,-0.041345086,0.21068975,-9.452309,0.033518825
0.026402462,4.7583256,-0.0039594183,-0.020705972,-0.041345086,0.21068975,-9.452309,0.033518825
0.026271986,4.7582393,-0.006089947,-0.016444914,-0.04454088,0.21547815,-9.461885,-0.0047884034
0.026141662,4.758153,-0.006089947,-0.016444914,-0.04454088,0.21547815,-9.461885,-0.0047884034
0.025998348,4.7580695,-0.009285741,-0.012183856,-0.046671405,0.2681506,-9.442732,0.033518825
0.02585548,4.757986,-0.009285741,-0.012183856,-0.046671405,0.2681506,-9.442732,0.033518825
0.025690388,4.7579026,-0.0114162695,-0.007922798,-0.053062994,0.30645782,-9.399636,0.06703765
0.025540069,4.7578263,-0.0114162695,-0.007922798,-0.053062994,0.30645782,-9.399636,0.06703765
0.025394766,4.7577353,-0.012481534,-0.00366174,-0.05732405,0.24420857,-9.361329,-0.0047884034
0.025246583,4.7576427,-0.012481534,-0.00366174,-0.05732405,0.24420857,-9.361329,-0.0047884034
0.025100177,4.7575464,-0.015677327,0.0005993177,-0.062650375,0.31603462,-9.270349,-0.10534488
0.024952667,4.7574496,-0.015677327,0.0005993177,-0.062650375,0.31603462,-9.270349,-0.10534488
0.024799906,4.757347,-0.019938385,0.00592564,-0.06904196,0.30166942,-9.212888,-0.10534488
0.024648381,4.7572455,-0.019938385,0.00592564,-0.06904196,0.30166942,-9.212888,-0.10534488
0.024494864,4.757138,-0.026329972,0.012317227,-0.07010722,0.34955344,-9.203311,-0.1436521
0.024341172,4.7570295,-0.026329972,0.012317227,-0.07010722,0.34955344,-9.203311,-0.1436521
0.024184529,4.756914,-0.033786822,0.018708814,-0.07330302,0.33997664,-9.097966,-0.1340753
0.02402779,4.7567983,-0.033786822,0.018708814,-0.07330302,0.33997664,-9.097966,-0.1340753
0.023867134,4.756675,-0.042308938,0.024035135,-0.076498814,0.40701428,-9.02614,-0.19153613
0.023706263,4.7565503,-0.042308938,0.024035135,-0.076498814,0.40701428,-9.02614,-0.19153613
0.023532432,4.756418,-0.052961584,0.029361458,-0.08395566,0.4405331,-8.954314,-0.16280572
0.023359347,4.756287,-0.052961584,0.029361458,-0.08395566,0.4405331,-8.954314,-0.16280572
0.023174083,4.7561464,-0.0614837,0.03468778,-0.09460831,0.47884035,-8.858546,-0.19153613
0.022989303,4.7560062,-0.0614837,0.03468778,-0.09460831,0.47884035,-8.858546,-0.19153613
0.02278864,4.7558575,-0.07213634,0.040014103,-0.107391484,0.5746084,-8.7532015,-0.23463176
0.0225886,4.7557096,-0.07213634,0.040014103,-0.107391484,0.5746084,-8.7532015,-0.23463176
0.022356525,4.755555,-0.08705004,0.045340426,-0.123370446,0.7086837,-8.66701,-0.16280572
0.022126282,4.7554026,-0.08705004,0.045340426,-0.123370446,0.7086837,-8.66701,-0.16280572
0.021874025,4.755231,-0.10302901,0.050666746,-0.145741,0.80445176,-8.7292595,-0.23942018
0.021622203,4.75506,-0.10302901,0.050666746,-0.145741,0.80445176,-8.7292595,-0.23942018
0.021335915,4.754879,-0.121138506,0.0581236,-0.17130736,0.91937345,-8.772355,-0.17717093
0.021050716,4.7546988,-0.121138506,0.0581236,-0.17130736,0.91937345,-8.772355,-0.17717093
0.020724194,4.7545094,-0.14244379,0.06451519,-0.20113476,0.9720459,-8.844181,-0.033518825
0.020398287,4.7543206,-0.14244379,0.06451519,-0.20113476,0.9720459,-8.844181,-0.033518825
0.020035973,4.754115,-0.16268381,0.073037304,-0.23522322,0.92416185,-8.968679,0.02873042
0.019674273,4.75391,-0.16268381,0.073037304,-0.23522322,0.92416185,-8.968679,0.02873042
0.01927887,4.75369,-0.18079332,0.08262468,-0.2682464,0.8379706,-9.074024,0.08140286
0.01888291,4.7534695,-0.18079332,0.08262468,-0.2682464,0.8379706,-9.074024,0.08140286
0.018460127,4.753223,-0.19890282,0.09540785,-0.29913908,0.7278373,-9.165004,0.05746084
0.018038558,4.7529774,-0.19890282,0.09540785,-0.29913908,0.7278373,-9.165004,0.05746084
0.017581565,4.752728,-0.21594705,0.1060605,-0.32683596,0.62728083,-9.222465,0.19153613
0.017125476,4.7524796,-0.21594705,0.1060605,-0.32683596,0.62728083,-9.222465,0.19153613
0.01665981,4.7521963,-0.23086074,0.117778406,-0.34814125,0.5363012,-9.3182335,0.08619126
0.016195044,4.751913,-0.23086074,0.117778406,-0.34814125,0.5363012,-9.3182335,0.08619126
0.0157173,4.751611,-0.24364392,0.12949632,-0.36305496,0.49799395,-9.433155,0.07182605
0.015241305,4.751311,-0.24364392,0.12949632,-0.36305496,0.49799395,-9.433155,0.07182605
0.014752254,4.751006,-0.25216603,0.14227949,-0.37264234,0.47405192,-9.519346,0.11492168
0.014263073,4.750701,-0.25216603,0.14227949,-0.37264234,0.47405192,-9.519346,0.11492168
0.013762283,4.7503986,-0.2596229,0.15506266,-0.37796864,0.49799395,-9.605537,0.16759412
0.013261344,4.7500963,-0.2596229,0.15506266,-0.37796864,0.49799395,-9.605537,0.16759412
0.0127472095,4.74981,-0.2660145,0.1657153,-0.38222972,0.58897364,-9.643845,0.272939
0.012234089,4.7495255,-0.2660145,0.1657153,-0.38222972,0.58897364,-9.643845,0.272939
0.011713535,4.749236,-0.27027553,0.17743322,-0.38755605,0.7613561,-9.696517,0.25857377
0.011193951,4.748948,-0.27027553,0.17743322,-0.38755605,0.7613561,-9.696517,0.25857377
0.010662561,4.7486625,-0.27560186,0.18915112,-0.39820868,0.91937345,-9.749189,0.30166942
0.010133241,4.7483788,-0.27560186,0.18915112,-0.39820868,0.91937345,-9.749189,0.30166942
0.009583621,4.7480955,-0.28092816,0.20299956,-0.41631818,1.0151415,-9.739613,0.35434186
0.009035033,4.747813,-0.28092816,0.20299956,-0.41631818,1.0151415,-9.739613,0.35434186
0.0084609175,4.7475357,-0.28731975,0.21897852,-0.44401506,1.0821792,-9.763555,0.44532153
0.007887383,4.7472587,-0.28731975,0.21897852,-0.44401506,1.0821792,-9.763555,0.44532153
0.007286112,4.7469883,-0.29690716,0.23708802,-0.47703823,1.0773908,-9.753978,0.58897364
0.0066855256,4.7467184,-0.29690716,0.23708802,-0.47703823,1.0773908,-9.753978,0.58897364
0.006055942,4.7464485,-0.3075598,0.25519753,-0.51219195,0.9720459,-9.792285,0.6655881
0.005429181,4.7461805,-0.3075598,0.25519753,-0.51219195,0.9720459,-9.792285,0.6655881
0.005429181,4.7461805,-0.3075598,0.25519753,-0.51219195,0.9720459,-9.792285,0.6655881
0.005429181,4.7461805,-0.3075598,0.25519753,-0.51219195,0.9720459,-9.792285,0.6655881
0.005429181,4.7461805,-0.3075598,0.25519753,-0.51219195,0.9720459,-9.792285,0.6655881
0.0025364372,4.7450113,-0.32353875,0.289286,-0.5835647,0.80445176,-9.797073,0.62249243
0.001882502,4.7447586,-0.32993034,0.3063302,-0.61445737,0.6560113,-9.811439,0.61770403
0.0011553608,4.7444777,-0.32993034,0.3063302,-0.61445737,0.6560113,-9.811439,0.61770403
0.00046158125,4.7442226,-0.33525667,0.3276355,-0.64108896,0.46926352,-9.89763,0.62728083
6.282919,4.743955,-0.33525667,0.3276355,-0.64108896,0.46926352,-9.89763,0.62728083
6.2822,4.7436996,-0.3395177,0.35107133,-0.65919846,0.24420857,-9.931149,0.59855044
6.2822,4.7436996,-0.3395177,0.35107133,-0.65919846,0.24420857,-9.931149,0.59855044
6.2808247,4.743207,-0.34164825,0.37344187,-0.66878587,-0.038307227,-10.012551,0.56982
6.2801604,4.742952,-0.34164825,0.37344187,-0.66878587,-0.038307227,-10.012551,0.56982
6.2796054,4.742673,-0.34164825,0.3936819,-0.6709164,-0.24899697,-10.084377,0.47405192
6.279035,4.7423873,-0.34164825,0.3936819,-0.6709164,-0.24899697,-10.084377,0.47405192
6.2785244,4.7420897,-0.33845246,0.41179138,-0.66559005,-0.49320555,-10.103531,0.4357447
6.278011,4.7417912,-0.33845246,0.41179138,-0.66559005,-0.49320555,-10.103531,0.4357447
6.277505,4.7414827,-0.33525667,0.4267051,-0.6549374,-0.62728083,-10.127473,0.4165911
6.2769976,4.7411737,-0.33525667,0.4267051,-0.6549374,-0.62728083,-10.127473,0.4165911
6.2764935,4.740866,-0.32993034,0.43522722,-0.64108896,-0.7182605,-10.16578,0.4405331
6.2760096,4.7405715,-0.32993034,0.43522722,-0.64108896,-0.7182605,-10.16578,0.4405331
6.275532,4.7402773,-0.3224735,0.43948826,-0.62511003,-0.842759,-10.19451,0.45489833
6.2750535,4.739983,-0.3224735,0.43948826,-0.62511003,-0.842759,-10.19451,0.45489833
6.274595,4.7396984,-0.31288612,0.438423,-0.6059353,-0.8762778,-10.199299,0.45010993
6.274135,4.739413,-0.31288612,0.438423,-0.6059353,-0.8762778,-10.199299,0.45010993
6.273694,4.7391434,-0.3011682,0.43309668,-0.5856952,-0.90021986,-10.19451,0.47884035
6.273253,4.7388735,-0.3011682,0.43309668,-0.5856952,-0.90021986,-10.19451,0.47884035
6.272828,4.73862,-0.28838503,0.4235093,-0.56865096,-0.7757214,-10.170568,0.46926352
6.2724023,4.738366,-0.28838503,0.4235093,-0.56865096,-0.7757214,-10.170568,0.46926352
6.2719874,4.7381296,-0.27666712,0.41072613,-0.5537373,-0.7134721,-10.0987425,0.48841715
6.2715735,4.737893,-0.27666712,0.41072613,-0.5537373,-0.7134721,-10.0987425,0.48841715
6.2711616,4.7376814,-0.2649492,0.39794296,-0.5430846,-0.545878,-10.065224,0.521936
6.270749,4.73747,-0.2649492,0.39794296,-0.5430846,-0.545878,-10.065224,0.521936
6.270333,4.7372766,-0.25429657,0.38622504,-0.53988886,-0.45489833,-10.04607,0.5363012
6.2699165,4.737083,-0.25429657,0.38622504,-0.53988886,-0.45489833,-10.04607,0.5363012
6.2694817,4.7369127,-0.24470918,0.3755724,-0.54201937,-0.35913026,-9.9790325,0.59376204
6.269047,4.736742,-0.24470918,0.3755724,-0.54201937,-0.35913026,-9.9790325,0.59376204
6.2685843,4.7365913,-0.23725234,0.36598504,-0.5494762,-0.23942018,-9.92636,0.6368576
6.2681217,4.73644,-0.23725234,0.36598504,-0.5494762,-0.23942018,-9.92636,0.6368576
6.2676373,4.736296,-0.23299128,0.35959345,-0.5654552,-0.20590134,-9.854534,0.6464345
6.2671533,4.736152,-0.23299128,0.35959345,-0.5654552,-0.20590134,-9.854534,0.6464345
6.2666583,4.736004,-0.23299128,0.35639766,-0.5856952,-0.23942018,-9.816227,0.61291564
6.266164,4.7358556,-0.23299128,0.35639766,-0.5856952,-0.23942018,-9.816227,0.61291564
6.265646,4.735703,-0.23618707,0.35426712,-0.6101963,-0.29688102,-9.744401,0.6560113
6.265128,4.735551,-0.23618707,0.35426712,-0.6101963,-0.29688102,-9.744401,0.6560113
6.264597,4.735385,-0.24044813,0.35213658,-0.6378932,-0.30645782,-9.734824,0.5602432
6.2640657,4.73522,-0.24044813,0.35213658,-0.6378932,-0.30645782,-9.734824,0.5602432
6.263524,4.7350335,-0.24790499,0.3489408,-0.6645248,-0.44532153,-9.696517,0.521936
6.262983,4.7348475,-0.24790499,0.3489408,-0.6645248,-0.44532153,-9.696517,0.521936
6.2624207,4.7346478,-0.25216603,0.3425492,-0.69328696,-0.49799395,-9.667787,0.46926352
6.2618575,4.7344475,-0.25216603,0.3425492,-0.69328696,-0.49799395,-9.667787,0.46926352
6.261279,4.734225,-0.2596229,0.33296183,-0.7188533,-0.5650316,-9.643845,0.38307226
6.2607,4.7340026,-0.2596229,0.33296183,-0.7188533,-0.5650316,-9.643845,0.38307226
6.260103,4.7337494,-0.268145,0.3191134,-0.7433544,-0.47405192,-9.586384,0.24420857
6.2595057,4.733497,-0.268145,0.3191134,-0.7433544,-0.47405192,-9.586384,0.24420857
6.2588806,4.733231,-0.2798629,0.30206916,-0.7710512,-0.37349546,-9.595961,0.22984336
6.2582555,4.732966,-0.2798629,0.30206916,-0.7710512,-0.37349546,-9.595961,0.22984336
6.257592,4.7327137,-0.29051554,0.2828944,-0.8019439,-0.16759412,-9.485827,0.2873042
6.2569284,4.732461,-0.29051554,0.2828944,-0.8019439,-0.16759412,-9.485827,0.2873042
6.2561464,4.732192,-0.30329874,0.2615891,-0.84135866,0.047884032,-9.308656,0.2681506
6.2554936,4.7319674,-0.30329874,0.2615891,-0.84135866,0.047884032,-9.308656,0.2681506
6.254714,4.7317195,-0.3214082,0.24028382,-0.8892956,0.18674773,-9.241618,0.22505496
6.2539377,4.731471,-0.3214082,0.24028382,-0.8892956,0.18674773,-9.241618,0.22505496
6.252995,4.731233,-0.3437788,0.21791327,-0.9468199,0.2681506,-9.136273,0.23463176
6.2520647,4.730995,-0.3437788,0.21791327,-0.9468199,0.2681506,-9.136273,0.23463176
6.251089,4.7307262,-0.37254092,0.19660798,-1.00754,0.24899697,-9.112331,0.29209262
6.250119,4.7304564,-0.37254092,0.19660798,-1.00754,0.24899697,-9.112331,0.29209262
6.2490444,4.7301617,-0.4002378,0.17530268,-1.0703906,0.31603462,-9.11712,0.34955344
6.247975,4.7298665,-0.4002378,0.17530268,-1.0703906,0.31603462,-9.11712,0.34955344
6.2468634,4.729542,-0.42899993,0.1571932,-1.1311107,0.29209262,-9.14585,0.33518824
6.245757,4.7292166,-0.42899993,0.1571932,-1.1311107,0.29209262,-9.14585,0.33518824
6.244604,4.728862,-0.4566968,0.13801843,-1.1897001,0.29688102,-9.160215,0.2873042
6.243455,4.7285056,-0.4566968,0.13801843,-1.1897001,0.29688102,-9.160215,0.2873042
6.2423315,4.7280803,-0.48332843,0.1209742,-1.2440287,0.24899697,-9.23683,0.20111294
6.241208,4.727655,-0.48332843,0.1209742,-1.2440287,0.24899697,-9.23683,0.20111294
6.240043,4.7271934,-0.50889474,0.10712577,-1.2930309,0.22984336,-9.332599,0.19632454
6.2388783,4.7267323,-0.50889474,0.10712577,-1.2930309,0.22984336,-9.332599,0.19632454
6.237682,4.7261796,-0.5333958,0.09327733,-1.3335109,0.24899697,-9.471462,0.10534488
6.236486,4.7256317,-0.5333958,0.09327733,-1.3335109,0.24899697,-9.471462,0.10534488
6.235196,4.7249994,-0.5536359,0.07836362,-1.3686646,0.32561144,-9.514558,-0.0047884034
6.2339125,4.724371,-0.5536359,0.07836362,-1.3686646,0.32561144,-9.514558,-0.0047884034
6.232475,4.723706,-0.57281065,0.06344992,-1.4016877,0.5363012,-9.581595,-0.05267244
6.2310452,4.7230406,-0.57281065,0.06344992,-1.4016877,0.5363012,-9.581595,-0.05267244
6.2295003,4.722386,-0.5919854,0.04853622,-1.434711,0.8331822,-9.600749,-0.095768064
6.227959,4.7217326,-0.5919854,0.04853622,-1.434711,0.8331822,-9.600749,-0.095768064
6.226351,4.7211294,-0.6122254,0.031491987,-1.47093,1.1252748,-9.672575,0.11492168
6.2247405,4.720527,-0.6122254,0.031491987,-1.47093,1.1252748,-9.672575,0.11492168
6.2230887,4.719898,-0.6324654,0.01551302,-1.5124753,1.4796166,-9.624691,0.090979666
6.2214365,4.7192698,-0.6324654,0.01551302,-1.5124753,1.4796166,-9.624691,0.090979666
6.219739,4.7186403,-0.64950967,0.0027298466,-1.5614774,1.6998832,-9.648633,0.22026655
6.218042,4.718012,-0.64950967,0.0027298466,-1.5614774,1.6998832,-9.648633,0.22026655
6.2162905,4.717369,-0.66761917,-0.008988062,-1.6179365,1.8339585,-9.648633,0.2777274
6.214539,4.7167273,-0.66761917,-0.008988062,-1.6179365,1.8339585,-9.648633,0.2777274
6.212728,4.716071,-0.6825329,-0.018575443,-1.6786566,1.9680338,-9.562442,0.31124622
6.210917,4.715416,-0.6825329,-0.018575443,-1.6786566,1.9680338,-9.562442,0.31124622
6.209041,4.7147503,-0.69425076,-0.027097559,-1.7447029,2.0925324,-9.605537,0.34476504
6.2071657,4.7140846,-0.69425076,-0.027097559,-1.7447029,2.0925324,-9.605537,0.34476504
6.2052245,4.7134047,-0.70383817,-0.031358615,-1.8086188,2.2026656,-9.595961,0.30166942
6.2032833,4.7127247,-0.70383817,-0.031358615,-1.8086188,2.2026656,-9.595961,0.30166942
6.2012806,4.7120357,-0.71236026,-0.031358615,-1.8714694,2.408567,-9.586384,0.30645782
6.1992745,4.711345,-0.71236026,-0.031358615,-1.8714694,2.408567,-9.586384,0.30645782
6.1972046,4.710649,-0.7208824,-0.023901764,-1.9385811,2.6288335,-9.514558,0.35913026
6.1951346,4.7099533,-0.7208824,-0.023901764,-1.9385811,2.6288335,-9.514558,0.35913026
6.192993,4.709249,-0.73260033,-0.008988062,-2.0120842,2.8921957,-9.414001,0.45010993
6.1908517,4.7085457,-0.73260033,-0.008988062,-2.0120842,2.8921957,-9.414001,0.45010993
6.188632,4.7078276,-0.74857926,0.016578285,-2.090914,3.0789435,-9.260772,0.47405192
6.1864123,4.7071104,-0.74857926,0.016578285,-2.090914,3.0789435,-9.260772,0.47405192
6.184103,4.706374,-0.77094984,0.05173201,-2.180396,3.098097,-9.11712,0.48362875
6.1817946,4.7056384,-0.77094984,0.05173201,-2.180396,3.098097,-9.11712,0.48362875
6.179389,4.704887,-0.7986467,0.09327733,-2.2815962,3.0358477,-8.99741,0.60333884
6.176979,4.704134,-0.7986467,0.09327733,-2.2815962,3.0358477,-8.99741,0.60333884
6.174471,4.7033577,-0.8348657,0.13801843,-2.3902533,2.7581203,-8.944737,0.59855044
6.171963,4.702582,-0.8348657,0.13801843,-2.3902533,2.7581203,-8.944737,0.59855044
6.169335,4.7017727,-0.8732152,0.18169427,-2.4999754,2.4899697,-8.90643,0.545878
6.166613,4.7009363,-0.8732152,0.18169427,-2.4999754,2.4899697,-8.90643,0.545878
6.1639833,4.70013,-0.91049945,0.22110906,-2.6086323,2.3319526,-8.939949,0.48362875
6.1612864,4.6993046,-0.91049945,0.22110906,-2.6086323,2.3319526,-8.939949,0.48362875
6.1584682,4.698452,-0.94458795,0.25519753,-2.7162242,2.1787236,-9.035717,0.5554548
6.155649,4.697601,-0.94458795,0.25519753,-2.7162242,2.1787236,-9.035717,0.5554548
6.1527176,4.696718,-0.9754806,0.28502494,-2.8216853,2.1452048,-9.165004,0.4213795
6.149788,4.695838,-0.9754806,0.28502494,-2.8216853,2.1452048,-9.165004,0.4213795
6.1467547,4.694938,-1.0031775,0.31059128,-2.9303422,2.1260512,-9.246407,0.45489833
6.143724,4.6940403,-1.0031775,0.31059128,-2.9303422,2.1260512,-9.246407,0.45489833
6.1405787,4.693121,-1.0298091,0.33189657,-3.0475214,2.1739352,-9.303867,0.49320555
6.1374354,4.692204,-1.0298091,0.33189657,-3.0475214,2.1739352,-9.303867,0.49320555
6.1341705,4.691265,-1.0564407,0.34787554,-3.1721573,2.2409728,-9.409213,0.545878
6.130904,4.6903267,-1.0564407,0.34787554,-3.1721573,2.2409728,-9.409213,0.545878
6.1274962,4.689358,-1.0841376,0.3574629,-3.311707,2.4899697,-9.476251,0.56982
6.124216,4.6884274,-1.0841376,0.3574629,-3.311707,2.4899697,-9.476251,0.56982
6.1206465,4.6874247,-1.113965,0.35852817,-3.4629745,2.6719291,-9.457097,0.5315128
6.1169395,4.686384,-1.113965,0.35852817,-3.4629745,2.6719291,-9.457097,0.5315128
6.1132026,4.685346,-1.1459229,0.35213658,-3.6270251,2.6671407,-9.442732,0.4261679
6.1094937,4.6843176,-1.1459229,0.35213658,-3.6270251,2.6671407,-9.442732,0.4261679
6.1055903,4.683249,-1.1832072,0.34041867,-3.802794,2.528277,-9.5385,0.4357447
6.1016707,4.6821766,-1.1832072,0.34041867,-3.802794,2.528277,-9.5385,0.4357447
6.097585,4.6810617,-1.2236872,0.32017866,-3.984954,2.6767175,-9.696517,0.38307226
6.0935063,4.6799498,-1.2236872,0.32017866,-3.984954,2.6767175,-9.696517,0.38307226
6.0892396,4.6787977,-1.2577757,0.29035124,-4.17031,2.552219,-9.835381,0.2633622
6.0849805,4.6776485,-1.2577757,0.29035124,-4.17031,2.552219,-9.835381,0.2633622
6.0805545,4.676469,-1.2844073,0.25093648,-4.351405,2.5761611,-10.04607,0.272939
6.0761294,4.6752896,-1.2844073,0.25093648,-4.351405,2.5761611,-10.04607,0.272939
6.0715365,4.674079,-1.3057126,0.20086904,-4.525043,2.5761611,-10.223241,0.25378537
6.0669594,4.6728716,-1.3057126,0.20086904,-4.525043,2.5761611,-10.223241,0.25378537
6.062225,4.6716404,-1.3153,0.1476058,-4.6858983,2.6144683,-10.414778,0.30645782
6.0575013,4.670411,-1.3153,0.1476058,-4.6858983,2.6144683,-10.414778,0.30645782
6.0526195,4.669163,-1.3163652,0.09434259,-4.8403616,2.753332,-10.500969,0.22505496
6.0477405,4.667915,-1.3163652,0.09434259,-4.8403616,2.753332,-10.500969,0.22505496
6.042704,4.6666517,-1.3099736,0.03681831,-4.9894986,2.896984,-10.539276,0.18674773
6.0376754,4.665389,-1.3099736,0.03681831,-4.9894986,2.896984,-10.539276,0.18674773
6.032505,4.6641173,-1.2982557,-0.02496703,-5.1333094,2.992752,-10.5919485,0.20111294
6.0273423,4.6628437,-1.2822767,-0.08355658,-5.2717934,3.1986535,-10.6158905,0.15801731
6.0273423,4.6628437,-1.2822767,-0.08355658,-5.2717934,3.1986535,-10.6158905,0.15801731
6.0164385,4.6602097,-1.2822767,-0.08355658,-5.2717934,3.1986535,-10.6158905,0.15801731
6.0111256,4.658947,-1.2662978,-0.14001559,-5.4049516,3.466804,-10.58716,0.110133275
6.005738,4.6576633,-1.2662978,-0.14001559,-5.4049516,3.466804,-10.58716,0.110133275
5.999423,4.6561756,-1.2524494,-0.19434407,-5.534914,3.9121256,-10.548853,0.16759412
5.994442,4.654999,-1.2524494,-0.19434407,-5.534914,3.9121256,-10.548853,0.16759412
5.994442,4.654999,-1.2524494,-0.19434407,-5.534914,3.9121256,-10.548853,0.16759412
5.994442,4.654999,-1.2524494,-0.19434407,-5.534914,3.9121256,-10.548853,0.16759412
5.975998,4.6506853,-1.2204914,-0.27956524,-5.785251,4.4963107,-10.271125,0.06703765
5.9715323,4.649649,-1.2204914,-0.27956524,-5.785251,4.4963107,-10.271125,0.06703765
5.9655747,4.648303,-1.2034472,-0.30832738,-5.9034953,3.940856,-10.261548,-0.10534488
5.959631,4.6469555,-1.2034472,-0.30832738,-5.9034953,3.940856,-10.261548,-0.10534488
5.9536467,4.645624,-1.1885335,-0.32643688,-6.0142827,3.4476504,-10.295067,-0.33039984
5.9476867,4.6442866,-1.1885335,-0.32643688,-6.0142827,3.4476504,-10.295067,-0.33039984
5.941721,4.6428914,-1.1736197,-0.34561163,-6.106961,3.0214825,-10.304645,-0.48362875
5.9357877,4.6414933,-1.1736197,-0.34561163,-6.106961,3.0214825,-10.304645,-0.48362875
5.9298005,4.6400557,-1.1565756,-0.36904746,-6.1740727,2.7485435,-10.419566,-0.6512229
5.923808,4.638609,-1.1565756,-0.36904746,-6.1740727,2.7485435,-10.419566,-0.6512229
5.917764,4.637109,-1.1416619,-0.39354852,-6.22414,2.60968,-10.524911,-1.0821792
5.911717,4.635601,-1.1416619,-0.39354852,-6.22414,2.60968,-10.524911,-1.0821792
5.9056215,4.634048,-1.1288787,-0.4148538,-6.260359,2.6001031,-10.443508,-1.6807296
5.8998046,4.632559,-1.1288787,-0.4148538,-6.260359,2.6001031,-10.443508,-1.6807296
5.8937154,4.6310115,-1.1246176,-0.42976752,-6.275273,2.2409728,-10.6877165,-1.4460979
5.8873367,4.6293807,-1.1246176,-0.42976752,-6.275273,2.2409728,-10.6877165,-1.4460979
5.8812766,4.627831,-1.1214218,-0.4425507,-6.2688813,2.4133554,-10.6637745,-1.2018893
5.8752427,4.6262784,-1.1214218,-0.4425507,-6.2688813,2.4133554,-10.6637745,-1.2018893
5.86919,4.6247272,-1.1097039,-0.45959494,-6.2497063,2.303222,-10.6398325,-0.9816227
5.863103,4.6231556,-1.1097039,-0.45959494,-6.2497063,2.303222,-10.6398325,-0.9816227
5.8571033,4.6215906,-1.093725,-0.48196548,-6.219879,2.4516625,-10.180145,-1.0007763
5.8510876,4.6200094,-1.093725,-0.48196548,-6.219879,2.4516625,-10.180145,-1.0007763
5.8451376,4.618441,-1.0734849,-0.50966233,-6.1815295,2.4420857,-9.935937,-0.8762778
5.8391714,4.616857,-1.0734849,-0.50966233,-6.1815295,2.4420857,-9.935937,-0.8762778
5.8332567,4.6152806,-1.0511143,-0.53948975,-6.1325274,2.681506,-9.677363,-0.7517793
5.8273435,4.613693,-1.0511143,-0.53948975,-6.1325274,2.681506,-9.677363,-0.7517793
5.8214912,4.6121216,-1.025548,-0.5714477,-6.070742,2.743755,-9.710882,-0.5506664
5.8156404,4.6105375,-1.025548,-0.5714477,-6.070742,2.743755,-9.710882,-0.5506664
5.809857,4.608965,-0.99785113,-0.60340565,-6.00363,2.9352913,-9.586384,-0.46447513
5.8040752,4.607378,-0.99785113,-0.60340565,-6.00363,2.9352913,-9.586384,-0.46447513
5.7983675,4.605807,-0.9658932,-0.6353636,-5.929062,3.2225955,-9.586384,-0.40701428
5.7926674,4.6042233,-0.9658932,-0.6353636,-5.929062,3.2225955,-9.586384,-0.40701428
5.787051,4.602645,-0.9275437,-0.66625625,-5.8481016,3.2752678,-9.68694,-0.48841715
5.781437,4.6010528,-0.9275437,-0.66625625,-5.8481016,3.2752678,-9.68694,-0.48841715
5.775908,4.599483,-0.88599837,-0.6971489,-5.7628803,3.4237084,-9.758766,-0.41180268
5.7703815,4.5978985,-0.88599837,-0.6971489,-5.7628803,3.4237084,-9.758766,-0.41180268
5.764943,4.5963397,-0.8412573,-0.72484577,-5.669137,3.6727054,-9.639056,-0.39264908
5.7595177,4.5947695,-0.8412573,-0.72484577,-5.669137,3.6727054,-9.639056,-0.39264908
5.754172,4.5932407,-0.79118985,-0.75147736,-5.569002,3.7445314,-10.840945,0.24420857
5.7488284,4.5916967,-0.79118985,-0.75147736,-5.569002,3.7445314,-10.840945,0.24420857
5.743568,4.590206,-0.72833925,-0.7802395,-5.4699326,4.927267,-12.119449,0.521936
5.738311,4.5886993,-0.72833925,-0.7802395,-5.4699326,4.927267,-12.119449,0.521936
5.7331467,4.587286,-0.6367265,-0.7866311,-5.3612757,5.913678,-11.070788,-0.35913026
5.7279887,4.5858564,-0.6367265,-0.7866311,-5.3612757,5.913678,-11.070788,-0.35913026
5.723025,4.58446,-0.5397874,-0.7546732,-5.2398357,6.0860605,-9.878476,-1.2449849
5.7180614,4.5830545,-0.5397874,-0.7546732,-5.2398357,6.0860605,-9.878476,-1.2449849
5.713028,4.5818014,-0.47161052,-0.6992794,-5.1194606,6.0621185,-9.854534,-0.9816227
5.7082105,4.5805817,-0.47161052,-0.6992794,-5.1194606,6.0621185,-9.854534,-0.9816227
5.703379,4.5794253,-0.43113047,-0.6353636,-4.9969554,6.0621185,-9.801862,-0.60812724
5.698551,4.578255,-0.43113047,-0.6353636,-4.9969554,6.0621185,-9.801862,-0.60812724
5.6938033,4.577159,-0.40130305,-0.5703824,-4.8733845,6.215348,-9.528923,-0.5650316
5.689073,4.576053,-0.40130305,-0.5703824,-4.8733845,6.215348,-9.528923,-0.5650316
5.684454,4.5750136,-0.37786725,-0.5054013,-4.7476835,6.229713,-9.461885,-0.50757074
5.679842,4.5739627,-0.37786725,-0.5054013,-4.7476835,6.229713,-9.461885,-0.50757074
5.6752896,4.572938,-0.35549667,-0.4425507,-4.616656,5.674258,-9.375694,-0.5650316
5.670857,4.571927,-0.35549667,-0.4425507,-4.616656,5.674258,-9.375694,-0.5650316
5.666574,4.570965,-0.32993034,-0.38822222,-4.4792366,5.2528787,-9.208099,-0.63206923
5.6623797,4.570011,-0.32993034,-0.38822222,-4.4792366,5.2528787,-9.208099,-0.63206923
5.658263,4.569089,-0.30223346,-0.34561163,-4.3354263,4.9799395,-8.939949,-0.7374141
5.654148,4.568157,-0.30223346,-0.34561163,-4.3354263,4.9799395,-8.939949,-0.7374141
5.650171,4.5672765,-0.27240607,-0.31045792,-4.189485,4.793192,-8.815451,-0.78050977
5.646195,4.5663867,-0.27240607,-0.31045792,-4.189485,4.793192,-8.815451,-0.78050977
5.642371,4.565532,-0.24364392,-0.27636945,-4.0350213,4.453215,-8.724471,-0.9768343
5.6385627,4.5646734,-0.24364392,-0.27636945,-4.0350213,4.453215,-8.724471,-0.9768343
5.6348977,4.563858,-0.21701232,-0.23908518,-3.8709707,4.2999864,-8.432379,-1.1252748
5.6312475,4.563039,-0.21701232,-0.23908518,-3.8709707,4.2999864,-8.432379,-1.1252748
5.6277614,4.5622687,-0.19464175,-0.20393145,-3.7015936,4.1659107,-8.259995,-1.2306197
5.6242723,4.5614924,-0.19464175,-0.20393145,-3.7015936,4.1659107,-8.259995,-1.2306197
5.620948,4.5607624,-0.17866279,-0.16558194,-3.529021,4.146757,-8.0684595,-1.3359646
5.617621,4.560026,-0.17866279,-0.16558194,-3.529021,4.146757,-8.0684595,-1.3359646
5.6144667,4.5593443,-0.16481435,-0.1251019,-3.3607092,4.1276035,-7.843405,-1.3934253
5.6112995,4.558655,-0.16481435,-0.1251019,-3.3607092,4.1276035,-7.843405,-1.3934253
5.608285,4.558024,-0.1573575,-0.08355658,-3.198789,4.1611223,-7.5321584,-1.292869
5.6052856,4.557393,-0.1573575,-0.08355658,-3.198789,4.1611223,-7.5321584,-1.292869
5.6024184,4.5568156,-0.15096591,-0.04201126,-3.046456,4.0892963,-7.297527,-1.2354081
5.599552,4.5562353,-0.15096591,-0.04201126,-3.046456,4.0892963,-7.297527,-1.2354081
5.59683,4.555722,-0.14457433,-0.0025964756,-2.9037106,4.213795,-7.0341644,-1.0965444
5.5940943,4.555203,-0.14457433,-0.0025964756,-2.9037106,4.213795,-7.0341644,-1.0965444
5.5914946,4.5547304,-0.13818274,0.031491987,-2.7769442,4.19943,-6.919243,-1.1109096
5.5888844,4.5542536,-0.13818274,0.031491987,-2.7769442,4.19943,-6.919243,-1.1109096
5.586378,4.553808,-0.13179116,0.062384658,-2.6640263,4.3382936,-6.823475,-1.1683705
5.583882,4.5533633,-0.13179116,0.062384658,-2.6640263,4.3382936,-6.823475,-1.1683705
5.581474,4.5529685,-0.12646483,0.085820474,-2.561761,4.295198,-6.8426285,-1.0773908
5.579076,4.552573,-0.12646483,0.085820474,-2.561761,4.295198,-6.8426285,-1.0773908
5.576754,4.5521965,-0.120073244,0.10179944,-2.4722786,4.462792,-6.799533,-1.1300632
5.574444,4.5518208,-0.120073244,0.10179944,-2.4722786,4.462792,-6.799533,-1.1300632
5.5721993,4.5514736,-0.11368166,0.11032156,-2.39771,4.5298295,-6.943185,-1.1061212
5.5699506,4.5511246,-0.11368166,0.11032156,-2.39771,4.5298295,-6.943185,-1.1061212
5.5677695,4.5507975,-0.104094274,0.10925629,-2.3380551,4.5154643,-7.0964136,-1.091756
5.565582,4.5504684,-0.104094274,0.10925629,-2.3380551,4.5154643,-7.0964136,-1.091756
5.5634446,4.550155,-0.093441635,0.09860365,-2.2858572,4.5537715,-7.2209125,-1.043872
5.5613165,4.5498414,-0.093441635,0.09860365,-2.2858572,4.5537715,-7.2209125,-1.043872
5.559226,4.5495367,-0.0795932,0.07729836,-2.240051,4.5681367,-7.4124484,-0.9816227
5.557146,4.549231,-0.0795932,0.07729836,-2.240051,4.5681367,-7.4124484,-0.9816227
5.5550995,4.5489264,-0.062548965,0.04853622,-2.2017014,4.596867,-7.4363904,-0.93373865
5.5530486,4.5486193,-0.062548965,0.04853622,-2.2017014,4.596867,-7.4363904,-0.93373865
5.5510554,4.548308,-0.042308938,0.010186698,-2.1633518,4.721366,-7.4507556,-0.91937345
5.549054,4.547993,-0.042308938,0.010186698,-2.1633518,4.721366,-7.4507556,-0.91937345
5.547085,4.54767,-0.019938385,-0.035619672,-2.1281981,4.8841715,-7.469909,-0.8810662
5.545126,4.547346,-0.019938385,-0.035619672,-2.1281981,4.8841715,-7.469909,-0.8810662
5.543207,4.547009,0.0024321685,-0.08462184,-2.0941098,5.1762643,-7.417237,-0.89543146
5.541285,4.5466685,0.0024321685,-0.08462184,-2.0941098,5.1762643,-7.417237,-0.89543146
5.5394034,4.5463095,0.024802722,-0.13255873,-2.0674782,5.497087,-7.3549876,-0.9624691
5.5375185,4.545948,0.024802722,-0.13255873,-2.0674782,5.497087,-7.3549876,-0.9624691
5.53564,4.54559,0.04291222,-0.17943038,-2.0504339,5.8083334,-7.326257,-0.866701
5.5337696,4.5452304,0.04291222,-0.17943038,-2.0504339,5.8083334,-7.326257,-0.866701
5.531893,4.544862,0.058891185,-0.22097568,-2.0440423,6.0525417,-7.3071036,-0.8571242
5.5300255,4.544491,0.058891185,-0.22097568,-2.0440423,6.0525417,-7.3071036,-0.8571242
5.528142,4.544113,0.075935416,-0.25506416,-2.047238,6.3829417,-7.2783732,-0.94331545
5.52627,4.5437326,0.075935416,-0.25506416,-2.047238,6.3829417,-7.2783732,-0.94331545
5.52435,4.5433564,0.091914386,-0.2838263,-2.0600212,6.5744777,-7.28795,-0.8810662
5.522432,4.5429754,0.091914386,-0.2838263,-2.0600212,6.5744777,-7.28795,-0.8810662
5.5204906,4.5425925,0.11108914,-0.30619684,-2.083457,6.5984197,-7.2544312,-0.8283938
5.5185447,4.542204,0.11108914,-0.30619684,-2.083457,6.5984197,-7.2544312,-0.8283938
5.51657,4.54182,0.13239443,-0.32324108,-2.1100886,6.612785,-7.1251445,-0.81881696
5.514588,4.54143,0.13239443,-0.32324108,-2.1100886,6.612785,-7.1251445,-0.81881696
5.5126095,4.5410357,0.15583025,-0.3370895,-2.1399162,6.531382,-7.1490865,-0.8379706
5.510626,4.5406356,0.15583025,-0.3370895,-2.1399162,6.531382,-7.1490865,-0.8379706
5.5086327,4.5402303,0.17820081,-0.35093796,-2.1729393,6.4547677,-7.0724716,-0.8762778
5.5066338,4.539818,0.17820081,-0.35093796,-2.1729393,6.4547677,-7.0724716,-0.8762778
5.5046234,4.539403,0.20163663,-0.36691692,-2.2017014,6.397307,-7.067683,-0.8619126
5.5026064,4.538981,0.20163663,-0.36691692,-2.2017014,6.397307,-7.067683,-0.8619126
5.5005817,4.538557,0.22400717,-0.38183063,-2.2262025,6.4020953,-6.9958572,-0.90500826
5.498551,4.538126,0.22400717,-0.38183063,-2.2262025,6.4020953,-6.9958572,-0.90500826
5.4965158,4.537691,0.24531247,-0.39887485,-2.2453773,6.363788,-6.909666,-0.91937345
5.4944744,4.5372486,0.24531247,-0.39887485,-2.2453773,6.363788,-6.909666,-0.91937345
5.4924297,4.536796,0.26448724,-0.4180496,-2.264552,6.3781533,-6.8330517,-0.9576807
5.4903793,4.536336,0.26448724,-0.4180496,-2.264552,6.3781533,-6.8330517,-0.9576807
5.4883423,4.5358415,0.27940091,-0.43828964,-2.2794657,6.363788,-6.742072,-1.043872
5.486298,4.535339,0.27940091,-0.43828964,-2.2794657,6.363788,-6.742072,-1.043872
5.484267,4.534795,0.2921841,-0.46172544,-2.2879877,6.3781533,-6.727707,-1.1109096
5.4822307,4.534244,0.2921841,-0.46172544,-2.2879877,6.3781533,-6.727707,-1.1109096
5.4802046,4.533645,0.30283675,-0.4904876,-2.2911837,6.579266,-6.6367273,-1.1731589
5.478177,4.533042,0.30283675,-0.4904876,-2.2911837,6.579266,-6.6367273,-1.1731589
5.476135,4.5323367,0.31348938,-0.51924974,-2.2901185,6.6750345,-6.5218053,-1.2354081
5.4741063,4.531638,0.31348938,-0.51924974,-2.2901185,6.6750345,-6.5218053,-1.2354081
5.471815,4.530925,0.3220115,-0.5469466,-2.284792,6.9288197,-6.4020953,-1.1827357
5.469533,4.5302114,0.3220115,-0.5469466,-2.284792,6.9288197,-6.4020953,-1.1827357
5.4672723,4.5294127,0.33266416,-0.572513,-2.2826614,7.1059904,-6.301539,-1.2785037
5.4650197,4.5286045,0.33266416,-0.572513,-2.2826614,7.1059904,-6.301539,-1.2785037
5.462756,4.5278397,0.3433168,-0.5948835,-2.280531,7.16824,-6.1770406,-1.2066777
5.460486,4.5270658,0.3433168,-0.5948835,-2.280531,7.16824,-6.1770406,-1.2066777
5.458103,4.526183,0.35396942,-0.61405826,-2.27627,7.1730285,-6.133945,-1.2785037
5.455898,4.5253563,0.35396942,-0.61405826,-2.27627,7.1730285,-6.133945,-1.2785037
5.4535785,4.524485,0.36568734,-0.6311025,-2.2698784,7.177817,-6.090849,-1.2593501
5.4514914,4.5236917,0.36568734,-0.6311025,-2.2698784,7.177817,-6.090849,-1.2593501
5.4493,4.5228114,0.37634,-0.6449509,-2.2549646,7.216124,-5.9519854,-1.3503298
5.4493,4.5228114,0.37634,-0.6449509,-2.2549646,7.216124,-5.9519854,-1.3503298
5.444767,4.520958,0.38592738,-0.6577341,-2.2347245,7.225701,-5.81791,-1.3599066
5.4426394,4.520072,0.38592738,-0.6577341,-2.2347245,7.225701,-5.81791,-1.3599066
5.4404917,4.5191545,0.3944495,-0.66625625,-2.2091582,7.216124,-5.6982,-1.4077905
5.4404917,4.5191545,0.3944495,-0.66625625,-2.2091582,7.216124,-5.6982,-1.4077905
5.436298,4.5173383,0.3997758,-0.67051727,-2.1782656,7.345411,-5.57849,-1.436521
5.434179,4.516412,0.3997758,-0.67051727,-2.1782656,7.345411,-5.57849,-1.436521
5.434179,4.516412,0.3997758,-0.67051727,-2.1782656,7.345411,-5.57849,-1.436521
5.4298177,4.5144234,0.40190634,-0.6715826,-2.1409814,7.4124484,-5.439626,-1.5753847
5.427923,4.5135574,0.4008411,-0.665191,-2.1005013,7.560889,-5.2768207,-1.6041151
5.4259095,4.5126286,0.4008411,-0.665191,-2.1005013,7.560889,-5.2768207,-1.6041151
5.4239373,4.5117235,0.3976453,-0.65240777,-2.0568254,7.632715,-5.1235914,-1.6041151
5.421941,4.510799,0.3976453,-0.65240777,-2.0568254,7.632715,-5.1235914,-1.6041151
5.4199843,4.509889,0.3912537,-0.63216776,-2.0120842,7.675811,-4.9703627,-1.6759412
5.418028,4.508971,0.3912537,-0.63216776,-2.0120842,7.675811,-4.9703627,-1.6759412
5.4161177,4.508072,0.38060105,-0.6087319,-1.9684085,7.680599,-4.841076,-1.7381904
5.4142056,4.507164,0.38060105,-0.6087319,-1.9684085,7.680599,-4.841076,-1.7381904
5.4123344,4.5062747,0.36781788,-0.5810351,-1.922602,7.6853876,-4.7884035,-1.7908629
5.410465,4.5053782,0.36781788,-0.5810351,-1.922602,7.6853876,-4.7884035,-1.7908629
5.408622,4.504497,0.35396942,-0.5522729,-1.8757305,7.6375036,-4.7165775,-1.8052281
5.4068103,4.503624,0.35396942,-0.5522729,-1.8757305,7.6375036,-4.7165775,-1.8052281
5.4050374,4.502757,0.3369252,-0.52457607,-1.8267283,7.6375036,-4.7500963,-1.9009962
5.4032617,4.5018816,0.3369252,-0.52457607,-1.8267283,7.6375036,-4.7500963,-1.9009962
5.4015303,4.5010223,0.31988096,-0.49794444,-1.773465,7.6135616,-4.7644615,-1.9153614
5.3998184,4.500166,0.31988096,-0.49794444,-1.773465,7.6135616,-4.7644615,-1.9153614
5.3981476,4.4993277,0.3007062,-0.47131285,-1.7148756,7.675811,-4.7884035,-1.910573
5.3964787,4.4984837,0.3007062,-0.47131285,-1.7148756,7.675811,-4.7884035,-1.910573
5.3948607,4.4976606,0.283662,-0.44468123,-1.660547,7.632715,-4.8362875,-1.8962077
5.393255,4.4968386,0.283662,-0.44468123,-1.660547,7.632715,-4.8362875,-1.8962077
5.3916936,4.496028,0.26661775,-0.42231068,-1.6030228,7.6375036,-4.927267,-1.8770541
5.3901196,4.495206,0.26661775,-0.42231068,-1.6030228,7.6375036,-4.927267,-1.8770541
5.3886304,4.4944024,0.25170404,-0.40207064,-1.5412375,7.560889,-5.0134583,-1.934515
5.3871536,4.4936,0.25170404,-0.40207064,-1.5412375,7.560889,-5.0134583,-1.934515
5.385724,4.4928136,0.23892088,-0.3828959,-1.4783869,7.627927,-5.104438,-1.9249382
5.384289,4.492019,0.23892088,-0.3828959,-1.4783869,7.627927,-5.104438,-1.9249382
5.3829193,4.49125,0.2261377,-0.36798218,-1.4144709,7.651869,-5.109226,-1.8914193
5.381551,4.490476,0.2261377,-0.36798218,-1.4144709,7.651869,-5.109226,-1.8914193
5.3802423,4.489722,0.21335453,-0.35306847,-1.3505551,7.656657,-5.1235914,-1.8770541
5.3789372,4.488964,0.21335453,-0.35306847,-1.3505551,7.656657,-5.1235914,-1.8770541
5.3776793,4.488234,0.20376715,-0.33602425,-1.2887697,7.752425,-5.1235914,-1.8626889
5.3764243,4.487501,0.20376715,-0.33602425,-1.2887697,7.752425,-5.1235914,-1.8626889
5.3752213,4.4867916,0.1931145,-0.31898,-1.2312455,7.8146744,-5.118803,-1.8914193
5.374019,4.4860787,0.1931145,-0.31898,-1.2312455,7.8146744,-5.118803,-1.8914193
5.3728566,4.4853992,0.1813966,-0.30087054,-1.1758517,7.848193,-5.0996494,-1.7956513
5.3716936,4.4847155,0.1813966,-0.30087054,-1.1758517,7.848193,-5.0996494,-1.7956513
5.370577,4.4840584,0.17180921,-0.2806305,-1.124719,7.8865004,-5.0517654,-1.8387469
5.3694615,4.483399,0.17180921,-0.2806305,-1.124719,7.8865004,-5.0517654,-1.8387469
5.368388,4.482759,0.15796077,-0.26145574,-1.0789126,7.8146744,-5.0374002,-1.8148049
5.367316,4.4821157,0.15796077,-0.26145574,-1.0789126,7.8146744,-5.0374002,-1.8148049
5.3662863,4.481494,0.14624287,-0.24228097,-1.0352368,7.762002,-5.0900726,-1.7812861
5.365258,4.480869,0.14624287,-0.24228097,-1.0352368,7.762002,-5.0900726,-1.7812861
5.364261,4.48026,0.1334597,-0.22843254,-0.995822,7.752425,-5.1475334,-1.70946
5.3632674,4.47965,0.1334597,-0.22843254,-0.995822,7.752425,-5.1475334,-1.70946
5.362302,4.4790545,0.12493758,-0.21884516,-0.9606683,7.714118,-5.185841,-1.6376339
5.361337,4.4784555,0.12493758,-0.21884516,-0.9606683,7.714118,-5.185841,-1.6376339
5.360416,4.47786,0.11641546,-0.2145841,-0.9223188,7.747637,-5.2480903,-1.6519991
5.359496,4.477261,0.11641546,-0.2145841,-0.9223188,7.747637,-5.2480903,-1.6519991
5.3586035,4.476674,0.11215441,-0.21351884,-0.8860998,7.785944,-5.3247046,-1.5849615
5.3577127,4.4760847,0.11215441,-0.21351884,-0.8860998,7.785944,-5.3247046,-1.5849615
5.3568754,4.475485,0.11002388,-0.21351884,-0.8520113,7.795521,-5.425261,-1.6280571
5.35605,4.4748907,0.11002388,-0.21351884,-0.8520113,7.795521,-5.425261,-1.6280571
5.355261,4.474299,0.11002388,-0.2145841,-0.8179229,7.8050976,-5.4779334,-1.6041151
5.3544736,4.4737053,0.11002388,-0.2145841,-0.8179229,7.8050976,-5.4779334,-1.6041151
5.353721,4.4731197,0.11215441,-0.21671464,-0.78276914,7.8865004,-5.5641246,-1.5801731
5.352972,4.472533,0.11215441,-0.21671464,-0.78276914,7.8865004,-5.5641246,-1.5801731
5.352275,4.471956,0.11428493,-0.21564937,-0.7508112,7.8769236,-5.60722,-1.5849615
5.3515816,4.4713774,0.11428493,-0.21564937,-0.7508112,7.8769236,-5.60722,-1.5849615
5.350965,4.470821,0.11641546,-0.2145841,-0.7167227,7.9152308,-5.741296,-1.6567876
5.350374,4.470285,0.11641546,-0.2145841,-0.7167227,7.9152308,-5.741296,-1.6567876
5.349795,4.4697447,0.11641546,-0.21032305,-0.6826343,7.8865004,-5.722142,-1.6903064
5.349195,4.4691834,0.11641546,-0.21032305,-0.6826343,7.8865004,-5.722142,-1.6903064
5.3486676,4.468671,0.11428493,-0.20393145,-0.6517416,7.9631147,-5.8083334,-1.6184803
5.3481474,4.4681635,0.11428493,-0.20393145,-0.6517416,7.9631147,-5.8083334,-1.6184803
5.3476663,4.4676857,0.11215441,-0.19434407,-0.62297946,7.991845,-5.81791,-1.5514427
5.347186,4.4672084,0.11215441,-0.19434407,-0.62297946,7.991845,-5.81791,-1.5514427
5.346789,4.466913,0.11002388,-0.1815609,-0.5984784,7.896077,-5.8562174,-1.4413095
5.3463907,4.4666195,0.11002388,-0.1815609,-0.5984784,7.896077,-5.8562174,-1.4413095
5.3460054,4.466282,0.10895862,-0.16771246,-0.5750426,7.8146744,-5.8562174,-1.508347
5.34562,4.4659452,0.10895862,-0.16771246,-0.5750426,7.8146744,-5.8562174,-1.508347
5.3452597,4.465677,0.10789335,-0.15599456,-0.55480254,7.6135616,-5.8083334,-1.4413095
5.3448977,4.465409,0.10789335,-0.15599456,-0.55480254,7.6135616,-5.8083334,-1.4413095
5.3445506,4.465129,0.10895862,-0.14534192,-0.5345625,7.52737,-5.81791,-1.4987702
5.344204,4.46485,0.10895862,-0.14534192,-0.5345625,7.52737,-5.81791,-1.4987702
5.343874,4.464592,0.11002388,-0.13895033,-0.516453,7.398083,-5.837064,-1.4987702
5.3435445,4.4643345,0.11002388,-0.13895033,-0.516453,7.398083,-5.837064,-1.4987702
5.3432355,4.4640965,0.11002388,-0.13788506,-0.49621302,7.2448545,-5.837064,-1.4748282
5.342927,4.4638586,0.11002388,-0.13788506,-0.49621302,7.2448545,-5.837064,-1.4748282
5.34264,4.463622,0.11108914,-0.13895033,-0.47384244,7.129933,-5.81791,-1.484405
5.342353,4.4633865,0.11108914,-0.13895033,-0.47384244,7.129933,-5.81791,-1.484405
5.3420887,4.463132,0.11215441,-0.14534192,-0.44934136,7.0245876,-5.7365074,-1.5227122
5.3418245,4.4628773,0.11215441,-0.14534192,-0.44934136,7.0245876,-5.7365074,-1.5227122
5.3415823,4.462601,0.11321967,-0.15599456,-0.42590556,6.9383965,-5.755661,-1.5945383
5.34134,4.462325,0.11321967,-0.15599456,-0.42590556,6.9383965,-5.755661,-1.5945383
5.3411236,4.462037,0.11641546,-0.16877773,-0.40140447,6.943185,-5.7508726,-1.6184803
5.3409066,4.461749,0.11641546,-0.16877773,-0.40140447,6.943185,-5.7508726,-1.6184803
5.340717,4.461454,0.120676525,-0.18369143,-0.37796864,7.0102224,-5.6359506,-1.5610195
5.340527,4.4611597,0.120676525,-0.18369143,-0.37796864,7.0102224,-5.6359506,-1.5610195
5.3403397,4.4608083,0.12493758,-0.19753987,-0.35666338,7.1634517,-5.521029,-1.6424223
5.340153,4.4604573,0.12493758,-0.19753987,-0.35666338,7.1634517,-5.521029,-1.6424223
5.3399715,4.4600773,0.12813337,-0.21245357,-0.34281492,7.3549876,-5.377377,-1.5179238
5.3397913,4.4596987,0.12813337,-0.21245357,-0.34281492,7.3549876,-5.377377,-1.5179238
5.3395395,4.45924,0.13132916,-0.22843254,-0.33642334,7.541735,-5.281609,-1.685518
5.339289,4.458781,0.13132916,-0.22843254,-0.33642334,7.541735,-5.281609,-1.685518
5.3390217,4.4582953,0.13239443,-0.24441151,-0.34174967,7.551312,-5.2145715,-1.7190368
5.3387556,4.457809,0.13239443,-0.24441151,-0.34174967,7.551312,-5.2145715,-1.7190368
5.3384647,4.4572988,0.13452496,-0.2593252,-0.3524023,7.551312,-5.1379566,-1.6998832
5.3381753,4.456788,0.13452496,-0.2593252,-0.3524023,7.551312,-5.1379566,-1.6998832
5.337867,4.4562416,0.13559023,-0.27956524,-0.36518547,7.52737,-5.070919,-1.7046716
5.337538,4.455655,0.13559023,-0.27956524,-0.36518547,7.52737,-5.070919,-1.7046716
5.337221,4.4551196,0.13772075,-0.30300105,-0.37903392,7.603985,-4.9464207,-1.7429788
5.3368845,4.4545474,0.13772075,-0.30300105,-0.37903392,7.603985,-4.9464207,-1.7429788
5.3365507,4.453925,0.13878602,-0.32643688,-0.3918171,7.599196,-4.9559975,-1.8531121
5.336233,4.45333,0.13878602,-0.32643688,-0.3918171,7.599196,-4.9559975,-1.8531121
5.3359118,4.452685,0.13985129,-0.35093796,-0.39820868,7.5704656,-4.9416323,-1.8770541
5.335585,4.4520264,0.13985129,-0.35093796,-0.39820868,7.5704656,-4.9416323,-1.8770541
5.33525,4.451344,0.13559023,-0.3733085,-0.39607814,7.675811,-4.8506527,-1.8914193
5.334915,4.4506607,0.13559023,-0.3733085,-0.39607814,7.675811,-4.8506527,-1.8914193
5.334578,4.449953,0.13132916,-0.39354852,-0.3886213,7.8290396,-4.7979803,-1.9201498
5.334242,4.4492455,0.13132916,-0.39354852,-0.3886213,7.8290396,-4.7979803,-1.9201498
5.333903,4.44852,0.12600285,-0.41165802,-0.37690338,8.034941,-4.7979803,-1.8914193
5.3335643,4.447795,0.12600285,-0.41165802,-0.37690338,8.034941,-4.7979803,-1.8914193
5.3332334,4.4470596,0.11641546,-0.4244412,-0.35985917,8.255207,-4.8362875,-1.8818425
5.332903,4.446323,0.11641546,-0.4244412,-0.35985917,8.255207,-4.8362875,-1.8818425
5.332586,4.4455843,0.104697555,-0.42976752,-0.33855388,8.48984,-4.8602295,-1.9009962
5.332269,4.4448442,0.104697555,-0.42976752,-0.33855388,8.48984,-4.8602295,-1.9009962
5.3319693,4.444106,0.09404491,-0.43083277,-0.31724858,8.571242,-4.8985367,-1.8818425
5.33167,4.4433675,0.09404491,-0.43083277,-0.31724858,8.571242,-4.8985367,-1.8818425
5.3313913,4.442629,0.082327,-0.42657173,-0.29487804,8.676587,-4.951209,-1.9153614
5.3311124,4.441888,0.082327,-0.42657173,-0.29487804,8.676587,-4.951209,-1.9153614
5.3308496,4.441169,0.07060909,-0.4180496,-0.26931167,8.695741,-4.9655743,-1.8483237
5.3305874,4.4404526,0.07060909,-0.4180496,-0.26931167,8.695741,-4.9655743,-1.8483237
5.3303447,4.43975,0.056760654,-0.40313593,-0.24374533,8.762778,-4.9895163,-1.8626889
5.330103,4.4390483,0.056760654,-0.40313593,-0.24374533,8.762778,-4.9895163,-1.8626889
5.3298798,4.43837,0.041846953,-0.38183063,-0.21711372,8.810662,-5.0038815,-1.8722657
5.329657,4.437692,0.041846953,-0.38183063,-0.21711372,8.810662,-5.0038815,-1.8722657
5.329451,4.4370527,0.02906378,-0.35732955,-0.18941684,8.772355,-5.032612,-1.8195933
5.329245,4.436414,0.02906378,-0.35732955,-0.18941684,8.772355,-5.032612,-1.8195933
5.3290544,4.435821,0.015215342,-0.3285674,-0.16171996,8.7053175,-5.0757074,-1.757344
5.328862,4.4352255,0.015215342,-0.3285674,-0.16171996,8.7053175,-5.0757074,-1.757344
5.3286943,4.4346633,0.001366904,-0.29874,-0.13295783,8.623915,-5.104438,-1.7621324
5.3285255,4.434101,0.001366904,-0.29874,-0.13295783,8.623915,-5.104438,-1.7621324
5.3283954,4.43355,-0.0114162695,-0.26784733,-0.10206516,8.485051,-5.1762643,-1.8148049
5.328265,4.4329996,-0.0114162695,-0.26784733,-0.10206516,8.485051,-5.1762643,-1.8148049
5.3281574,4.432495,-0.024199443,-0.23695466,-0.0679767,8.42759,-5.2049947,-1.7764976
5.328049,4.43199,-0.024199443,-0.23695466,-0.0679767,8.42759,-5.2049947,-1.7764976
5.328049,4.43199,-0.035917353,-0.21032305,-0.031757705,8.274361,-5.257667,-1.8291701
5.328049,4.43199,-0.035917353,-0.21032305,-0.031757705,8.274361,-5.257667,-1.8291701
5.32808,4.4305305,-0.048700526,-0.1847567,0.0065918155,8.1402855,-5.3582234,-1.7621324
5.3280888,4.430066,-0.048700526,-0.1847567,0.0065918155,8.1402855,-5.3582234,-1.7621324
5.328211,4.429657,-0.0614837,-0.16132088,0.047071867,7.9343843,-5.425261,-1.7717092
5.3283367,4.4292355,-0.0614837,-0.16132088,0.047071867,7.9343843,-5.425261,-1.7717092
5.328521,4.4288764,-0.07320161,-0.14108086,0.09074771,7.881712,-5.463568,-1.7669208
5.3287115,4.428504,-0.07320161,-0.14108086,0.09074771,7.881712,-5.463568,-1.7669208
5.3289647,4.4281917,-0.08278899,-0.121906094,0.13655408,7.690176,-5.45878,-1.7860745
5.329219,4.427879,-0.08278899,-0.121906094,0.13655408,7.690176,-5.45878,-1.7860745
5.329541,4.427637,-0.091311105,-0.106992394,0.1866215,7.642292,-5.530606,-1.7477672
5.3298664,4.427395,-0.091311105,-0.106992394,0.1866215,7.642292,-5.530606,-1.7477672
5.330242,4.427209,-0.09770269,-0.09420922,0.2377542,7.551312,-5.60722,-1.757344
5.3306212,4.427022,-0.09770269,-0.09420922,0.2377542,7.551312,-5.60722,-1.757344
5.331051,4.4268737,-0.104094274,-0.08249131,0.2920827,7.4842744,-5.6359506,-1.7621324
5.3314815,4.4267263,-0.104094274,-0.08249131,0.2920827,7.4842744,-5.6359506,-1.7621324
5.3319664,4.426629,-0.107290074,-0.07396919,0.3453459,7.4746976,-5.66947,-1.7238252
5.3324523,4.4265327,-0.107290074,-0.07396919,0.3453459,7.4746976,-5.66947,-1.7238252
5.3329816,4.42646,-0.108355336,-0.06757761,0.39434808,7.455544,-5.731719,-1.757344
5.3335114,4.426387,-0.108355336,-0.06757761,0.39434808,7.455544,-5.731719,-1.757344
5.334086,4.426353,-0.107290074,-0.062251285,0.44015446,7.560889,-5.765238,-1.733402
5.3346605,4.4263186,-0.107290074,-0.062251285,0.44015446,7.560889,-5.765238,-1.733402
5.3352656,4.4262767,-0.10515954,-0.059055492,0.4806345,7.632715,-5.78918,-1.8100165
5.33587,4.4262342,-0.10515954,-0.059055492,0.4806345,7.632715,-5.78918,-1.8100165
5.336517,4.426242,-0.09983322,-0.059055492,0.5157882,7.6853876,-5.841852,-1.7525556
5.337163,4.426249,-0.09983322,-0.059055492,0.5157882,7.6853876,-5.841852,-1.7525556
5.3378406,4.4263096,-0.0945069,-0.057990227,0.54455036,7.7093296,-5.851429,-1.685518
5.338518,4.4263697,-0.0945069,-0.057990227,0.54455036,7.7093296,-5.851429,-1.685518
5.3392186,4.4264593,-0.08598478,-0.057990227,0.56905144,7.6853876,-5.841852,-1.661576
5.339919,4.4265485,-0.08598478,-0.057990227,0.56905144,7.6853876,-5.841852,-1.661576
5.3406343,4.426702,-0.076397404,-0.060120758,0.591422,7.6470804,-5.841852,-1.5658079
5.341349,4.4268556,-0.076397404,-0.060120758,0.591422,7.6470804,-5.841852,-1.5658079
5.342083,4.42703,-0.06467949,-0.066512346,0.6127273,7.6710224,-5.913678,-1.5514427
5.342816,4.427204,-0.06467949,-0.066512346,0.6127273,7.6710224,-5.913678,-1.5514427
5.343566,4.4274025,-0.052961584,-0.07609972,0.6340326,7.6853876,-5.9567738,-1.508347
5.344314,4.4276013,-0.052961584,-0.07609972,0.6340326,7.6853876,-5.9567738,-1.508347
5.345072,4.4278293,-0.041243672,-0.08781763,0.6574684,7.752425,-5.971139,-1.4508862
5.345829,4.4280577,-0.041243672,-0.08781763,0.6574684,7.752425,-5.971139,-1.4508862
5.346612,4.428298,-0.029525764,-0.09847028,0.6851653,7.8290396,-5.9663506,-1.4700398
5.3473935,4.428539,-0.029525764,-0.09847028,0.6851653,7.8290396,-5.9663506,-1.4700398
5.3481674,4.4288173,-0.018873122,-0.105927125,0.7149927,7.9583263,-5.9998693,-1.3599066
5.3489394,4.4290953,-0.018873122,-0.105927125,0.7149927,7.9583263,-5.9998693,-1.3599066
5.349744,4.429388,-0.009285741,-0.109122925,0.74482006,8.030152,-6.0285997,-1.4173675
5.3505497,4.4296813,-0.009285741,-0.109122925,0.74482006,8.030152,-6.0285997,-1.4173675
5.351394,4.429987,-0.0007636249,-0.109122925,0.7746475,8.101978,-5.995081,-1.5466543
5.352238,4.4302936,-0.0007636249,-0.109122925,0.7746475,8.101978,-5.995081,-1.5466543
5.353081,4.4306345,0.0066932263,-0.10486186,0.80554014,8.1881695,-5.995081,-1.541866
5.35392,4.430975,0.0066932263,-0.10486186,0.80554014,8.1881695,-5.995081,-1.541866
5.354766,4.431345,0.012019549,-0.095274486,0.8385634,8.255207,-5.985504,-1.5849615
5.355606,4.4317145,0.012019549,-0.095274486,0.8385634,8.255207,-5.985504,-1.5849615
5.3564596,4.4321113,0.015215342,-0.08462184,0.86839074,8.307879,-5.9807158,-1.5131354
5.357282,4.4324923,0.015215342,-0.08462184,0.86839074,8.307879,-5.9807158,-1.5131354
5.3580756,4.432865,0.017345872,-0.07183866,0.89821815,8.39886,-5.971139,-1.6136919
5.3588743,4.4332356,0.017345872,-0.07183866,0.89821815,8.39886,-5.971139,-1.6136919
5.3597183,4.4336586,0.020541664,-0.0558597,0.9301761,8.418014,-5.9998693,-1.5610195
5.360558,4.434077,0.020541664,-0.0558597,0.9301761,8.418014,-5.9998693,-1.5610195
5.3614025,4.434508,0.024802722,-0.03881547,0.9631993,8.441956,-6.009446,-1.6184803
5.3622446,4.4349337,0.024802722,-0.03881547,0.9631993,8.441956,-6.009446,-1.6184803
5.3631296,4.4354153,0.027998514,-0.020705972,0.99728775,8.379706,-5.9998693,-1.5801731
5.3640127,4.4358926,0.027998514,-0.020705972,0.99728775,8.379706,-5.9998693,-1.5801731
5.3649573,4.4364405,0.031194309,0.0016645822,1.034572,8.279149,-5.9998693,-1.5179238
5.3658967,4.436983,0.031194309,0.0016645822,1.034572,8.279149,-5.9998693,-1.5179238
5.3669395,4.437603,0.034390103,0.0251004,1.0771827,8.121132,-6.019023,-1.5753847
5.3679895,4.438229,0.034390103,0.0251004,1.0771827,8.121132,-6.019023,-1.5753847
5.36913,4.4388456,0.03545537,0.04853622,1.1251194,7.97748,-6.0764837,-1.5993267
5.3702717,4.4394665,0.03545537,0.04853622,1.1251194,7.97748,-6.0764837,-1.5993267
5.3715024,4.4401145,0.03652063,0.071972035,1.1805133,7.8050976,-6.0764837,-1.5801731
5.3727307,4.440761,0.03652063,0.071972035,1.1805133,7.8050976,-6.0764837,-1.5801731
5.3740387,4.441385,0.03652063,0.09540785,1.2412333,7.6710224,-6.0477533,-1.6376339
5.3753495,4.442006,0.03652063,0.09540785,1.2412333,7.6710224,-6.0477533,-1.6376339
5.376714,4.442672,0.03545537,0.117778406,1.308345,7.642292,-6.0477533,-1.6328455
5.3780847,4.4433355,0.03545537,0.117778406,1.308345,7.642292,-6.0477533,-1.6328455
5.3795147,4.4440236,0.034390103,0.1390837,1.380783,7.5848308,-6.0046577,-1.6376339
5.380951,4.4447083,0.034390103,0.1390837,1.380783,7.5848308,-6.0046577,-1.6376339
5.3824363,4.4455147,0.034390103,0.16251951,1.4564167,7.517793,-6.0285997,-1.5514427
5.383925,4.44632,0.034390103,0.16251951,1.4564167,7.517793,-6.0285997,-1.5514427
5.3854876,4.4471464,0.03652063,0.18595533,1.534181,7.445967,-6.1004257,-1.5753847
5.3870544,4.447971,0.03652063,0.18595533,1.534181,7.445967,-6.1004257,-1.5753847
5.3886986,4.448802,0.039716423,0.2083259,1.6172717,7.311892,-6.105214,-1.6280571
5.3903494,4.4496293,0.039716423,0.2083259,1.6172717,7.311892,-6.105214,-1.6280571
5.3920636,4.450474,0.041846953,0.22856592,1.7014276,7.2544312,-6.167464,-1.6903064
5.393785,4.4513144,0.041846953,0.22856592,1.7014276,7.2544312,-6.167464,-1.6903064
5.3955846,4.45228,0.04610801,0.24241436,1.7855835,7.1634517,-6.315904,-1.5227122
5.397378,4.4532366,0.04610801,0.24241436,1.7855835,7.1634517,-6.315904,-1.5227122
5.3992615,4.4542212,0.049303804,0.25093648,1.8708047,7.015011,-6.4308257,-1.532289
5.4011383,4.4551954,0.049303804,0.25093648,1.8708047,7.015011,-6.4308257,-1.532289
5.403114,4.456178,0.055695392,0.25519753,1.9613521,6.8522053,-6.4882865,-1.6232687
5.405082,4.4571495,0.055695392,0.25519753,1.9613521,6.8522053,-6.4882865,-1.6232687
5.407152,4.4581556,0.06528277,0.25413227,2.057226,6.8809357,-6.5936313,-1.6424223
5.409215,4.45915,0.06528277,0.25413227,2.057226,6.8809357,-6.5936313,-1.6424223
5.411387,4.460188,0.073804885,0.2498712,2.1605566,6.871359,-6.670246,-1.6041151
5.414129,4.461487,0.073804885,0.2498712,2.1605566,6.871359,-6.670246,-1.6041151
5.415872,4.4623127,0.08339227,0.24454488,2.2681482,6.8522053,-6.7229185,-1.5179238
5.4180794,4.463352,0.08339227,0.24454488,2.2681482,6.8522053,-6.7229185,-1.5179238
5.420453,4.464469,0.09617544,0.24028382,2.3821316,6.6654577,-6.6893997,-1.4077905
5.4228306,4.4655795,0.09617544,0.24028382,2.3821316,6.6654577,-6.6893997,-1.4077905
5.42531,4.466776,0.11108914,0.23708802,2.5014412,7.1490865,-6.9240313,-1.283292
5.42778,4.4679604,0.11108914,0.23708802,2.5014412,7.1490865,-6.9240313,-1.283292
5.430384,4.4691896,0.13132916,0.24561015,2.625012,7.2927384,-7.0006456,-1.4030021
5.432993,4.470414,0.13132916,0.24561015,2.625012,7.2927384,-7.0006456,-1.4030021
5.4357414,4.471675,0.15583025,0.2711765,2.7592351,6.9479733,-7.129933,-1.5035586
5.4384904,4.472925,0.15583025,0.2711765,2.7592351,6.9479733,-7.129933,-1.5035586
5.441375,4.474231,0.18352713,0.30206916,2.9019806,6.6510925,-7.1730285,-1.6280571
5.4442635,4.475526,0.18352713,0.30206916,2.9019806,6.6510925,-7.1730285,-1.6280571
5.447294,4.4769154,0.21335453,0.325505,3.0500524,6.459556,-7.273585,-1.5658079
5.450323,4.4782906,0.21335453,0.325505,3.0500524,6.459556,-7.273585,-1.5658079
5.4534903,4.4797416,0.24318193,0.34148395,3.1981242,6.3350577,-7.3310456,-1.5275006
5.456662,4.481181,0.24318193,0.34148395,3.1981242,6.3350577,-7.3310456,-1.5275006
5.4599767,4.482701,0.27300933,0.34787554,3.3493917,6.105214,-7.536947,-1.364695
5.4632998,4.48421,0.27300933,0.34787554,3.3493917,6.105214,-7.536947,-1.364695
5.4667587,4.4857707,0.303902,0.34681025,3.5027897,5.9184666,-7.723695,-1.292869
5.4702334,4.4873233,0.303902,0.34681025,3.5027897,5.9184666,-7.723695,-1.292869
5.4738436,4.488921,0.33905575,0.33509237,3.6551225,5.8801594,-7.9583263,-1.2114661
5.4774704,4.49051,0.33905575,0.33509237,3.6551225,5.8801594,-7.9583263,-1.2114661
5.4812365,4.4921494,0.3795358,0.32017866,3.8127818,5.899313,-8.169016,-1.0869676
5.4850187,4.4937797,0.3795358,0.32017866,3.8127818,5.899313,-8.169016,-1.0869676
5.488951,4.495453,0.42534214,0.3041997,3.9757671,5.961562,-8.336611,-1.1061212
5.4929047,4.4971185,0.42534214,0.3041997,3.9757671,5.961562,-8.336611,-1.1061212
5.49704,4.4988565,0.4775401,0.29248178,4.141948,6.129156,-8.461109,-1.0869676
5.501119,4.500553,0.4775401,0.29248178,4.141948,6.129156,-8.461109,-1.0869676
5.50538,4.5023227,0.53399915,0.28822073,4.3059993,6.349423,-8.552089,-1.1923125
5.5096517,4.5040784,0.53399915,0.28822073,4.3059993,6.349423,-8.552089,-1.1923125
5.5140953,4.505911,0.5915234,0.29354703,4.4689846,6.5505357,-8.643068,-1.292869
5.5185456,4.507727,0.5915234,0.29354703,4.4689846,6.5505357,-8.643068,-1.292869
5.523133,4.509615,0.6479824,0.31165653,4.6255784,6.7708025,-8.66701,-1.4030021
5.5277405,4.511491,0.6479824,0.31165653,4.6255784,6.7708025,-8.66701,-1.4030021
5.5324883,4.513449,0.706572,0.3425492,4.776846,7.053318,-8.714894,-1.5275006
5.5372286,4.515383,0.706572,0.3425492,4.776846,7.053318,-8.714894,-1.5275006
5.5421095,4.5174303,0.7651615,0.38302925,4.918526,7.177817,-8.810662,-1.5035586
5.546993,4.5194564,0.7651615,0.38302925,4.918526,7.177817,-8.810662,-1.5035586
5.552012,4.521596,0.8237511,0.43309668,5.05488,7.40766,-8.834604,-1.541866
5.5570087,4.5237026,0.8237511,0.43309668,5.05488,7.40766,-8.834604,-1.541866
5.5621505,4.5259337,0.88340586,0.4927515,5.180581,7.422025,-8.987833,-1.5370775
5.5672803,4.5281353,0.88340586,0.4927515,5.180581,7.422025,-8.987833,-1.5370775
5.5724907,4.530466,0.9451912,0.5556021,5.29563,7.503428,-9.097966,-1.4796166
5.5777116,4.5327806,0.9451912,0.5556021,5.29563,7.503428,-9.097966,-1.4796166
5.5830297,4.5352025,1.0080419,0.62058324,5.401091,7.517793,-9.174581,-1.4891934
5.5883574,4.537609,1.0080419,0.62058324,5.401091,7.517793,-9.174581,-1.4891934
5.593763,4.5401154,1.073023,0.68343383,5.496965,7.4746976,-9.212888,-1.4796166
5.599154,4.542598,1.073023,0.68343383,5.496965,7.4746976,-9.212888,-1.4796166
5.6046367,4.545177,1.1380041,0.74308866,5.5864472,7.3310456,-9.3421755,-1.4077905
5.6101284,4.54774,1.1380041,0.74308866,5.5864472,7.3310456,-9.3421755,-1.4077905
5.6157207,4.5503826,1.2019199,0.8006129,5.671668,7.1586633,-9.471462,-1.3742718
5.6212926,4.552992,1.2019199,0.8006129,5.671668,7.1586633,-9.471462,-1.3742718
5.6269665,4.5556974,1.2669011,0.8549414,5.754759,7.086837,-9.605537,-1.340753
5.63262,4.5583687,1.2669011,0.8549414,5.754759,7.086837,-9.605537,-1.340753
5.638371,4.56114,1.3329475,0.90500885,5.8378496,7.015011,-9.763555,-1.2737153
5.644112,4.563882,1.3329475,0.90500885,5.8378496,7.015011,-9.763555,-1.2737153
5.6499295,4.5666876,1.3989938,0.954011,5.917744,6.799533,-9.883265,-1.2258313
5.6557627,4.5694723,1.3989938,0.954011,5.917744,6.799533,-9.883265,-1.2258313
5.6621666,4.57251,1.4693013,0.9998174,5.997639,6.6079965,-9.907207,-1.3503298
5.667971,4.5752254,1.4693013,0.9998174,5.997639,6.6079965,-9.907207,-1.3503298
5.673894,4.57804,1.5374782,1.0456238,6.0775337,6.2009826,-10.031705,-1.3024458
5.673894,4.57804,1.5374782,1.0456238,6.0775337,6.2009826,-10.031705,-1.3024458
5.686003,4.5837154,1.6056552,1.0924954,6.1574287,5.9663506,-10.060435,-1.3263878
5.692613,4.586809,1.6056552,1.0924954,6.1574287,5.9663506,-10.060435,-1.3263878
5.692613,4.586809,1.6056552,1.0924954,6.1574287,5.9663506,-10.060435,-1.3263878
5.704182,4.592232,1.6717016,1.1383017,6.234128,5.616797,-10.089166,-1.4221559
5.710439,4.5951962,1.7377479,1.1841081,6.3097615,5.171476,-10.146626,-1.3742718
5.716713,4.598132,1.7377479,1.1841081,6.3097615,5.171476,-10.146626,-1.3742718
5.723054,4.6011367,1.8048596,1.2245882,6.387526,4.9464207,-10.189722,-1.3311762
5.7294183,4.6041164,1.8048596,1.2245882,6.387526,4.9464207,-10.189722,-1.3311762
5.7359114,4.607192,1.8730365,1.2618724,6.4620943,4.8267107,-10.089166,-1.2545617
5.742448,4.6102514,1.8730365,1.2618724,6.4620943,4.8267107,-10.089166,-1.2545617
5.748974,4.6133375,1.9422787,1.2980914,6.5334673,4.663905,-10.060435,-1.2306197
5.7553477,4.616317,1.9422787,1.2980914,6.5334673,4.663905,-10.060435,-1.2306197
5.7618914,4.619411,2.0104556,1.3321799,6.601644,4.4101195,-9.959879,-1.163582
5.7684917,4.6224957,2.0104556,1.3321799,6.601644,4.4101195,-9.959879,-1.163582
5.7751145,4.6256227,2.080763,1.3641378,6.6612988,4.223372,-9.974244,-1.1731589
5.781761,4.6287255,2.080763,1.3641378,6.6612988,4.223372,-9.974244,-1.1731589
5.7884765,4.6319003,2.153201,1.3929,6.7177577,4.122815,-10.0508585,-1.1109096
5.795189,4.6350384,2.153201,1.3929,6.7177577,4.122815,-10.0508585,-1.1109096
5.8019705,4.6382318,2.221378,1.4120747,6.7699556,3.9456444,-10.127473,-1.1540052
5.808748,4.641389,2.221378,1.4120747,6.7699556,3.9456444,-10.127473,-1.1540052
5.815579,4.6445937,2.2884896,1.4248579,6.818958,3.8067808,-10.16578,-1.1540052
5.822413,4.647766,2.2884896,1.4248579,6.818958,3.8067808,-10.16578,-1.1540052
5.8293,4.6509867,2.3524055,1.4301842,6.8626337,3.6966474,-10.323798,-1.0965444
5.8361897,4.6541753,2.3524055,1.4301842,6.8626337,3.6966474,-10.323798,-1.0965444
5.843133,4.6574116,2.4131255,1.4280537,6.903114,3.5338416,-10.457873,-0.9768343
5.850079,4.660617,2.4131255,1.4280537,6.903114,3.5338416,-10.457873,-0.9768343
5.8570776,4.6638613,2.474911,1.4205968,6.9467897,3.4284968,-10.500969,-0.90979666
5.8640995,4.667084,2.474911,1.4205968,6.9467897,3.4284968,-10.500969,-0.90979666
5.8711276,4.6703234,2.5366962,1.4120747,6.988335,3.241749,-10.611102,-0.91458505
5.878179,4.673543,2.5366962,1.4120747,6.988335,3.241749,-10.611102,-0.91458505
5.8852797,4.676801,2.5974164,1.4024874,7.0288153,3.2465374,-10.654198,-0.80924016
5.892382,4.6800303,2.5974164,1.4024874,7.0288153,3.2465374,-10.654198,-0.80924016
5.899523,4.683294,2.6613324,1.3918347,7.0639687,3.1603463,-10.697293,-0.81402856
5.9066644,4.6865287,2.6613324,1.3918347,7.0639687,3.1603463,-10.697293,-0.81402856
5.91384,4.689805,2.729509,1.3833126,7.0948615,3.217807,-10.682928,-0.7422025
5.921014,4.6930523,2.729509,1.3833126,7.0948615,3.217807,-10.682928,-0.7422025
5.9282103,4.696342,2.801947,1.3758557,7.120428,3.1507695,-10.601525,-0.7661445
5.9354033,4.6996045,2.801947,1.3758557,7.120428,3.1507695,-10.601525,-0.7661445
5.9426284,4.702926,2.8765156,1.3683989,7.137472,2.896984,-10.6158905,-0.7374141
5.9498506,4.706222,2.8765156,1.3683989,7.137472,2.896984,-10.6158905,-0.7374141
5.9570875,4.709571,2.95428,1.3588115,7.150255,2.7485435,-10.572795,-0.78050977
5.9643207,4.712896,2.95428,1.3588115,7.150255,2.7485435,-10.572795,-0.78050977
5.971568,4.7162747,3.0299137,1.3492241,7.158777,2.6479871,-10.55843,-0.7469909
5.9788113,4.7196317,3.0299137,1.3492241,7.158777,2.6479871,-10.55843,-0.7469909
5.98606,4.723042,3.1055474,1.3375062,7.161973,2.6240451,-10.5440645,-0.6703765
5.993304,4.726431,3.1055474,1.3375062,7.161973,2.6240451,-10.5440645,-0.6703765
6.0005608,4.7298765,3.1790507,1.3225925,7.1609077,2.4947581,-10.553641,-0.545878
6.007812,4.733302,3.1790507,1.3225925,7.1609077,2.4947581,-10.553641,-0.545878
6.015072,4.7367783,3.2472277,1.3034178,7.1566467,2.4516625,-10.611102,-0.36870706
6.0223236,4.7402344,3.2472277,1.3034178,7.1566467,2.4516625,-10.611102,-0.36870706
6.029591,4.743743,3.3132741,1.2810472,7.150255,2.1164744,-10.740389,-0.521936
6.0368395,4.747226,3.3132741,1.2810472,7.150255,2.1164744,-10.740389,-0.521936
6.0441027,4.75076,3.3761246,1.2533504,7.1438637,2.0254946,-10.644621,-0.30166942
6.0513597,4.7542768,3.3761246,1.2533504,7.1438637,2.0254946,-10.644621,-0.30166942
6.058618,4.7578316,3.4304533,1.2224576,7.133211,1.934515,-10.702082,-0.16280572
6.065868,4.761369,3.4304533,1.2224576,7.133211,1.934515,-10.702082,-0.16280572
6.0731044,4.764934,3.47839,1.1894344,7.1214933,1.8243817,-10.58716,-0.18674773
6.0803323,4.768484,3.47839,1.1894344,7.1214933,1.8243817,-10.58716,-0.18674773
6.087553,4.772061,3.5220659,1.1564113,7.1119056,1.8243817,-10.630256,-0.009576807
6.094763,4.775624,3.5220659,1.1564113,7.1119056,1.8243817,-10.630256,-0.009576807
6.1019707,4.779213,3.562546,1.1244533,7.1023183,1.685518,-10.67814,-0.0047884034
6.1091685,4.78279,3.562546,1.1244533,7.1023183,1.685518,-10.67814,-0.0047884034
6.116308,4.7863846,3.5966344,1.0967565,7.089535,1.9536686,-10.682928,-0.02873042
6.1234407,4.789972,3.5966344,1.0967565,7.089535,1.9536686,-10.682928,-0.02873042
6.130478,4.793601,3.6253965,1.0711901,7.0703607,2.681506,-10.70687,0.08619126
6.1375155,4.797224,3.6253965,1.0711901,7.0703607,2.681506,-10.70687,0.08619126
6.1444798,4.8008976,3.6445713,1.0562764,7.0330763,3.7205894,-10.611102,0.35434186
6.151446,4.804563,3.6445713,1.0562764,7.0330763,3.7205894,-10.611102,0.35434186
6.1583343,4.8082323,3.6371145,1.0605375,6.9585075,5.00867,-9.792285,0.38307226
6.1652246,4.811895,3.6371145,1.0605375,6.9585075,5.00867,-9.792285,0.38307226
6.1720357,4.8155575,3.5955691,1.087169,6.826415,6.244078,-8.973468,0.7565677
6.178747,4.819159,3.5955691,1.087169,6.826415,6.244078,-8.973468,0.7565677
6.185324,4.82273,3.5178049,1.1319102,6.62508,7.16824,-8.293514,1.4413095
6.191903,4.826295,3.5178049,1.1319102,6.62508,7.16824,-8.293514,1.4413095
6.198227,4.8297596,3.401691,1.1947608,6.352372,7.393295,-7.52737,2.0925324
6.204552,4.833219,3.401691,1.1947608,6.352372,7.393295,-7.52737,2.0925324
6.210562,4.8365393,3.2514887,1.2714598,6.0189443,7.1059904,-6.8761473,2.3989902
6.2165737,4.8398542,3.2514887,1.2714598,6.0189443,7.1059904,-6.8761473,2.3989902
6.2222295,4.8429976,3.07572,1.3502893,5.650363,6.612785,-6.3446345,2.528277
6.2278924,4.84614,3.07572,1.3502893,5.650363,6.612785,-6.3446345,2.528277
6.2331967,4.8490973,2.881842,1.4237926,5.268998,5.913678,-5.93762,2.5330653
6.238503,4.852049,2.881842,1.4237926,5.268998,5.913678,-5.93762,2.5330653
6.2434363,4.854795,2.6783764,1.4898391,4.8876333,5.161899,-5.4444146,2.2361844
6.248371,4.8575363,2.6783764,1.4898391,4.8876333,5.161899,-5.4444146,2.2361844
6.252947,4.8600683,2.4674542,1.5441675,4.5126605,4.534618,-5.142745,2.135628
6.2575235,4.8625956,2.4674542,1.5441675,4.5126605,4.534618,-5.142745,2.135628
6.2617483,4.864912,2.2565317,1.5889087,4.147275,3.8307228,-5.032612,1.982399
6.2659745,4.8672233,2.2565317,1.5889087,4.147275,3.8307228,-5.032612,1.982399
6.269867,4.8693304,2.0498705,1.6293887,3.7999985,3.1172507,-4.9703627,1.8818425
6.2737613,4.8714323,2.0498705,1.6293887,3.7999985,3.1172507,-4.9703627,1.8818425
6.2773643,4.873353,1.8549271,1.6645424,3.4718971,2.3750482,-5.0661306,1.7142484
6.2809186,4.875242,1.8549271,1.6645424,3.4718971,2.3750482,-5.0661306,1.7142484
0.001020218,4.8769684,1.673832,1.6901088,3.1661663,1.6041151,-5.3342814,1.6089035
0.00430849,4.8786893,1.673832,1.6901088,3.1661663,1.6041151,-5.3342814,1.6089035
0.0073331534,4.880249,1.5065856,1.7039572,2.8870668,0.8714894,-5.48751,1.4413095
0.010358126,4.8818045,1.5065856,1.7039572,2.8870668,0.8714894,-5.48751,1.4413095
0.013167483,4.8832293,1.3574486,1.7050225,2.6356645,0.21068975,-5.6359506,1.2545617
0.015974028,4.8846483,1.3574486,1.7050225,2.6356645,0.21068975,-5.6359506,1.2545617
0.018772459,4.885879,1.2232252,1.6933045,2.4098284,-0.34955344,-5.722142,1.0534488
0.021573255,4.887105,1.2232252,1.6933045,2.4098284,-0.34955344,-5.722142,1.0534488
0.024169834,4.8881426,1.1017851,1.6688035,2.2074282,-0.7182605,-5.7748146,0.8571242
0.026769266,4.8891754,1.1017851,1.6688035,2.2074282,-0.7182605,-5.7748146,0.8571242
0.029179212,4.890089,0.98673654,1.6325845,2.0242026,-1.0630256,-5.813122,0.78050977
0.031592138,4.891,0.98673654,1.6325845,2.0242026,-1.0630256,-5.813122,0.78050977
0.03383235,4.8917985,0.8770143,1.5846475,1.8558909,-1.2401965,-5.793968,0.7374141
0.036073066,4.892594,0.8770143,1.5846475,1.8558909,-1.2401965,-5.793968,0.7374141
0.038144656,4.893274,0.7694226,1.5249927,1.6971666,-1.3359646,-5.8226986,0.6607997
0.040216587,4.8939505,0.7694226,1.5249927,1.6971666,-1.3359646,-5.8226986,0.6607997
0.04214299,4.8945227,0.66502666,1.4600116,1.5490948,-1.4556746,-5.7987566,0.5746084
0.044094477,4.8950987,0.66502666,1.4600116,1.5490948,-1.4556746,-5.7987566,0.5746084
0.045829836,4.8955493,0.5595655,1.3886389,1.4116757,-1.6567876,-5.837064,0.49320555
0.047577698,4.896001,0.5595655,1.3886389,1.4116757,-1.6567876,-5.837064,0.49320555
0.04919505,4.896351,0.45836535,1.3066136,1.2795829,-1.733402,-5.8801594,0.39264908
0.05081077,4.896699,0.45836535,1.3066136,1.2795829,-1.733402,-5.8801594,0.39264908
0.052303765,4.896963,0.36036104,1.216066,1.1592079,-2.006341,-5.9567738,0.49799395
0.05379532,4.8972254,0.36036104,1.216066,1.1592079,-2.006341,-5.9567738,0.49799395
0.05516599,4.8974075,0.26768303,1.1159312,1.0494857,-2.2170308,-6.0860605,0.62249243
0.05653675,4.8975887,0.26768303,1.1159312,1.0494857,-2.2170308,-6.0860605,0.62249243
0.057787083,4.897684,0.18246186,1.006209,0.94935083,-2.27928,-6.1530986,0.5506664
0.05903744,4.897778,0.18246186,1.006209,0.94935083,-2.27928,-6.1530986,0.5506664
0.060234725,4.897809,0.105762824,0.8879646,0.8630644,-2.360683,-6.277597,0.6751649
0.06133107,4.897836,0.105762824,0.8879646,0.8630644,-2.360683,-6.277597,0.6751649
0.06237104,4.8977904,0.03865116,0.7643939,0.78530014,-2.303222,-6.4404025,0.49799395
0.06341196,4.897743,0.03865116,0.7643939,0.78530014,-2.303222,-6.4404025,0.49799395
0.0643513,4.897638,-0.022068914,0.63656217,0.7096664,-2.1021092,-6.579266,0.521936
0.065290436,4.8975315,-0.022068914,0.63656217,0.7096664,-2.1021092,-6.579266,0.521936
0.06613294,4.8973794,-0.076397404,0.5087305,0.63509786,-1.8914193,-6.6989765,0.6560113
0.06697531,4.897227,-0.076397404,0.5087305,0.63509786,-1.8914193,-6.6989765,0.6560113
0.067708716,4.897023,-0.1275301,0.3851598,0.55307245,-1.7477672,-6.919243,0.6703765
0.06844206,4.8968196,-0.1275301,0.3851598,0.55307245,-1.7477672,-6.919243,0.6703765
0.06907658,4.8965926,-0.17440173,0.26585016,0.46359026,-1.6663644,-7.0341644,0.93852705
0.069711074,4.896365,-0.17440173,0.26585016,0.46359026,-1.6663644,-7.0341644,0.93852705
0.07023831,4.8961115,-0.22020811,0.15186687,0.369847,-1.685518,-7.1251445,1.0821792
0.07076605,4.895858,-0.22020811,0.15186687,0.369847,-1.685518,-7.1251445,1.0821792
0.071182825,4.8955846,-0.2649492,0.04214463,0.2739732,-1.7046716,-7.1969705,1.2593501
0.07159961,4.8953114,-0.2649492,0.04214463,0.2739732,-1.7046716,-7.1969705,1.2593501
0.07190131,4.895021,-0.3075598,-0.06757761,0.1780994,-1.5897499,-7.40766,1.4460979
0.07220286,4.8947306,-0.3075598,-0.06757761,0.1780994,-1.5897499,-7.40766,1.4460979
0.07238816,4.8944182,-0.35017037,-0.17410405,0.08329086,-1.4460979,-7.651869,1.5705963
0.072573476,4.894106,-0.35017037,-0.17410405,0.08329086,-1.4460979,-7.651869,1.5705963
0.07263486,4.893779,-0.39278096,-0.2742389,-0.012582945,-1.2401965,-7.8865004,1.6950948
0.07269598,4.893452,-0.39278096,-0.2742389,-0.012582945,-1.2401965,-7.8865004,1.6950948
0.07263169,4.893111,-0.43113047,-0.36372113,-0.104195684,-1.1109096,-8.207323,1.8243817
0.0725672,4.8927717,-0.43113047,-0.36372113,-0.104195684,-1.1109096,-8.207323,1.8243817
0.07239606,4.8924017,-0.46841472,-0.44148543,-0.1936779,-1.1109096,-8.523358,1.8962077
0.07222488,4.8920326,-0.46841472,-0.44148543,-0.1936779,-1.1109096,-8.523358,1.8962077
0.07192958,4.891589,-0.50250316,-0.50966233,-0.27570325,-1.1348516,-8.801085,1.958457
0.07168043,4.891216,-0.50250316,-0.50966233,-0.27570325,-1.1348516,-8.801085,1.958457
0.071340084,4.8907895,-0.5333958,-0.5661214,-0.347076,-1.1683705,-9.002198,1.982399
0.07092275,4.890267,-0.5333958,-0.5661214,-0.347076,-1.1683705,-9.002198,1.982399
0.070606455,4.8899064,-0.56109273,-0.6151235,-0.40566552,-1.1779473,-9.222465,1.9728222
0.070206836,4.889451,-0.56109273,-0.6151235,-0.40566552,-1.1779473,-9.222465,1.9728222
0.06976278,4.8889914,-0.58452857,-0.65666884,-0.45360243,-1.1587936,-9.375694,2.006341
0.06976278,4.8889914,-0.58452857,-0.65666884,-0.45360243,-1.1587936,-9.375694,2.006341
0.06882574,4.8880205,-0.6047686,-0.6875615,-0.4876909,-1.1540052,-9.509769,1.9440918
0.06833896,4.887516,-0.6047686,-0.6875615,-0.4876909,-1.1540052,-9.509769,1.9440918
0.06766161,4.886842,-0.6228781,-0.70886683,-0.5089962,-1.1061212,-9.600749,1.9680338
0.067301586,4.886483,-0.6228781,-0.70886683,-0.5089962,-1.1061212,-9.600749,1.9680338
0.06675768,4.8859615,-0.63779175,-0.72165,-0.5207141,-1.0726024,-9.701305,2.030283
0.06621339,4.885439,-0.63779175,-0.72165,-0.5207141,-1.0726024,-9.701305,2.030283
0.06565672,4.884907,-0.6484444,-0.72910684,-0.52604043,-1.0151415,-9.753978,2.0159178
0.06510194,4.8843765,-0.6484444,-0.72910684,-0.52604043,-1.0151415,-9.753978,2.0159178
0.064522274,4.8838363,-0.654836,-0.7323026,-0.52604043,-0.94810385,-9.859323,2.0446482
0.06396241,4.883314,-0.654836,-0.7323026,-0.52604043,-0.94810385,-9.859323,2.0446482
0.063369416,4.8827934,-0.6569665,-0.7323026,-0.5228446,-0.8858546,-10.16578,2.2266076
0.06280351,4.882295,-0.6569665,-0.7323026,-0.5228446,-0.8858546,-10.16578,2.2266076
0.062261384,4.881757,-0.65377074,-0.7301721,-0.5175183,-0.8762778,-9.5385,1.8579005
0.06171938,4.8812175,-0.65377074,-0.7301721,-0.5175183,-0.8762778,-9.5385,1.8579005
0.061156087,4.880694,-0.6505749,-0.7280416,-0.5111267,-0.9624691,-9.02614,2.0925324
0.06059451,4.880171,-0.6505749,-0.7280416,-0.5111267,-0.9624691,-9.02614,2.0925324
0.0599433,4.8796425,-0.66229284,-0.7344332,-0.51219195,-0.36391866,-12.0093155,3.6296098
0.059293706,4.8791146,-0.66229284,-0.7344332,-0.51219195,-0.36391866,-12.0093155,3.6296098
0.058562003,4.878566,-0.6452486,-0.72697634,-0.5111267,1.1971009,-11.496957,3.0071173
0.057796117,4.8779902,-0.6452486,-0.72697634,-0.5111267,1.1971009,-11.496957,3.0071173
0.057049345,4.8774467,-0.59944224,-0.6875615,-0.5068657,1.8866309,-11.238382,2.2984335
0.05630828,4.876907,-0.59944224,-0.6875615,-0.5068657,1.8866309,-11.238382,2.2984335
0.055596206,4.876395,-0.5557664,-0.6076667,-0.48236457,1.1204864,-10.70687,1.9728222
0.054880254,4.875881,-0.5557664,-0.6076667,-0.48236457,1.1204864,-10.70687,1.9728222
0.054278784,4.8754563,-0.5291348,-0.5181845,-0.4450803,-0.06703765,-11.224017,2.4612393
0.053682175,4.8750343,-0.5291348,-0.5181845,-0.4450803,-0.06703765,-11.224017,2.4612393
0.053239092,4.8746424,-0.50889474,-0.45320335,-0.40246972,-0.89064306,-11.449073,2.801216
0.05279643,4.87425,-0.50889474,-0.45320335,-0.40246972,-0.89064306,-11.449073,2.801216
0.052438032,4.873879,-0.47906736,-0.42018014,-0.35346758,-1.091756,-11.180922,2.5809495
0.052079897,4.8735075,-0.47906736,-0.42018014,-0.35346758,-1.091756,-11.180922,2.5809495
0.05176686,4.8731723,-0.44391364,-0.40313593,-0.29807383,-0.93373865,-11.171345,2.4756045
0.05145844,4.8728414,-0.44391364,-0.40313593,-0.29807383,-0.93373865,-11.171345,2.4756045
0.051192787,4.872545,-0.41089043,-0.38609168,-0.23309268,-0.7757214,-11.482592,2.4995465
0.05092767,4.8722486,-0.41089043,-0.38609168,-0.23309268,-0.7757214,-11.482592,2.4995465
0.05071288,4.8719916,-0.37254092,-0.36372113,-0.16598102,-0.6560113,-11.789049,2.5091233
0.050498158,4.8717337,-0.37254092,-0.36372113,-0.16598102,-0.6560113,-11.789049,2.5091233
0.050303027,4.871518,-0.3256693,-0.3370895,-0.0978041,-0.4165911,-11.736377,2.2744915
0.05010853,4.871302,-0.3256693,-0.3370895,-0.0978041,-0.4165911,-11.736377,2.2744915
0.049967878,4.871129,-0.27347133,-0.30300105,-0.024300855,-0.36870706,-11.640609,2.1499932
0.04982816,4.8709564,-0.27347133,-0.30300105,-0.024300855,-0.36870706,-11.640609,2.1499932
0.049812093,4.8708496,-0.21701232,-0.262521,0.054528717,-0.51714754,-11.496957,2.0638018
0.04979638,4.8707438,-0.21701232,-0.262521,0.054528717,-0.51714754,-11.496957,2.0638018
0.049939103,4.8706846,-0.16481435,-0.22310622,0.13548881,-0.7565677,-11.362882,2.2026656
0.050081696,4.8706264,-0.16481435,-0.22310622,0.13548881,-0.7565677,-11.362882,2.2026656
0.05033818,4.870609,-0.11261639,-0.19327882,0.21644892,-0.90979666,-11.190498,2.1739352
0.050594978,4.8705916,-0.11261639,-0.19327882,0.21644892,-0.90979666,-11.190498,2.1739352
0.050934084,4.870626,-0.0614837,-0.1730388,0.297409,-0.93373865,-10.91756,2.1787236
0.051271997,4.8706603,-0.0614837,-0.1730388,0.297409,-0.93373865,-10.91756,2.1787236
0.051664557,4.8707523,-0.012481534,-0.15599456,0.37623858,-0.79008657,-10.697293,2.183512
0.052057274,4.870845,-0.012481534,-0.15599456,0.37623858,-0.79008657,-10.697293,2.183512
0.052490383,4.8709884,0.034390103,-0.14001559,0.44974184,-0.60812724,-10.58716,2.078167
0.052923188,4.871133,0.034390103,-0.14001559,0.44974184,-0.60812724,-10.58716,2.078167
0.053379487,4.8713183,0.07913121,-0.122971356,0.5157882,-0.4357447,-10.491392,2.054225
0.053835224,4.8715043,0.07913121,-0.122971356,0.5157882,-0.4357447,-10.491392,2.054225
0.054317005,4.87172,0.120676525,-0.10166607,0.57757354,-0.30645782,-10.429143,1.982399
0.05482039,4.871945,0.120676525,-0.10166607,0.57757354,-0.30645782,-10.429143,1.982399
0.055315915,4.8721733,0.15902604,-0.078230254,0.6308368,-0.25857377,-10.290278,1.8483237
0.05578295,4.8723884,0.15902604,-0.078230254,0.6308368,-0.25857377,-10.290278,1.8483237
0.056282528,4.872618,0.15902604,-0.078230254,0.6308368,-0.25857377,-10.290278,1.8483237
0.056869287,4.8729005,0.1931145,-0.05372917,0.67983896,-0.22505496,-10.16578,1.8866309
0.05746483,4.8731885,0.22400717,-0.029228088,0.72458005,-0.2633622,-10.060435,1.7860745
0.05805955,4.873475,0.22400717,-0.029228088,0.72458005,-0.2633622,-10.060435,1.7860745
0.058707498,4.873799,0.25063878,-0.008988062,0.7650601,-0.22984336,-9.950302,1.8579005
0.059363667,4.874126,0.25063878,-0.008988062,0.7650601,-0.22984336,-9.950302,1.8579005
0.06004629,4.874467,0.27300933,0.009121433,0.8012791,-0.2633622,-9.844957,1.7908629
0.060726568,4.874806,0.27300933,0.009121433,0.8012791,-0.2633622,-9.844957,1.7908629
0.06141432,4.8751183,0.29005358,0.026165664,0.8321718,-0.1436521,-9.787497,1.6567876
0.062103126,4.8754306,0.29005358,0.026165664,0.8321718,-0.1436521,-9.787497,1.6567876
0.062820345,4.8757634,0.30603254,0.04107937,0.8588034,-0.17238252,-9.763555,1.6759412
0.06353786,4.876096,0.30603254,0.04107937,0.8588034,-0.17238252,-9.763555,1.6759412
0.0642795,4.8764324,0.32307678,0.053862542,0.8833045,-0.16759412,-9.619903,1.6136919
0.06501958,4.8767676,0.32307678,0.053862542,0.8833045,-0.16759412,-9.619903,1.6136919
0.065783784,4.8771296,0.33799046,0.06664571,0.90247923,-0.1388637,-9.44752,1.6328455
0.06654771,4.87749,0.33799046,0.06664571,0.90247923,-0.1388637,-9.44752,1.6328455
0.06732965,4.877838,0.35077363,0.07836362,0.92058873,-0.16280572,-9.442732,1.5466543
0.06811092,4.8781857,0.35077363,0.07836362,0.92058873,-0.16280572,-9.442732,1.5466543
0.068911,4.8785295,0.3614263,0.089016266,0.9355024,-0.090979666,-9.409213,1.484405
0.06971116,4.8788733,0.3614263,0.089016266,0.9355024,-0.090979666,-9.409213,1.484405
0.07051932,4.8792567,0.37101367,0.09647312,0.9450898,0.038307227,-9.351752,1.6136919
0.07132894,4.87964,0.37101367,0.09647312,0.9450898,0.038307227,-9.351752,1.6136919
0.07214478,4.880042,0.37634,0.10179944,0.9482856,0.18674773,-9.23683,1.6998832
0.07296203,4.880444,0.37634,0.10179944,0.9482856,0.18674773,-9.23683,1.6998832
0.073774315,4.88085,0.3784705,0.10819103,0.941894,0.33039984,-9.136273,1.7286136
0.07458549,4.8812547,0.3784705,0.10819103,0.941894,0.33039984,-9.136273,1.7286136
0.07538151,4.8816586,0.37634,0.116713144,0.9237845,0.36391866,-8.99741,1.7238252
0.076177396,4.882061,0.37634,0.116713144,0.9237845,0.36391866,-8.99741,1.7238252
0.07694656,4.882461,0.37207893,0.12736578,0.8939571,0.41180268,-8.825027,1.7238252
0.077715546,4.88286,0.37207893,0.12736578,0.8939571,0.41180268,-8.825027,1.7238252
0.07845422,4.883255,0.36249155,0.14014897,0.85773814,0.36391866,-8.66701,1.7525556
0.079192765,4.88365,0.36249155,0.14014897,0.85773814,0.36391866,-8.66701,1.7525556
0.07988888,4.8840237,0.35077363,0.15293214,0.8161928,0.29209262,-8.576031,1.661576
0.08058485,4.884397,0.35077363,0.15293214,0.8161928,0.29209262,-8.576031,1.661576
0.08123643,4.884754,0.33585995,0.1657153,0.76932114,0.25378537,-8.456321,1.6424223
0.08188915,4.885112,0.33585995,0.1657153,0.76932114,0.25378537,-8.456321,1.6424223
0.08249701,4.8854547,0.31988096,0.18062901,0.720319,0.15801731,-8.408437,1.6472107
0.083104625,4.885797,0.31988096,0.18062901,0.720319,0.15801731,-8.408437,1.6472107
0.083668314,4.886125,0.29964095,0.19447745,0.6691863,0.17238252,-8.365341,1.7046716
0.084204085,4.8864365,0.29964095,0.19447745,0.6691863,0.17238252,-8.365341,1.7046716
0.08476784,4.8867636,0.29964095,0.19447745,0.6691863,0.17238252,-8.365341,1.7046716
0.08530784,4.887086,0.27620512,0.20939115,0.61379254,0.2633622,-8.322245,1.7812861
0.08576998,4.88737,0.24957353,0.22323959,0.55307245,0.33518824,-8.207323,1.8387469
0.08623145,4.8876534,0.24957353,0.22323959,0.55307245,0.33518824,-8.207323,1.8387469
0.08663364,4.887912,0.21761559,0.2381533,0.48169976,0.39264908,-8.159439,2.0111294
0.08704084,4.888174,0.21761559,0.2381533,0.48169976,0.39264908,-8.159439,2.0111294
0.087445006,4.888434,0.21761559,0.2381533,0.48169976,0.39264908,-8.159439,2.0111294
0.087772794,4.8886557,0.1813966,0.25413227,0.40073967,0.40701428,-8.145074,2.030283
0.088100426,4.888877,0.1813966,0.25413227,0.40073967,0.40701428,-8.145074,2.030283
0.08835197,4.889061,0.13985129,0.2711765,0.3123227,0.2633622,-8.063671,2.0446482
0.088603005,4.8892446,0.13985129,0.2711765,0.3123227,0.2633622,-8.063671,2.0446482
0.08877339,4.889386,0.09404491,0.28715545,0.21857944,0.095768064,-8.1642275,2.078167
0.08894365,4.889528,0.09404491,0.28715545,0.21857944,0.095768064,-8.1642275,2.078167
0.08903137,4.8896265,0.04610801,0.3010039,0.120575115,-0.11492168,-8.169016,2.0494366
0.08911911,4.8897247,0.04610801,0.3010039,0.120575115,-0.11492168,-8.169016,2.0494366
0.08912194,4.889776,-0.0039594183,0.309526,0.023636047,-0.2777274,-8.24563,2.006341
0.08912478,4.8898277,-0.0039594183,0.309526,0.023636047,-0.2777274,-8.24563,2.006341
0.08905014,4.8898335,-0.052961584,0.3159176,-0.06904196,-0.4405331,-8.37013,1.9632454
0.08897558,4.889839,-0.052961584,0.3159176,-0.06904196,-0.4405331,-8.37013,1.9632454
0.08884285,4.8898063,-0.09876795,0.31698287,-0.15745892,-0.6368576,-8.461109,1.910573
0.08871059,4.8897734,-0.09876795,0.31698287,-0.15745892,-0.6368576,-8.461109,1.910573
0.088552505,4.8896976,-0.14244379,0.3127218,-0.24054953,-0.8523358,-8.628703,1.8339585
0.08839491,4.8896227,-0.14244379,0.3127218,-0.24054953,-0.8523358,-8.628703,1.8339585
0.08819307,4.8895006,-0.18079332,0.30526495,-0.32044438,-0.9576807,-8.7532015,1.8195933
0.08799153,4.8893785,-0.18079332,0.30526495,-0.32044438,-0.9576807,-8.7532015,1.8195933
0.08773813,4.8892136,-0.21381652,0.29248178,-0.39394763,-1.0342951,-8.844181,1.8148049
0.08748477,4.8890486,-0.21381652,0.29248178,-0.39394763,-1.0342951,-8.844181,1.8148049
0.08718677,4.8888397,-0.24257866,0.27437228,-0.45999402,-1.1252748,-8.90643,1.7908629
0.08688863,4.888632,-0.24257866,0.27437228,-0.45999402,-1.1252748,-8.90643,1.7908629
0.08654167,4.888384,-0.26921028,0.25519753,-0.51964885,-1.2593501,-8.968679,1.7956513
0.08619452,4.888136,-0.26921028,0.25519753,-0.51964885,-1.2593501,-8.968679,1.7956513
0.08579189,4.887858,-0.29371136,0.23389223,-0.5771731,-1.3503298,-9.045294,1.8052281
0.08538905,4.887581,-0.29371136,0.23389223,-0.5771731,-1.3503298,-9.045294,1.8052281
0.08493994,4.8872776,-0.31501663,0.21258694,-0.6240447,-1.4077905,-9.14585,1.8052281
0.084490575,4.886975,-0.31501663,0.21258694,-0.6240447,-1.4077905,-9.14585,1.8052281
0.08400422,4.8866315,-0.33525667,0.18808587,-0.6666553,-1.4413095,-9.165004,1.6998832
0.08351769,4.8862886,-0.33525667,0.18808587,-0.6666553,-1.4413095,-9.165004,1.6998832
0.0829928,4.8859286,-0.35443142,0.16358478,-0.70180905,-1.508347,-9.260772,1.7190368
0.082466565,4.8855686,-0.35443142,0.16358478,-0.70180905,-1.508347,-9.260772,1.7190368
0.08191169,4.8851767,-0.37041038,0.13801843,-0.7295059,-1.5705963,-9.361329,1.6376339
0.08135662,4.884785,-0.37041038,0.13801843,-0.7295059,-1.5705963,-9.361329,1.6376339
0.08077505,4.884383,-0.38425884,0.11245208,-0.7518765,-1.5897499,-9.519346,1.6663644
0.08019327,4.8839817,-0.38425884,0.11245208,-0.7518765,-1.5897499,-9.519346,1.6663644
0.07959226,4.8835754,-0.397042,0.086885735,-0.7657249,-1.6232687,-9.643845,1.7238252
0.07959226,4.8835754,-0.397042,0.086885735,-0.7657249,-1.6232687,-9.643845,1.7238252
0.07834417,4.8827004,-0.40769464,0.06451519,-0.7721165,-1.6424223,-9.730036,1.6519991
0.07756941,4.882159,-0.40769464,0.06451519,-0.7721165,-1.6424223,-9.730036,1.6519991
0.076518714,4.8814154,-0.41408622,0.043209895,-0.77424705,-1.5897499,-9.859323,1.6376339
0.076518714,4.8814154,-0.41408622,0.043209895,-0.77424705,-1.5897499,-9.859323,1.6376339
0.07588243,4.88097,-0.4151515,0.022969872,-0.7689207,-1.5562311,-9.959879,1.6807296
0.07525466,4.8805313,-0.4151515,0.022969872,-0.7689207,-1.5562311,-9.959879,1.6807296
0.07525466,4.8805313,-0.4151515,0.022969872,-0.7689207,-1.5562311,-9.959879,1.6807296
0.07408794,4.879744,-0.41302097,0.003795111,-0.7572028,-1.4460979,-10.041282,1.7669208
0.0734872,4.879353,-0.40875992,-0.014314385,-0.74441963,-1.3311762,-10.132261,1.8195933
0.07288556,4.8789625,-0.40875992,-0.014314385,-0.74441963,-1.3311762,-10.132261,1.8195933
0.07229286,4.878578,-0.40449885,-0.028162822,-0.7327017,-1.2306197,-10.189722,1.8100165
0.07169206,4.87819,-0.40449885,-0.028162822,-0.7327017,-1.2306197,-10.189722,1.8100165
0.07108144,4.877837,-0.39810726,-0.040945996,-0.71991855,-1.1013328,-10.266336,1.8914193
0.07048449,4.877493,-0.39810726,-0.040945996,-0.71991855,-1.1013328,-10.266336,1.8914193
0.06988295,4.8771696,-0.39065042,-0.051598642,-0.70820063,-1.0055647,-10.342952,1.9057846
0.06926771,4.876838,-0.39065042,-0.051598642,-0.70820063,-1.0055647,-10.342952,1.9057846
0.068638965,4.8765535,-0.37999776,-0.060120758,-0.69967854,-0.90979666,-10.453085,2.0207062
0.067994095,4.8762603,-0.37999776,-0.060120758,-0.69967854,-0.90979666,-10.453085,2.0207062
0.067342445,4.875988,-0.3672146,-0.06757761,-0.6890259,-0.8379706,-10.500969,2.0446482
0.06668791,4.875714,-0.3672146,-0.06757761,-0.6890259,-0.8379706,-10.500969,2.0446482
0.06601238,4.8754587,-0.35123563,-0.07503446,-0.68156904,-0.7517793,-10.55843,2.078167
0.06534029,4.875204,-0.35123563,-0.07503446,-0.68156904,-0.7517793,-10.55843,2.078167
0.06467527,4.874966,-0.33525667,-0.079295516,-0.6709164,-0.7326257,-10.577583,2.0207062
0.06401204,4.8747272,-0.33525667,-0.079295516,-0.6709164,-0.7326257,-10.577583,2.0207062
0.063349955,4.874509,-0.3160819,-0.08142605,-0.6560027,-0.6895301,-10.635044,2.0015526
0.06269057,4.8742905,-0.3160819,-0.08142605,-0.6560027,-0.6895301,-10.635044,2.0015526
0.062047847,4.874093,-0.29584187,-0.08142605,-0.64108896,-0.6895301,-10.673351,2.0015526
0.06140775,4.873895,-0.29584187,-0.08142605,-0.64108896,-0.6895301,-10.673351,2.0015526
0.060792197,4.873718,-0.27560186,-0.078230254,-0.62084895,-0.6847417,-10.67814,1.9440918
0.06017977,4.8735404,-0.27560186,-0.078230254,-0.62084895,-0.6847417,-10.67814,1.9440918
0.059598424,4.873384,-0.2532313,-0.07290393,-0.59634787,-0.6847417,-10.6398325,1.9057846
0.059017997,4.873227,-0.2532313,-0.07290393,-0.59634787,-0.6847417,-10.6398325,1.9057846
0.058474205,4.8730907,-0.23192601,-0.064381815,-0.56865096,-0.6943185,-10.606314,1.9201498
0.05793729,4.8729553,-0.23192601,-0.064381815,-0.56865096,-0.6943185,-10.606314,1.9201498
0.057425074,4.872842,-0.20955546,-0.054794434,-0.5388236,-0.6799533,-10.524911,1.910573
0.05691214,4.8727264,-0.20955546,-0.054794434,-0.5388236,-0.6799533,-10.524911,1.910573
0.056443177,4.8726335,-0.1871849,-0.045207053,-0.5047351,-0.6751649,-10.462662,1.8770541
0.05597643,4.8725395,-0.1871849,-0.045207053,-0.5047351,-0.6751649,-10.462662,1.8770541
0.055533957,4.8724723,-0.16268381,-0.035619672,-0.47171193,-0.6512229,-10.357317,1.8818425
0.05509349,4.872404,-0.16268381,-0.035619672,-0.47171193,-0.6512229,-10.357317,1.8818425
0.054680083,4.8723617,-0.13818274,-0.029228088,-0.43868873,-0.61770403,-10.299856,1.8291701
0.054268982,4.872319,-0.13818274,-0.029228088,-0.43868873,-0.61770403,-10.299856,1.8291701
0.053875268,4.8723025,-0.11368166,-0.028162822,-0.40460026,-0.56982,-10.156203,1.7381904
0.053484656,4.8722863,-0.11368166,-0.028162822,-0.40460026,-0.56982,-10.156203,1.7381904
0.05322839,4.872134,-0.091311105,-0.023901764,-0.3705118,-0.5793968,-10.108319,1.6136919
0.052977994,4.8719893,-0.091311105,-0.023901764,-0.3705118,-0.5793968,-10.108319,1.6136919
0.052714385,4.871831,-0.07320161,-0.016444914,-0.34174967,-0.58897364,-10.041282,1.5610195
0.052455164,4.8716745,-0.07320161,-0.016444914,-0.34174967,-0.58897364,-10.041282,1.5610195
0.052097805,4.87152,-0.057222642,-0.010053327,-0.31511804,-0.521936,-9.983821,1.5849615
0.051755562,4.871363,-0.057222642,-0.010053327,-0.31511804,-0.521936,-9.983821,1.5849615
0.051490463,4.871217,-0.045504734,-0.00366174,-0.2895517,-0.5267244,-9.945514,1.5705963
0.051238224,4.871073,-0.045504734,-0.00366174,-0.2895517,-0.5267244,-9.945514,1.5705963
0.050834537,4.87103,-0.035917353,0.0027298466,-0.26718116,-0.4309563,-9.892841,1.5801731
0.050431274,4.870987,-0.035917353,0.0027298466,-0.26718116,-0.4309563,-9.892841,1.5801731
0.050056037,4.870923,-0.029525764,0.010186698,-0.24694112,-0.4261679,-9.878476,1.5610195
0.049680937,4.870859,-0.029525764,0.010186698,-0.24694112,-0.4261679,-9.878476,1.5610195
0.049396757,4.870742,-0.024199443,0.016578285,-0.22989689,-0.48362875,-9.859323,1.5562311
0.04912185,4.8706217,-0.024199443,0.016578285,-0.22989689,-0.48362875,-9.859323,1.5562311
0.048940916,4.8704996,-0.021003649,0.024035135,-0.2117874,-0.50757074,-9.835381,1.4939818
0.048762683,4.870378,-0.021003649,0.024035135,-0.2117874,-0.50757074,-9.835381,1.4939818
0.04851205,4.8704453,-0.018873122,0.026165664,-0.1936779,-0.47884035,-9.80665,1.5705963
0.048282567,4.8705187,-0.018873122,0.026165664,-0.1936779,-0.47884035,-9.80665,1.5705963
0.04820069,4.870579,-0.014612063,0.028296193,-0.17663367,-0.48841715,-9.758766,1.5658079
0.048126046,4.870635,-0.014612063,0.028296193,-0.17663367,-0.48841715,-9.758766,1.5658079
0.047940396,4.8705254,-0.009285741,0.028296193,-0.16171996,-0.45010993,-9.715671,1.4748282
0.047757015,4.8704157,-0.009285741,0.028296193,-0.16171996,-0.45010993,-9.715671,1.4748282
0.047517475,4.8703346,-0.0050246827,0.0251004,-0.15000206,-0.39264908,-9.648633,1.4796166
0.04727915,4.8702526,-0.0050246827,0.0251004,-0.15000206,-0.39264908,-9.648633,1.4796166
0.047022548,4.8702016,-0.0007636249,0.021904606,-0.13934942,-0.36391866,-9.595961,1.4891934
0.046766084,4.8701496,-0.0007636249,0.021904606,-0.13934942,-0.36391866,-9.595961,1.4891934
0.046512395,4.870113,0.003497433,0.019774077,-0.12869677,-0.32561144,-9.504981,1.4748282
0.04626065,4.870076,0.003497433,0.019774077,-0.12869677,-0.32561144,-9.504981,1.4748282
0.04602625,4.8700285,0.0077584907,0.019774077,-0.120174654,-0.29209262,-9.433155,1.4317327
0.04579024,4.86998,0.0077584907,0.019774077,-0.120174654,-0.29209262,-9.433155,1.4317327
0.045541875,4.8699703,0.00988902,0.019774077,-0.11484833,-0.25378537,-9.337387,1.460463
0.045293577,4.8699603,0.00988902,0.019774077,-0.11484833,-0.25378537,-9.337387,1.460463
0.045048855,4.8699574,0.012019549,0.021904606,-0.11058728,-0.19632454,-9.270349,1.4508862
0.04480413,4.869954,0.012019549,0.021904606,-0.11058728,-0.19632454,-9.270349,1.4508862
0.0445612,4.8699694,0.012019549,0.0251004,-0.108456746,-0.17717093,-9.198523,1.4700398
0.04431832,4.8699846,0.012019549,0.0251004,-0.108456746,-0.17717093,-9.198523,1.4700398
0.04407326,4.869998,0.008823755,0.030426722,-0.11165254,-0.25378537,-9.083601,1.4508862
0.04382819,4.8700113,0.008823755,0.030426722,-0.11165254,-0.25378537,-9.083601,1.4508862
0.04360036,4.8700643,0.003497433,0.03468778,-0.1159136,-0.29209262,-9.088389,1.4939818
0.043374147,4.870117,0.003497433,0.03468778,-0.1159136,-0.29209262,-9.088389,1.4939818
0.04312547,4.8700895,-0.0050246827,0.040014103,-0.11910939,-0.30166942,-9.030929,1.4221559
0.04287539,4.8700614,-0.0050246827,0.040014103,-0.11910939,-0.30166942,-9.030929,1.4221559
0.042849965,4.8701186,-0.013546798,0.04427516,-0.12869677,-0.4261679,-9.016563,1.460463
0.042825967,4.870175,-0.013546798,0.04427516,-0.12869677,-0.4261679,-9.016563,1.460463
0.04283651,4.870155,-0.022068914,0.046405688,-0.13828415,-0.49799395,-9.035717,1.4413095
0.04284707,4.870135,-0.022068914,0.046405688,-0.13828415,-0.49799395,-9.035717,1.4413095
0.042849008,4.870081,-0.031656295,0.046405688,-0.14467573,-0.63206923,-9.030929,1.4030021
0.04285102,4.870028,-0.031656295,0.046405688,-0.14467573,-0.63206923,-9.030929,1.4030021
0.042839967,4.869943,-0.042308938,0.046405688,-0.1489368,-0.7038953,-9.045294,1.340753
0.04282913,4.8698583,-0.042308938,0.046405688,-0.1489368,-0.7038953,-9.045294,1.340753
0.0428075,4.869753,-0.05189632,0.045340426,-0.15213259,-0.7661445,-9.093178,1.2880806
0.04278604,4.8696485,-0.05189632,0.045340426,-0.15213259,-0.7661445,-9.093178,1.2880806
0.042772304,4.8695507,-0.062548965,0.043209895,-0.15532838,-0.8714894,-9.136273,1.3311762
0.0427586,4.869453,-0.062548965,0.043209895,-0.15532838,-0.8714894,-9.136273,1.3311762
0.04274971,4.8693643,-0.07320161,0.04214463,-0.15639365,-0.8858546,-9.203311,1.412579
0.042740937,4.8692756,-0.07320161,0.04214463,-0.15639365,-0.8858546,-9.203311,1.412579
0.042731255,4.869175,-0.08278899,0.040014103,-0.15639365,-0.91937345,-9.260772,1.4077905
0.04272168,4.869075,-0.08278899,0.040014103,-0.15639365,-0.91937345,-9.260772,1.4077905
0.042713273,4.8689713,-0.091311105,0.035753045,-0.15532838,-0.90500826,-9.370906,1.4460979
0.0427049,4.8688684,-0.091311105,0.035753045,-0.15532838,-0.90500826,-9.370906,1.4460979
0.042697437,4.8687744,-0.09663743,0.026165664,-0.15319785,-0.89064306,-9.457097,1.508347
0.04268995,4.8686805,-0.09663743,0.026165664,-0.15319785,-0.89064306,-9.457097,1.508347
0.042680997,4.868578,-0.10089848,0.01551302,-0.15319785,-0.8858546,-9.481039,1.4939818
0.04267209,4.868476,-0.10089848,0.01551302,-0.15319785,-0.8858546,-9.481039,1.4939818
0.04265894,4.8683805,-0.106224805,0.0027298466,-0.15426312,-0.8762778,-9.595961,1.5514427
0.042645637,4.868286,-0.106224805,0.0027298466,-0.15426312,-0.8762778,-9.595961,1.5514427
0.04262921,4.868202,-0.106224805,-0.010053327,-0.15213259,-0.770933,-9.648633,1.5801731
0.042612948,4.86812,-0.106224805,-0.010053327,-0.15213259,-0.770933,-9.648633,1.5801731
0.042597406,4.868022,-0.10515954,-0.023901764,-0.15319785,-0.7326257,-9.68694,1.5370775
0.04258169,4.867923,-0.10515954,-0.023901764,-0.15319785,-0.7326257,-9.68694,1.5370775
0.04256336,4.867818,-0.09983322,-0.037750203,-0.15426312,-0.6607997,-9.739613,1.5131354
0.042544775,4.867711,-0.09983322,-0.037750203,-0.15426312,-0.6607997,-9.739613,1.5131354
0.04249827,4.867673,-0.09557216,-0.050533377,-0.15639365,-0.60812724,-9.787497,1.6232687
0.04245163,4.8676343,-0.09557216,-0.050533377,-0.15639365,-0.60812724,-9.787497,1.6232687
0.04236763,4.8676257,-0.09024584,-0.06118602,-0.15958944,-0.5602432,-9.825804,1.6711528
0.04228381,4.8676167,-0.09024584,-0.06118602,-0.15958944,-0.5602432,-9.825804,1.6711528
0.042194575,4.8676186,-0.08278899,-0.06970814,-0.15745892,-0.5410896,-9.816227,1.6663644
0.04210631,4.8676205,-0.08278899,-0.06970814,-0.15745892,-0.5410896,-9.816227,1.6663644
0.042027175,4.8676243,-0.075332135,-0.077164985,-0.15745892,-0.56982,-9.797073,1.6663644
0.0419478,4.8676286,-0.075332135,-0.077164985,-0.15745892,-0.56982,-9.797073,1.6663644
0.04187184,4.86764,-0.06681002,-0.08249131,-0.15532838,-0.5506664,-9.797073,1.6472107
0.041796587,4.8676515,-0.06681002,-0.08249131,-0.15532838,-0.5506664,-9.797073,1.6472107
0.0417396,4.86766,-0.05935317,-0.0856871,-0.15106732,-0.59376204,-9.739613,1.6376339
0.04168234,4.8676686,-0.05935317,-0.0856871,-0.15106732,-0.59376204,-9.739613,1.6376339
0.041653685,4.8676567,-0.052961584,-0.08888289,-0.145741,-0.6512229,-9.725247,1.5945383
0.041624945,4.867645,-0.052961584,-0.08888289,-0.145741,-0.6512229,-9.725247,1.5945383
0.041599628,4.8676453,-0.046569996,-0.091013424,-0.13828415,-0.61770403,-9.715671,1.5945383
0.04157437,4.8676457,-0.046569996,-0.091013424,-0.13828415,-0.61770403,-9.715671,1.5945383
0.041561507,4.867648,-0.04017841,-0.091013424,-0.12869677,-0.61770403,-9.677363,1.5801731
0.04154861,4.8676505,-0.04017841,-0.091013424,-0.12869677,-0.61770403,-9.677363,1.5801731
0.041552663,4.8676424,-0.034852087,-0.09207869,-0.11910939,-0.6464345,-9.643845,1.5514427
0.04155674,4.867634,-0.034852087,-0.09207869,-0.11910939,-0.6464345,-9.643845,1.5514427
0.041559648,4.86765,-0.029525764,-0.09207869,-0.11058728,-0.6560113,-9.648633,1.5945383
0.04156264,4.8676653,-0.029525764,-0.09207869,-0.11058728,-0.6560113,-9.648633,1.5945383
0.041572645,4.8676887,-0.024199443,-0.09420922,-0.10206516,-0.6655881,-9.629479,1.5993267
0.041582745,4.8677115,-0.024199443,-0.09420922,-0.10206516,-0.6655881,-9.629479,1.5993267
0.041612614,4.8677135,-0.017807856,-0.095274486,-0.09460831,-0.63206923,-9.581595,1.5275006
0.041642483,4.867715,-0.017807856,-0.095274486,-0.09460831,-0.63206923,-9.581595,1.5275006
0.04167772,4.8677354,-0.013546798,-0.09633975,-0.08395566,-0.6751649,-9.56723,1.5610195
0.04171296,4.867756,-0.013546798,-0.09633975,-0.08395566,-0.6751649,-9.56723,1.5610195
0.041760363,4.867724,-0.010351005,-0.095274486,-0.07436828,-0.6464345,-9.581595,1.4556746
0.04180776,4.867692,-0.010351005,-0.095274486,-0.07436828,-0.6464345,-9.581595,1.4556746
0.041865274,4.8677154,-0.006089947,-0.09420922,-0.06371564,-0.6655881,-9.524135,1.541866
0.041922826,4.8677387,-0.006089947,-0.09420922,-0.06371564,-0.6655881,-9.524135,1.541866
0.041977134,4.867689,-0.0039594183,-0.09420922,-0.05412826,-0.641646,-9.5385,1.3982137
0.04203777,4.867635,-0.0039594183,-0.09420922,-0.05412826,-0.641646,-9.5385,1.3982137
0.042106297,4.8676047,-0.0018288894,-0.093143955,-0.045606144,-0.58418524,-9.504981,1.4413095
0.042177778,4.8675733,-0.0018288894,-0.093143955,-0.045606144,-0.58418524,-9.504981,1.4413095
0.042263713,4.867595,0.00030163955,-0.09207869,-0.037084028,-0.5267244,-9.476251,1.4987702
0.042263713,4.867595,0.00030163955,-0.09207869,-0.037084028,-0.5267244,-9.476251,1.4987702
0.042448636,4.867629,0.001366904,-0.08994816,-0.029627176,-0.50278234,-9.452309,1.4508862
0.042520627,4.8676014,0.001366904,-0.08994816,-0.029627176,-0.50278234,-9.452309,1.4508862
0.04260003,4.8676653,0.0024321685,-0.08781763,-0.02110506,-0.49799395,-9.394848,1.5179238
0.042679794,4.867729,0.0024321685,-0.08781763,-0.02110506,-0.49799395,-9.394848,1.5179238
0.04277074,4.8676815,0.001366904,-0.0856871,-0.014713474,-0.47405192,-9.452309,1.4508862
0.042861775,4.8676343,0.001366904,-0.0856871,-0.014713474,-0.47405192,-9.452309,1.4508862
0.042858057,4.867539,0.00030163955,-0.08249131,-0.009387151,-0.41180268,-9.437943,1.4652514
0.042856295,4.867444,0.00030163955,-0.08249131,-0.009387151,-0.41180268,-9.437943,1.4652514
0.04283169,4.867349,0.001366904,-0.08036078,-0.0072566224,-0.40222588,-9.394848,1.3694834
0.042807378,4.867254,0.001366904,-0.08036078,-0.0072566224,-0.40222588,-9.394848,1.3694834
0.042720202,4.8671703,0.00030163955,-0.078230254,-0.006191358,-0.35434186,-9.380483,1.3982137
0.042633228,4.8670864,0.00030163955,-0.078230254,-0.006191358,-0.35434186,-9.380483,1.3982137
0.042511303,4.8670225,-0.0018288894,-0.07503446,-0.004060829,-0.320823,-9.394848,1.412579
0.042389452,4.866958,-0.0018288894,-0.07503446,-0.004060829,-0.320823,-9.394848,1.412579
0.042239346,4.866932,-0.0039594183,-0.07396919,-0.0029955646,-0.29688102,-9.409213,1.4460979
0.042089246,4.866906,-0.0039594183,-0.07396919,-0.0029955646,-0.29688102,-9.409213,1.4460979
0.041939896,4.8668704,-0.0071552116,-0.07290393,-0.0051260935,-0.29209262,-9.390059,1.436521
0.04179056,4.866834,-0.0071552116,-0.07290393,-0.0051260935,-0.29209262,-9.390059,1.436521
0.041666467,4.8667593,-0.010351005,-0.0707734,-0.009387151,-0.25857377,-9.414001,1.3742718
0.04154239,4.8666844,-0.010351005,-0.0707734,-0.009387151,-0.25857377,-9.414001,1.3742718
0.041454576,4.8665857,-0.012481534,-0.06970814,-0.012582945,-0.33039984,-9.41879,1.3742718
0.041366898,4.866487,-0.012481534,-0.06970814,-0.012582945,-0.33039984,-9.41879,1.3742718
0.041254792,4.866395,-0.015677327,-0.06544708,-0.015778739,-0.30645782,-9.433155,1.3838485
0.041142758,4.866303,-0.015677327,-0.06544708,-0.015778739,-0.30645782,-9.433155,1.3838485
0.041015442,4.8662148,-0.018873122,-0.06331655,-0.020039797,-0.320823,-9.452309,1.412579
0.040888216,4.866126,-0.018873122,-0.06331655,-0.020039797,-0.320823,-9.452309,1.412579
0.040778883,4.866024,-0.021003649,-0.059055492,-0.02323559,-0.320823,-9.457097,1.388637
0.040669844,4.8659215,-0.021003649,-0.059055492,-0.02323559,-0.320823,-9.457097,1.388637
0.0405895,4.8658047,-0.024199443,-0.05692496,-0.026431382,-0.34955344,-9.500193,1.3838485
0.040509433,4.8656883,-0.024199443,-0.05692496,-0.026431382,-0.34955344,-9.500193,1.3838485
0.040330887,4.865658,-0.027395237,-0.054794434,-0.03069244,-0.34955344,-9.524135,1.4700398
0.040152278,4.865628,-0.027395237,-0.054794434,-0.03069244,-0.34955344,-9.524135,1.4700398
0.040054884,4.86569,-0.03059103,-0.05372917,-0.034953497,-0.37349546,-9.629479,1.5179238
0.039958943,4.8657537,-0.03059103,-0.05372917,-0.034953497,-0.37349546,-9.629479,1.5179238
0.03986778,4.8658166,-0.032721557,-0.052663904,-0.037084028,-0.37828386,-9.615114,1.508347
0.039778832,4.8658805,-0.032721557,-0.052663904,-0.037084028,-0.37828386,-9.615114,1.508347
0.039853234,4.865897,-0.033786822,-0.052663904,-0.04027982,-0.41180268,-9.624691,1.4987702
0.03992716,4.8659143,-0.033786822,-0.052663904,-0.04027982,-0.41180268,-9.624691,1.4987702
0.039837755,4.865786,-0.034852087,-0.052663904,-0.04241035,-0.37349546,-9.610326,1.4508862
0.03974926,4.865657,-0.034852087,-0.052663904,-0.04241035,-0.37349546,-9.610326,1.4508862
0.039727893,4.865517,-0.035917353,-0.052663904,-0.046671405,-0.39264908,-9.619903,1.4700398
0.03971323,4.865396,-0.035917353,-0.052663904,-0.046671405,-0.39264908,-9.619903,1.4700398
0.039525427,4.8653297,-0.035917353,-0.052663904,-0.04773667,-0.35913026,-9.672575,1.484405
0.03933699,4.865265,-0.035917353,-0.052663904,-0.04773667,-0.35913026,-9.672575,1.484405
0.03925456,4.8653293,-0.034852087,-0.051598642,-0.048801936,-0.38307226,-9.720459,1.5131354
0.039176337,4.8653946,-0.034852087,-0.051598642,-0.048801936,-0.38307226,-9.720459,1.5131354
0.039013516,4.865425,-0.034852087,-0.04946811,-0.048801936,-0.31124622,-9.763555,1.5514427
0.038851272,4.8654556,-0.034852087,-0.04946811,-0.048801936,-0.31124622,-9.763555,1.5514427
0.038654953,4.8654184,-0.032721557,-0.047337584,-0.0498672,-0.23942018,-9.787497,1.5035586
0.038458627,4.8653812,-0.032721557,-0.047337584,-0.0498672,-0.23942018,-9.787497,1.5035586
0.038266346,4.8653364,-0.03059103,-0.044141788,-0.04773667,-0.33997664,-9.844957,1.5131354
0.038073882,4.8652925,-0.03059103,-0.044141788,-0.04773667,-0.33997664,-9.844957,1.5131354
0.038015235,4.8653636,-0.029525764,-0.03988073,-0.045606144,-0.37349546,-9.811439,1.5801731
0.037957415,4.8654346,-0.029525764,-0.03988073,-0.045606144,-0.37349546,-9.811439,1.5801731
0.03801534,4.8654737,-0.026329972,-0.037750203,-0.04454088,-0.40222588,-9.840169,1.532289
0.03807339,4.8655124,-0.026329972,-0.037750203,-0.04454088,-0.40222588,-9.840169,1.532289
0.03805542,4.8653917,-0.024199443,-0.03455441,-0.04241035,-0.3878607,-9.873688,1.4987702
0.038039617,4.8652716,-0.024199443,-0.03455441,-0.04241035,-0.3878607,-9.873688,1.4987702
0.038119864,4.865304,-0.018873122,-0.03242388,-0.037084028,-0.41180268,-9.787497,1.5227122
0.038201977,4.8653374,-0.018873122,-0.03242388,-0.037084028,-0.41180268,-9.787497,1.5227122
0.038295917,4.8652925,-0.014612063,-0.030293351,-0.031757705,-0.45010993,-9.80665,1.4939818
0.038390417,4.8652472,-0.014612063,-0.030293351,-0.031757705,-0.45010993,-9.80665,1.4939818
0.038457982,4.8653107,-0.010351005,-0.026032293,-0.024300855,-0.46447513,-9.811439,1.5753847
0.038525566,4.8653736,-0.010351005,-0.026032293,-0.024300855,-0.46447513,-9.811439,1.5753847
0.03863407,4.86541,-0.006089947,-0.0228365,-0.015778739,-0.46447513,-9.691729,1.5227122
0.03874235,4.865446,-0.006089947,-0.0228365,-0.015778739,-0.46447513,-9.691729,1.5227122
0.038840856,4.8653865,-0.0007636249,-0.020705972,-0.010452416,-0.521936,-9.68694,1.4173675
0.038939428,4.8653264,-0.0007636249,-0.020705972,-0.010452416,-0.521936,-9.68694,1.4173675
0.039056532,4.865282,0.003497433,-0.020705972,-0.0019303001,-0.51714754,-9.648633,1.4317327
0.039173514,4.865237,0.003497433,-0.020705972,-0.0019303001,-0.51714754,-9.648633,1.4317327
0.039315805,4.865227,0.0066932263,-0.021771235,0.00765708,-0.5267244,-9.600749,1.460463
0.039457895,4.865217,0.0066932263,-0.021771235,0.00765708,-0.5267244,-9.600749,1.460463
0.039586045,4.865172,0.00988902,-0.019640706,0.016179197,-0.51235914,-9.586384,1.412579
0.039714716,4.865126,0.00988902,-0.019640706,0.016179197,-0.51235914,-9.586384,1.412579
0.039816543,4.86506,0.0141500775,-0.019640706,0.024701312,-0.48841715,-9.5385,1.3599066
0.039918095,4.864993,0.0141500775,-0.019640706,0.024701312,-0.48841715,-9.5385,1.3599066
0.040042687,4.864939,0.017345872,-0.020705972,0.031092897,-0.48362875,-9.461885,1.3790601
0.04016699,4.864886,0.017345872,-0.020705972,0.031092897,-0.48362875,-9.461885,1.3790601
0.040283807,4.864827,0.019476399,-0.020705972,0.035353955,-0.46447513,-9.414001,1.3694834
0.040400308,4.864768,0.019476399,-0.020705972,0.035353955,-0.46447513,-9.414001,1.3694834
0.040548984,4.864728,0.019476399,-0.021771235,0.041745543,-0.45968673,-9.380483,1.3982137
0.040697478,4.864687,0.019476399,-0.021771235,0.041745543,-0.45968673,-9.380483,1.3982137
0.04071665,4.864609,0.018411135,-0.021771235,0.0460066,-0.36870706,-9.394848,1.364695
0.040735386,4.8645296,0.018411135,-0.021771235,0.0460066,-0.36870706,-9.394848,1.364695
