Pitch,Roll,Gyro_X,Gyro_Y,Gyro_Z,Accel_X,Accel_Y,Accel_Z
6.0294695,4.680223,0.09404491,-0.0015312112,0.16212043,2.4372973,-9.3182335,-0.22505496
6.0296206,4.680439,0.09404491,-0.0015312112,0.16212043,2.4372973,-9.3182335,-0.22505496
6.029771,4.6806345,0.09617544,-0.0047270046,0.16212043,2.4181437,-9.299079,-0.22505496
6.0299125,4.6808224,0.09617544,-0.0047270046,0.16212043,2.4181437,-9.299079,-0.22505496
6.030206,4.680948,0.1004365,-0.010053327,0.16425095,2.3080103,-9.3421755,-0.272939
6.0304985,4.6810718,0.1004365,-0.010053327,0.16425095,2.3080103,-9.3421755,-0.272939
6.0307674,4.6812434,0.10363229,-0.017510178,0.16957727,2.3080103,-9.385271,-0.21547815
6.031037,4.681416,0.10363229,-0.017510178,0.16957727,2.3080103,-9.385271,-0.21547815
6.0312376,4.6816206,0.10895862,-0.026032293,0.17916466,2.3894134,-9.423578,-0.11971009
6.031438,4.6818256,0.10895862,-0.026032293,0.17916466,2.3894134,-9.423578,-0.11971009
6.0316157,4.6820364,0.11641546,-0.033489145,0.18875204,2.4420857,-9.428367,-0.15322891
6.0317917,4.682246,0.11641546,-0.033489145,0.18875204,2.4420857,-9.428367,-0.15322891
6.031979,4.682461,0.12174179,-0.035619672,0.20260048,2.4372973,-9.385271,-0.11492168
6.0321665,4.6826763,0.12174179,-0.035619672,0.20260048,2.4372973,-9.385271,-0.11492168
6.0323563,4.6828947,0.12600285,-0.033489145,0.21431838,2.4420857,-9.332599,-0.095768064
6.0325446,4.6831136,0.12600285,-0.033489145,0.21431838,2.4420857,-9.332599,-0.095768064
6.032754,4.6833425,0.13239443,-0.027097559,0.2260363,2.4277205,-9.3661175,-0.11971009
6.0329604,4.68357,0.13239443,-0.027097559,0.2260363,2.4277205,-9.3661175,-0.11971009
6.0332074,4.683806,0.13772075,-0.018575443,0.2345584,2.3750482,-9.356541,-0.1388637
6.0334525,4.6840425,0.13772075,-0.018575443,0.2345584,2.3750482,-9.356541,-0.1388637
6.03377,4.684271,0.14198181,-0.010053327,0.24521105,2.303222,-9.385271,-0.16280572
6.034087,4.6844997,0.14198181,-0.010053327,0.24521105,2.303222,-9.385271,-0.16280572
6.0344214,4.6847286,0.1451776,-0.0025964756,0.2526679,2.327164,-9.356541,-0.21068975
6.0347567,4.6849585,0.1451776,-0.0025964756,0.2526679,2.327164,-9.356541,-0.21068975
6.0349083,4.685046,0.14943866,0.003795111,0.26119003,2.3989902,-9.375694,-0.2681506
6.03506,4.6851344,0.14943866,0.003795111,0.26119003,2.3989902,-9.375694,-0.2681506
6.0352745,4.685197,0.15369973,0.008056169,0.2675816,2.4037786,-9.32781,-0.320823
6.0354867,4.68526,0.15369973,0.008056169,0.2675816,2.4037786,-9.32781,-0.320823
6.035673,4.685336,0.15583025,0.010186698,0.2675816,2.4708161,-9.289502,-0.36870706
6.0358586,4.685413,0.15583025,0.010186698,0.2675816,2.4708161,-9.289502,-0.36870706
6.036013,4.6855116,0.15796077,0.009121433,0.26545107,2.4660277,-9.232041,-0.320823
6.036168,4.685611,0.15796077,0.009121433,0.26545107,2.4660277,-9.232041,-0.320823
6.036312,4.6857424,0.15689552,0.009121433,0.26119003,2.4277205,-9.208099,-0.2777274
6.036432,4.68585,0.15689552,0.009121433,0.26119003,2.4277205,-9.208099,-0.2777274
6.0365796,4.6859407,0.15476498,0.00592564,0.25479844,2.528277,-9.232041,-0.36391866
6.036869,4.6861167,0.15156919,0.0016645822,0.24734159,2.5761611,-9.23683,-0.39743748
6.036869,4.6861167,0.15156919,0.0016645822,0.24734159,2.5761611,-9.23683,-0.39743748
6.0370116,4.686202,0.15156919,0.0016645822,0.24734159,2.5761611,-9.23683,-0.39743748
6.037135,4.6862874,0.14730814,-0.0015312112,0.23562367,2.6719291,-9.246407,-0.4261679
6.037259,4.6863723,0.14730814,-0.0015312112,0.23562367,2.6719291,-9.246407,-0.4261679
6.037379,4.6864443,0.14304708,-0.0015312112,0.22177523,2.7389667,-9.356541,-0.50278234
6.0374994,4.686517,0.14304708,-0.0015312112,0.22177523,2.7389667,-9.356541,-0.50278234
6.037603,4.6865845,0.13878602,0.0005993177,0.20579627,2.834735,-9.346964,-0.5650316
6.0377064,4.686653,0.13878602,0.0005993177,0.20579627,2.834735,-9.346964,-0.5650316
6.037786,4.6867194,0.13452496,0.003795111,0.18449098,2.9831753,-9.414001,-0.6368576
6.0378656,4.6867857,0.13452496,0.003795111,0.18449098,2.9831753,-9.414001,-0.6368576
6.0379133,4.6868505,0.12919864,0.008056169,0.1567941,3.169923,-9.461885,-0.7038953
6.0379605,4.6869154,0.12919864,0.008056169,0.1567941,3.169923,-9.461885,-0.7038953
6.0379677,4.686976,0.118545994,0.013382491,0.119509846,3.323152,-9.504981,-0.7565677
6.037975,4.687031,0.118545994,0.013382491,0.119509846,3.323152,-9.504981,-0.7565677
6.037931,4.6870794,0.104697555,0.017643549,0.07263821,3.4955344,-9.471462,-0.79487497
6.0378866,4.6871276,0.104697555,0.017643549,0.07263821,3.4955344,-9.471462,-0.79487497
6.037795,4.6871552,0.08871859,0.020839343,0.020440254,3.5482068,-9.543288,-0.89064306
6.037704,4.6871824,0.08871859,0.020839343,0.020440254,3.5482068,-9.543288,-0.89064306
6.037554,4.687192,0.07060909,0.024035135,-0.039214555,3.5673606,-9.634268,-0.90021986
6.0374036,4.687201,0.07060909,0.024035135,-0.039214555,3.5673606,-9.634268,-0.90021986
6.0371876,4.687191,0.051434334,0.028296193,-0.106326215,3.53863,-9.715671,-0.8858546
6.0369706,4.687181,0.051434334,0.028296193,-0.106326215,3.53863,-9.715671,-0.8858546
6.036683,4.6871567,0.033324838,0.031491987,-0.17450315,3.4763808,-9.811439,-0.79008657
6.036396,4.687132,0.033324838,0.031491987,-0.17450315,3.4763808,-9.811439,-0.79008657
6.0360484,4.6870823,0.017345872,0.031491987,-0.2448106,3.3375173,-9.864111,-0.8283938
6.0357018,4.6870317,0.017345872,0.031491987,-0.2448106,3.3375173,-9.864111,-0.8283938
6.0352907,4.686967,0.0024321685,0.031491987,-0.310857,3.1794999,-9.916783,-0.7134721
6.0348773,4.686901,0.0024321685,0.031491987,-0.310857,3.1794999,-9.916783,-0.7134721
6.034424,4.686814,-0.010351005,0.030426722,-0.36625075,3.0693667,-9.998186,-0.7230489
6.0339704,4.6867266,-0.010351005,0.030426722,-0.36625075,3.0693667,-9.998186,-0.7230489
6.0334744,4.6866274,-0.018873122,0.029361458,-0.41418764,2.9017725,-10.0269165,-0.60333884
6.03298,4.6865273,-0.018873122,0.029361458,-0.41418764,2.9017725,-10.0269165,-0.60333884
6.0324626,4.6864147,-0.026329972,0.029361458,-0.45040664,2.7485435,-10.0269165,-0.49320555
6.0319457,4.6863017,-0.026329972,0.029361458,-0.45040664,2.7485435,-10.0269165,-0.49320555
6.0314264,4.686181,-0.027395237,0.029361458,-0.47490773,2.6144683,-10.0269165,-0.34476504
6.0309134,4.6860595,-0.027395237,0.029361458,-0.47490773,2.6144683,-10.0269165,-0.34476504
6.030554,4.6860733,-0.02313418,0.030426722,-0.4908867,2.4995465,-10.0269165,-0.24420857
6.0301957,4.6860867,-0.02313418,0.030426722,-0.4908867,2.4995465,-10.0269165,-0.24420857
6.0301957,4.6860867,-0.02313418,0.030426722,-0.4908867,2.4995465,-10.0269165,-0.24420857
6.0301957,4.6860867,-0.017807856,0.031491987,-0.49514773,2.384625,-10.04607,-0.11492168
6.028762,4.6863465,-0.008220476,0.03468778,-0.4908867,2.303222,-9.983821,-0.05746084
6.0286007,4.686375,-0.008220476,0.03468778,-0.4908867,2.303222,-9.983821,-0.05746084
6.028228,4.6864514,0.0045626974,0.038948838,-0.47597298,2.2984335,-9.931149,-0.10055647
6.0278664,4.6865253,0.0045626974,0.038948838,-0.47597298,2.2984335,-9.931149,-0.10055647
6.027503,4.686626,0.018411135,0.043209895,-0.45040664,2.2601264,-9.801862,-0.05746084
6.027161,4.6867204,0.018411135,0.043209895,-0.45040664,2.2601264,-9.801862,-0.05746084
6.026862,4.6868067,0.032259572,0.047470953,-0.42377502,2.207454,-9.710882,-0.1388637
6.02657,4.6868896,0.032259572,0.047470953,-0.42377502,2.207454,-9.710882,-0.1388637
6.0263147,4.686965,0.04610801,0.05173201,-0.39288235,2.2026656,-9.648633,-0.20590134
6.0260587,4.6870394,0.04610801,0.05173201,-0.39288235,2.2026656,-9.648633,-0.20590134
6.0258317,4.6871395,0.05782592,0.05599307,-0.35879388,2.1643584,-9.615114,-0.16759412
6.0256057,4.6872387,0.05782592,0.05599307,-0.35879388,2.1643584,-9.615114,-0.16759412
6.02542,4.6873326,0.06847856,0.05918886,-0.32364017,2.0973208,-9.591172,-0.20590134
6.0252333,4.6874266,0.06847856,0.05918886,-0.32364017,2.0973208,-9.591172,-0.20590134
6.025078,4.6875515,0.07806595,0.06344992,-0.2863559,2.0015526,-9.576807,-0.11971009
6.024922,4.687677,0.07806595,0.06344992,-0.2863559,2.0015526,-9.576807,-0.11971009
6.024788,4.687831,0.082327,0.06771098,-0.24800639,1.9057846,-9.552865,0.04309563
6.0246544,4.687985,0.082327,0.06771098,-0.24800639,1.9057846,-9.552865,0.04309563
6.0245323,4.688168,0.08658806,0.06771098,-0.20539582,2.0829554,-9.543288,0.15322891
6.0244107,4.688351,0.09511018,0.069841504,-0.16171996,2.2266076,-9.44752,0.1388637
6.0243106,4.688554,0.09511018,0.069841504,-0.16171996,2.2266076,-9.44752,0.1388637
6.02421,4.688758,0.09511018,0.069841504,-0.16171996,2.2266076,-9.44752,0.1388637
6.024175,4.68896,0.10789335,0.074102566,-0.124435715,2.1260512,-9.375694,0.05746084
6.024141,4.689163,0.10789335,0.074102566,-0.124435715,2.1260512,-9.375694,0.05746084
6.02419,4.689377,0.122807056,0.07942889,-0.092477776,1.9871874,-9.313444,-0.11971009
6.024236,4.6895776,0.122807056,0.07942889,-0.092477776,1.9871874,-9.313444,-0.11971009
6.024302,4.6897016,0.13452496,0.08262468,-0.059454583,1.9009962,-9.323022,-0.24420857
6.024362,4.6898146,0.13452496,0.08262468,-0.059454583,1.9009962,-9.323022,-0.24420857
6.0244713,4.6899843,0.14411235,0.07836362,-0.026431382,1.982399,-9.184157,-0.18195933
6.0245824,4.690157,0.14411235,0.07836362,-0.026431382,1.982399,-9.184157,-0.18195933
6.024726,4.6903367,0.1483734,0.06877624,0.0065918155,2.0254946,-9.112331,-0.16759412
6.0248694,4.690516,0.1483734,0.06877624,0.0065918155,2.0254946,-9.112331,-0.16759412
6.0250134,4.690695,0.1483734,0.06877624,0.0065918155,2.0254946,-9.112331,-0.16759412
6.025176,4.690898,0.14943866,0.05599307,0.03428869,2.15957,-9.030929,-0.1340753
6.025339,4.691099,0.14943866,0.05599307,0.03428869,2.15957,-9.030929,-0.1340753
6.0255003,4.691188,0.1483734,0.040014103,0.059855036,2.207454,-8.930372,-0.2873042
6.025659,4.691275,0.1483734,0.040014103,0.059855036,2.207454,-8.930372,-0.2873042
6.025877,4.691406,0.1483734,0.021904606,0.08222559,2.2697031,-8.839393,-0.19632454
6.0260935,4.691533,0.1483734,0.021904606,0.08222559,2.2697031,-8.839393,-0.19632454
6.026219,4.691581,0.14730814,0.0016645822,0.10140035,2.2936451,-8.815451,-0.2825158
6.026343,4.6916275,0.14730814,0.0016645822,0.10140035,2.2936451,-8.815451,-0.2825158
6.026404,4.691675,0.1451776,-0.016444914,0.118444584,2.3894134,-8.7292595,-0.32561144
6.0264645,4.691723,0.1451776,-0.016444914,0.118444584,2.3894134,-8.7292595,-0.32561144
6.026511,4.691777,0.14411235,-0.035619672,0.13442355,2.4851813,-8.63828,-0.36391866
6.0265584,4.6918325,0.14411235,-0.035619672,0.13442355,2.4851813,-8.63828,-0.36391866
6.026592,4.6919017,0.14091654,-0.050533377,0.148272,2.6048915,-8.662222,-0.33518824
6.026625,4.6919713,0.14091654,-0.050533377,0.148272,2.6048915,-8.662222,-0.33518824
6.026668,4.6920347,0.13559023,-0.06331655,0.1599899,2.7150247,-8.714894,-0.36870706
6.026716,4.692125,0.12813337,-0.07183866,0.16425095,2.8778305,-8.676587,-0.35913026
6.026741,4.692171,0.12813337,-0.07183866,0.16425095,2.8778305,-8.676587,-0.35913026
6.026768,4.6922398,0.118545994,-0.077164985,0.15892464,3.0550013,-8.695741,-0.35434186
6.026795,4.6923046,0.118545994,-0.077164985,0.15892464,3.0550013,-8.695741,-0.35434186
6.026821,4.69237,0.118545994,-0.077164985,0.15892464,3.0550013,-8.695741,-0.35434186
6.0268383,4.692417,0.10895862,-0.08036078,0.14614145,3.145981,-8.748413,-0.4261679
6.0268555,4.692465,0.10895862,-0.08036078,0.14614145,3.145981,-8.748413,-0.4261679
6.026866,4.692483,0.0972407,-0.08249131,0.12803197,3.2273839,-8.820239,-0.58897364
6.026877,4.6925015,0.0972407,-0.08249131,0.12803197,3.2273839,-8.820239,-0.58897364
6.0268626,4.692503,0.08339227,-0.0856871,0.10140035,3.265691,-8.805874,-0.63206923
6.0268483,4.692505,0.08339227,-0.0856871,0.10140035,3.265691,-8.805874,-0.63206923
6.026798,4.6924973,0.06954383,-0.08888289,0.06944242,3.2992098,-8.848969,-0.58418524
6.0267463,4.692489,0.06954383,-0.08888289,0.06944242,3.2992098,-8.848969,-0.58418524
6.026668,4.692457,0.0524996,-0.091013424,0.03428869,3.323152,-8.834604,-0.6751649
6.0265884,4.6924243,0.0524996,-0.091013424,0.03428869,3.323152,-8.834604,-0.6751649
6.026472,4.6923738,0.03545537,-0.09420922,-0.0019303001,3.3327289,-8.887277,-0.6703765
6.026356,4.692323,0.03545537,-0.09420922,-0.0019303001,3.3327289,-8.887277,-0.6703765
6.026192,4.692268,0.018411135,-0.09740501,-0.039214555,3.3662477,-8.892065,-0.5410896
6.0260286,4.692213,0.018411135,-0.09740501,-0.039214555,3.3662477,-8.892065,-0.5410896
6.0258284,4.6921434,0.0045626974,-0.09847028,-0.075433545,3.3327289,-8.90643,-0.5315128
6.025628,4.692073,0.0045626974,-0.09847028,-0.075433545,3.3327289,-8.90643,-0.5315128
6.02539,4.6919975,-0.010351005,-0.09847028,-0.10952201,3.289633,-8.911219,-0.4405331
6.0251513,4.691922,-0.010351005,-0.09847028,-0.10952201,3.289633,-8.911219,-0.4405331
6.024879,4.6918416,-0.021003649,-0.09847028,-0.13934942,3.265691,-8.920795,-0.3878607
6.0246077,4.6917615,-0.021003649,-0.09847028,-0.13934942,3.265691,-8.920795,-0.3878607
6.0243125,4.691671,-0.032721557,-0.093143955,-0.16278523,3.2082303,-8.963891,-0.37349546
6.024018,4.6915803,-0.032721557,-0.093143955,-0.16278523,3.2082303,-8.963891,-0.37349546
6.023703,4.691492,-0.042308938,-0.08781763,-0.1787642,3.1747115,-8.99741,-0.30166942
6.0233884,4.6914043,-0.042308938,-0.08781763,-0.1787642,3.1747115,-8.99741,-0.30166942
6.023059,4.69132,-0.050831053,-0.08036078,-0.19154738,3.1507695,-8.959103,-0.24420857
6.02273,4.691236,-0.050831053,-0.08036078,-0.19154738,3.1507695,-8.959103,-0.24420857
6.0223937,4.6911416,-0.058287904,-0.0707734,-0.19900422,3.0310593,-8.963891,-0.25857377
6.022057,4.6910477,-0.058287904,-0.0707734,-0.19900422,3.0310593,-8.963891,-0.25857377
6.0217185,4.690969,-0.062548965,-0.059055492,-0.20006949,3.0119057,-8.968679,-0.18674773
6.0213795,4.690891,-0.062548965,-0.059055492,-0.20006949,3.0119057,-8.968679,-0.18674773
6.021045,4.6908216,-0.06574476,-0.045207053,-0.1968737,2.96881,-8.925584,-0.15322891
6.0207105,4.690753,-0.06574476,-0.045207053,-0.1968737,2.96881,-8.925584,-0.15322891
6.0203786,4.6906743,-0.06681002,-0.033489145,-0.19261263,2.8874073,-9.002198,-0.20111294
6.0200467,4.6905956,-0.06681002,-0.033489145,-0.19261263,2.8874073,-9.002198,-0.20111294
6.0197277,4.69054,-0.06787529,-0.020705972,-0.18302526,2.8299465,-8.983045,-0.1436521
6.019408,4.690484,-0.06787529,-0.020705972,-0.18302526,2.8299465,-8.983045,-0.1436521
6.019099,4.6904287,-0.06894055,-0.010053327,-0.17130736,2.8395233,-8.973468,-0.14844051
6.018791,4.6903734,-0.06894055,-0.010053327,-0.17130736,2.8395233,-8.973468,-0.14844051
6.018505,4.6903434,-0.06894055,-0.0015312112,-0.15852417,2.815581,-8.959103,-0.08140286
6.0182195,4.6903143,-0.06894055,-0.0015312112,-0.15852417,2.815581,-8.959103,-0.08140286
6.0179677,4.690309,-0.06894055,0.0069909045,-0.14254521,2.7485435,-8.939949,-0.023942016
6.0177164,4.690304,-0.06894055,0.0069909045,-0.14254521,2.7485435,-8.939949,-0.023942016
6.017478,4.6902986,-0.06894055,0.016578285,-0.12550098,2.695871,-9.006987,-0.076614454
6.01724,4.690294,-0.06894055,0.016578285,-0.12550098,2.695871,-9.006987,-0.076614454
6.0170317,4.6903024,-0.06681002,0.024035135,-0.106326215,2.7150247,-9.016563,-0.033518825
6.0168242,4.6903114,-0.06681002,0.024035135,-0.106326215,2.7150247,-9.016563,-0.033518825
6.016654,4.690336,-0.06361423,0.032557253,-0.08395566,2.695871,-9.059659,-0.0047884034
6.016484,4.6903605,-0.06361423,0.032557253,-0.08395566,2.695871,-9.059659,-0.0047884034
6.0163918,4.6904097,-0.0614837,0.04214463,-0.060519844,2.585738,-9.126697,0.08140286
6.0163,4.6904583,-0.0614837,0.04214463,-0.060519844,2.585738,-9.126697,0.08140286
6.0162306,4.6905155,-0.057222642,0.053862542,-0.039214555,2.5761611,-9.160215,0.02873042
6.016161,4.6905727,-0.057222642,0.053862542,-0.039214555,2.5761611,-9.160215,0.02873042
6.0161405,4.6906395,-0.05189632,0.06344992,-0.016844003,2.5187001,-9.184157,0.11971009
6.01612,4.6907063,-0.05189632,0.06344992,-0.016844003,2.5187001,-9.184157,0.11971009
6.016144,4.690783,-0.04443947,0.073037304,0.005526551,2.4708161,-9.275137,0.11492168
6.016167,4.6908593,-0.04443947,0.073037304,0.005526551,2.4708161,-9.275137,0.11492168
6.016243,4.69094,-0.03698262,0.08262468,0.02683184,2.4277205,-9.289502,-0.0047884034
6.0163193,4.691021,-0.03698262,0.08262468,0.02683184,2.4277205,-9.289502,-0.0047884034
6.0164204,4.6911106,-0.0284605,0.090081535,0.047071867,2.3750482,-9.284714,0.05267244
6.0165215,4.6912003,-0.0284605,0.090081535,0.047071867,2.3750482,-9.284714,0.05267244
6.0166893,4.691274,-0.021003649,0.09540785,0.06624663,2.336741,-9.294291,-0.07182605
6.0168567,4.691349,-0.021003649,0.09540785,0.06624663,2.336741,-9.294291,-0.07182605
6.0170445,4.69143,-0.0114162695,0.09540785,0.08329086,2.3558946,-9.299079,-0.090979666
6.0172324,4.6915116,-0.0114162695,0.09540785,0.08329086,2.3558946,-9.299079,-0.090979666
6.0174174,4.6916122,-0.0039594183,0.0911468,0.09820456,2.4133554,-9.270349,-0.10055647
6.017602,4.691713,-0.0039594183,0.0911468,0.09820456,2.4133554,-9.270349,-0.10055647
6.01784,4.6917753,0.0024321685,0.08155942,0.1088572,2.4372973,-9.208099,-0.17238252
6.0180774,4.6918383,0.0024321685,0.08155942,0.1088572,2.4372973,-9.208099,-0.17238252
6.0180497,4.6918473,0.0066932263,0.06877624,0.112053,2.6048915,-9.198523,-0.20111294
6.018022,4.6918564,0.0066932263,0.06877624,0.112053,2.6048915,-9.198523,-0.20111294
6.017999,4.6918454,0.00988902,0.052797277,0.10992247,2.657564,-9.179369,-0.22984336
6.0179753,4.6918344,0.00988902,0.052797277,0.10992247,2.657564,-9.179369,-0.22984336
6.017948,4.6918154,0.008823755,0.03681831,0.103530884,2.7006595,-9.131485,-0.24899697
6.017921,4.6917953,0.008823755,0.03681831,0.103530884,2.7006595,-9.131485,-0.24899697
6.017876,4.6917896,0.0077584907,0.020839343,0.09287824,2.7246015,-9.14585,-0.22026655
6.0178313,4.691784,0.0077584907,0.020839343,0.09287824,2.7246015,-9.14585,-0.22026655
6.017774,4.6918097,0.005627962,0.0048603755,0.08009506,2.705448,-9.083601,-0.15801731
6.0177164,4.691835,0.001366904,-0.008988062,0.0641161,2.705448,-9.093178,-0.11971009
6.0176535,4.6918736,0.001366904,-0.008988062,0.0641161,2.705448,-9.093178,-0.11971009
6.0175877,4.691913,0.001366904,-0.008988062,0.0641161,2.705448,-9.093178,-0.11971009
6.0175004,4.6919055,-0.0018288894,-0.0228365,0.05133292,2.6001031,-9.121908,-0.18674773
6.0174117,4.6918983,-0.0018288894,-0.0228365,0.05133292,2.6001031,-9.121908,-0.18674773
6.017391,4.6919756,-0.0039594183,-0.035619672,0.042810805,2.5761611,-9.054871,-0.038307227
6.0173707,4.692053,-0.0039594183,-0.035619672,0.042810805,2.5761611,-9.054871,-0.038307227
6.017362,4.69213,-0.0050246827,-0.04946811,0.035353955,2.5617957,-9.121908,-0.02873042
6.017353,4.6922083,-0.0050246827,-0.04946811,0.035353955,2.5617957,-9.121908,-0.02873042
6.017346,4.692284,-0.006089947,-0.062251285,0.02896237,2.5234885,-9.093178,-0.06703765
6.0173383,4.6923594,-0.006089947,-0.062251285,0.02896237,2.5234885,-9.093178,-0.06703765
6.017369,4.6924343,-0.0071552116,-0.07396919,0.02896237,2.4899697,-9.14585,-0.06703765
6.017399,4.6925097,-0.0071552116,-0.07396919,0.02896237,2.4899697,-9.14585,-0.06703765
6.0174274,4.692584,-0.0050246827,-0.08355658,0.032158162,2.4851813,-9.102755,-0.04309563
6.017456,4.6926584,-0.0050246827,-0.08355658,0.032158162,2.4851813,-9.102755,-0.04309563
6.0174775,4.6927323,-0.0028941538,-0.08994816,0.03641922,2.4995465,-9.059659,0.01436521
6.017499,4.6928067,-0.0028941538,-0.08994816,0.03641922,2.4995465,-9.059659,0.01436521
6.0175333,4.692881,-0.0018288894,-0.093143955,0.04387607,2.4899697,-9.050082,0.062249243
6.0175695,4.69296,-0.0018288894,-0.093143955,0.04387607,2.4899697,-9.050082,0.062249243
6.0176315,4.693037,0.00030163955,-0.09420922,0.052398186,2.4516625,-9.074024,0.038307227
6.017691,4.6931124,0.00030163955,-0.09420922,0.052398186,2.4516625,-9.074024,0.038307227
6.017786,4.6931906,0.003497433,-0.09420922,0.059855036,2.3894134,-9.093178,0.062249243
6.0179358,4.693318,0.0045626974,-0.09420922,0.06944242,2.408567,-9.11712,0.10534488
6.017973,4.69335,0.0045626974,-0.09420922,0.06944242,2.408567,-9.11712,0.10534488
6.0180664,4.693429,0.0045626974,-0.09420922,0.06944242,2.408567,-9.11712,0.10534488
6.01817,4.6935263,0.008823755,-0.09420922,0.07796454,2.4516625,-9.097966,-0.01436521
6.018245,4.6935983,0.008823755,-0.09420922,0.07796454,2.4516625,-9.097966,-0.01436521
6.0183544,4.693686,0.012019549,-0.093143955,0.08648665,2.4468741,-9.141062,-0.02873042
6.0184636,4.693774,0.012019549,-0.093143955,0.08648665,2.4468741,-9.141062,-0.02873042
6.0185494,4.693864,0.013084813,-0.095274486,0.09287824,2.504335,-9.174581,0.019153614
6.0186343,4.693953,0.013084813,-0.095274486,0.09287824,2.504335,-9.174581,0.019153614
6.0187025,4.694043,0.016280606,-0.09953554,0.09607403,2.4995465,-9.14585,-0.10055647
6.0187697,4.694133,0.016280606,-0.09953554,0.09607403,2.4995465,-9.14585,-0.10055647
6.0187826,4.694202,0.017345872,-0.105927125,0.09820456,2.5570073,-9.136273,-0.095768064
6.018795,4.69427,0.017345872,-0.105927125,0.09820456,2.5713725,-9.11712,-0.062249243
6.018818,4.694345,0.020541664,-0.11231872,0.09926982,2.5713725,-9.11712,-0.062249243
6.01884,4.69442,0.020541664,-0.11231872,0.09926982,2.5713725,-9.11712,-0.062249243
6.0188065,4.694434,0.022672193,-0.121906094,0.10033509,2.719813,-9.074024,-0.11971009
6.0187736,4.694448,0.022672193,-0.121906094,0.10033509,2.719813,-9.074024,-0.11971009
6.018747,4.6944747,0.023737457,-0.13149348,0.10033509,2.7485435,-9.107543,-0.08619126
6.01872,4.694501,0.023737457,-0.13149348,0.10033509,2.7485435,-9.107543,-0.08619126
6.0186834,4.6945004,0.024802722,-0.14214613,0.09926982,2.8443117,-9.069236,-0.12928689
6.0186467,4.6945,0.024802722,-0.14214613,0.09926982,2.8443117,-9.069236,-0.12928689
6.018607,4.6944976,0.024802722,-0.15066823,0.09607403,2.8874073,-9.074024,-0.12449849
6.018567,4.694495,0.024802722,-0.15066823,0.09607403,2.8874073,-9.074024,-0.12449849
6.0185223,4.6944804,0.022672193,-0.15599456,0.09181297,2.896984,-9.045294,-0.14844051
6.018477,4.6944656,0.022672193,-0.15599456,0.09181297,2.896984,-9.045294,-0.14844051
6.0184307,4.694455,0.02160693,-0.15919036,0.089682445,2.9400797,-9.064447,-0.12928689
6.0183845,4.694444,0.02160693,-0.15919036,0.089682445,2.9400797,-9.064447,-0.12928689
6.018345,4.6944547,0.019476399,-0.16132088,0.088617176,2.8874073,-9.107543,-0.062249243
6.0183053,4.6944647,0.019476399,-0.16132088,0.088617176,2.8107927,-9.102755,-0.08619126
6.018264,4.6944704,0.017345872,-0.16238615,0.087551914,2.8107927,-9.102755,-0.08619126
6.018222,4.694476,0.017345872,-0.16238615,0.087551914,2.8107927,-9.102755,-0.08619126
6.0181894,4.694489,0.015215342,-0.15919036,0.09287824,2.815581,-9.160215,-0.06703765
6.018158,4.694502,0.015215342,-0.15919036,0.09287824,2.815581,-9.160215,-0.06703765
6.018152,4.6945386,0.013084813,-0.15599456,0.09820456,2.719813,-9.179369,-0.033518825
6.0181465,4.6945753,0.013084813,-0.15599456,0.09820456,2.6384103,-9.23683,0.009576807
6.018194,4.69464,0.015215342,-0.15066823,0.1088572,2.6384103,-9.23683,0.009576807
6.0182414,4.694706,0.015215342,-0.15066823,0.1088572,2.6384103,-9.23683,0.009576807
6.0183363,4.694786,0.018411135,-0.14214613,0.12164038,2.5905263,-9.394848,-0.033518825
6.0184317,4.694867,0.018411135,-0.14214613,0.12164038,2.5905263,-9.394848,-0.033518825
6.0185986,4.694955,0.023737457,-0.13468927,0.13335828,2.5139117,-9.485827,0.0047884034
6.018764,4.6950417,0.030129045,-0.12829769,0.1450762,2.585738,-9.56723,-0.038307227
6.018914,4.69514,0.030129045,-0.12829769,0.1450762,2.585738,-9.56723,-0.038307227
6.019065,4.695239,0.030129045,-0.12829769,0.1450762,2.585738,-9.56723,-0.038307227
6.0190897,4.6952343,0.03865116,-0.122971356,0.16212043,2.6384103,-9.615114,-0.16759412
6.0191145,4.6952305,0.03865116,-0.122971356,0.16212043,2.6384103,-9.615114,-0.16759412
6.019169,4.6952972,0.049303804,-0.122971356,0.17383833,2.7246015,-9.634268,-0.11971009
6.0192223,4.695363,0.049303804,-0.122971356,0.17383833,2.7246015,-9.634268,-0.11971009
6.0192657,4.6953754,0.058891185,-0.124036625,0.18022992,2.944868,-9.691729,-0.19632454
6.0193095,4.695387,0.058891185,-0.124036625,0.18022992,2.944868,-9.691729,-0.19632454
6.0193696,4.6953707,0.06954383,-0.12936294,0.18022992,3.0550013,-9.65821,-0.33997664
6.019429,4.6953545,0.06954383,-0.12936294,0.18022992,3.0550013,-9.65821,-0.33997664
6.019496,4.6953344,0.07806595,-0.13788506,0.1780994,3.1316159,-9.610326,-0.4357447
6.0195622,4.6953135,0.07806595,-0.13788506,0.1780994,3.1316159,-9.610326,-0.4357447
6.0196204,4.695299,0.08445753,-0.14534192,0.17064254,3.1747115,-9.557653,-0.45489833
6.0196786,4.6952844,0.08445753,-0.14534192,0.17064254,3.1747115,-9.557653,-0.45489833
6.019717,4.695284,0.091914386,-0.15279876,0.15892464,3.2321723,-9.495404,-0.4261679
6.019756,4.6952834,0.091914386,-0.15279876,0.15892464,3.2321723,-9.495404,-0.4261679
6.019769,4.695304,0.09404491,-0.15919036,0.1450762,3.3039982,-9.457097,-0.32561144
6.0197825,4.695324,0.09404491,-0.15919036,0.1450762,3.3039982,-9.457097,-0.32561144
6.0197763,4.6953526,0.09617544,-0.1634514,0.12803197,3.2848446,-9.461885,-0.2825158
6.01977,4.6953807,0.09617544,-0.1634514,0.12803197,3.2848446,-9.461885,-0.2825158
6.0197496,4.6954336,0.09830597,-0.16451667,0.11631405,3.3327289,-9.375694,-0.16759412
6.0197287,4.695487,0.09830597,-0.16451667,0.11631405,3.3327289,-9.375694,-0.16759412
6.019698,4.695542,0.09937123,-0.1634514,0.106726676,3.3183637,-9.361329,-0.16280572
6.019668,4.695596,0.09937123,-0.1634514,0.106726676,3.3183637,-9.361329,-0.16280572
6.0196276,4.6956625,0.1004365,-0.15919036,0.09607403,3.2130187,-9.332599,-0.11971009
6.019587,4.6957283,0.1004365,-0.15919036,0.09607403,3.2130187,-9.332599,-0.11971009
6.01954,4.695798,0.10363229,-0.15386403,0.089682445,3.074155,-9.370906,-0.12928689
6.0194926,4.6958675,0.10363229,-0.15386403,0.089682445,3.074155,-9.370906,-0.12928689
6.019452,4.6959558,0.104697555,-0.14853771,0.09287824,2.992752,-9.390059,-0.08140286
6.019412,4.696044,0.104697555,-0.14853771,0.09287824,2.992752,-9.390059,-0.08140286
6.0193853,4.6961503,0.10789335,-0.14214613,0.10140035,2.906561,-9.437943,-0.062249243
6.019358,4.6962576,0.10789335,-0.14214613,0.10140035,2.906561,-9.437943,-0.062249243
6.019371,4.696401,0.11108914,-0.1368198,0.118444584,2.8874073,-9.399636,0.038307227
6.0193825,4.696534,0.11108914,-0.1368198,0.118444584,2.8874073,-9.399636,0.038307227
6.019437,4.6966963,0.11748073,-0.13042821,0.13974987,2.7629087,-9.428367,0.033518825
6.01949,4.6968546,0.11748073,-0.13042821,0.13974987,2.7629087,-9.428367,0.033518825
6.019522,4.69698,0.12387232,-0.122971356,0.16212043,2.7150247,-9.375694,-0.10055647
6.019554,4.697104,0.12387232,-0.122971356,0.16212043,2.7150247,-9.375694,-0.10055647
6.0196195,4.6972485,0.13026391,-0.11338398,0.18981731,2.705448,-9.361329,-0.08619126
6.0196843,4.6973915,0.13026391,-0.11338398,0.18981731,2.705448,-9.361329,-0.08619126
6.019836,4.6975884,0.13559023,-0.10166607,0.22177523,2.7006595,-9.394848,0.047884032
6.0199857,4.697783,0.13559023,-0.10166607,0.22177523,2.7006595,-9.394848,0.047884032
6.0201974,4.6979985,0.14304708,-0.09207869,0.25373316,2.7629087,-9.509769,0.2777274
6.020408,4.698213,0.14304708,-0.09207869,0.25373316,2.7629087,-9.509769,0.2777274
6.020671,4.698446,0.15369973,-0.08142605,0.2888869,2.705448,-9.519346,0.35434186
6.020932,4.6986775,0.15369973,-0.08142605,0.2888869,2.705448,-9.519346,0.35434186
6.021261,4.6989293,0.16861342,-0.07183866,0.32297537,2.5330653,-9.548077,0.4309563
6.0215883,4.69918,0.16861342,-0.07183866,0.32297537,2.5330653,-9.548077,0.4309563
6.022005,4.699443,0.1845924,-0.06331655,0.36025962,2.2122424,-9.739613,0.50757074
6.022419,4.6997046,0.1845924,-0.06331655,0.36025962,2.2122424,-9.739613,0.50757074
6.0229177,4.699966,0.20057136,-0.0558597,0.406066,1.8483237,-9.892841,0.47405192
6.023416,4.7002277,0.20057136,-0.0558597,0.406066,1.8483237,-9.892841,0.47405192
6.0239744,4.700507,0.22081138,-0.0558597,0.46359026,1.6232687,-10.117896,0.63206923
6.0245314,4.7007856,0.22081138,-0.0558597,0.46359026,1.6232687,-10.117896,0.63206923
6.025169,4.701085,0.24744299,-0.06544708,0.5338977,1.436521,-10.218452,0.6655881
6.025804,4.7013836,0.24744299,-0.06544708,0.5338977,1.436521,-10.218452,0.6655881
6.026522,4.7017136,0.2825967,-0.08036078,0.6159231,1.2880806,-10.381259,0.7757214
6.0272355,4.7020416,0.2825967,-0.08036078,0.6159231,1.2880806,-10.381259,0.7757214
6.0280547,4.7024093,0.32733783,-0.10273133,0.7117969,1.13964,-10.462662,0.82360536
6.028869,4.7027755,0.32733783,-0.10273133,0.7117969,1.13964,-10.462662,0.82360536
6.0297966,4.703185,0.3816663,-0.13468927,0.81938857,1.1061212,-10.500969,0.7661445
6.0307236,4.7035947,0.3816663,-0.13468927,0.81938857,1.1061212,-10.500969,0.7661445
6.0317736,4.704055,0.44345164,-0.17090826,0.937633,1.2066777,-10.491392,0.6512229
6.0328197,4.704513,0.44345164,-0.17090826,0.937633,1.2066777,-10.491392,0.6512229
6.034001,4.7050295,0.50949806,-0.20606199,1.0633341,1.283292,-10.481815,0.5650316
6.035177,4.705544,0.50949806,-0.20606199,1.0633341,1.283292,-10.481815,0.5650316
6.0364914,4.706118,0.57874024,-0.24015045,1.195427,1.3359646,-10.443508,0.49320555
6.0378,4.7066894,0.57874024,-0.24015045,1.195427,1.3359646,-10.443508,0.49320555
6.039236,4.707337,0.64691716,-0.27210838,1.328585,1.5562311,-10.409989,0.5650316
6.0406694,4.707983,0.64691716,-0.27210838,1.328585,1.5562311,-10.409989,0.5650316
6.042218,4.708701,0.71189827,-0.29980525,1.4628084,1.7429788,-10.357317,0.6655881
6.043763,4.709418,0.71189827,-0.29980525,1.4628084,1.7429788,-10.357317,0.6655881
6.0454235,4.7102056,0.7747489,-0.32111055,1.5949011,1.8866309,-10.390836,0.8619126
6.0470757,4.710991,0.7747489,-0.32111055,1.5949011,1.8866309,-10.390836,0.8619126
6.0488663,4.7118406,0.83653426,-0.33176318,1.7259287,1.8387469,-10.362105,0.92416185
6.050645,4.712685,0.83653426,-0.33176318,1.7259287,1.8387469,-10.362105,0.92416185
6.052573,4.7135916,0.8983196,-0.33389372,1.8558909,1.6663644,-10.362105,0.93373865
6.054448,4.7144747,0.8983196,-0.33389372,1.8558909,1.6663644,-10.362105,0.93373865
6.056524,4.715439,0.96010494,-0.3285674,1.9879837,1.4221559,-10.500969,0.94810385
6.058642,4.716424,0.96010494,-0.3285674,1.9879837,1.4221559,-10.500969,0.94810385
6.060861,4.717444,1.020825,-0.3168495,2.1275334,1.1061212,-10.625467,1.0486604
6.0630617,4.7184567,1.020825,-0.3168495,2.1275334,1.1061212,-10.625467,1.0486604
6.0654383,4.719536,1.0815451,-0.30513158,2.2756052,0.7757214,-10.831368,1.1300632
6.0678196,4.7206173,1.0815451,-0.30513158,2.2756052,0.7757214,-10.831368,1.1300632
6.0728893,4.722886,1.1443957,-0.29128313,2.4332643,0.37828386,-11.032481,1.1587936
6.0728893,4.722886,1.1443957,-0.29128313,2.4332643,0.37828386,-11.032481,1.1587936
6.075634,4.7241054,1.2104421,-0.27849996,2.6026413,0.08140286,-11.204864,1.292869
6.0793505,4.7257347,1.2839453,-0.2657168,2.7848015,-0.18195933,-11.319786,1.1827357
6.082012,4.726903,1.2839453,-0.2657168,2.7848015,-0.18195933,-11.319786,1.1827357
6.0844502,4.7279725,1.2839453,-0.2657168,2.7848015,-0.18195933,-11.319786,1.1827357
6.0874653,4.729291,1.3627748,-0.25719467,2.9786797,-0.36391866,-11.405977,1.2785037
6.0905137,4.7306247,1.3627748,-0.25719467,2.9786797,-0.36391866,-11.405977,1.2785037
6.0937533,4.7320333,1.4469308,-0.2561294,3.1842756,-0.50757074,-11.496957,1.2737153
6.097042,4.733463,1.4469308,-0.2561294,3.1842756,-0.50757074,-11.496957,1.2737153
6.100547,4.734975,1.5332172,-0.262521,3.3994591,-0.59376204,-11.563994,1.2497733
6.1040654,4.736493,1.5332172,-0.262521,3.3994591,-0.59376204,-11.563994,1.2497733
6.1077995,4.738093,1.6226994,-0.27210838,3.6210341,-0.641646,-11.559206,1.2018893
6.111537,4.7396946,1.6226994,-0.27210838,3.6210341,-0.641646,-11.559206,1.2018893
6.115492,4.741383,1.7143122,-0.28276104,3.8479354,-0.6560113,-11.60709,1.2401965
6.11945,4.7430735,1.7143122,-0.28276104,3.8479354,-0.6560113,-11.60709,1.2401965
6.1236315,4.744849,1.8048596,-0.2955442,4.0812283,-0.78050977,-11.669339,1.3215994
6.1278286,4.7466326,1.8048596,-0.2955442,4.0812283,-0.78050977,-11.669339,1.3215994
6.1322536,4.7484965,1.8911461,-0.31152317,4.3187823,-0.842759,-11.760319,1.3742718
6.1366773,4.750361,1.8911461,-0.31152317,4.3187823,-0.842759,-11.760319,1.3742718
6.146131,4.7543216,1.9774325,-0.33069792,4.562728,-0.80924016,-11.880029,1.5131354
6.146131,4.7543216,1.9774325,-0.33069792,4.562728,-0.80924016,-11.880029,1.5131354
6.151138,4.7564077,2.0669148,-0.35306847,4.8109345,-0.7469909,-11.947066,1.5993267
6.1576486,4.7591243,2.0669148,-0.35306847,4.8109345,-0.7469909,-11.947066,1.5993267
6.1608763,4.7604628,2.1574621,-0.3765043,5.0602064,-0.6560113,-12.061988,1.6136919
6.1662498,4.7626934,2.1574621,-0.3765043,5.0602064,-0.6560113,-12.061988,1.6136919
6.1715813,4.764895,2.2480097,-0.4010054,5.308413,-0.62728083,-12.071565,1.6280571
6.181303,4.768918,2.2480097,-0.4010054,5.308413,-0.62728083,-12.071565,1.6280571
6.18264,4.7694664,2.338557,-0.42657173,5.5608807,-0.58418524,-12.052411,1.532289
6.1877556,4.7715693,2.338557,-0.42657173,5.5608807,-0.58418524,-12.052411,1.532289
6.193777,4.7740164,2.4259088,-0.4574644,5.815479,-0.545878,-12.052411,1.3551182
6.1995673,4.7763734,2.4259088,-0.4574644,5.815479,-0.545878,-12.052411,1.3551182
6.2058606,4.7789073,2.512195,-0.48942232,6.0690117,-0.51235914,-11.9853735,1.1971009
6.2119617,4.7813683,2.512195,-0.48942232,6.0690117,-0.51235914,-11.9853735,1.1971009
6.2183604,4.783909,2.595286,-0.5235108,6.326806,-0.45489833,-11.894394,0.9768343
6.224783,4.786463,2.595286,-0.5235108,6.326806,-0.45489833,-11.894394,0.9768343
6.2314625,4.7890697,2.6751807,-0.56399083,6.588861,-0.35434186,-11.793838,0.7613561
6.2380986,4.7916617,2.6751807,-0.56399083,6.588861,-0.35434186,-11.793838,0.7613561
6.245081,4.7943406,2.7497492,-0.6066014,6.851981,-0.14844051,-11.60709,0.61291564
6.2518992,4.7969594,2.7497492,-0.6066014,6.851981,-0.14844051,-11.60709,0.61291564
6.2589946,4.7996554,2.8200567,-0.64814675,7.1119056,-0.10534488,-11.501745,0.4165911
6.266059,4.8023496,2.8200567,-0.64814675,7.1119056,-0.10534488,-11.501745,0.4165911
6.2733827,4.8051186,2.881842,-0.68649626,7.367569,-0.17717093,-11.27669,0.31603462
6.280691,4.8078947,2.881842,-0.68649626,7.367569,-0.17717093,-11.27669,0.31603462
0.0050447644,4.8107257,2.930844,-0.72271526,7.624298,-0.18674773,-11.113884,0.31603462
0.012575636,4.813569,2.930844,-0.72271526,7.624298,-0.18674773,-11.113884,0.31603462
0.020336699,4.8164625,2.9681284,-0.75573844,7.8842225,-0.11492168,-11.018116,0.49799395
0.036099594,4.8223443,2.9968905,-0.78343534,8.145212,-0.062249243,-10.994174,0.6703765
0.036099594,4.8223443,2.9968905,-0.78343534,8.145212,-0.062249243,-10.994174,0.6703765
0.0457184,4.825942,2.9968905,-0.78343534,8.145212,-0.062249243,-10.994174,0.6703765
0.052453388,4.8284163,3.0213916,-0.80367535,8.401941,-0.22026655,-10.989386,0.7278373
0.06036489,4.8313437,3.0213916,-0.80367535,8.401941,-0.22026655,-10.989386,0.7278373
0.06879255,4.8343964,3.042697,-0.8175238,8.661865,-0.4165911,-11.075577,0.6895301
0.07723781,4.8374815,3.042697,-0.8175238,8.661865,-0.4165911,-11.075577,0.6895301
0.08595614,4.840602,3.0597413,-0.8260459,8.929247,-0.56982,-11.247959,0.5602432
0.0946421,4.8437366,3.0597413,-0.8260459,8.929247,-0.56982,-11.247959,0.5602432
0.103882864,4.8470125,3.07572,-0.8292417,9.201955,-0.6703765,-11.36767,0.46926352
0.11258959,4.8501263,3.07572,-0.8292417,9.201955,-0.6703765,-11.36767,0.46926352
0.121833116,4.853372,3.0895686,-0.8271112,9.483185,-0.7757214,-11.477803,0.37349546
0.1310817,4.8566494,3.0895686,-0.8271112,9.483185,-0.7757214,-11.477803,0.37349546
0.1405285,4.859944,3.1023517,-0.8196543,9.771871,-0.79487497,-11.410766,0.4213795
0.14998135,4.863272,3.1023517,-0.8196543,9.771871,-0.79487497,-11.410766,0.4213795
0.15975194,4.866666,3.1162002,-0.80367535,10.058427,-0.7661445,-11.252748,0.46926352
0.16949052,4.870083,3.1162002,-0.80367535,10.058427,-0.7661445,-11.252748,0.46926352
0.17948928,4.873551,3.1268528,-0.77917427,10.341787,-0.7182605,-10.884041,0.6655881
0.18947625,4.877052,3.1268528,-0.77917427,10.341787,-0.7182605,-10.884041,0.6655881
0.1997191,4.880599,3.1343098,-0.74295527,10.6112995,-0.6751649,-10.486604,0.7134721
0.20997109,4.8841887,3.1343098,-0.74295527,10.6112995,-0.6751649,-10.486604,0.7134721
0.22044602,4.887812,3.1343098,-0.69501835,10.866963,-0.6943185,-10.0269165,0.82360536
0.23090985,4.8914733,3.1343098,-0.69501835,10.866963,-0.6943185,-10.0269165,0.82360536
0.2415879,4.89516,3.1225917,-0.6428204,11.101321,-0.6847417,-9.576807,0.8810662
0.25227642,4.898895,3.1225917,-0.6428204,11.101321,-0.6847417,-9.576807,0.8810662
0.26316002,4.9026365,3.0980906,-0.5831656,11.309048,-0.8571242,-9.361329,0.92895025
0.2740323,4.9064217,3.0980906,-0.5831656,11.309048,-0.8571242,-9.361329,0.92895025
0.28509134,4.910206,3.058676,-0.52244556,11.498665,-0.9959879,-9.303867,0.9911995
0.29613882,4.914036,3.058676,-0.52244556,11.498665,-0.9959879,-9.303867,0.9911995
0.30735835,4.9178514,3.0096738,-0.46385598,11.668042,-1.1252748,-9.255983,0.91937345
0.31856573,4.9217157,3.0096738,-0.46385598,11.668042,-1.1252748,-9.255983,0.91937345
0.33134785,4.9260516,2.950019,-0.40846223,11.816113,-1.163582,-9.23683,0.91458505
0.34129253,4.929475,2.950019,-0.40846223,11.816113,-1.163582,-9.23683,0.91458505
0.35271105,4.933324,2.8839724,-0.34987268,11.946075,-1.2976574,-9.203311,0.7661445
0.3643916,4.937323,2.8839724,-0.34987268,11.946075,-1.2976574,-9.203311,0.7661445
0.37590128,4.941188,2.8179262,-0.28915262,12.06219,-1.4748282,-9.074024,0.49799395
0.3874436,4.9451265,2.8179262,-0.28915262,12.06219,-1.4748282,-9.074024,0.49799395
0.39908388,4.949029,2.7497492,-0.22523674,12.16126,-1.6136919,-8.892065,0.25857377
0.41077995,4.953017,2.7497492,-0.22523674,12.16126,-1.6136919,-8.892065,0.25857377
0.4225503,4.9569607,2.6783764,-0.15599456,12.243284,-1.7286136,-8.63828,-0.11971009
0.43430597,4.9609694,2.6783764,-0.15599456,12.243284,-1.7286136,-8.63828,-0.11971009
0.44611856,4.9649315,2.6048732,-0.08249131,12.309331,-1.7908629,-8.37013,-0.50278234
0.45797548,4.968982,2.6048732,-0.08249131,12.309331,-1.7908629,-8.37013,-0.50278234
0.4698433,4.97297,2.522848,-0.00366174,12.356203,-1.8052281,-8.145074,-0.7661445
0.48170802,4.9770336,2.522848,-0.00366174,12.356203,-1.8052281,-8.145074,-0.7661445
0.49360153,4.981037,2.4301698,0.08049415,12.377508,-1.7381904,-7.9104424,-0.81881696
0.5054682,4.9851117,2.4301698,0.08049415,12.377508,-1.7381904,-7.9104424,-0.81881696
0.51734155,4.989107,2.325774,0.17210689,12.372182,-1.6759412,-7.7667904,-0.92895025
0.5292474,4.9931965,2.325774,0.17210689,12.372182,-1.6759412,-7.7667904,-0.92895025
0.54107857,4.997176,2.2085948,0.26265436,12.335962,-1.6472107,-7.6949644,-0.79008657
0.5529067,5.00124,2.2085948,0.26265436,12.335962,-1.6472107,-7.6949644,-0.79008657
0.5646722,5.0051947,2.080763,0.35107133,12.26459,-1.5514427,-7.747637,-0.6655881
0.5764233,5.009232,2.080763,0.35107133,12.26459,-1.5514427,-7.747637,-0.6655881
0.5880797,5.0131483,1.943344,0.438423,12.16339,-1.5179238,-8.015787,-0.33039984
0.59972245,5.017149,1.943344,0.438423,12.16339,-1.5179238,-8.015787,-0.33039984
0.61121064,5.021005,1.8037944,0.5204484,12.029166,-1.532289,-8.39886,-0.24899697
0.6227545,5.0249705,1.8037944,0.5204484,12.029166,-1.532289,-8.39886,-0.24899697
0.63412654,5.028777,1.66531,0.603539,11.869377,-1.6519991,-8.834604,-0.34955344
0.64549714,5.0326743,1.66531,0.603539,11.869377,-1.6519991,-8.834604,-0.34955344
0.6567056,5.036418,1.5342824,0.6844991,11.691478,-1.7142484,-9.222465,-0.6655881
0.66773355,5.0401917,1.5342824,0.6844991,11.691478,-1.7142484,-9.222465,-0.6655881
0.67876554,5.0438724,1.411777,0.76758975,11.49973,-1.6328455,-9.533711,-0.9816227
0.6899616,5.047702,1.411777,0.76758975,11.49973,-1.6328455,-9.533711,-0.9816227
0.7007692,5.0513077,1.3020548,0.8581372,11.287743,-1.5514427,-9.744401,-1.2497733
0.7116302,5.055023,1.3020548,0.8581372,11.287743,-1.5514427,-9.744401,-1.2497733
0.72226083,5.058566,1.2051158,0.96146786,11.053384,-1.3934253,-9.706094,-1.3024458
0.7328701,5.062192,1.2051158,0.96146786,11.053384,-1.3934253,-9.706094,-1.3024458
0.743266,5.0656443,1.1188294,1.0754511,10.786003,-1.4077905,-9.380483,-1.115698
0.7536518,5.0691805,1.1188294,1.0754511,10.786003,-1.4077905,-9.380483,-1.115698
0.76379323,5.0725136,1.0389345,1.1990218,10.487729,-1.6807296,-8.925584,-0.9528923
0.77392566,5.0759287,1.0389345,1.1990218,10.487729,-1.6807296,-8.925584,-0.9528923
0.7837746,5.0791163,0.9590396,1.324723,10.159627,-2.006341,-8.39886,-0.46926352
0.7936349,5.082389,0.9590396,1.324723,10.159627,-2.006341,-8.39886,-0.46926352
0.80318147,5.0854173,0.8748838,1.4419022,9.802764,-2.3989902,-7.953538,0.12928689
0.812721,5.0885196,0.8748838,1.4419022,9.802764,-2.3989902,-7.953538,0.12928689
0.821902,5.0913506,0.78220576,1.5431023,9.418203,-3.0023289,-7.513005,0.6464345
0.8311225,5.0942655,0.78220576,1.5431023,9.418203,-3.0023289,-7.513005,0.6464345
0.8399554,5.096918,0.6884625,1.618736,9.013403,-3.6870706,-7.3789296,1.2737153
0.8488006,5.099641,0.6884625,1.618736,9.013403,-3.6870706,-7.3789296,1.2737153
0.85725766,5.1021204,0.5957845,1.6613466,8.596885,-4.414908,-7.326257,1.7381904
0.86571026,5.104659,0.5957845,1.6613466,8.596885,-4.414908,-7.326257,1.7381904
0.8737746,5.106989,0.51162857,1.6688035,8.181431,-5.281609,-7.4363904,2.1547816
0.8818352,5.109373,0.51162857,1.6688035,8.181431,-5.281609,-7.4363904,2.1547816
0.8894881,5.111585,0.44345164,1.6421719,7.780892,-6.0477533,-7.680599,2.4516625
0.89718384,5.113861,0.44345164,1.6421719,7.780892,-6.0477533,-7.680599,2.4516625
0.904485,5.116013,0.3944495,1.5793213,7.406984,-6.967127,-7.9870567,2.5953147
0.9117833,5.1182127,0.3944495,1.5793213,7.406984,-6.967127,-7.9870567,2.5953147
0.9187322,5.120358,0.36675262,1.485578,7.0682297,-7.6853876,-8.327033,2.633622
0.92567813,5.12255,0.36675262,1.485578,7.0682297,-7.6853876,-8.327033,2.633622
0.93230534,5.1247663,0.36249155,1.3588115,6.774217,-8.221688,-8.499416,2.566584
0.93892884,5.1270304,0.36249155,1.3588115,6.774217,-8.221688,-8.499416,2.566584
0.9452602,5.1294026,0.37740526,1.2000871,6.5228143,-8.523358,-8.465898,2.4516625
0.9515996,5.13183,0.37740526,1.2000871,6.5228143,-8.523358,-8.465898,2.4516625
0.9576389,5.134422,0.40936318,1.0179269,6.311892,-8.576031,-8.384495,2.231396
0.96370906,5.137083,0.40936318,1.0179269,6.311892,-8.576031,-8.384495,2.231396
0.96951854,5.1399837,0.4562348,0.825114,6.142515,-8.418014,-8.0684595,2.1404164
0.97533953,5.142951,0.4562348,0.825114,6.142515,-8.418014,-8.0684595,2.1404164
0.98092854,5.146216,0.5148244,0.6280401,6.0072265,-8.298303,-7.61835,2.2266076
0.98654985,5.149568,0.5148244,0.6280401,6.0072265,-8.298303,-7.61835,2.2266076
0.99193513,5.1532574,0.58406657,0.43309668,5.904961,-8.1642275,-7.0724716,2.4516625
0.9973182,5.1570187,0.58406657,0.43309668,5.904961,-8.1642275,-7.0724716,2.4516625
1.002573,5.161205,0.65543926,0.24028382,5.829327,-7.9343843,-6.4882865,2.5761611
1.0081152,5.1657104,0.65543926,0.24028382,5.829327,-7.9343843,-6.4882865,2.5761611
1.0137603,5.1709347,0.7225509,0.057058334,5.7781944,-7.541735,-5.803545,2.873042
1.0179613,5.1748953,0.7225509,0.057058334,5.7781944,-7.541735,-5.803545,2.873042
1.0229478,5.180119,0.77900994,-0.110188186,5.750498,-7.264008,-5.209783,3.2273839
1.0280224,5.185544,0.77900994,-0.110188186,5.750498,-7.264008,-5.209783,3.2273839
1.0328642,5.191185,0.8237511,-0.25825995,5.741976,-6.9527617,-4.6160207,3.3566709
1.0377023,5.1969385,0.8237511,-0.25825995,5.741976,-6.694188,-4.0222588,3.5290532
1.0425386,5.203105,0.855709,-0.3797001,5.743041,-6.694188,-4.0222588,3.5290532
1.047329,5.209347,0.855709,-0.3797001,5.743041,-6.694188,-4.0222588,3.5290532
1.0521138,5.2159452,0.8770143,-0.4755739,5.755824,-6.5122285,-3.53863,3.5242648
1.0568697,5.222653,0.8770143,-0.4755739,5.755824,-6.5122285,-3.53863,3.5242648
1.061613,5.2296505,0.8887322,-0.5448161,5.7813907,-6.4260373,-3.083732,3.3662477
1.0663016,5.2367306,0.8887322,-0.5448161,5.7813907,-6.4260373,-3.083732,3.3662477
1.0710233,5.24412,0.8940585,-0.592753,5.81974,-6.253655,-2.5761611,3.1316159
1.0756884,5.251599,0.8940585,-0.592753,5.81974,-6.253655,-2.5761611,3.1316159
1.0804121,5.259379,0.8951238,-0.6225804,5.868742,-6.114791,-2.0159178,2.8395233
1.085091,5.2672815,0.8951238,-0.6225804,5.868742,-6.114791,-2.0159178,2.8395233
1.0898125,5.2754254,0.8908627,-0.6353636,5.9283967,-5.7987566,-1.4891934,2.60968
1.0944772,5.2836857,0.8908627,-0.6353636,5.9283967,-5.7987566,-1.4891934,2.60968
1.0992111,5.292226,0.88340586,-0.6353636,5.992313,-5.415684,-0.9911995,2.4612393
1.1038818,5.300883,0.88340586,-0.6353636,5.992313,-5.415684,-0.9911995,2.4612393
1.1086205,5.309791,0.86955744,-0.61831933,6.0562286,-5.0517654,-0.34955344,2.3989902
1.1086205,5.309791,0.86955744,-0.61831933,6.0562286,-5.0517654,-0.34955344,2.3989902
1.1086205,5.309791,0.86955744,-0.61831933,6.0562286,-5.0517654,-0.34955344,2.3989902
1.1264398,5.3442855,0.8237511,-0.540555,6.149972,-4.213795,0.9624691,2.2170308
1.1287384,5.349016,0.8237511,-0.540555,6.149972,-4.213795,0.9624691,2.2170308
1.1325488,5.3570137,0.8237511,-0.540555,6.149972,-4.213795,0.9624691,2.2170308
1.1372366,5.3668656,0.78646684,-0.4755739,6.167016,-3.9360676,1.6424223,2.1930888
1.1420767,5.377357,0.78646684,-0.4755739,6.167016,-3.9360676,1.6424223,2.1930888
1.1464758,5.3869095,0.7385299,-0.39887485,6.1595592,-3.6870706,2.327164,2.2122424
1.1509506,5.39692,0.7385299,-0.39887485,6.1595592,-3.6870706,2.327164,2.2122424
1.1555645,5.407218,0.6820709,-0.30832738,6.129732,-3.53863,2.920926,2.2697031
1.1600336,5.417513,0.6820709,-0.30832738,6.129732,-3.53863,2.920926,2.2697031
1.1645573,5.4278774,0.6160245,-0.21032305,6.075403,-3.3806129,3.5242648,2.207454
1.1690903,5.4386024,0.6160245,-0.21032305,6.075403,-3.3806129,3.5242648,2.207454
1.1735322,5.4490333,0.54039073,-0.10486186,5.9944434,-3.3423057,3.9504328,2.1547816
1.1779306,5.4596987,0.54039073,-0.10486186,5.9944434,-3.3423057,3.9504328,2.1547816
1.1828842,5.471594,0.45943063,0.010186698,5.8889823,-3.514688,4.232949,2.0925324
1.186622,5.480865,0.45943063,0.010186698,5.8889823,-3.514688,4.232949,2.0925324
1.1909217,5.4913263,0.37207893,0.13375737,5.764346,-3.9743748,4.31914,2.030283
1.1951618,5.501985,0.37207893,0.13375737,5.764346,-3.9743748,4.31914,2.030283
1.1993651,5.512341,0.27940091,0.25839332,5.626927,-4.5394063,4.2904096,2.0159178
1.2035187,5.5229144,0.27940091,0.25839332,5.626927,-4.5394063,4.2904096,2.0159178
1.2076457,5.533158,0.18778819,0.37983346,5.4873776,-6.244078,4.1371803,1.7764976
1.2117004,5.543554,0.18778819,0.37983346,5.4873776,-6.244078,4.1371803,1.7764976
1.2156985,5.5537057,0.09830597,0.48742518,5.3510237,-5.2720323,3.5577838,2.5378537
1.2196726,5.5641346,0.09830597,0.48742518,5.3510237,-5.2720323,3.5577838,2.5378537
1.2235711,5.5742397,0.015215342,0.5928863,5.2263875,-4.0557775,3.4476504,3.2082303
1.2274243,5.5845566,0.015215342,0.5928863,5.2263875,-4.0557775,3.4476504,3.2082303
1.2313441,5.594538,-0.06787529,0.7771771,5.1305137,-6.2823853,3.1124623,3.371036
1.2352238,5.6047473,-0.06787529,0.7771771,5.1305137,-6.2823853,3.1124623,3.371036
1.2391863,5.6145205,-0.13818274,0.9731858,5.027183,-10.496181,2.566584,3.169923
1.2431298,5.6245766,-0.13818274,0.9731858,5.027183,-10.496181,2.566584,3.169923
1.2470479,5.6342683,-0.18931544,1.0754511,4.8833723,-12.310986,2.4420857,2.896984
1.2509254,5.644183,-0.18931544,1.0754511,4.8833723,-12.310986,2.4420857,2.896984
1.2546709,5.65385,-0.2265997,1.0647985,4.695886,-13.536817,2.303222,2.5809495
1.2583804,5.663745,-0.2265997,1.0647985,4.695886,-13.536817,2.303222,2.5809495
1.2618616,5.6734266,-0.2628187,0.9806426,4.474311,-13.8959465,2.1739352,2.657564
1.2653114,5.6833353,-0.2628187,0.9806426,4.474311,-13.8959465,2.1739352,2.657564
1.2684776,5.6930494,-0.30649453,0.85707194,4.233561,-12.641385,2.1691468,2.9879637
1.2716088,5.7029653,-0.30649453,0.85707194,4.233561,-12.641385,2.1691468,2.9879637
1.274458,5.7126417,-0.35869247,0.7441539,3.994942,-11.736377,1.3934253,3.6822822
1.2772734,5.7225027,-0.35869247,0.7441539,3.994942,-11.736377,1.3934253,3.6822822
1.2798554,5.7319775,-0.4119557,0.6738465,3.7659101,-12.11466,0.33039984,3.9935284
1.2824079,5.7416267,-0.4119557,0.6738465,3.7659101,-12.11466,0.33039984,3.9935284
1.2847613,5.750855,-0.44604418,0.623779,3.5464656,-13.010092,-0.79008657,3.9743748
1.2870811,5.7602186,-0.44604418,0.623779,3.5464656,-13.010092,-0.79008657,3.9743748
1.289197,5.7691994,-0.45350102,0.563059,3.338739,-13.651738,-1.7525556,3.6966474
1.2912736,5.778271,-0.45350102,0.563059,3.338739,-13.651738,-1.7525556,3.6966474
1.2931387,5.786227,-0.4417831,0.48209885,3.1469915,-14.068329,-2.60968,3.5529952
1.2949618,5.7942,-0.4417831,0.48209885,3.1469915,-14.068329,-2.60968,3.5529952
1.2966183,5.802052,-0.41728202,0.38729033,2.9733534,-13.838486,-3.3854012,3.6296098
1.2982734,5.810092,-0.41728202,0.38729033,2.9733534,-13.838486,-3.3854012,3.6296098
1.2997326,5.817816,-0.3821283,0.29354703,2.81889,-13.522451,-4.0174704,3.6583402
1.3011692,5.825595,-0.3821283,0.29354703,2.81889,-13.522451,-4.0174704,3.6583402
1.3024707,5.833186,-0.3373872,0.21471748,2.6761446,-13.666103,-4.4436383,3.5290532
1.3037605,5.840885,-0.3373872,0.21471748,2.6761446,-13.666103,-4.4436383,3.5290532
1.304918,5.848297,-0.28518924,0.15186687,2.5397906,-13.910312,-4.7405195,3.4476504
1.3060579,5.855769,-0.28518924,0.15186687,2.5397906,-13.910312,-4.7405195,3.4476504
1.3070765,5.863029,-0.22979549,0.089016266,2.4055674,-14.025233,-4.960786,3.4045548
1.3080906,5.870427,-0.22979549,0.089016266,2.4055674,-14.025233,-4.960786,3.4045548
1.3089566,5.877399,-0.17440173,0.022969872,2.2777357,-13.996503,-5.118803,3.3279405
1.3098266,5.884576,-0.17440173,0.022969872,2.2777357,-13.996503,-5.118803,3.3279405
1.3105631,5.8914747,-0.11794271,-0.047337584,2.1562955,-13.8959465,-5.257667,3.3327289
1.3112822,5.8983784,-0.11794271,-0.047337584,2.1562955,-13.8959465,-5.257667,3.3327289
1.3118887,5.905229,-0.060418434,-0.124036625,2.0401816,-13.599066,-5.267244,3.2752678
1.3124624,5.911888,-0.060418434,-0.124036625,2.0401816,-13.599066,-5.267244,3.2752678
1.3129234,5.9184732,-0.0039594183,-0.19860514,1.93259,-13.283031,-5.209783,3.2752678
1.3133726,5.925082,-0.0039594183,-0.19860514,1.93259,-13.283031,-5.209783,3.2752678
1.3137052,5.9315133,0.05356486,-0.27317366,1.832455,-12.976573,-5.185841,3.2321723
1.3140266,5.9379487,0.05356486,-0.27317366,1.832455,-12.976573,-5.185841,3.2321723
1.3142385,5.9442496,0.11321967,-0.34880742,1.7429729,-12.631808,-4.9799395,3.1124623
1.3144388,5.9505553,0.11321967,-0.34880742,1.7429729,-12.631808,-4.9799395,3.1124623
1.3145286,5.956709,0.175005,-0.42337593,1.6566864,-12.129025,-4.644751,3.0550013
1.3146093,5.9628787,0.175005,-0.42337593,1.6566864,-12.129025,-4.644751,3.0550013
1.3145854,5.96888,0.23359455,-0.4926181,1.5714653,-11.664551,-4.247314,3.0023289
1.3145521,5.9748807,0.23359455,-0.4926181,1.5714653,-11.664551,-4.247314,3.0023289
1.3144312,5.9807096,0.2921841,-0.5501424,1.48944,-11.439496,-3.8259344,2.944868
1.3140991,5.992187,0.34970838,-0.592753,1.4148715,-11.247959,-3.3662477,2.906561
1.3140991,5.992187,0.34970838,-0.592753,1.4148715,-11.247959,-3.3662477,2.906561
1.3138694,5.998373,0.34970838,-0.592753,1.4148715,-11.247959,-3.3662477,2.906561
1.3136332,6.0033417,0.4061674,-0.62364566,1.3477597,-11.161768,-2.834735,2.801216
1.3133686,6.008743,0.4061674,-0.62364566,1.3477597,-11.161768,-2.834735,2.801216
1.3130698,6.014018,0.46156114,-0.6428204,1.2891703,-11.204864,-2.3942018,2.719813
1.312764,6.0192924,0.46156114,-0.6428204,1.2891703,-11.204864,-2.3942018,2.719813
1.3124607,6.024457,0.51162857,-0.649212,1.2444291,-11.267113,-1.9632454,2.5330653
1.3121505,6.0296206,0.51162857,-0.649212,1.2444291,-11.27669,-1.3934253,2.3989902
1.311868,6.0347877,0.5553044,-0.65027726,1.2146018,-11.27669,-1.3934253,2.3989902
1.3115792,6.0399375,0.5553044,-0.65027726,1.2146018,-11.27669,-1.3934253,2.3989902
1.3113303,6.045345,0.59258866,-0.6470815,1.1986227,-10.97502,-0.770933,2.3463178
1.3110734,6.0507364,0.59258866,-0.6470815,1.1986227,-10.97502,-0.770933,2.3463178
1.3108282,6.056389,0.62348133,-0.63855934,1.1932964,-10.764331,-0.29209262,2.1883004
1.3105779,6.0619636,0.62348133,-0.63855934,1.1932964,-10.764331,-0.29209262,2.1883004
1.3103142,6.067846,0.64159083,-0.6268414,1.195427,-10.424355,0.33518824,2.0925324
1.3100382,6.073811,0.64159083,-0.6268414,1.195427,-10.424355,0.33518824,2.0925324
1.3097607,6.0797296,0.650113,-0.6151235,1.1975574,-10.16578,0.93373865,1.9297266
1.3094761,6.085633,0.650113,-0.6151235,1.1975574,-10.16578,0.93373865,1.9297266
1.3091896,6.091563,0.6479824,-0.60020983,1.1975574,-9.710882,1.5466543,1.733402
1.3088963,6.0974674,0.6479824,-0.60020983,1.1975574,-9.710882,1.5466543,1.733402
1.3086119,6.103326,0.63519925,-0.5810351,1.1964922,-9.423578,2.0638018,1.5131354
1.3083184,6.109223,0.63519925,-0.5810351,1.1964922,-9.423578,2.0638018,1.5131354
1.3080357,6.115001,0.613894,-0.5597298,1.1869048,-9.054871,2.6240451,1.2976574
1.307745,6.120766,0.613894,-0.5597298,1.1869048,-9.054871,2.6240451,1.2976574
1.3074654,6.1263933,0.58406657,-0.53735924,1.1687953,-8.767567,3.0262709,1.1348516
1.3071768,6.1320415,0.58406657,-0.53735924,1.1687953,-8.767567,3.0262709,1.1348516
1.3068931,6.137537,0.54252124,-0.51498866,1.1421638,-8.465898,3.2944214,1.1923125
1.3066033,6.143009,0.54252124,-0.51498866,1.1421638,-8.465898,3.2944214,1.1923125
1.3063197,6.148301,0.4924538,-0.4904876,1.1059448,-8.274361,3.514688,1.2545617
1.3060305,6.1535664,0.4924538,-0.4904876,1.1059448,-8.274361,3.514688,1.2545617
1.3057457,6.158615,0.4359948,-0.46492124,1.0601383,-8.212111,3.572149,1.4460979
1.3054553,6.163643,0.4359948,-0.46492124,1.0601383,-8.212111,3.572149,1.4460979
1.3051789,6.1684027,0.37420946,-0.4372244,1.0090057,-8.169016,3.5673606,1.5179238
1.3048964,6.173153,0.37420946,-0.4372244,1.0090057,-8.192958,3.4380736,1.5562311
1.3046315,6.17762,0.31029359,-0.40846223,0.95467716,-8.192958,3.4380736,1.5562311
1.3043613,6.1820693,0.31029359,-0.40846223,0.95467716,-8.192958,3.4380736,1.5562311
1.3041017,6.18627,0.24744299,-0.3797001,0.90247923,-8.283937,3.265691,1.8291701
1.3038386,6.1904554,0.24744299,-0.3797001,0.90247923,-8.283937,3.265691,1.8291701
1.3035932,6.194372,0.18565765,-0.35093796,0.8524118,-8.341399,3.0454245,1.9153614
1.3033435,6.1982975,0.18565765,-0.35093796,0.8524118,-8.341399,3.0454245,1.9153614
1.3031188,6.2019925,0.13026391,-0.31898,0.8108665,-8.532935,2.801216,2.0159178
1.3028897,6.2056775,0.13026391,-0.31898,0.8108665,-8.532935,2.801216,2.0159178
1.302686,6.209181,0.08339227,-0.28702208,0.7757127,-8.619126,2.5905263,2.0685902
1.3024797,6.212675,0.08339227,-0.28702208,0.7757127,-8.619126,2.5905263,2.0685902
1.3023,6.2160144,0.041846953,-0.25506416,0.7480159,-8.604761,2.3080103,2.0973208
1.3021188,6.219339,0.041846953,-0.25506416,0.7480159,-8.604761,2.3080103,2.0973208
1.3019663,6.222557,0.0045626974,-0.21884516,0.72671056,-8.690952,2.0494366,2.1691468
1.3018126,6.225758,0.0045626974,-0.21884516,0.72671056,-8.690952,2.0494366,2.1691468
1.3016963,6.228863,-0.03059103,-0.18049563,0.7117969,-8.686164,1.70946,2.1499932
1.3015813,6.231887,-0.03059103,-0.18049563,0.7117969,-8.686164,1.70946,2.1499932
1.3014954,6.2348948,-0.060418434,-0.13788506,0.69581795,-8.628703,1.4652514,2.255338
1.3014052,6.2379704,-0.060418434,-0.13788506,0.69581795,-8.628703,1.4652514,2.255338
1.3013496,6.2408853,-0.08705004,-0.093143955,0.67983896,-8.504205,1.2497733,2.3319526
1.3012908,6.2437725,-0.08705004,-0.093143955,0.67983896,-8.504205,1.2497733,2.3319526
1.3012605,6.246553,-0.11261639,-0.04201126,0.6574684,-8.394072,0.9768343,2.4708161
1.3012265,6.249361,-0.11261639,-0.04201126,0.6574684,-8.394072,0.9768343,2.4708161
1.3012273,6.2519794,-0.13498695,0.013382491,0.62551045,-8.355764,0.6655881,2.5330653
1.3012252,6.2545867,-0.13498695,0.013382491,0.62551045,-8.355764,0.6655881,2.5330653
1.3012497,6.256934,-0.15522698,0.071972035,0.5839651,-8.365341,0.39743748,2.6192567
1.3012714,6.2592807,-0.15522698,0.071972035,0.5839651,-8.365341,0.39743748,2.6192567
1.3013288,6.2612658,-0.17120594,0.13162684,0.53070194,-8.480263,0.16280572,2.6527755
1.3013839,6.263262,-0.17120594,0.13162684,0.53070194,-8.480263,0.16280572,2.6527755
1.3014791,6.2647796,-0.18079332,0.1870206,0.4678513,-8.614338,-0.04309563,2.585738
1.3015745,6.2662916,-0.18079332,0.1870206,0.4678513,-8.614338,-0.04309563,2.585738
1.3017597,6.267077,-0.18611965,0.23708802,0.39434808,-8.75799,-0.2633622,2.5234885
1.3019468,6.2678723,-0.18611965,0.23708802,0.39434808,-8.75799,-0.2633622,2.5234885
1.302213,6.268292,-0.1871849,0.27756807,0.31445324,-8.954314,-0.51714754,2.5187001
1.3024774,6.2687116,-0.1871849,0.27756807,0.31445324,-8.954314,-0.51714754,2.5187001
1.3027802,6.2688193,-0.18505438,0.30846074,0.22923209,-9.021352,-0.7086837,2.5187001
1.3030816,6.2689276,-0.18505438,0.30846074,0.22923209,-9.021352,-0.7086837,2.5187001
1.3034072,6.2686872,-0.18079332,0.3276355,0.13335828,-9.174581,-0.90021986,2.5234885
1.3037329,6.2684464,-0.18079332,0.3276355,0.13335828,-9.174581,-0.90021986,2.5234885
1.3050277,6.264949,-0.16055329,0.3276355,-0.0679767,-9.375694,-1.2545617,2.585738
1.3050277,6.264949,-0.16055329,0.3276355,-0.0679767,-9.375694,-1.2545617,2.585738
1.3050277,6.264949,-0.16055329,0.3276355,-0.0679767,-9.375694,-1.2545617,2.585738
1.3050277,6.264949,-0.16055329,0.3276355,-0.0679767,-9.375694,-1.2545617,2.585738
1.3053379,6.2636294,-0.14670485,0.31165653,-0.16811156,-9.471462,-1.4748282,2.528277
1.3058276,6.2607574,-0.12646483,0.2860902,-0.26611587,-9.490616,-1.5610195,2.5139117
1.3058999,6.260333,-0.12646483,0.2860902,-0.26611587,-9.490616,-1.5610195,2.5139117
1.3062074,6.2585135,-0.12646483,0.2860902,-0.26611587,-9.490616,-1.5610195,2.5139117
1.306493,6.256182,-0.10515954,0.25413227,-0.3555981,-9.485827,-1.6519991,2.552219
1.306668,6.2547503,-0.10515954,0.25413227,-0.3555981,-9.485827,-1.6519991,2.552219
1.3068655,6.252476,-0.08278899,0.216848,-0.44294977,-9.351752,-1.7238252,2.552219
1.3070655,6.250149,-0.08278899,0.216848,-0.44294977,-9.351752,-1.7238252,2.552219
1.3072102,6.247646,-0.058287904,0.17956375,-0.52390987,-9.198523,-1.7046716,2.5953147
1.307356,6.245095,-0.058287904,0.17956375,-0.52390987,-9.198523,-1.7046716,2.5953147
1.3074665,6.242299,-0.033786822,0.14547528,-0.59634787,-9.069236,-1.7046716,2.5139117
1.3075747,6.2394958,-0.033786822,0.14547528,-0.59634787,-9.069236,-1.7046716,2.5139117
1.3076444,6.236474,-0.010351005,0.11990894,-0.6645248,-8.920795,-1.7142484,2.585738
1.3077102,6.2334538,-0.010351005,0.11990894,-0.6645248,-8.920795,-1.7142484,2.585738
1.3077431,6.2302527,0.013084813,0.100734174,-0.7241796,-8.738836,-1.6376339,2.6240451
1.3077734,6.2270484,0.013084813,0.100734174,-0.7241796,-8.738836,-1.6376339,2.6240451
1.3077931,6.223662,0.033324838,0.09221206,-0.7774428,-8.643068,-1.532289,2.542642
1.3078084,6.220276,0.033324838,0.09221206,-0.7774428,-8.643068,-1.532289,2.542642
1.3078251,6.2167315,0.0524996,0.09540785,-0.8232492,-8.585608,-1.436521,2.4708161
1.307838,6.213187,0.0524996,0.09540785,-0.8232492,-8.585608,-1.436521,2.4708161
1.3078632,6.2095017,0.06847856,0.10819103,-0.862664,-8.695741,-1.340753,2.4372973
1.3078841,6.205816,0.06847856,0.10819103,-0.862664,-8.695741,-1.340753,2.4372973
1.3079221,6.2020226,0.08126174,0.13375737,-0.89355665,-8.839393,-1.2545617,2.4851813
1.3079562,6.1982284,0.08126174,0.13375737,-0.89355665,-8.839393,-1.2545617,2.4851813
1.3080499,6.1934047,0.091914386,0.16678058,-0.91805774,-9.088389,-1.1109096,2.4229321
1.3081086,6.190268,0.091914386,0.16678058,-0.91805774,-9.088389,-1.1109096,2.4229321
1.3082228,6.1863675,0.1004365,0.20406483,-0.9329714,-9.356541,-1.0630256,2.4133554
1.3083335,6.182448,0.1004365,0.20406483,-0.9329714,-9.356541,-1.0630256,2.4133554
1.3084884,6.1784983,0.10789335,0.24454488,-0.939363,-9.744401,-1.0199299,2.4708161
1.3086431,6.1744356,0.10789335,0.24454488,-0.939363,-9.744401,-1.0199299,2.4708161
1.3088465,6.170513,0.11215441,0.28502494,-0.935102,-10.189722,-0.9576807,2.504335
1.3090479,6.166529,0.11748073,0.3223092,-0.91805774,-10.620679,-0.9816227,2.5330653
1.3092973,6.162614,0.11748073,0.3223092,-0.91805774,-10.620679,-0.9816227,2.5330653
1.3095425,6.1586947,0.11748073,0.3223092,-0.91805774,-10.620679,-0.9816227,2.5330653
1.30984,6.1549077,0.122807056,0.35639766,-0.8892956,-10.998962,-0.90979666,2.5474305
1.3101327,6.1511207,0.122807056,0.35639766,-0.8892956,-10.998962,-0.90979666,2.5474305
1.3104668,6.1474905,0.12600285,0.38729033,-0.8520113,-11.324574,-0.90021986,2.5617957
1.3107963,6.1438637,0.12600285,0.38729033,-0.8520113,-11.324574,-0.90021986,2.5617957
1.3111668,6.1404343,0.13239443,0.41072613,-0.8083355,-11.674128,-0.8523358,2.542642
1.3115343,6.137004,0.13239443,0.41072613,-0.8083355,-11.674128,-0.8523358,2.542642
1.3119247,6.1338105,0.13772075,0.42457458,-0.75613755,-11.9374895,-0.78529817,2.5953147
1.3123131,6.1306133,0.13772075,0.42457458,-0.75613755,-11.9374895,-0.78529817,2.5953147
1.3127227,6.127671,0.14198181,0.42990088,-0.70180905,-12.11466,-0.7134721,2.5330653
1.3131292,6.124734,0.14198181,0.42990088,-0.70180905,-12.11466,-0.7134721,2.5330653
1.3135463,6.1221037,0.14730814,0.4267051,-0.6496111,-12.253524,-0.545878,2.3989902
1.313962,6.119468,0.14730814,0.4267051,-0.6496111,-12.253524,-0.545878,2.3989902
1.3143716,6.1170754,0.15156919,0.41179138,-0.60060894,-12.282255,-0.44532153,2.336741
1.3147775,6.114685,0.15156919,0.41179138,-0.60060894,-12.282255,-0.44532153,2.336741
1.3151668,6.112464,0.15156919,0.3851598,-0.55799836,-12.200851,-0.4213795,2.303222
1.3155532,6.110246,0.15156919,0.3851598,-0.55799836,-12.200851,-0.4213795,2.303222
1.3159105,6.1082063,0.14943866,0.35000607,-0.51964885,-12.148179,-0.37828386,2.2409728
1.3162675,6.106163,0.14943866,0.35000607,-0.51964885,-12.148179,-0.37828386,2.2409728
1.3165834,6.1042533,0.1451776,0.30526495,-0.4908867,-12.023681,-0.38307226,2.2649148
1.3168983,6.1023426,0.1451776,0.30526495,-0.4908867,-12.023681,-0.38307226,2.2649148
1.3171666,6.1005173,0.14198181,0.25413227,-0.46851614,-11.947066,-0.4405331,2.3127987
1.3174336,6.098696,0.14198181,0.25413227,-0.46851614,-11.947066,-0.4405331,2.3127987
1.3176441,6.0969625,0.13559023,0.19554271,-0.45040664,-11.769896,-0.46447513,2.3319526
1.317855,6.0952315,0.13559023,0.19554271,-0.45040664,-11.769896,-0.46447513,2.3319526
1.3180065,6.093564,0.12919864,0.13482264,-0.43868873,-11.664551,-0.49799395,2.408567
1.3181572,6.091904,0.12919864,0.13482264,-0.43868873,-11.664551,-0.49799395,2.408567
1.3182461,6.0902853,0.122807056,0.071972035,-0.4280361,-11.51611,-0.5363012,2.3798366
1.3183353,6.0886717,0.122807056,0.071972035,-0.4280361,-11.51611,-0.5363012,2.3798366
1.318359,6.0870147,0.118545994,0.012317227,-0.41951397,-11.324574,-0.641646,2.5187001
1.3183831,6.085369,0.118545994,0.012317227,-0.41951397,-11.324574,-0.641646,2.5187001
1.3183466,6.083718,0.11428493,-0.043076526,-0.41418764,-11.080365,-0.6847417,2.4612393
1.318311,6.0820746,0.11428493,-0.043076526,-0.41418764,-11.080365,-0.6847417,2.4612393
1.3182123,6.080384,0.11215441,-0.095274486,-0.41418764,-10.759542,-0.7661445,2.3750482
1.3181131,6.0786867,0.11215441,-0.095274486,-0.41418764,-10.759542,-0.7661445,2.3750482
1.3179452,6.076897,0.10895862,-0.13788506,-0.41631818,-10.342952,-0.80445176,2.4181437
1.3177757,6.075102,0.10895862,-0.13788506,-0.41631818,-10.342952,-0.80445176,2.4181437
1.3175371,6.0732193,0.106828086,-0.17090826,-0.4216445,-9.935937,-0.90021986,2.384625
1.3173,6.0713496,0.106828086,-0.17090826,-0.4216445,-9.935937,-0.90021986,2.384625
1.3170002,6.069403,0.102567025,-0.19221355,-0.43762347,-9.552865,-0.90979666,2.3894134
1.3167017,6.067465,0.102567025,-0.19221355,-0.43762347,-9.552865,-0.90979666,2.3894134
1.316329,6.065554,0.0972407,-0.20393145,-0.46425506,-9.14585,-0.9864111,2.5187001
1.3159568,6.0636525,0.0972407,-0.20393145,-0.46425506,-9.14585,-0.9864111,2.5187001
1.3155577,6.061641,0.09084912,-0.20712726,-0.50793093,-8.791509,-1.0151415,2.5378537
1.3151598,6.059644,0.09084912,-0.20712726,-0.50793093,-8.791509,-1.0151415,2.5378537
1.3147461,6.0574336,0.08339227,-0.20819251,-0.5654552,-8.441956,-1.1252748,2.528277
1.3143325,6.0552325,0.08339227,-0.20819251,-0.5654552,-8.441956,-1.1252748,2.528277
1.3139012,6.05281,0.074870154,-0.20180093,-0.63256687,-8.269572,-1.163582,2.5953147
1.3134696,6.0504036,0.074870154,-0.20180093,-0.63256687,-8.269572,-1.163582,2.5953147
1.3130336,6.047668,0.0674133,-0.19114828,-0.7092659,-8.12592,-1.2449849,2.5378537
1.312595,6.0449424,0.0674133,-0.19114828,-0.7092659,-8.12592,-1.2449849,2.5378537
1.312149,6.041879,0.05995645,-0.17836511,-0.7934218,-8.1163435,-1.3120226,2.528277
1.3117018,6.038833,0.05995645,-0.17836511,-0.7934218,-8.1163435,-1.3120226,2.528277
1.3112442,6.0354433,0.055695392,-0.16558194,-0.87970823,-8.0924015,-1.4030021,2.542642
1.3107835,6.032073,0.055695392,-0.16558194,-0.87970823,-8.0924015,-1.4030021,2.542642
1.3103075,6.028395,0.0524996,-0.15705982,-0.96279883,-8.121132,-1.388637,2.5234885
1.309341,6.020731,0.05036907,-0.15066823,-1.0426936,-8.183381,-1.4987702,2.4468741
1.309341,6.020731,0.05036907,-0.15066823,-1.0426936,-8.183381,-1.4987702,2.4468741
1.3088467,6.016726,0.05036907,-0.15066823,-1.0426936,-8.183381,-1.4987702,2.4468741
1.3083313,6.0124965,0.05036907,-0.14747244,-1.1140664,-8.250419,-1.5562311,2.5139117
1.3078146,6.0083265,0.05036907,-0.14747244,-1.1140664,-8.250419,-1.5562311,2.5139117
1.307271,6.0039206,0.054630127,-0.14534192,-1.176917,-8.236053,-1.6089035,2.5713725
1.3067234,5.9995556,0.054630127,-0.14534192,-1.176917,-8.236053,-1.6089035,2.5713725
1.3061528,5.9950542,0.062086977,-0.14534192,-1.2280496,-8.2169,-1.5993267,2.6240451
1.3055776,5.990583,0.062086977,-0.14534192,-1.2280496,-8.2169,-1.5993267,2.6240451
1.3049868,5.985943,0.075935416,-0.14534192,-1.269595,-8.192958,-1.6184803,2.5330653
1.3043921,5.981343,0.075935416,-0.14534192,-1.269595,-8.192958,-1.6184803,2.5330653
1.303791,5.9766283,0.09511018,-0.14427665,-1.3004876,-8.149862,-1.6280571,2.4133554
1.3031842,5.971936,0.09511018,-0.14427665,-1.3004876,-8.149862,-1.6280571,2.4133554
1.3025677,5.96722,0.11748073,-0.14321138,-1.3185972,-8.0684595,-1.5658079,2.3654714
1.3019463,5.962541,0.11748073,-0.14321138,-1.3185972,-8.0684595,-1.5658079,2.3654714
1.3013129,5.957869,0.14198181,-0.13788506,-1.326054,-7.920019,-1.5753847,2.3798366
1.3006756,5.9532337,0.14198181,-0.13788506,-1.326054,-7.920019,-1.5753847,2.3798366
1.3000406,5.948645,0.16541763,-0.13149348,-1.3228582,-7.728483,-1.5753847,2.327164
1.2994,5.944093,0.16541763,-0.13149348,-1.3228582,-7.728483,-1.5753847,2.327164
1.2987535,5.939649,0.18885344,-0.11977556,-1.3154013,-7.326257,-1.6567876,2.456451
1.2981036,5.935246,0.18885344,-0.11977556,-1.3154013,-7.326257,-1.6567876,2.456451
1.2974596,5.9309435,0.211224,-0.10060081,-1.3079445,-6.6750345,-1.70946,2.6001031
1.2968117,5.9266768,0.211224,-0.10060081,-1.3079445,-6.6750345,-1.70946,2.6001031
1.296186,5.922463,0.23359455,-0.06970814,-1.3090098,-5.93762,-1.70946,2.681506
1.2955564,5.9182825,0.23359455,-0.06970814,-1.3090098,-5.93762,-1.70946,2.681506
1.294954,5.9140115,0.2559651,-0.0228365,-1.3271192,-5.2289367,-1.7190368,2.7246015
1.2943536,5.9098206,0.2559651,-0.0228365,-1.3271192,-5.2289367,-1.7190368,2.7246015
1.2937858,5.9054375,0.27620512,0.04107937,-1.3739909,-4.4196963,-1.5610195,2.7389667
1.2932146,5.901092,0.27620512,0.04107937,-1.3739909,-4.4196963,-1.5610195,2.7389667
1.2926755,5.8964224,0.29005358,0.11564788,-1.4581468,-3.7110126,-1.4460979,2.6910827
1.2921318,5.8917966,0.29005358,0.11564788,-1.4581468,-3.7110126,-1.4460979,2.6910827
1.2916089,5.886664,0.29964095,0.19767325,-1.5785217,-3.1747115,-1.4077905,2.585738
1.291079,5.8815737,0.29964095,0.19767325,-1.5785217,-3.1747115,-1.4077905,2.585738
1.2905543,5.875891,0.30603254,0.27863333,-1.7383114,-2.7868507,-1.3120226,2.4181437
1.2900206,5.8702493,0.30603254,0.27863333,-1.7383114,-2.7868507,-1.3120226,2.4181437
1.2894611,5.863832,0.31135887,0.35426712,-1.9289937,-2.7246015,-1.3311762,2.1978772
1.2888798,5.8573356,0.31135887,0.35426712,-1.9289937,-2.7246015,-1.3311762,2.1978772
1.288281,5.850344,0.31455466,0.4213788,-2.1420467,-2.5905263,-1.4030021,2.1787236
1.2876639,5.843357,0.31455466,0.4213788,-2.1420467,-2.5905263,-1.4030021,2.1787236
1.2869844,5.8355827,0.31775045,0.4778378,-2.368948,-2.6671407,-1.5514427,2.0925324
1.2862823,5.827802,0.31775045,0.4778378,-2.368948,-2.6671407,-1.5514427,2.0925324
1.2854958,5.8192315,0.3220115,0.5247094,-2.603306,-2.801216,-1.6328455,2.087744
1.2837855,5.8015366,0.32733783,0.56199366,-2.836599,-2.72939,-1.757344,2.2266076
1.2837855,5.8015366,0.32733783,0.56199366,-2.836599,-2.72939,-1.757344,2.2266076
1.2828597,5.7924333,0.32733783,0.56199366,-2.836599,-2.72939,-1.757344,2.2266076
1.2818179,5.782541,0.33266416,0.59608215,-3.0645657,-2.8778305,-1.8914193,2.207454
1.2807629,5.77288,0.33266416,0.59608215,-3.0645657,-2.8778305,-1.8914193,2.207454
1.2795876,5.7624598,0.3369252,0.63230115,-3.2850754,-2.9161377,-1.982399,2.1404164
1.2783864,5.7521896,0.3369252,0.63230115,-3.2850754,-2.9161377,-1.982399,2.1404164
1.2770693,5.7412677,0.34225154,0.6717159,-3.497063,-2.9352913,-2.1308396,2.15957
1.2757202,5.7304816,0.34225154,0.6717159,-3.497063,-2.9352913,-2.1308396,2.15957
1.274264,5.71915,0.34544733,0.7185876,-3.7037244,-2.8107927,-2.15957,2.1691468
1.2727695,5.7079473,0.34544733,0.7185876,-3.7037244,-2.8107927,-2.15957,2.1691468
1.2711728,5.6961327,0.3465126,0.78463393,-3.9061246,-2.6671407,-2.2505496,2.0733786
1.2695414,5.6845202,0.3465126,0.78463393,-3.9061246,-2.6671407,-2.2505496,2.0733786
1.2678156,5.6722693,0.34544733,0.8741162,-4.1063943,-2.8107927,-2.3319526,2.087744
1.266049,5.6602135,0.34544733,0.8741162,-4.1063943,-2.8107927,-2.3319526,2.087744
1.2642033,5.64756,0.340121,0.98383844,-4.310925,-2.834735,-2.3558946,2.0159178
1.2613876,5.6283107,0.32946837,1.1106049,-4.517586,-3.2082303,-2.4468741,2.0446482
1.2602284,5.620717,0.32946837,1.1106049,-4.517586,-3.2082303,-2.4468741,2.0446482
1.2582057,5.6078897,0.32946837,1.1106049,-4.517586,-3.2082303,-2.4468741,2.0446482
1.2551761,5.5887327,0.31455466,1.2458935,-4.726378,-3.667917,-2.4612393,1.9967642
1.2538941,5.580956,0.31455466,1.2458935,-4.726378,-3.667917,-2.4612393,1.9967642
1.2516122,5.566991,0.29431462,1.3811821,-4.9362354,-4.050989,-2.6048915,2.0159178
1.2492129,5.5529356,0.29431462,1.3811821,-4.9362354,-4.050989,-2.6048915,2.0159178
1.2461686,5.5352535,0.27087882,1.5154054,-5.1428967,-4.654328,-2.7724855,2.0015526
1.24173,5.510576,0.24744299,1.6453676,-5.345297,-5.267244,-2.9831753,1.8579005
1.24173,5.510576,0.24744299,1.6453676,-5.345297,-5.267244,-2.9831753,1.8579005
1.2386665,5.494307,0.24744299,1.6453676,-5.345297,-5.267244,-2.9831753,1.8579005
1.2356182,5.478437,0.22400717,1.7646773,-5.5445013,-5.81791,-3.1842883,1.8387469
1.2333018,5.466867,0.22400717,1.7646773,-5.5445013,-5.81791,-3.1842883,1.8387469
1.2296126,5.4487777,0.20483242,1.8712037,-5.736249,-6.181829,-3.3854012,1.661576
1.2271178,5.437082,0.20483242,1.8712037,-5.736249,-6.181829,-3.3854012,1.661576
1.2238629,5.422069,0.18885344,1.9713385,-5.921605,-6.579266,-3.5817258,1.4652514
1.2199095,5.4046917,0.18885344,1.9713385,-5.921605,-6.579266,-3.5817258,1.4652514
1.2170241,5.3923025,0.16967869,2.0640166,-6.1058955,-7.2065473,-3.7684734,1.2785037
1.2134664,5.377622,0.16967869,2.0640166,-6.1058955,-7.2065473,-3.7684734,1.2785037
1.2097194,5.362695,0.1483734,2.1460419,-6.289121,-7.6135616,-4.132392,1.283292
1.2058899,5.348087,0.1483734,2.1460419,-6.289121,-7.6135616,-4.132392,1.283292
1.2018745,5.3333616,0.12493758,2.2174146,-6.472347,-7.819463,-4.534618,1.2785037
1.1977726,5.3189516,0.12493758,2.2174146,-6.472347,-7.819463,-4.534618,1.2785037
1.1934708,5.30445,0.1004365,2.2823958,-6.6577024,-8.025364,-4.9559975,1.292869
1.1890956,5.290316,0.1004365,2.2823958,-6.6577024,-8.025364,-4.9559975,1.292869
1.1844923,5.276043,0.08019647,2.3452463,-6.848385,-8.298303,-5.2624555,1.283292
1.1798127,5.262132,0.08019647,2.3452463,-6.848385,-8.298303,-5.2624555,1.283292
1.1749346,5.2482023,0.06421751,2.4102275,-7.0486546,-8.456321,-5.482722,1.1827357
1.1699722,5.2346115,0.06421751,2.4102275,-7.0486546,-8.456321,-5.482722,1.1827357
1.1647865,5.220978,0.05356486,2.473078,-7.2606425,-8.532935,-5.48751,1.0486604
1.1595124,5.2076745,0.05356486,2.473078,-7.2606425,-8.532935,-5.48751,1.0486604
1.1540203,5.194381,0.041846953,2.5316677,-7.485413,-8.499416,-5.511452,0.770933
1.1482558,5.1810017,0.041846953,2.5316677,-7.485413,-8.499416,-5.511452,0.770933
1.1426024,5.1684484,0.026933251,2.5806699,-7.7250977,-8.652645,-5.5497594,0.5554548
1.1367495,5.155963,0.026933251,2.5806699,-7.7250977,-8.652645,-5.5497594,0.5554548
1.130589,5.1434135,0.010954284,2.6158235,-7.975435,-9.275137,-5.5641246,0.34955344
1.1243593,5.131224,0.010954284,2.6158235,-7.975435,-9.275137,-5.5641246,0.34955344
1.1178542,5.119132,-0.0071552116,2.6318026,-8.225772,-9.696517,-5.631162,0.1340753
1.1112838,5.107398,-0.0071552116,2.6318026,-8.225772,-9.696517,-5.631162,0.1340753
1.104407,5.095791,-0.025264706,2.6243458,-8.470782,-10.065224,-5.746084,-0.0047884034
1.0974965,5.0845804,-0.025264706,2.6243458,-8.470782,-10.065224,-5.746084,-0.0047884034
1.0902972,5.0735726,-0.04017841,2.597714,-8.706206,-10.85531,-6.0956373,-0.11971009
1.0830485,5.0629168,-0.04017841,2.597714,-8.706206,-10.85531,-6.0956373,-0.11971009
1.0755131,5.0525045,-0.05189632,2.5519078,-8.924585,-11.803414,-6.5122285,-0.04309563
1.0679418,5.0424414,-0.05189632,2.5519078,-8.924585,-11.803414,-6.5122285,-0.04309563
1.0601279,5.0326986,-0.060418434,2.4837308,-9.108876,-12.785037,-6.9862804,0.076614454
1.0522529,5.023248,-0.060418434,2.4837308,-9.108876,-12.785037,-6.9862804,0.076614454
1.0441713,5.0141697,-0.06361423,2.392118,-9.246295,-13.393165,-7.2352777,0.25857377
1.0360672,5.0054007,-0.06361423,2.392118,-9.246295,-13.393165,-7.2352777,0.25857377
1.0278203,4.9970503,-0.06467949,2.287722,-9.342169,-13.364434,-7.240066,0.2873042
1.0195074,4.9889355,-0.06467949,2.287722,-9.342169,-13.364434,-7.240066,0.2873042
1.011108,4.981243,-0.06787529,2.1843915,-9.4082155,-13.263878,-7.1347213,0.33518824
1.0026463,4.9737678,-0.06787529,2.1843915,-9.4082155,-13.263878,-7.1347213,0.33518824
0.99410343,4.9666567,-0.076397404,2.0927787,-9.461478,-13.206416,-6.95755,0.23463176
0.98555255,4.9597855,-0.076397404,2.0927787,-9.461478,-13.206416,-6.95755,0.23463176
0.9768972,4.9532027,-0.09024584,2.0150144,-9.50622,-13.28782,-6.703765,0.15322891
0.96802765,4.9466896,-0.09024584,2.0150144,-9.50622,-13.28782,-6.703765,0.15322891
0.959475,4.9407253,-0.108355336,1.9447069,-9.5467,-13.311762,-6.421249,-0.047884032
0.9507179,4.9348197,-0.108355336,1.9447069,-9.5467,-13.311762,-6.421249,-0.047884032
0.9418925,4.929156,-0.13072589,1.87653,-9.582919,-13.512875,-6.133945,-0.2873042
0.9330214,4.9236484,-0.13072589,1.87653,-9.582919,-13.512875,-6.133945,-0.2873042
0.9241232,4.918391,-0.16055329,1.8019615,-9.6138115,-13.560759,-5.9041014,-0.36870706
0.91518176,4.913275,-0.16055329,1.8019615,-9.6138115,-13.560759,-5.9041014,-0.36870706
0.9061942,4.908386,-0.19570702,1.7188709,-9.631921,-13.761871,-5.6551046,-0.272939
0.8971908,4.903642,-0.19570702,1.7188709,-9.631921,-13.761871,-5.6551046,-0.272939
0.8881723,4.899127,-0.23192601,1.6251276,-9.634051,-13.8480625,-5.4779334,-0.25378537
0.8791492,4.894745,-0.23192601,1.6251276,-9.634051,-13.8480625,-5.4779334,-0.25378537
0.87008643,4.890578,-0.2713408,1.5154054,-9.615942,-13.958196,-5.3582234,-0.062249243
0.861011,4.8865275,-0.2713408,1.5154054,-9.615942,-13.958196,-5.3582234,-0.062249243
0.85197085,4.882717,-0.31288612,1.3897042,-9.575462,-13.977349,-5.12838,0.05267244
0.8428837,4.878995,-0.31288612,1.3897042,-9.575462,-13.977349,-5.12838,0.05267244
0.8338461,4.8755035,-0.3576272,1.2512197,-9.510481,-14.020445,-5.133168,0.16759412
0.82480836,4.872107,-0.3576272,1.2512197,-9.510481,-14.020445,-5.133168,0.16759412
0.81580615,4.868934,-0.40662938,1.0956912,-9.423129,-13.982138,-5.1810527,0.51714754
0.80681396,4.8658476,-0.40662938,1.0956912,-9.423129,-13.982138,-5.1810527,0.51714754
0.79789954,4.862982,-0.45776206,0.92737937,-9.301689,-13.747506,-5.315128,0.7565677
0.78897005,4.8601823,-0.45776206,0.92737937,-9.301689,-13.747506,-5.315128,0.7565677
0.78014934,4.8575964,-0.50889474,0.7569371,-9.150421,-13.421895,-5.521029,1.091756
0.77068865,4.854891,-0.50889474,0.7569371,-9.150421,-13.421895,-5.521029,1.091756
0.7625791,4.8527145,-0.55470115,0.5907558,-8.96613,-12.990938,-5.7365074,1.1923125
0.75408405,4.850484,-0.55470115,0.5907558,-8.96613,-12.990938,-5.7365074,1.1923125
0.7456256,4.848398,-0.5941159,0.43416196,-8.754143,-12.5504055,-5.9519854,1.3215994
0.7371468,4.8463492,-0.5941159,0.43416196,-8.754143,-12.5504055,-5.9519854,1.3215994
0.72887677,4.8444567,-0.62926966,0.29461232,-8.521915,-12.061988,-6.2728086,1.292869
0.7206039,4.8426,-0.62926966,0.29461232,-8.521915,-12.061988,-6.2728086,1.292869
0.7125265,4.84087,-0.6601623,0.17423743,-8.266252,-11.343728,-6.564901,1.2689269
0.70454335,4.8391895,-0.6601623,0.17423743,-8.266252,-11.343728,-6.564901,1.2689269
0.6967565,4.8376045,-0.68359816,0.08368994,-7.9988704,-10.548853,-6.847417,1.2066777
0.6889677,4.836045,-0.68359816,0.08368994,-7.9988704,-10.548853,-6.847417,1.2066777
0.6814349,4.834563,-0.70170766,0.026165664,-7.7325544,-9.624691,-6.9288197,1.1252748
0.6739008,4.833102,-0.70170766,0.026165664,-7.7325544,-9.624691,-6.9288197,1.1252748
0.66661996,4.831679,-0.7176866,0.0069909045,-7.4822173,-8.772355,-6.9862804,0.9672575
0.6593233,4.8302717,-0.7176866,0.0069909045,-7.4822173,-8.772355,-6.9862804,0.9672575
0.6522566,4.8288774,-0.73046976,0.018708814,-7.2585115,-8.101978,-6.981492,0.8714894
0.6451887,4.8275013,-0.73046976,0.018708814,-7.2585115,-8.101978,-6.981492,0.8714894
0.63831043,4.826104,-0.74644876,0.05173201,-7.06996,-7.6949644,-6.9862804,0.6991069
0.6314313,4.8247232,-0.74644876,0.05173201,-7.06996,-7.6949644,-6.9862804,0.6991069
0.6247068,4.8233137,-0.76455826,0.09221206,-6.916562,-7.503428,-6.95755,0.5650316
0.6179812,4.821921,-0.76455826,0.09221206,-6.916562,-7.503428,-6.95755,0.5650316
0.6113755,4.820495,-0.78479826,0.12843105,-6.796187,-7.398083,-7.015011,0.4165911
0.6047691,4.819086,-0.78479826,0.12843105,-6.796187,-7.398083,-7.015011,0.4165911
0.5982535,4.817651,-0.8061035,0.1508016,-6.7024436,-7.383718,-7.1347213,0.2633622
0.591731,4.816231,-0.8061035,0.1508016,-6.7024436,-7.383718,-7.1347213,0.2633622
0.5852829,4.814799,-0.82527834,0.1539974,-6.6289406,-7.374141,-7.2927384,0.11492168
0.57883453,4.8133836,-0.82527834,0.1539974,-6.6289406,-7.374141,-7.2927384,0.11492168
0.57239974,4.8119664,-0.840192,0.13695318,-6.570351,-7.297527,-7.517793,0.05267244
0.56602246,4.8105774,-0.840192,0.13695318,-6.570351,-7.297527,-7.517793,0.05267244
0.5596404,4.809197,-0.84764886,0.1060605,-6.52561,-7.005434,-7.905654,0.05267244
0.55331,4.8078423,-0.84764886,0.1060605,-6.52561,-7.005434,-7.905654,0.05267244
0.5469473,4.8064995,-0.85190994,0.06558045,-6.4925866,-6.6415157,-8.350976,0.12928689
0.5406118,4.805177,-0.85190994,0.06558045,-6.4925866,-6.6415157,-8.350976,0.12928689
0.53425586,4.8038692,-0.85190994,0.0251004,-6.4744773,-6.0238113,-8.762778,0.30645782
0.5279177,4.8025794,-0.85190994,0.0251004,-6.4744773,-6.0238113,-8.762778,0.30645782
0.52145576,4.801289,-0.84551835,-0.012183856,-6.4755425,-5.3247046,-9.150639,0.5315128
0.51502967,4.8000126,-0.84551835,-0.012183856,-6.4755425,-5.3247046,-9.150639,0.5315128
0.5084114,4.7988386,-0.8348657,-0.04201126,-6.5011086,-4.5441947,-9.361329,0.62728083
0.50181985,4.7976766,-0.8348657,-0.04201126,-6.5011086,-4.5441947,-9.361329,0.62728083
0.49512172,4.7965746,-0.819952,-0.06864287,-6.5565023,-4.060566,-9.648633,0.7278373
0.48844957,4.7954855,-0.819952,-0.06864287,-6.5565023,-4.060566,-9.648633,0.7278373
0.4816869,4.794445,-0.8050383,-0.10166607,-6.6374626,-3.8115692,-9.988609,0.8283938
0.47492394,4.793413,-0.8050383,-0.10166607,-6.6374626,-3.8115692,-9.988609,0.8283938
0.4680653,4.7924395,-0.79118985,-0.1549293,-6.731206,-3.5913026,-10.515334,1.0103531
0.4612067,4.7914734,-0.79118985,-0.1549293,-6.731206,-3.5913026,-10.515334,1.0103531
0.45425013,4.7905755,-0.77308035,-0.23375887,-6.8260145,-3.3662477,-11.089942,1.2018893
0.44729388,4.789685,-0.77308035,-0.23375887,-6.8260145,-3.3662477,-11.089942,1.2018893
0.44024765,4.7888746,-0.74644876,-0.3381548,-6.909105,-3.1268275,-11.63582,1.3311762
0.4332161,4.7880707,-0.74644876,-0.3381548,-6.909105,-3.1268275,-11.63582,1.3311762
0.4260901,4.787362,-0.7059687,-0.46279073,-6.9655643,-2.72939,-12.095507,1.4221559
0.41897875,4.7866592,-0.7059687,-0.46279073,-6.9655643,-2.72939,-12.095507,1.4221559
0.41182792,4.786059,-0.65590125,-0.60340565,-6.9911304,-2.0685902,-12.320562,1.3072342
0.40467736,4.7854605,-0.65590125,-0.60340565,-6.9911304,-2.0685902,-12.320562,1.3072342
0.39751878,4.7849703,-0.60157275,-0.74934685,-6.9868693,-1.0103531,-12.243947,1.1540052
0.3903746,4.78448,-0.60157275,-0.74934685,-6.9868693,-1.0103531,-12.243947,1.1540052
0.3832223,4.784097,-0.54617906,-0.88463545,-6.9570417,-0.1436521,-12.105083,1.115698
0.37608448,4.783713,-0.54617906,-0.88463545,-6.9570417,-0.1436521,-12.105083,1.115698
0.36898366,4.7834163,-0.49824214,-0.9943577,-6.905909,0.90021986,-11.626244,1.0582372
0.361897,4.7831173,-0.49824214,-0.9943577,-6.905909,0.90021986,-11.626244,1.0582372
0.35486734,4.7828827,-0.45563155,-1.0625346,-6.8377323,1.661576,-11.032481,0.9528923
0.3478517,4.7826443,-0.45563155,-1.0625346,-6.8377323,1.661576,-11.032481,0.9528923
0.34087583,4.782437,-0.4236736,-1.0806441,-6.761033,1.9680338,-10.46745,0.7469909
0.33392075,4.782226,-0.4236736,-1.0806441,-6.761033,1.9680338,-10.46745,0.7469909
0.32705462,4.7820225,-0.40662938,-1.0518819,-6.674747,2.0590134,-10.01734,0.79008657
0.32019532,4.7818146,-0.40662938,-1.0518819,-6.674747,2.0590134,-10.01734,0.79008657
0.3134308,4.781593,-0.40449885,-0.98157454,-6.5799384,1.6950948,-9.682152,1.043872
0.30667976,4.7813683,-0.40449885,-0.98157454,-6.5799384,1.6950948,-9.682152,1.043872
0.30002084,4.781111,-0.41621676,-0.87291753,-6.473412,0.9528923,-9.41879,1.3838485
0.29337546,4.7808514,-0.41621676,-0.87291753,-6.473412,0.9528923,-9.41879,1.3838485
0.28686488,4.780546,-0.44071785,-0.7344332,-6.353037,-0.023942016,-9.370906,1.6950948
0.28036135,4.780241,-0.44071785,-0.7344332,-6.353037,-0.023942016,-9.370906,1.6950948
0.2549964,4.7786818,-0.5131558,-0.40633172,-6.04198,-2.2457612,-9.548077,2.2744915
0.2549964,4.7786818,-0.5131558,-0.40633172,-6.04198,-2.2457612,-9.548077,2.2744915
0.2549964,4.7786818,-0.5131558,-0.40633172,-6.04198,-2.2457612,-9.548077,2.2744915
0.2549964,4.7786818,-0.5131558,-0.40633172,-6.04198,-2.2457612,-9.548077,2.2744915
0.2482765,4.7780967,-0.5515053,-0.22523674,-5.8353186,-3.7541082,-9.701305,2.4708161
0.24358846,4.7776895,-0.5515053,-0.22523674,-5.8353186,-3.7541082,-9.701305,2.4708161
0.23525827,4.776782,-0.5866591,-0.048402846,-5.596699,-5.439626,-9.964667,2.5187001
0.23261745,4.7764955,-0.5866591,-0.048402846,-5.596699,-5.439626,-9.964667,2.5187001
0.22771196,4.775859,-0.61542124,0.11032156,-5.3165345,-7.201759,-10.31901,2.552219
0.22252105,4.7751884,-0.61542124,0.11032156,-5.3165345,-7.201759,-10.31901,2.552219
0.21767388,4.7744727,-0.6303349,0.23708802,-4.99589,-8.892065,-10.577583,2.5761611
0.21283104,4.7737613,-0.6303349,0.23708802,-4.99589,-8.892065,-10.577583,2.5761611
0.20584144,4.772632,-0.62607384,0.3244397,-4.636896,-10.371682,-11.008539,2.542642
0.20384036,4.7723103,-0.62607384,0.3244397,-4.636896,-10.371682,-11.008539,2.542642
0.1997527,4.771605,-0.6047686,0.36598504,-4.244879,-11.530476,-11.123461,2.4756045
0.1956645,4.770903,-0.6047686,0.36598504,-4.244879,-11.530476,-11.123461,2.4756045
0.19197385,4.7702456,-0.5653538,0.35959345,-3.8230338,-12.0332575,-11.319786,2.5617957
0.18831949,4.7695966,-0.5653538,0.35959345,-3.8230338,-12.0332575,-11.319786,2.5617957
0.18508244,4.769012,-0.51209056,0.31165653,-3.3777533,-12.287044,-11.583148,2.5139117
0.18185793,4.7684317,-0.51209056,0.31165653,-3.3777533,-12.287044,-11.583148,2.5139117
0.17907406,4.7679343,-0.4449789,0.23389223,-2.920755,-12.315774,-11.482592,2.336741
0.17629829,4.7674403,-0.4449789,0.23389223,-2.920755,-12.315774,-11.482592,2.336741
0.17396466,4.7670403,-0.37360618,0.12949632,-2.470148,-11.942278,-11.410766,2.1739352
0.17163081,4.7666407,-0.37360618,0.12949632,-2.470148,-11.942278,-11.410766,2.1739352
0.16972364,4.766336,-0.30542925,0.003795111,-2.0365853,-11.358093,-11.463438,2.087744
0.1678164,4.7660317,-0.30542925,0.003795111,-2.0365853,-11.358093,-11.463438,2.087744
0.1663117,4.7658224,-0.24044813,-0.13575453,-1.6285892,-10.649409,-11.631032,2.1452048
0.16485521,4.76562,-0.17866279,-0.2838263,-1.2568119,-9.9790325,-11.803414,2.0494366
0.16371165,4.7655,-0.17866279,-0.2838263,-1.2568119,-9.9790325,-11.803414,2.0494366
0.16251667,4.765375,-0.17866279,-0.2838263,-1.2568119,-9.9790325,-11.803414,2.0494366
0.16163103,4.7653413,-0.11900798,-0.44148543,-0.919123,-9.112331,-11.927913,1.9488802
0.16087803,4.7653127,-0.11900798,-0.44148543,-0.919123,-9.112331,-11.927913,1.9488802
0.160372,4.7653685,-0.058287904,-0.60553616,-0.61445737,-8.039729,-12.014104,1.685518
0.15985769,4.7654257,-0.058287904,-0.60553616,-0.61445737,-8.039729,-12.014104,1.685518
0.15960172,4.765572,0.0024321685,-0.7685216,-0.34388018,-7.1059904,-12.052411,1.460463
0.15935124,4.7657146,0.0024321685,-0.7685216,-0.34388018,-7.1059904,-12.052411,1.460463
0.15933272,4.76595,0.06528277,-0.9283113,-0.10313042,-6.397307,-11.971008,1.1348516
0.15931512,4.7661724,0.06528277,-0.9283113,-0.10313042,-6.397307,-11.971008,1.1348516
0.15950583,4.766485,0.13026391,-1.0891662,0.112053,-5.5880666,-11.841722,0.81881696
0.15969703,4.766799,0.13026391,-1.0891662,0.112053,-5.5880666,-11.841722,0.81881696
0.16007224,4.767192,0.19204924,-1.2510865,0.30593112,-4.6160207,-11.621455,0.59376204
0.16044962,4.7675877,0.19204924,-1.2510865,0.30593112,-4.6160207,-11.621455,0.59376204
0.16099277,4.768054,0.25170404,-1.4098108,0.4838303,-3.6056678,-11.310209,0.40701428
0.16153559,4.768521,0.25170404,-1.4098108,0.4838303,-3.6056678,-11.310209,0.40701428
0.16221029,4.769036,0.30922833,-1.560013,0.6446852,-2.5953147,-10.97502,0.25378537
0.16288461,4.7695518,0.30922833,-1.560013,0.6446852,-2.5953147,-10.97502,0.25378537
0.16353348,4.7701006,0.35929576,-1.6963669,0.79062647,-1.5610195,-10.682928,0.18674773
0.16417986,4.7706504,0.35929576,-1.6963669,0.79062647,-1.5610195,-10.682928,0.18674773
0.1648694,4.771317,0.4061674,-1.8124808,0.92271924,-0.5506664,-10.333375,0.16280572
0.16555798,4.7719846,0.4061674,-1.8124808,0.92271924,-0.5506664,-10.333375,0.16280572
0.16634746,4.7727227,0.44664744,-1.906224,1.0409636,0.4261679,-10.012551,0.04309563
0.16713879,4.773465,0.44664744,-1.906224,1.0409636,0.4261679,-10.012551,0.04309563
0.16802083,4.7742634,0.48286644,-1.9765315,1.1421638,1.2880806,-9.80665,-0.033518825
0.16890126,4.7750635,0.48286644,-1.9765315,1.1421638,1.2880806,-9.80665,-0.033518825
0.16985583,4.7759037,0.5084328,-2.022338,1.2220585,2.2649148,-9.481039,-0.12928689
0.17080873,4.7767463,0.5084328,-2.022338,1.2220585,2.2649148,-9.481039,-0.12928689
0.17181726,4.777613,0.52760756,-2.0447085,1.2806481,3.1316159,-9.279925,-0.33518824
0.17282397,4.7784824,0.52760756,-2.0447085,1.2806481,3.1316159,-9.279925,-0.33518824
0.17386656,4.7793636,0.5371949,-2.0404475,1.3179324,3.7301662,-9.126697,-0.4405331
0.17490943,4.7802496,0.5371949,-2.0404475,1.3179324,3.7301662,-9.126697,-0.4405331
0.17596407,4.7811356,0.54039073,-2.0159464,1.3339113,4.3143516,-9.069236,-0.44532153
0.17702004,4.7820263,0.54039073,-2.0159464,1.3339113,4.3143516,-9.069236,-0.44532153
0.1780755,4.78291,0.5393255,-1.9722705,1.3339113,4.759673,-9.021352,-0.50757074
0.17913018,4.7837963,0.5393255,-1.9722705,1.3339113,4.759673,-9.021352,-0.50757074
0.18017371,4.78467,0.5350644,-1.9158114,1.3189976,5.0421886,-9.02614,-0.63206923
0.18121539,4.7855453,0.5350644,-1.9158114,1.3189976,5.0421886,-9.02614,-0.63206923
0.18223085,4.786402,0.5286728,-1.8486998,1.2913008,5.3007627,-9.083601,-0.6847417
0.18324572,4.787262,0.5286728,-1.8486998,1.2913008,5.3007627,-9.083601,-0.6847417
0.18422462,4.7881002,0.521216,-1.7751966,1.2529513,5.57849,-9.064447,-0.770933
0.18519112,4.788931,0.521216,-1.7751966,1.2529513,5.57849,-9.064447,-0.770933
0.18612674,4.7897496,0.51375914,-1.6931711,1.2050143,5.7748146,-9.006987,-0.8571242
0.18707779,4.7905846,0.51375914,-1.6931711,1.2050143,5.7748146,-9.006987,-0.8571242
0.1879588,4.791379,0.50630224,-1.603689,1.14749,6.0238113,-8.935161,-0.94331545
0.1888438,4.79218,0.50630224,-1.603689,1.14749,6.0238113,-8.935161,-0.94331545
0.18966717,4.7929506,0.49778014,-1.5056846,1.0814437,6.215348,-8.863335,-1.0821792
0.19048847,4.7937217,0.49778014,-1.5056846,1.0814437,6.215348,-8.863335,-1.0821792
0.19124533,4.7944603,0.48499697,-1.3948971,1.0079404,6.363788,-8.815451,-1.0630256
0.19200195,4.7952013,0.48499697,-1.3948971,1.0079404,6.363788,-8.815451,-1.0630256
0.19268359,4.7959013,0.46795273,-1.2723917,0.92484975,6.5122285,-8.734048,-0.9911995
0.19336568,4.796604,0.46795273,-1.2723917,0.92484975,6.5122285,-8.734048,-0.9911995
0.1939645,4.797258,0.44877797,-1.1381683,0.83323705,6.5361705,-8.686164,-0.9911995
0.19456553,4.797916,0.44877797,-1.1381683,0.83323705,6.5361705,-8.686164,-0.9911995
0.19507378,4.798522,0.42534214,-0.99542296,0.7299064,6.493075,-8.700529,-0.866701
0.19558148,4.7991285,0.42534214,-0.99542296,0.7299064,6.493075,-8.700529,-0.866701
0.1959841,4.7996764,0.3976453,-0.85161227,0.61379254,6.3829417,-8.63828,-0.842759
0.19638819,4.800227,0.3976453,-0.85161227,0.61379254,6.3829417,-8.63828,-0.842759
0.19668314,4.800714,0.36568734,-0.7078015,0.4923524,6.2249246,-8.619126,-0.8714894
0.19697681,4.8012,0.36568734,-0.7078015,0.4923524,6.2249246,-8.619126,-0.8714894
0.19715557,4.8016205,0.33053362,-0.5703824,0.36558592,5.9519854,-8.619126,-0.80445176
0.19733498,4.8020434,0.33053362,-0.5703824,0.36558592,5.9519854,-8.619126,-0.80445176
0.19739783,4.8024015,0.29644516,-0.4393549,0.2377542,5.559336,-8.590396,-0.79966336
0.19746049,4.8027596,0.29644516,-0.4393549,0.2377542,5.559336,-8.590396,-0.79966336
0.19741172,4.803057,0.26342195,-0.31898,0.11524879,5.195418,-8.590396,-0.7613561
0.19736272,4.803355,0.26342195,-0.31898,0.11524879,5.195418,-8.590396,-0.7613561
0.19721018,4.803597,0.23359455,-0.2113883,0.0012654932,4.8123455,-8.566454,-0.770933
0.19705695,4.8038397,0.23359455,-0.2113883,0.0012654932,4.8123455,-8.566454,-0.770933
0.19681229,4.804028,0.20376715,-0.11338398,-0.09993463,4.405331,-8.561666,-0.79008657
0.19656758,4.8042164,0.20376715,-0.11338398,-0.09993463,4.405331,-8.561666,-0.79008657
0.19624577,4.804359,0.17607027,-0.023901764,-0.18515578,4.0701427,-8.523358,-0.6464345
0.19592398,4.8045015,0.17607027,-0.023901764,-0.18515578,4.0701427,-8.523358,-0.6464345
0.19553927,4.804597,0.15050393,0.06558045,-0.25759378,3.7493198,-8.556877,-0.6512229
0.19515306,4.8046927,0.15050393,0.06558045,-0.25759378,3.7493198,-8.556877,-0.6512229
0.19471198,4.8047466,0.12600285,0.15825845,-0.32150963,3.4284968,-8.552089,-0.49320555
0.19427098,4.8048005,0.12600285,0.15825845,-0.32150963,3.4284968,-8.552089,-0.49320555
0.19378299,4.8048105,0.1004365,0.2498712,-0.37690338,3.0789435,-8.590396,-0.36870706
0.1932935,4.804821,0.1004365,0.2498712,-0.37690338,3.0789435,-8.590396,-0.36870706
0.19276401,4.804786,0.073804885,0.3393534,-0.4280361,2.7629087,-8.571242,-0.31603462
0.19224033,4.8047514,0.073804885,0.3393534,-0.4280361,2.7629087,-8.571242,-0.31603462
0.19167124,4.8046727,0.04823854,0.42244405,-0.47490773,2.3080103,-8.580819,-0.2633622
0.19109368,4.804592,0.04823854,0.42244405,-0.47490773,2.3080103,-8.580819,-0.2633622
0.19048873,4.804469,0.02160693,0.49701256,-0.5207141,1.8626889,-8.619126,-0.22505496
0.18988074,4.804346,0.02160693,0.49701256,-0.5207141,1.8626889,-8.619126,-0.22505496
0.18923879,4.8041773,-0.0039594183,0.5587979,-0.5654552,1.436521,-8.595184,-0.30645782
0.18859674,4.804009,-0.0039594183,0.5587979,-0.5654552,1.436521,-8.595184,-0.30645782
0.18792163,4.8038015,-0.0284605,0.60566956,-0.6070005,0.8714894,-8.6334915,-0.23942018
0.18724634,4.8035946,-0.0284605,0.60566956,-0.6070005,0.8714894,-8.6334915,-0.23942018
0.18654351,4.8033543,-0.049765788,0.63869274,-0.64535004,0.44532153,-8.6574335,-0.21068975
0.185837,4.803113,-0.049765788,0.63869274,-0.64535004,0.44532153,-8.6574335,-0.21068975
0.1851122,4.80284,-0.07000581,0.655737,-0.6762427,-0.033518825,-8.66701,-0.16759412
0.1843873,4.802568,-0.07000581,0.655737,-0.6762427,-0.033518825,-8.66701,-0.16759412
0.18365343,4.802273,-0.08811531,0.65893275,-0.6964827,-0.47405192,-8.7532015,-0.02873042
0.1829151,4.8019753,-0.08811531,0.65893275,-0.6964827,-0.47405192,-8.7532015,-0.02873042
0.1821888,4.8016562,-0.104094274,0.6493454,-0.7028743,-0.8523358,-8.834604,0.038307227
0.18146332,4.8013372,-0.104094274,0.6493454,-0.7028743,-0.8523358,-8.834604,0.038307227
0.18075892,4.8010025,-0.11581218,0.6312359,-0.70180905,-1.1683705,-8.916007,0.12928689
0.18005191,4.8006673,-0.11581218,0.6312359,-0.70180905,-1.1683705,-8.916007,0.12928689
0.17937267,4.8003235,-0.12539956,0.6067348,-0.6911564,-1.388637,-8.959103,0.2777274
0.17869335,4.7999797,-0.12539956,0.6067348,-0.6911564,-1.388637,-8.959103,0.2777274
0.17807502,4.799633,-0.13179116,0.57797265,-0.66878587,-1.5993267,-8.978256,0.31603462
0.17745025,4.799282,-0.13179116,0.57797265,-0.66878587,-1.5993267,-8.978256,0.31603462
0.17689423,4.798931,-0.13711748,0.54708,-0.63576263,-1.8243817,-8.973468,0.34476504
0.1763652,4.7985973,-0.13711748,0.54708,-0.63576263,-1.8243817,-8.973468,0.34476504
0.1759096,4.7982817,-0.14031327,0.5140568,-0.5952826,-2.0254946,-8.987833,0.38307226
0.17544684,4.7979608,-0.14031327,0.5140568,-0.5952826,-2.0254946,-8.987833,0.38307226
0.175049,4.797658,-0.14350906,0.4831641,-0.54841095,-2.255338,-9.150639,0.40222588
0.1746516,4.797355,-0.14350906,0.4831641,-0.54841095,-2.255338,-9.150639,0.40222588
0.1743138,4.7970676,-0.14777012,0.45120618,-0.49408248,-2.4660277,-9.279925,0.50757074
0.17399615,4.7967973,-0.14777012,0.45120618,-0.49408248,-2.4660277,-9.279925,0.50757074
0.17373164,4.796536,-0.14990065,0.4203135,-0.43549293,-2.6240451,-9.428367,0.5746084
0.17346562,4.796273,-0.14990065,0.4203135,-0.43549293,-2.6240451,-9.428367,0.5746084
0.17326681,4.796027,-0.15096591,0.39048612,-0.3705118,-2.7868507,-9.615114,0.63206923
0.17306626,4.7957788,-0.15096591,0.39048612,-0.3705118,-2.7868507,-9.615114,0.63206923
0.17293736,4.795555,-0.14883539,0.35852817,-0.30020434,-2.9879637,-9.835381,0.7422025
0.17280576,4.795328,-0.14883539,0.35852817,-0.30020434,-2.9879637,-9.835381,0.7422025
0.17274877,4.7951145,-0.14350906,0.3244397,-0.22457057,-3.0597897,-9.988609,0.7086837
0.17269117,4.7948985,-0.14350906,0.3244397,-0.22457057,-3.0597897,-9.988609,0.7086837
0.17271143,4.7947044,-0.13392168,0.28715545,-0.14361048,-3.083732,-10.160992,0.7661445
0.1727317,4.79451,-0.13392168,0.28715545,-0.14361048,-3.083732,-10.160992,0.7661445
0.17283128,4.7943425,-0.122203775,0.24774067,-0.060519844,-2.9975405,-10.25676,0.8283938
0.17293163,4.7941737,-0.122203775,0.24774067,-0.060519844,-2.9975405,-10.25676,0.8283938
0.17310958,4.7940216,-0.107290074,0.20939115,0.021505518,-2.9017725,-10.333375,0.78050977
0.17310958,4.7940216,-0.107290074,0.20939115,0.021505518,-2.9017725,-10.333375,0.78050977
0.17310958,4.7940216,-0.107290074,0.20939115,0.021505518,-2.9017725,-10.333375,0.78050977
0.17310958,4.7940216,-0.107290074,0.20939115,0.021505518,-2.9017725,-10.333375,0.78050977
0.1746809,4.793531,-0.07213634,0.14121422,0.17383833,-2.7102363,-10.419566,0.80924016
0.17507285,4.793429,-0.052961584,0.11245208,0.24308053,-2.6048915,-10.381259,0.7757214
0.17507285,4.793429,-0.052961584,0.11245208,0.24308053,-2.6048915,-10.381259,0.7757214
0.1756918,4.793299,-0.052961584,0.11245208,0.24308053,-2.6048915,-10.381259,0.7757214
0.17590557,4.7932816,-0.033786822,0.089016266,0.3101922,-2.4181437,-10.362105,0.8714894
0.17637467,4.7932434,-0.033786822,0.089016266,0.3101922,-2.4181437,-10.362105,0.8714894
0.17689927,4.7932158,-0.01674259,0.06877624,0.37410805,-2.2409728,-10.295067,0.82360536
0.17798728,4.793165,0.001366904,0.052797277,0.43163234,-2.1643584,-10.189722,0.7661445
0.17798728,4.793165,0.001366904,0.052797277,0.43163234,-2.1643584,-10.189722,0.7661445
0.17858304,4.793137,0.001366904,0.052797277,0.43163234,-2.1643584,-10.189722,0.7661445
0.17919831,4.7931175,0.018411135,0.049601484,0.48276502,-2.0446482,-10.113108,0.7613561
0.17981307,4.7930975,0.018411135,0.049601484,0.48276502,-2.0446482,-10.113108,0.7613561
0.18048005,4.793116,0.03545537,0.05599307,0.52644086,-2.0446482,-10.036493,0.79008657
0.18114899,4.7931337,0.03545537,0.05599307,0.52644086,-2.0446482,-10.036493,0.79008657
0.18185502,4.7931743,0.049303804,0.06664571,0.56479037,-2.111686,-10.055647,0.80445176
0.18256524,4.7932143,0.049303804,0.06664571,0.56479037,-2.111686,-10.055647,0.80445176
0.18329501,4.7933083,0.05995645,0.08049415,0.59568304,-2.1452048,-10.113108,0.90021986
0.18400764,4.793401,0.05995645,0.08049415,0.59568304,-2.1452048,-10.113108,0.90021986
0.18476847,4.793459,0.06954383,0.09221206,0.61698836,-2.1499932,-10.036493,0.80924016
0.18555062,4.793519,0.06954383,0.09221206,0.61698836,-2.1499932,-10.036493,0.80924016
0.18631248,4.793543,0.07806595,0.100734174,0.6329673,-2.135628,-10.055647,0.7326257
0.18707411,4.793565,0.07806595,0.100734174,0.6329673,-2.135628,-10.055647,0.7326257
0.18782228,4.793567,0.08445753,0.10925629,0.6425547,-2.135628,-10.089166,0.6655881
0.18857163,4.7935686,0.08445753,0.10925629,0.6425547,-2.135628,-10.089166,0.6655881
0.18932092,4.7935724,0.09084912,0.11564788,0.6468158,-2.1212628,-10.079589,0.6703765
0.19006507,4.793575,0.09084912,0.11564788,0.6468158,-2.1212628,-10.079589,0.6703765
0.19080238,4.7935815,0.09830597,0.11990894,0.6446852,-2.0973208,-10.132261,0.6991069
0.19154039,4.7935863,0.09830597,0.11990894,0.6446852,-2.0973208,-10.132261,0.6991069
0.19222905,4.7935853,0.10789335,0.118843675,0.6340326,-2.0829554,-10.108319,0.5793968
0.19291319,4.793584,0.10789335,0.118843675,0.6340326,-2.0829554,-10.108319,0.5793968
0.19356264,4.7935896,0.11748073,0.11351735,0.61698836,-2.030283,-10.0508585,0.5793968
0.19420871,4.793595,0.11748073,0.11351735,0.61698836,-2.030283,-10.0508585,0.5793968
0.19485454,4.7936144,0.12600285,0.10392997,0.591422,-2.0638018,-10.079589,0.6655881
0.19549416,4.7936325,0.12600285,0.10392997,0.591422,-2.0638018,-10.079589,0.6655881
0.19609141,4.793659,0.1334597,0.0911468,0.5573335,-2.054225,-10.084377,0.6751649
0.19668476,4.793685,0.1334597,0.0911468,0.5573335,-2.054225,-10.084377,0.6751649
0.19720642,4.7937164,0.13985129,0.07516783,0.518984,-2.0254946,-10.146626,0.6512229
0.19772765,4.7937484,0.13985129,0.07516783,0.518984,-2.0254946,-10.146626,0.6512229
0.19819398,4.7937913,0.14730814,0.05599307,0.47530818,-2.0207062,-10.151415,0.6847417
0.19865754,4.7938337,0.14730814,0.05599307,0.47530818,-2.0207062,-10.151415,0.6847417
0.19902252,4.7939005,0.15476498,0.032557253,0.4326976,-1.9632454,-10.170568,0.7182605
0.19938603,4.7939672,0.15476498,0.032557253,0.4326976,-1.9632454,-10.170568,0.7182605
0.1996937,4.794053,0.16435237,0.00592564,0.390087,-1.9201498,-10.208876,0.6895301
0.20000109,4.79414,0.16435237,0.00592564,0.390087,-1.9201498,-10.208876,0.6895301
0.20022309,4.794275,0.17287448,-0.020705972,0.34960696,-1.8866309,-10.13705,0.7661445
0.20044532,4.7944093,0.17287448,-0.020705972,0.34960696,-1.8866309,-10.13705,0.7661445
0.20061176,4.794608,0.18352713,-0.048402846,0.31125745,-1.9009962,-10.0748005,0.8283938
0.20077734,4.7948046,0.18352713,-0.048402846,0.31125745,-1.9009962,-10.0748005,0.8283938
0.20091127,4.79504,0.19204924,-0.07396919,0.27610373,-1.8387469,-10.0987425,0.8714894
0.20104411,4.7952733,0.19204924,-0.07396919,0.27610373,-1.8387469,-10.0987425,0.8714894
0.20114678,4.795513,0.20057136,-0.09633975,0.24947211,-1.8483237,-10.007763,0.8523358
0.20124894,4.795751,0.20057136,-0.09633975,0.24947211,-1.8483237,-10.007763,0.8523358
0.20135102,4.7960443,0.20909347,-0.11444924,0.2260363,-1.8195933,-9.92636,0.93373865
0.2014518,4.796337,0.20909347,-0.11444924,0.2260363,-1.8195933,-9.92636,0.93373865
0.20152764,4.7966356,0.21655032,-0.12829769,0.20579627,-1.757344,-9.840169,0.93852705
0.20160246,4.7969327,0.21655032,-0.12829769,0.20579627,-1.757344,-9.840169,0.93852705
0.20165691,4.797232,0.2229419,-0.13575453,0.18981731,-1.6903064,-9.782708,0.94331545
0.20171012,4.7975287,0.2229419,-0.13575453,0.18981731,-1.6903064,-9.782708,0.94331545
0.2017738,4.7978554,0.22720297,-0.14108086,0.17916466,-1.661576,-9.696517,1.0342951
0.201837,4.7981825,0.22720297,-0.14108086,0.17916466,-1.661576,-9.696517,1.0342951
0.20188895,4.798505,0.22933349,-0.14001559,0.17383833,-1.6328455,-9.624691,1.0151415
0.20193973,4.7988243,0.22933349,-0.14001559,0.17383833,-1.6328455,-9.624691,1.0151415
0.20201828,4.799168,0.23039876,-0.13468927,0.16957727,-1.7190368,-9.605537,1.091756
0.20209564,4.79951,0.23039876,-0.13468927,0.16957727,-1.7190368,-9.605537,1.091756
0.20215587,4.799842,0.23039876,-0.12723242,0.16744675,-1.661576,-9.495404,1.043872
0.20221545,4.8001738,0.23039876,-0.12723242,0.16744675,-1.661576,-9.495404,1.043872
0.20229158,4.800513,0.23146403,-0.11657977,0.16957727,-1.7956513,-9.509769,0.9911995
0.20236611,4.800851,0.23146403,-0.11657977,0.16957727,-1.7956513,-9.509769,0.9911995
0.20248094,4.801201,0.2325293,-0.10273133,0.1749036,-1.8483237,-9.461885,1.0247183
0.20259416,4.8015504,0.2325293,-0.10273133,0.1749036,-1.8483237,-9.461885,1.0247183
0.2027392,4.8019032,0.23146403,-0.09207869,0.17916466,-1.8914193,-9.409213,1.0390835
0.20288281,4.8022556,0.23146403,-0.09207869,0.17916466,-1.8914193,-9.409213,1.0390835
0.20303178,4.8026037,0.22933349,-0.08249131,0.18236046,-1.8770541,-9.361329,1.0726024
0.20317975,4.8029523,0.22933349,-0.08249131,0.18236046,-1.8770541,-9.361329,1.0726024
0.20332801,4.803296,0.22720297,-0.07503446,0.18768677,-1.8626889,-9.303867,1.0390835
0.2034755,4.803641,0.22720297,-0.07503446,0.18768677,-1.8626889,-9.303867,1.0390835
0.20361742,4.80399,0.22400717,-0.0707734,0.19514363,-1.7956513,-9.3421755,1.1061212
0.20375201,4.804323,0.22400717,-0.0707734,0.19514363,-1.7956513,-9.3421755,1.1061212
0.2038567,4.804633,0.22187665,-0.0707734,0.19727415,-1.7286136,-9.337387,1.0630256
0.20396546,4.8049583,0.22187665,-0.0707734,0.19727415,-1.7286136,-9.337387,1.0630256
0.20404091,4.805246,0.21761559,-0.07290393,0.19833942,-1.6472107,-9.289502,1.0007763
0.2041172,4.805538,0.21761559,-0.07290393,0.19833942,-1.6472107,-9.289502,1.0007763
0.20420562,4.8058405,0.21228927,-0.07609972,0.19727415,-1.5993267,-9.227253,1.067814
0.20429151,4.806136,0.21228927,-0.07609972,0.19727415,-1.5993267,-9.227253,1.067814
0.20437093,4.8064246,0.20589767,-0.08036078,0.19514363,-1.5131354,-9.212888,1.0965444
0.20444979,4.8067126,0.20589767,-0.08036078,0.19514363,-1.5131354,-9.212888,1.0965444
0.20452076,4.8069887,0.19844083,-0.08462184,0.1930131,-1.4317327,-9.198523,1.1061212
0.20459116,4.8072653,0.19844083,-0.08462184,0.1930131,-1.4317327,-9.198523,1.1061212
0.2046521,4.8075256,0.19098398,-0.08675237,0.19088256,-1.364695,-9.136273,1.0773908
0.20471267,4.807786,0.19098398,-0.08675237,0.19088256,-1.364695,-9.136273,1.0773908
0.20476632,4.8080306,0.18352713,-0.08675237,0.18981731,-1.2689269,-9.078813,1.0534488
0.20481956,4.8082743,0.18352713,-0.08675237,0.18981731,-1.2689269,-9.078813,1.0534488
0.20487298,4.8085136,0.175005,-0.08462184,0.1866215,-1.1923125,-9.064447,1.1061212
0.2049262,4.808752,0.175005,-0.08462184,0.1866215,-1.1923125,-9.064447,1.1061212
0.20497432,4.808977,0.16541763,-0.07609972,0.18236046,-1.1444284,-9.030929,1.1013328
0.20502216,4.809202,0.16541763,-0.07609972,0.18236046,-1.1444284,-9.030929,1.1013328
0.20506045,4.809409,0.15583025,-0.064381815,0.1749036,-1.1348516,-8.983045,1.0630256
0.20509855,4.809615,0.15583025,-0.064381815,0.1749036,-1.1348516,-8.983045,1.0630256
0.20513746,4.809815,0.14411235,-0.04946811,0.16957727,-1.1875241,-8.99741,1.1013328
0.20517606,4.8100142,0.14411235,-0.04946811,0.16957727,-1.1875241,-8.99741,1.1013328
0.20520495,4.8101864,0.13026391,-0.028162822,0.16318569,-1.283292,-9.059659,1.0342951
0.20523362,4.810358,0.13026391,-0.028162822,0.16318569,-1.283292,-9.059659,1.0342951
0.20526804,4.8105288,0.11641546,-0.0047270046,0.15466358,-1.4173675,-9.112331,1.0965444
0.20530224,4.8106995,0.11641546,-0.0047270046,0.15466358,-1.4173675,-9.112331,1.0965444
0.20536068,4.810878,0.10363229,0.019774077,0.14720672,-1.5945383,-9.107543,1.1540052
0.20541869,4.811055,0.10363229,0.019774077,0.14720672,-1.5945383,-9.107543,1.1540052
0.20550746,4.8112335,0.091914386,0.040014103,0.14188041,-1.7764976,-9.150639,1.1300632
0.20559517,4.8114114,0.091914386,0.040014103,0.14188041,-1.7764976,-9.150639,1.1300632
0.20570019,4.8115788,0.07913121,0.054927804,0.13655408,-1.8291701,-9.193734,1.1779473
0.2058047,4.8117456,0.07913121,0.054927804,0.13655408,-1.8291701,-9.193734,1.1779473
0.2059205,4.811905,0.07060909,0.06344992,0.13442355,-1.8914193,-9.208099,1.091756
0.2060356,4.812064,0.07060909,0.06344992,0.13442355,-1.8914193,-9.208099,1.091756
0.20618083,4.812217,0.06315224,0.06664571,0.13548881,-1.9536686,-9.232041,1.1731589
0.20632543,4.8123703,0.06315224,0.06664571,0.13548881,-1.9536686,-9.232041,1.1731589
0.20647697,4.8125153,0.054630127,0.062384658,0.13548881,-1.9680338,-9.260772,1.0821792
0.20662777,4.812661,0.054630127,0.062384658,0.13548881,-1.9680338,-9.260772,1.0821792
0.20675533,4.8128004,0.047173277,0.052797277,0.13548881,-1.9201498,-9.222465,1.1348516
0.20688209,4.8129396,0.047173277,0.052797277,0.13548881,-1.9201498,-9.222465,1.1348516
0.20699595,4.813076,0.04291222,0.038948838,0.13761935,-1.8770541,-9.203311,1.1731589
0.20710926,4.8132124,0.04291222,0.038948838,0.13761935,-1.8770541,-9.203311,1.1731589
0.20716979,4.813328,0.037585896,0.024035135,0.14188041,-1.7381904,-9.251195,1.13964
0.20722985,4.813443,0.037585896,0.024035135,0.14188041,-1.7381904,-9.251195,1.13964
0.20727405,4.813544,0.032259572,0.012317227,0.1450762,-1.6950948,-9.303867,1.1204864
0.20731792,4.813644,0.032259572,0.012317227,0.1450762,-1.6950948,-9.303867,1.1204864
0.20734535,4.813719,0.024802722,0.003795111,0.14933725,-1.5610195,-9.260772,1.091756
0.20737253,4.8137937,0.024802722,0.003795111,0.14933725,-1.5610195,-9.260772,1.091756
0.20739919,4.813857,0.019476399,0.0005993177,0.15359831,-1.484405,-9.208099,1.0821792
0.20742571,4.8139205,0.019476399,0.0005993177,0.15359831,-1.484405,-9.208099,1.0821792
0.20745517,4.8139763,0.0141500775,-0.00046594674,0.15785937,-1.4173675,-9.227253,1.0965444
0.20748456,4.8140326,0.0141500775,-0.00046594674,0.15785937,-1.4173675,-9.227253,1.0965444
0.20750658,4.814059,0.0077584907,0.0027298466,0.1599899,-1.3599066,-9.222465,1.0055647
0.20752856,4.814085,0.0077584907,0.0027298466,0.1599899,-1.3599066,-9.222465,1.0055647
0.20755173,4.8141108,0.0024321685,0.0069909045,0.15892464,-1.4030021,-9.179369,1.0199299
0.20757496,4.8141365,0.0024321685,0.0069909045,0.15892464,-1.4030021,-9.179369,1.0199299
0.20759691,4.8141575,-0.0028941538,0.012317227,0.1567941,-1.4030021,-9.212888,1.0295067
0.2076189,4.814178,-0.0028941538,0.012317227,0.1567941,-1.4030021,-9.212888,1.0295067
0.20764156,4.8141937,-0.009285741,0.018708814,0.15572885,-1.4556746,-9.255983,1.0390835
0.2076643,4.81421,-0.009285741,0.018708814,0.15572885,-1.4556746,-9.255983,1.0390835
0.20768335,4.814218,-0.01674259,0.022969872,0.15146779,-1.5227122,-9.361329,1.043872
0.20770241,4.814226,-0.01674259,0.022969872,0.15146779,-1.5227122,-9.361329,1.043872
0.20771672,4.81423,-0.024199443,0.024035135,0.1450762,-1.5658079,-9.332599,1.043872
0.207731,4.814234,-0.024199443,0.024035135,0.1450762,-1.5658079,-9.332599,1.043872
0.2077537,4.8142495,-0.029525764,0.024035135,0.14294566,-1.6041151,-9.375694,1.1013328
0.20777626,4.8142653,-0.029525764,0.024035135,0.14294566,-1.6041151,-9.375694,1.1013328
0.20778829,4.814268,-0.031656295,0.021904606,0.13974987,-1.5993267,-9.370906,1.0630256
0.20780028,4.814271,-0.031656295,0.021904606,0.13974987,-1.5993267,-9.370906,1.0630256
0.20781739,4.814267,-0.033786822,0.016578285,0.1386846,-1.5275006,-9.370906,1.067814
0.20781739,4.814267,-0.033786822,0.016578285,0.1386846,-1.5275006,-9.370906,1.067814
0.20782425,4.8142567,-0.035917353,0.010186698,0.13974987,-1.4891934,-9.3182335,1.043872
0.20783025,4.8142476,-0.035917353,0.010186698,0.13974987,-1.4891934,-9.3182335,1.043872
0.20783624,4.8142347,-0.03698262,0.00592564,0.14294566,-1.4748282,-9.385271,1.0342951
0.20784283,4.8142204,-0.03698262,0.00592564,0.14294566,-1.4748282,-9.385271,1.0342951
0.20784283,4.8142204,-0.03698262,0.00592564,0.14294566,-1.4748282,-9.385271,1.0342951
0.20784283,4.8142204,-0.03698262,0.00592564,0.14294566,-1.4748282,-9.385271,1.0342951
0.20790713,4.8141966,-0.042308938,0.0016645822,0.15466358,-1.3790601,-9.303867,1.0534488
0.20791216,4.814193,-0.042308938,0.0016645822,0.15466358,-1.3790601,-9.303867,1.0534488
0.20793895,4.8141665,-0.043374203,0.0016645822,0.16212043,-1.3024458,-9.361329,1.0342951
0.20796065,4.814145,-0.043374203,0.0016645822,0.16212043,-1.3024458,-9.361329,1.0342951
0.20799105,4.814116,-0.045504734,0.0069909045,0.16957727,-1.2785037,-9.356541,1.0199299
0.20802246,4.814086,-0.045504734,0.0069909045,0.16957727,-1.2785037,-9.356541,1.0199299
0.20805918,4.8140464,-0.04763526,0.01551302,0.1749036,-1.1587936,-9.375694,1.0007763
0.20809579,4.814007,-0.04763526,0.01551302,0.1749036,-1.1587936,-9.375694,1.0007763
0.20813629,4.8139615,-0.04763526,0.02723093,0.1780994,-1.1252748,-9.394848,0.9816227
0.20817693,4.8139157,-0.04763526,0.02723093,0.1780994,-1.1252748,-9.394848,0.9816227
0.20821564,4.813864,-0.048700526,0.043209895,0.1749036,-1.043872,-9.452309,0.9768343
0.20825459,4.8138123,-0.048700526,0.043209895,0.1749036,-1.043872,-9.452309,0.9768343
0.20828769,4.8137426,-0.050831053,0.060254127,0.16744675,-1.0582372,-9.452309,0.90021986
0.20832057,4.813673,-0.050831053,0.060254127,0.16744675,-1.0582372,-9.452309,0.90021986
0.2083438,4.8135886,-0.052961584,0.07836362,0.15466358,-1.0390835,-9.552865,0.842759
0.20836702,4.813504,-0.052961584,0.07836362,0.15466358,-1.0390835,-9.552865,0.842759
0.20837265,4.8134217,-0.05509211,0.09327733,0.13655408,-1.1061212,-9.629479,0.90979666
0.20837831,4.8133397,-0.05509211,0.09327733,0.13655408,-1.1061212,-9.629479,0.90979666
0.20836248,4.8132486,-0.05509211,0.104995236,0.11311826,-1.1348516,-9.715671,0.8810662
0.20834664,4.813158,-0.05509211,0.104995236,0.11311826,-1.1348516,-9.715671,0.8810662
0.20830484,4.8130646,-0.056157377,0.11032156,0.08648665,-1.2018893,-9.782708,0.89064306
0.20825216,4.8129463,-0.056157377,0.11032156,0.08648665,-1.2018893,-9.782708,0.89064306
0.2082021,4.8128633,-0.056157377,0.11351735,0.05772451,-1.2497733,-9.825804,0.80924016
0.2081108,4.8127127,-0.05402685,0.11138682,0.027897105,-1.2401965,-9.940725,0.842759
0.20804745,4.812646,-0.05402685,0.11138682,0.027897105,-1.2401965,-9.940725,0.842759
0.20795202,4.812546,-0.05402685,0.11138682,0.027897105,-1.2401965,-9.940725,0.842759
0.2078244,4.812458,-0.048700526,0.10819103,-0.0029955646,-1.2545617,-9.931149,0.89064306
0.20769389,4.812369,-0.048700526,0.10819103,-0.0029955646,-1.2545617,-9.931149,0.89064306
0.20753093,4.812297,-0.043374203,0.10712577,-0.033888236,-1.2689269,-9.998186,0.9720459
0.20736799,4.8122253,-0.043374203,0.10712577,-0.033888236,-1.2689269,-9.998186,0.9720459
0.20717694,4.812157,-0.03698262,0.10925629,-0.062650375,-1.3551182,-10.012551,0.9672575
0.20698541,4.8120894,-0.03698262,0.10925629,-0.062650375,-1.3551182,-10.012551,0.9672575
0.20676711,4.812029,-0.032721557,0.11564788,-0.09034725,-1.364695,-10.103531,1.0007763
0.2065484,4.8119683,-0.032721557,0.11564788,-0.09034725,-1.364695,-10.103531,1.0007763
0.20630474,4.811921,-0.026329972,0.12630053,-0.11804412,-1.4317327,-10.103531,1.0486604
0.20606354,4.8118753,-0.026329972,0.12630053,-0.11804412,-1.5227122,-10.103531,0.94810385
0.20579378,4.8118076,-0.021003649,0.1390837,-0.145741,-1.5227122,-10.103531,0.94810385
0.20551948,4.811739,-0.021003649,0.1390837,-0.145741,-1.5227122,-10.103531,0.94810385
0.20522426,4.8117094,-0.015677327,0.15506266,-0.1755684,-1.6711528,-10.156203,1.0821792
0.20493062,4.81168,-0.015677327,0.15506266,-0.1755684,-1.8674773,-10.156203,1.0247183
0.20460771,4.811638,-0.010351005,0.16784583,-0.20113476,-1.8674773,-10.156203,1.0247183
0.20428297,4.8115964,-0.010351005,0.16784583,-0.20113476,-1.8674773,-10.156203,1.0247183
0.20393462,4.8115406,-0.006089947,0.17743322,-0.22776636,-2.030283,-10.261548,1.0151415
0.20358582,4.8114853,-0.006089947,0.17743322,-0.22776636,-2.030283,-10.261548,1.0151415
0.2034171,4.8115335,0.00030163955,0.18062901,-0.25226745,-2.2122424,-10.342952,1.115698
0.20325042,4.811581,0.00030163955,0.18062901,-0.25226745,-2.2122424,-10.342952,1.115698
0.20311256,4.8116045,0.008823755,0.17743322,-0.27357274,-2.4037786,-10.338163,1.1492168
0.20297448,4.811627,0.008823755,0.17743322,-0.27357274,-2.4037786,-10.338163,1.1492168
0.20284092,4.811625,0.017345872,0.1689111,-0.28848645,-2.4899697,-10.357317,1.0821792
0.2027077,4.8116226,0.017345872,0.1689111,-0.28848645,-2.4899697,-10.357317,1.0821792
0.20256275,4.8116183,0.026933251,0.1539974,-0.30233487,-2.5139117,-10.31901,1.043872
0.2024171,4.8116136,0.026933251,0.1539974,-0.30233487,-2.5139117,-10.31901,1.043872
0.20225252,4.8116455,0.037585896,0.1358879,-0.3140528,-2.6048915,-10.271125,1.1204864
0.20208816,4.811677,0.037585896,0.1358879,-0.3140528,-2.6048915,-10.271125,1.1204864
0.20192088,4.8117166,0.049303804,0.11458261,-0.31724858,-2.6240451,-10.232818,1.091756
0.20175397,4.811756,0.049303804,0.11458261,-0.31724858,-2.6240451,-10.232818,1.091756
0.20158389,4.8118095,0.05995645,0.09647312,-0.31831384,-2.7389667,-10.180145,1.1061212
0.20141384,4.8118634,0.05995645,0.09647312,-0.31831384,-2.7389667,-10.180145,1.1061212
0.20124601,4.8119326,0.06954383,0.07836362,-0.3140528,-2.7581203,-10.070012,1.1109096
0.2010777,4.812001,0.06954383,0.07836362,-0.3140528,-2.7581203,-10.070012,1.1109096
0.2009188,4.8120813,0.07913121,0.062384658,-0.30340013,-2.8634653,-10.007763,1.1109096
0.20076045,4.8121605,0.07913121,0.062384658,-0.30340013,-2.8634653,-10.007763,1.1109096
0.20061068,4.81226,0.08871859,0.049601484,-0.29061696,-2.9017725,-9.969456,1.163582
0.20046104,4.81236,0.08871859,0.049601484,-0.29061696,-2.9017725,-9.969456,1.163582
0.20032339,4.8124766,0.0972407,0.03468778,-0.274638,-2.9113493,-9.888053,1.2018893
0.20018552,4.8125935,0.0972407,0.03468778,-0.274638,-2.9113493,-9.888053,1.2018893
0.20006408,4.8127246,0.10363229,0.021904606,-0.254398,-2.930503,-9.80665,1.2401965
0.1999428,4.8128552,0.10363229,0.021904606,-0.254398,-2.930503,-9.80665,1.2401965
0.19984715,4.8129854,0.11002388,0.008056169,-0.23202743,-2.9352913,-9.768343,1.1683705
0.19975142,4.8131166,0.11002388,0.008056169,-0.23202743,-2.9352913,-9.768343,1.1683705
0.19967645,4.813258,0.1153502,-0.0068575335,-0.20859161,-2.954445,-9.763555,1.1923125
0.19960149,4.8134003,0.1153502,-0.0068575335,-0.20859161,-2.954445,-9.763555,1.1923125
0.19954547,4.813555,0.118545994,-0.021771235,-0.18515578,-2.8778305,-9.739613,1.2210429
0.19948922,4.8137097,0.118545994,-0.021771235,-0.18515578,-2.815581,-9.706094,1.2401965
0.19945624,4.8138766,0.12174179,-0.03988073,-0.15745892,-2.815581,-9.706094,1.2401965
0.19942248,4.8140483,0.12174179,-0.03988073,-0.15745892,-2.815581,-9.706094,1.2401965
0.1994191,4.814202,0.12387232,-0.059055492,-0.13295783,-2.7581203,-9.677363,1.1348516
0.19941585,4.81436,0.12387232,-0.059055492,-0.13295783,-2.7581203,-9.677363,1.1348516
0.19943048,4.814534,0.1270681,-0.078230254,-0.10952201,-2.6192567,-9.634268,1.1492168
0.19944525,4.8147073,0.13026391,-0.09740501,-0.08715145,-2.528277,-9.610326,1.0869676
0.19948421,4.81488,0.13026391,-0.09740501,-0.08715145,-2.528277,-9.610326,1.0869676
0.19952366,4.815053,0.13026391,-0.09740501,-0.08715145,-2.528277,-9.610326,1.0869676
0.1995687,4.815254,0.1334597,-0.11551451,-0.0679767,-2.4612393,-9.562442,1.1683705
0.19961393,4.8154554,0.1334597,-0.11551451,-0.0679767,-2.4612393,-9.562442,1.1683705
0.19968192,4.815651,0.13559023,-0.13468927,-0.0498672,-2.327164,-9.504981,1.0821792
0.1997506,4.815847,0.13559023,-0.13468927,-0.0498672,-2.327164,-9.504981,1.0821792
0.19982117,4.816072,0.13772075,-0.15279876,-0.029627176,-2.1978772,-9.476251,1.1109096
0.19989228,4.8162966,0.13772075,-0.15279876,-0.029627176,-2.1978772,-9.476251,1.1109096
0.19995746,4.8165417,0.13772075,-0.16771246,-0.012582945,-2.111686,-9.433155,1.1252748
0.20002359,4.8167877,0.13772075,-0.16771246,-0.012582945,-2.111686,-9.433155,1.1252748
0.2000552,4.8170576,0.13772075,-0.1815609,0.0033960221,-1.9776106,-9.414001,1.0965444
0.2000875,4.8173275,0.13772075,-0.1815609,0.0033960221,-1.9776106,-9.414001,1.0965444
0.2000229,4.8175917,0.13559023,-0.19434407,0.020440254,-1.8100165,-9.346964,1.115698
0.19995755,4.8178554,0.13559023,-0.19434407,0.020440254,-1.8100165,-9.346964,1.115698
0.1998569,4.8180866,0.13452496,-0.20606199,0.03641922,-1.6567876,-9.32781,1.1013328
0.19975503,4.818319,0.13452496,-0.20606199,0.03641922,-1.6567876,-9.32781,1.1013328
0.1996579,4.8185377,0.13239443,-0.21671464,0.05133292,-1.5035586,-9.26556,1.1109096
0.19955999,4.818757,0.13239443,-0.21671464,0.05133292,-1.5035586,-9.26556,1.1109096
0.19946809,4.818963,0.12919864,-0.22204095,0.0641161,-1.436521,-9.184157,1.0773908
0.1993759,4.819168,0.12919864,-0.22204095,0.0641161,-1.436521,-9.184157,1.0773908
0.19929811,4.8193674,0.12493758,-0.22630201,0.08009506,-1.3215994,-9.169792,1.091756
0.19922,4.819567,0.12493758,-0.22630201,0.08009506,-1.3215994,-9.169792,1.091756
0.19915375,4.8197575,0.12174179,-0.22843254,0.0939435,-1.2162545,-9.102755,1.0773908
0.19908683,4.819949,0.12174179,-0.22843254,0.0939435,-1.2162545,-9.102755,1.0773908
0.19903214,4.8201327,0.11641546,-0.22843254,0.106726676,-1.1587936,-9.069236,1.0726024
0.1989773,4.8203163,0.11641546,-0.22843254,0.106726676,-1.1587936,-9.069236,1.0726024
0.19893649,4.8204823,0.11002388,-0.22523674,0.12270564,-1.0055647,-9.064447,1.0342951
0.19889534,4.820649,0.11002388,-0.22523674,0.12270564,-1.0055647,-9.064447,1.0342951
0.19886822,4.8208055,0.102567025,-0.21991043,0.13655408,-0.9672575,-8.954314,1.0103531
0.198841,4.820961,0.102567025,-0.21991043,0.13655408,-0.9672575,-8.954314,1.0103531
0.19883254,4.8211155,0.09297965,-0.21351884,0.15253304,-0.8762778,-8.896853,1.0726024
0.19882394,4.8212705,0.09297965,-0.21351884,0.15253304,-0.8762778,-8.896853,1.0726024
0.19883196,4.8214025,0.08445753,-0.20393145,0.17064254,-0.81881696,-8.872911,0.9911995
0.19883998,4.821534,0.08445753,-0.20393145,0.17064254,-0.81881696,-8.872911,0.9911995
0.19886869,4.8216653,0.07700068,-0.19221355,0.18875204,-0.7326257,-8.858546,1.0582372
0.19889724,4.821796,0.07700068,-0.19221355,0.18875204,-0.7326257,-8.858546,1.0582372
0.19894174,4.8219037,0.06954383,-0.17623459,0.204731,-0.6560113,-8.834604,0.9624691
0.19898696,4.8220134,0.06954383,-0.17623459,0.204731,-0.6560113,-8.834604,0.9624691
0.1990462,4.822106,0.05995645,-0.15705982,0.21751417,-0.5746084,-8.78672,0.93373865
0.19910511,4.8221974,0.05995645,-0.15705982,0.21751417,-0.5746084,-8.78672,0.93373865
0.19924247,4.82234,0.05036907,-0.13255873,0.22390577,-0.51714754,-8.853758,0.8810662
0.19924247,4.82234,0.05036907,-0.13255873,0.22390577,-0.51714754,-8.853758,0.8810662
0.19931936,4.8223915,0.040781688,-0.10166607,0.2260363,-0.50278234,-8.882488,0.8283938
0.19939299,4.82244,0.040781688,-0.10166607,0.2260363,-0.50278234,-8.882488,0.8283938
0.19946611,4.8224845,0.030129045,-0.06544708,0.22177523,-0.5315128,-8.925584,0.9528923
0.19953918,4.822528,0.030129045,-0.06544708,0.22177523,-0.5315128,-8.925584,0.9528923
0.19960633,4.8225465,0.018411135,-0.026032293,0.21005733,-0.61770403,-9.054871,0.91458505
0.19967182,4.822564,0.018411135,-0.026032293,0.21005733,-0.61770403,-9.054871,0.91458505
0.19972603,4.8225536,0.0066932263,0.012317227,0.19088256,-0.6943185,-9.093178,0.8523358
0.19977647,4.822543,0.0066932263,0.012317227,0.19088256,-0.6943185,-9.093178,0.8523358
0.1998077,4.8225074,-0.0050246827,0.047470953,0.16425095,-0.7230489,-9.222465,0.81402856
0.19983919,4.8224707,-0.0050246827,0.047470953,0.16425095,-0.7230489,-9.222465,0.81402856
0.19984303,4.822405,-0.018873122,0.0762331,0.13016249,-0.79487497,-9.390059,0.7613561
0.19984679,4.8223395,-0.018873122,0.0762331,0.13016249,-0.79487497,-9.390059,0.7613561
0.19981453,4.82225,-0.029525764,0.100734174,0.087551914,-0.8571242,-9.500193,0.7182605
0.1997822,4.8221607,-0.029525764,0.100734174,0.087551914,-0.8571242,-9.500193,0.7182605
0.19970025,4.822058,-0.03698262,0.118843675,0.035353955,-0.90979666,-9.629479,0.7326257
0.19961828,4.8219557,-0.03698262,0.118843675,0.035353955,-0.90979666,-9.629479,0.7326257
0.19948749,4.8218412,-0.041243672,0.13269211,-0.017909266,-1.0151415,-9.758766,0.7374141
0.19935654,4.821727,-0.041243672,0.13269211,-0.017909266,-1.0151415,-9.758766,0.7374141
0.19917186,4.821601,-0.046569996,0.14121422,-0.075433545,-1.0869676,-9.902418,0.7374141
