Pitch,Roll,Gyro_X,Gyro_Y,Gyro_Z,Accel_X,Accel_Y,Accel_Z
0.08188407,4.5747614,0.025867987,0.03681831,0.035353955,-0.6895301,-9.442732,-1.4652514
0.08186096,4.5746984,0.025867987,0.03681831,0.035353955,-0.6895301,-9.442732,-1.4652514
0.08186482,4.5746202,0.02160693,0.037883572,0.042810805,-0.7469909,-9.461885,-1.4221559
0.08186847,4.574542,0.02160693,0.037883572,0.042810805,-0.7469909,-9.461885,-1.4221559
0.08186625,4.574461,0.017345872,0.038948838,0.05133292,-0.7230489,-9.481039,-1.4413095
0.08186382,4.574381,0.017345872,0.038948838,0.05133292,-0.7230489,-9.481039,-1.4413095
0.08188971,4.574294,0.015215342,0.04107937,0.056659244,-0.7613561,-9.471462,-1.412579
0.08191505,4.5742064,0.015215342,0.04107937,0.056659244,-0.7613561,-9.471462,-1.412579
0.08199063,4.5741153,0.012019549,0.04214463,0.0609203,-0.80924016,-9.44752,-1.4317327
0.08206541,4.574024,0.012019549,0.04214463,0.0609203,-0.80924016,-9.44752,-1.4317327
0.08207878,4.5739346,0.00988902,0.043209895,0.061985567,-0.7326257,-9.41879,-1.4269443
0.082091674,4.573845,0.00988902,0.043209895,0.061985567,-0.7326257,-9.41879,-1.4269443
0.08212402,4.573752,0.00988902,0.04427516,0.06305083,-0.7565677,-9.394848,-1.412579
0.082155734,4.573659,0.00988902,0.04427516,0.06305083,-0.7565677,-9.394848,-1.412579
0.08214914,4.573576,0.010954284,0.046405688,0.061985567,-0.7278373,-9.404425,-1.3934253
0.08214224,4.573493,0.010954284,0.046405688,0.061985567,-0.7278373,-9.404425,-1.3934253
0.082147636,4.573407,0.013084813,0.04853622,0.059855036,-0.7422025,-9.3661175,-1.3838485
0.08215249,4.5733223,0.013084813,0.04853622,0.059855036,-0.7422025,-9.3661175,-1.3838485
0.08209402,4.573177,0.018411135,0.050666746,0.054528717,-0.7038953,-9.385271,-1.388637
0.08205637,4.5731087,0.018411135,0.050666746,0.054528717,-0.7038953,-9.385271,-1.388637
0.08205637,4.5731087,0.018411135,0.050666746,0.054528717,-0.7038953,-9.385271,-1.388637
0.08202173,4.573046,0.018411135,0.050666746,0.054528717,-0.7038953,-9.385271,-1.388637
0.08202173,4.573046,0.018411135,0.050666746,0.054528717,-0.7038953,-9.385271,-1.388637
0.08199445,4.5728884,0.02160693,0.053862542,0.049202394,-0.7134721,-9.356541,-1.4221559
0.0819921,4.5728164,0.023737457,0.05599307,0.044941336,-0.7613561,-9.390059,-1.3694834
0.08199328,4.5727415,0.023737457,0.05599307,0.044941336,-0.7613561,-9.390059,-1.3694834
0.081973545,4.572668,0.023737457,0.05599307,0.040680278,-0.7469909,-9.409213,-1.3838485
0.081973545,4.572668,0.023737457,0.05599307,0.040680278,-0.7469909,-9.409213,-1.3838485
0.08193132,4.5725136,0.023737457,0.05599307,0.040680278,-0.7469909,-9.409213,-1.3838485
0.0819277,4.5726204,0.025867987,0.057058334,0.037484486,-0.770933,-9.414001,-1.2976574
0.08189834,4.572736,0.027998514,0.057058334,0.032158162,-0.7565677,-9.404425,-1.283292
0.08186839,4.5728507,0.027998514,0.057058334,0.032158162,-0.7565677,-9.404425,-1.283292
0.08181257,4.572959,0.027998514,0.057058334,0.02683184,-0.7613561,-9.442732,-1.3024458
0.081755966,4.573066,0.027998514,0.057058334,0.02683184,-0.7613561,-9.442732,-1.3024458
0.08174828,4.57319,0.02906378,0.05599307,0.022570781,-0.7613561,-9.394848,-1.2497733
0.08174045,4.573312,0.02906378,0.05599307,0.022570781,-0.7613561,-9.394848,-1.2497733
0.08170658,4.573433,0.032259572,0.053862542,0.020440254,-0.7326257,-9.461885,-1.2258313
0.081672244,4.573555,0.032259572,0.053862542,0.020440254,-0.7326257,-9.461885,-1.2258313
0.08166402,4.573685,0.03545537,0.052797277,0.019374989,-0.7613561,-9.481039,-1.2210429
0.08165571,4.5738144,0.03545537,0.052797277,0.019374989,-0.7613561,-9.481039,-1.2210429
0.08162669,4.5739446,0.03865116,0.052797277,0.016179197,-0.7278373,-9.509769,-1.1827357
0.08159767,4.5740743,0.03865116,0.052797277,0.016179197,-0.7278373,-9.509769,-1.1827357
0.0815667,4.5742083,0.04291222,0.05173201,0.015113931,-0.7278373,-9.485827,-1.1875241
0.0815355,4.574342,0.04291222,0.05173201,0.015113931,-0.7278373,-9.485827,-1.1875241
0.081529275,4.5744824,0.04610801,0.049601484,0.01724446,-0.7469909,-9.461885,-1.1252748
0.08152297,4.574623,0.04610801,0.049601484,0.01724446,-0.7469909,-9.461885,-1.1252748
0.08153405,4.5747685,0.05036907,0.047470953,0.023636047,-0.7661445,-9.471462,-1.0965444
0.08154494,4.574914,0.05036907,0.047470953,0.023636047,-0.7661445,-9.471462,-1.0965444
0.08156736,4.5750623,0.0524996,0.04427516,0.024701312,-0.78529817,-9.466674,-1.1683705
0.081589796,4.57521,0.0524996,0.04427516,0.024701312,-0.78529817,-9.466674,-1.1683705
0.0816133,4.575358,0.0524996,0.043209895,0.02683184,-0.78529817,-9.490616,-1.1971009
0.08163665,4.575506,0.0524996,0.043209895,0.02683184,-0.78529817,-9.490616,-1.1971009
0.08166546,4.5756555,0.05356486,0.040014103,0.032158162,-0.79008657,-9.5385,-1.1444284
0.081694126,4.5758047,0.05356486,0.040014103,0.032158162,-0.79008657,-9.5385,-1.1444284
0.08172512,4.5759535,0.0524996,0.037883572,0.03854975,-0.78050977,-9.509769,-1.13964
0.08175584,4.576102,0.0524996,0.037883572,0.03854975,-0.78050977,-9.509769,-1.13964
0.08180476,4.576248,0.05036907,0.035753045,0.0460066,-0.79966336,-9.524135,-1.13964
0.0818535,4.576394,0.05036907,0.035753045,0.0460066,-0.79966336,-9.524135,-1.13964
0.08194502,4.5765324,0.047173277,0.032557253,0.054528717,-0.842759,-9.466674,-1.1587936
0.0820365,4.576671,0.047173277,0.032557253,0.054528717,-0.842759,-9.466674,-1.1587936
0.082130976,4.5768075,0.043977484,0.030426722,0.06305083,-0.8379706,-9.504981,-1.163582
0.08222524,4.576944,0.043977484,0.030426722,0.06305083,-0.8379706,-9.504981,-1.163582
0.082321696,4.577079,0.040781688,0.028296193,0.073703475,-0.842759,-9.504981,-1.1013328
0.082421005,4.5772176,0.040781688,0.028296193,0.073703475,-0.842759,-9.504981,-1.1013328
0.08255286,4.577336,0.034390103,0.026165664,0.08435612,-0.89543146,-9.586384,-1.1444284
0.08268854,4.577458,0.034390103,0.026165664,0.08435612,-0.89543146,-9.586384,-1.1444284
0.082836695,4.5775757,0.030129045,0.022969872,0.09500877,-0.91458505,-9.591172,-1.1204864
0.082984425,4.577693,0.030129045,0.022969872,0.09500877,-0.91458505,-9.591172,-1.1204864
0.083145425,4.5778036,0.024802722,0.019774077,0.103530884,-0.92895025,-9.682152,-1.13964
0.08330613,4.577915,0.024802722,0.019774077,0.103530884,-0.92895025,-9.682152,-1.13964
0.083473645,4.578022,0.019476399,0.017643549,0.11418352,-0.9528923,-9.682152,-1.0869676
0.08364049,4.578129,0.019476399,0.017643549,0.11418352,-0.9528923,-9.682152,-1.0869676
0.083800375,4.578234,0.013084813,0.016578285,0.12483617,-0.89543146,-9.677363,-1.1109096
0.08395974,4.57834,0.013084813,0.016578285,0.12483617,-0.89543146,-9.677363,-1.1109096
0.084147476,4.5784345,0.0077584907,0.013382491,0.13122776,-0.92895025,-9.672575,-1.13964
0.08433467,4.5785294,0.0077584907,0.013382491,0.13122776,-0.92895025,-9.672575,-1.13964
0.08451805,4.5786223,0.003497433,0.010186698,0.13548881,-0.93373865,-9.710882,-1.1109096
0.08470092,4.578716,0.003497433,0.010186698,0.13548881,-0.93373865,-9.710882,-1.1109096
0.084924616,4.5787907,-0.0007636249,0.010186698,0.14081514,-0.93852705,-9.730036,-1.2114661
0.08514763,4.578866,-0.0007636249,0.010186698,0.14081514,-0.93852705,-9.730036,-1.2114661
0.085352376,4.578947,-0.0050246827,0.009121433,0.1450762,-0.93852705,-9.739613,-1.163582
0.08555635,4.579028,-0.0050246827,0.009121433,0.1450762,-0.93852705,-9.739613,-1.163582
0.085732386,4.5791144,-0.008220476,0.0069909045,0.14614145,-0.89064306,-9.801862,-1.1827357
0.08590742,4.5792007,-0.008220476,0.0069909045,0.14614145,-0.89064306,-9.801862,-1.1827357
0.08610704,4.5792794,-0.010351005,0.00592564,0.148272,-0.91458505,-9.730036,-1.1827357
0.08630566,4.5793586,-0.010351005,0.00592564,0.148272,-0.91458505,-9.730036,-1.1827357
0.0865397,4.579419,-0.013546798,0.00592564,0.14720672,-0.9528923,-9.725247,-1.2114661
0.08677441,4.57948,-0.013546798,0.00592564,0.14720672,-0.9528923,-9.725247,-1.2114661
0.087000124,4.579545,-0.014612063,0.0048603755,0.14188041,-0.92895025,-9.730036,-1.2258313
0.08722189,4.57961,-0.014612063,0.0048603755,0.14188041,-0.92895025,-9.730036,-1.2258313
0.08745306,4.5796576,-0.01674259,0.0048603755,0.1386846,-0.9624691,-9.710882,-1.2258313
0.0876902,4.579707,-0.01674259,0.0048603755,0.1386846,-0.9624691,-9.710882,-1.2258313
0.0879031,4.5797687,-0.017807856,0.0048603755,0.13548881,-0.93373865,-9.753978,-1.2306197
0.08811507,4.5798306,-0.017807856,0.0048603755,0.13548881,-0.93373865,-9.753978,-1.2306197
0.08830527,4.579899,-0.018873122,0.00592564,0.13016249,-0.92895025,-9.710882,-1.2018893
0.08849398,4.5799665,-0.018873122,0.00592564,0.13016249,-0.92895025,-9.710882,-1.2018893
0.088748686,4.5799737,-0.018873122,0.0069909045,0.12270564,-0.9624691,-9.739613,-1.2785037
0.08900306,4.579981,-0.018873122,0.0069909045,0.12270564,-0.9624691,-9.739613,-1.2785037
0.08924821,4.5799923,-0.019938385,0.0048603755,0.11524879,-0.92416185,-9.696517,-1.2785037
0.089493744,4.5800047,-0.019938385,0.0048603755,0.11524879,-0.92416185,-9.696517,-1.2785037
0.08974424,4.579966,-0.019938385,0.003795111,0.10992247,-0.9720459,-9.734824,-1.3072342
0.0899886,4.5799284,-0.019938385,0.003795111,0.10992247,-0.9720459,-9.734824,-1.3072342
0.09019274,4.5798416,-0.019938385,0.0048603755,0.10140035,-0.9624691,-9.749189,-1.3455414
0.0903981,4.5797534,-0.019938385,0.0048603755,0.10140035,-0.9624691,-9.749189,-1.3455414
0.09060717,4.5796742,-0.019938385,0.0048603755,0.09607403,-0.9624691,-9.801862,-1.340753
0.09081677,4.5795946,-0.019938385,0.0048603755,0.09607403,-0.9624691,-9.801862,-1.340753
0.09103494,4.5795355,-0.018873122,0.003795111,0.089682445,-0.9768343,-9.792285,-1.3311762
0.09125267,4.579476,-0.018873122,0.003795111,0.089682445,-0.9768343,-9.792285,-1.3311762
0.091455236,4.579506,-0.018873122,0.0027298466,0.08329086,-0.9864111,-9.868899,-1.2880806
0.091658466,4.5795364,-0.018873122,0.0027298466,0.08329086,-0.9864111,-9.868899,-1.2880806
0.09185328,4.579463,-0.017807856,0.0016645822,0.0790298,-1.0199299,-9.888053,-1.3694834
0.092048876,4.5793886,-0.017807856,0.0016645822,0.0790298,-1.0199299,-9.888053,-1.3694834
0.09222927,4.579302,-0.018873122,0.0005993177,0.075834006,-1.0055647,-9.864111,-1.3742718
0.09240961,4.579215,-0.018873122,0.0005993177,0.075834006,-1.0055647,-9.864111,-1.3742718
0.092568144,4.579115,-0.019938385,-0.00046594674,0.071572945,-1.0055647,-9.907207,-1.3982137
0.09272604,4.5790153,-0.019938385,-0.00046594674,0.071572945,-1.0055647,-9.907207,-1.3982137
0.0928891,4.578922,-0.017807856,-0.00046594674,0.06944242,-1.0103531,-9.916783,-1.3934253
0.093051285,4.578829,-0.017807856,-0.00046594674,0.06944242,-1.0103531,-9.916783,-1.3934253
0.09319939,4.578729,-0.01674259,-0.0015312112,0.06624663,-1.0342951,-9.92636,-1.4317327
0.09334741,4.5786295,-0.01674259,-0.0015312112,0.06624663,-1.0342951,-9.92636,-1.4317327
0.0935092,4.5785403,-0.015677327,-0.0025964756,0.06518136,-1.0390835,-9.945514,-1.412579
0.09367174,4.5784507,-0.015677327,-0.0025964756,0.06518136,-1.0390835,-9.945514,-1.412579
0.093797825,4.5783467,-0.013546798,-0.0025964756,0.0641161,-1.0342951,-9.9550905,-1.4700398
0.093923606,4.5782423,-0.013546798,-0.0025964756,0.0641161,-1.0342951,-9.9550905,-1.4700398
0.09403507,4.5781355,-0.012481534,-0.0025964756,0.0609203,-1.0199299,-9.993398,-1.4748282
0.09414636,4.5780287,-0.012481534,-0.0025964756,0.0609203,-1.0199299,-9.993398,-1.4748282
0.09424746,4.577921,-0.0114162695,-0.00366174,0.059855036,-0.9959879,-9.9790325,-1.4508862
0.09434801,4.5778127,-0.0114162695,-0.00366174,0.059855036,-0.9959879,-9.9790325,-1.4508862
0.09444754,4.5777063,-0.009285741,-0.0025964756,0.0609203,-1.0103531,-9.983821,-1.4891934
0.0945467,4.5776,-0.009285741,-0.0025964756,0.0609203,-1.0103531,-9.983821,-1.4891934
0.09463422,4.5774918,-0.009285741,-0.0025964756,0.058789775,-1.0151415,-9.998186,-1.5466543
0.09472175,4.577383,-0.009285741,-0.0025964756,0.058789775,-1.0151415,-9.998186,-1.5466543
0.0947834,4.577273,-0.009285741,-0.0015312112,0.055593982,-0.9672575,-9.950302,-1.5227122
0.09484473,4.5771627,-0.009285741,-0.0015312112,0.055593982,-0.9672575,-9.950302,-1.5227122
0.09492399,4.5770555,-0.008220476,0.0005993177,0.052398186,-1.0007763,-9.959879,-1.508347
0.09500291,4.5769477,-0.008220476,0.0005993177,0.052398186,-1.0007763,-9.959879,-1.508347
0.09508922,4.5768423,-0.0071552116,0.0016645822,0.049202394,-1.0390835,-9.89763,-1.5658079
0.0951753,4.576738,-0.0071552116,0.0016645822,0.049202394,-1.0390835,-9.89763,-1.5658079
0.0952715,4.5766363,-0.0071552116,0.0027298466,0.044941336,-1.0295067,-9.892841,-1.484405
0.095367424,4.5765343,-0.0071552116,0.0027298466,0.044941336,-1.0295067,-9.892841,-1.484405
0.09544496,4.5764294,-0.0071552116,0.0048603755,0.040680278,-1.0342951,-9.864111,-1.5514427
0.095522285,4.576324,-0.0071552116,0.0048603755,0.040680278,-1.0342951,-9.864111,-1.5514427
0.095586546,4.576217,-0.0071552116,0.0069909045,0.035353955,-1.0103531,-9.830592,-1.532289
0.09565068,4.576111,-0.0071552116,0.0069909045,0.035353955,-1.0103531,-9.830592,-1.532289
0.09567177,4.576003,-0.006089947,0.010186698,0.027897105,-0.94331545,-9.830592,-1.5801731
0.09569283,4.575895,-0.006089947,0.010186698,0.027897105,-0.94331545,-9.830592,-1.5801731
0.095731415,4.5757895,-0.0039594183,0.014447756,0.020440254,-0.9959879,-9.782708,-1.5658079
0.09576996,4.5756845,-0.0039594183,0.014447756,0.020440254,-0.9959879,-9.782708,-1.5658079
0.095798,4.5755796,-0.0028941538,0.019774077,0.011918138,-0.9959879,-9.739613,-1.5945383
0.09582603,4.5754747,-0.0028941538,0.019774077,0.011918138,-0.9959879,-9.739613,-1.5945383
0.09584537,4.5753736,0.00030163955,0.024035135,0.0012654932,-0.9864111,-9.758766,-1.5179238
0.095864736,4.575272,0.00030163955,0.024035135,0.0012654932,-0.9864111,-9.758766,-1.5179238
0.09586942,4.575173,0.003497433,0.028296193,-0.008321887,-1.0007763,-9.773131,-1.6376339
0.09587406,4.575074,0.003497433,0.028296193,-0.008321887,-1.0007763,-9.773131,-1.6376339
0.09585552,4.574975,0.0045626974,0.032557253,-0.015778739,-0.9528923,-9.744401,-1.5849615
0.095837146,4.574876,0.0045626974,0.032557253,-0.015778739,-0.9528923,-9.744401,-1.5849615
0.09582314,4.5747795,0.0066932263,0.037883572,-0.024300855,-0.9864111,-9.701305,-1.6136919
0.09580928,4.574682,0.0066932263,0.037883572,-0.024300855,-0.9864111,-9.701305,-1.6136919
0.09578131,4.574589,0.00988902,0.04107937,-0.03282297,-0.9672575,-9.696517,-1.5753847
0.09575347,4.5744944,0.00988902,0.04107937,-0.03282297,-0.9672575,-9.696517,-1.5753847
0.09571719,4.574404,0.013084813,0.043209895,-0.04241035,-0.9624691,-9.648633,-1.5466543
0.095681086,4.574313,0.013084813,0.043209895,-0.04241035,-0.9624691,-9.648633,-1.5466543
0.09562475,4.5742254,0.017345872,0.046405688,-0.053062994,-0.94331545,-9.605537,-1.6519991
0.09556696,4.574136,0.017345872,0.046405688,-0.053062994,-0.94331545,-9.605537,-1.6519991
0.09549994,4.574055,0.02160693,0.049601484,-0.06158511,-0.92895025,-9.595961,-1.6519991
0.09543109,4.573972,0.02160693,0.049601484,-0.06158511,-0.92895025,-9.595961,-1.6519991
0.095370285,4.5738926,0.024802722,0.05173201,-0.0679767,-0.9672575,-9.524135,-1.6376339
0.0953098,4.5738125,0.024802722,0.05173201,-0.0679767,-0.9672575,-9.524135,-1.6376339
0.0953098,4.5738125,0.024802722,0.05173201,-0.0679767,-0.9672575,-9.524135,-1.6376339
0.0953098,4.5738125,0.024802722,0.05173201,-0.0679767,-0.9672575,-9.524135,-1.6376339
0.0953098,4.5738125,0.024802722,0.05173201,-0.0679767,-0.9672575,-9.524135,-1.6376339
0.09494445,4.5735183,0.033324838,0.054927804,-0.078629345,-0.90979666,-9.495404,-1.6328455
0.094857335,4.5734587,0.039716423,0.054927804,-0.08395566,-0.90979666,-9.533711,-1.6184803
0.094761916,4.5733924,0.039716423,0.054927804,-0.08395566,-0.90979666,-9.533711,-1.6184803
0.09465398,4.573331,0.045042746,0.054927804,-0.08715145,-0.89543146,-9.500193,-1.5179238
0.09455532,4.5732746,0.045042746,0.054927804,-0.08715145,-0.89543146,-9.500193,-1.5179238
0.09446,4.573221,0.049303804,0.054927804,-0.09034725,-0.90979666,-9.514558,-1.5562311
0.09436154,4.5731664,0.049303804,0.054927804,-0.09034725,-0.90979666,-9.514558,-1.5562311
0.09424635,4.5731163,0.05356486,0.054927804,-0.092477776,-0.8810662,-9.500193,-1.5131354
0.09413168,4.573066,0.05356486,0.054927804,-0.092477776,-0.8810662,-9.500193,-1.5131354
0.09400396,4.573022,0.05782592,0.053862542,-0.093543045,-0.842759,-9.41879,-1.5275006
0.09387622,4.572977,0.05782592,0.053862542,-0.093543045,-0.842759,-9.41879,-1.5275006
0.093750976,4.5729365,0.062086977,0.053862542,-0.091412514,-0.8571242,-9.466674,-1.4939818
0.09362654,4.572896,0.062086977,0.053862542,-0.091412514,-0.8571242,-9.466674,-1.4939818
0.093508646,4.572858,0.06421751,0.053862542,-0.08608619,-0.8523358,-9.490616,-1.5275006
0.093390726,4.5728197,0.06421751,0.053862542,-0.08608619,-0.8523358,-9.490616,-1.5275006
0.09329089,4.5727825,0.06634804,0.049601484,-0.08075987,-0.8810662,-9.495404,-1.4748282
0.093191706,4.572746,0.06634804,0.049601484,-0.08075987,-0.8810662,-9.495404,-1.4748282
0.093057044,4.5727186,0.06847856,0.047470953,-0.07436828,-0.81402856,-9.519346,-1.484405
0.092922956,4.572691,0.06847856,0.047470953,-0.07436828,-0.81402856,-9.519346,-1.484405
0.09279227,4.5726647,0.06847856,0.04853622,-0.0679767,-0.79008657,-9.437943,-1.4891934
0.09266198,4.5726376,0.06847856,0.04853622,-0.0679767,-0.79008657,-9.437943,-1.4891934
0.09255161,4.5726066,0.0674133,0.047470953,-0.059454583,-0.82360536,-9.514558,-1.4891934
0.09244006,4.5725746,0.0674133,0.047470953,-0.059454583,-0.82360536,-9.514558,-1.4891934
0.09230382,4.572553,0.06421751,0.047470953,-0.050932467,-0.79008657,-9.500193,-1.4413095
0.09216859,4.572531,0.06421751,0.047470953,-0.050932467,-0.79008657,-9.500193,-1.4413095
0.09204748,4.5725026,0.061021715,0.047470953,-0.043475613,-0.7517793,-9.504981,-1.5035586
0.09192666,4.5724735,0.061021715,0.047470953,-0.043475613,-0.7517793,-9.504981,-1.5035586
0.09179702,4.5724473,0.056760654,0.04853622,-0.037084028,-0.7469909,-9.519346,-1.4700398
0.091667324,4.572421,0.056760654,0.04853622,-0.037084028,-0.7469909,-9.519346,-1.4700398
0.09155191,4.572385,0.05356486,0.049601484,-0.029627176,-0.7517793,-9.490616,-1.484405
0.09143787,4.5723486,0.05356486,0.049601484,-0.029627176,-0.7517793,-9.490616,-1.484405
0.09136582,4.572299,0.04823854,0.050666746,-0.024300855,-0.78050977,-9.433155,-1.541866
0.09129335,4.5722485,0.04823854,0.050666746,-0.024300855,-0.78050977,-9.433155,-1.541866
0.091209,4.572196,0.04291222,0.052797277,-0.018974531,-0.7613561,-9.423578,-1.5035586
0.091124445,4.5721436,0.04291222,0.052797277,-0.018974531,-0.7613561,-9.423578,-1.5035586
0.0910105,4.572101,0.037585896,0.053862542,-0.014713474,-0.78529817,-9.414001,-1.3982137
0.09089672,4.5720587,0.037585896,0.053862542,-0.014713474,-0.78529817,-9.414001,-1.3982137
0.09081326,4.5719967,0.031194309,0.054927804,-0.01151768,-0.7757214,-9.356541,-1.4413095
0.09072983,4.5719337,0.031194309,0.054927804,-0.01151768,-0.7757214,-9.356541,-1.4413095
0.09062442,4.571878,0.025867987,0.057058334,-0.008321887,-0.7661445,-9.370906,-1.4077905
0.090519324,4.571822,0.025867987,0.057058334,-0.008321887,-0.7661445,-9.370906,-1.4077905
0.0903672,4.5718446,0.020541664,0.05918886,-0.004060829,-0.7661445,-9.375694,-1.3215994
0.09021532,4.571867,0.020541664,0.05918886,-0.004060829,-0.7661445,-9.375694,-1.3215994
0.09007714,4.571839,0.016280606,0.062384658,-0.0008650357,-0.7182605,-9.351752,-1.364695
0.08993938,4.5718102,0.016280606,0.062384658,-0.0008650357,-0.7182605,-9.351752,-1.364695
0.08980129,4.5718546,0.010954284,0.06558045,0.00020022877,-0.7326257,-9.361329,-1.2880806
0.0896637,4.5718994,0.010954284,0.06558045,0.00020022877,-0.7326257,-9.361329,-1.2880806
0.08951865,4.5718784,0.0066932263,0.06877624,0.0012654932,-0.7469909,-9.3661175,-1.340753
0.08937361,4.571858,0.0066932263,0.06877624,0.0012654932,-0.7469909,-9.3661175,-1.340753
0.08923241,4.571888,0.001366904,0.071972035,0.00020022877,-0.7278373,-9.404425,-1.2976574
0.0890914,4.5719175,0.001366904,0.071972035,0.00020022877,-0.7278373,-9.404425,-1.2976574
0.08895897,4.5719585,-0.0050246827,0.07516783,-0.0019303001,-0.7613561,-9.3661175,-1.2880806
0.08882702,4.571999,-0.0050246827,0.07516783,-0.0019303001,-0.7613561,-9.3661175,-1.2880806
0.08869748,4.5720396,-0.010351005,0.0762331,-0.004060829,-0.79966336,-9.41879,-1.3072342
0.08856872,4.572081,-0.010351005,0.0762331,-0.004060829,-0.79966336,-9.41879,-1.3072342
0.08843201,4.5720043,-0.01674259,0.07729836,-0.0072566224,-0.7565677,-9.442732,-1.3742718
0.08829538,4.571928,-0.01674259,0.07729836,-0.0072566224,-0.7565677,-9.442732,-1.3742718
0.088204496,4.571984,-0.02313418,0.07729836,-0.0072566224,-0.7661445,-9.442732,-1.2449849
0.08811376,4.5720396,-0.02313418,0.07729836,-0.0072566224,-0.7661445,-9.442732,-1.2449849
0.08798867,4.5720696,-0.029525764,0.0762331,-0.009387151,-0.7757214,-9.394848,-1.2880806
0.08786388,4.5721,-0.029525764,0.0762331,-0.009387151,-0.7757214,-9.394848,-1.2880806
0.08776619,4.572143,-0.034852087,0.0762331,-0.01151768,-0.7374141,-9.44752,-1.2210429
0.08766884,4.5721855,-0.034852087,0.0762331,-0.01151768,-0.7374141,-9.44752,-1.2210429
0.087539405,4.5722036,-0.04017841,0.0762331,-0.01151768,-0.7613561,-9.457097,-1.2880806
0.08741042,4.5722218,-0.04017841,0.0762331,-0.01151768,-0.7613561,-9.457097,-1.2880806
0.08732374,4.5722594,-0.04443947,0.074102566,-0.012582945,-0.7469909,-9.457097,-1.2114661
0.08723725,4.5722976,-0.04443947,0.074102566,-0.012582945,-0.7469909,-9.457097,-1.2114661
0.08716588,4.572338,-0.04763526,0.074102566,-0.014713474,-0.770933,-9.433155,-1.2066777
0.08709508,4.572378,-0.04763526,0.074102566,-0.014713474,-0.770933,-9.433155,-1.2066777
0.087055124,4.57242,-0.050831053,0.07090677,-0.014713474,-0.79487497,-9.504981,-1.0821792
0.087015405,4.572462,-0.050831053,0.07090677,-0.014713474,-0.79487497,-9.504981,-1.0821792
0.0869685,4.572501,-0.052961584,0.06877624,-0.014713474,-0.79487497,-9.509769,-1.163582
0.08692165,4.572541,-0.052961584,0.06877624,-0.014713474,-0.79487497,-9.509769,-1.163582
0.0868859,4.5725822,-0.05189632,0.06771098,-0.014713474,-0.80924016,-9.504981,-1.1300632
0.08685033,4.5726233,-0.05189632,0.06771098,-0.014713474,-0.80924016,-9.504981,-1.1300632
0.08681495,4.572666,-0.050831053,0.06664571,-0.014713474,-0.80445176,-9.490616,-1.1013328
0.08677975,4.572709,-0.050831053,0.06664571,-0.014713474,-0.80445176,-9.490616,-1.1013328
0.08674403,4.5727544,-0.04763526,0.06558045,-0.013648209,-0.79966336,-9.452309,-1.115698
0.08670846,4.5728,-0.04763526,0.06558045,-0.013648209,-0.79966336,-9.452309,-1.115698
0.086672634,4.57285,-0.043374203,0.06344992,-0.013648209,-0.79966336,-9.476251,-1.115698
0.08663678,4.572901,-0.043374203,0.06344992,-0.013648209,-0.79966336,-9.476251,-1.115698
0.08659749,4.572954,-0.04017841,0.06344992,-0.013648209,-0.79966336,-9.476251,-1.1587936
0.08655843,4.573007,-0.04017841,0.06344992,-0.013648209,-0.79966336,-9.476251,-1.1587936
0.08652426,4.573064,-0.03698262,0.062384658,-0.012582945,-0.79966336,-9.504981,-1.1013328
0.08649027,4.5731206,-0.03698262,0.062384658,-0.012582945,-0.79966336,-9.504981,-1.1013328
0.086438954,4.5731797,-0.032721557,0.061319392,-0.01151768,-0.78050977,-9.548077,-1.1731589
0.08638778,4.573239,-0.032721557,0.061319392,-0.01151768,-0.78050977,-9.548077,-1.1731589
0.08633366,4.573299,-0.03059103,0.05918886,-0.0072566224,-0.7422025,-9.533711,-1.115698
0.08627967,4.5733585,-0.03059103,0.05918886,-0.0072566224,-0.7422025,-9.533711,-1.115698
0.08622125,4.5734205,-0.027395237,0.0581236,-0.006191358,-0.7326257,-9.552865,-1.1252748
0.086162835,4.5734825,-0.027395237,0.0581236,-0.006191358,-0.7326257,-9.552865,-1.1252748
0.0861065,4.573549,-0.02313418,0.0581236,-0.004060829,-0.7374141,-9.586384,-1.1348516
0.08604871,4.573617,-0.02313418,0.0581236,-0.004060829,-0.7374141,-9.586384,-1.1348516
0.08601376,4.5736847,-0.02313418,0.05599307,-0.0019303001,-0.770933,-9.581595,-1.1109096
0.08597815,4.5737543,-0.02313418,0.05599307,-0.0019303001,-0.770933,-9.581595,-1.1109096
0.08589506,4.573811,-0.02313418,0.053862542,-0.0008650357,-0.7182605,-9.557653,-1.2066777
0.0858165,4.573865,-0.02313418,0.053862542,-0.0008650357,-0.7182605,-9.557653,-1.2066777
0.085736126,4.573929,-0.021003649,0.05173201,0.00020022877,-0.7422025,-9.581595,-1.2258313
0.085659534,4.57399,-0.021003649,0.05173201,0.00020022877,-0.7422025,-9.581595,-1.2258313
0.08562546,4.574064,-0.018873122,0.047470953,0.0023307577,-0.770933,-9.562442,-1.1492168
0.08559148,4.574138,-0.018873122,0.047470953,0.0023307577,-0.770933,-9.562442,-1.1492168
0.08554678,4.57421,-0.018873122,0.045340426,0.0044612866,-0.7422025,-9.572019,-1.1444284
0.08550209,4.5742817,-0.018873122,0.045340426,0.0044612866,-0.7422025,-9.572019,-1.1444284
0.08545663,4.574356,-0.01674259,0.04427516,0.0044612866,-0.7326257,-9.533711,-1.1300632
0.085411206,4.5744295,-0.01674259,0.04427516,0.0044612866,-0.7326257,-9.533711,-1.1300632
0.08538859,4.5745096,-0.014612063,0.04427516,0.0033960221,-0.78529817,-9.543288,-1.13964
0.08536592,4.5745897,-0.014612063,0.04427516,0.0033960221,-0.78529817,-9.543288,-1.13964
0.085344695,4.574671,-0.013546798,0.043209895,0.0044612866,-0.7757214,-9.533711,-1.0965444
0.08532346,4.574752,-0.013546798,0.043209895,0.0044612866,-0.7757214,-9.533711,-1.0965444
0.08526509,4.574828,-0.0114162695,0.04214463,0.0023307577,-0.7422025,-9.509769,-1.1875241
0.085206844,4.574905,-0.0114162695,0.04214463,0.0023307577,-0.7422025,-9.509769,-1.1875241
0.08516063,4.574987,-0.009285741,0.043209895,0.0012654932,-0.7661445,-9.476251,-1.1971009
0.085114494,4.5750694,-0.009285741,0.043209895,0.0012654932,-0.7661445,-9.476251,-1.1971009
0.08501209,4.575131,-0.0071552116,0.04214463,0.00020022877,-0.7278373,-9.490616,-1.2449849
0.08490983,4.5751925,-0.0071552116,0.04214463,0.00020022877,-0.7278373,-9.490616,-1.2449849
0.08481993,4.575261,-0.0071552116,0.04107937,0.0012654932,-0.7134721,-9.481039,-1.2162545
0.08473033,4.5753293,-0.0071552116,0.04107937,0.0012654932,-0.7134721,-9.481039,-1.2162545
0.08471548,4.5754175,-0.008220476,0.04214463,-0.0019303001,-0.80924016,-9.481039,-1.2641385
0.08470086,4.5755053,-0.008220476,0.04214463,-0.0019303001,-0.80924016,-9.481039,-1.2641385
0.08462712,4.575581,-0.009285741,0.04107937,-0.0029955646,-0.770933,-9.461885,-1.2497733
0.084553406,4.575657,-0.009285741,0.04107937,-0.0029955646,-0.770933,-9.461885,-1.2497733
0.084404394,4.575634,-0.0114162695,0.04107937,-0.004060829,-0.7086837,-9.457097,-1.3072342
0.08425541,4.575611,-0.0114162695,0.04107937,-0.004060829,-0.7086837,-9.457097,-1.3072342
0.08411395,4.5756383,-0.0114162695,0.04214463,-0.008321887,-0.7374141,-9.452309,-1.2785037
0.08397273,4.5756655,-0.0114162695,0.04214463,-0.008321887,-0.7374141,-9.452309,-1.2785037
0.08381964,4.575678,-0.0114162695,0.04107937,-0.012582945,-0.7230489,-9.442732,-1.283292
0.0836667,4.5756903,-0.0114162695,0.04107937,-0.012582945,-0.7230489,-9.442732,-1.283292
0.08353938,4.57574,-0.012481534,0.04107937,-0.015778739,-0.7134721,-9.428367,-1.2449849
0.083412245,4.5757895,-0.012481534,0.04107937,-0.015778739,-0.7134721,-9.428367,-1.2449849
0.08324798,4.575758,-0.013546798,0.04107937,-0.020039797,-0.7422025,-9.433155,-1.3024458
0.08306383,4.575723,-0.013546798,0.04107937,-0.020039797,-0.7422025,-9.433155,-1.3024458
0.08302912,4.575795,-0.013546798,0.04214463,-0.024300855,-0.7757214,-9.399636,-1.163582
0.08299011,4.575877,-0.013546798,0.04214463,-0.024300855,-0.7757214,-9.399636,-1.163582
0.08287298,4.5759377,-0.015677327,0.04214463,-0.027496647,-0.7326257,-9.437943,-1.2401965
0.082756296,4.5759993,-0.015677327,0.04214463,-0.027496647,-0.7326257,-9.437943,-1.2401965
0.08265141,4.5760655,-0.01674259,0.04214463,-0.028561912,-0.7134721,-9.404425,-1.2018893
0.08254698,4.576132,-0.01674259,0.04214463,-0.028561912,-0.7134721,-9.404425,-1.2018893
0.082460955,4.576204,-0.017807856,0.04214463,-0.029627176,-0.7230489,-9.399636,-1.1779473
0.08237497,4.576276,-0.017807856,0.04214463,-0.029627176,-0.7230489,-9.399636,-1.1779473
0.082200795,4.5762434,-0.019938385,0.043209895,-0.029627176,-0.7230489,-9.409213,-1.292869
0.08202638,4.5762115,-0.019938385,0.043209895,-0.029627176,-0.7230489,-9.409213,-1.292869
0.081868395,4.5762343,-0.02313418,0.043209895,-0.03069244,-0.6847417,-9.404425,-1.2497733
0.08171065,4.5762587,-0.02313418,0.043209895,-0.03069244,-0.6847417,-9.404425,-1.2497733
0.08158749,4.5763083,-0.025264706,0.04214463,-0.03069244,-0.7182605,-9.404425,-1.2354081
0.081464894,4.576359,-0.025264706,0.04214463,-0.03069244,-0.7182605,-9.404425,-1.2354081
0.08139211,4.5764246,-0.027395237,0.04107937,-0.03069244,-0.7469909,-9.399636,-1.2162545
0.08131993,4.5764904,-0.027395237,0.04107937,-0.03069244,-0.7469909,-9.399636,-1.2162545
0.08131993,4.5764904,-0.031656295,0.04107937,-0.027496647,-0.7038953,-9.466674,-1.2162545
0.08131993,4.5764904,-0.031656295,0.04107937,-0.027496647,-0.7038953,-9.466674,-1.2162545
0.08097044,4.576641,-0.031656295,0.04107937,-0.027496647,-0.7038953,-9.466674,-1.2162545
0.08087207,4.576685,-0.031656295,0.04107937,-0.027496647,-0.7038953,-9.466674,-1.2162545
0.080808006,4.5767465,-0.032721557,0.040014103,-0.026431382,-0.7565677,-9.428367,-1.2449849
0.080743276,4.5768094,-0.032721557,0.040014103,-0.026431382,-0.7565677,-9.428367,-1.2449849
0.08057049,4.576811,-0.032721557,0.037883572,-0.02323559,-0.7182605,-9.404425,-1.2689269
0.08043132,4.5768127,-0.032721557,0.037883572,-0.02323559,-0.7182605,-9.404425,-1.2689269
0.08028742,4.576869,-0.033786822,0.03681831,-0.02110506,-0.7038953,-9.404425,-1.2258313
0.08021401,4.5768976,-0.033786822,0.03681831,-0.02110506,-0.7038953,-9.404425,-1.2258313
0.08014828,4.5769553,-0.034852087,0.03681831,-0.018974531,-0.7278373,-9.452309,-1.2018893
0.08008305,4.577013,-0.034852087,0.03681831,-0.018974531,-0.7278373,-9.452309,-1.2018893
0.080015615,4.5770707,-0.033786822,0.03681831,-0.016844003,-0.7422025,-9.452309,-1.2401965
0.079948574,4.577129,-0.033786822,0.03681831,-0.016844003,-0.7422025,-9.452309,-1.2401965
0.079799324,4.577129,-0.033786822,0.03681831,-0.013648209,-0.7230489,-9.442732,-1.2737153
0.07965112,4.5771303,-0.033786822,0.03681831,-0.013648209,-0.7230489,-9.442732,-1.2737153
0.079537794,4.577164,-0.033786822,0.037883572,-0.009387151,-0.6655881,-9.485827,-1.2210429
0.07942459,4.5771985,-0.033786822,0.037883572,-0.009387151,-0.6655881,-9.485827,-1.2210429
0.07935354,4.5772514,-0.033786822,0.03681831,-0.006191358,-0.7182605,-9.500193,-1.2258313
0.079282545,4.5773053,-0.033786822,0.03681831,-0.006191358,-0.7182605,-9.500193,-1.2258313
0.07921864,4.577362,-0.032721557,0.035753045,-0.004060829,-0.7278373,-9.504981,-1.2354081
0.0791552,4.5774183,-0.032721557,0.035753045,-0.004060829,-0.7278373,-9.504981,-1.2354081
0.07902913,4.5774336,-0.031656295,0.035753045,0.00020022877,-0.7038953,-9.519346,-1.2689269
0.07890333,4.5774493,-0.031656295,0.035753045,0.00020022877,-0.7038953,-9.519346,-1.2689269
0.078833595,4.5775037,-0.029525764,0.033622514,0.0044612866,-0.6943185,-9.500193,-1.2114661
0.07876416,4.5775585,-0.029525764,0.033622514,0.0044612866,-0.6943185,-9.500193,-1.2114661
0.07869083,4.57761,-0.029525764,0.033622514,0.0065918155,-0.6943185,-9.528923,-1.2210429
0.07861782,4.5776625,-0.029525764,0.033622514,0.0065918155,-0.6943185,-9.528923,-1.2210429
0.07849266,4.577674,-0.026329972,0.033622514,0.00765708,-0.7038953,-9.476251,-1.2689269
0.078367844,4.5776854,-0.026329972,0.033622514,0.00765708,-0.7038953,-9.476251,-1.2689269
0.078258455,4.5777187,-0.022068914,0.03468778,0.009787609,-0.6560113,-9.514558,-1.2401965
0.07814919,4.5777516,-0.022068914,0.03468778,0.009787609,-0.6560113,-9.514558,-1.2401965
0.07807099,4.5778103,-0.018873122,0.03681831,0.009787609,-0.6991069,-9.471462,-1.2354081
0.07799297,4.577869,-0.018873122,0.03681831,0.009787609,-0.6991069,-9.471462,-1.2354081
0.07794818,4.577757,-0.015677327,0.035753045,0.008722344,-0.7182605,-9.414001,-1.3215994
0.077903174,4.5776453,-0.015677327,0.035753045,0.008722344,-0.7182605,-9.414001,-1.3215994
0.07788058,4.5777297,-0.010351005,0.035753045,0.008722344,-0.7134721,-9.399636,-1.1779473
0.07785795,4.577814,-0.010351005,0.035753045,0.008722344,-0.7134721,-9.399636,-1.1779473
0.077743,4.5778594,-0.006089947,0.03468778,0.00765708,-0.6943185,-9.380483,-1.2497733
0.07763129,4.5779037,-0.006089947,0.03468778,0.00765708,-0.6943185,-9.380483,-1.2497733
0.07759837,4.577995,-0.0028941538,0.03468778,0.005526551,-0.7038953,-9.332599,-1.1827357
0.07756543,4.578086,-0.0028941538,0.03468778,0.005526551,-0.7038953,-9.332599,-1.1827357
0.07754624,4.5781827,0.001366904,0.03468778,0.00765708,-0.7038953,-9.3421755,-1.13964
0.077527046,4.5782795,0.001366904,0.03468778,0.00765708,-0.7038953,-9.3421755,-1.13964
0.07745412,4.5783668,0.005627962,0.033622514,0.0065918155,-0.6512229,-9.308656,-1.1683705
0.07738126,4.578454,0.005627962,0.033622514,0.0065918155,-0.6512229,-9.308656,-1.1683705
0.077351,4.578556,0.0077584907,0.032557253,0.005526551,-0.6799533,-9.337387,-1.1061212
0.07732073,4.578658,0.0077584907,0.032557253,0.005526551,-0.6799533,-9.337387,-1.1061212
0.077284425,4.5787625,0.010954284,0.032557253,0.0044612866,-0.6895301,-9.303867,-1.1540052
0.07724814,4.5788674,0.010954284,0.032557253,0.0044612866,-0.6895301,-9.303867,-1.1540052
0.07722059,4.5789776,0.015215342,0.031491987,0.0044612866,-0.6895301,-9.32781,-1.1204864
0.07719304,4.579088,0.015215342,0.031491987,0.0044612866,-0.6895301,-9.32781,-1.1204864
0.077181466,4.579203,0.018411135,0.031491987,0.0033960221,-0.7086837,-9.323022,-1.091756
0.0771698,4.5793185,0.018411135,0.031491987,0.0033960221,-0.7086837,-9.323022,-1.091756
0.077135146,4.5794334,0.02160693,0.028296193,0.0044612866,-0.6751649,-9.375694,-1.1061212
0.07710037,4.5795493,0.02160693,0.028296193,0.0044612866,-0.6751649,-9.375694,-1.1061212
0.07707154,4.5796676,0.023737457,0.02723093,0.00765708,-0.6895301,-9.370906,-1.1348516
0.07704264,4.579786,0.023737457,0.02723093,0.00765708,-0.6895301,-9.370906,-1.1348516
0.077040754,4.579908,0.024802722,0.022969872,0.010852873,-0.7134721,-9.423578,-1.067814
0.07703875,4.58003,0.024802722,0.022969872,0.010852873,-0.7134721,-9.423578,-1.067814
0.07701322,4.58015,0.025867987,0.020839343,0.011918138,-0.6655881,-9.442732,-1.067814
0.076987736,4.580271,0.025867987,0.020839343,0.011918138,-0.6655881,-9.442732,-1.067814
0.07694711,4.5803866,0.025867987,0.019774077,0.015113931,-0.6703765,-9.509769,-1.1444284
0.07690631,4.580503,0.025867987,0.019774077,0.015113931,-0.6703765,-9.509769,-1.1444284
0.076895766,4.5806236,0.024802722,0.017643549,0.021505518,-0.6943185,-9.490616,-1.1204864
0.076884985,4.580744,0.024802722,0.017643549,0.021505518,-0.6943185,-9.490616,-1.1204864
0.07686142,4.5808578,0.02160693,0.01551302,0.02683184,-0.6991069,-9.519346,-1.1827357
0.076837465,4.5809717,0.02160693,0.01551302,0.02683184,-0.6991069,-9.519346,-1.1827357
0.07681173,4.5810847,0.019476399,0.013382491,0.030027634,-0.6895301,-9.509769,-1.1731589
0.07678684,4.581192,0.019476399,0.013382491,0.030027634,-0.6895301,-9.509769,-1.1731589
0.07675191,4.581297,0.018411135,0.011251962,0.033223428,-0.6751649,-9.524135,-1.1731589
0.07671659,4.581402,0.018411135,0.011251962,0.033223428,-0.6751649,-9.524135,-1.1731589
0.076730505,4.5815153,0.016280606,0.009121433,0.03854975,-0.7134721,-9.519346,-1.1540052
0.07674398,4.5816283,0.016280606,0.009121433,0.03854975,-0.7134721,-9.519346,-1.1540052
0.076763645,4.581741,0.015215342,0.008056169,0.04387607,-0.7326257,-9.557653,-1.2210429
0.07678212,4.5818534,0.015215342,0.008056169,0.04387607,-0.7326257,-9.557653,-1.2210429
0.07677826,4.5819607,0.015215342,0.009121433,0.04813713,-0.6991069,-9.509769,-1.1779473
0.07677373,4.5820675,0.015215342,0.009121433,0.04813713,-0.6991069,-9.509769,-1.1779473
0.07678218,4.5819864,0.015215342,0.009121433,0.052398186,-0.7182605,-9.514558,-1.292869
0.07678983,4.581906,0.015215342,0.009121433,0.052398186,-0.7182605,-9.514558,-1.292869
0.0767089,4.581952,0.017345872,0.009121433,0.054528717,-0.6991069,-9.519346,-1.2401965
0.07662737,4.5819983,0.017345872,0.009121433,0.054528717,-0.6991069,-9.519346,-1.2401965
0.07668061,4.5819173,0.020541664,0.010186698,0.056659244,-0.7326257,-9.471462,-1.3551182
0.07673436,4.581835,0.020541664,0.010186698,0.056659244,-0.7326257,-9.471462,-1.3551182
0.07676587,4.58176,0.023737457,0.011251962,0.056659244,-0.7230489,-9.485827,-1.3024458
0.07679665,4.581685,0.023737457,0.011251962,0.056659244,-0.7230489,-9.485827,-1.3024458
0.07676824,4.5816298,0.026933251,0.012317227,0.055593982,-0.6895301,-9.528923,-1.3024458
0.07673947,4.581575,0.026933251,0.012317227,0.055593982,-0.6895301,-9.528923,-1.3024458
0.07668659,4.5815406,0.030129045,0.013382491,0.05772451,-0.7278373,-9.524135,-1.2593501
0.07663352,4.5815067,0.030129045,0.013382491,0.05772451,-0.7278373,-9.524135,-1.2593501
0.07662281,4.5816274,0.033324838,0.01551302,0.054528717,-0.7038953,-9.543288,-1.2066777
0.07661114,4.581748,0.033324838,0.01551302,0.054528717,-0.7038953,-9.543288,-1.2066777
0.076671034,4.5816803,0.034390103,0.01551302,0.05133292,-0.7469909,-9.528923,-1.3311762
0.07672967,4.581614,0.034390103,0.01551302,0.05133292,-0.7469909,-9.528923,-1.3311762
0.076903194,4.581609,0.03652063,0.017643549,0.047071867,-0.78050977,-9.509769,-1.2641385
0.077075034,4.581602,0.03652063,0.017643549,0.047071867,-0.78050977,-9.509769,-1.2641385
0.07722559,4.5817,0.03652063,0.017643549,0.044941336,-0.7565677,-9.528923,-1.2449849
0.07737599,4.581797,0.03652063,0.017643549,0.044941336,-0.7565677,-9.528923,-1.2449849
0.07754572,4.5818715,0.03652063,0.017643549,0.04387607,-0.79487497,-9.524135,-1.2354081
0.07771483,4.5819445,0.03652063,0.017643549,0.04387607,-0.79487497,-9.524135,-1.2354081
0.0778509,4.581906,0.03652063,0.017643549,0.042810805,-0.7757214,-9.56723,-1.2737153
0.07798434,4.5818663,0.03652063,0.017643549,0.042810805,-0.7757214,-9.56723,-1.2737153
0.07812069,4.581826,0.03545537,0.018708814,0.042810805,-0.79966336,-9.600749,-1.292869
0.07825585,4.581786,0.03545537,0.018708814,0.042810805,-0.79966336,-9.600749,-1.292869
0.07838567,4.5818954,0.03545537,0.019774077,0.042810805,-0.81402856,-9.634268,-1.2210429
0.078514956,4.582004,0.03545537,0.019774077,0.042810805,-0.81402856,-9.634268,-1.2210429
0.07866095,4.582102,0.034390103,0.019774077,0.042810805,-0.81881696,-9.691729,-1.2401965
0.07880651,4.582198,0.034390103,0.019774077,0.042810805,-0.81881696,-9.691729,-1.2401965
0.07898729,4.5822315,0.033324838,0.021904606,0.04387607,-0.82360536,-9.624691,-1.2593501
0.079167165,4.582264,0.033324838,0.021904606,0.04387607,-0.82360536,-9.624691,-1.2593501
0.07932915,4.5823464,0.032259572,0.021904606,0.0460066,-0.8571242,-9.624691,-1.2210429
0.079490505,4.5824285,0.032259572,0.021904606,0.0460066,-0.8571242,-9.624691,-1.2210429
0.07966315,4.5824966,0.032259572,0.022969872,0.047071867,-0.8810662,-9.624691,-1.2258313
0.07983512,4.5825644,0.032259572,0.022969872,0.047071867,-0.8810662,-9.624691,-1.2258313
0.079944685,4.5826855,0.03545537,0.024035135,0.04813713,-0.8283938,-9.634268,-1.1875241
0.0800539,4.582806,0.03545537,0.024035135,0.04813713,-0.8283938,-9.634268,-1.1875241
0.08018516,4.58292,0.03652063,0.024035135,0.05133292,-0.81402856,-9.629479,-1.2210429
0.08031568,4.583033,0.03652063,0.024035135,0.05133292,-0.81402856,-9.629479,-1.2210429
0.08048302,4.5830116,0.03865116,0.022969872,0.055593982,-0.82360536,-9.629479,-1.2737153
0.08064882,4.582989,0.03865116,0.022969872,0.055593982,-0.82360536,-9.629479,-1.2737153
0.0808153,4.5830884,0.041846953,0.021904606,0.058789775,-0.8475474,-9.586384,-1.2114661
0.08098143,4.583187,0.041846953,0.021904606,0.058789775,-0.8475474,-9.586384,-1.2114661
0.081125855,4.5833044,0.041846953,0.021904606,0.059855036,-0.8379706,-9.701305,-1.2210429
0.081269406,4.583421,0.041846953,0.021904606,0.059855036,-0.8379706,-9.701305,-1.2210429
0.081375316,4.5833654,0.040781688,0.020839343,0.061985567,-0.82360536,-9.662998,-1.3120226
0.08147997,4.583309,0.040781688,0.020839343,0.061985567,-0.82360536,-9.662998,-1.3120226
0.08158703,4.5834417,0.040781688,0.021904606,0.06305083,-0.8331822,-9.710882,-1.1923125
0.08169318,4.5835733,0.040781688,0.021904606,0.06305083,-0.8331822,-9.710882,-1.1923125
0.08180649,4.5835176,0.03865116,0.021904606,0.061985567,-0.81402856,-9.682152,-1.2785037
0.08191689,4.583461,0.03865116,0.021904606,0.061985567,-0.81402856,-9.682152,-1.2785037
0.08202209,4.5835896,0.03652063,0.021904606,0.06305083,-0.8379706,-9.730036,-1.1923125
0.08212629,4.5837173,0.03652063,0.021904606,0.06305083,-0.8379706,-9.730036,-1.1923125
0.08230941,4.5838003,0.03545537,0.022969872,0.06624663,-0.90021986,-9.648633,-1.2066777
0.082491785,4.5838833,0.03545537,0.022969872,0.06624663,-0.90021986,-9.648633,-1.2066777
0.082686074,4.5839605,0.034390103,0.021904606,0.06837715,-0.8762778,-9.706094,-1.2306197
0.08287226,4.5840344,0.034390103,0.021904606,0.06837715,-0.8762778,-9.706094,-1.2306197
0.08304858,4.584127,0.032259572,0.019774077,0.071572945,-0.8810662,-9.672575,-1.2066777
0.083225,4.58422,0.032259572,0.019774077,0.071572945,-0.8810662,-9.672575,-1.2066777
0.08343401,4.584252,0.031194309,0.017643549,0.07263821,-0.90021986,-9.710882,-1.2497733
0.08364464,4.5842834,0.031194309,0.017643549,0.07263821,-0.90021986,-9.710882,-1.2497733
0.08374066,4.5844097,0.031194309,0.01551302,0.071572945,-0.8523358,-9.744401,-1.1492168
0.08383639,4.584536,0.031194309,0.01551302,0.071572945,-0.8523358,-9.744401,-1.1492168
0.083896965,4.584661,0.027998514,0.012317227,0.06837715,-0.81402856,-9.715671,-1.1109096
0.08395747,4.584787,0.027998514,0.012317227,0.06837715,-0.81402856,-9.715671,-1.1109096
0.08405052,4.5849085,0.025867987,0.009121433,0.06731189,-0.8619126,-9.753978,-1.1252748
0.08414336,4.58503,0.025867987,0.009121433,0.06731189,-0.8619126,-9.753978,-1.1252748
0.08423542,4.585152,0.025867987,0.009121433,0.06731189,-0.8619126,-9.753978,-1.1252748
0.08432262,4.5852757,0.026933251,0.008056169,0.06624663,-0.8523358,-9.77792,-1.1587936
0.08440909,4.5853996,0.026933251,0.008056169,0.06624663,-0.8523358,-9.77792,-1.1587936
0.08454594,4.585509,0.025867987,0.0069909045,0.06518136,-0.89064306,-9.782708,-1.1827357
0.08454594,4.585509,0.025867987,0.0069909045,0.06518136,-0.89064306,-9.782708,-1.1827357
0.08454594,4.585509,0.025867987,0.0069909045,0.06518136,-0.89064306,-9.782708,-1.1827357
0.08454594,4.585509,0.025867987,0.0069909045,0.06518136,-0.89064306,-9.782708,-1.1827357
0.08475019,4.5852056,0.026933251,0.003795111,0.0641161,-0.8283938,-9.744401,-1.2785037
0.084897764,4.58529,0.024802722,0.0016645822,0.059855036,-0.8379706,-9.725247,-1.2401965
0.085063,4.585388,0.024802722,0.0016645822,0.059855036,-0.8379706,-9.725247,-1.2401965
0.08517635,4.585323,0.022672193,-0.00046594674,0.055593982,-0.8714894,-9.734824,-1.292869
0.08529195,4.5852547,0.022672193,-0.00046594674,0.055593982,-0.8714894,-9.734824,-1.292869
0.08532388,4.5851793,0.02160693,-0.0015312112,0.05133292,-0.82360536,-9.691729,-1.3072342
0.08535608,4.585102,0.02160693,-0.0015312112,0.05133292,-0.82360536,-9.691729,-1.3072342
0.08532689,4.585038,0.020541664,-0.0047270046,0.0460066,-0.79966336,-9.65821,-1.2737153
0.08529723,4.5849752,0.020541664,-0.0047270046,0.0460066,-0.79966336,-9.65821,-1.2737153
0.08532804,4.584896,0.020541664,-0.0068575335,0.039615013,-0.81881696,-9.572019,-1.3024458
0.085358374,4.5848174,0.020541664,-0.0068575335,0.039615013,-0.81881696,-9.572019,-1.3024458
0.08531304,4.584756,0.020541664,-0.0068575335,0.033223428,-0.7565677,-9.581595,-1.3024458
0.085267454,4.584695,0.020541664,-0.0068575335,0.033223428,-0.7565677,-9.581595,-1.3024458
0.08526306,4.584619,0.02160693,-0.0068575335,0.027897105,-0.79487497,-9.5385,-1.3072342
0.08525848,4.584544,0.02160693,-0.0068575335,0.027897105,-0.79487497,-9.5385,-1.3072342
0.08523754,4.584474,0.024802722,-0.0047270046,0.018309724,-0.78529817,-9.524135,-1.3120226
0.085216545,4.584403,0.024802722,-0.0047270046,0.018309724,-0.78529817,-9.524135,-1.3120226
0.08519167,4.5843368,0.030129045,-0.0025964756,0.010852873,-0.79487497,-9.528923,-1.2976574
0.08516679,4.5842705,0.030129045,-0.0025964756,0.010852873,-0.79487497,-9.528923,-1.2976574
0.08504211,4.5842686,0.03545537,-0.0015312112,0.0044612866,-0.7757214,-9.495404,-1.2354081
0.08491794,4.5842657,0.03545537,-0.0015312112,0.0044612866,-0.7757214,-9.495404,-1.2354081
0.08480361,4.584244,0.039716423,0.0005993177,-0.004060829,-0.7182605,-9.500193,-1.2785037
0.08468962,4.584222,0.039716423,0.0005993177,-0.004060829,-0.7182605,-9.500193,-1.2785037
0.08454358,4.584249,0.043977484,0.0005993177,-0.008321887,-0.7661445,-9.5385,-1.2354081
0.08439762,4.5842752,0.043977484,0.0005993177,-0.008321887,-0.7661445,-9.5385,-1.2354081
0.084263936,4.5842714,0.047173277,0.0005993177,-0.013648209,-0.7422025,-9.423578,-1.2401965
0.084130906,4.584267,0.047173277,0.0005993177,-0.013648209,-0.7422025,-9.423578,-1.2401965
0.08397535,4.5843,0.05036907,0.0016645822,-0.017909266,-0.7517793,-9.428367,-1.2210429
0.0838185,4.5843315,0.05036907,0.0016645822,-0.017909266,-0.7517793,-9.428367,-1.2210429
0.08365862,4.5844045,0.05356486,0.0016645822,-0.022170324,-0.7278373,-9.409213,-1.2018893
0.08348858,4.584481,0.05356486,0.0016645822,-0.022170324,-0.7278373,-9.409213,-1.2018893
0.08333707,4.584563,0.055695392,0.0005993177,-0.026431382,-0.6895301,-9.375694,-1.1827357
0.08318084,4.584646,0.055695392,0.0005993177,-0.026431382,-0.6895301,-9.375694,-1.1827357
0.08305872,4.584776,0.056760654,0.0005993177,-0.026431382,-0.6943185,-9.394848,-1.1348516
0.082936436,4.584905,0.056760654,0.0005993177,-0.026431382,-0.6943185,-9.394848,-1.1348516
0.082771495,4.584967,0.05782592,-0.0025964756,-0.025366118,-0.6751649,-9.399636,-1.2018893
0.08260643,4.5850286,0.05782592,-0.0025964756,-0.025366118,-0.6751649,-9.399636,-1.2018893
0.08248935,4.585162,0.05782592,-0.00366174,-0.025366118,-0.7374141,-9.3661175,-1.163582
0.082359344,4.585309,0.05782592,-0.00366174,-0.025366118,-0.7374141,-9.3661175,-1.163582
0.08222136,4.585331,0.056760654,-0.0047270046,-0.022170324,-0.6847417,-9.399636,-1.2258313
0.08206859,4.5853543,0.056760654,-0.0047270046,-0.022170324,-0.6847417,-9.399636,-1.2258313
0.08193959,4.5853505,0.055695392,-0.005792269,-0.017909266,-0.6607997,-9.370906,-1.2593501
0.081811115,4.5853467,0.055695392,-0.005792269,-0.017909266,-0.6607997,-9.370906,-1.2593501
0.08166559,4.5853767,0.055695392,-0.0068575335,-0.01151768,-0.6799533,-9.3421755,-1.2114661
0.0815207,4.585406,0.055695392,-0.0068575335,-0.01151768,-0.6799533,-9.3421755,-1.2114661
0.08144512,4.585374,0.05356486,-0.0068575335,-0.006191358,-0.6847417,-9.3182335,-1.292869
0.08137023,4.5853415,0.05356486,-0.0068575335,-0.006191358,-0.6847417,-9.3182335,-1.292869
0.081295,4.585309,0.05356486,-0.0068575335,-0.006191358,-0.6847417,-9.3182335,-1.292869
0.08119834,4.585289,0.051434334,-0.007922798,-0.0008650357,-0.7038953,-9.337387,-1.2401965
0.081102185,4.585269,0.051434334,-0.007922798,-0.0008650357,-0.7038953,-9.337387,-1.2401965
0.08106361,4.585225,0.049303804,-0.007922798,0.008722344,-0.6943185,-9.375694,-1.3455414
0.08102517,4.585181,0.049303804,-0.007922798,0.008722344,-0.6943185,-9.375694,-1.3455414
0.081005014,4.585132,0.04610801,-0.005792269,0.021505518,-0.7230489,-9.452309,-1.3263878
0.08098481,4.585083,0.04610801,-0.005792269,0.021505518,-0.7230489,-9.452309,-1.3263878
0.08095277,4.585039,0.043977484,-0.0047270046,0.032158162,-0.7086837,-9.442732,-1.2976574
0.08092067,4.5849943,0.043977484,-0.0047270046,0.032158162,-0.7086837,-9.442732,-1.2976574
0.080903545,4.5849447,0.040781688,-0.00366174,0.041745543,-0.7086837,-9.457097,-1.3120226
0.08088617,4.584894,0.040781688,-0.00366174,0.041745543,-0.7086837,-9.457097,-1.3120226
0.08088926,4.584839,0.03865116,-0.0015312112,0.05026766,-0.7230489,-9.481039,-1.3215994
0.08089222,4.584783,0.03865116,-0.0015312112,0.05026766,-0.7230489,-9.481039,-1.3215994
0.08091475,4.5847244,0.03865116,0.0005993177,0.059855036,-0.7326257,-9.509769,-1.340753
0.08093704,4.5846663,0.03865116,0.0005993177,0.059855036,-0.7326257,-9.509769,-1.340753
0.08090191,4.584633,0.03652063,0.0027298466,0.06624663,-0.7038953,-9.490616,-1.2689269
0.080866516,4.5845995,0.03652063,0.0027298466,0.06624663,-0.7038953,-9.490616,-1.2689269
0.08090788,4.5845375,0.03652063,0.003795111,0.07263821,-0.7517793,-9.452309,-1.283292
0.08094845,4.5844755,0.03652063,0.003795111,0.07263821,-0.7517793,-9.452309,-1.283292
0.081038065,4.584412,0.037585896,0.0027298466,0.0790298,-0.78529817,-9.461885,-1.3072342
0.081126824,4.584349,0.037585896,0.0027298466,0.0790298,-0.78529817,-9.461885,-1.3072342
0.081229016,4.5842867,0.037585896,0.0027298466,0.08648665,-0.78529817,-9.471462,-1.2689269
0.081329495,4.5842233,0.037585896,0.0027298466,0.08648665,-0.78529817,-9.471462,-1.2689269
0.08128047,4.584279,0.037585896,0.0048603755,0.089682445,-0.7517793,-9.466674,-1.2162545
0.081230775,4.5843325,0.037585896,0.0048603755,0.089682445,-0.7517793,-9.466674,-1.2162545
0.08122461,4.584301,0.040781688,0.0048603755,0.09287824,-0.7326257,-9.457097,-1.2497733
0.081217974,4.5842695,0.040781688,0.0048603755,0.09287824,-0.7326257,-9.457097,-1.2497733
0.08126991,4.584405,0.041846953,0.00592564,0.09500877,-0.770933,-9.543288,-1.2018893
0.081318475,4.584541,0.041846953,0.00592564,0.09500877,-0.770933,-9.543288,-1.2018893
0.081482105,4.584496,0.04291222,0.008056169,0.09500877,-0.80445176,-9.500193,-1.2497733
0.08164407,4.58445,0.04291222,0.008056169,0.09500877,-0.80445176,-9.500193,-1.2497733
0.081841365,4.584556,0.041846953,0.0069909045,0.09500877,-0.80924016,-9.557653,-1.2162545
0.08203826,4.584663,0.041846953,0.0069909045,0.09500877,-0.80924016,-9.557653,-1.2162545
0.082247965,4.584647,0.040781688,0.0048603755,0.0939435,-0.81402856,-9.586384,-1.2401965
0.08245431,4.584628,0.040781688,0.0048603755,0.0939435,-0.81402856,-9.586384,-1.2401965
0.082585916,4.58457,0.03865116,0.0048603755,0.09181297,-0.81402856,-9.615114,-1.2641385
0.08271511,4.584511,0.03865116,0.0048603755,0.09181297,-0.81402856,-9.615114,-1.2641385
0.08280403,4.584446,0.03652063,0.0016645822,0.088617176,-0.80924016,-9.639056,-1.3934253
0.08289242,4.584381,0.03652063,0.0016645822,0.088617176,-0.80924016,-9.639056,-1.3934253
0.08298545,4.584316,0.03545537,-0.0015312112,0.08329086,-0.8331822,-9.696517,-1.436521
0.08307772,4.5842505,0.03545537,-0.0015312112,0.08329086,-0.8331822,-9.696517,-1.436521
0.0831433,4.5841837,0.033324838,-0.00366174,0.07689927,-0.79008657,-9.682152,-1.4796166
0.08320901,4.584116,0.033324838,-0.00366174,0.07689927,-0.79008657,-9.682152,-1.4796166
0.08326015,4.584048,0.031194309,-0.0068575335,0.06944242,-0.78529817,-9.706094,-1.4269443
0.08331092,4.5839796,0.031194309,-0.0068575335,0.06944242,-0.78529817,-9.706094,-1.4269443
0.08333603,4.5839167,0.033324838,-0.008988062,0.0609203,-0.7613561,-9.763555,-1.4269443
0.08336109,4.5838532,0.033324838,-0.008988062,0.0609203,-0.7613561,-9.763555,-1.4269443
0.08333357,4.5838084,0.03652063,-0.008988062,0.052398186,-0.7469909,-9.749189,-1.3359646
0.08330586,4.583764,0.03652063,-0.008988062,0.052398186,-0.7469909,-9.749189,-1.3359646
0.08322472,4.583853,0.043977484,-0.008988062,0.042810805,-0.641646,-9.701305,-1.1923125
0.083142795,4.5839415,0.043977484,-0.008988062,0.042810805,-0.641646,-9.701305,-1.1923125
0.08309092,4.584076,0.054630127,-0.00366174,0.031092897,-0.63206923,-9.672575,-1.0773908
0.08303879,4.5842104,0.054630127,-0.00366174,0.031092897,-0.63206923,-9.672575,-1.0773908
0.0830671,4.584375,0.06634804,0.0069909045,0.018309724,-0.81881696,-9.643845,-1.1492168
0.0830955,4.58454,0.06634804,0.0069909045,0.018309724,-0.81881696,-9.643845,-1.1492168
0.08315588,4.5845275,0.08019647,0.016578285,0.0044612866,-0.8379706,-9.576807,-1.283292
0.08321567,4.5845146,0.08019647,0.016578285,0.0044612866,-0.8379706,-9.576807,-1.283292
0.08318758,4.584508,0.09404491,0.018708814,-0.013648209,-0.79487497,-9.600749,-1.3455414
0.08315951,4.584501,0.09404491,0.018708814,-0.013648209,-0.79487497,-9.600749,-1.3455414
0.083116435,4.584507,0.106828086,0.01551302,-0.031757705,-0.81402856,-9.77792,-1.3455414
0.08307347,4.584513,0.106828086,0.01551302,-0.031757705,-0.81402856,-9.77792,-1.3455414
0.08306776,4.584534,0.11641546,0.011251962,-0.0498672,-0.8619126,-9.907207,-1.3359646
0.083061986,4.5845556,0.11641546,0.011251962,-0.0498672,-0.8619126,-9.907207,-1.3359646
0.08299583,4.58458,0.12493758,0.009121433,-0.06691143,-0.8475474,-10.04607,-1.484405
0.08292959,4.5846047,0.12493758,0.009121433,-0.06691143,-0.8475474,-10.04607,-1.484405
0.08284618,4.584635,0.13026391,0.00592564,-0.08502093,-0.8619126,-10.208876,-1.5705963
0.08276273,4.5846653,0.13026391,0.00592564,-0.08502093,-0.8619126,-10.208876,-1.5705963
0.08266604,4.5846977,0.13239443,0.0016645822,-0.09993463,-0.8810662,-10.409989,-1.6232687
0.082569554,4.5847306,0.13239443,0.0016645822,-0.09993463,-0.8810662,-10.409989,-1.6232687
0.08245232,4.584762,0.13026391,-0.0015312112,-0.11804412,-0.8858546,-10.577583,-1.7046716
0.082334146,4.5847936,0.13026391,-0.0015312112,-0.11804412,-0.8858546,-10.577583,-1.7046716
0.082204856,4.584817,0.122807056,-0.0047270046,-0.1340231,-0.90979666,-10.821792,-1.7717092
0.082074784,4.584841,0.122807056,-0.0047270046,-0.1340231,-0.90979666,-10.821792,-1.7717092
0.08193986,4.5848546,0.11215441,-0.008988062,-0.14787152,-0.9672575,-11.042058,-1.8770541
0.08180448,4.5848684,0.11215441,-0.008988062,-0.14787152,-0.9672575,-11.042058,-1.8770541
0.081671655,4.584871,0.09937123,-0.012183856,-0.16065471,-1.0342951,-11.219229,-1.8531121
0.081538536,4.5848737,0.09937123,-0.012183856,-0.16065471,-1.0342951,-11.219229,-1.8531121
0.08140953,4.584864,0.08339227,-0.01324912,-0.17769894,-1.1252748,-11.415554,-1.8435353
0.081280805,4.584855,0.08339227,-0.01324912,-0.17769894,-1.1252748,-11.415554,-1.8435353
0.08111988,4.5848255,0.06528277,-0.01324912,-0.19580843,-1.0582372,-11.530476,-1.8195933
0.080958664,4.584796,0.06528277,-0.01324912,-0.19580843,-1.0582372,-11.530476,-1.8195933
0.080766104,4.5847464,0.047173277,-0.015379649,-0.21817899,-1.0342951,-11.63582,-1.8339585
0.08057425,4.5846977,0.047173277,-0.015379649,-0.21817899,-1.0342951,-11.63582,-1.8339585
0.08035009,4.584631,0.02906378,-0.015379649,-0.24800639,-0.9959879,-11.707646,-1.7142484
0.080127425,4.584565,0.02906378,-0.015379649,-0.24800639,-0.9959879,-11.707646,-1.7142484
0.07985301,4.5844812,0.012019549,-0.010053327,-0.27996433,-0.9576807,-11.812991,-1.5705963
0.07958424,4.584397,0.012019549,-0.010053327,-0.27996433,-0.9576807,-11.812991,-1.5705963
0.07934077,4.5844817,-0.0028941538,0.0016645822,-0.31831384,-1.0582372,-11.980585,-1.4269443
0.07909842,4.584566,-0.0028941538,0.0016645822,-0.31831384,-1.0582372,-11.980585,-1.4269443
0.07864348,4.584632,-0.012481534,0.017643549,-0.36625075,-0.7038953,-12.129025,-1.3359646
0.07818903,4.584698,-0.012481534,0.017643549,-0.36625075,-0.7038953,-12.129025,-1.3359646
0.0777889,4.584777,-0.019938385,0.038948838,-0.4216445,-1.0726024,-12.35887,-1.1683705
0.07739073,4.584855,-0.019938385,0.038948838,-0.4216445,-1.0726024,-12.35887,-1.1683705
0.07699892,4.584899,-0.025264706,0.06344992,-0.48342985,-1.8052281,-12.62702,-1.0247183
0.07660785,4.5849423,-0.025264706,0.06344992,-0.48342985,-1.8052281,-12.62702,-1.0247183
0.076157235,4.584976,-0.029525764,0.08049415,-0.5473457,-2.0446482,-12.804191,-0.9768343
0.0757069,4.5850096,-0.029525764,0.08049415,-0.5473457,-2.0446482,-12.804191,-0.9768343
0.07519166,4.5850396,-0.033786822,0.086885735,-0.61126155,-2.0494366,-12.928689,-0.9816227
0.074676715,4.585069,-0.033786822,0.086885735,-0.61126155,-2.0494366,-12.928689,-0.9816227
0.07409426,4.5850906,-0.041243672,0.085820474,-0.68156904,-2.078167,-13.01488,-1.0055647
0.07346836,4.5851135,-0.041243672,0.085820474,-0.68156904,-2.078167,-13.01488,-1.0055647
0.072840214,4.5851245,-0.050831053,0.07516783,-0.75613755,-2.111686,-13.110648,-1.0151415
0.072194025,4.585136,-0.050831053,0.07516783,-0.75613755,-2.111686,-13.110648,-1.0151415
0.072194025,4.585136,-0.050831053,0.07516783,-0.75613755,-2.111686,-13.110648,-1.0151415
0.07049757,4.585145,-0.0614837,0.05918886,-0.83709764,-2.0925324,-13.239936,-1.0247183
0.069913626,4.5851407,-0.07320161,0.04214463,-0.92657983,-2.0398598,-13.278243,-1.0534488
0.069913626,4.5851407,-0.07320161,0.04214463,-0.92657983,-2.0398598,-13.278243,-1.0534488
0.06799231,4.5851154,-0.08278899,0.0251004,-1.0224537,-2.0590134,-13.450625,-1.0247183
0.067192785,4.5851045,-0.08278899,0.0251004,-1.0224537,-2.0590134,-13.450625,-1.0247183
0.067192785,4.5851045,-0.08278899,0.0251004,-1.0224537,-2.0590134,-13.450625,-1.0247183
0.06510537,4.585058,-0.093441635,0.011251962,-1.124719,-1.9919758,-13.560759,-1.091756
0.064089224,4.585028,-0.104094274,-0.00046594674,-1.233376,-2.0015526,-13.737929,-1.1252748
0.062972866,4.5849943,-0.104094274,-0.00046594674,-1.233376,-2.0015526,-13.737929,-1.1252748
0.06175099,4.584945,-0.11794271,-0.012183856,-1.3452288,-1.982399,-13.8480625,-1.2018893
0.060518645,4.5848947,-0.11794271,-0.012183856,-1.3452288,-1.982399,-13.8480625,-1.2018893
0.05919525,4.584823,-0.1360522,-0.023901764,-1.4656037,-1.9632454,-14.03481,-1.3072342
0.057857655,4.58475,-0.1360522,-0.023901764,-1.4656037,-1.9632454,-14.03481,-1.3072342
0.05640225,4.584661,-0.15629223,-0.037750203,-1.5923702,-2.0494366,-14.197616,-1.2545617
0.05494295,4.58457,-0.15629223,-0.037750203,-1.5923702,-2.0494366,-14.197616,-1.2545617
0.053350218,4.584464,-0.17653225,-0.050533377,-1.7255282,-2.0159178,-14.293385,-1.2258313
0.05175798,4.584357,-0.17653225,-0.050533377,-1.7255282,-2.0159178,-14.293385,-1.2258313
0.050023463,4.584239,-0.19570702,-0.064381815,-1.8618821,-1.9919758,-14.365211,-1.091756
0.048289753,4.5841203,-0.19570702,-0.064381815,-1.8618821,-1.9919758,-14.365211,-1.091756
0.04641256,4.5839863,-0.21381652,-0.079295516,-2.006758,-1.9057846,-14.346057,-1.0965444
0.04453618,4.583851,-0.21381652,-0.079295516,-2.006758,-1.9057846,-14.346057,-1.0965444
0.04251507,4.583699,-0.22873022,-0.091013424,-2.155895,-1.9536686,-14.369999,-1.0869676
0.040494844,4.5835466,-0.22873022,-0.091013424,-2.155895,-1.9536686,-14.369999,-1.0869676
0.038319975,4.58338,-0.24044813,-0.09953554,-2.3103583,-2.0685902,-14.326903,-1.0390835
0.036154523,4.583213,-0.24044813,-0.09953554,-2.3103583,-2.0685902,-14.326903,-1.0390835
0.033831213,4.5830307,-0.24897024,-0.105927125,-2.4722786,-2.1739352,-14.365211,-1.1109096
0.031508543,4.5828476,-0.24897024,-0.105927125,-2.4722786,-2.1739352,-14.365211,-1.1109096
0.029031975,4.582654,-0.25429657,-0.11231872,-2.6320682,-2.2409728,-14.417883,-1.163582
0.026558388,4.582459,-0.25429657,-0.11231872,-2.6320682,-2.2409728,-14.417883,-1.163582
0.023921914,4.582259,-0.25749236,-0.12084083,-2.796119,-2.2361844,-14.5328045,-1.1971009
0.021285968,4.5820575,-0.25749236,-0.12084083,-2.796119,-2.2361844,-14.5328045,-1.1971009
0.018489052,4.581848,-0.25855762,-0.133624,-2.9644308,-2.2697031,-14.709975,-1.3120226
0.015692517,4.581637,-0.25855762,-0.133624,-2.9644308,-2.2697031,-14.709975,-1.3120226
0.012730919,4.581421,-0.2617534,-0.1517335,-3.133808,-2.1978772,-14.84405,-1.3503298
0.0097460495,4.5812016,-0.2617534,-0.1517335,-3.133808,-2.1978772,-14.84405,-1.3503298
0.006629136,4.580987,-0.2649492,-0.17197353,-3.3085113,-2.1164744,-15.1936035,-1.292869
0.0035001833,4.580768,-0.2649492,-0.17197353,-3.3085113,-2.1164744,-15.1936035,-1.292869
0.00018895898,4.5805507,-0.268145,-0.19647461,-3.4842799,-2.030283,-15.480908,-1.2114661
6.280061,4.58033,-0.268145,-0.19647461,-3.4842799,-2.030283,-15.480908,-1.2114661
6.276571,4.580118,-0.26921028,-0.22097568,-3.6600485,-1.7190368,-15.859192,-1.0869676
6.2730684,4.5799017,-0.26921028,-0.22097568,-3.6600485,-1.7190368,-15.859192,-1.0869676
6.2694044,4.579688,-0.27240607,-0.24121572,-3.8379476,-1.5227122,-16.208746,-0.9816227
6.265727,4.57947,-0.27240607,-0.24121572,-3.8379476,-1.5227122,-16.208746,-0.9816227
6.2618895,4.579232,-0.27666712,-0.2561294,-4.0190425,-1.9680338,-16.591818,-1.115698
6.2580566,4.578991,-0.27666712,-0.2561294,-4.0190425,-1.9680338,-16.591818,-1.115698
6.25405,4.5787296,-0.28199345,-0.26997787,-4.201203,-2.5330653,-16.960526,-1.2162545
6.250039,4.5784636,-0.28199345,-0.26997787,-4.201203,-2.5330653,-16.960526,-1.2162545
6.2458696,4.5781755,-0.2894503,-0.28808734,-4.380167,-2.9640217,-17.195156,-1.4508862
6.241696,4.5778823,-0.2894503,-0.28808734,-4.380167,-2.9640217,-17.195156,-1.4508862
6.2373652,4.5775566,-0.3011682,-0.3168495,-4.5495443,-3.241749,-17.199945,-1.8579005
6.2330346,4.5772266,-0.3011682,-0.3168495,-4.5495443,-3.241749,-17.199945,-1.8579005
6.2285495,4.5768633,-0.31395137,-0.35413375,-4.71466,-3.3135753,-17.03714,-2.255338
6.224065,4.576495,-0.31395137,-0.35413375,-4.71466,-3.3135753,-17.03714,-2.255338
6.2194233,4.5760965,-0.32353875,-0.3978096,-4.8797765,-3.265691,-16.778566,-2.5905263
6.214782,4.575694,-0.32353875,-0.3978096,-4.8797765,-3.265691,-16.778566,-2.5905263
6.2099824,4.575266,-0.32779983,-0.44042018,-5.0459576,-3.2513258,-16.328455,-2.8921957
6.205178,4.574833,-0.32779983,-0.44042018,-5.0459576,-3.2513258,-16.328455,-2.8921957
6.2002068,4.5743847,-0.3224735,-0.47663915,-5.213204,-3.1651347,-15.677233,-3.098097
6.195251,4.5739326,-0.3224735,-0.47663915,-5.213204,-3.1651347,-15.677233,-3.098097
6.190129,4.5734854,-0.30542925,-0.500075,-5.3847117,-3.1555579,-14.968549,-3.0789435
6.185007,4.573032,-0.30542925,-0.500075,-5.3847117,-3.1555579,-14.968549,-3.0789435
6.1797094,4.5725985,-0.27453658,-0.5075318,-5.559415,-3.241749,-14.264654,-3.0262709
6.174417,4.572159,-0.27453658,-0.5075318,-5.559415,-3.241749,-14.264654,-3.0262709
6.168948,4.5717616,-0.22766495,-0.4968792,-5.733053,-3.2848446,-13.484144,-2.743755
6.163474,4.5713577,-0.22766495,-0.4968792,-5.733053,-3.2848446,-13.484144,-2.743755
6.157823,4.5710154,-0.16587962,-0.47024757,-5.9088216,-3.169923,-12.780249,-2.3750482
6.1521783,4.570666,-0.16587962,-0.47024757,-5.9088216,-3.169923,-12.780249,-2.3750482
6.146353,4.570393,-0.09024584,-0.42763698,-6.0856557,-3.2369606,-12.253524,-2.078167
6.1405272,4.570113,-0.09024584,-0.42763698,-6.0856557,-3.2369606,-12.253524,-2.078167
6.1345234,4.569916,-0.0071552116,-0.36904746,-6.2635546,-3.2225955,-11.860875,-1.9153614
6.1284957,4.5697103,-0.0071552116,-0.36904746,-6.2635546,-3.2225955,-11.860875,-1.9153614
6.1223164,4.569585,0.075935416,-0.29874,-6.437193,-3.3806129,-11.611878,-1.9919758
6.116131,4.569452,0.075935416,-0.29874,-6.437193,-3.3806129,-11.611878,-1.9919758
6.1097574,4.569385,0.14943866,-0.22523674,-6.610831,-3.5769374,-11.544841,-2.2984335
6.103384,4.5693107,0.14943866,-0.22523674,-6.610831,-3.5769374,-11.544841,-2.2984335
6.0968294,4.569288,0.20802821,-0.15599456,-6.783404,-3.8642416,-11.382035,-2.6240451
6.0902753,4.5692577,0.20802821,-0.15599456,-6.783404,-3.8642416,-11.382035,-2.6240451
6.0834627,4.5692525,0.2410514,-0.093143955,-6.945324,-4.1419687,-11.128249,-3.0119057
6.07659,4.5692396,0.2410514,-0.093143955,-6.945324,-4.1419687,-11.128249,-3.0119057
6.069754,4.5692368,0.25489986,-0.03881547,-7.0976567,-4.43885,-10.635044,-3.1603463
6.063008,4.5692267,0.25489986,-0.03881547,-7.0976567,-4.43885,-10.635044,-3.1603463
6.0560174,4.569207,0.25170404,0.00592564,-7.240402,-4.6926355,-9.907207,-3.3135753
6.0489984,4.56918,0.25170404,0.00592564,-7.240402,-4.6926355,-9.907207,-3.3135753
6.0418215,4.569129,0.23465982,0.037883572,-7.3735604,-4.8267107,-9.011775,-3.3039982
6.0346584,4.569071,0.23465982,0.037883572,-7.3735604,-4.8267107,-9.011775,-3.3039982
6.027356,4.5689807,0.21228927,0.05918886,-7.4960656,-4.6255975,-8.049306,-3.1794999
6.020068,4.5688825,0.21228927,0.05918886,-7.4960656,-4.6255975,-8.049306,-3.1794999
6.012659,4.5687494,0.18885344,0.073037304,-7.608984,-4.060566,-6.9527617,-2.8921957
6.005228,4.568608,0.18885344,0.073037304,-7.608984,-4.060566,-6.9527617,-2.8921957
5.9977303,4.568434,0.16967869,0.08475521,-7.718706,-3.4763808,-5.8226986,-2.6431987
5.99021,4.5682507,0.16967869,0.08475521,-7.718706,-3.4763808,-5.8226986,-2.6431987
5.9825783,4.568046,0.15902604,0.100734174,-7.8284283,-3.241749,-4.807557,-2.3942018
5.974954,4.5678334,0.15902604,0.100734174,-7.8284283,-3.241749,-4.807557,-2.3942018
5.9672136,4.5676136,0.15796077,0.1209742,-7.9338894,-3.1603463,-3.787627,-2.0685902
5.959473,4.567384,0.15796077,0.1209742,-7.9338894,-3.1603463,-3.787627,-2.0685902
5.951633,4.567156,0.16754816,0.14441001,-8.029763,-2.5187001,-2.6431987,-1.6376339
5.943793,4.5669174,0.16754816,0.14441001,-8.029763,-2.5187001,-2.6431987,-1.6376339
5.9358644,4.5666876,0.1845924,0.16997637,-8.11605,-1.4317327,-1.733402,-1.0486604
5.9279366,4.566448,0.1845924,0.16997637,-8.11605,-1.4317327,-1.733402,-1.0486604
5.9199104,4.566214,0.20802821,0.2019343,-8.195945,-0.07182605,-1.0007763,-0.38307226
5.911893,4.5659704,0.20802821,0.2019343,-8.195945,-0.07182605,-1.0007763,-0.38307226
5.9035716,4.565854,0.23679034,0.24241436,-8.270513,1.3359646,-0.46926352,0.21068975
5.8952503,4.565729,0.23679034,0.24241436,-8.270513,1.3359646,-0.46926352,0.21068975
5.886868,4.5656433,0.26661775,0.29461232,-8.33869,2.5330653,-0.22505496,0.7134721
5.8787036,4.565551,0.26661775,0.29461232,-8.33869,2.5330653,-0.22505496,0.7134721
5.8702435,4.5655003,0.29431462,0.35533237,-8.405802,3.4141316,-0.14844051,1.2306197
5.8615723,4.565439,0.29431462,0.35533237,-8.405802,3.4141316,-0.14844051,1.2306197
5.8530555,4.565414,0.31135887,0.4203135,-8.46226,3.8594532,-0.15322891,1.3982137
5.844581,4.56538,0.31135887,0.4203135,-8.46226,3.8594532,-0.15322891,1.3982137
5.836006,4.565365,0.31135887,0.4831641,-8.501676,4.0653543,-0.29688102,1.4221559
5.8273964,4.565342,0.31135887,0.4831641,-8.501676,4.0653543,-0.29688102,1.4221559
5.818809,4.565315,0.29324937,0.5321663,-8.52085,4.285621,-0.45010993,1.3503298
5.8101616,4.5652795,0.29324937,0.5321663,-8.52085,4.285621,-0.45010993,1.3503298
5.8014603,4.565212,0.25809565,0.55986315,-8.514459,4.711789,-0.58418524,1.2497733
5.7929997,4.5651393,0.25809565,0.55986315,-8.514459,4.711789,-0.58418524,1.2497733
5.7841945,4.565009,0.20696294,0.56838524,-8.479305,5.080496,-0.63206923,1.292869
5.775877,4.5648785,0.20696294,0.56838524,-8.479305,5.080496,-0.63206923,1.292869
5.7673864,4.5646744,0.1451776,0.55986315,-8.413259,5.650316,-0.60812724,1.4173675
5.758904,4.5644617,0.1451776,0.55986315,-8.413259,5.650316,-0.60812724,1.4173675
5.7504935,4.564169,0.07806595,0.5385579,-8.319515,6.143522,-0.46926352,1.6376339
5.7420754,4.563867,0.07806595,0.5385579,-8.319515,6.143522,-0.46926352,1.6376339
5.7337794,4.5634866,0.015215342,0.51299155,-8.200206,6.6415157,-0.2873042,1.7812861
5.725525,4.563099,0.015215342,0.51299155,-8.200206,6.6415157,-0.2873042,1.7812861
5.717389,4.5626397,-0.039113145,0.48742518,-8.05746,7.062895,-0.10534488,1.7286136
5.709254,4.56217,-0.039113145,0.48742518,-8.05746,7.062895,-0.10534488,1.7286136
5.7012787,4.561646,-0.07852793,0.4629241,-7.896605,7.374141,0.110133275,1.5610195
5.6933036,4.561111,-0.07852793,0.4629241,-7.896605,7.374141,0.110133275,1.5610195
5.685516,4.5605364,-0.107290074,0.43948826,-7.709119,7.675811,0.15801731,1.412579
5.677728,4.559951,-0.107290074,0.43948826,-7.709119,7.675811,0.15801731,1.412579
5.6701536,4.559343,-0.121138506,0.418183,-7.501392,8.034941,0.22026655,1.1587936
5.6625643,4.5587225,-0.121138506,0.418183,-7.501392,8.034941,0.22026655,1.1587936
5.655208,4.5580955,-0.124334306,0.3990082,-7.2734256,8.274361,0.19153613,0.92895025
5.6478524,4.557457,-0.124334306,0.3990082,-7.2734256,8.274361,0.19153613,0.92895025
5.6407523,4.556825,-0.11687745,0.3808987,-7.020958,8.42759,0.08140286,0.58418524
5.6336455,4.556182,-0.11687745,0.3808987,-7.020958,8.42759,0.08140286,0.58418524
5.626791,4.5555553,-0.10196375,0.3670503,-6.7503805,8.6813755,-0.08619126,0.20590134
5.619957,4.55492,-0.10196375,0.3670503,-6.7503805,8.6813755,-0.08619126,0.20590134
5.6134033,4.5543113,-0.08278899,0.35213658,-6.465955,8.959103,-0.20111294,-0.095768064
5.606837,4.5536904,-0.08278899,0.35213658,-6.465955,8.959103,-0.20111294,-0.095768064
5.60058,4.553101,-0.0614837,0.33615762,-6.164485,9.227253,-0.4309563,-0.4261679
5.5943117,4.5525007,-0.0614837,0.33615762,-6.164485,9.227253,-0.4309563,-0.4261679
5.5883574,4.5519333,-0.042308938,0.3223092,-5.8523626,9.313444,-0.6512229,-0.7661445
5.582391,4.5513544,-0.042308938,0.3223092,-5.8523626,9.313444,-0.6512229,-0.7661445
5.576769,4.5508137,-0.024199443,0.3073955,-5.527457,9.251195,-0.94810385,-1.0007763
5.5711246,4.550262,-0.024199443,0.3073955,-5.527457,9.251195,-0.94810385,-1.0007763
5.5658226,4.5497475,-0.012481534,0.29354703,-5.192964,9.088389,-1.3455414,-1.067814
5.5658226,4.5497475,-0.012481534,0.29354703,-5.192964,9.088389,-1.3455414,-1.067814
5.5658226,4.5497475,-0.006089947,0.28182915,-4.8488836,8.7532015,-1.8962077,-1.316811
5.550473,4.5482254,-0.006089947,0.28182915,-4.8488836,8.7532015,-1.8962077,-1.316811
5.5457125,4.5477414,-0.009285741,0.27543753,-4.4898896,8.307879,-2.504335,-1.4077905
5.5457125,4.5477414,-0.009285741,0.27543753,-4.4898896,8.307879,-2.504335,-1.4077905
5.5359244,4.5467215,-0.02313418,0.27224174,-4.1149163,7.9248075,-3.1411927,-1.6328455
5.532654,4.546365,-0.02313418,0.27224174,-4.1149163,7.9248075,-3.1411927,-1.6328455
5.5285873,4.5458975,-0.045504734,0.2711765,-3.7271602,7.723695,-3.8067808,-1.7860745
5.525022,4.545483,-0.045504734,0.2711765,-3.7271602,7.723695,-3.8067808,-1.7860745
5.5216184,4.545075,-0.07426687,0.27437228,-3.3266206,7.699753,-4.4101195,-1.7190368
5.5181913,4.54466,-0.07426687,0.27437228,-3.3266206,7.699753,-4.4101195,-1.7190368
5.5151424,4.544271,-0.10196375,0.27756807,-2.9218202,7.704541,-5.046977,-1.757344
5.5121064,4.54388,-0.10196375,0.27756807,-2.9218202,7.704541,-5.046977,-1.757344
5.5094376,4.5435314,-0.12646483,0.28395966,-2.5202155,7.6710224,-5.616797,-1.6472107
5.506782,4.5431814,-0.12646483,0.28395966,-2.5202155,7.6710224,-5.616797,-1.6472107
5.504524,4.5428853,-0.1456396,0.29354703,-2.1239371,7.723695,-6.042965,-1.6041151
5.502249,4.542584,-0.1456396,0.29354703,-2.1239371,7.723695,-6.042965,-1.6041151
5.5003624,4.542347,-0.15203118,0.309526,-1.7404419,7.680599,-6.4164605,-1.5945383
5.49849,4.5421085,-0.15203118,0.309526,-1.7404419,7.680599,-6.4164605,-1.5945383
5.4969845,4.5419426,-0.14670485,0.32976604,-1.3771867,7.6135616,-6.6654577,-1.5993267
5.495475,4.5417743,-0.14670485,0.32976604,-1.3771867,7.6135616,-6.6654577,-1.5993267
5.4943166,4.5416975,-0.12539956,0.35533237,-1.0363021,7.5465236,-6.7468605,-1.6424223
5.4931583,4.5416203,-0.12539956,0.35533237,-1.0363021,7.5465236,-6.7468605,-1.6424223
5.49232,4.5416555,-0.08705004,0.38302925,-0.72204906,7.4268136,-6.8043213,-1.5993267
5.4914737,4.5416913,-0.08705004,0.38302925,-0.72204906,7.4268136,-6.8043213,-1.5993267
5.490932,4.5418515,-0.032721557,0.41072613,-0.43868873,7.3549876,-6.7947445,-1.6424223
5.490388,4.5420127,-0.032721557,0.41072613,-0.43868873,7.3549876,-6.7947445,-1.6424223
5.4900694,4.5423136,0.031194309,0.43948826,-0.19048211,7.350199,-6.751649,-1.5466543
5.4897494,4.5426154,0.031194309,0.43948826,-0.19048211,7.350199,-6.751649,-1.5466543
5.4896126,4.543066,0.104697555,0.46718514,0.020440254,7.2448545,-6.703765,-1.3838485
5.489477,4.5435157,0.104697555,0.46718514,0.020440254,7.2448545,-6.703765,-1.3838485
5.489477,4.5435157,0.104697555,0.46718514,0.020440254,7.2448545,-6.703765,-1.3838485
5.4894943,4.5447598,0.18565765,0.49488202,0.1930131,7.153875,-6.5361705,-1.3215994
5.4895906,4.545541,0.27194408,0.5204484,0.32830167,7.043741,-6.4068837,-1.1444284
5.489687,4.5463114,0.27194408,0.5204484,0.32830167,7.043741,-6.4068837,-1.1444284
5.48988,4.5472884,0.36036104,0.5428189,0.42737126,6.967127,-6.1866174,-1.0103531
5.4900813,4.5483046,0.36036104,0.5428189,0.42737126,6.967127,-6.1866174,-1.0103531
5.4903445,4.5494313,0.44984323,0.56199366,0.4923524,6.967127,-5.923255,-0.8714894
5.490606,4.5505495,0.44984323,0.56199366,0.4923524,6.967127,-5.923255,-0.8714894
5.4909105,4.551803,0.5371949,0.5769074,0.5253756,7.029376,-5.57849,-0.60812724
5.4912176,4.553062,0.5371949,0.5769074,0.5253756,7.029376,-5.57849,-0.60812724
5.49152,4.5544086,0.6245466,0.5907558,0.52644086,7.1059904,-5.2480903,-0.521936
5.4918222,4.555752,0.6245466,0.5907558,0.52644086,7.1059904,-5.2480903,-0.521936
5.4921002,4.5571856,0.7087025,0.6003432,0.49980927,7.1347213,-4.8985367,-0.35913026
5.4923787,4.558618,0.7087025,0.6003432,0.49980927,7.1347213,-4.8985367,-0.35913026
5.492607,4.560129,0.7896626,0.6088653,0.44867656,7.2304893,-4.5058875,-0.21068975
5.492836,4.561639,0.7896626,0.6088653,0.44867656,7.2304893,-4.5058875,-0.21068975
5.4929914,4.5632133,0.86742693,0.6131264,0.37517333,7.3645644,-4.122815,-0.110133275
5.493149,4.564788,0.86742693,0.6131264,0.37517333,7.3645644,-4.122815,-0.110133275
5.4932165,4.566421,0.9409301,0.6131264,0.28356057,7.383718,-3.8259344,-0.019153614
5.4932847,4.5680532,0.9409301,0.6131264,0.28356057,7.383718,-3.8259344,-0.019153614
5.4932494,4.5697284,1.0080419,0.6088653,0.17703412,7.393295,-3.41892,0.038307227
5.4932146,4.5714025,1.0080419,0.6088653,0.17703412,7.393295,-3.41892,0.038307227
5.493067,4.573105,1.0698272,0.59608215,0.061985567,7.417237,-3.1747115,0.01436521
5.4929204,4.5748067,1.0698272,0.59608215,0.061985567,7.417237,-3.1747115,0.01436521
5.492656,4.5765224,1.1230904,0.5790379,-0.058389317,7.3885064,-2.858677,-0.019153614
5.4923935,4.5782385,1.1230904,0.5790379,-0.058389317,7.3885064,-2.858677,-0.019153614
5.492013,4.5799494,1.1667662,0.5545368,-0.1787642,7.4124484,-2.6384103,-0.1340753
5.4916334,4.5816607,1.1667662,0.5545368,-0.1787642,7.4124484,-2.6384103,-0.1340753
5.4911427,4.583364,1.2040504,0.5225789,-0.2959433,7.4842744,-2.3415294,-0.08140286
5.490654,4.585065,1.2040504,0.5225789,-0.2959433,7.4842744,-2.3415294,-0.08140286
5.4900584,4.5867367,1.2296169,0.48529464,-0.40779606,7.4986396,-2.0925324,-0.16280572
5.489461,4.5884156,1.2296169,0.48529464,-0.40779606,7.4986396,-2.0925324,-0.16280572
5.4887733,4.590043,1.2455958,0.44694513,-0.5089962,7.4268136,-1.8100165,-0.21068975
5.488083,4.5916786,1.2455958,0.44694513,-0.5089962,7.4268136,-1.8100165,-0.21068975
5.4873157,4.5932684,1.2519873,0.4085956,-0.5920868,7.417237,-1.5658079,-0.2777274
5.486548,4.594859,1.2519873,0.4085956,-0.5920868,7.417237,-1.5658079,-0.2777274
5.4857244,4.596401,1.2498568,0.36918083,-0.6549374,7.345411,-1.3263878,-0.2777274
5.4849005,4.5979443,1.2498568,0.36918083,-0.6549374,7.345411,-1.3263878,-0.2777274
5.4840417,4.5994267,1.2402694,0.32976604,-0.6943522,7.431602,-1.043872,-0.45010993
5.4831834,4.60091,1.2402694,0.32976604,-0.6943522,7.431602,-1.043872,-0.45010993
5.482314,4.6023293,1.2232252,0.28822073,-0.71033114,7.5465236,-0.7613561,-0.5506664
5.4814467,4.6037464,1.2232252,0.28822073,-0.71033114,7.5465236,-0.7613561,-0.5506664
5.480589,4.6051025,1.1987242,0.24561015,-0.70180905,7.666234,-0.5506664,-0.61770403
5.4797497,4.6064296,1.1987242,0.24561015,-0.70180905,7.666234,-0.5506664,-0.61770403
5.4789295,4.607711,1.1688968,0.2051301,-0.6709164,7.795521,-0.4261679,-0.7422025
5.478094,4.609018,1.1688968,0.2051301,-0.6709164,7.795521,-0.4261679,-0.7422025
5.477329,4.6102314,1.1326778,0.16784583,-0.6197837,7.929596,-0.32561144,-0.78050977
5.4765673,4.6114397,1.1326778,0.16784583,-0.6197837,7.929596,-0.32561144,-0.78050977
5.4758787,4.6125793,1.0890019,0.12949632,-0.54628044,8.00621,-0.4261679,-0.79966336
5.475187,4.6137247,1.0890019,0.12949632,-0.54628044,8.00621,-0.4261679,-0.79966336
5.4745955,4.614791,1.0421302,0.09647312,-0.4514719,8.025364,-0.47884035,-0.8475474
5.474005,4.615857,1.0421302,0.09647312,-0.4514719,8.025364,-0.47884035,-0.8475474
5.4735312,4.616851,0.9878018,0.06877624,-0.33642334,8.015787,-0.6368576,-0.89064306
5.473057,4.617845,0.9878018,0.06877624,-0.33642334,8.015787,-0.6368576,-0.89064306
5.4727182,4.618765,0.9249512,0.045340426,-0.20113476,7.881712,-0.8283938,-0.93373865
5.47238,4.6196823,0.9249512,0.045340426,-0.20113476,7.881712,-0.8283938,-0.93373865
5.472198,4.620519,0.85464376,0.026165664,-0.045606144,7.747637,-1.0582372,-1.0390835
5.4720163,4.6213555,0.85464376,0.026165664,-0.045606144,7.747637,-1.0582372,-1.0390835
5.4720063,4.6221137,0.7779447,0.0069909045,0.12590143,7.517793,-1.3551182,-1.0247183
5.4719963,4.6228657,0.7779447,0.0069909045,0.12590143,7.517793,-1.3551182,-1.0247183
5.472172,4.6235294,0.69591933,-0.01324912,0.31125745,7.28795,-1.7908629,-1.0390835
5.4723473,4.6241927,0.69591933,-0.01324912,0.31125745,7.28795,-1.7908629,-1.0390835
5.472721,4.624772,0.6117634,-0.03242388,0.50833136,7.1634517,-2.2457612,-0.9576807
5.4730945,4.625351,0.6117634,-0.03242388,0.50833136,7.1634517,-2.2457612,-0.9576807
5.4736733,4.625842,0.52441174,-0.054794434,0.7139274,7.0485296,-2.8203697,-0.81402856
5.474252,4.626333,0.52441174,-0.054794434,0.7139274,7.0485296,-2.8203697,-0.81402856
5.4750395,4.6267414,0.43812534,-0.078230254,0.921654,6.9479733,-3.4476504,-0.6512229
5.4758253,4.627149,0.43812534,-0.078230254,0.921654,6.9479733,-3.4476504,-0.6512229
5.476818,4.627486,0.3550347,-0.10166607,1.1261847,6.909666,-4.189853,-0.46447513
5.4778085,4.627822,0.3550347,-0.10166607,1.1261847,6.909666,-4.189853,-0.46447513
5.479004,4.628085,0.27833566,-0.124036625,1.328585,6.8809357,-4.7261543,-0.4213795
5.4802,4.6283484,0.27833566,-0.124036625,1.328585,6.8809357,-4.7261543,-0.4213795
5.48162,4.6285477,0.20589767,-0.14108086,1.5235285,6.8091097,-5.2385135,-0.4261679
5.4829836,4.6287394,0.20589767,-0.14108086,1.5235285,6.8091097,-5.2385135,-0.4261679
5.484555,4.6288786,0.14091654,-0.1517335,1.7046233,6.679823,-5.6790466,-0.45489833
5.4861274,4.629017,0.14091654,-0.1517335,1.7046233,6.679823,-5.6790466,-0.45489833
5.487878,4.629036,0.08339227,-0.15386403,1.8708047,6.5984197,-5.995081,-0.61291564
5.489627,4.629057,0.08339227,-0.15386403,1.8708047,6.5984197,-5.995081,-0.61291564
5.491603,4.62897,0.032259572,-0.15279876,2.0188763,6.5601125,-6.2823853,-0.7134721
5.4935713,4.628886,0.032259572,-0.15279876,2.0188763,6.5601125,-6.2823853,-0.7134721
5.4957466,4.6287637,-0.013546798,-0.15066823,2.1445775,6.493075,-6.4643445,-0.7086837
5.4979105,4.6286397,-0.013546798,-0.15066823,2.1445775,6.493075,-6.4643445,-0.7086837
5.5002527,4.6285257,-0.052961584,-0.14640717,2.2457776,6.2823853,-6.5601125,-0.7278373
5.502538,4.6284103,-0.052961584,-0.14640717,2.2457776,6.2823853,-6.5601125,-0.7278373
5.5049815,4.6283035,-0.08598478,-0.14214613,2.3224766,6.105214,-6.6271505,-0.7134721
5.5074773,4.6281924,-0.08598478,-0.14214613,2.3224766,6.105214,-6.6271505,-0.7134721
5.509995,4.6280947,-0.11474692,-0.13468927,2.3821316,5.971139,-6.646304,-0.6703765
5.512504,4.6279945,-0.11474692,-0.13468927,2.3821316,5.971139,-6.646304,-0.6703765
5.515047,4.6278734,-0.139248,-0.12616715,2.4215462,6.090849,-6.50744,-0.61291564
5.5176044,4.6277447,-0.139248,-0.12616715,2.4215462,6.090849,-6.50744,-0.61291564
5.5199547,4.6275663,-0.16055329,-0.11551451,2.4439168,6.3446345,-6.3925185,-0.641646
5.5222936,4.6273966,-0.16055329,-0.11551451,2.4439168,6.3446345,-6.3925185,-0.641646
5.5246005,4.6272764,-0.18079332,-0.10060081,2.4428515,6.5361705,-6.3206925,-0.61770403
5.526907,4.627158,-0.18079332,-0.10060081,2.4428515,6.5361705,-6.3206925,-0.61770403
5.529187,4.6270485,-0.19996808,-0.08355658,2.420481,6.6367273,-6.205771,-0.60333884
5.531467,4.62694,-0.19996808,-0.08355658,2.420481,6.6367273,-6.205771,-0.60333884
5.533704,4.6268086,-0.22020811,-0.064381815,2.3778706,6.531382,-6.181829,-0.6464345
5.5359426,4.6266785,-0.22020811,-0.064381815,2.3778706,6.531382,-6.181829,-0.6464345
5.5381308,4.626525,-0.2383176,-0.047337584,2.3214114,6.3063273,-6.14831,-0.6607997
5.540316,4.626374,-0.2383176,-0.047337584,2.3214114,6.3063273,-6.14831,-0.6607997
5.542479,4.626176,-0.2564271,-0.040945996,2.2574956,6.033388,-6.1100025,-0.6703765
5.5446734,4.6259794,-0.2564271,-0.040945996,2.2574956,6.033388,-6.1100025,-0.6703765
5.5466766,4.6257796,-0.27347133,-0.044141788,2.190384,6.0525417,-6.0477533,-0.6655881
5.548747,4.625576,-0.27347133,-0.044141788,2.190384,6.0525417,-6.0477533,-0.6655881
5.550688,4.625386,-0.28731975,-0.051598642,2.1243377,6.05733,-5.947197,-0.58897364
5.552666,4.6251926,-0.28731975,-0.051598642,2.1243377,6.05733,-5.947197,-0.58897364
5.5545897,4.6249766,-0.29690716,-0.06118602,2.0646827,6.066907,-5.9519854,-0.59376204
5.556513,4.6247616,-0.29690716,-0.06118602,2.0646827,6.066907,-5.9519854,-0.59376204
5.5583835,4.6245418,-0.30329874,-0.0707734,2.01355,6.042965,-5.779603,-0.545878
5.56026,4.624322,-0.30329874,-0.0707734,2.01355,6.042965,-5.779603,-0.545878
5.5620875,4.624084,-0.30329874,-0.07503446,1.9698743,6.0285997,-5.6215854,-0.58897364
5.563923,4.623846,-0.30329874,-0.07503446,1.9698743,6.0285997,-5.6215854,-0.58897364
5.565719,4.6236124,-0.29903767,-0.077164985,1.9400468,6.019023,-5.391742,-0.56982
5.567519,4.6233797,-0.29903767,-0.077164985,1.9400468,6.019023,-5.391742,-0.56982
5.5693083,4.6231537,-0.2894503,-0.07396919,1.9293941,5.9807158,-5.080496,-0.58897364
5.571098,4.6229286,-0.2894503,-0.07396919,1.9293941,5.9807158,-5.080496,-0.58897364
5.5728936,4.622727,-0.27453658,-0.066512346,1.936851,6.0477533,-4.7405195,-0.5793968
5.57469,4.6225257,-0.27453658,-0.066512346,1.936851,6.0477533,-4.7405195,-0.5793968
5.5803328,4.622012,-0.25429657,-0.052663904,1.9634826,6.1100025,-4.381389,-0.5650316
5.5803328,4.622012,-0.25429657,-0.052663904,1.9634826,6.1100025,-4.381389,-0.5650316
5.5803328,4.622012,-0.25429657,-0.052663904,1.9634826,6.1100025,-4.381389,-0.5650316
5.5825644,4.6218834,-0.22553442,-0.033489145,2.0103543,6.2584434,-3.9264908,-0.44532153
5.583946,4.621859,-0.18931544,-0.010053327,2.077466,6.579266,-3.5913026,-0.24899697
5.5860386,4.621821,-0.18931544,-0.010053327,2.077466,6.579266,-3.5913026,-0.24899697
5.588001,4.6218677,-0.14457433,0.019774077,2.1648176,6.9240313,-3.3901896,-0.076614454
5.590021,4.621915,-0.14457433,0.019774077,2.1648176,6.9240313,-3.3901896,-0.076614454
5.592057,4.6220536,-0.09024584,0.054927804,2.267083,7.216124,-3.3375173,0.11971009
5.594167,4.622196,-0.09024584,0.054927804,2.267083,7.216124,-3.3375173,0.11971009
5.5964065,4.622443,-0.027395237,0.09221206,2.384262,7.1059904,-3.3662477,0.15801731
5.5986385,4.6226873,-0.027395237,0.09221206,2.384262,7.1059904,-3.3662477,0.15801731
5.601014,4.623042,0.03652063,0.12949632,2.51742,6.742072,-3.5003228,0.22505496
5.6033845,4.623393,0.03652063,0.12949632,2.51742,6.742072,-3.5003228,0.22505496
5.6059017,4.6238327,0.0972407,0.16145425,2.674014,6.26802,-3.6008794,0.02873042
5.608427,4.624271,0.0972407,0.16145425,2.674014,6.26802,-3.6008794,0.02873042
5.611141,4.6247735,0.15476498,0.18275954,2.8583047,5.9519854,-3.5625722,-0.33039984
5.6138144,4.625265,0.15476498,0.18275954,2.8583047,5.9519854,-3.5625722,-0.33039984
5.616708,4.6257896,0.20163663,0.19021639,3.0670967,5.5976434,-3.4811692,-0.7517793
5.6196103,4.6263123,0.20163663,0.19021639,3.0670967,5.5976434,-3.4811692,-0.7517793
5.622751,4.62684,0.23892088,0.18169427,3.2950633,5.463568,-3.3039982,-1.283292
5.6258926,4.627365,0.23892088,0.18169427,3.2950633,5.463568,-3.3039982,-1.283292
5.629288,4.6278906,0.2623567,0.15506266,3.540074,5.434838,-3.0358477,-1.6280571
5.6326838,4.6284127,0.2623567,0.15506266,3.540074,5.434838,-3.0358477,-1.6280571
5.636346,4.6289163,0.27513987,0.11351735,3.7957375,5.535394,-2.753332,-2.1021092
5.6400075,4.629416,0.27513987,0.11351735,3.7957375,5.535394,-2.753332,-2.1021092
5.6439304,4.629889,0.2740746,0.06344992,4.054597,5.6359506,-2.4229321,-2.27928
5.647854,4.630359,0.2740746,0.06344992,4.054597,5.6359506,-2.4229321,-2.27928
5.652038,4.6307936,0.26022616,0.009121433,4.316652,5.7125654,-2.1978772,-2.1978772
5.6562223,4.6312246,0.26022616,0.009121433,4.316652,5.7125654,-2.1978772,-2.1978772
5.660672,4.6316137,0.23892088,-0.03988073,4.5808372,5.693412,-2.087744,-2.1547816
5.665122,4.632,0.23892088,-0.03988073,4.5808372,5.693412,-2.087744,-2.1547816
5.6698318,4.632343,0.20909347,-0.08249131,4.840762,5.645528,-1.9967642,-2.0254946
5.6745415,4.6326823,0.20909347,-0.08249131,4.840762,5.645528,-1.9967642,-2.0254946
5.67951,4.632972,0.17287448,-0.11551451,5.0964255,5.568913,-2.1547816,-2.0446482
5.6844788,4.633259,0.17287448,-0.11551451,5.0964255,5.568913,-2.1547816,-2.0446482
5.689701,4.6334853,0.12493758,-0.14001559,5.344632,5.4300494,-2.3223755,-2.1691468
5.6949234,4.633709,0.12493758,-0.14001559,5.344632,5.4300494,-2.3223755,-2.1691468
5.7003937,4.633859,0.062086977,-0.15705982,5.5832515,5.2480903,-2.552219,-2.3894134
5.705863,4.6340065,0.062086977,-0.15705982,5.5832515,5.2480903,-2.552219,-2.3894134
5.711594,4.6340675,-0.01674259,-0.16771246,5.816544,5.085284,-2.695871,-2.719813
5.7172904,4.6341267,-0.01674259,-0.16771246,5.816544,5.085284,-2.695871,-2.719813
5.723235,4.634093,-0.108355336,-0.16984299,6.037054,4.927267,-2.7629087,-3.1268275
5.7291794,4.6340575,-0.108355336,-0.16984299,6.037054,4.927267,-2.7629087,-3.1268275
5.7353344,4.6339254,-0.20955546,-0.16771246,6.24265,4.7979803,-2.7629087,-3.3614593
5.741489,4.633792,-0.20955546,-0.16771246,6.24265,4.7979803,-2.7629087,-3.3614593
5.7478337,4.633561,-0.31821242,-0.1549293,6.4301367,4.606444,-2.6144683,-3.572149
5.7542415,4.6333265,-0.31821242,-0.1549293,6.4301367,4.606444,-2.6144683,-3.572149
5.760691,4.6330066,-0.42473888,-0.13255873,6.5995135,4.247314,-2.3894134,-3.5625722
5.7672114,4.632682,-0.42473888,-0.13255873,6.5995135,4.247314,-2.3894134,-3.5625722
5.7738676,4.632283,-0.521678,-0.09847028,6.749716,3.9121256,-2.1404164,-3.490746
5.7805295,4.6318827,-0.521678,-0.09847028,6.749716,3.9121256,-2.1404164,-3.490746
5.787313,4.631434,-0.60263807,-0.05372917,6.882874,3.787627,-2.0350714,-3.040636
5.794095,4.6309834,-0.60263807,-0.05372917,6.882874,3.787627,-2.0350714,-3.040636
5.801002,4.6305,-0.6601623,-0.0015312112,7.005379,3.241749,-1.6759412,-3.0214825
5.8079085,4.630014,-0.6601623,-0.0015312112,7.005379,3.241749,-1.6759412,-3.0214825
5.8149223,4.629525,-0.69212025,0.050666746,7.1161666,2.8874073,-1.8004397,-2.585738
5.821935,4.629034,-0.69212025,0.050666746,7.1161666,2.8874073,-1.8004397,-2.585738
5.829036,4.628564,-0.70170766,0.09647312,7.215236,2.858677,-2.2744915,-2.0446482
5.8361363,4.6280904,-0.70170766,0.09647312,7.215236,2.858677,-2.2744915,-2.0446482
5.843311,4.627655,-0.68998975,0.13801843,7.294066,2.6144683,-3.0262709,-1.3982137
5.850483,4.6272163,-0.68998975,0.13801843,7.294066,2.6144683,-3.0262709,-1.3982137
5.8577566,4.62681,-0.6665539,0.17956375,7.3622427,2.2266076,-4.0653543,-0.9720459
5.8650255,4.6263995,-0.6665539,0.17956375,7.3622427,2.2266076,-4.0653543,-0.9720459
5.872486,4.626047,-0.63779175,0.22430485,7.4293547,1.4748282,-4.8219223,-1.1252748
5.8799434,4.6256866,-0.63779175,0.22430485,7.4293547,1.4748282,-4.8219223,-1.1252748
5.887489,4.625372,-0.6122254,0.2647849,7.500727,0.7422025,-5.315128,-1.6950948
5.895033,4.6250496,-0.6122254,0.2647849,7.500727,0.7422025,-5.315128,-1.6950948
5.902639,4.6247396,-0.5962465,0.29035124,7.5731654,0.18195933,-5.410896,-2.5139117
5.910244,4.6244216,-0.5962465,0.29035124,7.5731654,0.18195933,-5.410896,-2.5139117
5.917919,4.6241035,-0.5898549,0.2978081,7.6466684,-0.272939,-5.3486466,-3.083732
5.9255934,4.623778,-0.5898549,0.2978081,7.6466684,-0.272939,-5.3486466,-3.083732
5.9333467,4.623447,-0.5898549,0.29354703,7.720172,-0.7374141,-5.3199162,-3.2944214
5.941099,4.623109,-0.5898549,0.29354703,7.720172,-0.7374141,-5.3199162,-3.2944214
5.9489393,4.622773,-0.5898549,0.28395966,7.7926097,-1.115698,-5.5258174,-2.930503
5.9567785,4.62243,-0.5898549,0.28395966,7.7926097,-1.115698,-5.5258174,-2.930503
5.964715,4.6221175,-0.5834633,0.27437228,7.8639827,-1.412579,-6.253655,-1.982399
5.97265,4.6217966,-0.5834633,0.27437228,7.8639827,-1.412579,-6.253655,-1.982399
5.9806657,4.621545,-0.5653538,0.2679807,7.9374857,-1.7381904,-7.6135616,-0.6607997
5.9886813,4.6212845,-0.5653538,0.2679807,7.9374857,-1.7381904,-7.6135616,-0.6607997
5.996752,4.62108,-0.5397874,0.27224174,8.010989,-2.27928,-9.595961,0.5746084
6.004822,4.620867,-0.5397874,0.27224174,8.010989,-2.27928,-9.595961,0.5746084
6.004822,4.620867,-0.5397874,0.27224174,8.010989,-2.27928,-9.595961,0.5746084
6.021052,4.6205053,-0.5131558,0.28822073,8.081296,-2.8682537,-11.803414,1.4891934
6.02941,4.6203394,-0.49078527,0.309526,8.151604,-3.2800562,-14.025233,1.7669208
6.037546,4.6201696,-0.49078527,0.309526,8.151604,-3.2800562,-14.025233,1.7669208
6.0457087,4.620003,-0.4811979,0.32976604,8.216585,-3.5434184,-15.725117,1.4317327
6.053912,4.6198273,-0.4811979,0.32976604,8.216585,-3.5434184,-15.725117,1.4317327
6.062223,4.6196427,-0.48226315,0.3425492,8.264522,-3.2225955,-17.587805,1.0965444
6.0705743,4.619448,-0.48226315,0.3425492,8.264522,-3.2225955,-17.587805,1.0965444
6.0789165,4.619226,-0.4929158,0.34681025,8.289023,-3.8067808,-18.47366,0.4213795
6.0872583,4.618995,-0.4929158,0.34681025,8.289023,-3.8067808,-18.47366,0.4213795
6.095609,4.6187444,-0.4993074,0.3425492,8.286893,-3.6966474,-19.278112,0.08619126
6.103935,4.6184855,-0.4993074,0.3425492,8.286893,-3.6966474,-19.278112,0.08619126
6.112249,4.6182284,-0.48865473,0.32976604,8.250673,-3.0693667,-20.058622,0.047884032
6.120546,4.6179633,-0.48865473,0.32976604,8.250673,-3.0693667,-20.058622,0.047884032
6.1287913,4.617728,-0.44391364,0.33509237,8.187823,-3.064578,-19.800049,-0.30645782
6.1370363,4.617485,-0.44391364,0.33509237,8.187823,-3.064578,-19.800049,-0.30645782
6.145198,4.6173077,-0.35656196,0.3638545,8.091949,-3.7684734,-18.976442,-0.92895025
6.1533675,4.6171217,-0.35656196,0.3638545,8.091949,-3.7684734,-18.976442,-0.92895025
6.16139,4.6170473,-0.23299128,0.40753034,7.970509,-4.3526587,-18.47366,-1.1971009
6.16942,4.616964,-0.23299128,0.40753034,7.970509,-4.3526587,-18.47366,-1.1971009
6.1773033,4.6170335,-0.07852793,0.46079355,7.829894,-4.7022123,-18.454506,-0.9864111
6.1851873,4.617094,-0.07852793,0.46079355,7.829894,-4.7022123,-18.454506,-0.9864111
6.192897,4.61734,0.105762824,0.5140568,7.6711698,-4.4963107,-18.646044,-0.6368576
6.2006226,4.6175776,0.105762824,0.5140568,7.6711698,-4.4963107,-18.646044,-0.6368576
6.2081456,4.6180224,0.31348938,0.5524063,7.482618,-3.7445314,-19.07221,-0.45010993
6.2156615,4.6184583,0.31348938,0.5524063,7.482618,-3.7445314,-19.07221,-0.45010993
6.2229533,4.619112,0.5318686,0.5769074,7.2567816,-3.2704794,-19.354727,-0.22984336
6.2302523,4.6197577,0.5318686,0.5769074,7.2567816,-3.2704794,-19.354727,-0.22984336
6.237267,4.620612,0.7449215,0.59395164,6.991531,-3.3183637,-19.61809,0.05267244
6.2442884,4.621459,0.7449215,0.59395164,6.991531,-3.3183637,-19.61809,0.05267244
6.2510123,4.622503,0.9473217,0.603539,6.6964526,-3.6535518,-19.742588,0.39264908
6.2577367,4.6235394,0.9473217,0.603539,6.6964526,-3.6535518,-19.742588,0.39264908
6.264153,4.624761,1.1358736,0.60780007,6.3853955,-3.9695864,-19.412188,0.81402856
6.2705574,4.625973,1.1358736,0.60780007,6.3853955,-3.9695864,-19.412188,0.81402856
6.2766423,4.627356,1.3105769,0.6003432,6.0594244,-3.9695864,-18.760965,0.9959879
6.282728,4.6287327,1.3105769,0.6003432,6.0594244,-3.9695864,-18.760965,0.9959879
0.005281394,4.6302686,1.4714319,0.583299,5.715344,-3.739743,-17.808073,1.2785037
0.011020881,4.631799,1.4714319,0.583299,5.715344,-3.739743,-17.808073,1.2785037
0.016396968,4.633473,1.6141773,0.5524063,5.3552847,-3.3806129,-16.615759,1.5131354
0.021773903,4.635142,1.6141773,0.5524063,5.3552847,-3.3806129,-16.615759,1.5131354
0.02677066,4.636939,1.742009,0.510861,4.974985,-2.954445,-15.26543,1.4987702
0.031653136,4.638691,1.742009,0.510861,4.974985,-2.954445,-15.26543,1.4987702
0.036259357,4.640598,1.8527966,0.4661199,4.5787067,-2.6240451,-13.838486,1.5131354
0.04097202,4.6425457,1.8527966,0.4661199,4.5787067,-2.6240451,-13.838486,1.5131354
0.04516438,4.6445365,1.9412135,0.4235093,4.1739063,-2.336741,-12.492945,1.5753847
0.049340453,4.6465173,1.9412135,0.4235093,4.1739063,-2.336741,-12.492945,1.5753847
0.053133488,4.648578,2.008325,0.38409454,3.7627144,-2.255338,-11.401189,1.6232687
0.0569423,4.650646,2.008325,0.38409454,3.7627144,-2.255338,-11.401189,1.6232687
0.060319636,4.652751,2.0551968,0.34681025,3.354718,-2.2170308,-10.692505,1.9009962
0.06370086,4.654857,2.0551968,0.34681025,3.354718,-2.2170308,-10.692505,1.9009962
0.06668947,4.656994,2.0828936,0.31165653,2.9627006,-2.27928,-10.448297,2.2601264
0.06967859,4.6591296,2.0828936,0.31165653,2.9627006,-2.27928,-10.448297,2.2601264
0.0723027,4.661273,2.08822,0.28182915,2.5930538,-2.4995465,-10.759542,2.4372973
0.07492739,4.663416,2.08822,0.28182915,2.5930538,-2.4995465,-10.759542,2.4372973
0.07722397,4.6655436,2.072241,0.25732806,2.2574956,-2.7964275,-11.36767,2.4468741
0.07952112,4.667671,2.072241,0.25732806,2.2574956,-2.7964275,-11.36767,2.4468741
0.08153436,4.669758,2.031761,0.23602276,1.9624174,-3.0550013,-12.133814,2.1404164
0.083548255,4.671845,2.031761,0.23602276,1.9624174,-3.0550013,-12.133814,2.1404164
0.08532878,4.6738725,1.9657146,0.21045642,1.7078191,-3.1172507,-12.808979,1.5753847
0.08709397,4.675882,1.9657146,0.21045642,1.7078191,-3.1172507,-12.808979,1.5753847
0.08867481,4.6778045,1.8751671,0.17849848,1.493701,-3.098097,-13.302185,0.90021986
0.09025799,4.6797285,1.8751671,0.17849848,1.493701,-3.098097,-13.302185,0.90021986
0.09167988,4.6815324,1.7654449,0.14014897,1.3147366,-3.0214825,-13.642161,0.4165911
0.09310133,4.6833334,1.7654449,0.14014897,1.3147366,-3.0214825,-13.642161,0.4165911
0.09440088,4.6849995,1.6461352,0.09860365,1.1730564,-2.954445,-13.723564,0.019153614
0.09574824,4.6867247,1.6461352,0.09860365,1.1730564,-2.954445,-13.723564,0.019153614
0.09691203,4.6881933,1.5236298,0.05599307,1.0686605,-2.9257145,-13.718776,-0.2777274
0.098118335,4.6897144,1.5236298,0.05599307,1.0686605,-2.9257145,-13.718776,-0.2777274
0.0992516,4.69112,1.4053855,0.019774077,0.9919614,-2.9161377,-13.776237,-0.29209262
0.0992516,4.69112,1.4053855,0.019774077,0.9919614,-2.9161377,-13.776237,-0.29209262
0.0992516,4.69112,1.2977937,-0.0068575335,0.94295925,-2.8682537,-13.876793,-0.10534488
0.10261864,4.695219,1.2977937,-0.0068575335,0.94295925,-2.8682537,-13.876793,-0.10534488
0.10358029,4.696339,1.2029852,-0.020705972,0.91845816,-2.9640217,-14.03481,0.019153614
0.104652956,4.6975875,1.2029852,-0.020705972,0.91845816,-2.9640217,-14.03481,0.019153614
0.1057073,4.6987324,1.1198946,-0.0228365,0.9152624,-3.0550013,-14.15452,0.023942016
0.107046984,4.700185,1.1198946,-0.0228365,0.9152624,-3.0550013,-14.15452,0.023942016
0.107046984,4.700185,1.1198946,-0.0228365,0.9152624,-3.0550013,-14.15452,0.023942016
0.10893392,4.7020535,1.0453261,-0.015379649,0.9280456,-3.0262709,-14.197616,-0.062249243
0.10992593,4.702929,0.9792797,-0.00046594674,0.9514814,-2.944868,-14.15452,-0.30645782
0.111009404,4.703884,0.9792797,-0.00046594674,0.9514814,-2.944868,-14.15452,-0.30645782
0.1121117,4.7047515,0.9206901,0.018708814,0.97917825,-2.7581203,-14.03481,-0.59855044
0.113212846,4.705618,0.9206901,0.018708814,0.97917825,-2.7581203,-14.03481,-0.59855044
0.114328556,4.706416,0.86529636,0.035753045,1.0036794,-2.5234885,-13.88637,-0.60812724
0.115442686,4.707213,0.86529636,0.035753045,1.0036794,-2.5234885,-13.88637,-0.60812724
0.116557315,4.707943,0.8099026,0.049601484,1.0175278,-2.4372973,-13.728353,-0.7038953
0.11767353,4.7086735,0.8099026,0.049601484,1.0175278,-2.4372973,-13.728353,-0.7038953
0.11877977,4.709343,0.7534436,0.057058334,1.0132667,-2.504335,-13.474567,-0.7613561
0.1198978,4.710019,0.7534436,0.057058334,1.0132667,-2.504335,-13.474567,-0.7613561
0.121015325,4.7106514,0.69804984,0.05599307,0.9962225,-2.5761611,-13.101071,-0.6464345
0.12226486,4.711358,0.69804984,0.05599307,0.9962225,-2.5761611,-13.101071,-0.6464345
0.123237476,4.7118716,0.6362645,0.045340426,0.9642646,-2.5953147,-12.717999,-0.56982
0.12426194,4.712412,0.6362645,0.045340426,0.9642646,-2.5953147,-12.717999,-0.56982
0.12527964,4.7129073,0.5670223,0.026165664,0.9173929,-2.360683,-12.258312,-0.46926352
0.12630531,4.7134056,0.5670223,0.026165664,0.9173929,-2.360683,-12.258312,-0.46926352
0.12724689,4.713813,0.48606223,0.003795111,0.8524118,-2.111686,-11.884817,-0.51235914
0.1281869,4.7142186,0.48606223,0.003795111,0.8524118,-2.111686,-11.884817,-0.51235914
0.12901424,4.7145214,0.39231896,-0.021771235,0.76932114,-1.8818425,-11.45865,-0.61291564
0.12984024,4.7148237,0.39231896,-0.021771235,0.76932114,-1.8818425,-11.45865,-0.61291564
0.13054585,4.7150097,0.27833566,-0.047337584,0.67025155,-1.757344,-11.147403,-0.78050977
0.1312518,4.715196,0.27833566,-0.047337584,0.67025155,-1.757344,-11.147403,-0.78050977
0.13183455,4.715249,0.14304708,-0.07503446,0.55413777,-1.6759412,-10.879252,-0.92416185
0.13242476,4.715303,0.14304708,-0.07503446,0.55413777,-1.6759412,-10.879252,-0.92416185
0.13286966,4.715205,-0.010351005,-0.1037966,0.426306,-1.6328455,-10.601525,-1.0534488
0.13330705,4.7151093,-0.010351005,-0.1037966,0.426306,-1.6328455,-10.601525,-1.0534488
0.13361788,4.7148457,-0.17972806,-0.13255873,0.2920827,-1.6041151,-10.472239,-1.0342951
0.133926,4.7145844,-0.17972806,-0.13255873,0.2920827,-1.6041151,-10.472239,-1.0342951
0.13409497,4.7141433,-0.35975775,-0.15919036,0.15253304,-1.5610195,-10.357317,-0.9864111
0.13426372,4.713703,-0.35975775,-0.15919036,0.15253304,-1.5610195,-10.357317,-0.9864111
0.134283,4.713084,-0.541918,-0.1847567,0.0065918155,-1.5179238,-10.400413,-0.8619126
0.13430248,4.7124686,-0.541918,-0.1847567,0.0065918155,-1.5179238,-10.400413,-0.8619126
0.13416097,4.7116737,-0.71875185,-0.20499672,-0.13934942,-1.4030021,-10.462662,-0.5793968
0.13402037,4.710882,-0.71875185,-0.20499672,-0.13934942,-1.4030021,-10.462662,-0.5793968
0.13370824,4.7099295,-0.88173735,-0.2145841,-0.28209487,-1.3359646,-10.477027,-0.2633622
0.1333977,4.7089806,-0.88173735,-0.2145841,-0.28209487,-1.3359646,-10.477027,-0.2633622
0.13284187,4.7080107,-1.0223522,-0.2113883,-0.42057922,-1.2018893,-10.433931,0
0.13229114,4.7070503,-1.0223522,-0.2113883,-0.42057922,-1.2018893,-10.433931,0
0.13162777,4.705998,-1.1363355,-0.19327882,-0.552672,-1.091756,-10.352529,0.10055647
0.13097255,4.704955,-1.1363355,-0.19327882,-0.552672,-1.091756,-10.352529,0.10055647
0.13019235,4.7038155,-1.2215567,-0.16025561,-0.6730469,-0.9576807,-10.28549,0.15801731
0.1294178,4.702682,-1.2215567,-0.16025561,-0.6730469,-0.9576807,-10.28549,0.15801731
0.1285214,4.7014785,-1.2780157,-0.11657977,-0.78596497,-0.770933,-10.204087,0.18674773
0.12763111,4.700282,-1.2780157,-0.11657977,-0.78596497,-0.770933,-10.204087,0.18674773
0.12660046,4.699005,-1.3057126,-0.06757761,-0.8924914,-0.5363012,-10.156203,0.009576807
0.125579,4.6977406,-1.3057126,-0.06757761,-0.8924914,-0.5363012,-10.156203,0.009576807
0.12444526,4.696445,-1.3089083,-0.020705972,-0.991561,-0.49799395,-10.113108,-0.07182605
0.123329185,4.6951714,-1.3089083,-0.020705972,-0.991561,-0.49799395,-10.113108,-0.07182605
0.12212314,4.693907,-1.2907989,0.021904606,-1.079978,-0.521936,-10.084377,-0.10055647
0.12088234,4.6926084,-1.2907989,0.021904606,-1.079978,-0.521936,-10.084377,-0.10055647
0.119592585,4.691373,-1.2577757,0.062384658,-1.1534811,-0.5554548,-9.983821,-0.05267244
0.11831449,4.6901503,-1.2577757,0.062384658,-1.1534811,-0.5554548,-9.983821,-0.05267244
0.11697438,4.68897,-1.2130346,0.100734174,-1.2110054,-0.521936,-9.892841,0.0047884034
0.11563596,4.6877923,-1.2130346,0.100734174,-1.2110054,-0.521936,-9.892841,0.0047884034
0.114272304,4.686678,-1.1619018,0.13695318,-1.2504202,-0.545878,-9.68694,0.10055647
0.112920426,4.685573,-1.1619018,0.13695318,-1.2504202,-0.545878,-9.68694,0.10055647
0.11153166,4.6845098,-1.1043776,0.17317216,-1.2706603,-0.49320555,-9.581595,0.062249243
0.110144995,4.683449,-1.1043776,0.17317216,-1.2706603,-0.49320555,-9.581595,0.062249243
0.108767934,4.6824512,-1.045788,0.20726062,-1.2706603,-0.45010993,-9.624691,0.10055647
0.10739555,4.681458,-1.045788,0.20726062,-1.2706603,-0.45010993,-9.624691,0.10055647
0.10604125,4.680518,-0.9882638,0.23602276,-1.2514855,-0.40222588,-9.682152,0.20111294
0.104692765,4.679583,-0.9882638,0.23602276,-1.2514855,-0.40222588,-9.682152,0.20111294
0.103389084,4.678706,-0.9339353,0.2615891,-1.2163317,-0.45010993,-9.797073,0.25378537
0.10209104,4.6778326,-0.9339353,0.2615891,-1.2163317,-0.45010993,-9.797073,0.25378537
0.10083493,4.677002,-0.88386786,0.28076386,-1.1662643,-0.5410896,-9.959879,0.19153613
0.09959578,4.676183,-0.88386786,0.28076386,-1.1662643,-0.5410896,-9.959879,0.19153613
0.09840861,4.675402,-0.8369962,0.29141653,-1.1012832,-0.5793968,-10.041282,0.11971009
0.09723071,4.6746273,-0.8369962,0.29141653,-1.1012832,-0.5793968,-10.041282,0.11971009
0.09613554,4.6738954,-0.79332036,0.29461232,-1.0213884,-0.59855044,-10.127473,0.18195933
0.09504657,4.6731668,-0.79332036,0.29461232,-1.0213884,-0.59855044,-10.127473,0.18195933
0.09404403,4.672481,-0.7496445,0.29354703,-0.93190616,-0.5793968,-10.213664,0.18674773
0.0930472,4.6717987,-0.7496445,0.29354703,-0.93190616,-0.5793968,-10.213664,0.18674773
0.09213027,4.671157,-0.70170766,0.28715545,-0.83709764,-0.45968673,-10.237606,0.22026655
0.09122014,4.67052,-0.70170766,0.28715545,-0.83709764,-0.45968673,-10.237606,0.22026655
0.09040636,4.6699324,-0.6505749,0.27756807,-0.7390933,-0.4405331,-10.275913,0.272939
0.08959613,4.6693473,-0.6505749,0.27756807,-0.7390933,-0.4405331,-10.275913,0.272939
0.088883765,4.668819,-0.5941159,0.26691544,-0.6400237,-0.38307226,-10.295067,0.31603462
0.08817451,4.668292,-0.5941159,0.26691544,-0.6400237,-0.38307226,-10.295067,0.31603462
0.08755378,4.6678247,-0.5323306,0.25626278,-0.5452152,-0.4213795,-10.208876,0.20590134
0.086937554,4.667361,-0.5323306,0.25626278,-0.5452152,-0.4213795,-10.208876,0.20590134
0.08641063,4.6669617,-0.4662842,0.24241436,-0.4546677,-0.45010993,-10.151415,0.17717093
0.0858871,4.666565,-0.4662842,0.24241436,-0.4546677,-0.45010993,-10.151415,0.17717093
0.08544009,4.6662345,-0.39810726,0.22856592,-0.37157705,-0.4261679,-10.089166,0.11492168
0.08499472,4.6659055,-0.39810726,0.22856592,-0.37157705,-0.4261679,-10.089166,0.11492168
0.08461937,4.665645,-0.32779983,0.21471748,-0.29700854,-0.4213795,-9.964667,0.06703765
0.0842465,4.6653867,-0.32779983,0.21471748,-0.29700854,-0.4213795,-9.964667,0.06703765
0.083913215,4.665186,-0.25749236,0.20086904,-0.23202743,-0.34476504,-9.849746,-0.07182605
0.08359373,4.6649942,-0.25749236,0.20086904,-0.23202743,-0.34476504,-9.849746,-0.07182605
0.08329576,4.6648545,-0.18931544,0.1870206,-0.18089473,-0.32561144,-9.720459,-0.11492168
0.083009385,4.66472,-0.18931544,0.1870206,-0.18089473,-0.32561144,-9.720459,-0.11492168
0.0827651,4.664654,-0.124334306,0.17317216,-0.14254521,-0.33518824,-9.653421,-0.10534488
0.082521446,4.6645885,-0.124334306,0.17317216,-0.14254521,-0.33518824,-9.653421,-0.10534488
0.08229953,4.6645827,-0.062548965,0.16038899,-0.1159136,-0.33997664,-9.600749,-0.1388637
0.082078576,4.6645765,-0.062548965,0.16038899,-0.1159136,-0.33997664,-9.600749,-0.1388637
0.081884645,4.6646376,-0.0050246827,0.14973634,-0.10206516,-0.4213795,-9.461885,-0.12928689
0.08169105,4.664698,-0.0050246827,0.14973634,-0.10206516,-0.4213795,-9.461885,-0.12928689
0.081521906,4.664824,0.04823854,0.1358879,-0.09886937,-0.5650316,-9.323022,-0.17238252
0.08135402,4.6649485,0.04823854,0.1358879,-0.09886937,-0.5650316,-9.323022,-0.17238252
0.08118209,4.665126,0.0972407,0.118843675,-0.10313042,-0.62728083,-9.217676,-0.2633622
0.08101109,4.665302,0.0972407,0.118843675,-0.10313042,-0.62728083,-9.217676,-0.2633622
0.0808218,4.665523,0.14198181,0.09966891,-0.11697886,-0.62728083,-9.078813,-0.2873042
0.08063343,4.6657434,0.14198181,0.09966891,-0.11697886,-0.62728083,-9.078813,-0.2873042
0.08035997,4.665952,0.1813966,0.07836362,-0.1372189,-0.5315128,-9.074024,-0.37349546
0.08008785,4.6661596,0.1813966,0.07836362,-0.1372189,-0.5315128,-9.074024,-0.37349546
0.07981164,4.666436,0.21548507,0.054927804,-0.16491576,-0.5267244,-9.035717,-0.30166942
0.07953799,4.666709,0.21548507,0.054927804,-0.16491576,-0.5267244,-9.035717,-0.30166942
0.079217225,4.667,0.24531247,0.029361458,-0.19580843,-0.47405192,-9.064447,-0.320823
0.07889672,4.6672897,0.24531247,0.029361458,-0.19580843,-0.47405192,-9.064447,-0.320823
0.07855816,4.66762,0.26981354,0.0048603755,-0.22883163,-0.4261679,-9.126697,-0.24899697
0.07822037,4.66795,0.26981354,0.0048603755,-0.22883163,-0.4261679,-9.126697,-0.24899697
0.07782501,4.668278,0.29111883,-0.017510178,-0.26398537,-0.4357447,-9.165004,-0.33518824
0.07743159,4.6686034,0.29111883,-0.017510178,-0.26398537,-0.4357447,-9.165004,-0.33518824
0.077028744,4.6689796,0.3070978,-0.03988073,-0.29700854,-0.47884035,-9.241618,-0.2633622
0.07662796,4.669353,0.3070978,-0.03988073,-0.29700854,-0.47884035,-9.241618,-0.2633622
0.07617855,4.669728,0.3188157,-0.06118602,-0.33003175,-0.48362875,-9.26556,-0.30645782
0.07572982,4.670101,0.3188157,-0.06118602,-0.33003175,-0.48362875,-9.26556,-0.30645782
0.07523701,4.670454,0.3284031,-0.08036078,-0.35879388,-0.51235914,-9.284714,-0.36870706
0.07474514,4.670804,0.3284031,-0.08036078,-0.35879388,-0.51235914,-9.284714,-0.36870706
0.07474514,4.670804,0.33479467,-0.09847028,-0.38222972,-0.6847417,-9.32781,-0.4165911
0.07390597,4.671302,0.33479467,-0.09847028,-0.38222972,-0.6847417,-9.32781,-0.4165911
0.07350472,4.6715508,0.33905575,-0.11551451,-0.40140447,-0.6799533,-9.26556,-0.51235914
0.07310632,4.6717997,0.33905575,-0.11551451,-0.40140447,-0.6799533,-9.26556,-0.51235914
0.07270799,4.6720586,0.3433168,-0.13042821,-0.4120571,-0.7086837,-9.212888,-0.59376204
0.072286576,4.6723337,0.3433168,-0.13042821,-0.4120571,-0.7086837,-9.212888,-0.59376204
0.07185875,4.672595,0.3465126,-0.14427665,-0.41525292,-0.61291564,-9.203311,-0.78529817
0.071473196,4.672831,0.3465126,-0.14427665,-0.41525292,-0.61291564,-9.203311,-0.78529817
0.07105501,4.6730866,0.34864312,-0.15279876,-0.41631818,-0.5650316,-9.059659,-0.8810662
0.070631176,4.673346,0.34864312,-0.15279876,-0.41631818,-0.5650316,-9.059659,-0.8810662
0.07021685,4.673605,0.34864312,-0.15705982,-0.41418764,-0.58418524,-8.930372,-0.9864111
0.06980131,4.6738653,0.34864312,-0.15705982,-0.41418764,-0.58418524,-8.930372,-0.9864111
0.06939274,4.674125,0.34757784,-0.15705982,-0.40779606,-0.58418524,-8.7771435,-1.1061212
0.06898754,4.674383,0.34757784,-0.15705982,-0.40779606,-0.58418524,-8.7771435,-1.1061212
0.06859198,4.674638,0.34438205,-0.15599456,-0.39927393,-0.58418524,-8.604761,-1.115698
0.06819931,4.6748915,0.34438205,-0.15599456,-0.39927393,-0.58418524,-8.604761,-1.115698
0.06781243,4.675137,0.33585995,-0.15066823,-0.38968655,-0.5650316,-8.513782,-1.1683705
0.06743022,4.67538,0.33585995,-0.15066823,-0.38968655,-0.5650316,-8.513782,-1.1683705
0.067055754,4.6756115,0.3220115,-0.14321138,-0.37477285,-0.5363012,-8.355764,-1.2306197
0.066682294,4.675843,0.3220115,-0.14321138,-0.37477285,-0.5363012,-8.355764,-1.2306197
0.0663329,4.676053,0.30283675,-0.13468927,-0.35666338,-0.56982,-8.355764,-1.1731589
0.0659831,4.6762633,0.30283675,-0.13468927,-0.35666338,-0.56982,-8.355764,-1.1731589
0.06565289,4.6764464,0.27513987,-0.1251019,-0.33855388,-0.5793968,-8.303091,-1.0486604
0.065007694,4.6767535,0.24318193,-0.11444924,-0.32044438,-0.545878,-8.283937,-0.8810662
0.065007694,4.6767535,0.24318193,-0.11444924,-0.32044438,-0.545878,-8.283937,-0.8810662
0.064669065,4.676914,0.24318193,-0.11444924,-0.32044438,-0.545878,-8.283937,-0.8810662
0.06441197,4.6770144,0.20483242,-0.10273133,-0.29913908,-0.58897364,-8.303091,-0.866701
0.06411513,4.6771297,0.20483242,-0.10273133,-0.29913908,-0.58897364,-8.303091,-0.866701
0.06385247,4.6771965,0.16222183,-0.08888289,-0.27357274,-0.545878,-8.355764,-0.7230489
0.06355348,4.6772723,0.16222183,-0.08888289,-0.27357274,-0.545878,-8.355764,-0.7230489
0.06355348,4.6772723,0.16222183,-0.08888289,-0.27357274,-0.545878,-8.355764,-0.7230489
0.06309812,4.67731,0.1153502,-0.07609972,-0.24907166,-0.5410896,-8.42759,-0.7422025
0.06289627,4.677281,0.06634804,-0.064381815,-0.2235053,-0.61291564,-8.456321,-0.6943185
0.06269492,4.677253,0.06634804,-0.064381815,-0.2235053,-0.61291564,-8.456321,-0.6943185
0.06251895,4.677174,0.017345872,-0.054794434,-0.1968737,-0.61770403,-8.508993,-0.7374141
0.062343143,4.6770954,0.017345872,-0.054794434,-0.1968737,-0.61770403,-8.508993,-0.7374141
0.062195554,4.6769667,-0.032721557,-0.04627232,-0.17130736,-0.61770403,-8.604761,-0.6607997
0.062048424,4.676839,-0.032721557,-0.04627232,-0.17130736,-0.61770403,-8.604761,-0.6607997
0.061919414,4.6766586,-0.08172372,-0.037750203,-0.14361048,-0.59376204,-8.619126,-0.7086837
0.06179211,4.67648,-0.08172372,-0.037750203,-0.14361048,-0.59376204,-8.619126,-0.7086837
0.061729506,4.676261,-0.1275301,-0.030293351,-0.1159136,-0.7134721,-8.710106,-0.62249243
0.061670378,4.676053,-0.1275301,-0.030293351,-0.1159136,-0.7134721,-8.710106,-0.62249243
0.06163683,4.675792,-0.17014067,-0.023901764,-0.08928198,-0.7326257,-8.858546,-0.63206923
0.061602253,4.675519,-0.17014067,-0.023901764,-0.08928198,-0.7326257,-8.858546,-0.63206923
0.061613526,4.6752243,-0.20955546,-0.015379649,-0.062650375,-0.770933,-8.944737,-0.58418524
0.06162522,4.674932,-0.20955546,-0.015379649,-0.062650375,-0.770933,-8.944737,-0.58418524
0.061653975,4.6746,-0.24257866,-0.007922798,-0.034953497,-0.7757214,-9.006987,-0.6464345
0.061683252,4.6742673,-0.24257866,-0.007922798,-0.034953497,-0.7757214,-9.006987,-0.6464345
0.061742768,4.67391,-0.27027553,0.0016645822,-0.010452416,-0.842759,-9.11712,-0.6943185
0.06180279,4.673552,-0.27027553,0.0016645822,-0.010452416,-0.842759,-9.11712,-0.6943185
0.061872754,4.6731668,-0.29371136,0.009121433,0.010852873,-0.81402856,-9.227253,-0.7278373
0.061943036,4.672781,-0.29371136,0.009121433,0.010852873,-0.81402856,-9.227253,-0.7278373
0.062027395,4.672374,-0.31288612,0.01551302,0.033223428,-0.79966336,-9.323022,-0.7661445
0.062111787,4.6719666,-0.31288612,0.01551302,0.033223428,-0.79966336,-9.323022,-0.7661445
0.06223561,4.671551,-0.32886508,0.021904606,0.05026766,-0.8619126,-9.437943,-0.6943185
0.06236002,4.6711354,-0.32886508,0.021904606,0.05026766,-0.8619126,-9.437943,-0.6943185
0.062481865,4.670699,-0.3427135,0.029361458,0.0641161,-0.8331822,-9.581595,-0.7565677
0.06260394,4.6702633,-0.3427135,0.029361458,0.0641161,-0.8331822,-9.581595,-0.7565677
0.06276294,4.6698284,-0.35230088,0.035753045,0.07689927,-0.8619126,-9.701305,-0.6512229
0.062922746,4.669393,-0.35230088,0.035753045,0.07689927,-0.8619126,-9.701305,-0.6512229
0.06310105,4.6689553,-0.35869247,0.04107937,0.088617176,-0.92895025,-9.77792,-0.6799533
0.063279964,4.6685176,-0.35869247,0.04107937,0.088617176,-0.92895025,-9.77792,-0.6799533
0.06349867,4.668105,-0.3618883,0.047470953,0.09607403,-0.9624691,-9.931149,-0.5602432
0.06371753,4.667695,-0.3618883,0.047470953,0.09607403,-0.9624691,-9.931149,-0.5602432
0.063957214,4.6673236,-0.360823,0.054927804,0.102465615,-0.9720459,-10.022128,-0.46447513
0.06419675,4.666954,-0.360823,0.054927804,0.102465615,-0.9720459,-10.022128,-0.46447513
0.0644403,4.6665807,-0.35869247,0.061319392,0.106726676,-0.9768343,-10.127473,-0.48362875
0.06468373,4.666209,-0.35869247,0.061319392,0.106726676,-0.9768343,-10.127473,-0.48362875
0.0649266,4.665859,-0.35230088,0.06877624,0.106726676,-0.9864111,-10.208876,-0.45489833
0.06516807,4.665513,-0.35230088,0.06877624,0.106726676,-0.9864111,-10.208876,-0.45489833
0.06540997,4.66516,-0.3427135,0.07516783,0.10566141,-1.0103531,-10.261548,-0.49320555
0.065651916,4.6648088,-0.3427135,0.07516783,0.10566141,-1.0103531,-10.261548,-0.49320555
0.065890975,4.664461,-0.33312613,0.08049415,0.103530884,-0.93852705,-10.328587,-0.50757074
0.066130266,4.664116,-0.33312613,0.08049415,0.103530884,-0.93852705,-10.328587,-0.50757074
0.06636369,4.6637974,-0.3214082,0.08368994,0.09820456,-0.9768343,-10.376471,-0.48362875
0.06659679,4.66348,-0.3214082,0.08368994,0.09820456,-0.9768343,-10.376471,-0.48362875
0.06681997,4.663169,-0.3075598,0.08368994,0.087551914,-1.0390835,-10.386047,-0.50278234
0.06704308,4.662859,-0.3075598,0.08368994,0.087551914,-1.0390835,-10.386047,-0.50278234
0.06725236,4.6625476,-0.29158083,0.08368994,0.07476874,-1.0486604,-10.390836,-0.5506664
0.067461915,4.662237,-0.29158083,0.08368994,0.07476874,-1.0486604,-10.390836,-0.5506664
0.06765548,4.661977,-0.27453658,0.08049415,0.0609203,-1.0247183,-10.371682,-0.47405192
0.067845106,4.661722,-0.27453658,0.08049415,0.0609203,-1.0247183,-10.371682,-0.47405192
0.06801098,4.6615057,-0.25536183,0.08049415,0.0460066,-1.0295067,-10.338163,-0.40701428
0.06818211,4.6612825,-0.25536183,0.08049415,0.0460066,-1.0295067,-10.338163,-0.40701428
0.068318404,4.6611004,-0.23618707,0.07942889,0.02896237,-1.0007763,-10.290278,-0.37828386
0.0684555,4.660917,-0.23618707,0.07942889,0.02896237,-1.0007763,-10.290278,-0.37828386
0.06856733,4.6607637,-0.21594705,0.07729836,0.015113931,-0.9720459,-10.266336,-0.34955344
0.068679094,4.6606097,-0.21594705,0.07729836,0.015113931,-0.9720459,-10.266336,-0.34955344
0.068784334,4.660469,-0.19464175,0.07516783,-0.0019303001,-0.94810385,-10.19451,-0.39743748
0.06888908,4.660329,-0.19464175,0.07516783,-0.0019303001,-0.94810385,-10.19451,-0.39743748
0.06895667,4.660229,-0.17014067,0.07516783,-0.017909266,-0.93373865,-10.213664,-0.33997664
0.069023766,4.6601295,-0.17014067,0.07516783,-0.017909266,-0.93373865,-10.213664,-0.33997664
0.06909538,4.660041,-0.14350906,0.073037304,-0.034953497,-0.93852705,-10.19451,-0.40701428
0.06916662,4.659953,-0.14350906,0.073037304,-0.034953497,-0.93852705,-10.19451,-0.40701428
0.06919613,4.6599083,-0.11794271,0.06877624,-0.05199773,-0.90979666,-10.19451,-0.34955344
0.06922538,4.6598635,-0.11794271,0.06877624,-0.05199773,-0.90979666,-10.19451,-0.34955344
0.06926668,4.6598253,-0.093441635,0.06344992,-0.06691143,-0.9576807,-10.1226845,-0.39743748
0.069307715,4.6597867,-0.093441635,0.06344992,-0.06691143,-0.9576807,-10.1226845,-0.39743748
0.069342524,4.659764,-0.07107108,0.05599307,-0.08075987,-0.9624691,-10.141838,-0.4213795
0.06937717,4.6597414,-0.07107108,0.05599307,-0.08075987,-0.9624691,-10.141838,-0.4213795
0.06937666,4.6597605,-0.048700526,0.047470953,-0.09460831,-0.93852705,-10.103531,-0.35913026
0.06937603,4.6597795,-0.048700526,0.047470953,-0.09460831,-0.93852705,-10.103531,-0.35913026
0.06936035,4.6598234,-0.0284605,0.037883572,-0.10526095,-0.8810662,-10.065224,-0.38307226
0.06934483,4.6598673,-0.0284605,0.037883572,-0.10526095,-0.8810662,-10.065224,-0.38307226
0.069315635,4.6599345,-0.012481534,0.028296193,-0.11165254,-0.8619126,-10.079589,-0.38307226
0.069281906,4.660013,-0.012481534,0.028296193,-0.11165254,-0.8619126,-10.079589,-0.38307226
0.06925798,4.6600723,0.003497433,0.020839343,-0.11804412,-0.80924016,-10.036493,-0.4261679
0.069226526,4.66015,0.003497433,0.020839343,-0.11804412,-0.80924016,-10.036493,-0.4261679
0.0691699,4.6602526,0.016280606,0.013382491,-0.122305185,-0.79008657,-10.041282,-0.40222588
0.06911372,4.660355,0.016280606,0.013382491,-0.122305185,-0.79008657,-10.041282,-0.40222588
0.06911548,4.6604223,0.024802722,0.0048603755,-0.124435715,-0.7661445,-10.022128,-0.49799395
0.06911792,4.660489,0.024802722,0.0048603755,-0.124435715,-0.7661445,-10.022128,-0.49799395
0.06912573,4.660488,0.032259572,-0.0025964756,-0.124435715,-0.78050977,-9.983821,-0.5410896
0.06913361,4.660487,0.032259572,-0.0025964756,-0.124435715,-0.78050977,-9.983821,-0.5410896
0.069143854,4.6604977,0.03545537,-0.007922798,-0.12550098,-0.7469909,-9.916783,-0.5267244
0.06915515,4.660508,0.03545537,-0.007922798,-0.12550098,-0.7469909,-9.916783,-0.5267244
0.06911748,4.660471,0.037585896,-0.015379649,-0.124435715,-0.7230489,-9.888053,-0.5506664
0.06907602,4.6604295,0.037585896,-0.015379649,-0.124435715,-0.7230489,-9.888053,-0.5506664
0.06902493,4.660383,0.03865116,-0.020705972,-0.122305185,-0.7278373,-9.792285,-0.56982
0.06897471,4.660338,0.03865116,-0.020705972,-0.122305185,-0.7278373,-9.792285,-0.56982
0.06885442,4.66028,0.039716423,-0.023901764,-0.11804412,-0.6703765,-9.734824,-0.59376204
0.068735294,4.6602225,0.039716423,-0.023901764,-0.11804412,-0.6703765,-9.734824,-0.59376204
0.06859915,4.660167,0.040781688,-0.026032293,-0.11484833,-0.63206923,-9.562442,-0.61770403
0.06846404,4.660112,0.040781688,-0.026032293,-0.11484833,-0.63206923,-9.562442,-0.61770403
0.06828229,4.660067,0.039716423,-0.026032293,-0.11378307,-0.5410896,-9.437943,-0.62728083
0.06810159,4.6600227,0.039716423,-0.026032293,-0.11378307,-0.5410896,-9.437943,-0.62728083
0.06789932,4.6599874,0.039716423,-0.026032293,-0.11378307,-0.5267244,-9.380483,-0.58897364
0.06769806,4.6599526,0.039716423,-0.026032293,-0.11378307,-0.5267244,-9.380483,-0.58897364
0.06749862,4.6599154,0.03865116,-0.023901764,-0.11271781,-0.48841715,-9.3661175,-0.62249243
0.06729994,4.659878,0.03865116,-0.023901764,-0.11271781,-0.48841715,-9.3661175,-0.62249243
0.06705971,4.659875,0.03652063,-0.020705972,-0.11378307,-0.50757074,-9.356541,-0.5315128
0.06682019,4.659872,0.03652063,-0.020705972,-0.11378307,-0.50757074,-9.356541,-0.5315128
0.066568516,4.659914,0.034390103,-0.016444914,-0.11271781,-0.51714754,-9.390059,-0.48841715
0.06631739,4.659956,0.034390103,-0.016444914,-0.11271781,-0.51714754,-9.390059,-0.48841715
0.06609899,4.660047,0.027998514,-0.012183856,-0.10952201,-0.51235914,-9.452309,-0.4309563
0.06588116,4.660138,0.027998514,-0.012183856,-0.10952201,-0.51235914,-9.452309,-0.4309563
0.065665565,4.6602216,0.022672193,-0.005792269,-0.10526095,-0.49799395,-9.481039,-0.4261679
0.06545014,4.6603055,0.022672193,-0.005792269,-0.10526095,-0.49799395,-9.481039,-0.4261679
0.06525617,4.660395,0.016280606,0.0005993177,-0.09993463,-0.45968673,-9.543288,-0.36870706
0.06506273,4.660485,0.016280606,0.0005993177,-0.09993463,-0.45968673,-9.543288,-0.36870706
0.06486511,4.6605606,0.00988902,0.0048603755,-0.092477776,-0.5315128,-9.653421,-0.4405331
0.06466786,4.660636,0.00988902,0.0048603755,-0.092477776,-0.5315128,-9.653421,-0.4405331
0.064463735,4.660688,0.0024321685,0.009121433,-0.0828904,-0.5363012,-9.706094,-0.46447513
0.064259864,4.6607404,0.0024321685,0.009121433,-0.0828904,-0.5363012,-9.706094,-0.46447513
0.06406296,4.660783,-0.0028941538,0.013382491,-0.07223775,-0.58897364,-9.710882,-0.48841715
0.063866675,4.660826,-0.0028941538,0.013382491,-0.07223775,-0.58897364,-9.710882,-0.48841715
0.06366763,4.660845,-0.010351005,0.014447756,-0.064780906,-0.5602432,-9.734824,-0.48841715
0.06346882,4.660864,-0.010351005,0.014447756,-0.064780906,-0.5602432,-9.734824,-0.48841715
0.063316934,4.660772,-0.017807856,0.01551302,-0.056258786,-0.49799395,-9.710882,-0.59376204
0.06316551,4.66068,-0.017807856,0.01551302,-0.056258786,-0.49799395,-9.710882,-0.59376204
0.06299989,4.6606007,-0.02313418,0.01551302,-0.04773667,-0.48841715,-9.691729,-0.5602432
0.062834635,4.6605225,-0.02313418,0.01551302,-0.04773667,-0.48841715,-9.691729,-0.5602432
0.06267609,4.6604385,-0.0284605,0.016578285,-0.04027982,-0.47405192,-9.672575,-0.5650316
0.06251779,4.6603546,-0.0284605,0.016578285,-0.04027982,-0.47405192,-9.672575,-0.5650316
0.06235032,4.660291,-0.032721557,0.017643549,-0.03282297,-0.48841715,-9.624691,-0.5267244
0.062182963,4.6602283,-0.032721557,0.017643549,-0.03282297,-0.48841715,-9.624691,-0.5267244
0.062014025,4.660181,-0.03698262,0.018708814,-0.028561912,-0.4405331,-9.615114,-0.51235914
0.06184505,4.6601343,-0.03698262,0.018708814,-0.028561912,-0.4405331,-9.615114,-0.51235914
0.061679713,4.6601048,-0.04017841,0.021904606,-0.025366118,-0.4309563,-9.615114,-0.48841715
0.061514467,4.660076,-0.04017841,0.021904606,-0.025366118,-0.4309563,-9.615114,-0.48841715
0.061351582,4.6600523,-0.041243672,0.024035135,-0.024300855,-0.41180268,-9.615114,-0.47884035
0.061188813,4.6600285,-0.041243672,0.024035135,-0.024300855,-0.41180268,-9.615114,-0.47884035
0.061022226,4.659983,-0.043374203,0.024035135,-0.025366118,-0.4357447,-9.576807,-0.50278234
0.06085543,4.659938,-0.043374203,0.024035135,-0.025366118,-0.4357447,-9.576807,-0.50278234
0.060697414,4.6599274,-0.04443947,0.026165664,-0.026431382,-0.4261679,-9.581595,-0.45968673
0.060539484,4.659918,-0.04443947,0.026165664,-0.026431382,-0.4261679,-9.581595,-0.45968673
0.060378414,4.6598997,-0.046569996,0.02723093,-0.026431382,-0.4261679,-9.600749,-0.46926352
0.060217403,4.6598816,-0.046569996,0.02723093,-0.026431382,-0.4261679,-9.600749,-0.46926352
0.060078,4.659893,-0.049765788,0.026165664,-0.029627176,-0.4357447,-9.572019,-0.4213795
0.059943147,4.659904,-0.049765788,0.026165664,-0.029627176,-0.4357447,-9.572019,-0.4213795
0.059810232,4.6599245,-0.05189632,0.0251004,-0.033888236,-0.4261679,-9.639056,-0.3878607
0.059681576,4.659944,-0.05189632,0.0251004,-0.033888236,-0.4261679,-9.639056,-0.3878607
0.059577554,4.6599765,-0.05402685,0.024035135,-0.037084028,-0.45968673,-9.682152,-0.34955344
0.059577554,4.6599765,-0.05402685,0.024035135,-0.037084028,-0.45968673,-9.682152,-0.34955344
0.059577554,4.6599765,-0.05402685,0.024035135,-0.037084028,-0.45968673,-9.682152,-0.34955344
0.059577554,4.6599765,-0.05402685,0.024035135,-0.037084028,-0.45968673,-9.682152,-0.34955344
0.05916943,4.6601095,-0.05935317,0.024035135,-0.046671405,-0.51235914,-9.744401,-0.34476504
0.059086487,4.660143,-0.05935317,0.024035135,-0.046671405,-0.51235914,-9.744401,-0.34476504
0.058980178,4.660167,-0.062548965,0.021904606,-0.048801936,-0.49320555,-9.77792,-0.3878607
0.0588624,4.660194,-0.062548965,0.021904606,-0.048801936,-0.49320555,-9.77792,-0.3878607
0.0587736,4.66022,-0.06467949,0.019774077,-0.053062994,-0.50757074,-9.753978,-0.35913026
