Pitch,Roll,Gyro_X,Gyro_Y,Gyro_Z,Accel_X,Accel_Y,Accel_Z
0.46037376,4.7071767,-0.050831053,0.04107937,0.19407836,-3.7014358,-8.580819,-0.06703765
0.46042785,4.707098,-0.050831053,0.04107937,0.19407836,-3.7014358,-8.580819,-0.06703765
0.46042785,4.707098,-0.050831053,0.04107937,0.19407836,-3.7014358,-8.580819,-0.06703765
0.4605058,4.7069488,-0.05402685,0.061319392,0.17916466,-3.787627,-8.628703,-0.019153614
0.46052587,4.7068653,-0.05509211,0.07836362,0.15892464,-3.8881836,-8.738836,-0.01436521
0.4605457,4.706784,-0.05509211,0.07836362,0.15892464,-3.8881836,-8.738836,-0.01436521
0.46054178,4.706699,-0.05509211,0.089016266,0.13548881,-3.8546648,-8.78672,-0.01436521
0.460538,4.7066116,-0.05509211,0.089016266,0.13548881,-3.8546648,-8.78672,-0.01436521
0.46051344,4.7065244,-0.05402685,0.09860365,0.11418352,-3.9695864,-8.887277,-0.009576807
0.46048892,4.706438,-0.05402685,0.09860365,0.11418352,-3.9695864,-8.887277,-0.009576807
0.4604523,4.706381,-0.05189632,0.10179944,0.09074771,-4.0557775,-8.987833,0.062249243
0.4604005,4.7063003,-0.05189632,0.10179944,0.09074771,-4.0557775,-8.987833,0.062249243
0.4603654,4.706268,-0.048700526,0.10179944,0.06837715,-4.122815,-8.987833,0.038307227
0.46030557,4.706213,-0.048700526,0.10179944,0.06837715,-4.122815,-8.987833,0.038307227
0.46023318,4.706174,-0.04443947,0.09753838,0.05026766,-4.189853,-9.011775,0.04309563
0.4601636,4.7061357,-0.04443947,0.09753838,0.05026766,-4.189853,-9.011775,0.04309563
0.4600848,4.7061152,-0.04017841,0.09221206,0.03428869,-4.223372,-9.035717,0.062249243
0.4600032,4.706094,-0.04017841,0.09221206,0.03428869,-4.223372,-9.035717,0.062249243
0.45991173,4.7060776,-0.034852087,0.086885735,0.023636047,-4.2664676,-9.059659,0.038307227
0.45981997,4.706062,-0.034852087,0.086885735,0.023636047,-4.2664676,-9.059659,0.038307227
0.45973223,4.7060666,-0.029525764,0.08155942,0.015113931,-4.2904096,-9.045294,0.05267244
0.45964387,4.7060714,-0.029525764,0.08155942,0.015113931,-4.2904096,-9.045294,0.05267244
0.45952725,4.7060614,-0.02313418,0.07516783,0.008722344,-4.285621,-9.011775,0
0.4594117,4.7060513,-0.02313418,0.07516783,0.008722344,-4.285621,-9.011775,0
0.45927578,4.7060056,-0.017807856,0.07090677,0.0044612866,-4.3382936,-8.973468,-0.05267244
0.45914012,4.705961,-0.017807856,0.07090677,0.0044612866,-4.3382936,-8.973468,-0.05267244
0.45911217,4.706023,-0.012481534,0.06664571,0.0033960221,-4.405331,-8.987833,0.047884032
0.45908397,4.7060857,-0.012481534,0.06664571,0.0033960221,-4.405331,-8.987833,0.047884032
0.45912802,4.706153,-0.0071552116,0.062384658,0.005526551,-4.4580035,-8.992621,-0.02873042
0.45917192,4.706221,-0.0071552116,0.062384658,0.005526551,-4.4580035,-8.992621,-0.02873042
0.45931405,4.706219,-0.0028941538,0.057058334,0.008722344,-4.4819455,-8.925584,-0.04309563
0.45945725,4.706218,-0.0028941538,0.057058334,0.008722344,-4.4819455,-8.925584,-0.04309563
0.4596009,4.706231,0.00030163955,0.050666746,0.012983402,-4.5202527,-8.90643,-0.02873042
0.45974416,4.7062445,0.00030163955,0.050666746,0.012983402,-4.5202527,-8.90643,-0.02873042
0.4598886,4.706176,0.0045626974,0.043209895,0.019374989,-4.548983,-8.90643,-0.10055647
0.4600321,4.706108,0.0045626974,0.043209895,0.019374989,-4.548983,-8.90643,-0.10055647
0.46019116,4.7060695,0.008823755,0.035753045,0.024701312,-4.596867,-8.8777,-0.090979666
0.4603513,4.70603,0.008823755,0.035753045,0.024701312,-4.596867,-8.8777,-0.090979666
0.46052036,4.706005,0.012019549,0.029361458,0.032158162,-4.5537715,-8.78672,-0.08140286
0.46068907,4.705981,0.012019549,0.029361458,0.032158162,-4.5537715,-8.78672,-0.08140286
0.46085027,4.7059236,0.015215342,0.022969872,0.042810805,-4.501099,-8.805874,-0.110133275
0.46101013,4.705867,0.015215342,0.022969872,0.042810805,-4.501099,-8.805874,-0.110133275
0.46120209,4.705859,0.019476399,0.016578285,0.05346345,-4.5058875,-8.805874,-0.07182605
0.4613937,4.705851,0.019476399,0.016578285,0.05346345,-4.5058875,-8.805874,-0.07182605
0.46154067,4.7059526,0.020541664,0.011251962,0.061985567,-4.4484267,-8.805874,0
0.46168748,4.7060547,0.020541664,0.011251962,0.061985567,-4.4484267,-8.805874,0
0.461807,4.7061768,0.02160693,0.00592564,0.07050768,-4.405331,-8.810662,-0.019153614
0.4619245,4.706299,0.02160693,0.00592564,0.07050768,-4.405331,-8.810662,-0.019153614
0.46211073,4.70625,0.02160693,-0.00046594674,0.07689927,-4.4101195,-8.767567,-0.076614454
0.462295,4.7062006,0.02160693,-0.00046594674,0.07689927,-4.4101195,-8.767567,-0.076614454
0.4623469,4.706117,0.02160693,-0.0068575335,0.08116033,-4.3526587,-8.772355,-0.110133275
0.4623974,4.706034,0.02160693,-0.0068575335,0.08116033,-4.3526587,-8.772355,-0.110133275
0.46252447,4.7059584,0.023737457,-0.01324912,0.08435612,-4.390966,-8.724471,-0.1388637
0.4626505,4.7058825,0.023737457,-0.01324912,0.08435612,-4.390966,-8.724471,-0.1388637
0.46272084,4.7058063,0.024802722,-0.017510178,0.09074771,-4.3143516,-8.6813755,-0.12449849
0.4627896,4.7057304,0.024802722,-0.017510178,0.09074771,-4.3143516,-8.6813755,-0.12449849
0.46286097,4.7056518,0.024802722,-0.0228365,0.09713929,-4.2999864,-8.6813755,-0.1436521
0.46291938,4.7055864,0.024802722,-0.0228365,0.09713929,-4.2999864,-8.6813755,-0.1436521
0.46294972,4.7055297,0.024802722,-0.026032293,0.102465615,-4.232949,-8.614338,-0.12928689
0.46298042,4.7054715,0.024802722,-0.026032293,0.102465615,-4.232949,-8.614338,-0.12928689
0.46294954,4.7055035,0.023737457,-0.026032293,0.1088572,-4.2042184,-8.6334915,-0.062249243
0.46291858,4.7055354,0.023737457,-0.026032293,0.1088572,-4.2042184,-8.6334915,-0.062249243
0.4629011,4.705535,0.022672193,-0.02496703,0.11524879,-4.1036615,-8.614338,-0.10055647
0.46288356,4.7055345,0.022672193,-0.02496703,0.11524879,-4.1036615,-8.614338,-0.10055647
0.46286052,4.7055745,0.02160693,-0.021771235,0.11631405,-4.0557775,-8.6095495,-0.047884032
0.4628374,4.7056146,0.02160693,-0.021771235,0.11631405,-4.0557775,-8.6095495,-0.047884032
0.46281385,4.7056375,0.019476399,-0.017510178,0.11631405,-4.0078936,-8.628703,-0.06703765
0.4627905,4.70566,0.019476399,-0.017510178,0.11631405,-4.0078936,-8.628703,-0.06703765
0.46276483,4.705685,0.017345872,-0.011118591,0.11418352,-3.9791632,-8.652645,-0.05267244
0.46273917,4.7057104,0.017345872,-0.011118591,0.11418352,-3.9791632,-8.652645,-0.05267244
0.4627105,4.7057095,0.015215342,-0.0025964756,0.10992247,-4.0318356,-8.662222,-0.08619126
0.462682,4.705709,0.015215342,-0.0025964756,0.10992247,-4.0318356,-8.662222,-0.08619126
0.46264666,4.70572,0.0141500775,0.0069909045,0.104596145,-4.0414124,-8.738836,-0.05746084
0.4626111,4.7057304,0.0141500775,0.0069909045,0.104596145,-4.0414124,-8.738836,-0.05746084
0.46257073,4.7057104,0.0141500775,0.016578285,0.09607403,-4.1419687,-8.801085,-0.095768064
0.4625303,4.7056904,0.0141500775,0.016578285,0.09607403,-4.1419687,-8.801085,-0.095768064
0.46249366,4.705641,0.012019549,0.026165664,0.089682445,-4.280833,-8.825027,-0.095768064
0.4624567,4.7055917,0.012019549,0.026165664,0.089682445,-4.280833,-8.825027,-0.095768064
0.46253386,4.7056966,0.012019549,0.03468778,0.08222559,-4.4101195,-8.848969,-0.038307227
0.46260697,4.7058015,0.012019549,0.03468778,0.08222559,-4.4101195,-8.848969,-0.038307227
0.4627533,4.7058873,0.010954284,0.04214463,0.07796454,-4.4484267,-8.825027,-0.0047884034
0.46289846,4.7059736,0.010954284,0.04214463,0.07796454,-4.4484267,-8.825027,-0.0047884034
0.46311292,4.7059593,0.010954284,0.047470953,0.07476874,-4.5441947,-8.791509,-0.05746084
0.4633274,4.7059455,0.010954284,0.047470953,0.07476874,-4.5441947,-8.791509,-0.05746084
0.46353957,4.705927,0.010954284,0.049601484,0.07263821,-4.606444,-8.839393,-0.062249243
0.46375185,4.705908,0.010954284,0.049601484,0.07263821,-4.606444,-8.839393,-0.062249243
0.4639643,4.7058935,0.010954284,0.049601484,0.07263821,-4.6830587,-8.848969,-0.05746084
0.46417633,4.70588,0.010954284,0.049601484,0.07263821,-4.6830587,-8.848969,-0.05746084
0.4643869,4.7058873,0.010954284,0.04853622,0.073703475,-4.7070007,-8.78672,-0.019153614
0.4645974,4.705895,0.010954284,0.04853622,0.073703475,-4.7070007,-8.78672,-0.019153614
0.46481332,4.7058735,0.013084813,0.045340426,0.07689927,-4.783615,-8.820239,-0.08140286
0.46502936,4.705852,0.013084813,0.045340426,0.07689927,-4.783615,-8.820239,-0.08140286
0.46524823,4.7058578,0.015215342,0.040014103,0.08009506,-4.8123455,-8.801085,-0.033518825
0.46546763,4.705863,0.015215342,0.040014103,0.08009506,-4.8123455,-8.801085,-0.033518825
0.46568808,4.705867,0.015215342,0.033622514,0.08116033,-4.8362875,-8.805874,-0.04309563
0.46590862,4.705871,0.015215342,0.033622514,0.08116033,-4.8362875,-8.805874,-0.04309563
0.4661298,4.705887,0.017345872,0.024035135,0.08222559,-4.807557,-8.7771435,-0.033518825
0.4663509,4.705902,0.017345872,0.024035135,0.08222559,-4.807557,-8.7771435,-0.033518825
0.46657437,4.7059364,0.019476399,0.013382491,0.08648665,-4.8027687,-8.805874,-0.009576807
0.46679762,4.705971,0.019476399,0.013382491,0.08648665,-4.8027687,-8.805874,-0.009576807
0.46701694,4.7060375,0.02160693,0.0016645822,0.09287824,-4.7548847,-8.75799,0.04309563
0.46723595,4.7061043,0.02160693,0.0016645822,0.09287824,-4.7548847,-8.75799,0.04309563
0.46746296,4.7061706,0.022672193,-0.011118591,0.09607403,-4.7309427,-8.78672,0.01436521
0.46769017,4.706237,0.022672193,-0.011118591,0.09607403,-4.7309427,-8.78672,0.01436521
0.46793032,4.7062693,0.023737457,-0.0228365,0.10033509,-4.6495395,-8.805874,-0.05746084
0.46817103,4.706301,0.023737457,-0.0228365,0.10033509,-4.6495395,-8.805874,-0.05746084
0.46840855,4.706305,0.025867987,-0.033489145,0.10566141,-4.6255975,-8.743625,-0.10055647
0.4686459,4.706309,0.025867987,-0.033489145,0.10566141,-4.6255975,-8.743625,-0.10055647
0.46888945,4.7063265,0.026933251,-0.045207053,0.1088572,-4.5872903,-8.767567,-0.08140286
0.46913257,4.706343,0.026933251,-0.045207053,0.1088572,-4.5872903,-8.767567,-0.08140286
0.46938252,4.7063985,0.026933251,-0.0558597,0.10992247,-4.5154643,-8.743625,-0.05267244
0.469633,4.706453,0.026933251,-0.0558597,0.10992247,-4.5154643,-8.743625,-0.05267244
0.46987483,4.7065487,0.025867987,-0.064381815,0.10992247,-4.4819455,-8.714894,-0.038307227
0.4701169,4.7066436,0.025867987,-0.064381815,0.10992247,-4.4819455,-8.714894,-0.038307227
0.470098,4.7067466,0.025867987,-0.07183866,0.11098773,-4.4101195,-8.695741,-0.047884032
0.47007343,4.706832,0.025867987,-0.07183866,0.11098773,-4.4101195,-8.695741,-0.047884032
0.47032705,4.7068977,0.025867987,-0.077164985,0.11311826,-4.405331,-8.63828,-0.047884032
0.47058618,4.7069583,0.025867987,-0.077164985,0.11311826,-4.405331,-8.63828,-0.047884032
0.47070545,4.707135,0.025867987,-0.079295516,0.11631405,-4.4101195,-8.66701,-0.0047884034
0.47082147,4.707311,0.025867987,-0.079295516,0.11631405,-4.4101195,-8.66701,-0.0047884034
0.4709293,4.7074876,0.025867987,-0.079295516,0.118444584,-4.405331,-8.66701,0.0047884034
0.4710346,4.7076635,0.025867987,-0.079295516,0.118444584,-4.405331,-8.66701,0.0047884034
0.47104052,4.7076635,0.023737457,-0.07609972,0.12164038,-4.3478703,-8.700529,-0.076614454
0.47104648,4.7076635,0.023737457,-0.07609972,0.12164038,-4.3478703,-8.700529,-0.076614454
0.47104383,4.7076826,0.023737457,-0.07290393,0.1269667,-4.333505,-8.710106,-0.06703765
0.47104117,4.7077017,0.023737457,-0.07290393,0.1269667,-4.333505,-8.710106,-0.06703765
0.47105676,4.7078204,0.023737457,-0.06544708,0.13122776,-4.333505,-8.743625,0.009576807
0.47107163,4.707939,0.023737457,-0.06544708,0.13122776,-4.333505,-8.743625,0.009576807
0.47108677,4.707933,0.023737457,-0.05692496,0.13442355,-4.223372,-8.767567,-0.1340753
0.47110227,4.7079263,0.023737457,-0.05692496,0.13442355,-4.223372,-8.767567,-0.1340753
0.4710964,4.707984,0.024802722,-0.04627232,0.13335828,-4.1946416,-8.805874,-0.023942016
0.4710905,4.708041,0.024802722,-0.04627232,0.13335828,-4.1946416,-8.805874,-0.023942016
0.4710814,4.708074,0.025867987,-0.036684938,0.13016249,-4.1276035,-8.825027,-0.062249243
0.47107244,4.7081065,0.025867987,-0.036684938,0.13016249,-4.1276035,-8.825027,-0.062249243
0.47105548,4.708153,0.025867987,-0.028162822,0.12270564,-4.0797195,-8.863335,-0.023942016
0.4710387,4.7081976,0.025867987,-0.028162822,0.12270564,-4.0797195,-8.863335,-0.023942016
0.4710099,4.7082286,0.025867987,-0.021771235,0.11098773,-4.0557775,-8.887277,-0.05267244
0.4709811,4.7082596,0.025867987,-0.021771235,0.11098773,-4.0557775,-8.887277,-0.05267244
0.47093797,4.708284,0.026933251,-0.019640706,0.09607403,-4.036624,-8.887277,-0.07182605
0.4708948,4.7083077,0.026933251,-0.019640706,0.09607403,-4.036624,-8.887277,-0.07182605
0.470831,4.7083383,0.026933251,-0.019640706,0.075834006,-4.0797195,-8.882488,-0.05267244
0.47076705,4.7083683,0.026933251,-0.019640706,0.075834006,-4.0797195,-8.882488,-0.05267244
0.4706827,4.7084227,0.030129045,-0.0228365,0.054528717,-4.1659107,-8.896853,-0.009576807
0.47059843,4.7084765,0.030129045,-0.0228365,0.054528717,-4.1659107,-8.896853,-0.009576807
0.47049916,4.708548,0.034390103,-0.029228088,0.037484486,-4.2042184,-8.944737,0.009576807
0.47039986,4.708619,0.034390103,-0.029228088,0.037484486,-4.2042184,-8.944737,0.009576807
0.47028437,4.7086854,0.03652063,-0.03455441,0.023636047,-4.256891,-8.930372,-0.01436521
0.4701691,4.7087507,0.03652063,-0.03455441,0.023636047,-4.256891,-8.930372,-0.01436521
0.4701691,4.7087507,0.039716423,-0.03988073,0.016179197,-4.3047748,-8.911219,0.023942016
0.46994203,4.7089534,0.039716423,-0.03988073,0.016179197,-4.3047748,-8.911219,0.023942016
0.4698177,4.709059,0.04291222,-0.045207053,0.011918138,-4.3526587,-8.892065,0.0047884034
0.4698177,4.709059,0.04291222,-0.045207053,0.011918138,-4.3526587,-8.892065,0.0047884034
0.4698177,4.709059,0.04291222,-0.045207053,0.011918138,-4.3526587,-8.892065,0.0047884034
0.46946543,4.7093763,0.04610801,-0.047337584,0.014048667,-4.3287168,-8.810662,0.02873042
0.46946543,4.7093763,0.04610801,-0.047337584,0.014048667,-4.3287168,-8.810662,0.02873042
0.46946543,4.7093763,0.04610801,-0.047337584,0.014048667,-4.3287168,-8.810662,0.02873042
0.46919152,4.709874,0.0524996,-0.04946811,0.024701312,-4.3382936,-8.6813755,0
0.46912137,4.7099686,0.0524996,-0.04946811,0.024701312,-4.3382936,-8.6813755,0
0.46902257,4.7100253,0.055695392,-0.047337584,0.033223428,-4.367024,-8.66701,-0.023942016
0.46902257,4.7100253,0.055695392,-0.047337584,0.033223428,-4.367024,-8.66701,-0.023942016
0.46879682,4.710226,0.055695392,-0.04627232,0.040680278,-4.3766007,-8.690952,-0.019153614
0.4687294,4.7102776,0.055695392,-0.04627232,0.040680278,-4.3766007,-8.690952,-0.019153614
0.4688251,4.7102532,0.05782592,-0.043076526,0.047071867,-4.4340615,-8.643068,-0.11492168
0.46892095,4.7102284,0.05782592,-0.043076526,0.047071867,-4.4340615,-8.643068,-0.11492168
0.46885327,4.7103586,0.05782592,-0.037750203,0.054528717,-4.390966,-8.719683,-0.009576807
0.46878272,4.7104855,0.05782592,-0.037750203,0.054528717,-4.390966,-8.719683,-0.009576807
0.46884975,4.710449,0.05782592,-0.03455441,0.0609203,-4.405331,-8.686164,-0.110133275
0.46891585,4.7104135,0.05782592,-0.03455441,0.0609203,-4.405331,-8.686164,-0.110133275
0.4689696,4.710376,0.05782592,-0.029228088,0.06518136,-4.390966,-8.686164,-0.090979666
0.46902287,4.710337,0.05782592,-0.029228088,0.06518136,-4.390966,-8.686164,-0.090979666
0.46910718,4.7102966,0.058891185,-0.0228365,0.06624663,-4.43885,-8.724471,-0.10534488
0.4691898,4.7102575,0.058891185,-0.0228365,0.06624663,-4.43885,-8.724471,-0.10534488
0.4693007,4.71022,0.05782592,-0.019640706,0.06518136,-4.4580035,-8.710106,-0.095768064
0.4694621,4.7101645,0.05782592,-0.019640706,0.06518136,-4.4580035,-8.710106,-0.095768064
0.4695324,4.7101426,0.056760654,-0.019640706,0.058789775,-4.486734,-8.767567,-0.076614454
0.46964025,4.7101088,0.056760654,-0.019640706,0.058789775,-4.486734,-8.767567,-0.076614454
0.46983147,4.710172,0.05782592,-0.023901764,0.054528717,-4.572925,-8.762778,-0.023942016
0.4700245,4.710235,0.05782592,-0.023901764,0.054528717,-4.572925,-8.762778,-0.023942016
0.47021154,4.710288,0.05782592,-0.028162822,0.049202394,-4.5633483,-8.805874,-0.02873042
0.47039828,4.71034,0.05782592,-0.028162822,0.049202394,-4.5633483,-8.805874,-0.02873042
0.4705804,4.7104383,0.058891185,-0.036684938,0.044941336,-4.5920787,-8.815451,-0.0047884034
0.4707632,4.7105355,0.058891185,-0.036684938,0.044941336,-4.5920787,-8.815451,-0.0047884034
0.47091958,4.710559,0.062086977,-0.04946811,0.041745543,-4.5202527,-8.805874,-0.033518825
0.47107443,4.71058,0.062086977,-0.04946811,0.041745543,-4.5202527,-8.805874,-0.033518825
0.47124562,4.7107124,0.06528277,-0.062251285,0.03854975,-4.5394063,-8.767567,0
0.47141644,4.710843,0.06528277,-0.062251285,0.03854975,-4.5394063,-8.767567,0
0.47159457,4.7109237,0.0674133,-0.07503446,0.041745543,-4.477157,-8.772355,-0.01436521
0.47175282,4.710966,0.0674133,-0.07503446,0.041745543,-4.477157,-8.772355,-0.01436521
0.4718105,4.71119,0.06847856,-0.08675237,0.0460066,-4.453215,-8.719683,0.023942016
0.47186682,4.711413,0.06847856,-0.08675237,0.0460066,-4.453215,-8.719683,0.023942016
0.47183317,4.7116213,0.07060909,-0.09847028,0.052398186,-4.367024,-8.7532015,0.07182605
0.4717985,4.7118287,0.07060909,-0.09847028,0.052398186,-4.367024,-8.7532015,0.07182605
0.47178024,4.712045,0.07273962,-0.10486186,0.061985567,-4.333505,-8.671799,0.076614454
0.47176063,4.712263,0.07273962,-0.10486186,0.061985567,-4.333505,-8.671799,0.076614454
0.47169456,4.712384,0.074870154,-0.108057655,0.073703475,-4.2185836,-8.595184,-0.009576807
0.4716293,4.712503,0.074870154,-0.108057655,0.073703475,-4.2185836,-8.595184,-0.009576807
0.47157407,4.7126255,0.07700068,-0.109122925,0.08435612,-4.1419687,-8.652645,-0.01436521
0.47151896,4.7127476,0.07700068,-0.109122925,0.08435612,-4.1419687,-8.652645,-0.01436521
0.47147617,4.71285,0.07913121,-0.108057655,0.09181297,-4.0653543,-8.552089,-0.05267244
0.47143385,4.712951,0.07913121,-0.108057655,0.09181297,-4.0653543,-8.552089,-0.05267244
0.47139236,4.7130575,0.07913121,-0.10486186,0.09500877,-3.9791632,-8.537724,-0.05267244
0.47135115,4.7131634,0.07913121,-0.10486186,0.09500877,-3.9791632,-8.537724,-0.05267244
0.47131658,4.713254,0.07700068,-0.09953554,0.09820456,-3.9312792,-8.48984,-0.08140286
0.47128212,4.7133446,0.07700068,-0.09953554,0.09820456,-3.9312792,-8.48984,-0.08140286
0.4712518,4.7134223,0.074870154,-0.09207869,0.09926982,-3.8115692,-8.413225,-0.11971009
0.47122142,4.7135,0.074870154,-0.09207869,0.09926982,-3.8115692,-8.413225,-0.11971009
0.47118717,4.7135715,0.07273962,-0.08462184,0.09500877,-3.8307228,-8.379706,-0.110133275
0.47115287,4.713643,0.07273962,-0.08462184,0.09500877,-3.8307228,-8.379706,-0.110133275
0.47110075,4.713742,0.06954383,-0.07609972,0.087551914,-3.892972,-8.37013,-0.009576807
0.47104856,4.71384,0.06954383,-0.07609972,0.087551914,-3.892972,-8.37013,-0.009576807
0.47100115,4.7138886,0.06528277,-0.06970814,0.07689927,-3.9935284,-8.360553,-0.076614454
0.4709542,4.7139363,0.06528277,-0.06970814,0.07689927,-3.9935284,-8.360553,-0.076614454
0.47091562,4.7139554,0.061021715,-0.06331655,0.06624663,-4.1132383,-8.389283,-0.076614454
0.4708774,4.713974,0.061021715,-0.06331655,0.06624663,-4.1132383,-8.389283,-0.076614454
0.4709702,4.713949,0.055695392,-0.05372917,0.05772451,-4.2999864,-8.389283,-0.05746084
0.47106248,4.7139244,0.055695392,-0.05372917,0.05772451,-4.2999864,-8.389283,-0.05746084
0.471258,4.7139983,0.0524996,-0.047337584,0.055593982,-4.4819455,-8.413225,0.009576807
0.4714534,4.7140713,0.0524996,-0.047337584,0.055593982,-4.4819455,-8.413225,0.009576807
0.47164065,4.714094,0.047173277,-0.040945996,0.058789775,-4.697424,-8.379706,-0.10534488
0.47182763,4.714116,0.047173277,-0.040945996,0.058789775,-4.697424,-8.379706,-0.10534488
0.4720245,4.714132,0.040781688,-0.036684938,0.06731189,-4.817134,-8.394072,-0.12928689
0.47222114,4.7141476,0.040781688,-0.036684938,0.06731189,-4.817134,-8.394072,-0.12928689
0.47244275,4.714179,0.03652063,-0.03455441,0.08435612,-4.999093,-8.336611,-0.08140286
0.47266513,4.7142105,0.03652063,-0.03455441,0.08435612,-4.999093,-8.336611,-0.08140286
0.47290292,4.7142224,0.031194309,-0.03455441,0.104596145,-5.0996494,-8.307879,-0.17238252
0.47314093,4.7142344,0.031194309,-0.03455441,0.104596145,-5.0996494,-8.307879,-0.17238252
0.47340629,4.714246,0.024802722,-0.033489145,0.12909722,-5.291186,-8.226477,-0.17717093
0.47366765,4.7142572,0.024802722,-0.033489145,0.12909722,-5.291186,-8.226477,-0.17717093
0.47396567,4.7142754,0.018411135,-0.031358615,0.1599899,-5.45878,-8.145074,-0.10534488
0.47426954,4.7142935,0.018411135,-0.031358615,0.1599899,-5.45878,-8.145074,-0.10534488
0.47460175,4.7143126,0.010954284,-0.028162822,0.19407836,-5.5737014,-8.00621,-0.038307227
0.4749353,4.714332,0.010954284,-0.028162822,0.19407836,-5.5737014,-8.00621,-0.038307227
0.47530448,4.7143335,0.0024321685,-0.026032293,0.23029736,-5.6982,-7.9008656,-0.11971009
0.47567442,4.714335,0.0024321685,-0.026032293,0.23029736,-5.6982,-7.9008656,-0.11971009
0.47608137,4.7143226,-0.009285741,-0.021771235,0.2675816,-5.923255,-7.881712,-0.1388637
0.47649118,4.71431,-0.009285741,-0.021771235,0.2675816,-5.923255,-7.881712,-0.1388637
0.4769336,4.71429,-0.021003649,-0.018575443,0.30273533,-6.2105594,-7.824251,-0.095768064
0.4773738,4.7142696,-0.021003649,-0.018575443,0.30273533,-6.2105594,-7.824251,-0.095768064
0.477853,4.7142324,-0.033786822,-0.019640706,0.33788908,-6.4404025,-7.896077,-0.17238252
0.4783298,4.714195,-0.033786822,-0.019640706,0.33788908,-6.4404025,-7.896077,-0.17238252
0.47884196,4.7141523,-0.04763526,-0.023901764,0.37410805,-6.655881,-8.030152,-0.095768064
0.4793536,4.7141094,-0.04763526,-0.023901764,0.37410805,-6.655881,-8.030152,-0.095768064
0.4799081,4.7140646,-0.05935317,-0.036684938,0.4145881,-6.83784,-8.169016,-0.062249243
0.48046103,4.71402,-0.05935317,-0.036684938,0.4145881,-6.83784,-8.169016,-0.062249243
0.48105988,4.713968,-0.07213634,-0.057990227,0.45932922,-6.9240313,-8.236053,-0.1436521
0.48165932,4.713916,-0.07213634,-0.057990227,0.45932922,-6.9240313,-8.236053,-0.1436521
0.4823032,4.713867,-0.08172372,-0.08781763,0.5051356,-6.9240313,-8.293514,-0.17717093
0.4829478,4.7138186,-0.08172372,-0.08781763,0.5051356,-6.9240313,-8.293514,-0.17717093
0.48364085,4.713774,-0.091311105,-0.12616715,0.55307245,-6.7947445,-8.341399,-0.25857377
0.48433128,4.71373,-0.091311105,-0.12616715,0.55307245,-6.7947445,-8.341399,-0.25857377
0.48506722,4.713697,-0.09663743,-0.16984299,0.5978136,-6.4404025,-8.374918,-0.29209262
0.48580164,4.713664,-0.09663743,-0.16984299,0.5978136,-6.4404025,-8.374918,-0.29209262
0.48656416,4.7136245,-0.10302901,-0.21564937,0.63509786,-6.0477533,-8.403648,-0.49320555
0.48732805,4.7135844,-0.10302901,-0.21564937,0.63509786,-6.0477533,-8.403648,-0.49320555
0.4881097,4.713548,-0.1094206,-0.26039046,0.6627947,-5.717354,-8.504205,-0.51235914
0.48889562,4.7135124,-0.1094206,-0.26039046,0.6627947,-5.717354,-8.504205,-0.51235914
0.4897169,4.713517,-0.11900798,-0.3019358,0.6787737,-5.3821654,-8.676587,-0.15801731
0.49051186,4.7135215,-0.11900798,-0.3019358,0.6787737,-5.3821654,-8.676587,-0.15801731
0.49121845,4.7136884,-0.12326904,-0.3402853,0.68196946,-4.8506527,-8.872911,0.33518824
0.49193004,4.7138577,-0.12326904,-0.3402853,0.68196946,-4.8506527,-8.872911,0.33518824
0.49250576,4.714023,-0.122203775,-0.38076535,0.6670558,-4.132392,-8.896853,0.45968673
0.49307957,4.714188,-0.122203775,-0.38076535,0.6670558,-4.132392,-8.896853,0.45968673
0.49358612,4.714348,-0.11794271,-0.4212454,0.6308368,-3.9695864,-8.968679,0.29209262
0.4940944,4.7145085,-0.11794271,-0.4212454,0.6308368,-3.9695864,-8.968679,0.29209262
0.49453878,4.7146654,-0.11261639,-0.45320335,0.5818346,-3.9360676,-9.11712,0.15801731
0.49498045,4.7148213,-0.11261639,-0.45320335,0.5818346,-3.9360676,-9.11712,0.15801731
0.49536622,4.7149806,-0.108355336,-0.47983494,0.52644086,-3.940856,-9.313444,0.07182605
0.49575564,4.715142,-0.108355336,-0.47983494,0.52644086,-3.940856,-9.313444,0.07182605
0.49608442,4.715319,-0.10196375,-0.5022055,0.4689166,-3.9456444,-9.476251,0.06703765
0.4964106,4.715494,-0.10196375,-0.5022055,0.4689166,-3.9456444,-9.476251,0.06703765
0.49668306,4.715705,-0.09024584,-0.5299024,0.4124576,-3.8881836,-9.595961,0.12449849
0.4969577,4.715917,-0.09024584,-0.5299024,0.4124576,-3.8881836,-9.595961,0.12449849
0.4971795,4.716158,-0.07426687,-0.55759925,0.36239013,-3.7541082,-9.543288,0.12928689
0.49740148,4.7163987,-0.07426687,-0.55759925,0.36239013,-3.7541082,-9.543288,0.12928689
0.4975817,4.7166724,-0.056157377,-0.5831656,0.32084483,-3.6822822,-9.457097,0.1388637
0.4977618,4.716946,-0.056157377,-0.5831656,0.32084483,-3.6822822,-9.457097,0.1388637
0.49791002,4.7172604,-0.039113145,-0.60234034,0.2856911,-3.5913026,-9.390059,0.2681506
0.49805856,4.7175756,-0.039113145,-0.60234034,0.2856911,-3.5913026,-9.390059,0.2681506
0.498183,4.7179174,-0.022068914,-0.6108625,0.26012474,-3.6008794,-9.246407,0.30166942
0.49830678,4.7182584,-0.022068914,-0.6108625,0.26012474,-3.6008794,-9.246407,0.30166942
0.49841067,4.7186193,-0.006089947,-0.61192775,0.23988473,-3.6296098,-9.198523,0.2777274
0.49851117,4.718969,-0.006089947,-0.61192775,0.23988473,-3.6296098,-9.198523,0.2777274
0.49859935,4.7193365,0.0077584907,-0.6076667,0.2260363,-3.715801,-9.040505,0.25857377
0.49868694,4.7197037,0.0077584907,-0.6076667,0.2260363,-3.715801,-9.040505,0.25857377
0.4987775,4.720091,0.017345872,-0.59701407,0.22177523,-3.7445314,-9.059659,0.37349546
0.49886703,4.7204757,0.017345872,-0.59701407,0.22177523,-3.7445314,-9.059659,0.37349546
0.49896955,4.720876,0.025867987,-0.57890457,0.22497103,-3.8642416,-8.992621,0.45968673
0.49907133,4.7212744,0.025867987,-0.57890457,0.22497103,-3.8642416,-8.992621,0.45968673
0.49918124,4.721667,0.03545537,-0.5544035,0.23562367,-4.012682,-8.987833,0.38307226
0.49929023,4.722059,0.03545537,-0.5544035,0.23562367,-4.012682,-8.987833,0.38307226
0.4994232,4.7224503,0.043977484,-0.5256413,0.25479844,-4.1946416,-8.935161,0.35434186
0.49955544,4.7228413,0.043977484,-0.5256413,0.25479844,-4.1946416,-8.935161,0.35434186
0.4997179,4.7232304,0.05356486,-0.4958139,0.28143004,-4.3382936,-9.054871,0.35434186
0.4998834,4.7236285,0.05356486,-0.4958139,0.28143004,-4.3382936,-9.054871,0.35434186
0.5000625,4.7239914,0.061021715,-0.46705177,0.31125745,-4.4005427,-8.987833,0.24899697
0.5002399,4.7243524,0.061021715,-0.46705177,0.31125745,-4.4005427,-8.987833,0.24899697
0.50045395,4.724709,0.0674133,-0.4361591,0.34428066,-4.4963107,-9.050082,0.24899697
0.50066745,4.725066,0.0674133,-0.4361591,0.34428066,-4.4963107,-9.050082,0.24899697
0.50102043,4.7255583,0.075935416,-0.40633172,0.37623858,-4.510676,-9.064447,0.18674773
0.50102043,4.7255583,0.075935416,-0.40633172,0.37623858,-4.510676,-9.064447,0.18674773
0.50102043,4.7255583,0.075935416,-0.40633172,0.37623858,-4.510676,-9.064447,0.18674773
0.50180966,4.7263956,0.08339227,-0.38183063,0.406066,-4.5298295,-9.078813,0.076614454
0.50192773,4.7265196,0.08339227,-0.38183063,0.406066,-4.5298295,-9.078813,0.076614454
0.5022507,4.726822,0.09084912,-0.36052534,0.4326976,-4.462792,-9.093178,0.06703765
0.5025609,4.7270555,0.0972407,-0.34454638,0.45187235,-4.4436383,-9.126697,-0.038307227
0.50289744,4.7273088,0.0972407,-0.34454638,0.45187235,-4.4436383,-9.126697,-0.038307227
0.503202,4.7275314,0.102567025,-0.33389372,0.46678606,-4.4244847,-9.059659,-0.019153614
0.5035317,4.727773,0.102567025,-0.33389372,0.46678606,-4.4244847,-9.059659,-0.019153614
0.5038626,4.728062,0.10895862,-0.32643688,0.47637343,-4.486734,-9.021352,0.12928689
0.5041935,4.7283506,0.10895862,-0.32643688,0.47637343,-4.486734,-9.021352,0.12928689
0.5045441,4.728692,0.11428493,-0.32111055,0.48276502,-4.7261543,-9.035717,0.21547815
0.5048928,4.729031,0.11428493,-0.32111055,0.48276502,-4.7261543,-9.035717,0.21547815
0.50537515,4.729444,0.12174179,-0.31471896,0.4902219,-5.0661306,-9.169792,0.320823
0.5058547,4.7298574,0.12174179,-0.31471896,0.4902219,-5.0661306,-9.169792,0.320823
0.5064581,4.7302446,0.13239443,-0.30832738,0.50407034,-5.5258174,-9.313444,0.37349546
0.50705636,4.730629,0.13239443,-0.30832738,0.50407034,-5.5258174,-9.313444,0.37349546
0.5077062,4.7309923,0.14411235,-0.30087054,0.5296367,-6.081272,-9.586384,0.3878607
0.5083562,4.7313557,0.14411235,-0.30087054,0.5296367,-6.081272,-9.586384,0.3878607
0.5090504,4.7317123,0.15583025,-0.2923484,0.56905144,-6.6415157,-9.859323,0.40222588
0.5097482,4.732071,0.15583025,-0.2923484,0.56905144,-6.6415157,-9.859323,0.40222588
0.5105077,4.732436,0.16967869,-0.28808734,0.62977153,-7.1347213,-10.132261,0.4261679
0.511264,4.7328005,0.16967869,-0.28808734,0.62977153,-7.1347213,-10.132261,0.4261679
0.5121062,4.7331867,0.18778819,-0.29021788,0.7117969,-7.517793,-10.386047,0.46447513
0.5129475,4.733573,0.18778819,-0.29021788,0.7117969,-7.517793,-10.386047,0.46447513
0.5138835,4.733988,0.21228927,-0.30087054,0.8098012,-7.690176,-10.553641,0.45968673
0.51482505,4.7344055,0.21228927,-0.30087054,0.8098012,-7.690176,-10.553641,0.45968673
0.51587725,4.7348585,0.23998614,-0.3200453,0.92271924,-7.824251,-10.682928,0.4357447
0.5169314,4.735313,0.23998614,-0.3200453,0.92271924,-7.824251,-10.682928,0.4357447
0.51810545,4.735802,0.27087882,-0.34880742,1.0441594,-7.728483,-10.692505,0.30166942
0.51928055,4.736292,0.27087882,-0.34880742,1.0441594,-7.728483,-10.692505,0.30166942
0.52057755,4.7368426,0.3017715,-0.38715693,1.1677301,-7.560889,-10.654198,0.34476504
0.5218845,4.737399,0.3017715,-0.38715693,1.1677301,-7.560889,-10.654198,0.34476504
0.52329177,4.7379923,0.33479467,-0.43189806,1.2870396,-7.216124,-10.5680065,0.23463176
0.5247041,4.7385893,0.33479467,-0.43189806,1.2870396,-7.216124,-10.5680065,0.23463176
0.52622926,4.739233,0.36675262,-0.47983494,1.3978271,-6.8905125,-10.419566,0.16280572
0.5277473,4.739874,0.36675262,-0.47983494,1.3978271,-6.8905125,-10.419566,0.16280572
0.529356,4.74057,0.39871055,-0.52883714,1.4947662,-6.5505357,-10.338163,0.18674773
0.5309676,4.7412667,0.39871055,-0.52883714,1.4947662,-6.5505357,-10.338163,0.18674773
0.53258246,4.741958,0.42960322,-0.57890457,1.5767916,-6.215348,-10.280702,0.04309563
0.5341977,4.742653,0.42960322,-0.57890457,1.5767916,-6.215348,-10.280702,0.04309563
0.5357754,4.7433996,0.4573001,-0.62790674,1.6449685,-5.81791,-10.1226845,-0.0047884034
0.53735507,4.744153,0.4573001,-0.62790674,1.6449685,-5.81791,-10.1226845,-0.0047884034
0.5389632,4.7449665,0.48286644,-0.6737131,1.6992971,-5.6215854,-10.01734,-0.07182605
0.5405718,4.7457843,0.48286644,-0.6737131,1.6992971,-5.6215854,-10.01734,-0.07182605
0.5421853,4.7466726,0.50630224,-0.7120626,1.7408423,-5.449203,-10.007763,0.009576807
0.54379416,4.7475615,0.50630224,-0.7120626,1.7408423,-5.449203,-10.007763,0.009576807
0.5454346,4.748499,0.5265423,-0.74082476,1.7717351,-5.439626,-10.041282,0.019153614
0.5470706,4.749438,0.5265423,-0.74082476,1.7717351,-5.439626,-10.041282,0.019153614
0.5487075,4.750421,0.5435865,-0.7631953,1.7962362,-5.45878,-10.170568,0.10534488
0.5503569,4.751415,0.5435865,-0.7631953,1.7962362,-5.45878,-10.170568,0.10534488
0.5520071,4.752482,0.56276125,-0.77917427,1.8175414,-5.544971,-10.34774,0.31603462
0.55365,4.7535458,0.56276125,-0.77917427,1.8175414,-5.544971,-10.34774,0.31603462
0.55531883,4.754652,0.58406657,-0.79195744,1.8409772,-5.530606,-10.500969,0.34955344
0.55698365,4.7557573,0.58406657,-0.79195744,1.8409772,-5.530606,-10.500969,0.34955344
0.5586822,4.756926,0.60856766,-0.80793643,1.8654783,-5.506664,-10.6398325,0.45489833
0.5605736,4.7582307,0.60856766,-0.80793643,1.8654783,-5.506664,-10.6398325,0.45489833
0.56211144,4.7593193,0.63732976,-0.8249806,1.8889141,-5.4539914,-10.754754,0.48841715
0.56378,4.7605033,0.63732976,-0.8249806,1.8889141,-5.4539914,-10.754754,0.48841715
0.5655128,4.761777,0.6682224,-0.8441554,1.9187415,-5.3582234,-10.788273,0.641646
0.56724757,4.763055,0.6682224,-0.8441554,1.9187415,-5.3582234,-10.788273,0.641646
0.56901455,4.764381,0.7023109,-0.86652595,1.95283,-5.267244,-10.769119,0.60812724
0.5707802,4.765709,0.7023109,-0.86652595,1.95283,-5.267244,-10.769119,0.60812724
0.57257795,4.7670903,0.7406604,-0.8888965,1.9879837,-5.3199162,-10.644621,0.5746084
0.5743722,4.768473,0.7406604,-0.8888965,1.9879837,-5.3199162,-10.644621,0.5746084
0.5762099,4.7699194,0.77900994,-0.90913653,2.0284638,-5.45878,-10.745177,0.61291564
0.57803696,4.771361,0.77900994,-0.90913653,2.0284638,-5.45878,-10.745177,0.61291564
0.57991993,4.7728496,0.8162942,-0.9219197,2.077466,-5.6215854,-10.773908,0.5410896
0.5817976,4.774338,0.8162942,-0.9219197,2.077466,-5.6215854,-10.773908,0.5410896
0.58373404,4.775872,0.84931743,-0.9283113,2.138186,-5.9041014,-10.91756,0.58897364
0.58567446,4.7774143,0.84931743,-0.9283113,2.138186,-5.9041014,-10.91756,0.58897364
0.58768064,4.7790046,0.8844711,-0.9315071,2.2138197,-6.157887,-11.128249,0.6799533
0.58968693,4.780599,0.8844711,-0.9315071,2.2138197,-6.157887,-11.128249,0.6799533
0.59178317,4.7822638,0.9217554,-0.92937654,2.303302,-6.1866174,-11.353305,0.8810662
0.59387696,4.7839317,0.9217554,-0.92937654,2.303302,-6.1866174,-11.353305,0.8810662
0.59607065,4.7856393,0.96010494,-0.92511547,2.407698,-6.105214,-11.573571,0.89064306
0.5982666,4.7873545,0.96010494,-0.92511547,2.407698,-6.105214,-11.573571,0.89064306
0.6005817,4.789136,1.0027155,-0.9219197,2.5206158,-5.961562,-11.712435,1.0103531
0.60287654,4.790907,1.0027155,-0.9219197,2.5206158,-5.961562,-11.712435,1.0103531
0.60518014,4.792692,1.0027155,-0.9219197,2.5206158,-5.961562,-11.712435,1.0103531
0.60759425,4.7945223,1.0485219,-0.9187239,2.6388602,-5.884948,-11.827356,0.9528923
0.6100061,4.7963586,1.0485219,-0.9187239,2.6388602,-5.884948,-11.827356,0.9528923
0.6125412,4.798254,1.097524,-0.9176586,2.7571046,-5.6886234,-11.841722,0.8714894
0.61506885,4.800153,1.097524,-0.9176586,2.7571046,-5.6886234,-11.841722,0.8714894
0.61771244,4.8021197,1.1486567,-0.92085445,2.8785448,-5.506664,-11.731588,0.89543146
0.6203589,4.804098,1.1486567,-0.92085445,2.8785448,-5.506664,-11.731588,0.89543146
0.6231127,4.8061347,1.1997894,-0.92298496,2.9967892,-5.3199162,-11.535264,0.8379706
0.6258752,4.8081875,1.1997894,-0.92298496,2.9967892,-5.3199162,-11.535264,0.8379706
0.62874174,4.810305,1.2498568,-0.9261808,3.1129029,-5.2145715,-11.247959,0.8475474
0.631606,4.8124313,1.2498568,-0.9261808,3.1129029,-5.2145715,-11.247959,0.8475474
0.6345831,4.814631,1.298859,-0.92937654,3.2236905,-5.257667,-11.042058,0.8571242
0.6375549,4.8168373,1.298859,-0.92937654,3.2236905,-5.257667,-11.042058,0.8571242
0.6406351,4.819108,1.3425349,-0.9283113,3.3355432,-5.386954,-10.898406,0.90021986
0.6437123,4.8213882,1.3425349,-0.9283113,3.3355432,-5.386954,-10.898406,0.90021986
0.64689994,4.8237324,1.3830149,-0.92511547,3.4495265,-5.66947,-10.821792,0.9959879
0.6500847,4.826087,1.3830149,-0.92511547,3.4495265,-5.66947,-10.821792,0.9959879
0.6533798,4.8285027,1.4192339,-0.9197892,3.5699015,-6.1004257,-10.884041,1.1587936
0.6566846,4.830939,1.4192339,-0.9197892,3.5699015,-6.1004257,-10.884041,1.1587936
0.6601188,4.8334355,1.4543877,-0.91126704,3.7083857,-6.4499793,-10.979809,1.3072342
0.6635493,4.8359437,1.4543877,-0.91126704,3.7083857,-6.4499793,-10.979809,1.3072342
0.6671369,4.838518,1.4906067,-0.90061444,3.8681755,-6.7708025,-11.046846,1.412579
0.67071724,4.841102,1.4906067,-0.90061444,3.8681755,-6.7708025,-11.046846,1.412579
0.6744845,4.8437595,1.524695,-0.8888965,4.04714,-7.225701,-11.161768,1.5035586
0.67823625,4.846422,1.524695,-0.8888965,4.04714,-7.225701,-11.161768,1.5035586
0.6821886,4.849153,1.5587835,-0.8771786,4.251671,-7.728483,-11.295844,1.5705963
0.6861482,4.851906,1.5587835,-0.8771786,4.251671,-7.728483,-11.295844,1.5705963
0.69031835,4.854698,1.5907415,-0.8675912,4.479637,-8.087613,-11.410766,1.4939818
0.6944843,4.8575077,1.5907415,-0.8675912,4.479637,-8.087613,-11.410766,1.4939818
0.6989171,4.8603697,1.6195036,-0.86013436,4.732105,-8.552089,-11.568783,1.4173675
0.703337,4.863247,1.6195036,-0.86013436,4.732105,-8.552089,-11.568783,1.4173675
0.70802766,4.8661942,1.6514616,-0.85693854,5.0133348,-8.834604,-11.674128,1.412579
0.7127327,4.8691773,1.6514616,-0.85693854,5.0133348,-8.834604,-11.674128,1.412579
0.7177296,4.8722486,1.68555,-0.8558733,5.3190656,-8.916007,-11.611878,1.3982137
0.7227162,4.8753443,1.68555,-0.8558733,5.3190656,-8.916007,-11.611878,1.3982137
0.72802186,4.8785467,1.7228342,-0.8526775,5.63758,-8.868123,-11.343728,1.3694834
0.7333157,4.8817787,1.7228342,-0.8526775,5.63758,-8.868123,-11.343728,1.3694834
0.73895884,4.8851175,1.7601185,-0.84841645,5.9624853,-8.724471,-10.970232,1.1683705
0.7445771,4.8884835,1.7601185,-0.84841645,5.9624853,-8.724471,-10.970232,1.1683705
0.75049764,4.8919687,1.789946,-0.83669853,6.2841954,-8.643068,-10.630256,1.3215994
0.7564219,4.8955035,1.789946,-0.83669853,6.2841954,-8.643068,-10.630256,1.3215994
0.7626358,4.8991375,1.8123165,-0.814328,6.5920568,-8.686164,-10.362105,1.436521
0.7688352,4.902815,1.8123165,-0.814328,6.5920568,-8.686164,-10.362105,1.436521
0.7753455,4.9065685,1.826165,-0.78343534,6.8839393,-8.791509,-10.13705,1.3742718
0.78183866,4.910372,1.826165,-0.78343534,6.8839393,-8.791509,-10.13705,1.3742718
0.7886216,4.914228,1.830426,-0.74934685,7.1609077,-9.097966,-9.921572,1.3263878
0.7954045,4.9181504,1.830426,-0.74934685,7.1609077,-9.097966,-9.921572,1.3263878
0.80246496,4.9221306,1.8219038,-0.7163237,7.4197674,-9.552865,-9.878476,1.364695
0.8095011,4.9261713,1.8219038,-0.7163237,7.4197674,-9.552865,-9.878476,1.364695
0.81676525,4.9302998,1.8048596,-0.7003447,7.6647778,-10.0508585,-10.199299,1.541866
0.8240051,4.9344954,1.8048596,-0.7003447,7.6647778,-10.0508585,-10.199299,1.541866
0.83146465,4.9388533,1.7846196,-0.71312785,7.910854,-10.630256,-10.936713,1.8531121
0.83891875,4.9432936,1.7846196,-0.71312785,7.910854,-10.630256,-10.936713,1.8531121
0.8465613,4.947934,1.7686406,-0.76532584,8.1675825,-10.922348,-11.750742,2.0829554
0.8541914,4.9526606,1.7686406,-0.76532584,8.1675825,-10.922348,-11.750742,2.0829554
0.86204827,4.957649,1.7686406,-0.86013436,8.443486,-11.099519,-12.344504,2.0015526
0.8699063,4.9627466,1.7686406,-0.86013436,8.443486,-11.099519,-12.344504,2.0015526
0.8780056,4.968197,1.7856848,-0.9932924,8.747087,-10.936713,-12.74673,1.7429788
0.88608754,4.9737625,1.7856848,-0.9932924,8.747087,-10.936713,-12.74673,1.7429788
0.89441323,4.979775,1.8197733,-1.1541474,9.08158,-10.381259,-12.909535,1.5849615
0.9027511,4.9859486,1.8197733,-1.1541474,9.08158,-10.381259,-12.909535,1.5849615
0.9113431,4.9926386,1.8634492,-1.3267202,9.437378,-9.605537,-12.794614,1.4221559
0.9199008,4.999483,1.8634492,-1.3267202,9.437378,-9.605537,-12.794614,1.4221559
0.9287518,5.0069118,1.9124514,-1.4929014,9.803829,-8.863335,-12.5982895,1.13964
0.9375539,5.0145173,1.9124514,-1.4929014,9.803829,-8.863335,-12.5982895,1.13964
0.94665414,5.022731,1.9635841,-1.6356469,10.176672,-8.101978,-12.349293,0.7517793
0.9556979,5.0311546,1.9635841,-1.6356469,10.176672,-8.101978,-12.349293,0.7517793
0.9650351,5.040198,2.0072598,-1.7443038,10.547383,-7.3406224,-12.071565,0.60812724
0.9743075,5.049489,2.0072598,-1.7443038,10.547383,-7.3406224,-12.071565,0.60812724
0.98386884,5.059395,2.040283,-1.8135461,10.910639,-6.6893997,-11.741165,0.47884035
0.99787337,5.074456,2.0637188,-1.8486998,11.260046,-6.114791,-11.27669,0.36870706
1.0034539,5.0806956,2.0637188,-1.8486998,11.260046,-6.114791,-11.27669,0.36870706
1.0137429,5.0925727,2.0637188,-1.8486998,11.260046,-6.114791,-11.27669,0.36870706
1.0234029,5.1040583,2.0743716,-1.8593525,11.596669,-5.559336,-10.730812,0.21547815
1.0234029,5.1040583,2.0743716,-1.8593525,11.596669,-5.559336,-10.730812,0.21547815
1.0434455,5.129122,2.0743716,-1.8572218,11.916248,-5.0517654,-10.060435,0.090979666
1.0536928,5.1428285,2.0743716,-1.8572218,11.916248,-5.0517654,-10.060435,0.090979666
1.0638766,5.156919,2.0658493,-1.8497651,12.216653,-4.453215,-9.23683,-0.20590134
1.0738218,5.1713576,2.0658493,-1.8497651,12.216653,-4.453215,-9.23683,-0.20590134
1.085019,5.1882663,2.0488052,-1.8433734,12.497883,-3.7445314,-8.221688,-0.61770403
1.0960392,5.205672,2.023239,-1.8401777,12.755677,-3.169923,-7.144298,-1.0199299
1.1046019,5.219916,2.023239,-1.8401777,12.755677,-3.169923,-7.144298,-1.0199299
1.1145161,5.2372684,2.023239,-1.8401777,12.755677,-3.169923,-7.144298,-1.0199299
1.1245458,5.255662,1.9902157,-1.8380471,12.986839,-2.5474305,-6.090849,-1.3024458
1.1345227,5.2750773,1.9902157,-1.8380471,12.986839,-2.5474305,-6.090849,-1.3024458
1.1345227,5.2750773,1.9902157,-1.8380471,12.986839,-2.5474305,-6.090849,-1.3024458
1.1543866,5.317121,1.9465398,-1.8316555,13.190305,-1.9680338,-4.975151,-1.532289
1.1641902,5.3397865,1.8890156,-1.8178071,13.366074,-1.3551182,-3.892972,-1.5753847
1.1641902,5.3397865,1.8890156,-1.8178071,13.366074,-1.3551182,-3.892972,-1.5753847
1.1831973,5.3884735,1.8197733,-1.7954365,13.512014,-0.8714894,-2.8538885,-1.6041151
1.1962152,5.425512,1.7398785,-1.7656091,13.631324,-0.5410896,-2.0590134,-1.5466543
1.2016383,5.4421897,1.7398785,-1.7656091,13.631324,-0.5410896,-2.0590134,-1.5466543
1.210474,5.4711857,1.7398785,-1.7656091,13.631324,-0.5410896,-2.0590134,-1.5466543
1.2190894,5.501598,1.6503962,-1.7315207,13.726132,0.05267244,-1.4891934,-1.5610195
1.2273426,5.5334015,1.6503962,-1.7315207,13.726132,0.05267244,-1.4891934,-1.5610195
1.2352879,5.566692,1.5491961,-1.6953017,13.795375,0.8475474,-1.043872,-1.4221559
1.2428758,5.6016965,1.5491961,-1.6953017,13.795375,0.8475474,-1.043872,-1.4221559
1.2500911,5.6383915,1.4416045,-1.6558869,13.837985,1.8435353,-0.7038953,-1.3359646
1.2568631,5.676762,1.4416045,-1.6558869,13.837985,1.8435353,-0.7038953,-1.3359646
1.2631793,5.716632,1.3297517,-1.6068847,13.848639,2.9496565,-0.3878607,-1.2066777
1.2689927,5.7581506,1.3297517,-1.6068847,13.848639,2.9496565,-0.3878607,-1.2066777
1.2743099,5.8009887,1.2200295,-1.5397731,13.8230715,4.0318356,-0.1340753,-1.1587936
1.2790637,5.845312,1.2200295,-1.5397731,13.8230715,4.0318356,-0.1340753,-1.1587936
1.283282,5.8906183,1.1103072,-1.4492257,13.7602215,4.927267,0.11492168,-1.0869676
1.2868912,5.937182,1.1103072,-1.4492257,13.7602215,4.927267,0.11492168,-1.0869676
1.2899454,5.98431,1.0059112,-1.3352423,13.660087,5.645528,0.37349546,-0.9864111
1.292358,6.032323,1.0059112,-1.3352423,13.660087,5.645528,0.37349546,-0.9864111
1.2942274,6.080453,0.9025806,-1.1935622,13.521602,6.081272,0.7422025,-0.9576807
1.2954435,6.129129,0.9025806,-1.1935622,13.521602,6.081272,0.7422025,-0.9576807
1.2961417,6.177387,0.80244577,-1.031642,13.352225,6.3350577,1.1875241,-0.94810385
1.296192,6.2258306,0.80244577,-1.031642,13.352225,6.3350577,1.1875241,-0.94810385
1.295771,6.273367,0.70976776,-0.85054696,13.158347,6.4547677,1.6232687,-0.7565677
1.2947354,0.037090868,0.70976776,-0.85054696,13.158347,6.4547677,1.6232687,-0.7565677
1.2932906,0.08320498,0.6224161,-0.64814675,12.944228,6.4643445,1.9919758,-0.49799395
1.291239,0.12906057,0.6224161,-0.64814675,12.944228,6.4643445,1.9919758,-0.49799395
1.2888877,0.17307357,0.54252124,-0.41698435,12.712001,6.2823853,2.2122424,-0.10055647
1.2860086,0.21605931,0.54252124,-0.41698435,12.712001,6.2823853,2.2122424,-0.10055647
1.2829006,0.25769374,0.46688747,-0.15279876,12.459534,5.707777,2.4277205,0.24899697
1.2792845,0.29848367,0.46688747,-0.15279876,12.459534,5.707777,2.4277205,0.24899697
1.2755733,0.33748078,0.39018843,0.14654055,12.1900215,4.6495395,2.5139117,0.39743748
1.2714211,0.37540793,0.39018843,0.14654055,12.1900215,4.6495395,2.5139117,0.39743748
1.2672417,0.41179264,0.31135887,0.46825042,11.904531,3.3327289,2.3080103,0.4357447
1.2626632,0.44713306,0.31135887,0.46825042,11.904531,3.3327289,2.3080103,0.4357447
1.2581095,0.4809078,0.22720297,0.78782976,11.617974,2.0685902,1.2018893,1.0247183
1.2532005,0.51366365,0.22720297,0.78782976,11.617974,2.0685902,1.2018893,1.0247183
1.2483613,0.5448421,0.14411235,1.0839733,11.335679,0.94331545,-0.62249243,2.3558946
1.2432086,0.575054,0.14411235,1.0839733,11.335679,0.94331545,-0.62249243,2.3558946
1.2381344,0.60401547,0.08019647,1.3502893,11.068298,0.23942018,-2.1643584,3.4859576
1.2328024,0.631957,0.08019647,1.3502893,11.068298,0.23942018,-2.1643584,3.4859576
1.2275519,0.65885174,0.049303804,1.5953002,10.814765,-0.33518824,-3.169923,4.0414124
1.222052,0.684901,0.049303804,1.5953002,10.814765,-0.33518824,-3.169923,4.0414124
1.2166601,0.71000886,0.05356486,1.8317889,10.566559,-0.8379706,-3.6248214,4.223372
1.2110425,0.7343317,0.05356486,1.8317889,10.566559,-0.8379706,-3.6248214,4.223372
1.2055539,0.75784194,0.091914386,2.0629513,10.30983,-0.8714894,-3.2848446,3.9121256
1.1998612,0.78062797,0.091914386,2.0629513,10.30983,-0.8714894,-3.2848446,3.9121256
1.1943319,0.80269396,0.16115656,2.2962441,10.023273,-0.6847417,-2.0925324,3.2130187
1.1886172,0.8240964,0.16115656,2.2962441,10.023273,-0.6847417,-2.0925324,3.2130187
1.1831049,0.84483933,0.25063878,2.532733,9.687716,-0.8379706,-0.38307226,2.4708161
1.1774241,0.8649787,0.25063878,2.532733,9.687716,-0.8379706,-0.38307226,2.4708161
1.1719835,0.8845868,0.35077363,2.7724175,9.287176,-1.1252748,1.5275006,2.0015526
1.1663889,0.90364707,0.35077363,2.7724175,9.287176,-1.1252748,1.5275006,2.0015526
1.1611388,0.92219806,0.4509085,3.0057104,8.811003,-1.9249382,3.3758245,1.6472107
1.1557467,0.940263,0.4509085,3.0057104,8.811003,-1.9249382,3.3758245,1.6472107
1.1507891,0.95771885,0.54039073,3.2262201,8.265587,-3.4620156,4.8841715,1.5705963
1.1457028,0.9747542,0.54039073,3.2262201,8.265587,-3.4620156,4.8841715,1.5705963
1.1411082,0.99111503,0.61069816,3.4200983,7.6669087,-5.497087,6.0525417,1.6041151
1.1363931,1.007135,0.61069816,3.4200983,7.6669087,-5.497087,6.0525417,1.6041151
1.1321839,1.0224521,0.6586351,3.5639088,7.040533,-7.9248075,6.871359,1.7286136
1.1278713,1.0374696,0.6586351,3.5639088,7.040533,-7.9248075,6.871359,1.7286136
1.1240351,1.0517354,0.6852667,3.633151,6.413092,-10.524911,7.3549876,2.1978772
1.120123,1.0656952,0.6852667,3.633151,6.413092,-10.524911,7.3549876,2.1978772
1.1166332,1.0788238,0.7023109,3.6065195,5.811218,-12.689269,7.4603324,2.753332
1.1131362,1.0914882,0.7023109,3.6065195,5.811218,-12.689269,7.4603324,2.753332
1.1099122,1.1034758,0.71935517,3.4776225,5.260476,-14.231135,7.465121,3.265691
1.1065634,1.11548,0.71935517,3.4776225,5.260476,-14.231135,7.465121,3.265691
1.1035542,1.12618,0.7449215,3.2517865,4.7672586,-15.002068,7.359776,3.5913026
1.1005185,1.1366392,0.7449215,3.2517865,4.7672586,-15.002068,7.359776,3.5913026
1.0977179,1.1460831,0.7875321,2.9481862,4.334761,-15.002068,7.302315,3.8067808
1.0948702,1.1554523,0.7875321,2.9481862,4.334761,-15.002068,7.302315,3.8067808
1.0921974,1.1637996,0.84292585,2.593453,3.9661798,-14.84405,7.345411,3.8259344
1.0895045,1.1720351,0.84292585,2.593453,3.9661798,-14.84405,7.345411,3.8259344
1.0869128,1.1793488,0.90577644,2.2046316,3.6476657,-14.45619,7.369353,3.7684734
1.0843034,1.1865764,0.90577644,2.2046316,3.6476657,-14.45619,7.369353,3.7684734
1.0818352,1.1928265,0.9696923,1.7891784,3.3696318,-14.326903,6.622362,4.0701427
1.0793525,1.1990151,0.9696923,1.7891784,3.3696318,-14.326903,6.622362,4.0701427
1.076864,1.2047284,1.0314777,1.360942,3.1267514,-15.643714,9.275137,2.0398598
1.0743629,1.2103887,1.0314777,1.360942,3.1267514,-15.643714,9.275137,2.0398598
1.0718505,1.2148403,1.0826104,0.897552,2.8977196,-7.2304893,8.394072,4.0653543
1.0693281,1.2192545,1.0826104,0.897552,2.8977196,-7.2304893,8.394072,4.0653543
1.0668468,1.2228967,1.1145682,0.5161873,2.714494,-3.6296098,8.24563,4.405331
1.0643584,1.226511,1.1145682,0.5161873,2.714494,-3.6296098,8.24563,4.405331
1.0621619,1.2297289,1.1209599,0.34681025,2.6005108,-14.791378,7.0341644,2.6623523
1.0599612,1.2329159,1.1209599,0.34681025,2.6005108,-14.791378,7.0341644,2.6623523
1.0578092,1.2356359,1.1486567,0.06344992,2.4439168,-17.381905,6.6367273,2.0350714
1.0556535,1.2383369,1.1486567,0.06344992,2.4439168,-17.381905,6.6367273,2.0350714
1.053469,1.2402046,1.2104421,-0.4691823,2.223407,-16.812084,7.704541,0.58897364
1.0512891,1.2420559,1.2104421,-0.4691823,2.223407,-16.812084,7.704541,0.58897364
1.0490911,1.2428502,1.2732927,-1.0849051,1.9943753,-15.136143,7.843405,0.35434186
1.0468943,1.2436424,1.2732927,-1.0849051,1.9943753,-15.136143,7.843405,0.35434186
1.0445068,1.2434087,1.3190991,-1.660148,1.7802571,-10.601525,8.690952,0.90979666
1.0422237,1.2431943,1.3190991,-1.660148,1.7802571,-10.601525,8.690952,0.90979666
1.0399438,1.2421839,1.335078,-2.07134,1.6076843,-8.00621,9.030929,1.5179238
1.0376273,1.2411747,1.335078,-2.07134,1.6076843,-8.00621,9.030929,1.5179238
1.0353447,1.2397416,1.3222948,-2.2737403,1.4798526,-6.3350577,9.385271,1.685518
1.0330712,1.2383358,1.3222948,-2.2737403,1.4798526,-6.3350577,9.385271,1.685518
1.0308712,1.2368646,1.2924675,-2.3014371,1.3999578,-6.4739213,9.662998,1.1731589
1.028665,1.235411,1.2924675,-2.3014371,1.3999578,-6.4739213,9.662998,1.1731589
1.0265281,1.2340697,1.2434653,-2.2172813,1.3616081,-7.07726,10.251971,0.5506664
1.0243874,1.2327449,1.2434653,-2.2172813,1.3616081,-7.07726,10.251971,0.5506664
1.022308,1.2315826,1.1795493,-2.087319,1.3509556,-7.216124,10.812215,0.23942018
1.0202229,1.230433,1.1795493,-2.087319,1.3509556,-7.216124,10.812215,0.23942018
1.0181853,1.2294519,1.1028503,-1.9403125,1.3541514,-7.067683,11.233594,0.062249243
1.0162077,1.2285131,1.1028503,-1.9403125,1.3541514,-7.067683,11.233594,0.062249243
1.0141981,1.2277067,1.0144334,-1.7762618,1.364804,-6.6846113,11.444284,0.35434186
1.0121354,1.2268912,1.0144334,-1.7762618,1.364804,-6.6846113,11.444284,0.35434186
1.010175,1.2262754,0.9185596,-1.5972973,1.3786525,-6.0956373,11.688493,0.6560113
1.0082299,1.2256736,0.9185596,-1.5972973,1.3786525,-6.0956373,11.688493,0.6560113
1.0063217,1.2252487,0.8162942,-1.4076803,1.3914356,-5.683835,11.798626,0.9911995
1.0043904,1.2248263,0.8162942,-1.4076803,1.3914356,-5.683835,11.798626,0.9911995
1.0025373,1.2245827,0.70976776,-1.216998,1.3935661,-5.5401826,11.827356,1.1875241
1.0006878,1.2243445,0.70976776,-1.216998,1.3935661,-5.5401826,11.827356,1.1875241
0.9989148,1.2242573,0.6032413,-1.035903,1.3786525,-5.482722,11.731588,1.2976574
0.99714357,1.2241737,0.6032413,-1.035903,1.3786525,-5.482722,11.731588,1.2976574
0.99544775,1.2241979,0.49991068,-0.87611336,1.344564,-5.3678,11.674128,1.4556746
0.9937468,1.2242241,0.49991068,-0.87611336,1.344564,-5.3678,11.674128,1.4556746
0.99215174,1.2243224,0.40403688,-0.7365637,1.2891703,-5.109226,11.530476,1.5897499
0.9905727,1.2244205,0.40403688,-0.7365637,1.2891703,-5.109226,11.530476,1.5897499
0.989097,1.224562,0.31135887,-0.612993,1.2146018,-4.817134,11.291056,1.6232687
0.9876126,1.2247047,0.31135887,-0.612993,1.2146018,-4.817134,11.291056,1.6232687
0.98625225,1.2248685,0.2229419,-0.500075,1.1251194,-4.5537715,11.137826,1.7381904
0.98489606,1.2250316,0.2229419,-0.500075,1.1251194,-4.5537715,11.137826,1.7381904
0.983674,1.2252067,0.13772075,-0.391418,1.0239193,-4.3382936,10.955867,1.8148049
0.98244584,1.2253826,0.13772075,-0.391418,1.0239193,-4.3382936,10.955867,1.8148049
0.98135865,1.225569,0.055695392,-0.2838263,0.91419715,-4.189853,10.7116585,1.8483237
0.9802738,1.2257546,0.055695392,-0.2838263,0.91419715,-4.189853,10.7116585,1.8483237
0.9793329,1.2259567,-0.024199443,-0.1730388,0.8012791,-4.1371803,10.448297,1.8435353
0.9783895,1.2261589,-0.024199443,-0.1730388,0.8012791,-4.1371803,10.448297,1.8435353
0.97759724,1.2263796,-0.10196375,-0.057990227,0.6809042,-4.122815,10.108319,1.8914193
0.9768074,1.2265995,-0.10196375,-0.057990227,0.6809042,-4.122815,10.108319,1.8914193
0.9761754,1.2268558,-0.17333646,0.06344992,0.5562683,-4.1659107,9.749189,1.8148049
0.97552913,1.2271163,-0.17333646,0.06344992,0.5562683,-4.1659107,9.749189,1.8148049
0.9750582,1.2274153,-0.24044813,0.19128166,0.43163234,-4.2760444,9.351752,1.8579005
0.9745748,1.2277217,-0.24044813,0.19128166,0.43163234,-4.2760444,9.351752,1.8579005
0.9742698,1.2280656,-0.30542925,0.32337445,0.30593112,-4.6112323,8.839393,1.9201498
0.9742698,1.2280656,-0.30542925,0.32337445,0.30593112,-4.6112323,8.839393,1.9201498
0.9735189,1.2289109,-0.30542925,0.32337445,0.30593112,-4.6112323,8.839393,1.9201498
0.9735189,1.2289109,-0.3640188,0.4597283,0.18449098,-4.984728,8.293514,1.9009962
0.9735189,1.2289109,-0.41621676,0.6003432,0.06944242,-5.5162406,7.6231384,1.9297266
0.9735239,1.2302933,-0.41621676,0.6003432,0.06944242,-5.5162406,7.6231384,1.9297266
0.97365785,1.230856,-0.46202314,0.7409581,-0.031757705,-6.167464,7.0102224,1.9393034
0.9737853,1.2313919,-0.46202314,0.7409581,-0.031757705,-6.167464,7.0102224,1.9393034
0.97405446,1.2321284,-0.4961116,0.8794425,-0.120174654,-6.397307,6.9240313,1.5849615
0.9743279,1.2328787,-0.4961116,0.8794425,-0.120174654,-6.397307,6.9240313,1.5849615
0.97479415,1.2335072,-0.521678,1.0083395,-0.19474317,-7.771579,5.094861,2.1691468
0.9752619,1.2341411,-0.521678,1.0083395,-0.19474317,-7.771579,5.094861,2.1691468
0.9757553,1.2350254,-0.53872216,1.1276491,-0.26078957,-5.0038815,5.81791,2.2840683
0.97624755,1.2359113,-0.53872216,1.1276491,-0.26078957,-5.0038815,5.81791,2.2840683
0.9770746,1.2369213,-0.55683166,1.3108746,-0.29700854,-8.968679,4.390966,2.1691468
0.97790223,1.237937,-0.55683166,1.3108746,-0.29700854,-8.968679,4.390966,2.1691468
0.9788336,1.2392274,-0.56322324,1.4727948,-0.33642334,-12.832921,3.3375173,1.9393034
0.9797657,1.2405266,-0.56322324,1.4727948,-0.33642334,-12.832921,3.3375173,1.9393034
0.9807721,1.2418588,-0.5397874,1.4919696,-0.4067308,-13.996503,2.7006595,1.7621324
0.9817753,1.2431949,-0.5397874,1.4919696,-0.4067308,-13.996503,2.7006595,1.7621324
0.9828273,1.2444278,-0.49504632,1.4046179,-0.4876909,-14.33648,2.2936451,1.532289
0.9838778,1.2456658,-0.49504632,1.4046179,-0.4876909,-14.33648,2.2936451,1.532289
0.98496336,1.2467142,-0.44071785,1.2693293,-0.5707815,-13.034034,2.087744,1.8195933
0.98604107,1.2477609,-0.44071785,1.2693293,-0.5707815,-13.034034,2.087744,1.8195933
0.987151,1.248644,-0.38425884,1.139367,-0.6442848,-12.923901,1.8531121,1.9728222
0.98825616,1.2495282,-0.38425884,1.139367,-0.6442848,-12.923901,1.8531121,1.9728222
0.9893917,1.250277,-0.3256693,1.0296447,-0.7124617,-12.909535,1.6663644,2.1691468
0.9905218,1.2510266,-0.3256693,1.0296447,-0.7124617,-12.909535,1.6663644,2.1691468
0.99167675,1.2516574,-0.26388395,0.92311835,-0.7774428,-13.043611,1.5658079,2.1068976
0.99284244,1.2522973,-0.26388395,0.92311835,-0.7774428,-13.043611,1.5658079,2.1068976
0.9940289,1.2528156,-0.20103334,0.8112656,-0.8381629,-13.421895,1.541866,1.9967642
0.9952098,1.253334,-0.20103334,0.8112656,-0.8381629,-13.421895,1.541866,1.9967642
0.9964077,1.2537162,-0.13392168,0.6844991,-0.8946219,-13.685257,1.70946,1.9009962
0.99760646,1.2541008,-0.13392168,0.6844991,-0.8946219,-13.685257,1.70946,1.9009962
0.998809,1.254317,-0.06787529,0.53962314,-0.9457546,-13.757083,1.7908629,1.8531121
1.0000114,1.2545347,-0.06787529,0.53962314,-0.9457546,-13.757083,1.7908629,1.8531121
1.0012105,1.254556,-0.0018288894,0.37770292,-0.99475676,-13.464991,2.0638018,1.8387469
1.0024093,1.2545772,-0.0018288894,0.37770292,-0.99475676,-13.464991,2.0638018,1.8387469
1.0036011,1.2543942,0.06315224,0.2083259,-1.0426936,-13.13459,2.2697031,1.6998832
1.0047952,1.2542095,0.06315224,0.2083259,-1.0426936,-13.13459,2.2697031,1.6998832
1.0059766,1.2538145,0.12493758,0.040014103,-1.0853043,-12.555194,2.657564,1.6807296
1.0071577,1.2534169,0.12493758,0.040014103,-1.0853043,-12.555194,2.657564,1.6807296
1.0083259,1.2528185,0.1813966,-0.11657977,-1.1236538,-12.109872,3.0693667,1.7046716
1.0094941,1.252217,0.1813966,-0.11657977,-1.1236538,-12.109872,3.0693667,1.7046716
1.0106511,1.2514279,0.22933349,-0.25825995,-1.1588075,-11.563994,3.3854012,1.7142484
1.0118076,1.2506348,0.22933349,-0.25825995,-1.1588075,-11.563994,3.3854012,1.7142484
1.012954,1.2496679,0.27087882,-0.38183063,-1.1907654,-11.003751,3.7780502,1.7956513
1.0140994,1.2486956,0.27087882,-0.38183063,-1.1907654,-11.003751,3.7780502,1.7956513
1.0156679,1.2471824,0.3070978,-0.48196548,-1.2120707,-10.749966,4.1180267,1.7286136
1.0164164,1.2464576,0.3070978,-0.48196548,-1.2120707,-10.749966,4.1180267,1.7286136
1.0175347,1.2452676,0.33585995,-0.5661214,-1.2344413,-10.366894,4.5441947,1.6903064
1.0186518,1.244073,0.33585995,-0.5661214,-1.2344413,-10.366894,4.5441947,1.6903064
1.019766,1.2428167,0.3614263,-0.63642883,-1.2546813,-9.868899,4.9559975,1.6376339
1.0210105,1.2413778,0.38060105,-0.69608366,-1.2717255,-9.461885,5.257667,1.532289
1.0218602,1.2403905,0.38060105,-0.69608366,-1.2717255,-9.461885,5.257667,1.532289
1.0231243,1.2389128,0.38060105,-0.69608366,-1.2717255,-9.461885,5.257667,1.532289
1.0241501,1.2373822,0.3944495,-0.7450858,-1.2887697,-8.719683,5.482722,1.6184803
1.0247439,1.2364914,0.3944495,-0.7450858,-1.2887697,-8.719683,5.482722,1.6184803
1.025847,1.2346604,0.4008411,-0.778109,-1.3047488,-8.336611,5.755661,1.6376339
1.0265713,1.2334516,0.4008411,-0.778109,-1.3047488,-8.336611,5.755661,1.6376339
1.0272591,1.2322838,0.4008411,-0.79408795,-1.3239235,-8.0684595,6.009446,1.5897499
1.0281016,1.2308463,0.4008411,-0.79408795,-1.3239235,-8.0684595,6.009446,1.5897499
1.028969,1.2293417,0.39658,-0.8047406,-1.346294,-7.896077,6.220136,1.6136919
1.0298371,1.227827,0.39658,-0.8047406,-1.346294,-7.896077,6.220136,1.6136919
1.0307193,1.2262352,0.3880579,-0.81219745,-1.3707951,-7.651869,6.2823853,1.8148049
1.0315976,1.2246412,0.3880579,-0.81219745,-1.3707951,-7.651869,6.2823853,1.8148049
1.0325029,1.2229779,0.3784705,-0.8196543,-1.4016877,-7.469909,6.421249,1.9536686
1.0334063,1.2213088,0.3784705,-0.8196543,-1.4016877,-7.469909,6.421249,1.9536686
1.0343437,1.2195642,0.36888313,-0.8271112,-1.4411026,-7.302315,6.5840545,2.1643584
1.0352769,1.2178191,0.36888313,-0.8271112,-1.4411026,-7.302315,6.5840545,2.1643584
1.0362468,1.2160244,0.3582305,-0.83350277,-1.4847784,-7.1251445,6.7468605,2.1452048
1.0372144,1.2142228,0.3582305,-0.83350277,-1.4847784,-7.1251445,6.7468605,2.1452048
1.0382267,1.2123625,0.3465126,-0.8356333,-1.5295196,-7.043741,6.9000893,2.1883004
1.0392301,1.2105055,0.3465126,-0.8356333,-1.5295196,-7.043741,6.9000893,2.1883004
1.0403143,1.2085395,0.33053362,-0.8313722,-1.5806522,-6.919243,7.067683,2.2218192
1.0413316,1.2066815,0.33053362,-0.8313722,-1.5806522,-6.919243,7.067683,2.2218192
1.0424243,1.2047429,0.31029359,-0.8228501,-1.6339154,-6.9958572,7.249643,2.135628
1.0435208,1.2027837,0.31029359,-0.8228501,-1.6339154,-6.9958572,7.249643,2.135628
1.044666,1.200806,0.28792304,-0.81006694,-1.6871786,-7.144298,7.398083,1.958457
1.0458119,1.1988127,0.28792304,-0.81006694,-1.6871786,-7.144298,7.398083,1.958457
1.0470095,1.1967797,0.26342195,-0.7930227,-1.7361808,-7.369353,7.3645644,1.9680338
1.0482141,1.1947207,0.26342195,-0.7930227,-1.7361808,-7.369353,7.3645644,1.9680338
1.0494388,1.1926681,0.23359455,-0.77384794,-1.7766609,-7.5561004,7.3549876,1.9393034
1.0506672,1.1905951,0.23359455,-0.77384794,-1.7766609,-7.5561004,7.3549876,1.9393034
1.0519366,1.1884856,0.20163663,-0.7536079,-1.809684,-7.8386164,7.297527,1.9488802
1.0532002,1.1863693,0.20163663,-0.7536079,-1.809684,-7.8386164,7.297527,1.9488802
1.0544956,1.184217,0.16435237,-0.7333679,-1.8341851,-7.991845,7.2065473,1.9488802
1.0557802,1.182066,0.16435237,-0.7333679,-1.8341851,-7.991845,7.2065473,1.9488802
1.0570922,1.1798872,0.1270681,-0.7099321,-1.8480335,-8.1881695,7.0245876,1.9249382
1.0583991,1.1777016,0.1270681,-0.7099321,-1.8480335,-8.1881695,7.0245876,1.9249382
1.0597148,1.1755099,0.08871859,-0.685431,-1.8480335,-8.231265,6.8522053,1.8674773
1.0610228,1.1733159,0.08871859,-0.685431,-1.8480335,-8.231265,6.8522053,1.8674773
1.062336,1.1711111,0.049303804,-0.6577341,-1.8384463,-8.293514,6.612785,1.8770541
1.0636494,1.1688902,0.049303804,-0.6577341,-1.8384463,-8.293514,6.612785,1.8770541
1.0649511,1.1667035,0.00988902,-0.62790674,-1.8203367,-8.437167,6.411672,1.8100165
1.0662515,1.1645031,0.00988902,-0.62790674,-1.8203367,-8.437167,6.411672,1.8100165
1.067539,1.162326,-0.029525764,-0.5948835,-1.7958356,-8.341399,6.1770406,1.8004397
1.068825,1.1601351,-0.029525764,-0.5948835,-1.7958356,-8.341399,6.1770406,1.8004397
1.070096,1.1579828,-0.06681002,-0.55546874,-1.7638777,-8.37013,5.9424086,1.8100165
1.0713632,1.1558216,-0.06681002,-0.55546874,-1.7638777,-8.37013,5.9424086,1.8100165
1.0726144,1.1536978,-0.10089848,-0.51285815,-1.732985,-8.317456,5.7748146,1.8722657
1.0738635,1.151564,-0.10089848,-0.51285815,-1.732985,-8.317456,5.7748146,1.8722657
1.0751004,1.1494861,-0.13392168,-0.46598652,-1.7020924,-8.317456,5.5401826,1.8818425
1.0763354,1.1473984,-0.13392168,-0.46598652,-1.7020924,-8.317456,5.5401826,1.8818425
1.0775626,1.1453588,-0.16587962,-0.4148538,-1.6765261,-8.255207,5.315128,1.9297266
1.0787883,1.1433105,-0.16587962,-0.4148538,-1.6765261,-8.255207,5.315128,1.9297266
1.0800073,1.1412845,-0.19570702,-0.36585164,-1.6541555,-8.298303,5.0996494,2.054225
1.0812241,1.1392497,-0.19570702,-0.36585164,-1.6541555,-8.298303,5.0996494,2.054225
1.0824428,1.1372771,-0.2234039,-0.31578422,-1.6349807,-8.312668,4.8698063,2.0207062
1.0836594,1.1352967,-0.2234039,-0.31578422,-1.6349807,-8.312668,4.8698063,2.0207062
1.0848813,1.1332983,-0.24577445,-0.27104312,-1.6190017,-8.269572,4.5872903,2.1212628
1.0861006,1.1312938,-0.24577445,-0.27104312,-1.6190017,-8.269572,4.5872903,2.1212628
1.0873449,1.1292664,-0.26388395,-0.22630201,-1.6072838,-8.178593,4.3382936,2.1978772
1.0885851,1.1272336,-0.26388395,-0.22630201,-1.6072838,-8.178593,4.3382936,2.1978772
1.0898714,1.1251779,-0.27879766,-0.18262617,-1.6019576,-8.058883,4.0174704,2.1883004
1.091153,1.1231172,-0.27879766,-0.18262617,-1.6019576,-8.058883,4.0174704,2.1883004
1.0924898,1.1210593,-0.2894503,-0.13895033,-1.6062186,-7.8769236,3.7828386,2.432509
1.093823,1.1189929,-0.2894503,-0.13895033,-1.6062186,-7.8769236,3.7828386,2.432509
1.0952094,1.1169567,-0.29477662,-0.093143955,-1.6190017,-7.795521,3.5434184,2.4181437
1.0965878,1.1149168,-0.29477662,-0.093143955,-1.6190017,-7.795521,3.5434184,2.4181437
1.0980384,1.1129056,-0.29584187,-0.043076526,-1.6435028,-7.6949644,3.2944214,2.3989902
1.0994835,1.1108851,-0.29584187,-0.043076526,-1.6435028,-7.6949644,3.2944214,2.3989902
1.1010067,1.1089075,-0.29371136,0.009121433,-1.6818523,-7.608773,2.9783869,2.456451
1.1025264,1.1069175,-0.29371136,0.009121433,-1.6818523,-7.608773,2.9783869,2.456451
1.1041318,1.1049734,-0.28838503,0.06558045,-1.7340503,-7.575254,2.5905263,2.6431987
1.1057341,1.1030165,-0.28838503,0.06558045,-1.7340503,-7.575254,2.5905263,2.6431987
1.1074424,1.1010919,-0.27773237,0.1209742,-1.801162,-7.5704656,2.135628,2.7341783
1.1091394,1.0991628,-0.27773237,0.1209742,-1.801162,-7.5704656,2.135628,2.7341783
1.1109473,1.0972514,-0.2596229,0.17210689,-1.8863832,-7.589619,1.7525556,2.8107927
1.1127555,1.0953243,-0.2596229,0.17210689,-1.8863832,-7.589619,1.7525556,2.8107927
1.1146808,1.0933877,-0.2351218,0.21365221,-1.986518,-7.536947,1.4317327,2.815581
1.1166009,1.0914397,-0.2351218,0.21365221,-1.986518,-7.536947,1.4317327,2.815581
1.1186393,1.0894672,-0.20209861,0.2498712,-2.099436,-7.489063,1.1109096,2.9161377
1.1206619,1.0874912,-0.20209861,0.2498712,-2.099436,-7.489063,1.1109096,2.9161377
1.1228133,1.0854533,-0.16055329,0.27224174,-2.2251372,-7.350199,0.7613561,3.0119057
1.1249727,1.0833851,-0.16055329,0.27224174,-2.2251372,-7.350199,0.7613561,3.0119057
1.1272428,1.0812377,-0.11048587,0.28076386,-2.3636217,-7.129933,0.51235914,3.1172507
1.1295084,1.07907,-0.11048587,0.28076386,-2.3636217,-7.129933,0.51235914,3.1172507
1.1319082,1.0767703,-0.052961584,0.27756807,-2.5170197,-6.742072,0.36391866,3.1316159
1.1342996,1.0744486,-0.052961584,0.27756807,-2.5170197,-6.742072,0.36391866,3.1316159
1.1368258,1.0719665,0.015215342,0.2647849,-2.6906579,-6.26802,0.320823,3.2082303
1.1393536,1.0694491,0.015215342,0.2647849,-2.6906579,-6.26802,0.320823,3.2082303
1.1420193,1.066747,0.087653324,0.2466754,-2.8834705,-5.779603,0.34955344,3.193865
1.1446924,1.0639992,0.087653324,0.2466754,-2.8834705,-5.779603,0.34955344,3.193865
1.14753,1.0610181,0.16541763,0.22537012,-3.0975888,-5.305551,0.48362875,3.145981
1.1503577,1.0580013,0.16541763,0.22537012,-3.0975888,-5.305551,0.48362875,3.145981
1.153367,1.0547161,0.24318193,0.20406483,-3.3372734,-4.9081135,0.58897364,3.2082303
1.1563914,1.0513564,0.24318193,0.20406483,-3.3372734,-4.9081135,0.58897364,3.2082303
1.1563914,1.0513564,0.24318193,0.20406483,-3.3372734,-4.9081135,0.58897364,3.2082303
1.1563914,1.0513564,0.24318193,0.20406483,-3.3372734,-4.9081135,0.58897364,3.2082303
1.1563914,1.0513564,0.24318193,0.20406483,-3.3372734,-4.9081135,0.58897364,3.2082303
1.1563914,1.0513564,0.46582222,0.16038899,-4.185224,-4.309563,0.63206923,3.4045548
1.1756043,1.0284181,0.46582222,0.16038899,-4.185224,-4.309563,0.63206923,3.4045548
1.1756043,1.0284181,0.46582222,0.16038899,-4.185224,-4.309563,0.63206923,3.4045548
1.1756043,1.0284181,0.46582222,0.16038899,-4.185224,-4.309563,0.63206923,3.4045548
1.1756043,1.0284181,0.46582222,0.16038899,-4.185224,-4.309563,0.63206923,3.4045548
1.1756043,1.0284181,0.46582222,0.16038899,-4.185224,-4.309563,0.63206923,3.4045548
1.1937712,1.004051,0.6852667,0.1476058,-5.127983,-3.6870706,0.8571242,3.2130187
1.1984739,0.9972976,0.6852667,0.1476058,-5.127983,-3.6870706,0.8571242,3.2130187
1.2014943,0.9928449,0.6852667,0.1476058,-5.127983,-3.6870706,0.8571242,3.2130187
1.2014943,0.9928449,0.6852667,0.1476058,-5.127983,-3.6870706,0.8571242,3.2130187
1.2014943,0.9928449,0.6852667,0.1476058,-5.127983,-3.6870706,0.8571242,3.2130187
1.2014943,0.9928449,0.6852667,0.1476058,-5.127983,-3.6870706,0.8571242,3.2130187
1.2014943,0.9928449,0.6852667,0.1476058,-5.127983,-3.6870706,0.8571242,3.2130187
1.2289677,0.9484075,0.8866017,0.16145425,-6.1293316,-2.705448,2.1212628,2.3511062
1.2306042,0.94546974,0.8866017,0.16145425,-6.1293316,-2.705448,2.1212628,2.3511062
1.2306042,0.94546974,0.8866017,0.16145425,-6.1293316,-2.705448,2.1212628,2.3511062
1.2438197,0.9203752,0.9750186,0.1838248,-6.8345366,-2.4420857,2.920926,2.1452048
1.2478626,0.912231,0.9750186,0.1838248,-6.8345366,-2.4420857,2.920926,2.1452048
1.2523531,0.90286386,0.9750186,0.1838248,-6.8345366,-2.4420857,2.920926,2.1452048
1.2579935,0.89060694,1.004846,0.19554271,-7.195661,-2.6288335,3.2609026,2.2026656
1.2635573,0.8779275,1.004846,0.19554271,-7.195661,-2.6288335,3.2609026,2.2026656
1.2693572,0.86405486,1.0261513,0.20726062,-7.5525246,-2.9352913,3.572149,2.111686
1.2778876,0.8422838,1.0357387,0.21791327,-7.8934093,-3.4237084,3.763685,2.0254946
1.2812785,0.833132,1.0357387,0.21791327,-7.8934093,-3.4237084,3.763685,2.0254946
1.2871184,0.8166572,1.0357387,0.21791327,-7.8934093,-3.4237084,3.763685,2.0254946
1.2930915,0.7988032,1.032543,0.23069644,-8.206597,-4.0940847,4.027047,1.9201498
1.2989761,0.7800989,1.032543,0.23069644,-8.206597,-4.0940847,4.027047,1.9201498
1.3049438,0.75992054,1.0176291,0.24241436,-8.484632,-4.783615,4.1706996,1.6376339
1.3107955,0.73876727,1.0176291,0.24241436,-8.484632,-4.783615,4.1706996,1.6376339
1.3166839,0.71597356,0.98673654,0.25519753,-8.720055,-5.4539914,4.3287168,1.508347
1.3224205,0.6921005,0.98673654,0.25519753,-8.720055,-5.4539914,4.3287168,1.508347
1.328166,0.6663537,0.94412595,0.27011123,-8.908607,-6.105214,4.2521024,1.3694834
1.333689,0.6395596,0.94412595,0.27011123,-8.908607,-6.105214,4.2521024,1.3694834
1.3391397,0.610908,0.88553643,0.28715545,-9.049221,-6.612785,3.9839516,1.2785037
1.3443693,0.5809269,0.88553643,0.28715545,-9.049221,-6.612785,3.9839516,1.2785037
1.3494635,0.5490672,0.81735945,0.30846074,-9.14403,-6.967127,3.6104562,1.2210429
1.3543125,0.51571,0.81735945,0.30846074,-9.14403,-6.967127,3.6104562,1.2210429
1.3589387,0.4806912,0.74279094,0.33828816,-9.1940975,-7.0341644,3.0550013,1.2306197
1.3632888,0.44409102,0.74279094,0.33828816,-9.1940975,-7.0341644,3.0550013,1.2306197
1.367399,0.40591365,0.66502666,0.38302925,-9.209011,-6.9048777,2.6384103,1.0007763
1.3711886,0.36619776,0.66502666,0.38302925,-9.209011,-6.9048777,2.6384103,1.0007763
1.3747132,0.32505813,0.58832765,0.44907564,-9.201554,-6.8809357,2.2601264,0.90500826
1.3778938,0.28229728,0.58832765,0.44907564,-9.201554,-6.8809357,2.2601264,0.90500826
1.3808275,0.23795044,0.50949806,0.54175365,-9.175988,-7.091625,2.0207062,0.6847417
1.3833325,0.19298251,0.50949806,0.54175365,-9.175988,-7.091625,2.0207062,0.6847417
1.3855597,0.14719574,0.42747268,0.65254116,-9.139769,-7.6135616,1.6807296,0.39264908
1.3874242,0.09911411,0.42747268,0.65254116,-9.139769,-7.6135616,1.6807296,0.39264908
1.3889443,0.051733498,0.3465126,0.77611184,-9.090767,-8.101978,1.283292,0.22505496
1.3900437,0.0036304407,0.3465126,0.77611184,-9.090767,-8.101978,1.283292,0.22505496
1.3908526,6.2378807,0.26874828,0.90181303,-9.025785,-8.542512,0.78529817,0.18195933
1.3912202,6.188501,0.26874828,0.90181303,-9.025785,-8.542512,0.78529817,0.18195933
1.3912733,6.1392007,0.1963103,1.022188,-8.94589,-8.839393,0.29688102,0.19153613
1.3908845,6.090024,0.1963103,1.022188,-8.94589,-8.839393,0.29688102,0.19153613
1.3901731,6.0409503,0.12919864,1.1329755,-8.858539,-8.844181,-0.36870706,0.38307226
1.3890378,5.99285,0.12919864,1.1329755,-8.858539,-8.844181,-0.36870706,0.38307226
1.3875668,5.9451575,0.06954383,1.2384366,-8.770122,-8.566454,-1.0630256,0.78050977
1.3856827,5.8983164,0.06954383,1.2384366,-8.770122,-8.566454,-1.0630256,0.78050977
1.3834429,5.8524637,0.018411135,1.3470936,-8.691293,-8.154651,-2.006341,1.1540052
1.3808101,5.8077054,0.018411135,1.3470936,-8.691293,-8.154651,-2.006341,1.1540052
1.3779075,5.7643275,-0.02313418,1.4664032,-8.629507,-7.762002,-3.0119057,1.5275006
1.374652,5.7223654,-0.02313418,1.4664032,-8.629507,-7.762002,-3.0119057,1.5275006
1.3711718,5.681572,-0.049765788,1.5931697,-8.594354,-7.441179,-3.9504328,1.7381904
1.3673706,5.6422906,-0.049765788,1.5931697,-8.594354,-7.441179,-3.9504328,1.7381904
1.3633678,5.604135,-0.062548965,1.7220666,-8.591158,-7.2927384,-4.8985367,1.8483237
1.3590779,5.5675616,-0.062548965,1.7220666,-8.591158,-7.2927384,-4.8985367,1.8483237
1.354563,5.5318656,-0.060418434,1.8413763,-8.623116,-7.1155677,-5.5497594,1.7669208
1.3497899,5.497751,-0.060418434,1.8413763,-8.623116,-7.1155677,-5.5497594,1.7669208
1.3447931,5.464614,-0.04763526,1.9383154,-8.683836,-6.981492,-6.1004257,1.4556746
1.3395665,5.4330177,-0.04763526,1.9383154,-8.683836,-6.981492,-6.1004257,1.4556746
1.3340781,5.402285,-0.024199443,2.0096881,-8.767991,-6.7564373,-6.7085533,1.1492168
1.328383,5.3730435,-0.024199443,2.0096881,-8.767991,-6.7564373,-6.7085533,1.1492168
1.322438,5.3448567,0.0066932263,2.0522985,-8.870256,-6.5457473,-7.479486,1.0151415
1.3162627,5.3178663,0.0066932263,2.0522985,-8.870256,-6.5457473,-7.479486,1.0151415
1.3098748,5.292144,0.04610801,2.0714734,-8.984241,-6.2345014,-8.48984,1.091756
1.303318,5.2676826,0.04610801,2.0714734,-8.984241,-6.2345014,-8.48984,1.091756
1.2964414,5.2440424,0.09297965,2.0757344,-9.106746,-5.7508726,-9.629479,1.2354081
1.2894777,5.2217846,0.09297965,2.0757344,-9.106746,-5.7508726,-9.629479,1.2354081
1.2822466,5.2004404,0.14624287,2.0778651,-9.240969,-5.056554,-10.702082,1.4748282
1.2748941,5.180187,0.14624287,2.0778651,-9.240969,-5.056554,-10.702082,1.4748282
1.2673148,5.160838,0.20483242,2.0885177,-9.393302,-4.3143516,-11.980585,1.9057846
1.2595754,5.1423516,0.20483242,2.0885177,-9.393302,-4.3143516,-11.980585,1.9057846
1.2516026,5.124614,0.27620512,2.118345,-9.56694,-3.6391866,-13.220781,2.336741
1.2435205,5.1077533,0.27620512,2.118345,-9.56694,-3.6391866,-13.220781,2.336741
1.2351815,5.0915055,0.36888313,2.1630862,-9.762948,-3.169923,-14.317327,2.6767175
1.2267534,5.0760746,0.36888313,2.1630862,-9.762948,-3.169923,-14.317327,2.6767175
1.2181036,5.061249,0.4839317,2.2195451,-9.978132,-2.815581,-15.519216,2.6671407
1.20933,5.0470967,0.4839317,2.2195451,-9.978132,-2.815581,-15.519216,2.6671407
1.2002624,5.033375,0.62348133,2.2898526,-10.203968,-2.7006595,-16.692375,2.2361844
1.1911395,5.0203705,0.62348133,2.2898526,-10.203968,-2.7006595,-16.692375,2.2361844
1.1817455,5.0077734,0.7896626,2.3782697,-10.434065,-2.7964275,-17.918205,1.4987702
1.1723131,4.995845,0.7896626,2.3782697,-10.434065,-2.7964275,-17.918205,1.4987702
1.1626397,4.9843087,0.9760839,2.4826655,-10.659902,-2.9735985,-18.83758,0.5506664
1.152868,4.9733067,0.9760839,2.4826655,-10.659902,-2.9735985,-18.83758,0.5506664
1.1428341,4.962651,1.1720926,2.5923877,-10.879346,-3.0358477,-19.421764,-0.50278234
1.1327252,4.952512,1.1720926,2.5923877,-10.879346,-3.0358477,-19.421764,-0.50278234
1.1225256,4.942872,1.3649054,2.6967835,-11.092399,-2.8921957,-19.723434,-1.4413095
1.1122258,4.9336667,1.3649054,2.6967835,-11.092399,-2.8921957,-19.723434,-1.4413095
1.101677,4.9248104,1.5481309,2.7883964,-11.310778,-2.719813,-19.603724,-2.183512
1.0910194,4.9163513,1.5481309,2.7883964,-11.310778,-2.719813,-19.603724,-2.183512
1.0801561,4.908279,1.717508,2.867226,-11.537679,-2.657564,-19.220652,-2.6479871
1.0692636,4.9006243,1.717508,2.867226,-11.537679,-2.657564,-19.220652,-2.6479871
1.058111,4.893304,1.8698407,2.9364681,-11.777364,-2.4660277,-18.646044,-2.834735
1.0468887,4.886339,1.8698407,2.9364681,-11.777364,-2.4660277,-18.646044,-2.834735
1.0354365,4.8797174,2.008325,2.996123,-12.033027,-2.480393,-17.741035,-2.9161377
1.023906,4.873416,2.008325,2.996123,-12.033027,-2.480393,-17.741035,-2.9161377
1.0121428,4.86743,2.1361568,3.0547125,-12.3068,-3.107674,-16.73547,-2.9640217
1.0003151,4.861745,2.1361568,3.0547125,-12.3068,-3.107674,-16.73547,-2.9640217
0.9881654,4.8562984,2.2469444,3.1122367,-12.591226,-4.280833,-15.543158,-3.0693667
0.97602606,4.8511634,2.2469444,3.1122367,-12.591226,-4.280833,-15.543158,-3.0693667
0.9636283,4.8462644,2.3364265,3.1580431,-12.868195,-5.9280434,-14.293385,-3.4045548
0.9511333,4.841609,2.3364265,3.1580431,-12.868195,-5.9280434,-14.293385,-3.4045548
0.9384037,4.8371696,2.3950162,3.1878705,-13.118531,-7.881712,-13.019669,-3.643975
0.9256804,4.8329897,2.3950162,3.1878705,-13.118531,-7.881712,-13.019669,-3.643975
0.91280085,4.8290167,2.4216478,3.1985233,-13.323062,-10.117896,-11.702858,-3.9312792
0.8998666,4.825262,2.4216478,3.1985233,-13.323062,-10.117896,-11.702858,-3.9312792
0.886841,4.821708,2.4131255,3.190001,-13.462612,-12.368446,-10.357317,-3.9935284
0.87385565,4.818377,2.4131255,3.190001,-13.462612,-12.368446,-10.357317,-3.9935284
0.86076146,4.8152194,2.3683846,3.1623042,-13.527593,-14.767436,-9.11712,-4.0222588
0.8476702,4.8122554,2.3683846,3.1623042,-13.527593,-14.767436,-9.11712,-4.0222588
0.83462846,4.8094783,2.289555,3.113302,-13.512679,-17.142485,-7.967903,-3.667917
0.8215904,4.8068743,2.289555,3.113302,-13.512679,-17.142485,-7.967903,-3.667917
0.8086376,4.804432,2.1819632,3.040864,-13.404022,-19.498379,-6.8522053,-3.3901896
0.79565,4.8021355,2.1819632,3.040864,-13.404022,-19.498379,-6.8522053,-3.3901896
0.78289294,4.7999926,2.0498705,2.9428596,-13.202687,-21.566969,-5.8226986,-3.0310593
0.77014023,4.797985,2.0498705,2.9428596,-13.202687,-21.566969,-5.8226986,-3.0310593
0.7576505,4.796111,1.8996682,2.8139627,-12.910805,-23.357832,-5.0278234,-2.542642
0.7451911,4.7943573,1.8996682,2.8139627,-12.910805,-23.357832,-5.0278234,-2.542642
0.7334187,4.7927732,1.7356174,2.6541731,-12.530505,-24.727316,-4.2521024,-2.1164744
0.7208999,4.7911916,1.7356174,2.6541731,-12.530505,-24.727316,-4.2521024,-2.1164744
0.7092001,4.7897897,1.5641098,2.4592297,-12.076703,-25.646688,-3.6822822,-1.6424223
0.6974722,4.788468,1.5641098,2.4592297,-12.076703,-25.646688,-3.6822822,-1.6424223
0.68624943,4.787282,1.3894064,2.2270021,-11.558985,-26.053703,-3.2944214,-1.1061212
0.67503434,4.7861657,1.3894064,2.2270021,-11.558985,-26.053703,-3.2944214,-1.1061212
0.66433513,4.7851887,1.2157683,1.9574901,-10.99546,-26.05849,-3.074155,-0.7613561
0.6536332,4.7842665,1.2157683,1.9574901,-10.99546,-26.05849,-3.074155,-0.7613561
0.643515,4.7834973,1.0474566,1.6517593,-10.395716,-25.646688,-3.169923,-0.33997664
0.63341504,4.782773,1.0474566,1.6517593,-10.395716,-25.646688,-3.169923,-0.33997664
0.6238835,4.782202,0.8844711,1.3183315,-9.770406,-24.928429,-3.490746,0.07182605
0.61436975,4.7816644,0.8844711,1.3183315,-9.770406,-24.928429,-3.490746,0.07182605
0.6054772,4.7812815,0.7289425,0.9667942,-9.130181,-23.865402,-4.0701427,0.49799395
0.5965394,4.78092,0.7289425,0.9667942,-9.130181,-23.865402,-4.0701427,0.49799395
0.58824134,4.7807155,0.5861971,0.60460424,-8.489958,-22.476765,-4.759673,0.90979666
0.57993466,4.7805257,0.5861971,0.60460424,-8.489958,-22.476765,-4.759673,0.90979666
0.57225466,4.780487,0.4562348,0.24134909,-7.852929,-21.001938,-5.497087,1.1587936
0.5645515,4.780456,0.4562348,0.24134909,-7.852929,-21.001938,-5.497087,1.1587936
0.5574378,4.780565,0.33905575,-0.109122925,-7.2254887,-19.40261,-6.1866174,1.2449849
0.5574378,4.780565,0.23572509,-0.4372244,-6.618288,-17.879898,-6.981492,1.3742718
0.543525,4.7810736,0.23572509,-0.4372244,-6.618288,-17.879898,-6.981492,1.3742718
0.543525,4.7810736,0.23572509,-0.4372244,-6.618288,-17.879898,-6.981492,1.3742718
0.5302857,4.781581,0.14304708,-0.7333679,-6.030262,-16.52478,-7.73806,1.4700398
0.52551395,4.781854,0.14304708,-0.7333679,-6.030262,-16.52478,-7.73806,1.4700398
0.51467067,4.782718,0.062086977,-0.9964882,-5.462476,-15.255854,-8.508993,1.541866
0.51467067,4.782718,0.062086977,-0.9964882,-5.462476,-15.255854,-8.508993,1.541866
0.50967604,4.783244,-0.0028941538,-1.2287159,-4.911734,-13.800179,-9.255983,1.6328455
0.50490886,4.783739,-0.0028941538,-1.2287159,-4.911734,-13.800179,-9.255983,1.6328455
0.50490886,4.783739,-0.0028941538,-1.2287159,-4.911734,-13.800179,-9.255983,1.6328455
0.49657506,4.7848477,-0.052961584,-1.4268551,-4.383363,-12.512098,-9.825804,1.6903064
0.49253583,4.785522,-0.09024584,-1.591971,-3.879493,-11.233594,-10.323798,1.7381904
0.48867685,4.7861576,-0.09024584,-1.591971,-3.879493,-11.233594,-10.323798,1.7381904
0.48528627,4.7868576,-0.11474692,-1.7240639,-3.4033196,-10.0029745,-10.807426,1.7956513
0.4818984,4.787549,-0.11474692,-1.7240639,-3.4033196,-10.0029745,-10.807426,1.7956513
0.47893083,4.788308,-0.124334306,-1.8220682,-2.953778,-8.872911,-11.171345,1.8291701
0.47595698,4.7890606,-0.124334306,-1.8220682,-2.953778,-8.872911,-11.171345,1.8291701
0.4733978,4.789874,-0.12326904,-1.8891798,-2.535129,-7.881712,-11.439496,1.9440918
0.47083592,4.7906804,-0.12326904,-1.8891798,-2.535129,-7.881712,-11.439496,1.9440918
0.46857032,4.7915697,-0.11155113,-1.9275293,-2.1495035,-6.9000893,-11.631032,1.9680338
0.46634787,4.792435,-0.11155113,-1.9275293,-2.1495035,-6.9000893,-11.631032,1.9680338
0.46443066,4.793345,-0.091311105,-1.9413778,-1.7969009,-6.1243677,-11.621455,2.0350714
0.46250275,4.794255,-0.091311105,-1.9413778,-1.7969009,-6.1243677,-11.621455,2.0350714
0.46084058,4.795195,-0.06361423,-1.9349862,-1.475191,-5.45878,-11.669339,2.0494366
0.4591816,4.796129,-0.06361423,-1.9349862,-1.475191,-5.45878,-11.669339,2.0494366
0.45777208,4.797085,-0.031656295,-1.9168767,-1.1833086,-4.8362875,-11.583148,2.0254946
0.4563628,4.7980356,-0.031656295,-1.9168767,-1.1833086,-4.8362875,-11.583148,2.0254946
0.45520324,4.799006,0.0045626974,-1.8891798,-0.91592723,-4.2521024,-11.329363,2.054225
0.45404172,4.799974,0.0045626974,-1.8891798,-0.91592723,-4.2521024,-11.329363,2.054225
0.45310432,4.800964,0.04291222,-1.8529608,-0.6741122,-3.7301662,-11.056423,1.9919758
0.45217332,4.801943,0.04291222,-1.8529608,-0.6741122,-3.7301662,-11.056423,1.9919758
0.4514506,4.802944,0.08126174,-1.8082197,-0.45360243,-3.2082303,-10.769119,1.9776106
0.45072788,4.803941,0.08126174,-1.8082197,-0.45360243,-3.2082303,-10.769119,1.9776106
0.45019642,4.8049393,0.11641546,-1.748565,-0.25546324,-2.7102363,-10.443508,1.8195933
0.44966245,4.805937,0.11641546,-1.748565,-0.25546324,-2.7102363,-10.443508,1.8195933
0.44929907,4.8069243,0.1483734,-1.6793227,-0.0828904,-2.3127987,-10.0508585,1.6089035
0.4489324,4.8079143,0.1483734,-1.6793227,-0.0828904,-2.3127987,-10.0508585,1.6089035
0.44871765,4.8088875,0.17713554,-1.6004932,0.07050768,-1.8435353,-9.720459,1.3694834
0.4485016,4.8098583,0.17713554,-1.6004932,0.07050768,-1.8435353,-9.720459,1.3694834
0.4484165,4.8108096,0.20163663,-1.515272,0.19833942,-1.4891934,-9.452309,1.1971009
0.44832972,4.811759,0.20163663,-1.515272,0.19833942,-1.4891934,-9.452309,1.1971009
0.44834876,4.812689,0.21974611,-1.4268551,0.297409,-1.0821792,-9.217676,1.1540052
0.44836634,4.813615,0.21974611,-1.4268551,0.297409,-1.0821792,-9.217676,1.1540052
0.44846568,4.814515,0.22933349,-1.3384382,0.37091225,-0.7230489,-9.011775,1.1875241
0.44856387,4.8154173,0.22933349,-1.3384382,0.37091225,-0.7230489,-9.011775,1.1875241
0.44871506,4.816286,0.23679034,-1.2553475,0.41671863,-0.39264908,-8.853758,1.1683705
0.44886464,4.817154,0.23679034,-1.2553475,0.41671863,-0.39264908,-8.853758,1.1683705
0.44904554,4.817996,0.24211667,-1.180779,0.44015446,-0.16280572,-8.508993,1.1540052
0.44922507,4.818837,0.24211667,-1.180779,0.44015446,-0.16280572,-8.508993,1.1540052
0.4494097,4.8196497,0.2442472,-1.1200589,0.44015446,-0.076614454,-8.322245,1.1252748
0.44959414,4.820466,0.2442472,-1.1200589,0.44015446,-0.076614454,-8.322245,1.1252748
0.44976604,4.8212647,0.24637774,-1.0699915,0.42204496,-0.07182605,-8.078036,1.091756
0.44993776,4.822067,0.24637774,-1.0699915,0.42204496,-0.07182605,-8.078036,1.091756
0.45007086,4.822818,0.24744299,-1.0337725,0.38689122,-0.12449849,-7.8290396,0.9768343
0.4502081,4.823598,0.24744299,-1.0337725,0.38689122,-0.12449849,-7.8290396,0.9768343
0.4502974,4.8243384,0.24531247,-1.0071409,0.34001958,-0.18195933,-7.5944076,0.92416185
0.450387,4.825089,0.24531247,-1.0071409,0.34001958,-0.18195933,-7.5944076,0.92416185
0.4504197,4.8258142,0.24211667,-0.9900966,0.28356057,-0.38307226,-7.326257,0.7278373
0.45045182,4.8265443,0.24211667,-0.9900966,0.28356057,-0.38307226,-7.326257,0.7278373
0.45042175,4.827241,0.2325293,-0.98157454,0.22177523,-0.51235914,-7.062895,0.51714754
0.45039088,4.827942,0.2325293,-0.98157454,0.22177523,-0.51235914,-7.062895,0.51714754
0.45029712,4.828619,0.2144198,-0.98157454,0.15892464,-0.25857377,-6.622362,0.45968673
0.45020273,4.829296,0.2144198,-0.98157454,0.15892464,-0.25857377,-6.622362,0.45968673
0.45005,4.8299375,0.18672292,-0.9805092,0.10033509,-0.21547815,-6.4882865,0.40222588
0.44989645,4.830579,0.18672292,-0.9805092,0.10033509,-0.21547815,-6.4882865,0.40222588
0.44968727,4.8311844,0.15156919,-0.97411764,0.044941336,-0.7134721,-6.5696893,0.5506664
0.449478,4.831788,0.15156919,-0.97411764,0.044941336,-0.7134721,-6.5696893,0.5506664
0.44920892,4.832366,0.11641546,-0.97944397,-0.013648209,-0.7038953,-6.7372837,0.6943185
0.4489399,4.832942,0.11641546,-0.97944397,-0.013648209,-0.7038953,-6.7372837,0.6943185
0.44860926,4.833502,0.087653324,-1.0007492,-0.07436828,0.11492168,-6.7133417,0.7613561
0.44827834,4.83406,0.087653324,-1.0007492,-0.07436828,0.11492168,-6.7133417,0.7613561
0.44789562,4.834589,0.05782592,-1.0103366,-0.124435715,0.110133275,-6.885724,0.7565677
0.44751298,4.835116,0.05782592,-1.0103366,-0.124435715,0.110133275,-6.885724,0.7565677
0.44708365,4.8356066,0.023737457,-1.0103366,-0.17024209,0.29209262,-7.0102224,0.7613561
0.44665426,4.836096,0.023737457,-1.0103366,-0.17024209,0.29209262,-7.0102224,0.7613561
0.44618076,4.8365498,-0.008220476,-1.0092714,-0.21604845,0.7086837,-7.062895,0.78050977
0.44570568,4.837004,-0.008220476,-1.0092714,-0.21604845,0.7086837,-7.062895,0.78050977
0.44518638,4.8374195,-0.041243672,-1.0050104,-0.26292008,1.0821792,-7.1634517,0.80924016
0.4446655,4.8378353,-0.041243672,-1.0050104,-0.26292008,1.0821792,-7.1634517,0.80924016
0.44410273,4.83821,-0.07213634,-0.9890314,-0.30872646,1.283292,-7.2783732,0.8714894
0.44353956,4.838584,-0.07213634,-0.9890314,-0.30872646,1.283292,-7.2783732,0.8714894
0.4429304,4.838915,-0.10089848,-0.96133447,-0.35666338,1.2689269,-7.345411,0.91458505
0.4423222,4.839244,-0.10089848,-0.96133447,-0.35666338,1.2689269,-7.345411,0.91458505
0.4416726,4.839526,-0.1275301,-0.92298496,-0.40460026,1.2066777,-7.4746976,0.9959879
0.4410201,4.839809,-0.1275301,-0.92298496,-0.40460026,1.2066777,-7.4746976,0.9959879
0.4403342,4.8400393,-0.15522698,-0.87291753,-0.44614556,1.0390835,-7.6470804,1.1013328
0.4396488,4.8402686,-0.15522698,-0.87291753,-0.44614556,1.0390835,-7.6470804,1.1013328
0.43892536,4.8404446,-0.18505438,-0.81006694,-0.47810352,0.82360536,-7.819463,1.2401965
0.4382288,4.8406124,-0.18505438,-0.81006694,-0.47810352,0.82360536,-7.819463,1.2401965
0.43751058,4.840724,-0.21275125,-0.7333679,-0.49727827,0.5267244,-7.9966335,1.4030021
0.43679434,4.8408346,-0.21275125,-0.7333679,-0.49727827,0.5267244,-7.9966335,1.4030021
0.4360789,4.8408823,-0.2383176,-0.649212,-0.50580037,0.1340753,-8.078036,1.4460979
0.4353642,4.84093,-0.2383176,-0.649212,-0.50580037,0.1340753,-8.078036,1.4460979
0.43466532,4.8409085,-0.2617534,-0.55759925,-0.4994088,-0.33039984,-8.212111,1.3551182
0.43396583,4.840887,-0.2617534,-0.55759925,-0.4994088,-0.33039984,-8.212111,1.3551182
0.4332967,4.840797,-0.28199345,-0.45852965,-0.47810352,-0.9528923,-8.37013,1.2689269
0.43262887,4.8407073,-0.28199345,-0.45852965,-0.47810352,-0.9528923,-8.37013,1.2689269
0.43201596,4.84056,-0.30223346,-0.35732955,-0.43975398,-1.5562311,-8.51857,1.3455414
0.43139753,4.840411,-0.30223346,-0.35732955,-0.43975398,-1.5562311,-8.51857,1.3455414
0.43084666,4.840205,-0.3224735,-0.2593252,-0.38755605,-2.0638018,-8.6574335,1.3694834
0.4302782,4.8399925,-0.3224735,-0.2593252,-0.38755605,-2.0638018,-8.6574335,1.3694834
0.42982283,4.8397474,-0.33845246,-0.16984299,-0.31937912,-2.504335,-8.820239,1.4077905
0.42935443,4.839496,-0.33845246,-0.16984299,-0.31937912,-2.504335,-8.820239,1.4077905
0.42897922,4.8392076,-0.35123563,-0.08781763,-0.23841901,-2.9161377,-8.978256,1.4460979
0.42860422,4.8389196,-0.35123563,-0.08781763,-0.23841901,-2.9161377,-8.978256,1.4460979
0.42833647,4.8386054,-0.360823,-0.014314385,-0.14680627,-3.217807,-9.165004,1.508347
0.42806804,4.838291,-0.360823,-0.014314385,-0.14680627,-3.217807,-9.165004,1.508347
0.42791677,4.8379574,-0.36614934,0.054927804,-0.04773667,-3.4859576,-9.337387,1.5658079
0.42776635,4.8376255,-0.36614934,0.054927804,-0.04773667,-3.4859576,-9.337387,1.5658079
0.42771736,4.8372602,-0.36827987,0.1209742,0.05346345,-3.7110126,-9.5385,1.4652514
0.42766854,4.8368945,-0.36827987,0.1209742,0.05346345,-3.7110126,-9.5385,1.4652514
0.42771474,4.836484,-0.36614934,0.1870206,0.15572885,-3.8977604,-9.763555,1.340753
0.4277612,4.836075,-0.36614934,0.1870206,0.15572885,-3.8977604,-9.763555,1.340753
0.42790344,4.8356185,-0.360823,0.25093648,0.2526679,-4.098873,-9.998186,1.2545617
0.42804566,4.835164,-0.360823,0.25093648,0.2526679,-4.098873,-9.998186,1.2545617
0.42831594,4.834612,-0.35336617,0.3127218,0.34001958,-4.2904096,-10.189722,1.0295067
0.42858428,4.834061,-0.35336617,0.3127218,0.34001958,-4.2904096,-10.189722,1.0295067
0.42896682,4.8334746,-0.3459093,0.3755724,0.4177839,-4.501099,-10.46745,0.9720459
0.42934775,4.832888,-0.3459093,0.3755724,0.4177839,-4.501099,-10.46745,0.9720459
0.42985117,4.8322678,-0.33525667,0.43522722,0.4870261,-4.783615,-10.702082,0.9816227
0.43034106,4.8316603,-0.33525667,0.43522722,0.4870261,-4.783615,-10.702082,0.9816227
0.43097252,4.8310385,-0.32034296,0.49062097,0.54668087,-5.142745,-10.888829,0.91937345
0.4316004,4.8304176,-0.32034296,0.49062097,0.54668087,-5.142745,-10.888829,0.91937345
0.43233767,4.8298125,-0.30223346,0.53749263,0.5999441,-5.544971,-11.013328,0.866701
0.43307272,4.829207,-0.30223346,0.53749263,0.5999441,-5.544971,-11.013328,0.866701
0.43388897,4.8286257,-0.2798629,0.5726463,0.64788103,-5.985504,-11.15698,0.842759
0.43470496,4.828043,-0.2798629,0.5726463,0.64788103,-5.985504,-11.15698,0.842759
0.43557134,4.8274975,-0.25110078,0.5907558,0.6904916,-6.325481,-11.238382,0.8283938
0.43644455,4.826947,-0.25110078,0.5907558,0.6904916,-6.325481,-11.238382,0.8283938
0.43735915,4.826438,-0.21914284,0.5886253,0.7299064,-6.6510925,-11.319786,0.79487497
0.43827248,4.8259296,-0.21914284,0.5886253,0.7299064,-6.6510925,-11.319786,0.79487497
0.4392316,4.8254833,-0.18398911,0.5651895,0.76719064,-6.9479733,-11.33894,0.89543146
0.4401887,4.8250365,-0.18398911,0.5651895,0.76719064,-6.9479733,-11.33894,0.89543146
0.44117793,4.8246446,-0.14457433,0.5204484,0.8023444,-7.015011,-11.319786,0.80924016
0.442162,4.824254,-0.14457433,0.5204484,0.8023444,-7.015011,-11.319786,0.80924016
0.44317204,4.823937,-0.104094274,0.45759776,0.8343023,-6.9862804,-11.257536,0.8331822
0.4441799,4.82362,-0.104094274,0.45759776,0.8343023,-6.9862804,-11.257536,0.8331822
0.44520482,4.8233767,-0.06361423,0.3787682,0.8630644,-6.8905125,-11.113884,0.7661445
0.44623277,4.823132,-0.06361423,0.3787682,0.8630644,-6.8905125,-11.113884,0.7661445
0.44727236,4.8229713,-0.021003649,0.29035124,0.8886308,-6.6893997,-11.042058,0.78050977
0.44831172,4.8228097,-0.021003649,0.29035124,0.8886308,-6.6893997,-11.042058,0.78050977
0.44935906,4.822729,0.020541664,0.19660798,0.9088708,-6.3925185,-10.903194,0.79008657
0.45040503,4.8226485,0.020541664,0.19660798,0.9088708,-6.3925185,-10.903194,0.79008657
0.45145324,4.822651,0.061021715,0.10392997,0.9237845,-6.229713,-10.773908,0.79008657
0.45250088,4.8226523,0.061021715,0.10392997,0.9237845,-6.229713,-10.773908,0.79008657
0.45353976,4.8227253,0.09830597,0.014447756,0.9333719,-6.042965,-10.67814,0.7565677
0.4545767,4.8227983,0.09830597,0.014447756,0.9333719,-6.042965,-10.67814,0.7565677
0.45561662,4.8229537,0.13239443,-0.07290393,0.93656766,-5.9998693,-10.481815,0.770933
0.45665163,4.823108,0.13239443,-0.07290393,0.93656766,-5.9998693,-10.481815,0.770933
0.45767266,4.82333,0.16435237,-0.1549293,0.93656766,-5.875371,-10.299856,0.7278373
0.45913345,4.823741,0.1931145,-0.2326936,0.9333719,-5.7604494,-10.16578,0.6751649
0.4597059,4.8239017,0.1931145,-0.2326936,0.9333719,-5.7604494,-10.16578,0.6751649
0.46069884,4.8241806,0.1931145,-0.2326936,0.9333719,-5.7604494,-10.16578,0.6751649
0.46167552,4.8245196,0.21868086,-0.30406633,0.9291108,-5.5976434,-9.974244,0.7182605
0.46167552,4.8245196,0.21868086,-0.30406633,0.9291108,-5.5976434,-9.974244,0.7182605
0.46167552,4.8245196,0.21868086,-0.30406633,0.9291108,-5.5976434,-9.974244,0.7182605
0.46506718,4.8257284,0.26022616,-0.42763698,0.92058873,-5.2959743,-9.595961,0.80924016
0.46556106,4.8259583,0.26022616,-0.42763698,0.92058873,-5.2959743,-9.595961,0.80924016
0.46661723,4.8264503,0.26022616,-0.42763698,0.92058873,-5.2959743,-9.595961,0.80924016
0.46755588,4.8269367,0.27620512,-0.48196548,0.9173929,-5.209783,-9.466674,0.842759
0.46853524,4.827444,0.27620512,-0.48196548,0.9173929,-5.209783,-9.466674,0.842759
0.46943563,4.8279557,0.29005358,-0.53309816,0.9131319,-4.999093,-9.241618,0.90500826
0.47037762,4.828491,0.29005358,-0.53309816,0.9131319,-4.999093,-9.241618,0.90500826
0.47131205,4.8290644,0.3017715,-0.5810351,0.9088708,-4.793192,-9.088389,0.9720459
0.47298238,4.830223,0.31135887,-0.6257762,0.901414,-4.5441947,-8.868123,1.0295067
0.47298238,4.830223,0.31135887,-0.6257762,0.901414,-4.5441947,-8.868123,1.0295067
0.47371808,4.830817,0.31135887,-0.6257762,0.901414,-4.5441947,-8.868123,1.0295067
0.47439152,4.8314867,0.31668517,-0.66625625,0.8928918,-4.3239284,-8.686164,0.9959879
0.47506887,4.832156,0.31668517,-0.66625625,0.8928918,-4.3239284,-8.686164,0.9959879
0.47572356,4.8328867,0.31988096,-0.70140994,0.88436973,-4.10845,-8.51857,1.0199299
0.4763791,4.8336163,0.31988096,-0.70140994,0.88436973,-4.10845,-8.51857,1.0199299
0.47701564,4.834352,0.31988096,-0.72910684,0.87371707,-3.9312792,-8.408437,1.0007763
0.4776541,4.8350897,0.31988096,-0.72910684,0.87371707,-3.9312792,-8.408437,1.0007763
0.4782838,4.835871,0.31775045,-0.7482816,0.8630644,-3.6727054,-8.279149,1.1204864
0.47891393,4.836654,0.31775045,-0.7482816,0.8630644,-3.6727054,-8.279149,1.1204864
0.47953087,4.837432,0.31029359,-0.76213,0.85347706,-3.3375173,-8.259995,1.13964
0.48014507,4.8382072,0.31029359,-0.76213,0.85347706,-3.3375173,-8.259995,1.13964
0.48074815,4.838981,0.29964095,-0.76745635,0.83962864,-3.0119057,-8.24563,1.2066777
0.48134908,4.8397536,0.29964095,-0.76745635,0.83962864,-3.0119057,-8.24563,1.2066777
0.48193198,4.840513,0.28685778,-0.76532584,0.82151914,-2.719813,-7.9822683,1.2258313
0.48251626,4.841276,0.28685778,-0.76532584,0.82151914,-2.719813,-7.9822683,1.2258313
0.48308226,4.8420243,0.27513987,-0.7568037,0.8023444,-2.6144683,-7.8146744,1.2354081
0.48364624,4.8427706,0.27513987,-0.7568037,0.8023444,-2.6144683,-7.8146744,1.2354081
0.48418516,4.8434834,0.26129144,-0.74295527,0.77890855,-2.681506,-7.747637,1.1013328
0.4847232,4.8441963,0.26129144,-0.74295527,0.77890855,-2.681506,-7.747637,1.1013328
0.48524758,4.844889,0.24531247,-0.7237805,0.7618643,-2.5474305,-7.675811,1.163582
0.48577094,4.845581,0.24531247,-0.7237805,0.7618643,-2.5474305,-7.675811,1.163582
0.48628289,4.846242,0.22720297,-0.6982142,0.7469506,-2.4229321,-7.666234,1.1779473
0.48679373,4.8469024,0.22720297,-0.6982142,0.7469506,-2.4229321,-7.666234,1.1779473
0.48729992,4.8475323,0.20696294,-0.665191,0.7352327,-2.3558946,-7.6470804,1.2497733
0.4878055,4.848162,0.20696294,-0.665191,0.7352327,-2.3558946,-7.6470804,1.2497733
0.4883095,4.8487535,0.1845924,-0.62364566,0.72671056,-2.2649148,-7.5321584,1.316811
0.48881295,4.8493443,0.1845924,-0.62364566,0.72671056,-2.2649148,-7.5321584,1.316811
0.48931462,4.849892,0.16222183,-0.5746435,0.71605796,-2.2601264,-7.513005,1.3599066
0.4898154,4.850439,0.16222183,-0.5746435,0.71605796,-2.2601264,-7.513005,1.3599066
0.4903094,4.850933,0.13878602,-0.51924974,0.70220953,-2.3127987,-7.4603324,1.340753
0.49080193,4.851426,0.13878602,-0.51924974,0.70220953,-2.3127987,-7.4603324,1.340753
0.4912925,4.8518677,0.11428493,-0.45959494,0.6894263,-2.5187001,-7.374141,1.316811
0.4917834,4.8523097,0.11428493,-0.45959494,0.6894263,-2.5187001,-7.374141,1.316811
0.4922735,4.8527055,0.089783855,-0.4010054,0.6755779,-2.7389667,-7.335834,1.3551182
0.4928069,4.8531365,0.089783855,-0.4010054,0.6755779,-2.7389667,-7.335834,1.3551182
0.49323884,4.853442,0.06634804,-0.34454638,0.6606642,-3.0071173,-7.398083,1.2976574
0.49371213,4.8537765,0.06634804,-0.34454638,0.6606642,-3.0071173,-7.398083,1.2976574
0.49419156,4.8540745,0.043977484,-0.29021788,0.6468158,-3.2561142,-7.445967,1.3263878
0.49467012,4.854372,0.043977484,-0.29021788,0.6468158,-3.2561142,-7.445967,1.3263878
0.49516082,4.8546457,0.02160693,-0.24228097,0.62977153,-3.5482068,-7.5321584,1.4173675
0.49565,4.854918,0.02160693,-0.24228097,0.62977153,-3.5482068,-7.5321584,1.4173675
0.49615112,4.8551598,0.00030163955,-0.19860514,0.6159231,-3.7780502,-7.6470804,1.4413095
0.49665004,4.8554,0.00030163955,-0.19860514,0.6159231,-3.7780502,-7.6470804,1.4413095
0.4971476,4.855604,-0.017807856,-0.15812509,0.6042052,-4.0318356,-7.762002,1.3311762
0.497643,4.8558073,-0.017807856,-0.15812509,0.6042052,-4.0318356,-7.762002,1.3311762
0.4981938,4.855993,-0.035917353,-0.12084083,0.591422,-4.2999864,-7.8625584,1.3120226
0.49874672,4.85618,-0.035917353,-0.12084083,0.591422,-4.2999864,-7.8625584,1.3120226
0.4993759,4.85632,-0.05189632,-0.0856871,0.575443,-4.548983,-7.9631147,1.3215994
0.5000006,4.8564596,-0.05189632,-0.0856871,0.575443,-4.548983,-7.9631147,1.3215994
0.500671,4.856528,-0.06361423,-0.05692496,0.5615946,-4.8267107,-8.145074,1.2976574
0.50133944,4.8565974,-0.06361423,-0.05692496,0.5615946,-4.8267107,-8.145074,1.2976574
0.5020159,4.856608,-0.07213634,-0.033489145,0.54668087,-5.046977,-8.240842,1.2545617
0.5026673,4.856619,-0.07213634,-0.033489145,0.54668087,-5.046977,-8.240842,1.2545617
0.5033275,4.856619,-0.077462666,-0.018575443,0.5317672,-5.2624555,-8.293514,1.2976574
0.50401205,4.8566194,-0.077462666,-0.018575443,0.5317672,-5.2624555,-8.293514,1.2976574
0.5046579,4.8566055,-0.08065846,-0.015379649,0.5157882,-5.521029,-8.37013,1.2976574
0.5053036,4.8565917,-0.08065846,-0.015379649,0.5157882,-5.521029,-8.37013,1.2976574
0.50593907,4.8565745,-0.08172372,-0.019640706,0.503005,-5.7508726,-8.408437,1.3024458
0.50657594,4.856558,-0.08172372,-0.019640706,0.503005,-5.7508726,-8.408437,1.3024458
0.50719374,4.856553,-0.0795932,-0.03242388,0.4902219,-5.961562,-8.461109,1.3503298
0.507811,4.856549,-0.0795932,-0.03242388,0.4902219,-5.961562,-8.461109,1.3503298
0.50841886,4.8565593,-0.076397404,-0.057990227,0.4806345,-6.114791,-8.552089,1.3599066
0.50902617,4.8565702,-0.076397404,-0.057990227,0.4806345,-6.114791,-8.552089,1.3599066
0.509623,4.856606,-0.07000581,-0.093143955,0.47637343,-6.1770406,-8.523358,1.3599066
0.51021934,4.856642,-0.07000581,-0.093143955,0.47637343,-6.1770406,-8.523358,1.3599066
0.51081413,4.856715,-0.062548965,-0.13788506,0.47743872,-6.172252,-8.5473,1.3934253
0.5113984,4.8567877,-0.062548965,-0.13788506,0.47743872,-6.172252,-8.5473,1.3934253
0.5119854,4.856898,-0.05509211,-0.18795249,0.4806345,-6.1530986,-8.523358,1.3982137
0.51257,4.8570075,-0.05509211,-0.18795249,0.4806345,-6.1530986,-8.523358,1.3982137
0.51315266,4.857161,-0.046569996,-0.23908518,0.4870261,-6.009446,-8.48984,1.4173675
0.5137389,4.857316,-0.046569996,-0.23908518,0.4870261,-6.009446,-8.48984,1.4173675
0.51432055,4.8575153,-0.03804788,-0.29128313,0.49448293,-5.8705826,-8.446744,1.436521
0.514902,4.857715,-0.03804788,-0.29128313,0.49448293,-5.8705826,-8.446744,1.436521
0.5154844,4.857956,-0.029525764,-0.3413506,0.5051356,-5.7029886,-8.403648,1.4221559
0.5160667,4.8581967,-0.029525764,-0.3413506,0.5051356,-5.7029886,-8.403648,1.4221559
0.51665443,4.858463,-0.024199443,-0.38928747,0.5115272,-5.5258174,-8.394072,1.3455414
0.5172409,4.8587284,-0.024199443,-0.38928747,0.5115272,-5.5258174,-8.394072,1.3455414
0.5178237,4.859022,-0.021003649,-0.43189806,0.51472294,-5.3725886,-8.360553,1.3215994
0.51840466,4.859315,-0.021003649,-0.43189806,0.51472294,-5.3725886,-8.360553,1.3215994
0.5189628,4.8596725,-0.015677327,-0.47131285,0.51472294,-5.2241483,-8.374918,1.3982137
0.5195256,4.8600345,-0.015677327,-0.47131285,0.51472294,-5.2241483,-8.374918,1.3982137
0.520088,4.8603945,-0.012481534,-0.50327075,0.5104619,-5.1810527,-8.389283,1.3311762
0.5206473,4.8607526,-0.012481534,-0.50327075,0.5104619,-5.1810527,-8.389283,1.3311762
0.52117884,4.861165,-0.009285741,-0.53096765,0.50833136,-5.133168,-8.42759,1.388637
0.5217103,4.861578,-0.009285741,-0.53096765,0.50833136,-5.133168,-8.42759,1.388637
0.52221274,4.8620214,-0.0071552116,-0.55546874,0.50407034,-5.0900726,-8.437167,1.4077905
0.52271396,4.862466,-0.0071552116,-0.55546874,0.50407034,-5.0900726,-8.437167,1.4077905
0.52315265,4.8629446,-0.006089947,-0.576774,0.5008745,-5.0278234,-8.461109,1.5035586
0.52359146,4.863426,-0.006089947,-0.576774,0.5008745,-5.0278234,-8.461109,1.5035586
0.5240016,4.8639193,-0.0050246827,-0.59594876,0.49661347,-4.960786,-8.42759,1.4891934
0.5244094,4.864413,-0.0050246827,-0.59594876,0.49661347,-4.960786,-8.42759,1.4891934
0.52476114,4.86491,-0.0039594183,-0.6151235,0.49448293,-4.8123455,-8.389283,1.5035586
0.52510333,4.865397,-0.0039594183,-0.6151235,0.49448293,-4.8123455,-8.389283,1.5035586
0.5254499,4.8659086,-0.0018288894,-0.633233,0.49341768,-4.711789,-8.279149,1.5753847
0.525802,4.866431,-0.0018288894,-0.633233,0.49341768,-4.711789,-8.279149,1.5753847
0.5261091,4.8669353,-0.0018288894,-0.649212,0.49341768,-4.55856,-8.283937,1.5610195
0.52641165,4.8674345,-0.0018288894,-0.649212,0.49341768,-4.55856,-8.283937,1.5610195
0.5267045,4.867938,-0.0028941538,-0.6630604,0.4923524,-4.414908,-8.149862,1.5514427
0.5269978,4.8684444,-0.0028941538,-0.6630604,0.4923524,-4.414908,-8.149862,1.5514427
0.5272861,4.8689528,-0.0039594183,-0.67264783,0.4923524,-4.2760444,-8.101978,1.6089035
0.5275726,4.869459,-0.0039594183,-0.67264783,0.4923524,-4.2760444,-8.101978,1.6089035
0.5278449,4.8699512,-0.0071552116,-0.67797416,0.49448293,-4.122815,-8.058883,1.5658079
0.5281156,4.8704424,-0.0071552116,-0.67797416,0.49448293,-4.122815,-8.058883,1.5658079
0.5283831,4.8709226,-0.012481534,-0.6801047,0.49767873,-3.9791632,-8.010999,1.5610195
0.5286522,4.8714066,-0.012481534,-0.6801047,0.49767873,-3.9791632,-8.010999,1.5610195
0.5289196,4.8718796,-0.017807856,-0.6790394,0.49980927,-3.8019924,-8.030152,1.6041151
0.5291854,4.8723507,-0.017807856,-0.6790394,0.49980927,-3.8019924,-8.030152,1.6041151
0.5294506,4.872805,-0.024199443,-0.6715826,0.5019398,-3.572149,-8.0445175,1.6663644
0.5297171,4.8732624,-0.024199443,-0.6715826,0.5019398,-3.572149,-8.0445175,1.6663644
0.52998894,4.873708,-0.031656295,-0.6609299,0.5051356,-3.3566709,-8.1163435,1.7429788
0.5302608,4.8741536,-0.031656295,-0.6609299,0.5051356,-3.3566709,-8.1163435,1.7429788
0.5305385,4.8745837,-0.03698262,-0.6470815,0.5104619,-3.1316159,-8.173804,1.7956513
0.5308228,4.875025,-0.03698262,-0.6470815,0.5104619,-3.1316159,-8.173804,1.7956513
0.5310903,4.8754134,-0.042308938,-0.628972,0.51472294,-2.944868,-8.197746,1.7238252
0.5313678,4.8758163,-0.042308938,-0.628972,0.51472294,-2.944868,-8.197746,1.7238252
0.5316442,4.876194,-0.04763526,-0.6066014,0.5136577,-2.6719291,-8.259995,1.6711528
0.5319203,4.8765707,-0.04763526,-0.6066014,0.5136577,-2.6719291,-8.259995,1.6711528
0.53219545,4.8769193,-0.050831053,-0.57783926,0.5104619,-2.4516625,-8.293514,1.5753847
0.5324694,4.877267,-0.050831053,-0.57783926,0.5104619,-2.4516625,-8.293514,1.5753847
0.5327418,4.8775926,-0.05189632,-0.54268557,0.503005,-2.2697031,-8.197746,1.5705963
0.5330143,4.8779187,-0.05189632,-0.54268557,0.503005,-2.2697031,-8.197746,1.5705963
0.53327906,4.878215,-0.052961584,-0.50327075,0.4891566,-2.030283,-8.192958,1.508347
0.53354335,4.878512,-0.052961584,-0.50327075,0.4891566,-2.030283,-8.192958,1.508347
0.5338005,4.8787775,-0.05509211,-0.45639914,0.47424293,-1.9440918,-8.149862,1.5035586
0.53405726,4.8790426,-0.05509211,-0.45639914,0.47424293,-1.9440918,-8.149862,1.5035586
0.5343003,4.8792725,-0.05935317,-0.40313593,0.4508071,-1.8674773,-8.130709,1.532289
0.5345433,4.879503,-0.05935317,-0.40313593,0.4508071,-1.8674773,-8.130709,1.532289
0.53476727,4.8796906,-0.06361423,-0.34561163,0.42204496,-1.8531121,-8.09719,1.5035586
0.5349909,4.8798785,-0.06361423,-0.34561163,0.42204496,-1.8531121,-8.09719,1.5035586
0.5351896,4.880021,-0.06681002,-0.28276104,0.38689122,-1.8722657,-8.111555,1.4700398
0.5353883,4.8801637,-0.06681002,-0.28276104,0.38689122,-1.8722657,-8.111555,1.4700398
0.5355614,4.8802633,-0.07320161,-0.21777989,0.3485417,-2.0111294,-8.039729,1.5370775
0.5357292,4.8803606,-0.07320161,-0.21777989,0.3485417,-2.0111294,-8.039729,1.5370775
0.53587383,4.8804126,-0.0795932,-0.1517335,0.30806166,-2.2505496,-8.00621,1.5275006
0.53587383,4.8804126,-0.08491952,-0.08888289,0.26545107,-2.4516625,-8.020576,1.4556746
0.5361464,4.880414,-0.08491952,-0.08888289,0.26545107,-2.4516625,-8.020576,1.4556746
0.53621435,4.8804145,-0.08491952,-0.08888289,0.26545107,-2.4516625,-8.020576,1.4556746
0.53629434,4.880378,-0.092376366,-0.030293351,0.22497103,-2.705448,-8.015787,1.532289
0.53637695,4.8803396,-0.092376366,-0.030293351,0.22497103,-2.705448,-8.015787,1.532289
0.536433,4.8802595,-0.09770269,0.021904606,0.18875204,-2.9975405,-7.9631147,1.4891934
0.53648657,4.880183,-0.09770269,0.021904606,0.18875204,-2.9975405,-7.9631147,1.4891934
0.5365219,4.8800597,-0.10302901,0.06558045,0.15785937,-3.2369606,-7.991845,1.4939818
0.53654855,4.8799667,-0.10302901,0.06558045,0.15785937,-3.2369606,-7.991845,1.4939818
0.5365659,4.8798027,-0.108355336,0.102864705,0.13229302,-3.41892,-7.967903,1.5179238
0.53657657,4.8797,-0.108355336,0.102864705,0.13229302,-3.41892,-7.967903,1.5179238
0.5365677,4.8795266,-0.11368166,0.13375737,0.10779194,-3.620033,-7.991845,1.4030021
0.5365588,4.8793545,-0.11368166,0.13375737,0.10779194,-3.620033,-7.991845,1.4030021
0.5365362,4.879166,-0.11687745,0.16251951,0.087551914,-3.739743,-8.015787,1.4460979
0.5365137,4.8789783,-0.11687745,0.16251951,0.087551914,-3.739743,-8.015787,1.4460979
0.53647614,4.878771,-0.11794271,0.18915112,0.06837715,-3.8355112,-8.020576,1.4269443
0.5364384,4.8785615,-0.11794271,0.18915112,0.06837715,-3.8355112,-8.020576,1.4269443
0.53638786,4.8783193,-0.121138506,0.21578273,0.05346345,-3.98874,-8.0445175,1.3455414
0.5363374,4.8780775,-0.121138506,0.21578273,0.05346345,-3.98874,-8.0445175,1.3455414
0.5362775,4.877797,-0.124334306,0.24454488,0.039615013,-4.237737,-8.121132,1.2976574
0.53621763,4.8775163,-0.124334306,0.24454488,0.039615013,-4.237737,-8.121132,1.2976574
0.5361462,4.877223,-0.1275301,0.27330703,0.023636047,-4.4723687,-8.192958,1.3455414
0.53607476,4.87693,-0.1275301,0.27330703,0.023636047,-4.4723687,-8.192958,1.3455414
0.53599465,4.8765926,-0.13072589,0.29993862,0.00765708,-4.663905,-8.317456,1.3215994
0.5359143,4.876257,-0.13072589,0.29993862,0.00765708,-4.663905,-8.317456,1.3215994
0.53584445,4.875861,-0.13392168,0.32017866,-0.008321887,-4.951209,-8.39886,1.340753
0.5357717,4.875469,-0.13392168,0.32017866,-0.008321887,-4.951209,-8.39886,1.340753
0.53583944,4.8750267,-0.13392168,0.33189657,-0.02110506,-5.109226,-8.485051,1.3838485
0.53591394,4.874589,-0.13392168,0.33189657,-0.02110506,-5.109226,-8.485051,1.3838485
0.53605324,4.8742023,-0.13392168,0.33296183,-0.034953497,-5.291186,-8.542512,1.3455414
0.53619397,4.8738184,-0.13392168,0.33296183,-0.034953497,-5.291186,-8.542512,1.3455414
0.5363368,4.873467,-0.13179116,0.3244397,-0.04454088,-5.439626,-8.566454,1.3551182
0.53648055,4.8731165,-0.13179116,0.3244397,-0.04454088,-5.439626,-8.566454,1.3551182
0.5366147,4.872791,-0.12966062,0.3063302,-0.05412826,-5.5401826,-8.552089,1.364695
0.5367487,4.8724675,-0.12966062,0.3063302,-0.05412826,-5.5401826,-8.552089,1.364695
0.53687125,4.872193,-0.124334306,0.28076386,-0.06158511,-5.616797,-8.5473,1.4317327
0.53698754,4.871933,-0.124334306,0.28076386,-0.06158511,-5.616797,-8.5473,1.4317327
0.5371029,4.8716726,-0.120073244,0.2498712,-0.064780906,-5.6359506,-8.461109,1.3982137
0.5372237,4.8714004,-0.120073244,0.2498712,-0.064780906,-5.6359506,-8.461109,1.3982137
0.53733176,4.871181,-0.11474692,0.21471748,-0.06371564,-5.659893,-8.408437,1.436521
0.537439,4.870964,-0.11474692,0.21471748,-0.06371564,-5.659893,-8.408437,1.436521
0.5375451,4.8707547,-0.11048587,0.17956375,-0.062650375,-5.6407394,-8.327033,1.3742718
0.53765166,4.870545,-0.11048587,0.17956375,-0.062650375,-5.6407394,-8.327033,1.3742718
0.5377556,4.870365,-0.107290074,0.14441001,-0.058389317,-5.6120086,-8.279149,1.3790601
0.5378595,4.870186,-0.107290074,0.14441001,-0.058389317,-5.6120086,-8.279149,1.3790601
0.5379623,4.870039,-0.10515954,0.11138682,-0.05199773,-5.626374,-8.173804,1.4077905
0.53806514,4.8698926,-0.10515954,0.11138682,-0.05199773,-5.626374,-8.173804,1.4077905
0.5381704,4.8697653,-0.10515954,0.07942889,-0.04454088,-5.568913,-8.145074,1.3934253
0.5382755,4.8696384,-0.10515954,0.07942889,-0.04454088,-5.568913,-8.145074,1.3934253
0.5383885,4.8695254,-0.10515954,0.04853622,-0.03282297,-5.554548,-8.101978,1.3694834
0.5385014,4.8694134,-0.10515954,0.04853622,-0.03282297,-5.554548,-8.101978,1.3694834
0.5386221,4.869324,-0.106224805,0.020839343,-0.018974531,-5.463568,-8.0445175,1.3742718
0.53874266,4.869235,-0.106224805,0.020839343,-0.018974531,-5.463568,-8.0445175,1.3742718
0.53887355,4.869154,-0.108355336,-0.00366174,-0.006191358,-5.3725886,-8.0445175,1.340753
0.53900456,4.8690724,-0.108355336,-0.00366174,-0.006191358,-5.3725886,-8.0445175,1.340753
0.53914475,4.869012,-0.11048587,-0.026032293,0.008722344,-5.2624555,-8.020576,1.340753
0.5392848,4.8689513,-0.11048587,-0.026032293,0.008722344,-5.2624555,-8.020576,1.340753
0.5394398,4.8688726,-0.11368166,-0.045207053,0.022570781,-5.1906295,-8.0684595,1.283292
0.53959495,4.8687944,-0.11368166,-0.045207053,0.022570781,-5.1906295,-8.0684595,1.283292
0.5397553,4.8687515,-0.11794271,-0.06118602,0.035353955,-5.185841,-8.12592,1.3311762
0.53991556,4.8687086,-0.11794271,-0.06118602,0.035353955,-5.185841,-8.12592,1.3311762
0.5400075,4.868745,-0.122203775,-0.07609972,0.04813713,-5.0900726,-8.226477,1.4221559
0.540099,4.8687806,-0.122203775,-0.07609972,0.04813713,-5.0900726,-8.226477,1.4221559
0.5400447,4.868794,-0.12646483,-0.09207869,0.056659244,-4.9895163,-8.360553,1.3742718
0.5399908,4.8688073,-0.12646483,-0.09207869,0.056659244,-4.9895163,-8.360553,1.3742718
0.5399104,4.868783,-0.12966062,-0.106992394,0.06731189,-4.903325,-8.39886,1.364695
0.53983027,4.868759,-0.12966062,-0.106992394,0.06731189,-4.903325,-8.39886,1.364695
0.5397521,4.86872,-0.13179116,-0.121906094,0.0790298,-4.6782703,-8.494628,1.3742718
0.539674,4.8686814,-0.13179116,-0.121906094,0.0790298,-4.6782703,-8.494628,1.3742718
0.5396055,4.868664,-0.13179116,-0.1368198,0.087551914,-4.5441947,-8.485051,1.4221559
0.53953683,4.868646,-0.13179116,-0.1368198,0.087551914,-4.5441947,-8.485051,1.4221559
0.53947073,4.8686175,-0.13179116,-0.1517335,0.09713929,-4.3766007,-8.571242,1.3694834
0.5394044,4.868589,-0.13179116,-0.1517335,0.09713929,-4.3766007,-8.571242,1.3694834
0.53934413,4.8685694,-0.13179116,-0.16238615,0.104596145,-4.213795,-8.571242,1.3838485
0.539284,4.86855,-0.13179116,-0.16238615,0.104596145,-4.213795,-8.571242,1.3838485
0.5392277,4.8685246,-0.12966062,-0.17090826,0.11098773,-4.074931,-8.552089,1.3072342
0.5391726,4.8685,-0.12966062,-0.17090826,0.11098773,-4.074931,-8.552089,1.3072342
0.5391233,4.868475,-0.1275301,-0.1730388,0.118444584,-3.940856,-8.604761,1.2785037
0.5390727,4.8684487,-0.1275301,-0.1730388,0.118444584,-3.940856,-8.604761,1.2785037
0.5390306,4.868422,-0.12539956,-0.16771246,0.12483617,-3.9025488,-8.552089,1.2641385
0.5389885,4.8683953,-0.12539956,-0.16771246,0.12483617,-3.9025488,-8.552089,1.2641385
0.5389544,4.868354,-0.12326904,-0.15386403,0.13016249,-3.8402996,-8.528147,1.1923125
0.53892046,4.868313,-0.12326904,-0.15386403,0.13016249,-3.8402996,-8.528147,1.1923125
0.53889656,4.868265,-0.12326904,-0.13255873,0.13761935,-3.821146,-8.556877,1.2354081
0.5388725,4.8682175,-0.12326904,-0.13255873,0.13761935,-3.821146,-8.556877,1.2354081
0.5388571,4.8681526,-0.122203775,-0.106992394,0.14188041,-3.7588966,-8.346188,1.1827357
0.5388416,4.8680882,-0.122203775,-0.106992394,0.14188041,-3.7588966,-8.346188,1.1827357
0.53883266,4.8679943,-0.122203775,-0.07503446,0.14188041,-3.9360676,-8.303091,1.1300632
0.5388238,4.8679,-0.122203775,-0.07503446,0.14188041,-3.9360676,-8.303091,1.1300632
0.53882176,4.867769,-0.12539956,-0.03988073,0.13974987,-4.084508,-8.274361,1.0869676
0.5388197,4.867638,-0.12539956,-0.03988073,0.13974987,-4.084508,-8.274361,1.0869676
0.5388195,4.867485,-0.12859535,-0.005792269,0.13655408,-4.237737,-8.283937,1.1252748
0.53881913,4.8673325,-0.12859535,-0.005792269,0.13655408,-4.237737,-8.283937,1.1252748
0.5388181,4.867157,-0.13072589,0.022969872,0.13016249,-4.390966,-8.331821,1.1492168
0.5388168,4.8669825,-0.13072589,0.022969872,0.13016249,-4.390966,-8.331821,1.1492168
0.5388185,4.866781,-0.1360522,0.04427516,0.12590143,-4.5681367,-8.346188,1.163582
0.53881985,4.8665805,-0.1360522,0.04427516,0.12590143,-4.5681367,-8.346188,1.163582
0.53882766,4.866351,-0.13818274,0.0581236,0.12164038,-4.673482,-8.283937,1.1587936
0.5388349,4.866129,-0.13818274,0.0581236,0.12164038,-4.673482,-8.283937,1.1587936
0.5388444,4.865888,-0.14031327,0.06558045,0.11524879,-4.7644615,-8.312668,1.1683705
0.5388534,4.8656373,-0.14031327,0.06558045,0.11524879,-4.7644615,-8.312668,1.1683705
0.53884655,4.8654146,-0.14457433,0.06664571,0.11098773,-4.7884035,-8.350976,1.2066777
0.5388392,4.8651886,-0.14457433,0.06664571,0.11098773,-4.7884035,-8.350976,1.2066777
0.5388416,4.864946,-0.14670485,0.061319392,0.10992247,-4.88896,-8.293514,1.2210429
0.53884256,4.8647046,-0.14670485,0.061319392,0.10992247,-4.88896,-8.293514,1.2210429
0.5388197,4.864521,-0.14777012,0.052797277,0.10992247,-4.9224787,-8.231265,1.2593501
0.53879654,4.8643436,-0.14777012,0.052797277,0.10992247,-4.9224787,-8.231265,1.2593501
0.5388429,4.8642735,-0.14990065,0.04107937,0.11524879,-4.8841715,-8.178593,1.316811
0.5388886,4.8642054,-0.14990065,0.04107937,0.11524879,-4.8841715,-8.178593,1.316811
0.53897166,4.864159,-0.15203118,0.0251004,0.11737932,-4.8937483,-8.101978,1.2593501
0.5390522,4.864113,-0.15203118,0.0251004,0.11737932,-4.8937483,-8.101978,1.2593501
0.53913075,4.8640738,-0.1541617,0.008056169,0.120575115,-4.879383,-8.0684595,1.2401965
0.5392021,4.864032,-0.1541617,0.008056169,0.120575115,-4.879383,-8.0684595,1.2401965
0.5392034,4.863941,-0.1573575,-0.011118591,0.12803197,-4.7740383,-8.063671,1.2641385
0.5392053,4.863851,-0.1573575,-0.011118591,0.12803197,-4.7740383,-8.063671,1.2641385
0.5392184,4.863779,-0.16055329,-0.030293351,0.13548881,-4.7644615,-8.082825,1.283292
0.5392318,4.8637075,-0.16055329,-0.030293351,0.13548881,-4.7644615,-8.082825,1.283292
0.539248,4.8636475,-0.16374908,-0.050533377,0.13974987,-4.606444,-8.034941,1.3311762
0.5392647,4.8635874,-0.16374908,-0.050533377,0.13974987,-4.606444,-8.034941,1.3311762
0.53926307,4.8634906,-0.16694488,-0.06864287,0.14720672,-4.4196963,-8.010999,1.2593501
0.5392618,4.8633957,-0.16694488,-0.06864287,0.14720672,-4.4196963,-8.010999,1.2593501
0.53926474,4.86331,-0.17333646,-0.08355658,0.15146779,-4.3047748,-7.967903,1.283292
0.53926796,4.8632226,-0.17333646,-0.08355658,0.15146779,-4.3047748,-7.967903,1.283292
0.5392691,4.8631372,-0.17866279,-0.095274486,0.15146779,-4.0414124,-7.943961,1.3072342
0.53927046,4.8630524,-0.17866279,-0.095274486,0.15146779,-4.0414124,-7.943961,1.3072342
0.5392691,4.8629684,-0.18611965,-0.10060081,0.14720672,-3.8977604,-7.943961,1.3599066
0.539268,4.862884,-0.18611965,-0.10060081,0.14720672,-3.8977604,-7.943961,1.3599066
0.5392544,4.8627763,-0.19251123,-0.09953554,0.13974987,-3.9025488,-7.9822683,1.2785037
0.5392408,4.862669,-0.19251123,-0.09953554,0.13974987,-3.9025488,-7.9822683,1.2785037
0.5392128,4.862526,-0.19996808,-0.09420922,0.1269667,-3.8786068,-7.943961,1.1540052
0.53918475,4.862384,-0.19996808,-0.09420922,0.1269667,-3.8786068,-7.943961,1.1540052
0.5391428,4.862236,-0.20955546,-0.0856871,0.11098773,-3.8402996,-8.0684595,1.2258313
0.5391008,4.8620877,-0.20955546,-0.0856871,0.11098773,-3.8402996,-8.0684595,1.2258313
0.5390423,4.8619246,-0.22020811,-0.07396919,0.09181297,-3.8115692,-8.149862,1.2593501
0.53898364,4.8617616,-0.22020811,-0.07396919,0.09181297,-3.8115692,-8.149862,1.2593501
0.538901,4.8615685,-0.22766495,-0.062251285,0.07263821,-3.8115692,-8.298303,1.3120226
0.5388342,4.861412,-0.22766495,-0.062251285,0.07263821,-3.8115692,-8.298303,1.3120226
0.5387435,4.8612175,-0.23405655,-0.04627232,0.054528717,-3.763685,-8.365341,1.3072342
0.5386528,4.8610234,-0.23405655,-0.04627232,0.054528717,-3.763685,-8.365341,1.3072342
0.5385439,4.8608136,-0.2383176,-0.028162822,0.033223428,-3.7588966,-8.461109,1.3311762
0.5384351,4.860604,-0.2383176,-0.028162822,0.033223428,-3.7588966,-8.461109,1.3311762
0.53830695,4.86038,-0.24151339,-0.007922798,0.009787609,-3.7780502,-8.537724,1.3694834
0.53817916,4.860157,-0.24151339,-0.007922798,0.009787609,-3.7780502,-8.537724,1.3694834
0.5380313,4.859921,-0.24151339,0.016578285,-0.014713474,-3.7732618,-8.580819,1.4030021
0.5378834,4.8596845,-0.24151339,0.016578285,-0.014713474,-3.7732618,-8.580819,1.4030021
0.53771526,4.859429,-0.23938286,0.04214463,-0.03814929,-3.8594532,-8.63828,1.3694834
0.537547,4.859174,-0.23938286,0.04214463,-0.03814929,-3.8594532,-8.63828,1.3694834
0.53735715,4.8589005,-0.23618707,0.06771098,-0.062650375,-3.9839516,-8.652645,1.3359646
0.5371669,4.8586273,-0.23618707,0.06771098,-0.062650375,-3.9839516,-8.652645,1.3359646
0.5369555,4.85833,-0.23192601,0.09434259,-0.08715145,-4.098873,-8.7292595,1.2689269
0.5369555,4.85833,-0.23192601,0.09434259,-0.08715145,-4.098873,-8.7292595,1.2689269
0.5364826,4.8576994,-0.22766495,0.11990894,-0.11165254,-4.19943,-8.734048,1.2737153
0.5362501,4.857391,-0.22766495,0.11990894,-0.11165254,-4.19943,-8.734048,1.2737153
0.5360021,4.8570733,-0.2234039,0.14334476,-0.1340231,-4.390966,-8.772355,1.2689269
0.5357482,4.856749,-0.2234039,0.14334476,-0.1340231,-4.390966,-8.772355,1.2689269
0.5354786,4.8563776,-0.21807757,0.16358478,-0.15426312,-4.4963107,-8.743625,1.1204864
0.53522164,4.8560243,-0.21807757,0.16358478,-0.15426312,-4.4963107,-8.743625,1.1204864
0.53493375,4.8556714,-0.21381652,0.17849848,-0.17237261,-4.5537715,-8.7292595,1.2066777
0.53465706,4.8553333,-0.21381652,0.17849848,-0.17237261,-4.5537715,-8.7292595,1.2066777
0.53436494,4.854974,-0.2084902,0.19021639,-0.18622105,-4.697424,-8.724471,1.1779473
0.53407735,4.8546205,-0.2084902,0.19021639,-0.18622105,-4.697424,-8.724471,1.1779473
0.5337732,4.8542523,-0.20209861,0.1987385,-0.19900422,-4.8985367,-8.738836,1.1923125
0.5334588,4.853874,-0.20209861,0.1987385,-0.19900422,-4.8985367,-8.738836,1.1923125
0.5331756,4.853456,-0.19570702,0.2051301,-0.21072213,-5.0421886,-8.743625,1.1444284
0.5328969,4.8530464,-0.19570702,0.2051301,-0.21072213,-5.0421886,-8.743625,1.1444284
0.5327996,4.852634,-0.18931544,0.20939115,-0.21817899,-5.2528787,-8.676587,1.163582
0.532702,4.852208,-0.18931544,0.20939115,-0.21817899,-5.2528787,-8.676587,1.163582
0.5326246,4.8518195,-0.18292385,0.21258694,-0.22137478,-5.449203,-8.700529,1.1013328
0.5325485,4.8514333,-0.18292385,0.21258694,-0.22137478,-5.449203,-8.700529,1.1013328
0.5324793,4.8510575,-0.17866279,0.21365221,-0.22137478,-5.616797,-8.714894,1.067814
0.5324108,4.850682,-0.17866279,0.21365221,-0.22137478,-5.616797,-8.714894,1.067814
0.53235817,4.850337,-0.17333646,0.21045642,-0.21711372,-5.803545,-8.710106,1.1013328
0.53230566,4.8499928,-0.17333646,0.21045642,-0.21711372,-5.803545,-8.710106,1.1013328
0.53226596,4.84966,-0.16907541,0.20406483,-0.20433055,-5.932832,-8.734048,1.091756
0.5322257,4.849324,-0.16907541,0.20406483,-0.20433055,-5.932832,-8.734048,1.091756
0.532202,4.8490124,-0.16481435,0.19447745,-0.18941684,-6.0142345,-8.6574335,1.0965444
0.5321779,4.8486977,-0.16481435,0.19447745,-0.18941684,-6.0142345,-8.6574335,1.0965444
0.5321673,4.84839,-0.16055329,0.18275954,-0.17130736,-6.129156,-8.714894,1.0342951
0.5321568,4.8480797,-0.16055329,0.18275954,-0.17130736,-6.129156,-8.714894,1.0342951
0.53216046,4.847772,-0.15522698,0.1689111,-0.15000206,-6.1530986,-8.671799,0.93852705
0.5321643,4.8474655,-0.15522698,0.1689111,-0.15000206,-6.1530986,-8.671799,0.93852705
0.53219044,4.847185,-0.15096591,0.15186687,-0.12976204,-6.2249246,-8.6574335,0.9911995
0.53221667,4.8469057,-0.15096591,0.15186687,-0.12976204,-6.2249246,-8.6574335,0.9911995
0.5322628,4.8466454,-0.14777012,0.12949632,-0.107391484,-6.26802,-8.700529,1.0055647
0.53230894,4.8463864,-0.14777012,0.12949632,-0.107391484,-6.26802,-8.700529,1.0055647
0.5323776,4.846156,-0.1456396,0.104995236,-0.08395566,-6.2632318,-8.6813755,1.067814
0.53244656,4.8459253,-0.1456396,0.104995236,-0.08395566,-6.2632318,-8.6813755,1.067814
0.5325339,4.8457117,-0.14244379,0.07729836,-0.060519844,-6.253655,-8.671799,1.0342951
0.5326213,4.845498,-0.14244379,0.07729836,-0.060519844,-6.253655,-8.671799,1.0342951
0.5327312,4.845313,-0.139248,0.04853622,-0.034953497,-6.2584434,-8.75799,1.0869676
0.53284156,4.8451276,-0.139248,0.04853622,-0.034953497,-6.2584434,-8.75799,1.0869676
0.53297365,4.8449697,-0.1360522,0.017643549,-0.009387151,-6.220136,-8.700529,1.1013328
0.5331058,4.844812,-0.1360522,0.017643549,-0.009387151,-6.220136,-8.700529,1.1013328
0.53325593,4.844674,-0.13392168,-0.016444914,0.014048667,-6.129156,-8.743625,1.091756
0.53340614,4.844537,-0.13392168,-0.016444914,0.014048667,-6.129156,-8.743625,1.091756
0.5335729,4.8444223,-0.13072589,-0.052663904,0.03641922,-6.0477533,-8.791509,1.091756
0.53374,4.8443084,-0.13072589,-0.052663904,0.03641922,-6.0477533,-8.791509,1.091756
0.5339204,4.8442035,-0.12539956,-0.08888289,0.0609203,-5.932832,-8.748413,1.0103531
0.53410065,4.8440986,-0.12539956,-0.08888289,0.0609203,-5.932832,-8.748413,1.0103531
0.53430927,4.8440456,-0.121138506,-0.122971356,0.08542138,-5.837064,-8.7532015,1.1252748
0.5345398,4.8439875,-0.121138506,-0.122971356,0.08542138,-5.837064,-8.7532015,1.1252748
0.53474534,4.843957,-0.11794271,-0.15919036,0.1088572,-5.717354,-8.734048,1.1109096
0.53496486,4.8439255,-0.11794271,-0.15919036,0.1088572,-5.717354,-8.734048,1.1109096
0.5352097,4.8439403,-0.11474692,-0.19221355,0.13229302,-5.568913,-8.576031,1.1492168
0.5354546,4.843955,-0.11474692,-0.19221355,0.13229302,-5.568913,-8.576031,1.1492168
0.5356994,4.843935,-0.11048587,-0.22417149,0.15466358,-5.391742,-8.623915,1.0630256
0.5359441,4.843914,-0.11048587,-0.22417149,0.15466358,-5.391742,-8.623915,1.0630256
0.5361999,4.84404,-0.107290074,-0.25293362,0.17596887,-5.267244,-8.604761,1.1875241
0.53645605,4.8441653,-0.107290074,-0.25293362,0.17596887,-5.267244,-8.604761,1.1875241
0.5365335,4.844329,-0.106224805,-0.27636945,0.1962089,-5.094861,-8.571242,1.1779473
0.53660846,4.84449,-0.106224805,-0.27636945,0.1962089,-5.094861,-8.571242,1.1779473
0.5366427,4.84459,-0.106224805,-0.29447892,0.21218786,-4.879383,-8.6095495,1.1683705
0.53667676,4.844689,-0.106224805,-0.29447892,0.21218786,-4.879383,-8.6095495,1.1683705
0.53672343,4.8447943,-0.106224805,-0.30832738,0.22710156,-4.7644615,-8.614338,1.1731589
0.53676975,4.8449,-0.106224805,-0.30832738,0.22710156,-4.7644615,-8.614338,1.1731589
0.5368267,4.845013,-0.10515954,-0.31791475,0.23881947,-4.654328,-8.585608,1.1779473
0.53688353,4.8451266,-0.10515954,-0.31791475,0.23881947,-4.654328,-8.585608,1.1779473
0.5369484,4.8452463,-0.104094274,-0.32324108,0.24734159,-4.55856,-8.628703,1.1971009
0.5370133,4.8453646,-0.104094274,-0.32324108,0.24734159,-4.55856,-8.628703,1.1971009
