Pitch,Roll,Gyro_X,Gyro_Y,Gyro_Z,Accel_X,Accel_Y,Accel_Z
6.2567964,4.708002,0.082327,0.013382491,0.023636047,1.0103531,-9.519346,0.21068975
6.256667,4.7081575,0.087653324,0.009121433,0.023636047,1.0295067,-9.485827,0.18674773
6.2565804,4.70825,0.091914386,0.00592564,0.02683184,1.0055647,-9.509769,0.090979666
6.2565804,4.70825,0.091914386,0.00592564,0.02683184,1.0055647,-9.509769,0.090979666
6.256348,4.7085037,0.0972407,0.0016645822,0.032158162,1.0295067,-9.528923,0.1436521
6.256264,4.708612,0.0972407,0.0016645822,0.032158162,1.0295067,-9.528923,0.1436521
6.2561674,4.70873,0.102567025,-0.0025964756,0.03854975,1.0055647,-9.500193,0.062249243
6.2560673,4.708853,0.102567025,-0.0025964756,0.03854975,1.0055647,-9.500193,0.062249243
6.2559776,4.70896,0.106828086,-0.0068575335,0.0460066,1.0247183,-9.524135,-0.0047884034
6.2559776,4.70896,0.106828086,-0.0068575335,0.0460066,1.0247183,-9.524135,-0.0047884034
6.255793,4.7091885,0.11002388,-0.010053327,0.054528717,1.0247183,-9.504981,0.019153614
6.2557034,4.7093143,0.11002388,-0.010053327,0.054528717,1.0247183,-9.504981,0.019153614
6.255622,4.7094383,0.11321967,-0.01324912,0.06305083,1.067814,-9.44752,-0.009576807
6.255557,4.7095366,0.11321967,-0.01324912,0.06305083,1.067814,-9.44752,-0.009576807
6.255491,4.709662,0.11641546,-0.016444914,0.07263821,1.0199299,-9.437943,0.023942016
6.255491,4.709662,0.11641546,-0.016444914,0.07263821,1.0199299,-9.437943,0.023942016
6.2553635,4.7099195,0.122807056,-0.019640706,0.08009506,1.0007763,-9.41879,0.07182605
6.2553067,4.710059,0.122807056,-0.019640706,0.08009506,1.0007763,-9.41879,0.07182605
6.2552567,4.710197,0.12813337,-0.021771235,0.088617176,1.0247183,-9.437943,0.038307227
6.2552075,4.7103333,0.12813337,-0.021771235,0.088617176,1.0247183,-9.437943,0.038307227
6.255168,4.710477,0.13452496,-0.0228365,0.09926982,1.0247183,-9.466674,0.033518825
6.255128,4.710623,0.13452496,-0.0228365,0.09926982,1.0247183,-9.466674,0.033518825
6.2550983,4.7107673,0.13985129,-0.0228365,0.10992247,0.9959879,-9.490616,0.01436521
6.255069,4.7109118,0.13985129,-0.0228365,0.10992247,0.9959879,-9.490616,0.01436521
6.2550488,4.7110567,0.14304708,-0.023901764,0.119509846,1.0151415,-9.442732,0
6.2550287,4.711202,0.14304708,-0.023901764,0.119509846,1.0151415,-9.442732,0
6.255018,4.7113543,0.14624287,-0.023901764,0.12909722,1.0295067,-9.500193,0.023942016
6.255008,4.711506,0.14624287,-0.023901764,0.12909722,1.0295067,-9.500193,0.023942016
6.255008,4.7116613,0.15050393,-0.023901764,0.13974987,1.0295067,-9.471462,0.023942016
6.2550087,4.7118177,0.15050393,-0.023901764,0.13974987,1.0295067,-9.471462,0.023942016
6.2550197,4.7119827,0.15369973,-0.02496703,0.14933725,0.9768343,-9.466674,0.062249243
6.255031,4.7121487,0.15369973,-0.02496703,0.14933725,0.9768343,-9.466674,0.062249243
6.2550545,4.712326,0.15583025,-0.02496703,0.15892464,1.0103531,-9.442732,0.11971009
6.255078,4.712503,0.15583025,-0.02496703,0.15892464,1.0103531,-9.442732,0.11971009
6.2551064,4.712662,0.15796077,-0.0228365,0.16851202,0.9959879,-9.476251,0.009576807
6.255135,4.712821,0.15796077,-0.0228365,0.16851202,0.9959879,-9.476251,0.009576807
6.255173,4.7129736,0.15689552,-0.020705972,0.1780994,0.9672575,-9.476251,-0.01436521
6.2552114,4.7131257,0.15689552,-0.020705972,0.1780994,0.9672575,-9.476251,-0.01436521
6.255259,4.713275,0.15263446,-0.017510178,0.18768677,1.0151415,-9.490616,-0.009576807
6.255307,4.7134247,0.15263446,-0.017510178,0.18768677,1.0151415,-9.490616,-0.009576807
6.2553616,4.7135606,0.1451776,-0.015379649,0.19407836,1.0247183,-9.461885,-0.033518825
6.2554154,4.713697,0.1451776,-0.015379649,0.19407836,1.0247183,-9.461885,-0.033518825
6.255475,4.71383,0.13985129,-0.012183856,0.19940469,1.0151415,-9.490616,-0.023942016
6.2555346,4.713962,0.13985129,-0.012183856,0.19940469,1.0151415,-9.490616,-0.023942016
6.2555976,4.7140856,0.13132916,-0.008988062,0.20260048,0.9720459,-9.495404,-0.023942016
6.2556605,4.714209,0.13132916,-0.008988062,0.20260048,0.9720459,-9.495404,-0.023942016
6.2557254,4.7143316,0.12174179,-0.0068575335,0.204731,0.9816227,-9.437943,0.019153614
6.255791,4.7144547,0.12174179,-0.0068575335,0.204731,0.9816227,-9.437943,0.019153614
6.2558575,4.714564,0.11215441,-0.00366174,0.20686153,0.9672575,-9.404425,0.009576807
6.2559237,4.714673,0.11215441,-0.00366174,0.20686153,0.9672575,-9.404425,0.009576807
6.2559896,4.7147765,0.10150176,0.0005993177,0.20579627,1.0295067,-9.390059,0.033518825
6.256056,4.71488,0.10150176,0.0005993177,0.20579627,1.0295067,-9.390059,0.033518825
6.256121,4.714982,0.09084912,0.0048603755,0.20366573,1.0869676,-9.308656,0.090979666
6.256186,4.715084,0.09084912,0.0048603755,0.20366573,1.0869676,-9.308656,0.090979666
6.2562485,4.7151766,0.08019647,0.008056169,0.20046994,1.0869676,-9.227253,0.095768064
6.2563105,4.715268,0.08019647,0.008056169,0.20046994,1.0869676,-9.227253,0.095768064
6.2563677,4.715362,0.06954383,0.011251962,0.19194783,1.0726024,-9.179369,0.17238252
6.2564254,4.7154555,0.06954383,0.011251962,0.19194783,1.0726024,-9.179369,0.17238252
6.2564764,4.715545,0.05995645,0.01551302,0.18342571,1.1013328,-9.203311,0.21547815
6.2565274,4.7156343,0.05995645,0.01551302,0.18342571,1.1013328,-9.203311,0.21547815
6.2565675,4.7157125,0.049303804,0.021904606,0.17277306,1.1013328,-9.174581,0.21068975
6.2566075,4.71579,0.049303804,0.021904606,0.17277306,1.1013328,-9.174581,0.21068975
6.256643,4.715864,0.03865116,0.0251004,0.16425095,1.1252748,-9.14585,0.2681506
6.2566776,4.715938,0.03865116,0.0251004,0.16425095,1.1252748,-9.14585,0.2681506
6.2567024,4.716001,0.02906378,0.028296193,0.15466358,1.1348516,-9.160215,0.25857377
6.256727,4.7160635,0.02906378,0.028296193,0.15466358,1.1348516,-9.160215,0.25857377
6.256746,4.71612,0.019476399,0.030426722,0.14720672,1.1109096,-9.155427,0.2777274
6.256765,4.716176,0.019476399,0.030426722,0.14720672,1.1109096,-9.155427,0.2777274
6.256773,4.716222,0.012019549,0.031491987,0.1386846,1.0773908,-9.251195,0.24420857
6.2567816,4.716267,0.012019549,0.031491987,0.1386846,1.0773908,-9.251195,0.24420857
6.256782,4.7163043,0.005627962,0.032557253,0.13229302,1.0630256,-9.284714,0.22505496
6.256783,4.716341,0.005627962,0.032557253,0.13229302,1.0630256,-9.284714,0.22505496
6.256779,4.7163696,-0.0018288894,0.031491987,0.12803197,1.0869676,-9.308656,0.22505496
6.256775,4.7163982,-0.0018288894,0.031491987,0.12803197,1.0869676,-9.308656,0.22505496
6.25677,4.716421,-0.008220476,0.030426722,0.1269667,1.0486604,-9.337387,0.22026655
6.2567654,4.716443,-0.008220476,0.030426722,0.1269667,1.0486604,-9.337387,0.22026655
6.256756,4.716449,-0.013546798,0.028296193,0.1269667,1.0582372,-9.3421755,0.14844051
6.2567463,4.7164545,-0.013546798,0.028296193,0.1269667,1.0582372,-9.3421755,0.14844051
6.2567434,4.716464,-0.018873122,0.026165664,0.13016249,1.0726024,-9.361329,0.20590134
6.2567406,4.7164726,-0.018873122,0.026165664,0.13016249,1.0726024,-9.361329,0.20590134
6.25674,4.716481,-0.02313418,0.022969872,0.13122776,1.091756,-9.385271,0.23463176
6.25674,4.716489,-0.02313418,0.022969872,0.13122776,1.091756,-9.385271,0.23463176
6.2567396,4.7164903,-0.024199443,0.018708814,0.13335828,1.115698,-9.385271,0.20111294
6.2567387,4.7164917,-0.024199443,0.018708814,0.13335828,1.115698,-9.385271,0.20111294
6.256742,4.7164936,-0.025264706,0.01551302,0.13655408,1.0821792,-9.399636,0.20590134
6.256745,4.7164955,-0.025264706,0.01551302,0.13655408,1.0821792,-9.399636,0.20590134
6.2567563,4.7165065,-0.02313418,0.011251962,0.14081514,1.115698,-9.423578,0.2633622
6.2567673,4.7165174,-0.02313418,0.011251962,0.14081514,1.115698,-9.423578,0.2633622
6.2567797,4.7165275,-0.018873122,0.00592564,0.1450762,1.115698,-9.428367,0.22505496
6.2567925,4.716537,-0.018873122,0.00592564,0.1450762,1.115698,-9.428367,0.22505496
6.2568097,4.71655,-0.014612063,-0.00046594674,0.15040252,1.1013328,-9.476251,0.21547815
6.256827,4.7165627,-0.014612063,-0.00046594674,0.15040252,1.1013328,-9.476251,0.21547815
6.25685,4.716582,-0.0114162695,-0.0068575335,0.15466358,1.0726024,-9.490616,0.22984336
6.2568727,4.7166004,-0.0114162695,-0.0068575335,0.15466358,1.0726024,-9.490616,0.22984336
6.256899,4.7166233,-0.0050246827,-0.015379649,0.15785937,1.0486604,-9.533711,0.20111294
6.256922,4.716644,-0.0050246827,-0.015379649,0.15785937,1.0486604,-9.533711,0.20111294
6.2569523,4.7166743,0.0024321685,-0.023901764,0.16318569,1.0726024,-9.548077,0.22026655
6.256983,4.716705,0.0024321685,-0.023901764,0.16318569,1.0726024,-9.548077,0.22026655
6.2570176,4.7167397,0.008823755,-0.03242388,0.16851202,1.0486604,-9.591172,0.20111294
6.2570524,4.7167745,0.008823755,-0.03242388,0.16851202,1.0486604,-9.591172,0.20111294
6.2570877,4.7168055,0.016280606,-0.04201126,0.17277306,1.0726024,-9.615114,0.1388637
6.257123,4.716837,0.016280606,-0.04201126,0.17277306,1.0726024,-9.615114,0.1388637
6.2571597,4.7168593,0.02160693,-0.050533377,0.17703412,1.1444284,-9.619903,0.05746084
6.257197,4.7168818,0.02160693,-0.050533377,0.17703412,1.1444284,-9.619903,0.05746084
6.2572384,4.716922,0.025867987,-0.060120758,0.17916466,1.091756,-9.639056,0.1388637
6.25728,4.716962,0.025867987,-0.060120758,0.17916466,1.091756,-9.639056,0.1388637
6.2573233,4.7169952,0.031194309,-0.06757761,0.18342571,1.1252748,-9.653421,0.07182605
6.257367,4.717029,0.031194309,-0.06757761,0.18342571,1.1252748,-9.653421,0.07182605
6.2574162,4.7170653,0.03545537,-0.07396919,0.18875204,1.067814,-9.763555,0.05746084
6.2574663,4.717102,0.03545537,-0.07396919,0.18875204,1.067814,-9.763555,0.05746084
6.2575192,4.717147,0.039716423,-0.08249131,0.1930131,1.0390835,-9.80665,0.090979666
6.257571,4.717191,0.039716423,-0.08249131,0.1930131,1.0390835,-9.80665,0.090979666
6.2576284,4.7172356,0.045042746,-0.08994816,0.19727415,1.0630256,-9.844957,0.05746084
6.257685,4.71728,0.045042746,-0.08994816,0.19727415,1.0630256,-9.844957,0.05746084
6.257746,4.7173142,0.05036907,-0.09633975,0.20046994,1.0821792,-9.868899,-0.033518825
6.2578073,4.7173486,0.05036907,-0.09633975,0.20046994,1.0821792,-9.868899,-0.033518825
6.2578692,4.717398,0.055695392,-0.10060081,0.20260048,1.0869676,-9.902418,0.02873042
6.257931,4.7174478,0.055695392,-0.10060081,0.20260048,1.0869676,-9.902418,0.02873042
6.2579937,4.717501,0.061021715,-0.10486186,0.20260048,1.1444284,-9.902418,0.019153614
6.2580557,4.7175546,0.061021715,-0.10486186,0.20260048,1.1444284,-9.902418,0.019153614
6.2581196,4.717627,0.06634804,-0.106992394,0.20366573,1.1061212,-9.892841,0.10534488
6.258184,4.7176995,0.06634804,-0.106992394,0.20366573,1.1061212,-9.892841,0.10534488
6.2582493,4.7177896,0.07167436,-0.110188186,0.20153521,1.0199299,-9.916783,0.17238252
6.258314,4.7178793,0.07167436,-0.110188186,0.20153521,1.0199299,-9.916783,0.17238252
6.2583833,4.7179885,0.07700068,-0.11125345,0.19940469,1.0199299,-9.974244,0.2633622
6.2584524,4.718097,0.07700068,-0.11125345,0.19940469,1.0199299,-9.974244,0.2633622
6.2585177,4.7182083,0.082327,-0.11338398,0.19727415,0.9959879,-10.031705,0.23463176
6.2585826,4.7183185,0.082327,-0.11338398,0.19727415,0.9959879,-10.031705,0.23463176
6.2586427,4.7184258,0.08552279,-0.11551451,0.19514363,1.0007763,-10.084377,0.19632454
6.2587023,4.7185326,0.08552279,-0.11551451,0.19514363,1.0007763,-10.084377,0.19632454
6.258755,4.71864,0.089783855,-0.11764504,0.18981731,0.9864111,-10.160992,0.17238252
6.258808,4.718747,0.089783855,-0.11764504,0.18981731,0.9864111,-10.160992,0.17238252
6.2588544,4.718855,0.09084912,-0.11977556,0.18342571,0.93852705,-10.151415,0.16759412
6.2589006,4.718963,0.09084912,-0.11977556,0.18342571,0.93852705,-10.151415,0.16759412
6.2589393,4.7190623,0.091914386,-0.12084083,0.1780994,0.89543146,-10.189722,0.11492168
6.2589774,4.7191615,0.091914386,-0.12084083,0.1780994,0.89543146,-10.189722,0.11492168
6.25901,4.7192507,0.089783855,-0.122971356,0.17277306,0.8571242,-10.156203,0.08140286
6.259042,4.7193403,0.089783855,-0.122971356,0.17277306,0.8571242,-10.156203,0.08140286
6.2590694,4.719439,0.08658806,-0.1251019,0.16638148,0.81881696,-10.208876,0.1340753
6.259097,4.7195377,0.08658806,-0.1251019,0.16638148,0.81881696,-10.208876,0.1340753
6.259116,4.7196083,0.08126174,-0.12723242,0.1599899,0.79487497,-10.223241,0.04309563
6.2591357,4.719679,0.08126174,-0.12723242,0.1599899,0.79487497,-10.223241,0.04309563
6.259148,4.7197328,0.074870154,-0.12829769,0.15146779,0.8283938,-10.228029,0
6.2591605,4.7197866,0.074870154,-0.12829769,0.15146779,0.8283938,-10.228029,0
6.259177,4.719804,0.06634804,-0.13042821,0.14294566,0.79966336,-10.232818,-0.12928689
6.2591944,4.71982,0.06634804,-0.13042821,0.14294566,0.79966336,-10.232818,-0.12928689
6.259203,4.719824,0.05782592,-0.13042821,0.13122776,0.7565677,-10.242394,-0.1388637
6.259212,4.7198277,0.05782592,-0.13042821,0.13122776,0.7565677,-10.242394,-0.1388637
6.259199,4.7198353,0.049303804,-0.12936294,0.118444584,0.8283938,-10.199299,-0.095768064
6.259186,4.719844,0.049303804,-0.12936294,0.118444584,0.8283938,-10.199299,-0.095768064
6.259154,4.719844,0.039716423,-0.12723242,0.104596145,0.7757214,-10.175357,-0.07182605
6.2591314,4.719844,0.039716423,-0.12723242,0.104596145,0.7757214,-10.175357,-0.07182605
6.259088,4.7198267,0.030129045,-0.121906094,0.09181297,0.7134721,-10.218452,-0.076614454
6.259058,4.719815,0.030129045,-0.121906094,0.09181297,0.7134721,-10.218452,-0.076614454
6.259003,4.719795,0.02160693,-0.11444924,0.07796454,0.62728083,-10.271125,-0.033518825
6.259003,4.719795,0.02160693,-0.11444924,0.07796454,0.62728083,-10.271125,-0.033518825
6.258932,4.7196784,0.012019549,-0.105927125,0.06624663,0.59376204,-10.295067,-0.15801731
6.258896,4.7196193,0.012019549,-0.105927125,0.06624663,0.59376204,-10.295067,-0.15801731
6.2588415,4.7195525,0.001366904,-0.09847028,0.052398186,0.6368576,-10.376471,-0.16280572
6.2587867,4.7194858,0.001366904,-0.09847028,0.052398186,0.6368576,-10.376471,-0.16280572
6.258737,4.7193956,-0.008220476,-0.08994816,0.03641922,0.5650316,-10.424355,-0.21547815
6.258687,4.7193055,-0.008220476,-0.08994816,0.03641922,0.5650316,-10.424355,-0.21547815
6.2586274,4.719205,-0.01674259,-0.08142605,0.021505518,0.51714754,-10.496181,-0.19153613
6.258568,4.7191043,-0.01674259,-0.08142605,0.021505518,0.51714754,-10.496181,-0.19153613
6.258498,4.7189937,-0.024199443,-0.07183866,0.0065918155,0.50757074,-10.529699,-0.20590134
6.258428,4.718883,-0.024199443,-0.07183866,0.0065918155,0.50757074,-10.529699,-0.20590134
6.2583456,4.718765,-0.031656295,-0.064381815,-0.009387151,0.5554548,-10.58716,-0.272939
6.2582626,4.7186465,-0.031656295,-0.064381815,-0.009387151,0.5554548,-10.58716,-0.272939
6.2581325,4.7185388,-0.03698262,-0.059055492,-0.027496647,0.6512229,-10.5919485,-0.19632454
6.2580028,4.7184315,-0.03698262,-0.059055492,-0.027496647,0.6512229,-10.5919485,-0.19632454
6.257878,4.7183037,-0.042308938,-0.051598642,-0.04773667,0.5363012,-10.58716,-0.22984336
6.257753,4.7181764,-0.042308938,-0.051598642,-0.04773667,0.5363012,-10.58716,-0.22984336
6.25765,4.7180314,-0.04763526,-0.04201126,-0.0679767,0.36391866,-10.582372,-0.20111294
6.257547,4.717886,-0.04763526,-0.04201126,-0.0679767,0.36391866,-10.582372,-0.20111294
6.2574763,4.7177343,-0.05189632,-0.03455441,-0.08928198,0.21547815,-10.625467,-0.24420857
6.2574058,4.7175827,-0.05189632,-0.03455441,-0.08928198,0.21547815,-10.625467,-0.24420857
6.2573347,4.7174306,-0.05509211,-0.030293351,-0.106326215,0.19153613,-10.721235,-0.17717093
6.2572637,4.7172785,-0.05509211,-0.030293351,-0.106326215,0.19153613,-10.721235,-0.17717093
6.257183,4.7171254,-0.057222642,-0.026032293,-0.122305185,0.17717093,-10.793061,-0.18195933
6.2571025,4.716973,-0.057222642,-0.026032293,-0.122305185,0.17717093,-10.793061,-0.18195933
6.256986,4.716813,-0.060418434,-0.0228365,-0.13934942,0.19632454,-10.912771,-0.32561144
6.2568707,4.716654,-0.060418434,-0.0228365,-0.13934942,0.19632454,-10.912771,-0.32561144
6.256757,4.716491,-0.06681002,-0.018575443,-0.15745892,0.10534488,-10.994174,-0.35434186
6.2566433,4.716329,-0.06681002,-0.018575443,-0.15745892,0.10534488,-10.994174,-0.35434186
6.256536,4.7161655,-0.075332135,-0.014314385,-0.17450315,-0.009576807,-11.123461,-0.35434186
6.256429,4.7160015,-0.075332135,-0.014314385,-0.17450315,-0.009576807,-11.123461,-0.35434186
6.256307,4.715831,-0.08385425,-0.011118591,-0.19261263,-0.04309563,-11.21444,-0.38307226
6.256185,4.71566,-0.08385425,-0.011118591,-0.19261263,-0.04309563,-11.21444,-0.38307226
6.256045,4.7154756,-0.09663743,-0.0025964756,-0.21072213,-0.22026655,-11.324574,-0.61770403
6.2559047,4.7152915,-0.09663743,-0.0025964756,-0.21072213,-0.22026655,-11.324574,-0.61770403
6.255746,4.7150908,-0.11261639,0.010186698,-0.22989689,-0.33518824,-11.473015,-0.7661445
6.255587,4.7148905,-0.11261639,0.010186698,-0.22989689,-0.33518824,-11.473015,-0.7661445
6.2554054,4.71467,-0.13285641,0.018708814,-0.25226745,-0.37828386,-11.592725,-0.8571242
6.2552233,4.7144494,-0.13285641,0.018708814,-0.25226745,-0.37828386,-11.592725,-0.8571242
6.2550116,4.714202,-0.15842277,0.022969872,-0.2778338,-0.40222588,-11.712435,-0.9672575
6.2548003,4.713954,-0.15842277,0.022969872,-0.2778338,-0.40222588,-11.712435,-0.9672575
6.254559,4.713679,-0.18611965,0.029361458,-0.30872646,-0.4165911,-11.69807,-0.9768343
6.2543173,4.713403,-0.18611965,0.029361458,-0.30872646,-0.4165911,-11.69807,-0.9768343
6.2540536,4.7131047,-0.21488178,0.038948838,-0.34174967,-0.4213795,-11.683704,-0.82360536
6.2537904,4.7128067,-0.21488178,0.038948838,-0.34174967,-0.4213795,-11.683704,-0.82360536
6.2534857,4.7124805,-0.24257866,0.05173201,-0.38222972,-0.35434186,-11.631032,-0.7565677
6.2531815,4.712155,-0.24257866,0.05173201,-0.38222972,-0.35434186,-11.631032,-0.7565677
6.2528358,4.7118125,-0.2649492,0.06771098,-0.4333624,-0.31124622,-11.535264,-0.59855044
6.2524905,4.7114706,-0.2649492,0.06771098,-0.4333624,-0.31124622,-11.535264,-0.59855044
6.2521033,4.7111197,-0.28412396,0.08475521,-0.48982143,-0.15801731,-11.568783,-0.35434186
6.2517176,4.71077,-0.28412396,0.08475521,-0.48982143,-0.15801731,-11.568783,-0.35434186
6.2512813,4.710426,-0.29477662,0.100734174,-0.5558678,-0.1340753,-11.573571,-0.23942018
6.2508416,4.710079,-0.29477662,0.100734174,-0.5558678,-0.1340753,-11.573571,-0.23942018
6.250329,4.709737,-0.29584187,0.116713144,-0.6346974,-0.19632454,-11.583148,-0.2681506
6.2497516,4.7093515,-0.29584187,0.116713144,-0.6346974,-0.19632454,-11.583148,-0.2681506
6.2492285,4.709058,-0.29158083,0.13375737,-0.7156575,-0.38307226,-11.717223,-0.29688102
6.248651,4.7087345,-0.29158083,0.13375737,-0.7156575,-0.38307226,-11.717223,-0.29688102
6.2479787,4.708406,-0.2830587,0.14973634,-0.7955523,-0.56982,-11.908759,-0.45968673
6.2473054,4.7080774,-0.2830587,0.14973634,-0.7955523,-0.56982,-11.908759,-0.45968673
6.246546,4.7077546,-0.27347133,0.16145425,-0.878643,-0.6991069,-12.119449,-0.56982
6.2457867,4.7074327,-0.27347133,0.16145425,-0.878643,-0.6991069,-12.119449,-0.56982
6.244945,4.70712,-0.2649492,0.17210689,-0.9606683,-0.7374141,-12.373235,-0.60812724
6.244104,4.706807,-0.2649492,0.17210689,-0.9606683,-0.7374141,-12.373235,-0.60812724
6.243181,4.706504,-0.25855762,0.18169427,-1.043759,-0.79966336,-12.531252,-0.61291564
6.2422585,4.706201,-0.25855762,0.18169427,-1.043759,-0.79966336,-12.531252,-0.61291564
6.241263,4.705912,-0.25536183,0.19021639,-1.1257843,-0.8283938,-12.828133,-0.51714754
6.2402644,4.705623,-0.25536183,0.19021639,-1.1257843,-0.8283938,-12.828133,-0.51714754
6.239188,4.705347,-0.25216603,0.20086904,-1.208875,-0.8475474,-12.909535,-0.4213795
6.2381124,4.7050724,-0.25216603,0.20086904,-1.208875,-0.8475474,-12.909535,-0.4213795
6.2369456,4.7048078,-0.24470918,0.20299956,-1.2962266,-0.6607997,-13.038822,-0.34955344
6.235785,4.704545,-0.24470918,0.20299956,-1.2962266,-0.6607997,-13.038822,-0.34955344
6.2345324,4.7043114,-0.2351218,0.1987385,-1.3931657,-0.7230489,-13.062764,-0.18195933
6.233275,4.704077,-0.2351218,0.1987385,-1.3931657,-0.7230489,-13.062764,-0.18195933
6.2319098,4.7038903,-0.22020811,0.19021639,-1.4975616,-1.2162545,-13.220781,0.22984336
6.230544,4.7037034,-0.22020811,0.19021639,-1.4975616,-1.2162545,-13.220781,0.22984336
6.2290535,4.7035656,-0.19570702,0.17849848,-1.6051533,-1.4748282,-13.512875,0.81402856
6.227563,4.7034283,-0.19570702,0.17849848,-1.6051533,-1.4748282,-13.512875,0.81402856
6.2259593,4.703336,-0.16268381,0.17423743,-1.7052882,-1.5849615,-13.996503,1.2593501
6.224356,4.7032423,-0.16268381,0.17423743,-1.7052882,-1.5849615,-13.996503,1.2593501
6.2226577,4.703191,-0.122203775,0.17636795,-1.7990315,-1.8674773,-14.561535,1.484405
6.2209597,4.703139,-0.122203775,0.17636795,-1.7990315,-1.8674773,-14.561535,1.484405
6.219178,4.703124,-0.08065846,0.1838248,-1.8874484,-2.2840683,-15.279796,1.5179238
6.2173977,4.7031097,-0.08065846,0.1838248,-1.8874484,-2.2840683,-15.279796,1.5179238
6.215532,4.703124,-0.04443947,0.19341218,-1.9737349,-2.743755,-15.844827,1.3934253
6.213676,4.7031384,-0.04443947,0.19341218,-1.9737349,-2.743755,-15.844827,1.3934253
6.2117505,4.7031693,-0.018873122,0.2019343,-2.0514991,-3.2369606,-16.366762,1.1444284
6.209819,4.7032003,-0.018873122,0.2019343,-2.0514991,-3.2369606,-16.366762,1.1444284
6.2078238,4.7032385,-0.0071552116,0.21045642,-2.119676,-3.643975,-16.76899,1.043872
6.205833,4.703277,-0.0071552116,0.21045642,-2.119676,-3.643975,-16.76899,1.043872
6.2037745,4.703313,-0.010351005,0.21578273,-2.1793308,-3.8307228,-17.176003,1.0869676
6.20172,4.703349,-0.010351005,0.21578273,-2.1793308,-3.8307228,-17.176003,1.0869676
6.199607,4.7033777,-0.02313418,0.21365221,-2.236855,-3.7732618,-17.372328,1.340753
6.1974893,4.7034063,-0.02313418,0.21365221,-2.236855,-3.7732618,-17.372328,1.340753
6.195305,4.703421,-0.04017841,0.20406483,-2.3018363,-3.5769374,-17.391481,1.4556746
6.193127,4.703436,-0.04017841,0.20406483,-2.3018363,-3.5769374,-17.391481,1.4556746
6.190856,4.703436,-0.05935317,0.18275954,-2.3838615,-3.4332852,-17.290924,1.7286136
6.188587,4.703436,-0.05935317,0.18275954,-2.3838615,-3.4332852,-17.290924,1.7286136
6.186214,4.7034225,-0.077462666,0.1476058,-2.486127,-3.2561142,-17.190369,2.15957
6.1838307,4.703409,-0.077462666,0.1476058,-2.486127,-3.2561142,-17.190369,2.15957
6.1813216,4.7033873,-0.08811531,0.10179944,-2.6096976,-3.2082303,-16.859968,2.633622
6.178815,4.7033653,-0.08811531,0.10179944,-2.6096976,-3.2082303,-16.859968,2.633622
6.176157,4.703337,-0.091311105,0.054927804,-2.7535083,-3.1890767,-16.510414,2.801216
6.173502,4.7033086,-0.091311105,0.054927804,-2.7535083,-3.1890767,-16.510414,2.801216
6.1706824,4.70328,-0.08811531,0.00592564,-2.9154286,-3.0502129,-16.108189,2.9161377
6.1678658,4.703251,-0.08811531,0.00592564,-2.9154286,-3.0502129,-16.108189,2.9161377
6.164866,4.7032256,-0.08065846,-0.04201126,-3.090132,-2.8634653,-15.820885,3.0358477
6.1618724,4.7032,-0.08065846,-0.04201126,-3.090132,-2.8634653,-15.820885,3.0358477
6.158681,4.7031784,-0.07320161,-0.08888289,-3.2776184,-2.6384103,-15.682021,3.2225955
6.1554966,4.7031565,-0.07320161,-0.08888289,-3.2776184,-2.6384103,-15.682021,3.2225955
6.152099,4.7031384,-0.06467949,-0.13149348,-3.4821494,-2.432509,-15.547946,3.2369606
6.1487093,4.703119,-0.06467949,-0.13149348,-3.4821494,-2.432509,-15.547946,3.2369606
6.1451,4.703101,-0.057222642,-0.16877773,-3.695202,-2.27928,-15.308526,3.107674
6.141499,4.703082,-0.057222642,-0.16877773,-3.695202,-2.27928,-15.308526,3.107674
6.13767,4.7030635,-0.050831053,-0.2028662,-3.9157119,-2.111686,-15.131354,3.0262709
6.1338453,4.703044,-0.050831053,-0.2028662,-3.9157119,-2.111686,-15.131354,3.0262709
6.129693,4.7030244,-0.045504734,-0.23695466,-4.1468744,-1.9057846,-14.800955,3.0885203
6.1257243,4.703005,-0.045504734,-0.23695466,-4.1468744,-1.9057846,-14.800955,3.0885203
6.121433,4.702984,-0.04017841,-0.27210838,-4.383363,-1.6711528,-14.389153,3.0262709
6.117116,4.7029605,-0.04017841,-0.27210838,-4.383363,-1.6711528,-14.389153,3.0262709
6.112581,4.7029395,-0.032721557,-0.30726212,-4.6241126,-1.4030021,-13.8720045,3.040636
6.1080375,4.7029166,-0.032721557,-0.30726212,-4.6241126,-1.4030021,-13.8720045,3.040636
6.103259,4.7028923,-0.026329972,-0.34561163,-4.8659277,-1.2018893,-13.441049,3.0262709
6.098477,4.7028666,-0.026329972,-0.34561163,-4.8659277,-1.2018893,-13.441049,3.0262709
6.0934486,4.702839,-0.019938385,-0.38396114,-5.1066775,-1.0582372,-13.13459,3.2752678
6.088416,4.7028093,-0.019938385,-0.38396114,-5.1066775,-1.0582372,-13.13459,3.2752678
6.083158,4.7027802,-0.009285741,-0.42231068,-5.341036,-1.0199299,-12.861651,3.3566709
6.077895,4.7027483,-0.009285741,-0.42231068,-5.341036,-1.0199299,-12.861651,3.3566709
6.072402,4.702719,0.003497433,-0.46598652,-5.5668716,-0.7374141,-12.732365,3.5051112
6.06691,4.702687,0.003497433,-0.46598652,-5.5668716,-0.7374141,-12.732365,3.5051112
6.061202,4.7026544,0.015215342,-0.5085971,-5.78099,-0.5315128,-12.5982895,3.466804
6.0554953,4.7026176,0.015215342,-0.5085971,-5.78099,-0.5315128,-12.5982895,3.466804
6.049587,4.702579,0.024802722,-0.54268557,-5.976999,-0.40222588,-12.435484,3.3758245
6.043685,4.7025366,0.024802722,-0.54268557,-5.976999,-0.40222588,-12.435484,3.3758245
6.0376167,4.7024813,0.025867987,-0.5714477,-6.1538324,-0.50278234,-12.320562,3.2513258
6.0315437,4.7024217,0.025867987,-0.5714477,-6.1538324,-0.50278234,-12.320562,3.2513258
6.0253234,4.702339,0.018411135,-0.5991446,-6.3082957,-0.41180268,-11.9614315,2.7389667
6.0190983,4.702252,0.018411135,-0.5991446,-6.3082957,-0.41180268,-11.9614315,2.7389667
6.012561,4.7021275,0.001366904,-0.63216776,-6.4361277,-0.1340753,-11.506534,2.2122424
6.0064054,4.7020044,0.001366904,-0.63216776,-6.4361277,-0.1340753,-11.506534,2.2122424
5.9999685,4.701826,-0.029525764,-0.66838676,-6.542654,0.11971009,-10.927136,1.6567876
5.993545,4.701642,-0.029525764,-0.66838676,-6.542654,0.11971009,-10.927136,1.6567876
5.987044,4.701399,-0.07107108,-0.7078015,-6.630006,0.48362875,-10.204087,1.3311762
5.9805107,4.7011476,-0.07107108,-0.7078015,-6.630006,0.48362875,-10.204087,1.3311762
5.9739404,4.7008343,-0.120073244,-0.7440205,-6.700313,1.1061212,-9.260772,0.93852705
5.9739404,4.7008343,-0.120073244,-0.7440205,-6.700313,1.1061212,-9.260772,0.93852705
5.960557,4.700169,-0.175467,-0.77384794,-6.752511,1.8387469,-8.197746,0.7517793
5.953233,4.699748,-0.175467,-0.77384794,-6.752511,1.8387469,-8.197746,0.7517793
5.953233,4.699748,-0.175467,-0.77384794,-6.752511,1.8387469,-8.197746,0.7517793
5.9404244,4.69891,-0.23725234,-0.79515326,-6.7993827,2.60968,-7.335834,0.6799533
5.9334197,4.6983595,-0.30649453,-0.80154485,-6.836667,3.1028855,-6.751649,0.6895301
5.926365,4.697798,-0.30649453,-0.80154485,-6.836667,3.1028855,-6.751649,0.6895301
5.9194674,4.6971602,-0.38638934,-0.78769636,-6.8590374,3.371036,-6.373365,0.81881696
5.9125247,4.6965113,-0.38638934,-0.78769636,-6.8590374,3.371036,-6.373365,0.81881696
5.905081,4.6957107,-0.48013264,-0.76213,-6.863299,3.5625722,-6.277597,0.7661445
5.898903,4.6950393,-0.48013264,-0.76213,-6.863299,3.5625722,-6.277597,0.7661445
5.8907914,4.6940155,-0.59305066,-0.725911,-6.8473196,3.6535518,-6.26802,0.47884035
5.884494,4.6932144,-0.59305066,-0.725911,-6.8473196,3.6535518,-6.26802,0.47884035
5.8781695,4.692235,-0.72620875,-0.68436575,-6.810035,3.787627,-6.2632318,-0.11971009
5.8781695,4.692235,-0.72620875,-0.68436575,-6.810035,3.787627,-6.2632318,-0.11971009
5.864335,4.689955,-0.88386786,-0.6460162,-6.7493153,3.9504328,-6.277597,-0.5602432
5.8574843,4.688658,-0.88386786,-0.6460162,-6.7493153,3.9504328,-6.277597,-0.5602432
5.8507433,4.687166,-1.0607017,-0.6161888,-6.6726165,4.1946416,-6.1004257,-1.0199299
5.8439307,4.685646,-1.0607017,-0.6161888,-6.6726165,4.1946416,-6.1004257,-1.0199299
5.837302,4.683948,-1.2503189,-0.60020983,-6.5799384,4.477157,-5.741296,-1.3742718
5.83065,4.682231,-1.2503189,-0.60020983,-6.5799384,4.477157,-5.741296,-1.3742718
5.8241076,4.680315,-1.4473927,-0.59594876,-6.4755425,4.855441,-5.2528787,-1.5705963
5.817542,4.678379,-1.4473927,-0.59594876,-6.4755425,4.855441,-5.2528787,-1.5705963
5.811083,4.676246,-1.6444666,-0.60020983,-6.3636894,5.142745,-4.5537715,-1.4891934
5.804626,4.674099,-1.6444666,-0.60020983,-6.3636894,5.142745,-4.5537715,-1.4891934
5.7982726,4.671775,-1.8340838,-0.6076667,-6.2475758,5.5258174,-3.892972,-1.0486604
5.791928,4.6694374,-1.8340838,-0.6076667,-6.2475758,5.5258174,-3.892972,-1.0486604
5.785694,4.6669307,-2.0066566,-0.61192775,-6.1240053,5.8466406,-3.2561142,-0.6560113
5.7794757,4.6644135,-2.0066566,-0.61192775,-6.1240053,5.8466406,-3.2561142,-0.6560113
5.7733817,4.6617513,-2.1557937,-0.6076667,-5.9929776,6.196194,-2.801216,-0.21068975
5.767302,4.6590786,-2.1557937,-0.6076667,-5.9929776,6.196194,-2.801216,-0.21068975
5.76136,4.656287,-2.28256,-0.59381825,-5.857689,6.6175733,-2.5378537,0.2633622
5.755421,4.6534786,-2.28256,-0.59381825,-5.857689,6.6175733,-2.5378537,0.2633622
5.7496233,4.6505814,-2.3848255,-0.5714477,-5.7202697,6.8809357,-2.480393,0.8283938
5.743834,4.6476707,-2.3848255,-0.5714477,-5.7202697,6.8809357,-2.480393,0.8283938
5.7381935,4.644697,-2.4647202,-0.540555,-5.582851,7.029376,-2.6527755,1.1348516
5.732533,4.6416955,-2.4647202,-0.540555,-5.582851,7.029376,-2.6527755,1.1348516
5.7270484,4.63867,-2.520114,-0.5075318,-5.442236,7.1395097,-2.9400797,1.2545617
5.7215505,4.635618,-2.520114,-0.5075318,-5.442236,7.1395097,-2.9400797,1.2545617
5.716195,4.632537,-2.5584636,-0.47983494,-5.2994905,7.120356,-3.289633,1.1683705
5.710837,4.629436,-2.5584636,-0.47983494,-5.2994905,7.120356,-3.289633,1.1683705
5.7056317,4.6263223,-2.5787036,-0.46172544,-5.152484,6.9144545,-3.6056678,1.0486604
5.700435,4.623195,-2.5787036,-0.46172544,-5.152484,6.9144545,-3.6056678,1.0486604
5.695381,4.6200457,-2.5872257,-0.45852965,-5.0012164,6.655881,-3.7014358,0.7517793
5.690326,4.6168776,-2.5872257,-0.45852965,-5.0012164,6.655881,-3.7014358,0.7517793
5.685435,4.6137004,-2.5829647,-0.47450864,-4.849949,6.4499793,-3.7684734,0.61770403
5.6804876,4.610469,-2.5829647,-0.47450864,-4.849949,6.4499793,-3.7684734,0.61770403
5.6757717,4.607269,-2.5669856,-0.50966233,-4.696551,6.373365,-3.6774938,0.5554548
5.6710644,4.604056,-2.5669856,-0.50966233,-4.696551,6.373365,-3.6774938,0.5554548
5.6664996,4.600816,-2.5392888,-0.5597298,-4.539957,6.3542113,-3.5865142,0.60812724
5.661943,4.597562,-2.5392888,-0.5597298,-4.539957,6.3542113,-3.5865142,0.60812724
5.657548,4.594304,-2.4977436,-0.61831933,-4.3844285,6.3589997,-3.6056678,0.80445176
5.653161,4.5910325,-2.4977436,-0.61831933,-4.3844285,6.3589997,-3.6056678,0.80445176
5.648951,4.587775,-2.4487414,-0.67477834,-4.227834,6.277597,-3.7301662,0.80924016
5.6447287,4.584488,-2.4487414,-0.67477834,-4.227834,6.277597,-3.7301662,0.80924016
5.6406865,4.581226,-2.3933475,-0.72484577,-4.065914,6.2584434,-3.9264908,0.7661445
5.6366534,4.577951,-2.3933475,-0.72484577,-4.065914,6.2584434,-3.9264908,0.7661445
5.632781,4.57469,-2.3368886,-0.76958686,-3.9029288,6.220136,-4.185065,0.5363012
5.6289167,4.571415,-2.3368886,-0.76958686,-3.9029288,6.220136,-4.185065,0.5363012
5.625209,4.568156,-2.2836254,-0.80580586,-3.7452695,6.2488666,-4.43885,0.14844051
5.621503,4.564878,-2.2836254,-0.80580586,-3.7452695,6.2488666,-4.43885,0.14844051
5.617952,4.5616026,-2.2356884,-0.8356333,-3.5876105,6.373365,-4.6016555,-0.4165911
5.6143994,4.5583053,-2.2356884,-0.8356333,-3.5876105,6.373365,-4.6016555,-0.4165911
5.6110053,4.5549946,-2.194143,-0.8590691,-3.4342124,6.196194,-4.721366,-0.9911995
5.607612,4.551666,-2.194143,-0.8590691,-3.4342124,6.196194,-4.721366,-0.9911995
5.604383,4.5483055,-2.1632504,-0.87824386,-3.2893364,5.93762,-4.759673,-1.4796166
5.601155,4.5449257,-2.1632504,-0.87824386,-3.2893364,5.93762,-4.759673,-1.4796166
5.598093,4.5415425,-2.1387494,-0.8974186,-3.150852,5.81791,-4.7309427,-1.7429788
5.5950327,4.538141,-2.1387494,-0.8974186,-3.150852,5.81791,-4.7309427,-1.7429788
5.592119,4.5347366,-2.1206398,-0.9165934,-3.017694,5.7987566,-4.7309427,-1.8674773
5.5892167,4.5313244,-2.1206398,-0.9165934,-3.017694,5.7987566,-4.7309427,-1.8674773
5.5863657,4.5278063,-2.104661,-0.9315071,-2.893058,5.8226986,-4.7884035,-2.0015526
5.5836725,4.5244617,-2.104661,-0.9315071,-2.893058,5.8226986,-4.7884035,-2.0015526
5.581039,4.5210342,-2.0918777,-0.9378987,-2.7790747,5.741296,-4.841076,-2.111686
5.578416,4.5176,-2.0918777,-0.9378987,-2.7790747,5.741296,-4.841076,-2.111686
5.575906,4.51417,-2.0780294,-0.9368334,-2.6736135,5.8226986,-4.807557,-2.384625
5.5733953,4.5107193,-2.0780294,-0.9368334,-2.6736135,5.8226986,-4.807557,-2.384625
5.5709877,4.507297,-2.0641809,-0.92724603,-2.5798702,6.0142345,-4.735731,-2.6671407
5.5685835,4.5038586,-2.0641809,-0.92724603,-2.5798702,6.0142345,-4.735731,-2.6671407
5.5662637,4.5004497,-2.0503325,-0.9102018,-2.5010407,6.1195793,-4.6830587,-2.896984
5.5639467,4.4970245,-2.0503325,-0.9102018,-2.5010407,6.1195793,-4.6830587,-2.896984
5.561693,4.493625,-2.036484,-0.88676596,-2.4381902,6.167464,-4.5058875,-3.2130187
5.5594473,4.490217,-2.036484,-0.88676596,-2.4381902,6.167464,-4.5058875,-3.2130187
5.5572495,4.486846,-2.020505,-0.86013436,-2.3913186,6.2488666,-4.3287168,-3.5003228
5.5550528,4.483455,-2.020505,-0.86013436,-2.3913186,6.2488666,-4.3287168,-3.5003228
5.552883,4.4801073,-2.003461,-0.8292417,-2.3582952,6.4020953,-4.1276035,-3.6248214
5.5507145,4.476741,-2.003461,-0.8292417,-2.3582952,6.4020953,-4.1276035,-3.6248214
5.548568,4.473438,-1.9853513,-0.79195744,-2.3391206,6.5361705,-3.916914,-3.7014358
5.5464134,4.4701033,-1.9853513,-0.79195744,-2.3391206,6.5361705,-3.916914,-3.7014358
5.544257,4.4668336,-1.9608502,-0.7461511,-2.3305984,6.7708025,-3.8881836,-3.6296098
5.542112,4.463562,-1.9608502,-0.7461511,-2.3305984,6.7708025,-3.8881836,-3.6296098
5.539942,4.460339,-1.9310228,-0.6918226,-2.3305984,6.823475,-3.9073372,-3.5482068
5.537787,4.457121,-1.9310228,-0.6918226,-2.3305984,6.823475,-3.9073372,-3.5482068
5.5356026,4.4539633,-1.8969344,-0.63216776,-2.3412511,6.8905125,-4.0892963,-3.5098996
5.5334287,4.450804,-1.8969344,-0.63216776,-2.3412511,6.8905125,-4.0892963,-3.5098996
5.5312233,4.447731,-1.855389,-0.5703824,-2.3561647,7.0102224,-4.2760444,-3.3279405
5.5290174,4.4446397,-1.855389,-0.5703824,-2.3561647,7.0102224,-4.2760444,-3.3279405
5.526776,4.4416447,-1.8053216,-0.50327075,-2.37747,7.1155677,-4.5202527,-3.2513258
5.5245404,4.438641,-1.8053216,-0.50327075,-2.37747,7.1155677,-4.5202527,-3.2513258
5.5222673,4.435745,-1.7467321,-0.4329633,-2.3998406,7.07726,-4.6830587,-3.1172507
5.5200043,4.432846,-1.7467321,-0.4329633,-2.3998406,7.07726,-4.6830587,-3.1172507
5.5176992,4.430045,-1.6796204,-0.35946006,-2.4200807,6.9719152,-4.831499,-3.1411927
5.5154037,4.427241,-1.6796204,-0.35946006,-2.4200807,6.9719152,-4.831499,-3.1411927
5.5130863,4.42456,-1.6029214,-0.28702208,-2.4381902,6.83784,-4.9416323,-3.2369606
5.510779,4.421877,-1.6029214,-0.28702208,-2.4381902,6.83784,-4.9416323,-3.2369606
5.5084295,4.419306,-1.516635,-0.22310622,-2.4562995,6.8330517,-4.9224787,-3.3662477
5.5060906,4.416732,-1.516635,-0.22310622,-2.4562995,6.8330517,-4.9224787,-3.3662477
5.50372,4.4142947,-1.4186306,-0.16877773,-2.470148,6.9479733,-4.8745947,-3.3614593
5.501354,4.411849,-1.4186306,-0.16877773,-2.470148,6.9479733,-4.8745947,-3.3614593
5.498947,4.4095325,-1.3131695,-0.122971356,-2.4829311,7.0245876,-4.7309427,-3.2848446
5.498947,4.4095325,-1.3131695,-0.122971356,-2.4829311,7.0245876,-4.7309427,-3.2848446
5.494105,4.404926,-1.1970556,-0.08249131,-2.4925187,7.091625,-4.5777135,-3.145981
5.4917207,4.40278,-1.1970556,-0.08249131,-2.4925187,7.091625,-4.5777135,-3.145981
5.489272,4.4007645,-1.0724196,-0.045207053,-2.5031712,7.120356,-4.357447,-2.920926
5.486819,4.398733,-1.0724196,-0.045207053,-2.5031712,7.120356,-4.357447,-2.920926
5.484335,4.3968616,-0.9392616,-0.010053327,-2.510628,7.0964136,-4.0653543,-2.7964275
5.4818506,4.394978,-0.9392616,-0.010053327,-2.510628,7.0964136,-4.0653543,-2.7964275
5.4793396,4.393274,-0.79971194,0.019774077,-2.5159545,7.1634517,-3.8307228,-2.5091233
5.476835,4.391564,-0.79971194,0.019774077,-2.5159545,7.1634517,-3.8307228,-2.5091233
5.4743037,4.3900347,-0.65590125,0.04853622,-2.513824,7.240066,-3.6583402,-2.231396
5.471784,4.388503,-0.65590125,0.04853622,-2.513824,7.240066,-3.6583402,-2.231396
5.4692454,4.3871484,-0.50676423,0.07516783,-2.5074322,7.273585,-3.5865142,-2.0590134
5.4667234,4.3857937,-0.50676423,0.07516783,-2.5074322,7.273585,-3.5865142,-2.0590134
5.4641914,4.384613,-0.35549667,0.100734174,-2.4957144,7.2831616,-3.6296098,-2.0015526
5.461673,4.3834295,-0.35549667,0.100734174,-2.4957144,7.2831616,-3.6296098,-2.0015526
5.459152,4.382404,-0.20422913,0.12630053,-2.4776049,7.1873937,-3.8738184,-2.1212628
5.45664,4.3813744,-0.20422913,0.12630053,-2.4776049,7.1873937,-3.8738184,-2.1212628
5.4541655,4.3804817,-0.05935317,0.14973634,-2.4477775,6.9862804,-4.0940847,-2.432509
5.451702,4.3795853,-0.05935317,0.14973634,-2.4477775,6.9862804,-4.0940847,-2.432509
5.449301,4.3788204,0.073804885,0.17423743,-2.4041016,6.646304,-4.175488,-2.8538885
5.446911,4.378053,0.073804885,0.17423743,-2.4041016,6.646304,-4.175488,-2.8538885
5.4445877,4.377419,0.18778819,0.19128166,-2.352969,6.4020953,-4.232949,-3.2800562
5.442275,4.3767815,0.18778819,0.19128166,-2.352969,6.4020953,-4.232949,-3.2800562
5.440015,4.376262,0.28472725,0.19980377,-2.292249,6.3829417,-4.0797195,-3.739743
5.437764,4.37574,0.28472725,0.19980377,-2.292249,6.3829417,-4.0797195,-3.739743
5.4355564,4.3753195,0.36355683,0.20406483,-2.224072,6.622362,-3.8019924,-3.8881836
5.4333677,4.374898,0.36355683,0.20406483,-2.224072,6.622362,-3.8019924,-3.8881836
5.43122,4.374563,0.42640743,0.20939115,-2.1548297,6.622362,-3.5434184,-3.9600096
5.429086,4.3742266,0.42640743,0.20939115,-2.1548297,6.622362,-3.5434184,-3.9600096
5.426997,4.3739724,0.4754096,0.2200438,-2.0855875,6.579266,-3.2800562,-3.892972
5.4249177,4.3737154,0.4754096,0.2200438,-2.0855875,6.579266,-3.2800562,-3.892972
5.4228716,4.3735337,0.5148244,0.23282696,-2.022737,6.5840545,-2.9352913,-3.7588966
5.420834,4.373349,0.5148244,0.23282696,-2.022737,6.5840545,-2.9352913,-3.7588966
5.418832,4.373231,0.5435865,0.2466754,-1.966278,6.694188,-2.542642,-3.7110126
5.416834,4.37311,0.5435865,0.2466754,-1.966278,6.694188,-2.542642,-3.7110126
5.414855,4.3730516,0.5648918,0.26371965,-1.9162105,6.9288197,-2.1212628,-3.6248214
5.412881,4.372991,0.5648918,0.26371965,-1.9162105,6.9288197,-2.1212628,-3.6248214
5.4109254,4.3729897,0.5798055,0.28395966,-1.8767958,7.1634517,-1.757344,-3.5051112
5.4089746,4.3729863,0.5798055,0.28395966,-1.8767958,7.1634517,-1.757344,-3.5051112
5.4070272,4.3730397,0.5893929,0.3073955,-1.8448378,7.4124484,-1.388637,-3.3566709
5.4047055,4.3731008,0.5893929,0.3073955,-1.8448378,7.4124484,-1.388637,-3.3566709
5.403137,4.373179,0.59471923,0.33296183,-1.8267283,7.5800424,-1.1540052,-3.3183637
5.4009857,4.373284,0.59471923,0.33296183,-1.8267283,7.5800424,-1.1540052,-3.3183637
5.399104,4.3734202,0.5957845,0.35959345,-1.8171409,7.699753,-0.90979666,-3.040636
5.399104,4.3734202,0.5957845,0.35959345,-1.8171409,7.699753,-0.90979666,-3.040636
5.39489,4.3737307,0.5915234,0.38622504,-1.8139452,7.809886,-0.6943185,-2.9161377
5.3933225,4.373869,0.5915234,0.38622504,-1.8139452,7.809886,-0.6943185,-2.9161377
5.391226,4.37409,0.5861971,0.41285667,-1.8118147,7.872135,-0.47884035,-2.7246015
5.3894615,4.374275,0.5861971,0.41285667,-1.8118147,7.872135,-0.47884035,-2.7246015
5.3875065,4.374513,0.5798055,0.43948826,-1.8086188,7.9248075,-0.36870706,-2.5474305
5.385537,4.3747516,0.5798055,0.43948826,-1.8086188,7.9248075,-0.36870706,-2.5474305
5.385537,4.3747516,0.5798055,0.43948826,-1.8086188,7.9248075,-0.36870706,-2.5474305
5.3815846,4.3752937,0.57234865,0.46505463,-1.8032925,7.9152308,-0.2777274,-2.3511062
5.379573,4.375608,0.56595707,0.48742518,-1.7894441,7.8865004,-0.18195933,-2.0925324
5.3775787,4.3759184,0.56595707,0.48742518,-1.7894441,7.8865004,-0.18195933,-2.0925324
5.375675,4.3762565,0.56276125,0.50659996,-1.7681388,7.85777,-0.12928689,-1.8148049
5.373717,4.3766046,0.56276125,0.50659996,-1.7681388,7.85777,-0.12928689,-1.8148049
5.3717823,4.3769956,0.56276125,0.52364415,-1.7351155,7.8769236,0.047884032,-1.6472107
5.3698363,4.377389,0.56276125,0.52364415,-1.7351155,7.8769236,0.047884032,-1.6472107
5.36794,4.377826,0.5680876,0.53536206,-1.6946355,7.9487495,0.20590134,-1.4317327
5.3660417,4.378265,0.5680876,0.53536206,-1.6946355,7.9487495,0.20590134,-1.4317327
5.364186,4.3787565,0.57660973,0.5428189,-1.6424376,8.101978,0.40701428,-1.1971009
5.3623333,4.3792467,0.57660973,0.5428189,-1.6424376,8.101978,0.40701428,-1.1971009
5.360535,4.3797946,0.58726233,0.5460147,-1.5827827,8.24563,0.6703765,-0.8475474
5.3587384,4.3803415,0.58726233,0.5460147,-1.5827827,8.24563,0.6703765,-0.8475474
5.3570094,4.380945,0.6011108,0.5460147,-1.5135405,8.389283,0.89064306,-0.5554548
5.3552823,4.381549,0.6011108,0.5460147,-1.5135405,8.389283,0.89064306,-0.5554548
5.3536263,4.3822145,0.6160245,0.54708,-1.438972,8.523358,1.0199299,-0.19632454
5.351964,4.382885,0.6160245,0.54708,-1.438972,8.523358,1.0199299,-0.19632454
5.3503895,4.38361,0.6298729,0.55134106,-1.3569467,8.6334915,1.0726024,-0.11971009
5.3488107,4.3843384,0.6298729,0.55134106,-1.3569467,8.6334915,1.0726024,-0.11971009
5.347313,4.38513,0.6394603,0.5609284,-1.2685298,8.628703,1.2258313,-0.047884032
5.3458176,4.3859234,0.6394603,0.5609284,-1.2685298,8.628703,1.2258313,-0.047884032
5.344403,4.386772,0.64159083,0.5747769,-1.1747864,8.580819,1.3311762,-0.25857377
5.342987,4.387624,0.64159083,0.5747769,-1.1747864,8.580819,1.3311762,-0.25857377
5.3416624,4.3885217,0.63306874,0.5907558,-1.0725211,8.422802,1.4413095,-0.58897364
5.340338,4.3894215,0.63306874,0.5907558,-1.0725211,8.422802,1.4413095,-0.58897364
5.3391147,4.3903594,0.613894,0.603539,-0.96279883,8.365341,1.4748282,-0.81402856
5.3378835,4.3913054,0.613894,0.603539,-0.96279883,8.365341,1.4748282,-0.81402856
5.336771,4.3922625,0.5830013,0.6088653,-0.8477503,8.327033,1.4700398,-1.0295067
5.335653,4.3932257,0.5830013,0.6088653,-0.8477503,8.327033,1.4700398,-1.0295067
5.334646,4.3942018,0.541456,0.6109958,-0.7305712,8.379706,1.6519991,-1.0869676
5.33364,4.3951807,0.541456,0.6109958,-0.7305712,8.379706,1.6519991,-1.0869676
5.332752,4.3961525,0.48819277,0.6067348,-0.6080658,8.561666,1.8770541,-1.163582
5.331865,4.397127,0.48819277,0.6067348,-0.6080658,8.561666,1.8770541,-1.163582
5.3310966,4.3980885,0.42747268,0.6003432,-0.48556036,8.690952,2.1308396,-1.13964
5.330331,4.3990493,0.42747268,0.6003432,-0.48556036,8.690952,2.1308396,-1.13964
5.329686,4.399995,0.3582305,0.5950169,-0.35985917,8.815451,2.4229321,-1.0630256
5.329027,4.400963,0.3582305,0.5950169,-0.35985917,8.815451,2.4229321,-1.0630256
5.328508,4.4018874,0.28153145,0.58969057,-0.22989689,8.772355,2.7150247,-1.0534488
5.3279877,4.4028134,0.28153145,0.58969057,-0.22989689,8.772355,2.7150247,-1.0534488
5.3276024,4.4037,0.19524503,0.58756006,-0.0978041,8.844181,3.040636,-0.9768343
5.3272104,4.404599,0.19524503,0.58756006,-0.0978041,8.844181,3.040636,-0.9768343
5.3269577,4.405447,0.1004365,0.58969057,0.039615013,9.150639,3.2992098,-1.0151415
5.3267016,4.4063063,0.1004365,0.58969057,0.039615013,9.150639,3.2992098,-1.0151415
5.326576,4.407128,-0.0018288894,0.5918211,0.17703412,9.461885,3.5098996,-0.9959879
5.326451,4.4079504,-0.0018288894,0.5918211,0.17703412,9.461885,3.5098996,-0.9959879
5.326454,4.4087286,-0.11261639,0.5971474,0.3123227,9.883265,3.715801,-1.0534488
5.3264575,4.409506,-0.11261639,0.5971474,0.3123227,9.883265,3.715801,-1.0534488
5.3265862,4.4102564,-0.22766495,0.60780007,0.44335026,10.089166,3.7349546,-0.842759
5.3267274,4.411078,-0.22766495,0.60780007,0.44335026,10.089166,3.7349546,-0.842759
5.3269534,4.411715,-0.3459093,0.62271374,0.5733125,10.204087,3.6870706,-0.61770403
5.3271937,4.412392,-0.3459093,0.62271374,0.5733125,10.204087,3.6870706,-0.61770403
5.327554,4.4130454,-0.46521893,0.64082325,0.70007896,10.362105,3.5577838,-0.38307226
5.3279195,4.413705,-0.46521893,0.64082325,0.70007896,10.362105,3.5577838,-0.38307226
5.328405,4.4143395,-0.58133274,0.6631938,0.8311065,10.261548,3.3423057,-0.11492168
5.32889,4.414971,-0.58133274,0.6631938,0.8311065,10.261548,3.3423057,-0.11492168
5.3294973,4.4155807,-0.6974466,0.68876016,0.9642646,10.160992,3.217807,0.07182605
5.330106,4.4161882,-0.6974466,0.68876016,0.9642646,10.160992,3.217807,0.07182605
5.3308506,4.4167843,-0.81142986,0.7175223,1.1016836,10.084377,3.0310593,0.0047884034
5.33157,4.417357,-0.81142986,0.7175223,1.1016836,10.084377,3.0310593,0.0047884034
5.3324246,4.4179163,-0.9232826,0.74308866,1.2401681,9.974244,2.777274,0.10055647
5.333282,4.418474,-0.9232826,0.74308866,1.2401681,9.974244,2.777274,0.10055647
5.3342714,4.419015,-1.0308744,0.76758975,1.3861092,9.859323,2.542642,0.16280572
5.3352637,4.419552,-1.0308744,0.76758975,1.3861092,9.859323,2.542642,0.16280572
5.336388,4.4200726,-1.1363355,0.79209083,1.5352463,9.653421,2.2649148,0.18674773
5.3375177,4.4205904,-1.1363355,0.79209083,1.5352463,9.653421,2.2649148,0.18674773
5.338782,4.42109,-1.2354051,0.81233084,1.6843834,9.528923,2.0398598,0.19153613
5.3400497,4.4215856,-1.2354051,0.81233084,1.6843834,9.528923,2.0398598,0.19153613
5.3414636,4.422058,-1.3302137,0.82617927,1.8345857,9.409213,1.8818425,0.08140286
5.342818,4.4225044,-1.3302137,0.82617927,1.8345857,9.409213,1.8818425,0.08140286
5.3443646,4.422939,-1.4196959,0.8336361,1.9858532,9.351752,1.6807296,-0.023942016
5.3459644,4.423381,-1.4196959,0.8336361,1.9858532,9.351752,1.6807296,-0.023942016
5.347656,4.4237757,-1.504917,0.83470136,2.133925,9.303867,1.5705963,-0.009576807
5.349339,4.424161,-1.504917,0.83470136,2.133925,9.303867,1.5705963,-0.009576807
5.3511744,4.4245105,-1.5848119,0.8315056,2.2798662,9.32781,1.3694834,-0.1340753
5.3530116,4.424852,-1.5848119,0.8315056,2.2798662,9.32781,1.3694834,-0.1340753
5.354989,4.425155,-1.661511,0.82404876,2.4290032,9.3182335,1.1348516,-0.16280572
5.356959,4.4254484,-1.661511,0.82404876,2.4290032,9.3182335,1.1348516,-0.16280572
5.359094,4.4257045,-1.733949,0.81446135,2.5760098,9.289502,0.94331545,-0.24420857
5.361205,4.425948,-1.733949,0.81446135,2.5760098,9.289502,0.94331545,-0.24420857
5.363468,4.426159,-1.7999953,0.8038087,2.718755,9.14585,0.7374141,-0.22984336
5.365728,4.426359,-1.7999953,0.8038087,2.718755,9.14585,0.7374141,-0.22984336
5.368131,4.426527,-1.8607154,0.78996027,2.8625658,9.155427,0.4405331,-0.21068975
5.3705325,4.426685,-1.8607154,0.78996027,2.8625658,9.155427,0.4405331,-0.21068975
5.3730783,4.4268055,-1.9161091,0.77398133,3.0021155,9.150639,0.15801731,-0.33518824
5.3756094,4.426914,-1.9161091,0.77398133,3.0021155,9.150639,0.15801731,-0.33518824
5.3782983,4.4269924,-1.9651113,0.75587183,3.1427305,9.102755,0.01436521,-0.35434186
5.3809767,4.4270587,-1.9651113,0.75587183,3.1427305,9.102755,0.01436521,-0.35434186
5.3838086,4.4270883,-2.0098524,0.7345665,3.2801495,9.040505,-0.11971009,-0.47884035
5.3866153,4.427106,-2.0098524,0.7345665,3.2801495,9.040505,-0.11971009,-0.47884035
5.389571,4.427086,-2.0492673,0.71113074,3.4154382,9.035717,-0.22505496,-0.6751649
5.392515,4.4270525,-2.0492673,0.71113074,3.4154382,9.035717,-0.22505496,-0.6751649
5.395607,4.4269886,-2.084421,0.69089067,3.5528572,8.935161,-0.33518824,-0.89064306
5.3986955,4.426912,-2.084421,0.69089067,3.5528572,8.935161,-0.33518824,-0.89064306
5.4019217,4.42681,-2.1153135,0.6695854,3.6913416,8.825027,-0.45010993,-1.0103531
5.405145,4.4266953,-2.1153135,0.6695854,3.6913416,8.825027,-0.45010993,-1.0103531
5.408522,4.426566,-2.1387494,0.6493454,3.8287606,8.738836,-0.45968673,-1.0295067
5.411879,4.426425,-2.1387494,0.6493454,3.8287606,8.738836,-0.45968673,-1.0295067
5.415384,4.426269,-2.156859,0.6269748,3.9661798,8.6574335,-0.4165911,-1.091756
5.418878,4.4261003,-2.156859,0.6269748,3.9661798,8.6574335,-0.4165911,-1.091756
5.4225216,4.4259257,-2.165381,0.6014085,4.10786,8.647857,-0.44532153,-1.13964
5.4261723,4.425737,-2.165381,0.6014085,4.10786,8.647857,-0.44532153,-1.13964
5.429955,4.425545,-2.1664462,0.57158107,4.252736,8.714894,-0.51714754,-1.2258313
5.433753,4.4253387,-2.1664462,0.57158107,4.252736,8.714894,-0.51714754,-1.2258313
5.437689,4.425141,-2.156859,0.53536206,4.3944163,8.820239,-0.7422025,-1.1013328
5.4416246,4.4249287,-2.156859,0.53536206,4.3944163,8.820239,-0.7422025,-1.1013328
5.4456983,4.4247255,-2.1387494,0.4959473,4.540357,8.839393,-1.0007763,-1.115698
5.449796,4.424506,-2.1387494,0.4959473,4.540357,8.839393,-1.0007763,-1.115698
5.454032,4.4243083,-2.1099873,0.45440197,4.689494,8.810662,-1.2785037,-1.0630256
5.45825,4.424096,-2.1099873,0.45440197,4.689494,8.810662,-1.2785037,-1.0630256
5.4626083,4.4239063,-2.0737681,0.41179138,4.8428926,8.815451,-1.5753847,-1.1683705
5.4670796,4.4236956,-2.0737681,0.41179138,4.8428926,8.815451,-1.5753847,-1.1683705
5.4716277,4.4235163,-2.0300925,0.3638545,5.001617,8.767567,-1.8722657,-1.2210429
5.4761896,4.4233203,-2.0300925,0.3638545,5.001617,8.767567,-1.8722657,-1.2210429
5.4809303,4.4231486,-1.9789597,0.31059128,5.1646023,8.671799,-2.054225,-1.3742718
5.4856806,4.4229608,-1.9789597,0.31059128,5.1646023,8.671799,-2.054225,-1.3742718
5.490573,4.422782,-1.9225007,0.2466754,5.3307834,8.418014,-2.1739352,-1.757344
5.495505,4.4225855,-1.9225007,0.2466754,5.3307834,8.418014,-2.1739352,-1.757344
5.500592,4.42238,-1.8628459,0.17104164,5.5033565,8.00621,-2.1260512,-2.3511062
5.5057397,4.4221563,-1.8628459,0.17104164,5.5033565,8.00621,-2.1260512,-2.3511062
5.5109696,4.4219427,-1.8010606,0.073037304,5.68019,7.953538,-1.958457,-2.2936451
5.5163,4.42171,-1.8010606,0.073037304,5.68019,7.953538,-1.958457,-2.2936451
5.521806,4.421473,-1.7350142,-0.043076526,5.861285,7.9343843,-1.6903064,-2.2840683
5.5273104,4.4212213,-1.7350142,-0.043076526,5.861285,7.9343843,-1.6903064,-2.2840683
5.53298,4.420973,-1.6604457,-0.16238615,6.049837,7.8769236,-1.2354081,-2.3127987
5.5387,4.420708,-1.6604457,-0.16238615,6.049837,7.8769236,-1.2354081,-2.3127987
5.5446205,4.420461,-1.577355,-0.2806305,6.241585,8.010999,-0.8619126,-2.2984335
5.550559,4.4201994,-1.577355,-0.2806305,6.241585,8.010999,-0.8619126,-2.2984335
5.556707,4.419973,-1.4889381,-0.3946138,6.432267,8.350976,-0.4357447,-2.087744
5.5629225,4.4197297,-1.4889381,-0.3946138,6.432267,8.350976,-0.4357447,-2.087744
5.569198,4.419544,-1.391999,-0.4990097,6.618688,8.6574335,0.0047884034,-1.7717092
5.5755754,4.4193416,-1.391999,-0.4990097,6.618688,8.6574335,0.0047884034,-1.7717092
5.582106,4.419201,-1.2876031,-0.5948835,6.795522,9.016563,0.4165911,-1.5849615
5.588683,4.419045,-1.2876031,-0.5948835,6.795522,9.016563,0.4165911,-1.5849615
5.595404,4.4189625,-1.174685,-0.685431,6.9574423,9.217676,0.7374141,-1.2689269
5.602165,4.4188647,-1.174685,-0.685431,6.9574423,9.217676,0.7374141,-1.2689269
5.609073,4.418847,-1.0543102,-0.7663911,7.104449,9.198523,1.115698,-1.115698
5.6159806,4.4188156,-1.0543102,-0.7663911,7.104449,9.198523,1.115698,-1.115698
5.623023,4.418877,-0.92860895,-0.8388291,7.241868,9.074024,1.388637,-0.7326257
5.631627,4.418933,-0.92860895,-0.8388291,7.241868,9.074024,1.388637,-0.7326257
5.6375756,4.419057,-0.79758143,-0.8984839,7.373961,8.700529,1.5945383,-0.5267244
5.6446342,4.4191904,-0.79758143,-0.8984839,7.373961,8.700529,1.5945383,-0.5267244
5.655503,4.419567,-0.6580318,-0.9421597,7.5017924,8.365341,1.8818425,-0.39264908
5.6595078,4.4196973,-0.6580318,-0.9421597,7.5017924,8.365341,1.8818425,-0.39264908
5.6595078,4.4196973,-0.6580318,-0.9421597,7.5017924,8.365341,1.8818425,-0.39264908
5.6595078,4.4196973,-0.6580318,-0.9421597,7.5017924,8.365341,1.8818425,-0.39264908
5.6595078,4.4196973,-0.6580318,-0.9421597,7.5017924,8.365341,1.8818425,-0.39264908
5.690537,4.4217978,-0.360823,-0.9890314,7.7510643,7.7572136,2.2026656,-0.35913026
5.6958027,4.42218,-0.19996808,-1.0050104,7.8714395,7.2831616,2.2984335,-0.37349546
5.704645,4.4229026,-0.19996808,-1.0050104,7.8714395,7.2831616,2.2984335,-0.37349546
5.712966,4.4236193,-0.0284605,-1.0220546,7.9971404,6.6654577,2.1404164,-0.4405331
5.712966,4.4236193,-0.0284605,-1.0220546,7.9971404,6.6654577,2.1404164,-0.4405331
5.73053,4.425374,0.14730814,-1.0454904,8.122842,5.995081,1.7956513,-0.3878607
5.736519,4.4260664,0.14730814,-1.0454904,8.122842,5.995081,1.7956513,-0.3878607
5.744593,4.4271574,0.32733783,-1.0806441,8.253869,5.473145,1.1204864,-0.01436521
5.752726,4.428237,0.32733783,-1.0806441,8.253869,5.473145,1.1204864,-0.01436521
5.7610507,4.4295006,0.50949806,-1.1275158,8.393419,4.88896,0.11971009,0.47884035
5.769286,4.4307303,0.50949806,-1.1275158,8.393419,4.88896,0.11971009,0.47884035
5.777734,4.432152,0.6863319,-1.1733221,8.546817,3.8642416,-1.1779473,0.8571242
5.7861834,4.433552,0.6863319,-1.1733221,8.546817,3.8642416,-1.1779473,0.8571242
5.79482,4.4351377,0.85357845,-1.2074106,8.725781,2.8443117,-2.4372973,0.7278373
5.803466,4.4367027,0.85357845,-1.2074106,8.725781,2.8443117,-2.4372973,0.7278373
5.812378,4.438444,1.0027155,-1.2308464,8.928182,2.1739352,-3.667917,0.21547815
5.82129,4.440163,1.0027155,-1.2308464,8.928182,2.1739352,-3.667917,0.21547815
5.8305264,4.4419823,1.1262861,-1.2457601,9.149756,1.3934253,-4.9703627,-0.6560113
5.8397727,4.443782,1.1262861,-1.2457601,9.149756,1.3934253,-4.9703627,-0.6560113
5.8492966,4.445592,1.2232252,-1.2500211,9.388376,0.7278373,-6.1387334,-1.8674773
5.858823,4.447378,1.2232252,-1.2500211,9.388376,0.7278373,-6.1387334,-1.8674773
5.868582,4.4491997,1.2860758,-1.2510865,9.634452,-0.023942016,-7.2352777,-3.0597897
5.878342,4.4509974,1.2860758,-1.2510865,9.634452,-0.023942016,-7.2352777,-3.0597897
5.8883305,4.4528093,1.3180338,-1.2542822,9.877333,-0.3878607,-7.728483,-4.0701427
5.8983197,4.4545975,1.3180338,-1.2542822,9.877333,-0.3878607,-7.728483,-4.0701427
5.908539,4.45639,1.3254906,-1.2691959,10.10956,-0.01436521,-8.599973,-4.223372
5.9187593,4.4581575,1.3254906,-1.2691959,10.10956,-0.01436521,-8.599973,-4.223372
5.929203,4.459919,1.3137727,-1.2873054,10.3215475,-1.5370775,-8.762778,-4.3047748
5.9396486,4.461657,1.3137727,-1.2873054,10.3215475,-1.5370775,-8.762778,-4.3047748
5.9502826,4.4633946,1.298859,-1.3150023,10.497316,-1.412579,-9.519346,-3.3087866
5.960919,4.4651093,1.298859,-1.3150023,10.497316,-1.412579,-9.519346,-3.3087866
5.9716854,4.466851,1.2935327,-1.3512213,10.630474,-1.2162545,-11.180922,-1.8195933
5.982455,4.4685717,1.2935327,-1.3512213,10.630474,-1.2162545,-11.180922,-1.8195933
5.993316,4.4703164,1.3137727,-1.3522866,10.738066,-2.2026656,-12.698846,-0.92416185
6.0041795,4.47204,1.3137727,-1.3522866,10.738066,-2.2026656,-12.698846,-0.92416185
6.015121,4.4738092,1.367036,-1.3096759,10.826483,-4.4819455,-14.144943,-0.7661445
6.026065,4.4755573,1.367036,-1.3096759,10.826483,-4.4819455,-14.144943,-0.7661445
6.037079,4.477373,1.4426697,-1.2542822,10.907443,-6.6989765,-16.232687,-1.0630256
6.0481176,4.479172,1.4426697,-1.2542822,10.907443,-6.6989765,-16.232687,-1.0630256
6.0591793,4.481045,1.5342824,-1.2159327,10.980947,-8.264784,-18.713081,-1.5275006
6.070266,4.4829006,1.5342824,-1.2159327,10.980947,-8.264784,-18.713081,-1.5275006
6.081416,4.4848394,1.637613,-1.2095411,11.041666,-9.409213,-21.217415,-2.3558946
6.0925803,4.4867606,1.637613,-1.2095411,11.041666,-9.409213,-21.217415,-2.3558946
6.103772,4.488761,1.7484006,-1.2308464,11.081081,-10.299856,-23.27164,-3.4141316
6.114978,4.4907446,1.7484006,-1.2308464,11.081081,-10.299856,-23.27164,-3.4141316
6.1262174,4.492812,1.8613186,-1.2798486,11.087473,-10.802638,-24.98589,-4.3766007
6.137449,4.49486,1.8613186,-1.2798486,11.087473,-10.802638,-24.98589,-4.3766007
6.148653,4.496984,1.9721061,-1.3480254,11.051253,-10.793061,-26.096798,-5.2289367
6.1598716,4.4990945,1.9721061,-1.3480254,11.051253,-10.793061,-26.096798,-5.2289367
6.1710243,4.501277,2.0743716,-1.422594,10.963902,-10.060435,-26.350584,-5.7604494
6.1821795,4.5034456,2.0743716,-1.422594,10.963902,-10.060435,-26.350584,-5.7604494
6.1932144,4.5056815,2.1702454,-1.4875752,10.823287,-9.629479,-25.646688,-6.2823853
6.204251,4.507905,2.1702454,-1.4875752,10.823287,-9.629479,-25.646688,-6.2823853
6.2150893,4.5101886,2.2544012,-1.5323162,10.610234,-9.619903,-24.47353,-6.6367273
6.2259297,4.5124626,2.2544012,-1.5323162,10.610234,-9.619903,-24.47353,-6.6367273
6.236485,4.514793,2.3279045,-1.5610784,10.313025,-9.390059,-23.027431,-6.588843
6.2470417,4.517115,2.3279045,-1.5610784,10.313025,-9.390059,-23.027431,-6.588843
6.25724,4.519493,2.3950162,-1.5781226,9.943378,-8.595184,-21.399374,-6.2584434
6.267438,4.521865,2.3950162,-1.5781226,9.943378,-8.595184,-21.399374,-6.2584434
6.2771964,4.524292,2.4578667,-1.5738616,9.495968,-7.465121,-19.67555,-5.731719
0.0037695155,4.5267153,2.4578667,-1.5738616,9.495968,-7.465121,-19.67555,-5.731719
0.01299915,4.529206,2.527109,-1.5440341,8.963335,-6.3925185,-18.047493,-5.080496
0.022228405,4.5316935,2.527109,-1.5440341,8.963335,-6.3925185,-18.047493,-5.080496
0.030842105,4.534265,2.6016774,-1.4875752,8.345482,-5.4204726,-16.821661,-4.175488
0.039463915,4.5368376,2.6016774,-1.4875752,8.345482,-5.4204726,-16.821661,-4.175488
0.047372717,4.5394917,2.6794417,-1.4076803,7.6509295,-4.55856,-15.634137,-3.5051112
0.055280752,4.5421453,2.6794417,-1.4076803,7.6509295,-4.55856,-15.634137,-3.5051112
0.06241145,4.544891,2.7550755,-1.3096759,6.8764825,-4.285621,-14.872781,-2.930503
0.069548726,4.547639,2.7550755,-1.3096759,6.8764825,-4.285621,-14.872781,-2.930503
0.07583587,4.5504723,2.8232524,-1.2031496,6.0391846,-4.247314,-14.293385,-2.4229321
0.0821352,4.5533123,2.8232524,-1.2031496,6.0391846,-4.247314,-14.293385,-2.4229321
0.087537214,4.556226,2.877581,-1.0955578,5.1582108,-4.3287168,-14.135366,-1.958457
0.092938945,4.559141,2.877581,-1.0955578,5.1582108,-4.3287168,-14.135366,-1.958457
0.09742081,4.562113,2.909539,-0.9943577,4.251671,-4.3766007,-14.097059,-1.4796166
0.10189796,4.565083,2.909539,-0.9943577,4.251671,-4.3766007,-14.097059,-1.4796166
0.10545939,4.5680847,2.918061,-0.9059407,3.338739,-4.596867,-13.982138,-1.1013328
0.10901319,4.571082,2.918061,-0.9059407,3.338739,-4.596867,-13.982138,-1.1013328
0.11166047,4.574075,2.8988862,-0.8249806,2.43646,-4.951209,-13.742718,-0.770933
0.11430964,4.5770726,2.8988862,-0.8249806,2.43646,-4.951209,-13.742718,-0.770933
0.116075635,4.5800247,2.8488188,-0.7546732,1.5650737,-5.4922986,-13.656527,-0.37828386
0.117846034,4.582987,2.8488188,-0.7546732,1.5650737,-5.4922986,-13.656527,-0.37828386
0.118780755,4.585868,2.7667935,-0.6939531,0.74055904,-5.9567738,-13.627796,0.009576807
0.119712554,4.588743,2.7667935,-0.6939531,0.74055904,-5.9567738,-13.627796,0.009576807
0.11988854,4.5915294,2.6560059,-0.6406899,-0.013648209,-6.0764837,-13.781025,0.18195933
0.120063335,4.5943127,2.6560059,-0.6406899,-0.013648209,-6.0764837,-13.781025,0.18195933
0.11956096,4.596964,2.5207174,-0.5895572,-0.6847648,-5.995081,-14.030022,0.31124622
0.11905752,4.5996137,2.5207174,-0.5895572,-0.6847648,-5.995081,-14.030022,0.31124622
0.11797002,4.602108,2.3683846,-0.536294,-1.269595,-5.813122,-14.326903,0.0047884034
0.11688167,4.6046004,2.3683846,-0.536294,-1.269595,-5.813122,-14.326903,0.0047884034
0.11530147,4.606919,2.2022033,-0.47983494,-1.7628125,-5.60722,-14.528016,-0.34955344
0.1136825,4.60929,2.2022033,-0.47983494,-1.7628125,-5.60722,-14.528016,-0.34955344
0.11156503,4.6115646,2.0275,-0.4180496,-2.1622865,-5.353435,-14.494497,-0.7422025
0.10976945,4.613491,2.0275,-0.4180496,-2.1622865,-5.353435,-14.494497,-0.7422025
0.107464746,4.615429,1.8474702,-0.355199,-2.4712133,-5.094861,-14.374787,-1.115698
0.1051891,4.6173387,1.8474702,-0.355199,-2.4712133,-5.094861,-14.374787,-1.115698
0.10266606,4.6190577,1.6642448,-0.29128313,-2.691723,-4.7644615,-14.168885,-1.5514427
0.10016467,4.620759,1.6642448,-0.29128313,-2.691723,-4.7644615,-14.168885,-1.5514427
0.09750513,4.6222725,1.4863455,-0.2294978,-2.833403,-4.390966,-13.9917145,-1.6950948
0.09482346,4.6237965,1.4863455,-0.2294978,-2.833403,-4.390966,-13.9917145,-1.6950948
0.09210585,4.6251106,1.3159032,-0.16877773,-2.9047759,-4.1276035,-13.613431,-1.8100165
0.089362845,4.6264353,1.3159032,-0.16877773,-2.9047759,-4.1276035,-13.613431,-1.8100165
0.08659435,4.627589,1.1518525,-0.108057655,-2.9122329,-3.9839516,-13.378799,-1.8387469
0.083817124,4.6287456,1.1518525,-0.108057655,-2.9122329,-3.9839516,-13.378799,-1.8387469
0.08082263,4.6298313,0.9963239,-0.04946811,-2.860035,-3.8115692,-13.120225,-1.8387469
0.07838116,4.6307154,0.9963239,-0.04946811,-2.860035,-3.8115692,-13.120225,-1.8387469
0.075755045,4.6315494,0.84718686,0.0069909045,-2.7535083,-3.620033,-12.804191,-1.7142484
0.07318874,4.632364,0.84718686,0.0069909045,-2.7535083,-3.620033,-12.804191,-1.7142484
0.070733905,4.633047,0.706572,0.05918886,-2.6065018,-3.3087866,-12.5264635,-1.541866
0.06825922,4.6337357,0.706572,0.05918886,-2.6065018,-3.3087866,-12.5264635,-1.541866
0.06597001,4.634298,0.5712834,0.10712577,-2.4275374,-2.9879637,-12.196063,-1.1827357
0.063680686,4.63486,0.5712834,0.10712577,-2.4275374,-2.9879637,-12.196063,-1.1827357
0.061588254,4.635319,0.44345164,0.15186687,-2.224072,-2.4995465,-11.789049,-0.7278373
0.059498053,4.6357775,0.44345164,0.15186687,-2.224072,-2.4995465,-11.789049,-0.7278373
0.057588745,4.6361647,0.3284031,0.19341218,-2.0046275,-2.0159178,-11.343728,-0.08140286
0.055678505,4.636552,0.3284031,0.19341218,-2.0046275,-2.0159178,-11.343728,-0.08140286
0.05394643,4.636859,0.2261377,0.23389223,-1.7777262,-1.5705963,-10.951078,0.6368576
0.052217104,4.6371646,0.2261377,0.23389223,-1.7777262,-1.5705963,-10.951078,0.6368576
0.050677612,4.6373887,0.13985129,0.27756807,-1.5497595,-1.1492168,-10.596737,1.1540052
0.049135864,4.6376133,0.13985129,0.27756807,-1.5497595,-1.1492168,-10.596737,1.1540052
0.04779658,4.6377664,0.07060909,0.31698287,-1.3292499,-0.7230489,-10.352529,1.6089035
0.04645654,4.6379194,0.07060909,0.31698287,-1.3292499,-0.7230489,-10.352529,1.6089035
0.04530447,4.6380196,0.019476399,0.35213658,-1.1225885,-0.30166942,-10.237606,1.6807296
0.044145927,4.638121,0.019476399,0.35213658,-1.1225885,-0.30166942,-10.237606,1.6807296
0.043171138,4.63818,-0.019938385,0.3787682,-0.93616724,-0.01436521,-10.204087,1.4652514
0.042194813,4.6382394,-0.019938385,0.3787682,-0.93616724,-0.01436521,-10.204087,1.4652514
0.04137041,4.638265,-0.05189632,0.3936819,-0.76679015,0.18674773,-10.28549,1.1444284
0.04054803,4.6382914,-0.05189632,0.3936819,-0.76679015,0.18674773,-10.28549,1.1444284
0.039855413,4.6382804,-0.08705004,0.3936819,-0.62084895,0.36391866,-10.390836,0.8379706
0.039163854,4.638269,-0.08705004,0.3936819,-0.62084895,0.36391866,-10.390836,0.8379706
0.038584597,4.6382136,-0.12859535,0.3808987,-0.49514773,0.50757074,-10.443508,0.61770403
0.03800622,4.6381583,-0.12859535,0.3808987,-0.49514773,0.50757074,-10.443508,0.61770403
0.03752309,4.638052,-0.175467,0.35959345,-0.3886213,0.641646,-10.371682,0.45968673
0.03704074,4.637946,-0.175467,0.35959345,-0.3886213,0.641646,-10.371682,0.45968673
0.036646564,4.6377873,-0.22873022,0.33509237,-0.29807383,0.61291564,-10.228029,0.35913026
0.036252942,4.637628,-0.22873022,0.33509237,-0.29807383,0.61291564,-10.228029,0.35913026
0.035922375,4.6374016,-0.29158083,0.309526,-0.22457057,0.7038953,-10.060435,0.21068975
0.035592012,4.6371746,-0.29158083,0.309526,-0.22457057,0.7038953,-10.060435,0.21068975
0.035320073,4.6368814,-0.35656196,0.2828944,-0.16278523,0.7374141,-9.844957,0.15322891
0.03504866,4.636588,-0.35656196,0.2828944,-0.16278523,0.7374141,-9.844957,0.15322891
0.034808375,4.636217,-0.42473888,0.26052386,-0.11804412,0.82360536,-9.639056,-0.019153614
0.034568552,4.635847,-0.42473888,0.26052386,-0.11804412,0.82360536,-9.639056,-0.019153614
0.034349926,4.6353984,-0.48972002,0.23921856,-0.08928198,0.91937345,-9.466674,-0.023942016
0.034349926,4.6353984,-0.48972002,0.23921856,-0.08928198,0.91937345,-9.466674,-0.023942016
0.033874456,4.634262,-0.5493748,0.2200438,-0.075433545,1.1444284,-9.385271,-0.24420857
0.033700764,4.633847,-0.5493748,0.2200438,-0.075433545,1.1444284,-9.385271,-0.24420857
0.033472814,4.6332536,-0.60263807,0.20299956,-0.076498814,1.4700398,-9.299079,-0.37828386
0.033256255,4.63269,-0.60263807,0.20299956,-0.076498814,1.4700398,-9.299079,-0.37828386
0.03299861,4.6320267,-0.6463139,0.18915112,-0.09673884,1.6328455,-9.174581,-0.45968673
0.032760747,4.6314144,-0.6463139,0.18915112,-0.09673884,1.6328455,-9.174581,-0.45968673
0.03247696,4.6307306,-0.68040234,0.18062901,-0.12869677,1.6041151,-9.011775,-0.58418524
0.03220665,4.6300793,-0.68040234,0.18062901,-0.12869677,1.6041151,-9.011775,-0.58418524
0.031884223,4.6293745,-0.70703393,0.17423743,-0.17130736,1.6280571,-8.868123,-0.6560113
0.031562366,4.628672,-0.70703393,0.17423743,-0.17130736,1.6280571,-8.868123,-0.6560113
0.031191852,4.6279497,-0.72620875,0.16678058,-0.21924424,1.6519991,-8.805874,-0.58418524
0.030821275,4.6272287,-0.72620875,0.16678058,-0.21924424,1.6519991,-8.805874,-0.58418524
0.030403685,4.626487,-0.7400572,0.16251951,-0.26505062,1.6567876,-8.724471,-0.6799533
0.029991077,4.6257544,-0.7400572,0.16251951,-0.26505062,1.6567876,-8.724471,-0.6799533
0.029530825,4.6250095,-0.74857926,0.15932372,-0.30872646,1.6280571,-8.734048,-0.60812724
0.029070573,4.6242657,-0.74857926,0.15932372,-0.30872646,1.6280571,-8.734048,-0.60812724
0.028580341,4.6235323,-0.7517751,0.15612793,-0.3460107,1.5370775,-8.820239,-0.5506664
0.028086724,4.622795,-0.7517751,0.15612793,-0.3460107,1.5370775,-8.820239,-0.5506664
0.027563974,4.622058,-0.7517751,0.15293214,-0.37583813,1.5370775,-8.911219,-0.56982
0.027040789,4.6213207,-0.7517751,0.15293214,-0.37583813,1.5370775,-8.911219,-0.56982
0.026497971,4.62058,-0.74857926,0.14867108,-0.39394763,1.7381904,-8.954314,-0.6607997
0.025955169,4.61984,-0.74857926,0.14867108,-0.39394763,1.7381904,-8.954314,-0.6607997
0.025404306,4.619106,-0.7443182,0.14441001,-0.40246972,1.6807296,-9.083601,-0.6464345
0.024854582,4.6183743,-0.7443182,0.14441001,-0.40246972,1.6807296,-9.083601,-0.6464345
0.024303185,4.6176453,-0.7411224,0.14121422,-0.403535,1.5179238,-9.188946,-0.6799533
0.023751866,4.6169167,-0.7411224,0.14121422,-0.403535,1.5179238,-9.188946,-0.6799533
0.023210993,4.616194,-0.73686135,0.13269211,-0.39394763,1.4077905,-9.241618,-0.6895301
0.022670273,4.6154714,-0.73686135,0.13269211,-0.39394763,1.4077905,-9.241618,-0.6895301
0.02215231,4.6147623,-0.73046976,0.1209742,-0.37477285,1.4796166,-9.227253,-0.60333884
0.021634528,4.6140532,-0.73046976,0.1209742,-0.37477285,1.4796166,-9.227253,-0.60333884
0.021147335,4.6133595,-0.7240782,0.10819103,-0.3492065,1.4556746,-9.179369,-0.48841715
0.020661402,4.612667,-0.7240782,0.10819103,-0.3492065,1.4556746,-9.179369,-0.48841715
0.020213243,4.6119943,-0.7134255,0.09540785,-0.31831384,1.4652514,-9.088389,-0.33997664
0.019765427,4.611322,-0.7134255,0.09540785,-0.31831384,1.4652514,-9.088389,-0.33997664
0.019358182,4.6106706,-0.69851184,0.08368994,-0.28422537,1.4700398,-8.939949,-0.21547815
0.018951306,4.6100197,-0.69851184,0.08368994,-0.28422537,1.4700398,-8.939949,-0.21547815
0.018581754,4.6093893,-0.68040234,0.071972035,-0.2501369,1.5131354,-8.939949,-0.15801731
0.018212538,4.60876,-0.68040234,0.071972035,-0.2501369,1.5131354,-8.939949,-0.15801731
0.01788059,4.608155,-0.6569665,0.05918886,-0.21604845,1.5945383,-8.848969,-0.08140286
0.01754887,4.60755,-0.6569665,0.05918886,-0.21604845,1.5945383,-8.848969,-0.08140286
0.017245643,4.60697,-0.62926966,0.045340426,-0.18515578,1.685518,-8.887277,-0.1388637
0.01694271,4.6063895,-0.62926966,0.045340426,-0.18515578,1.685518,-8.887277,-0.1388637
0.016669314,4.6058383,-0.59944224,0.031491987,-0.15639365,1.733402,-8.8777,-0.1388637
0.016396143,4.6052876,-0.59944224,0.031491987,-0.15639365,1.733402,-8.8777,-0.1388637
0.016146353,4.6047664,-0.5696148,0.016578285,-0.1340231,1.7812861,-8.767567,-0.12928689
0.01589675,4.604245,-0.5696148,0.016578285,-0.1340231,1.7812861,-8.767567,-0.12928689
0.015668571,4.603757,-0.53872216,-0.0015312112,-0.1159136,1.7764976,-8.791509,-0.10534488
0.015440545,4.603268,-0.53872216,-0.0015312112,-0.1159136,1.7764976,-8.791509,-0.10534488
0.015226589,4.602808,-0.50889474,-0.017510178,-0.10206516,1.7860745,-8.710106,-0.1340753
0.0150130745,4.6023493,-0.50889474,-0.017510178,-0.10206516,1.7860745,-8.710106,-0.1340753
0.014811706,4.601918,-0.4780021,-0.033489145,-0.08928198,1.7429788,-8.662222,-0.20111294
0.014610513,4.601488,-0.4780021,-0.033489145,-0.08928198,1.7429788,-8.662222,-0.20111294
0.014414679,4.601082,-0.44710943,-0.048402846,-0.07969461,1.7046716,-8.686164,-0.35434186
0.014219254,4.6006765,-0.44710943,-0.048402846,-0.07969461,1.7046716,-8.686164,-0.35434186
0.014033656,4.600297,-0.41941255,-0.062251285,-0.07010722,1.6759412,-8.805874,-0.40701428
0.013848177,4.5999184,-0.41941255,-0.062251285,-0.07010722,1.6759412,-8.805874,-0.40701428
0.013672851,4.5995646,-0.3938462,-0.07609972,-0.060519844,1.6328455,-8.944737,-0.45968673
0.0134976925,4.5992103,-0.3938462,-0.07609972,-0.060519844,1.6328455,-8.944737,-0.45968673
0.01332336,4.5988665,-0.37147567,-0.08994816,-0.053062994,1.4891934,-9.083601,-0.7086837
0.01314776,4.5985203,-0.37147567,-0.08994816,-0.053062994,1.4891934,-9.083601,-0.7086837
0.012978981,4.5981817,-0.35443142,-0.10486186,-0.04454088,1.460463,-9.23683,-0.89064306
0.012799162,4.597821,-0.35443142,-0.10486186,-0.04454088,1.460463,-9.23683,-0.89064306
0.012649197,4.597506,-0.340583,-0.11764504,-0.03282297,1.4317327,-9.380483,-0.9768343
0.012495904,4.597184,-0.340583,-0.11764504,-0.03282297,1.4317327,-9.380483,-0.9768343
0.012348057,4.5968494,-0.32993034,-0.12723242,-0.02323559,1.436521,-9.385271,-1.1683705
0.012200359,4.5965147,-0.32993034,-0.12723242,-0.02323559,1.436521,-9.385271,-1.1683705
0.012062841,4.5961685,-0.32460403,-0.133624,-0.014713474,1.2641385,-9.428367,-1.3215994
0.011926018,4.595824,-0.32460403,-0.133624,-0.014713474,1.2641385,-9.428367,-1.3215994
0.011802566,4.5954757,-0.32034296,-0.1368198,-0.004060829,1.1204864,-9.385271,-1.3694834
0.011679213,4.595129,-0.32034296,-0.1368198,-0.004060829,1.1204864,-9.385271,-1.3694834
0.0115725985,4.594768,-0.31714717,-0.1368198,0.0065918155,1.1109096,-9.337387,-1.5179238
0.01146642,4.5944095,-0.31714717,-0.1368198,0.0065918155,1.1109096,-9.337387,-1.5179238
0.011370686,4.594046,-0.31395137,-0.13575453,0.01724446,1.1300632,-9.308656,-1.5514427
0.011277595,4.5936937,-0.31395137,-0.13575453,0.01724446,1.1300632,-9.308656,-1.5514427
0.011185885,4.5933447,-0.31075558,-0.13042821,0.024701312,1.0773908,-9.3421755,-1.4652514
0.011094241,4.5929966,-0.31075558,-0.13042821,0.024701312,1.0773908,-9.3421755,-1.4652514
0.011007194,4.592655,-0.30649453,-0.124036625,0.031092897,0.9911995,-9.452309,-1.4317327
0.010920285,4.592316,-0.30649453,-0.124036625,0.031092897,0.9911995,-9.452309,-1.4317327
0.010835484,4.5919785,-0.29903767,-0.11338398,0.033223428,0.81402856,-9.629479,-1.4317327
0.010750894,4.5916433,-0.29903767,-0.11338398,0.033223428,0.81402856,-9.629479,-1.4317327
0.010663779,4.59133,-0.2894503,-0.10166607,0.037484486,0.6368576,-9.849746,-1.3311762
0.010577012,4.5910187,-0.2894503,-0.10166607,0.037484486,0.6368576,-9.849746,-1.3311762
0.010492078,4.590715,-0.27666712,-0.091013424,0.042810805,0.5746084,-10.175357,-1.3551182
0.0104097,4.5904217,-0.27666712,-0.091013424,0.042810805,0.5746084,-10.175357,-1.3551182
0.010342921,4.5901084,-0.26388395,-0.077164985,0.047071867,0.29688102,-10.419566,-1.4413095
0.010275888,4.589797,-0.26388395,-0.077164985,0.047071867,0.29688102,-10.419566,-1.4413095
0.010223757,4.5894847,-0.2500355,-0.064381815,0.05026766,0.16759412,-10.673351,-1.4748282
0.010171123,4.5891747,-0.2500355,-0.064381815,0.05026766,0.16759412,-10.673351,-1.4748282
0.010154125,4.588854,-0.23618707,-0.054794434,0.05346345,0.110133275,-10.82658,-1.5849615
0.010136522,4.588535,-0.23618707,-0.054794434,0.05346345,0.110133275,-10.82658,-1.5849615
0.010126454,4.5882244,-0.22233863,-0.048402846,0.05026766,0.095768064,-10.864887,-1.6328455
0.010115777,4.587915,-0.22233863,-0.048402846,0.05026766,0.095768064,-10.864887,-1.6328455
0.0101099955,4.5876102,-0.20955546,-0.040945996,0.0460066,0.095768064,-10.869676,-1.6998832
0.010103852,4.5873117,-0.20955546,-0.040945996,0.0460066,0.095768064,-10.869676,-1.6998832
0.010086143,4.587021,-0.19890282,-0.03455441,0.03428869,0.110133275,-10.836157,-1.7286136
0.010068086,4.586731,-0.19890282,-0.03455441,0.03428869,0.110133275,-10.836157,-1.7286136
0.010030642,4.5864515,-0.1871849,-0.027097559,0.015113931,0.08619126,-10.759542,-1.685518
0.009992962,4.586172,-0.1871849,-0.027097559,0.015113931,0.08619126,-10.759542,-1.685518
0.009932822,4.5859017,-0.17653225,-0.020705972,-0.013648209,0.038307227,-10.754754,-1.6472107
0.009872593,4.585633,-0.17653225,-0.020705972,-0.013648209,0.038307227,-10.754754,-1.6472107
0.009766128,4.5853744,-0.16694488,-0.012183856,-0.04773667,0.033518825,-10.730812,-1.5801731
0.0096600475,4.5851183,-0.16694488,-0.012183856,-0.04773667,0.033518825,-10.730812,-1.5801731
0.009514696,4.584868,-0.15522698,-0.00046594674,-0.091412514,0.05746084,-10.6637745,-1.6472107
0.0093721,4.5846224,-0.15522698,-0.00046594674,-0.091412514,0.05746084,-10.6637745,-1.6472107
0.0091723045,4.5843873,-0.14350906,0.010186698,-0.13934942,0.062249243,-10.67814,-1.6232687
0.008973643,4.584153,-0.14350906,0.010186698,-0.13934942,0.062249243,-10.67814,-1.6232687
0.008709826,4.5839343,-0.13285641,0.018708814,-0.19154738,0.1436521,-10.682928,-1.6711528
0.008447293,4.5837154,-0.13285641,0.018708814,-0.19154738,0.1436521,-10.682928,-1.6711528
0.008107079,4.5835147,-0.121138506,0.02723093,-0.2501369,0.2681506,-10.601525,-1.6998832
0.0077687935,4.5833144,-0.121138506,0.02723093,-0.2501369,0.2681506,-10.601525,-1.6998832
0.0073572733,4.583136,-0.108355336,0.033622514,-0.3076612,0.36391866,-10.55843,-1.6807296
0.0069480203,4.582958,-0.108355336,0.033622514,-0.3076612,0.36391866,-10.55843,-1.6807296
0.006472804,4.5827894,-0.09663743,0.03681831,-0.36625075,0.46447513,-10.491392,-1.7381904
0.006007724,4.582625,-0.09663743,0.03681831,-0.36625075,0.46447513,-10.491392,-1.7381904
0.005468132,4.5824747,-0.08598478,0.043209895,-0.42590556,0.545878,-10.448297,-1.7190368
0.0049309083,4.582325,-0.08598478,0.043209895,-0.42590556,0.545878,-10.448297,-1.7190368
0.0043353685,4.582185,-0.076397404,0.04853622,-0.4812993,0.5506664,-10.352529,-1.7046716
0.0037431126,4.5820446,-0.076397404,0.04853622,-0.4812993,0.5506664,-10.352529,-1.7046716
0.0030897858,4.581921,-0.07107108,0.053862542,-0.5313667,0.6607997,-10.280702,-1.6567876
0.0024360353,4.581797,-0.07107108,0.053862542,-0.5313667,0.6607997,-10.280702,-1.6567876
0.0017462153,4.581669,-0.06681002,0.0581236,-0.5739773,0.7278373,-10.170568,-1.7477672
0.0010373071,4.581537,-0.06681002,0.0581236,-0.5739773,0.7278373,-10.170568,-1.7477672
0.0003259409,4.5814133,-0.062548965,0.06451519,-0.60913104,0.7374141,-10.0987425,-1.757344
6.282794,4.581288,-0.062548965,0.06451519,-0.60913104,0.7374141,-10.0987425,-1.757344
6.2820406,4.5811663,-0.060418434,0.07090677,-0.6346974,0.8810662,-9.988609,-1.7908629
6.2812905,4.581045,-0.060418434,0.07090677,-0.6346974,0.8810662,-9.988609,-1.7908629
6.28051,4.5809293,-0.05935317,0.07729836,-0.6528069,0.9816227,-9.931149,-1.7669208
6.279733,4.580814,-0.05935317,0.07729836,-0.6528069,0.9816227,-9.931149,-1.7669208
6.278938,4.5807114,-0.058287904,0.08262468,-0.66345954,1.1444284,-9.811439,-1.685518
6.278144,4.580609,-0.058287904,0.08262468,-0.66345954,1.1444284,-9.811439,-1.685518
6.2773347,4.5805173,-0.056157377,0.087951005,-0.6666553,1.2641385,-9.787497,-1.6184803
6.2765307,4.580426,-0.056157377,0.087951005,-0.6666553,1.2641385,-9.787497,-1.6184803
6.2757173,4.5803547,-0.052961584,0.09327733,-0.6602637,1.3551182,-9.677363,-1.4556746
6.2749214,4.580284,-0.052961584,0.09327733,-0.6602637,1.3551182,-9.677363,-1.4556746
6.2741227,4.580222,-0.048700526,0.100734174,-0.6485458,1.4317327,-9.56723,-1.4030021
6.2733307,4.58016,-0.048700526,0.100734174,-0.6485458,1.4317327,-9.56723,-1.4030021
6.2725477,4.5801044,-0.04017841,0.10819103,-0.63256687,1.4748282,-9.399636,-1.4077905
6.271767,4.5800486,-0.04017841,0.10819103,-0.63256687,1.4748282,-9.399636,-1.4077905
6.2710094,4.579997,-0.031656295,0.11245208,-0.6101963,1.5658079,-9.270349,-1.4460979
6.270253,4.579946,-0.031656295,0.11245208,-0.6101963,1.5658079,-9.270349,-1.4460979
6.2695155,4.5799174,-0.019938385,0.11564788,-0.5856952,1.6759412,-9.169792,-1.3263878
6.268784,4.579889,-0.019938385,0.11564788,-0.5856952,1.6759412,-9.169792,-1.3263878
6.2680726,4.5798635,-0.009285741,0.116713144,-0.56012887,1.7812861,-9.083601,-1.4030021
6.26736,4.579839,-0.009285741,0.116713144,-0.56012887,1.7812861,-9.083601,-1.4030021
6.2666802,4.5798235,0.001366904,0.116713144,-0.53030145,1.8818425,-8.983045,-1.4221559
6.266003,4.5798078,0.001366904,0.116713144,-0.53030145,1.8818425,-8.983045,-1.4221559
6.2653522,4.5797997,0.00988902,0.11351735,-0.4994088,1.9393034,-8.949526,-1.4413095
6.264706,4.579791,0.00988902,0.11351735,-0.4994088,1.9393034,-8.949526,-1.4413095
6.264089,4.579792,0.016280606,0.10819103,-0.46532035,2.0446482,-8.863335,-1.4030021
6.264089,4.579792,0.016280606,0.10819103,-0.46532035,2.0446482,-8.863335,-1.4030021
6.264089,4.579792,0.02160693,0.10179944,-0.4301666,2.078167,-8.801085,-1.3934253
6.262399,4.579811,0.02160693,0.10179944,-0.4301666,2.078167,-8.801085,-1.3934253
6.262399,4.579811,0.02160693,0.10179944,-0.4301666,2.078167,-8.801085,-1.3934253
6.262399,4.579811,0.02160693,0.10179944,-0.4301666,2.078167,-8.801085,-1.3934253
6.2603564,4.5798435,0.025867987,0.087951005,-0.3555981,2.2170308,-8.690952,-1.2354081
6.2600846,4.579855,0.025867987,0.087951005,-0.3555981,2.2170308,-8.690952,-1.2354081
6.259602,4.5798883,0.027998514,0.07942889,-0.31831384,2.2649148,-8.652645,-1.1013328
6.259163,4.579919,0.027998514,0.07942889,-0.31831384,2.2649148,-8.652645,-1.1013328
6.258752,4.5799556,0.031194309,0.069841504,-0.27996433,2.2888567,-8.647857,-1.067814
6.2583323,4.5799923,0.031194309,0.069841504,-0.27996433,2.2888567,-8.647857,-1.067814
6.2579465,4.5800357,0.034390103,0.060254127,-0.24268007,2.327164,-8.643068,-1.0247183
6.257561,4.580079,0.034390103,0.060254127,-0.24268007,2.327164,-8.643068,-1.0247183
6.2572107,4.5801363,0.039716423,0.049601484,-0.20646107,2.255338,-8.619126,-0.90021986
6.2568574,4.580194,0.039716423,0.049601484,-0.20646107,2.255338,-8.619126,-0.90021986
6.2565637,4.58026,0.04823854,0.03681831,-0.1670463,2.2649148,-8.686164,-0.8523358
6.2562585,4.5803285,0.04823854,0.03681831,-0.1670463,2.2649148,-8.686164,-0.8523358
6.2562585,4.5803285,0.04823854,0.03681831,-0.1670463,2.2649148,-8.686164,-0.8523358
6.2557344,4.5804963,0.05782592,0.022969872,-0.12869677,2.2266076,-8.772355,-0.770933
6.255522,4.5806003,0.07167436,0.010186698,-0.08928198,2.0925324,-8.8777,-0.6751649
6.255306,4.580706,0.07167436,0.010186698,-0.08928198,2.0925324,-8.8777,-0.6751649
6.255132,4.580826,0.08339227,-0.0025964756,-0.048801936,2.0254946,-8.920795,-0.6607997
6.2549596,4.580945,0.08339227,-0.0025964756,-0.048801936,2.0254946,-8.920795,-0.6607997
6.254825,4.58107,0.09511018,-0.014314385,-0.0072566224,1.9536686,-9.002198,-0.78529817
6.254688,4.581198,0.09511018,-0.014314385,-0.0072566224,1.9536686,-9.002198,-0.78529817
6.2545958,4.581329,0.106828086,-0.027097559,0.03428869,1.910573,-9.107543,-0.8619126
6.2545023,4.581461,0.106828086,-0.027097559,0.03428869,1.910573,-9.107543,-0.8619126
6.2544446,4.581596,0.11428493,-0.037750203,0.07263821,1.8435353,-9.112331,-0.9576807
6.254388,4.581729,0.11428493,-0.037750203,0.07263821,1.8435353,-9.112331,-0.9576807
6.2543693,4.581867,0.11748073,-0.048402846,0.10992247,1.7764976,-9.141062,-0.94810385
6.254351,4.582006,0.11748073,-0.048402846,0.10992247,1.7764976,-9.141062,-0.94810385
6.254365,4.5821385,0.11748073,-0.0558597,0.14401093,1.7190368,-9.14585,-1.0295067
6.254379,4.5822706,0.11748073,-0.0558597,0.14401093,1.7190368,-9.14585,-1.0295067
6.2544203,4.5823994,0.1153502,-0.06118602,0.17170781,1.6567876,-9.11712,-1.043872
6.254462,4.5825276,0.1153502,-0.06118602,0.17170781,1.6567876,-9.11712,-1.043872
6.2545214,4.582643,0.11002388,-0.06331655,0.19194783,1.5945383,-9.160215,-1.1348516
6.2545815,4.5827584,0.11002388,-0.06331655,0.19194783,1.5945383,-9.160215,-1.1348516
6.2546573,4.5828753,0.102567025,-0.06331655,0.20579627,1.6184803,-9.136273,-1.0486604
6.254732,4.5829897,0.102567025,-0.06331655,0.20579627,1.6184803,-9.136273,-1.0486604
6.2548122,4.58309,0.09297965,-0.06118602,0.21218786,1.6328455,-9.083601,-1.1061212
6.254892,4.583189,0.09297965,-0.06118602,0.21218786,1.6328455,-9.083601,-1.1061212
6.254966,4.583268,0.08339227,-0.05692496,0.2079268,1.6232687,-9.054871,-1.2114661
6.2550397,4.583347,0.08339227,-0.05692496,0.2079268,1.6232687,-9.054871,-1.2114661
6.2551017,4.583423,0.073804885,-0.051598642,0.1962089,1.5897499,-9.045294,-1.1444284
6.2551637,4.583499,0.073804885,-0.051598642,0.1962089,1.5897499,-9.045294,-1.1444284
6.255206,4.583572,0.06421751,-0.04627232,0.17596887,1.541866,-9.131485,-1.0965444
6.255248,4.583645,0.06421751,-0.04627232,0.17596887,1.541866,-9.131485,-1.0965444
6.2552695,4.5837216,0.055695392,-0.03881547,0.15253304,1.3503298,-9.23683,-1.0247183
6.2552905,4.5837975,0.055695392,-0.03881547,0.15253304,1.3503298,-9.23683,-1.0247183
6.2552934,4.583883,0.047173277,-0.031358615,0.12590143,1.2066777,-9.423578,-0.92416185
6.255296,4.5839686,0.047173277,-0.031358615,0.12590143,1.2066777,-9.423578,-0.92416185
6.2552795,4.58406,0.039716423,-0.0228365,0.09713929,1.091756,-9.639056,-0.8714894
6.255263,4.5841517,0.039716423,-0.0228365,0.09713929,1.091756,-9.639056,-0.8714894
6.255218,4.5842385,0.031194309,-0.015379649,0.06624663,1.0007763,-9.854534,-0.90979666
6.2551727,4.584325,0.031194309,-0.015379649,0.06624663,1.0007763,-9.854534,-0.90979666
6.2550993,4.584407,0.024802722,-0.0068575335,0.037484486,0.9816227,-9.988609,-0.92416185
6.255026,4.584489,0.024802722,-0.0068575335,0.037484486,0.9816227,-9.988609,-0.92416185
6.2549167,4.584558,0.018411135,-0.00046594674,0.009787609,0.94810385,-10.060435,-1.0103531
6.2548084,4.584626,0.018411135,-0.00046594674,0.009787609,0.94810385,-10.060435,-1.0103531
6.2546806,4.584696,0.012019549,0.0027298466,-0.016844003,0.91937345,-10.041282,-0.9576807
6.2545524,4.584766,0.012019549,0.0027298466,-0.016844003,0.91937345,-10.041282,-0.9576807
6.254394,4.584827,0.005627962,0.00592564,-0.04454088,0.90979666,-9.940725,-0.9672575
6.254236,4.5848885,0.005627962,0.00592564,-0.04454088,0.90979666,-9.940725,-0.9672575
6.2540555,4.584947,-0.0007636249,0.008056169,-0.07117249,0.9528923,-9.892841,-0.90021986
6.2538753,4.5850058,-0.0007636249,0.008056169,-0.07117249,0.9528923,-9.892841,-0.90021986
6.25366,4.5850544,-0.006089947,0.011251962,-0.09993463,1.0342951,-9.811439,-0.90021986
6.2534456,4.585102,-0.006089947,0.011251962,-0.09993463,1.0342951,-9.811439,-0.90021986
6.253197,4.5851436,-0.0114162695,0.014447756,-0.12976204,1.1204864,-9.662998,-0.8571242
6.252953,4.585184,-0.0114162695,0.014447756,-0.12976204,1.1204864,-9.662998,-0.8571242
6.252682,4.5852246,-0.015677327,0.017643549,-0.15852417,1.163582,-9.605537,-0.78529817
6.2524114,4.585265,-0.015677327,0.017643549,-0.15852417,1.163582,-9.605537,-0.78529817
6.2521,4.5852914,-0.019938385,0.021904606,-0.18941684,1.2258313,-9.509769,-0.8523358
6.2517796,4.585319,-0.019938385,0.021904606,-0.18941684,1.2258313,-9.509769,-0.8523358
6.2514577,4.585351,-0.02313418,0.02723093,-0.21924424,1.2976574,-9.476251,-0.7038953
6.251126,4.585384,-0.02313418,0.02723093,-0.21924424,1.2976574,-9.476251,-0.7038953
6.2507625,4.585409,-0.026329972,0.031491987,-0.24800639,1.3120226,-9.428367,-0.7422025
6.250398,4.585436,-0.026329972,0.031491987,-0.24800639,1.3120226,-9.428367,-0.7422025
6.250012,4.585466,-0.029525764,0.03468778,-0.27357274,1.2737153,-9.457097,-0.6655881
6.2496314,4.5854964,-0.029525764,0.03468778,-0.27357274,1.2737153,-9.457097,-0.6655881
6.2492347,4.5855265,-0.032721557,0.037883572,-0.29168224,1.2593501,-9.56723,-0.6464345
6.2488375,4.5855565,-0.032721557,0.037883572,-0.29168224,1.2593501,-9.56723,-0.6464345
6.2484317,4.5855875,-0.035917353,0.037883572,-0.30553067,1.2162545,-9.667787,-0.61770403
6.248027,4.5856194,-0.035917353,0.037883572,-0.30553067,1.2162545,-9.667787,-0.61770403
6.247619,4.5856495,-0.04017841,0.038948838,-0.31192225,1.1587936,-9.825804,-0.6368576
6.247211,4.58568,-0.04017841,0.038948838,-0.31192225,1.1587936,-9.825804,-0.6368576
6.246809,4.5857043,-0.046569996,0.03681831,-0.3076612,1.1348516,-9.89763,-0.6560113
6.2464075,4.585729,-0.046569996,0.03681831,-0.3076612,1.1348516,-9.89763,-0.6560113
6.246014,4.5857525,-0.05189632,0.03681831,-0.30126962,1.1252748,-10.060435,-0.62249243
6.2456274,4.585775,-0.05189632,0.03681831,-0.30126962,1.1252748,-10.060435,-0.62249243
6.245247,4.5857916,-0.056157377,0.03468778,-0.28848645,1.1300632,-10.01734,-0.6607997
6.244866,4.5858083,-0.056157377,0.03468778,-0.28848645,1.1300632,-10.01734,-0.6607997
6.2444997,4.585817,-0.060418434,0.031491987,-0.26931167,1.2258313,-10.055647,-0.6751649
6.2441325,4.585825,-0.060418434,0.031491987,-0.26931167,1.2258313,-10.055647,-0.6751649
6.2437906,4.585835,-0.0614837,0.030426722,-0.24907166,1.2880806,-9.92636,-0.5506664
6.2434487,4.585845,-0.0614837,0.030426722,-0.24907166,1.2880806,-9.92636,-0.5506664
6.2431226,4.5858555,-0.058287904,0.030426722,-0.22883163,1.316811,-9.883265,-0.58897364
6.242797,4.585866,-0.058287904,0.030426722,-0.22883163,1.316811,-9.883265,-0.58897364
6.2424808,4.5858793,-0.05189632,0.028296193,-0.21072213,1.388637,-9.916783,-0.61291564
6.2421713,4.5858927,-0.05189632,0.028296193,-0.21072213,1.388637,-9.916783,-0.61291564
6.2418666,4.585911,-0.042308938,0.026165664,-0.1968737,1.4796166,-9.931149,-0.6464345
6.2415614,4.5859294,-0.042308938,0.026165664,-0.1968737,1.4796166,-9.931149,-0.6464345
6.241246,4.5859537,-0.029525764,0.021904606,-0.18622105,1.5993267,-9.888053,-0.7038953
6.240952,4.585976,-0.029525764,0.021904606,-0.18622105,1.5993267,-9.888053,-0.7038953
6.2406545,4.5860043,-0.015677327,0.019774077,-0.17982946,1.6567876,-9.797073,-0.79008657
6.2403536,4.586033,-0.015677327,0.019774077,-0.17982946,1.6567876,-9.797073,-0.79008657
6.2400584,4.586078,-0.0039594183,0.01551302,-0.1787642,1.6184803,-9.811439,-0.7278373
6.2397633,4.5861244,-0.0039594183,0.01551302,-0.1787642,1.6184803,-9.811439,-0.7278373
6.2394614,4.5861783,0.0066932263,0.011251962,-0.17982946,1.6663644,-9.797073,-0.7469909
6.2391663,4.586231,0.0066932263,0.011251962,-0.17982946,1.6663644,-9.797073,-0.7469909
6.238868,4.586297,0.016280606,0.0048603755,-0.18195999,1.6519991,-9.825804,-0.7182605
6.238571,4.5863624,0.016280606,0.0048603755,-0.18195999,1.6519991,-9.825804,-0.7182605
6.2382655,4.586441,0.024802722,-0.00046594674,-0.18409052,1.6998832,-9.835381,-0.6560113
6.237979,4.5865154,0.024802722,-0.00046594674,-0.18409052,1.6998832,-9.835381,-0.6560113
6.2376795,4.5866,0.034390103,-0.005792269,-0.18622105,1.7190368,-9.80665,-0.6703765
6.2373805,4.586684,0.034390103,-0.005792269,-0.18622105,1.7190368,-9.80665,-0.6703765
6.237084,4.5867805,0.043977484,-0.014314385,-0.18835159,1.7238252,-9.873688,-0.62728083
6.2367864,4.5868773,0.043977484,-0.014314385,-0.18835159,1.7238252,-9.873688,-0.62728083
6.2364798,4.586979,0.054630127,-0.021771235,-0.19048211,1.7381904,-9.859323,-0.7134721
6.2361794,4.587079,0.054630127,-0.021771235,-0.19048211,1.7381904,-9.859323,-0.7134721
6.2358813,4.5871973,0.06634804,-0.03242388,-0.19154738,1.7669208,-9.873688,-0.60333884
6.2355843,4.5873156,0.06634804,-0.03242388,-0.19154738,1.7669208,-9.873688,-0.60333884
6.2352805,4.5874395,0.08019647,-0.04627232,-0.19261263,1.8435353,-9.801862,-0.6751649
6.234978,4.5875635,0.08019647,-0.04627232,-0.19261263,1.8435353,-9.801862,-0.6751649
6.2346754,4.5877056,0.09617544,-0.060120758,-0.19474317,1.8866309,-9.720459,-0.61770403
6.234374,4.5878463,0.09617544,-0.060120758,-0.19474317,1.8866309,-9.720459,-0.61770403
6.234067,4.5880017,0.1153502,-0.07503446,-0.1968737,1.9393034,-9.653421,-0.6607997
6.2337604,4.5881567,0.1153502,-0.07503446,-0.1968737,1.9393034,-9.653421,-0.6607997
6.233459,4.5883284,0.13452496,-0.08781763,-0.19793896,1.9488802,-9.591172,-0.641646
6.23315,4.588505,0.13452496,-0.08781763,-0.19793896,1.9488802,-9.591172,-0.641646
6.232845,4.5886974,0.15689552,-0.10166607,-0.19580843,1.9201498,-9.514558,-0.6895301
6.232541,4.5888896,0.15689552,-0.10166607,-0.19580843,1.9201498,-9.514558,-0.6895301
6.23225,4.5891104,0.17820081,-0.11657977,-0.19048211,1.8531121,-9.495404,-0.58897364
6.231961,4.58933,0.17820081,-0.11657977,-0.19048211,1.8531121,-9.495404,-0.58897364
6.2316737,4.589568,0.20057136,-0.13042821,-0.18302526,1.9776106,-9.414001,-0.61291564
6.2313886,4.5898037,0.20057136,-0.13042821,-0.18302526,1.9776106,-9.414001,-0.61291564
6.231111,4.5900583,0.22081138,-0.14427665,-0.17343788,2.0446482,-9.399636,-0.62728083
6.2308345,4.5903115,0.22081138,-0.14427665,-0.17343788,2.0446482,-9.399636,-0.62728083
6.230565,4.590582,0.23892088,-0.15812509,-0.16278523,2.054225,-9.375694,-0.6703765
6.2303,4.590847,0.23892088,-0.15812509,-0.16278523,2.054225,-9.375694,-0.6703765
6.2300467,4.5911303,0.2559651,-0.1730388,-0.15000206,2.0733786,-9.375694,-0.6751649
6.2297935,4.5914135,0.2559651,-0.1730388,-0.15000206,2.0733786,-9.375694,-0.6751649
6.2295527,4.5917068,0.27194408,-0.18795249,-0.13615362,2.0638018,-9.346964,-0.7374141
6.229312,4.592,0.27194408,-0.18795249,-0.13615362,2.0638018,-9.346964,-0.7374141
6.229085,4.592306,0.28472725,-0.20073566,-0.122305185,1.9057846,-9.375694,-0.78529817
6.228859,4.592611,0.28472725,-0.20073566,-0.122305185,1.9057846,-9.375694,-0.78529817
6.228651,4.592926,0.2953799,-0.21245357,-0.104195684,1.8818425,-9.370906,-0.79008657
6.228444,4.5932393,0.2953799,-0.21245357,-0.104195684,1.8818425,-9.370906,-0.79008657
6.2282567,4.5935626,0.303902,-0.22204095,-0.0828904,1.9297266,-9.394848,-0.79966336
6.22807,4.5938845,0.303902,-0.22204095,-0.0828904,1.9297266,-9.394848,-0.79966336
6.227908,4.5942087,0.31029359,-0.23056307,-0.059454583,1.8195933,-9.452309,-0.8331822
6.227711,4.5946035,0.31029359,-0.23056307,-0.059454583,1.8195933,-9.452309,-0.8331822
6.2276025,4.5948687,0.31455466,-0.23695466,-0.034953497,1.7525556,-9.509769,-0.8283938
6.2274556,4.5952244,0.31455466,-0.23695466,-0.034953497,1.7525556,-9.509769,-0.8283938
6.22734,4.59555,0.31668517,-0.24121572,-0.01151768,1.661576,-9.548077,-0.90979666
6.22734,4.59555,0.31668517,-0.24121572,-0.01151768,1.661576,-9.548077,-0.90979666
6.2270756,4.596316,0.3188157,-0.24334624,0.011918138,1.6472107,-9.586384,-0.8475474
6.2270174,4.596533,0.3188157,-0.24334624,0.011918138,1.6472107,-9.586384,-0.8475474
6.2269406,4.5969095,0.31668517,-0.24547677,0.033223428,1.5275006,-9.576807,-0.866701
6.226882,4.5971947,0.31668517,-0.24547677,0.033223428,1.5275006,-9.576807,-0.866701
6.2268267,4.5975013,0.31029359,-0.24441151,0.054528717,1.532289,-9.591172,-1.0199299
6.226771,4.5978103,0.31029359,-0.24441151,0.054528717,1.532289,-9.591172,-1.0199299
6.226732,4.598102,0.3007062,-0.24228097,0.07263821,1.541866,-9.557653,-1.067814
6.226732,4.598102,0.3007062,-0.24228097,0.07263821,1.541866,-9.557653,-1.067814
6.226657,4.598675,0.28472725,-0.23908518,0.08222559,1.5753847,-9.495404,-1.0773908
6.2266264,4.5989475,0.28472725,-0.23908518,0.08222559,1.5753847,-9.495404,-1.0773908
6.2266,4.5992002,0.2655525,-0.23375887,0.087551914,1.5035586,-9.442732,-1.0726024
6.2265735,4.5994544,0.2655525,-0.23375887,0.087551914,1.5035586,-9.442732,-1.0726024
6.2265453,4.5996776,0.24531247,-0.22736728,0.08648665,1.4700398,-9.524135,-1.13964
6.226517,4.599902,0.24531247,-0.22736728,0.08648665,1.4700398,-9.524135,-1.13964
6.226481,4.600091,0.22081138,-0.21884516,0.07796454,1.4221559,-9.495404,-1.1971009
6.2264447,4.60028,0.22081138,-0.21884516,0.07796454,1.4221559,-9.495404,-1.1971009
6.2263937,4.600438,0.1931145,-0.20925778,0.06305083,1.4269443,-9.485827,-1.2210429
6.2263412,4.6006002,0.1931145,-0.20925778,0.06305083,1.4269443,-9.485827,-1.2210429
6.2262726,4.600726,0.1632871,-0.19647461,0.044941336,1.508347,-9.481039,-1.2258313
6.226202,4.6008554,0.1632871,-0.19647461,0.044941336,1.508347,-9.481039,-1.2258313
6.226106,4.6009474,0.13132916,-0.1847567,0.019374989,1.4508862,-9.495404,-1.2593501
6.226011,4.601039,0.13132916,-0.1847567,0.019374989,1.4508862,-9.495404,-1.2593501
6.2258854,4.6011,0.1004365,-0.17197353,-0.009387151,1.4700398,-9.500193,-1.2641385
6.225759,4.601161,0.1004365,-0.17197353,-0.009387151,1.4700398,-9.500193,-1.2641385
6.2255993,4.6011915,0.07060909,-0.15919036,-0.043475613,1.4987702,-9.500193,-1.2737153
6.225439,4.601223,0.07060909,-0.15919036,-0.043475613,1.4987702,-9.500193,-1.2737153
6.225243,4.601218,0.041846953,-0.14640717,-0.08075987,1.4748282,-9.562442,-1.3311762
6.225047,4.601213,0.041846953,-0.14640717,-0.08075987,1.4748282,-9.562442,-1.3311762
6.22481,4.601184,0.015215342,-0.133624,-0.120174654,1.4939818,-9.591172,-1.3215994
6.224574,4.6011553,0.015215342,-0.133624,-0.120174654,1.4939818,-9.591172,-1.3215994
6.2242975,4.6010976,-0.009285741,-0.121906094,-0.16065471,1.4748282,-9.629479,-1.3551182
6.22402,4.60104,-0.009285741,-0.121906094,-0.16065471,1.4748282,-9.629479,-1.3551182
6.223699,4.6009707,-0.031656295,-0.110188186,-0.19900422,1.4652514,-9.595961,-1.2641385
6.2233753,4.600902,-0.031656295,-0.110188186,-0.19900422,1.4652514,-9.595961,-1.2641385
6.2230186,4.6008167,-0.050831053,-0.10060081,-0.23628849,1.4269443,-9.682152,-1.2545617
6.2226596,4.600731,-0.050831053,-0.10060081,-0.23628849,1.4269443,-9.682152,-1.2545617
6.2222743,4.6006184,-0.06574476,-0.09420922,-0.26718116,1.4030021,-9.672575,-1.3311762
6.2218885,4.6005054,-0.06574476,-0.09420922,-0.26718116,1.4030021,-9.672575,-1.3311762
6.2214727,4.6003847,-0.076397404,-0.08888289,-0.2959433,1.460463,-9.701305,-1.3311762
6.221056,4.6002636,-0.076397404,-0.08888289,-0.2959433,1.460463,-9.701305,-1.3311762
6.220616,4.600132,-0.08598478,-0.08355658,-0.32044438,1.4796166,-9.725247,-1.3503298
6.220176,4.6,-0.08598478,-0.08355658,-0.32044438,1.4796166,-9.725247,-1.3503298
6.2197104,4.599884,-0.091311105,-0.079295516,-0.3374886,1.5514427,-9.758766,-1.2162545
6.2192407,4.599767,-0.091311105,-0.079295516,-0.3374886,1.5514427,-9.758766,-1.2162545
6.2187653,4.599646,-0.0945069,-0.07609972,-0.35346758,1.5945383,-9.720459,-1.2401965
6.218284,4.599524,-0.0945069,-0.07609972,-0.35346758,1.5945383,-9.720459,-1.2401965
6.217795,4.5993958,-0.09557216,-0.07290393,-0.36305496,1.5562311,-9.730036,-1.2737153
6.2173057,4.5992675,-0.09557216,-0.07290393,-0.36305496,1.5562311,-9.730036,-1.2737153
6.2168093,4.599145,-0.09663743,-0.0707734,-0.36838126,1.5993267,-9.749189,-1.2354081
6.2163124,4.5990224,-0.09663743,-0.0707734,-0.36838126,1.5993267,-9.749189,-1.2354081
6.2158155,4.5988975,-0.09663743,-0.06970814,-0.36944655,1.5945383,-9.749189,-1.2497733
6.215318,4.598773,-0.09663743,-0.06970814,-0.36944655,1.5945383,-9.749189,-1.2497733
6.214827,4.598646,-0.0945069,-0.06864287,-0.36518547,1.6041151,-9.706094,-1.2785037
6.2142763,4.598504,-0.0945069,-0.06864287,-0.36518547,1.6041151,-9.706094,-1.2785037
6.213842,4.598401,-0.091311105,-0.06864287,-0.35879388,1.6280571,-9.706094,-1.2258313
6.2133517,4.5982847,-0.091311105,-0.06864287,-0.35879388,1.6280571,-9.706094,-1.2258313
6.2128663,4.598171,-0.08598478,-0.06970814,-0.35133705,1.6807296,-9.662998,-1.2401965
6.212317,4.598043,-0.08598478,-0.06970814,-0.35133705,1.6807296,-9.662998,-1.2401965
6.2119126,4.59795,-0.08172372,-0.07183866,-0.33961913,1.7525556,-9.615114,-1.2449849
6.21145,4.597843,-0.08172372,-0.07183866,-0.33961913,1.7525556,-9.615114,-1.2449849
6.2110004,4.5977435,-0.07426687,-0.07396919,-0.32683596,1.7908629,-9.572019,-1.2497733
6.210548,4.597643,-0.07426687,-0.07396919,-0.32683596,1.7908629,-9.572019,-1.2497733
6.210101,4.597556,-0.06467949,-0.077164985,-0.3140528,1.7717092,-9.581595,-1.2018893
6.2096624,4.597471,-0.06467949,-0.077164985,-0.3140528,1.7717092,-9.581595,-1.2018893
6.209237,4.597383,-0.052961584,-0.08036078,-0.30233487,1.7286136,-9.5385,-1.3072342
6.20881,4.597294,-0.052961584,-0.08036078,-0.30233487,1.7286136,-9.5385,-1.3072342
6.2083974,4.597217,-0.039113145,-0.0856871,-0.28848645,1.8195933,-9.414001,-1.3263878
6.207985,4.59714,-0.039113145,-0.0856871,-0.28848645,1.8195933,-9.414001,-1.3263878
6.2075887,4.5970693,-0.025264706,-0.08994816,-0.27570325,1.9393034,-9.356541,-1.4173675
6.207191,4.596998,-0.025264706,-0.08994816,-0.27570325,1.9393034,-9.356541,-1.4173675
6.2068076,4.596938,-0.012481534,-0.09420922,-0.26398537,2.0111294,-9.294291,-1.4556746
6.206424,4.5968776,-0.012481534,-0.09420922,-0.26398537,2.0111294,-9.294291,-1.4556746
6.2060556,4.596823,-0.0018288894,-0.09740501,-0.2501369,2.0254946,-9.251195,-1.5035586
6.205689,4.596769,-0.0018288894,-0.09740501,-0.2501369,2.0254946,-9.251195,-1.5035586
6.20534,4.5967197,0.00988902,-0.09740501,-0.23735374,2.006341,-9.251195,-1.5753847
6.2049894,4.5966706,0.00988902,-0.09740501,-0.23735374,2.006341,-9.251195,-1.5753847
6.204656,4.5966268,0.019476399,-0.09740501,-0.2235053,2.0733786,-9.217676,-1.661576
6.204323,4.5965824,0.019476399,-0.09740501,-0.2235053,2.0733786,-9.217676,-1.661576
6.2040043,4.5965443,0.026933251,-0.09740501,-0.20965686,2.135628,-9.222465,-1.7142484
6.203686,4.5965056,0.026933251,-0.09740501,-0.20965686,2.135628,-9.222465,-1.7142484
6.203374,4.5964785,0.031194309,-0.095274486,-0.19793896,2.255338,-9.241618,-1.6567876
6.2030616,4.5964518,0.031194309,-0.095274486,-0.19793896,2.255338,-9.241618,-1.6567876
6.2027574,4.596434,0.037585896,-0.09420922,-0.18835159,2.0973208,-9.32781,-1.5658079
6.202453,4.596416,0.037585896,-0.09420922,-0.18835159,2.0973208,-9.32781,-1.5658079
6.2021623,4.5964007,0.045042746,-0.09420922,-0.1787642,1.958457,-9.32781,-1.5801731
6.2018714,4.596385,0.045042746,-0.09420922,-0.1787642,1.958457,-9.32781,-1.5801731
6.20159,4.5963826,0.0524996,-0.09633975,-0.16598102,1.9632454,-9.346964,-1.5131354
6.2013083,4.59638,0.0524996,-0.09633975,-0.16598102,1.9632454,-9.346964,-1.5131354
6.2010326,4.596397,0.05995645,-0.10166607,-0.15426312,2.0207062,-9.332599,-1.3982137
6.200757,4.5964136,0.05995645,-0.10166607,-0.15426312,2.0207062,-9.332599,-1.3982137
6.200493,4.596442,0.0674133,-0.106992394,-0.14147994,2.0446482,-9.299079,-1.3503298
6.2002287,4.596471,0.0674133,-0.106992394,-0.14147994,2.0446482,-9.299079,-1.3503298
6.1999764,4.596511,0.075935416,-0.11231872,-0.12869677,2.0398598,-9.3182335,-1.316811
6.1997247,4.596551,0.075935416,-0.11231872,-0.12869677,2.0398598,-9.3182335,-1.316811
6.199485,4.596607,0.08552279,-0.1187103,-0.1159136,2.0207062,-9.380483,-1.2545617
6.1992445,4.5966635,0.08552279,-0.1187103,-0.1159136,2.0207062,-9.380483,-1.2545617
6.199015,4.5967326,0.09830597,-0.1251019,-0.106326215,1.8818425,-9.457097,-1.2354081
6.198785,4.5968018,0.09830597,-0.1251019,-0.106326215,1.8818425,-9.457097,-1.2354081
6.198564,4.5968947,0.11215441,-0.133624,-0.09673884,1.8914193,-9.423578,-1.1492168
6.198344,4.5969877,0.11215441,-0.133624,-0.09673884,1.8914193,-9.423578,-1.1492168
6.1981335,4.597091,0.1270681,-0.14427665,-0.08821672,1.9009962,-9.380483,-1.1683705
6.1979227,4.5971947,0.1270681,-0.14427665,-0.08821672,1.9009962,-9.380483,-1.1683705
6.1977224,4.597302,0.14198181,-0.15705982,-0.08075987,2.006341,-9.380483,-1.2641385
6.197522,4.597409,0.14198181,-0.15705982,-0.08075987,2.006341,-9.380483,-1.2641385
6.197328,4.597537,0.15583025,-0.17090826,-0.07436828,2.0685902,-9.356541,-1.1923125
6.1971345,4.597665,0.15583025,-0.17090826,-0.07436828,2.0685902,-9.356541,-1.1923125
6.196945,4.5978146,0.16967869,-0.18688722,-0.07117249,2.006341,-9.3182335,-1.1013328
6.1967564,4.5979643,0.16967869,-0.18688722,-0.07117249,2.006341,-9.3182335,-1.1013328
6.1965714,4.598116,0.18246186,-0.20180093,-0.06904196,1.9440918,-9.299079,-1.1731589
6.1963863,4.598267,0.18246186,-0.20180093,-0.06904196,1.9440918,-9.299079,-1.1731589
6.196203,4.5984287,0.19524503,-0.21671464,-0.06904196,2.030283,-9.212888,-1.1779473
6.19602,4.5985904,0.19524503,-0.21671464,-0.06904196,2.030283,-9.212888,-1.1779473
6.1958365,4.5987587,0.20589767,-0.2294978,-0.07117249,2.1164744,-9.121908,-1.2066777
6.195653,4.5989265,0.20589767,-0.2294978,-0.07117249,2.1164744,-9.121908,-1.2066777
6.195467,4.5991054,0.21335453,-0.24015045,-0.07436828,2.054225,-9.155427,-1.1540052
6.195281,4.599284,0.21335453,-0.24015045,-0.07436828,2.054225,-9.155427,-1.1540052
6.1950912,4.599472,0.21974611,-0.24867256,-0.078629345,1.9393034,-9.169792,-1.115698
6.1948957,4.5996656,0.21974611,-0.24867256,-0.078629345,1.9393034,-9.169792,-1.115698
6.1947093,4.599851,0.22507244,-0.2593252,-0.08182514,1.9440918,-9.160215,-1.1204864
6.1945176,4.600042,0.22507244,-0.2593252,-0.08182514,1.9440918,-9.160215,-1.1204864
6.1943216,4.600232,0.22826824,-0.26997787,-0.08715145,1.9776106,-9.174581,-1.1492168
6.1941257,4.600422,0.22826824,-0.26997787,-0.08715145,1.9776106,-9.174581,-1.1492168
6.193928,4.6006136,0.23039876,-0.27849996,-0.09034725,1.9536686,-9.160215,-1.1348516
6.1937284,4.600806,0.23039876,-0.27849996,-0.09034725,1.9536686,-9.160215,-1.1348516
6.1935306,4.600996,0.2325293,-0.28702208,-0.092477776,2.0494366,-9.074024,-1.1492168
6.1933312,4.6011868,0.2325293,-0.28702208,-0.092477776,2.0494366,-9.074024,-1.1492168
6.1931353,4.6013684,0.23465982,-0.29341367,-0.092477776,2.0494366,-9.088389,-1.2449849
6.192939,4.601549,0.23465982,-0.29341367,-0.092477776,2.0494366,-9.088389,-1.2449849
6.192745,4.6017256,0.23359455,-0.29767472,-0.091412514,2.006341,-9.045294,-1.2641385
6.1925516,4.6019015,0.23359455,-0.29767472,-0.091412514,2.006341,-9.045294,-1.2641385
6.192358,4.602068,0.22933349,-0.29874,-0.093543045,1.9393034,-8.99741,-1.292869
6.192165,4.602234,0.22933349,-0.29874,-0.093543045,1.9393034,-8.99741,-1.292869
6.191979,4.602381,0.22187665,-0.2955442,-0.091412514,1.9009962,-9.006987,-1.3838485
6.1917934,4.602529,0.22187665,-0.2955442,-0.091412514,1.9009962,-9.006987,-1.3838485
6.1916137,4.602668,0.21335453,-0.28702208,-0.08502093,1.9297266,-8.935161,-1.3982137
6.191434,4.602806,0.21335453,-0.28702208,-0.08502093,1.9297266,-8.935161,-1.3982137
6.1912646,4.6029253,0.20163663,-0.27530417,-0.07969461,1.9440918,-8.868123,-1.4987702
6.1910954,4.6030445,0.20163663,-0.27530417,-0.07969461,1.9440918,-8.868123,-1.4987702
6.190933,4.603145,0.1845924,-0.2593252,-0.07330302,1.9728222,-8.829816,-1.5466543
6.190771,4.6032457,0.1845924,-0.2593252,-0.07330302,1.9728222,-8.829816,-1.5466543
6.1906266,4.6033187,0.16541763,-0.24015045,-0.06371564,1.9632454,-8.7532015,-1.6998832
6.1904826,4.603391,0.16541763,-0.24015045,-0.06371564,1.9632454,-8.7532015,-1.6998832
6.1903496,4.6034393,0.14198181,-0.21991043,-0.05412826,1.9440918,-8.7292595,-1.7477672
6.190217,4.603487,0.14198181,-0.21991043,-0.05412826,1.9440918,-8.7292595,-1.7477672
6.190095,4.6035066,0.11428493,-0.19540934,-0.04454088,1.9297266,-8.7532015,-1.8100165
6.1899505,4.603529,0.11428493,-0.19540934,-0.04454088,1.9297266,-8.7532015,-1.8100165
6.1898546,4.603521,0.08445753,-0.17197353,-0.03282297,1.8914193,-8.7532015,-1.8004397
6.189744,4.603512,0.08445753,-0.17197353,-0.03282297,1.8914193,-8.7532015,-1.8004397
6.189591,4.6034603,0.054630127,-0.14960296,-0.02323559,1.9249382,-8.748413,-1.7908629
6.189537,4.603442,0.054630127,-0.14960296,-0.02323559,1.9249382,-8.748413,-1.7908629
6.189431,4.603377,0.020541664,-0.12829769,-0.012582945,1.9919758,-8.834604,-1.7525556
6.1893272,4.6033134,0.020541664,-0.12829769,-0.012582945,1.9919758,-8.834604,-1.7525556
6.1892257,4.603227,-0.013546798,-0.110188186,-0.0019303001,2.0015526,-8.896853,-1.6184803
6.1892257,4.603227,-0.013546798,-0.110188186,-0.0019303001,2.0015526,-8.896853,-1.6184803
6.1889777,4.602987,-0.04763526,-0.093143955,0.005526551,1.982399,-8.939949,-1.5849615
6.188912,4.6029086,-0.04763526,-0.093143955,0.005526551,1.982399,-8.939949,-1.5849615
6.188816,4.602781,-0.08065846,-0.07609972,0.014048667,1.9871874,-9.045294,-1.4413095
6.188714,4.602644,-0.08065846,-0.07609972,0.014048667,1.9871874,-9.045294,-1.4413095
6.188714,4.602644,-0.11155113,-0.062251285,0.018309724,1.9776106,-9.121908,-1.2689269
6.1884985,4.60235,-0.11155113,-0.062251285,0.018309724,1.9776106,-9.121908,-1.2689269
6.1883917,4.6021833,-0.139248,-0.04946811,0.024701312,2.0015526,-9.121908,-1.2018893
6.1882844,4.6020164,-0.139248,-0.04946811,0.024701312,2.0015526,-9.121908,-1.2018893
6.1881814,4.6018376,-0.16374908,-0.036684938,0.033223428,2.0638018,-9.169792,-1.115698
6.188079,4.601659,-0.16374908,-0.036684938,0.033223428,2.0638018,-9.169792,-1.115698
6.1879826,4.601488,-0.18505438,-0.02496703,0.037484486,1.9009962,-9.303867,-0.91937345
6.1878858,4.601317,-0.18505438,-0.02496703,0.037484486,1.9009962,-9.303867,-0.91937345
6.187801,4.60115,-0.20209861,-0.015379649,0.041745543,1.7908629,-9.275137,-0.78050977
6.1877165,4.600983,-0.20209861,-0.015379649,0.041745543,1.7908629,-9.275137,-0.78050977
6.1876388,4.600806,-0.21594705,-0.010053327,0.047071867,1.70946,-9.375694,-0.79487497
6.1875606,4.60063,-0.21594705,-0.010053327,0.047071867,1.70946,-9.375694,-0.79487497
6.187488,4.600441,-0.22553442,-0.007922798,0.054528717,1.7621324,-9.409213,-0.80924016
6.187416,4.600252,-0.22553442,-0.007922798,0.054528717,1.7621324,-9.409213,-0.80924016
6.187345,4.600046,-0.23299128,-0.011118591,0.0609203,1.8531121,-9.370906,-0.8619126
6.1872745,4.59984,-0.23299128,-0.011118591,0.0609203,1.8531121,-9.370906,-0.8619126
6.187203,4.5996113,-0.23938286,-0.014314385,0.06518136,1.8914193,-9.356541,-0.9720459
6.1871314,4.5993843,-0.23938286,-0.014314385,0.06518136,1.8914193,-9.356541,-0.9720459
6.187065,4.5991488,-0.24577445,-0.015379649,0.07050768,1.8914193,-9.380483,-0.9864111
6.186999,4.598913,-0.24577445,-0.015379649,0.07050768,1.8914193,-9.380483,-0.9864111
6.186939,4.5986714,-0.2532313,-0.018575443,0.075834006,1.8722657,-9.361329,-0.9816227
6.186878,4.5984297,-0.2532313,-0.018575443,0.075834006,1.8722657,-9.361329,-0.9816227
6.186818,4.598177,-0.2596229,-0.020705972,0.07689927,1.8626889,-9.385271,-1.0199299
6.1867585,4.5979247,-0.2596229,-0.020705972,0.07689927,1.8626889,-9.385271,-1.0199299
6.1867,4.5976634,-0.26921028,-0.0228365,0.07796454,1.8531121,-9.390059,-1.0151415
6.1866417,4.597403,-0.26921028,-0.0228365,0.07796454,1.8531121,-9.390059,-1.0151415
6.186581,4.5971236,-0.27666712,-0.023901764,0.07689927,1.9201498,-9.375694,-1.091756
6.1865206,4.5968447,-0.27666712,-0.023901764,0.07689927,1.9201498,-9.375694,-1.091756
6.1864595,4.5965776,-0.2830587,-0.026032293,0.07263821,1.9153614,-9.423578,-0.9624691
6.1863985,4.5963116,-0.2830587,-0.026032293,0.07263821,1.9153614,-9.423578,-0.9624691
6.1863303,4.5960226,-0.29158083,-0.026032293,0.06837715,1.8722657,-9.476251,-1.0726024
6.186262,4.5957346,-0.29158083,-0.026032293,0.06837715,1.8722657,-9.476251,-1.0726024
6.186191,4.5954447,-0.2979724,-0.029228088,0.0641161,1.8722657,-9.572019,-1.0534488
6.1861196,4.5951552,-0.2979724,-0.029228088,0.0641161,1.8722657,-9.572019,-1.0534488
6.186047,4.5948644,-0.304364,-0.031358615,0.0609203,1.8579005,-9.605537,-1.0247183
6.185974,4.594574,-0.304364,-0.031358615,0.0609203,1.8579005,-9.605537,-1.0247183
6.1858983,4.5942707,-0.30969033,-0.030293351,0.059855036,1.8243817,-9.624691,-1.043872
6.185826,4.59398,-0.30969033,-0.030293351,0.059855036,1.8243817,-9.624691,-1.043872
6.185747,4.5936728,-0.31395137,-0.029228088,0.056659244,1.8004397,-9.605537,-1.091756
6.185668,4.593365,-0.31395137,-0.029228088,0.056659244,1.8004397,-9.605537,-1.091756
6.1855845,4.593054,-0.3192777,-0.027097559,0.052398186,1.7908629,-9.615114,-1.091756
6.1855016,4.5927424,-0.3192777,-0.027097559,0.052398186,1.7908629,-9.615114,-1.091756
6.1854157,4.5924273,-0.3224735,-0.02496703,0.05026766,1.8004397,-9.629479,-1.1013328
6.1853304,4.5921125,-0.3224735,-0.02496703,0.05026766,1.8004397,-9.629479,-1.1013328
6.1852436,4.591795,-0.32779983,-0.021771235,0.049202394,1.7908629,-9.581595,-1.0821792
6.1851573,4.5914793,-0.32779983,-0.021771235,0.049202394,1.7908629,-9.581595,-1.0821792
6.185068,4.591158,-0.33099562,-0.018575443,0.047071867,1.7956513,-9.595961,-1.0965444
6.184979,4.590838,-0.33099562,-0.018575443,0.047071867,1.7956513,-9.595961,-1.0965444
6.184887,4.5905046,-0.33206087,-0.015379649,0.0460066,1.8243817,-9.600749,-1.1731589
6.184795,4.590172,-0.33206087,-0.015379649,0.0460066,1.8243817,-9.600749,-1.1731589
6.1847043,4.589851,-0.3341914,-0.01324912,0.0460066,1.8052281,-9.557653,-1.0630256
6.1846166,4.589538,-0.3341914,-0.01324912,0.0460066,1.8052281,-9.557653,-1.0630256
6.1845245,4.589217,-0.33632192,-0.012183856,0.04387607,1.8291701,-9.576807,-1.0821792
6.184433,4.5888963,-0.33632192,-0.012183856,0.04387607,1.8291701,-9.576807,-1.0821792
6.18434,4.5885797,-0.3373872,-0.007922798,0.041745543,1.8674773,-9.562442,-1.043872
6.1842475,4.5882635,-0.3373872,-0.007922798,0.041745543,1.8674773,-9.562442,-1.043872
6.1841564,4.5879555,-0.3395177,-0.0025964756,0.039615013,1.8674773,-9.595961,-0.9816227
6.1840653,4.5876474,-0.3395177,-0.0025964756,0.039615013,1.8674773,-9.595961,-0.9816227
6.1839695,4.5873384,-0.3395177,0.0048603755,0.03641922,1.8770541,-9.485827,-0.9816227
6.183871,4.58702,-0.3395177,0.0048603755,0.03641922,1.8770541,-9.485827,-0.9816227
6.183774,4.5867205,-0.3373872,0.014447756,0.035353955,1.910573,-9.528923,-1.0151415
6.1836743,4.586411,-0.3373872,0.014447756,0.035353955,1.910573,-9.528923,-1.0151415
6.1835694,4.586099,-0.33312613,0.0251004,0.03428869,1.9153614,-9.500193,-1.0773908
6.183464,4.585788,-0.33312613,0.0251004,0.03428869,1.9153614,-9.500193,-1.0773908
6.183354,4.5854807,-0.32779983,0.03681831,0.031092897,1.9297266,-9.476251,-1.0869676
6.1832438,4.5851755,-0.32779983,0.03681831,0.031092897,1.9297266,-9.476251,-1.0869676
6.183129,4.58487,-0.3224735,0.045340426,0.02896237,1.910573,-9.514558,-1.1204864
6.183014,4.5845647,-0.3224735,0.045340426,0.02896237,1.910573,-9.514558,-1.1204864
6.1828966,4.5842705,-0.31714717,0.052797277,0.025766576,1.958457,-9.524135,-1.1109096
6.182779,4.583976,-0.31714717,0.052797277,0.025766576,1.958457,-9.524135,-1.1109096
6.182655,4.583679,-0.31182083,0.054927804,0.021505518,2.0015526,-9.485827,-1.1540052
6.182531,4.583383,-0.31182083,0.054927804,0.021505518,2.0015526,-9.485827,-1.1540052
6.182402,4.5830903,-0.304364,0.053862542,0.01724446,2.0638018,-9.509769,-1.1875241
6.1822734,4.5827975,-0.304364,0.053862542,0.01724446,2.0638018,-9.509769,-1.1875241
6.1821384,4.582526,-0.29477662,0.050666746,0.00765708,2.0590134,-9.5385,-1.0965444
6.182004,4.5822554,-0.29477662,0.050666746,0.00765708,2.0590134,-9.5385,-1.0965444
6.1818633,4.581992,-0.28731975,0.047470953,0.0012654932,2.0254946,-9.576807,-1.1013328
6.181723,4.58173,-0.28731975,0.047470953,0.0012654932,2.0254946,-9.576807,-1.1013328
6.181579,4.581482,-0.27560186,0.043209895,-0.004060829,1.934515,-9.528923,-1.0869676
6.181435,4.581234,-0.27560186,0.043209895,-0.004060829,1.934515,-9.528923,-1.0869676
6.181291,4.581008,-0.2628187,0.038948838,-0.009387151,1.982399,-9.581595,-1.0151415
6.181147,4.580781,-0.2628187,0.038948838,-0.009387151,1.982399,-9.581595,-1.0151415
6.1810064,4.580573,-0.2500355,0.032557253,-0.010452416,1.9536686,-9.648633,-0.9816227
6.1808662,4.580365,-0.2500355,0.032557253,-0.010452416,1.9536686,-9.648633,-0.9816227
6.1807303,4.580176,-0.2351218,0.026165664,-0.009387151,1.8435353,-9.773131,-1.0055647
6.1805944,4.5799866,-0.2351218,0.026165664,-0.009387151,1.8435353,-9.773131,-1.0055647
6.1804605,4.579807,-0.22233863,0.021904606,-0.006191358,1.8291701,-9.730036,-1.0295067
6.1803265,4.579628,-0.22233863,0.021904606,-0.006191358,1.8291701,-9.730036,-1.0295067
6.1802006,4.579464,-0.21062072,0.017643549,-0.0008650357,1.7764976,-9.816227,-1.0342951
6.1800756,4.5793,-0.21062072,0.017643549,-0.0008650357,1.7764976,-9.816227,-1.0342951
6.1799536,4.5791388,-0.19890282,0.01551302,0.008722344,1.7381904,-9.849746,-1.1204864
6.1798315,4.578977,-0.19890282,0.01551302,0.008722344,1.7381904,-9.849746,-1.1204864
6.179714,4.578818,-0.18825017,0.016578285,0.018309724,1.7238252,-9.830592,-1.1683705
6.1795983,4.578662,-0.18825017,0.016578285,0.018309724,1.7238252,-9.830592,-1.1683705
6.179485,4.5784907,-0.17759752,0.016578285,0.027897105,1.7046716,-9.763555,-1.292869
6.179371,4.5783205,-0.17759752,0.016578285,0.027897105,1.7046716,-9.763555,-1.292869
6.1792684,4.5781384,-0.16907541,0.019774077,0.039615013,1.6567876,-9.691729,-1.3742718
6.1792684,4.5781384,-0.16907541,0.019774077,0.039615013,1.6567876,-9.691729,-1.3742718
6.179053,4.577752,-0.16481435,0.022969872,0.04813713,1.7286136,-9.634268,-1.412579
6.1789694,4.577589,-0.16481435,0.022969872,0.04813713,1.7286136,-9.634268,-1.412579
6.1788874,4.577405,-0.16374908,0.0251004,0.056659244,1.8387469,-9.615114,-1.4652514
6.178805,4.57722,-0.16374908,0.0251004,0.056659244,1.8387469,-9.615114,-1.4652514
6.178724,4.577019,-0.16587962,0.030426722,0.061985567,1.8531121,-9.490616,-1.484405
6.17865,4.576835,-0.16587962,0.030426722,0.061985567,1.8531121,-9.490616,-1.484405
6.178572,4.576643,-0.16587962,0.030426722,0.061985567,1.8531121,-9.490616,-1.484405
6.178496,4.576449,-0.17014067,0.03468778,0.06518136,1.9297266,-9.375694,-1.4748282
6.17842,4.576256,-0.17014067,0.03468778,0.06518136,1.9297266,-9.375694,-1.4748282
6.178343,4.5760517,-0.17759752,0.040014103,0.0641161,2.030283,-9.279925,-1.5131354
6.1782656,4.575847,-0.17759752,0.040014103,0.0641161,2.030283,-9.279925,-1.5131354
6.178182,4.575633,-0.19038069,0.04427516,0.05772451,2.054225,-9.193734,-1.5035586
6.1780977,4.5754175,-0.19038069,0.04427516,0.05772451,2.054225,-9.193734,-1.5035586
6.178006,4.5751877,-0.2052944,0.05173201,0.05133292,2.0494366,-9.11712,-1.5035586
6.1779146,4.5749574,-0.2052944,0.05173201,0.05133292,2.0494366,-9.11712,-1.5035586
6.1778092,4.574716,-0.22233863,0.061319392,0.040680278,2.0159178,-9.131485,-1.4556746
6.1777043,4.574476,-0.22233863,0.061319392,0.040680278,2.0159178,-9.131485,-1.4556746
6.1775856,4.574223,-0.24151339,0.069841504,0.030027634,2.078167,-9.093178,-1.4077905
6.1774673,4.5739717,-0.24151339,0.069841504,0.030027634,2.078167,-9.093178,-1.4077905
6.1773376,4.5737047,-0.26068816,0.07942889,0.020440254,2.0350714,-9.083601,-1.3838485
6.1772075,4.573437,-0.26068816,0.07942889,0.020440254,2.0350714,-9.083601,-1.3838485
6.1770678,4.5731635,-0.28092816,0.087951005,0.011918138,2.0494366,-9.054871,-1.283292
6.1769276,4.5728903,-0.28092816,0.087951005,0.011918138,2.0494366,-9.054871,-1.283292
6.176782,4.5726147,-0.2979724,0.09647312,0.005526551,2.0733786,-9.131485,-1.1827357
6.1766367,4.57234,-0.2979724,0.09647312,0.005526551,2.0733786,-9.131485,-1.1827357
6.1764827,4.5720534,-0.31395137,0.102864705,-0.0029955646,2.0015526,-9.169792,-1.1731589
6.1763287,4.571767,-0.31395137,0.102864705,-0.0029955646,2.0015526,-9.169792,-1.1731589
6.1761694,4.571468,-0.32779983,0.10819103,-0.008321887,2.0685902,-9.246407,-1.1731589
6.1760097,4.571169,-0.32779983,0.10819103,-0.008321887,2.0685902,-9.246407,-1.1731589
6.1758494,4.570869,-0.3395177,0.11351735,-0.012582945,2.0638018,-9.308656,-1.0965444
6.1756916,4.570574,-0.3395177,0.11351735,-0.012582945,2.0638018,-9.308656,-1.0965444
6.1755276,4.5702667,-0.3491051,0.11245208,-0.017909266,2.0973208,-9.3182335,-1.0869676
6.1753607,4.569955,-0.3491051,0.11245208,-0.017909266,2.0973208,-9.3182335,-1.0869676
6.175194,4.5696387,-0.35549667,0.10712577,-0.020039797,2.0829554,-9.399636,-1.1204864
6.1750274,4.5693235,-0.35549667,0.10712577,-0.020039797,2.0829554,-9.399636,-1.1204864
6.174859,4.5690002,-0.35975775,0.10179944,-0.02110506,2.1021092,-9.44752,-1.1587936
6.1746907,4.568676,-0.35975775,0.10179944,-0.02110506,2.1021092,-9.44752,-1.1587936
6.174532,4.5683613,-0.3618883,0.09434259,-0.018974531,2.0685902,-9.519346,-1.0726024
6.174373,4.568047,-0.3618883,0.09434259,-0.018974531,2.0685902,-9.519346,-1.0726024
6.174221,4.567729,-0.36295354,0.08049415,-0.018974531,2.2888567,-9.595961,-0.842759
6.174077,4.5674286,-0.36295354,0.08049415,-0.018974531,2.2888567,-9.595961,-0.842759
6.173897,4.567055,-0.35975775,0.047470953,-0.027496647,2.5761611,-9.481039,-0.6751649
6.173769,4.566813,-0.35017037,-0.0047270046,-0.048801936,2.6431987,-9.270349,-0.51714754
6.1735563,4.566408,-0.35017037,-0.0047270046,-0.048801936,2.6431987,-9.270349,-0.51714754
6.1735563,4.566408,-0.35017037,-0.0047270046,-0.048801936,2.6431987,-9.270349,-0.51714754
6.173271,4.5659323,-0.3341914,-0.054794434,-0.07010722,2.6623523,-9.040505,-0.5650316
6.1730466,4.56561,-0.31395137,-0.08781763,-0.08821672,2.0254946,-9.198523,-0.9720459
6.1729026,4.565404,-0.31395137,-0.08781763,-0.08821672,2.0254946,-9.198523,-0.9720459
6.172649,4.5650396,-0.31395137,-0.08781763,-0.08821672,2.0254946,-9.198523,-0.9720459
6.172507,4.564853,-0.29584187,-0.09953554,-0.09460831,1.7046716,-9.217676,-1.1827357
6.1722984,4.5645795,-0.29584187,-0.09953554,-0.09460831,1.7046716,-9.217676,-1.1827357
6.172095,4.5643177,-0.28518924,-0.109122925,-0.09460831,2.0446482,-9.112331,-1.0630256
6.1718917,4.5640574,-0.28518924,-0.109122925,-0.09460831,2.0446482,-9.112331,-1.0630256
6.1715856,4.5636616,-0.27879766,-0.121906094,-0.0978041,2.3511062,-9.093178,-1.1923125
6.1714625,4.5635033,-0.27879766,-0.121906094,-0.0978041,2.3511062,-9.093178,-1.1923125
6.171246,4.563236,-0.2713408,-0.12936294,-0.09993463,2.4133554,-9.165004,-1.091756
6.1710377,4.5629787,-0.2713408,-0.12936294,-0.09993463,2.4133554,-9.165004,-1.091756
6.170828,4.562729,-0.2660145,-0.122971356,-0.09993463,2.0829554,-9.375694,-1.1923125
6.170616,4.562476,-0.2660145,-0.122971356,-0.09993463,2.0829554,-9.375694,-1.1923125
6.1704054,4.562221,-0.26388395,-0.11444924,-0.09460831,1.934515,-9.399636,-1.2689269
6.1701946,4.5619664,-0.26388395,-0.11444924,-0.09460831,1.934515,-9.399636,-1.2689269
6.1699896,4.5617075,-0.2617534,-0.108057655,-0.08502093,1.9249382,-9.361329,-1.3120226
6.1697855,4.56145,-0.2617534,-0.108057655,-0.08502093,1.9249382,-9.361329,-1.3120226
6.169591,4.5611835,-0.25855762,-0.10273133,-0.07223775,1.9201498,-9.399636,-1.4030021
6.169396,4.5609174,-0.25855762,-0.10273133,-0.07223775,1.9201498,-9.399636,-1.4030021
6.1692157,4.5606675,-0.25749236,-0.09953554,-0.060519844,2.0829554,-9.466674,-1.2976574
6.169036,4.5604186,-0.25749236,-0.09953554,-0.060519844,2.0829554,-9.466674,-1.2976574
6.1688657,4.5601745,-0.25536183,-0.09740501,-0.05199773,2.111686,-9.437943,-1.2689269
6.168695,4.559931,-0.25536183,-0.09740501,-0.05199773,2.111686,-9.437943,-1.2689269
6.168532,4.5596876,-0.24897024,-0.09633975,-0.04241035,2.1021092,-9.466674,-1.3215994
6.168369,4.5594454,-0.24897024,-0.09633975,-0.04241035,2.1021092,-9.466674,-1.3215994
6.168214,4.5592017,-0.24151339,-0.09847028,-0.031757705,2.0446482,-9.385271,-1.3790601
6.1680593,4.5589585,-0.24151339,-0.09847028,-0.031757705,2.0446482,-9.385271,-1.3790601
6.167917,4.5587196,-0.23405655,-0.09847028,-0.018974531,2.0207062,-9.423578,-1.412579
6.1677747,4.558481,-0.23405655,-0.09847028,-0.018974531,2.0207062,-9.423578,-1.412579
6.167649,4.5582623,-0.22446916,-0.09633975,-0.004060829,2.1021092,-9.32781,-1.3215994
6.167524,4.5580444,-0.22446916,-0.09633975,-0.004060829,2.1021092,-9.32781,-1.3215994
6.167411,4.557826,-0.21488178,-0.09740501,0.010852873,2.1787236,-9.251195,-1.3790601
6.1672983,4.5576086,-0.21488178,-0.09740501,0.010852873,2.1787236,-9.251195,-1.3790601
6.1671953,4.5573993,-0.2052944,-0.10060081,0.020440254,2.1547816,-9.193734,-1.3742718
6.1670923,4.5571904,-0.2052944,-0.10060081,0.020440254,2.1547816,-9.193734,-1.3742718
6.1670036,4.557004,-0.19783755,-0.10166607,0.030027634,2.183512,-9.174581,-1.2545617
6.1669154,4.556817,-0.19783755,-0.10166607,0.030027634,2.183512,-9.174581,-1.2545617
6.166843,4.556649,-0.19144596,-0.10166607,0.040680278,2.1021092,-9.169792,-1.163582
6.1667705,4.5564814,-0.19144596,-0.10166607,0.040680278,2.1021092,-9.169792,-1.163582
6.166715,4.556331,-0.18185858,-0.1037966,0.05133292,2.1499932,-9.155427,-1.0630256
6.16666,4.556181,-0.18185858,-0.1037966,0.05133292,2.1499932,-9.155427,-1.0630256
6.1666164,4.55604,-0.1722712,-0.108057655,0.06305083,2.2122424,-9.141062,-1.0486604
6.166573,4.5558987,-0.1722712,-0.108057655,0.06305083,2.2122424,-9.141062,-1.0486604
6.1665506,4.555778,-0.16055329,-0.109122925,0.075834006,2.2409728,-9.179369,-0.92895025
6.1665277,4.555657,-0.16055329,-0.109122925,0.075834006,2.2409728,-9.179369,-0.92895025
6.1665134,4.5555477,-0.14777012,-0.11125345,0.08542138,2.2697031,-9.174581,-0.94331545
6.1664987,4.555438,-0.14777012,-0.11125345,0.08542138,2.2697031,-9.174581,-0.94331545
6.166488,4.5553374,-0.13285641,-0.11551451,0.0939435,2.255338,-9.203311,-1.0342951
6.166477,4.555231,-0.13285641,-0.11551451,0.0939435,2.255338,-9.203311,-1.0342951
6.1664767,4.55515,-0.11687745,-0.1187103,0.103530884,2.2649148,-9.193734,-1.0390835
6.166476,4.5550647,-0.11687745,-0.1187103,0.103530884,2.2649148,-9.193734,-1.0390835
6.1664877,4.5550013,-0.09983322,-0.124036625,0.11098773,2.2505496,-9.198523,-0.9720459
6.1665,4.5549383,-0.09983322,-0.124036625,0.11098773,2.2505496,-9.198523,-0.9720459
6.1665125,4.5548825,-0.08172372,-0.13042821,0.118444584,2.183512,-9.198523,-1.115698
6.166527,4.55482,-0.08172372,-0.13042821,0.118444584,2.183512,-9.198523,-1.115698
6.166542,4.5547824,-0.060418434,-0.13895033,0.12590143,2.1787236,-9.107543,-1.1731589
6.1665583,4.554742,-0.060418434,-0.13895033,0.12590143,2.1787236,-9.107543,-1.1731589
