Pitch,Roll,Gyro_X,Gyro_Y,Gyro_Z,Accel_X,Accel_Y,Accel_Z
6.129795,4.7892027,0.034390103,-0.062251285,0.08329086,1.7477672,-9.591172,0.7038953
6.129677,4.789195,0.032259572,-0.062251285,0.07689927,1.7764976,-9.557653,0.6560113
6.129618,4.7891808,0.032259572,-0.062251285,0.07689927,1.7764976,-9.557653,0.6560113
6.1295447,4.789188,0.030129045,-0.06331655,0.07050768,1.8100165,-9.576807,0.7086837
6.1294713,4.789195,0.030129045,-0.06331655,0.07050768,1.8100165,-9.576807,0.7086837
6.129422,4.789151,0.027998514,-0.06331655,0.06731189,1.8004397,-9.562442,0.5650316
6.129373,4.7891073,0.027998514,-0.06331655,0.06731189,1.8004397,-9.562442,0.5650316
6.12931,4.7890744,0.025867987,-0.06331655,0.06518136,1.8291701,-9.557653,0.60333884
6.1292467,4.7890415,0.025867987,-0.06331655,0.06518136,1.8291701,-9.557653,0.60333884
6.1291814,4.7890053,0.024802722,-0.06331655,0.0609203,1.8243817,-9.548077,0.59376204
6.129116,4.7889686,0.024802722,-0.06331655,0.0609203,1.8243817,-9.548077,0.59376204
6.1290545,4.788924,0.023737457,-0.06118602,0.05772451,1.8339585,-9.490616,0.5506664
6.1289926,4.78888,0.023737457,-0.06118602,0.05772451,1.8339585,-9.490616,0.5506664
6.128923,4.7888374,0.02160693,-0.060120758,0.05346345,1.8531121,-9.461885,0.5554548
6.1288533,4.7887955,0.02160693,-0.060120758,0.05346345,1.8531121,-9.461885,0.5554548
6.128786,4.788745,0.019476399,-0.057990227,0.05026766,1.910573,-9.414001,0.48841715
6.128719,4.7886944,0.019476399,-0.057990227,0.05026766,1.910573,-9.414001,0.48841715
6.128638,4.788656,0.018411135,-0.05692496,0.047071867,1.8914193,-9.442732,0.5650316
6.1285563,4.788618,0.018411135,-0.05692496,0.047071867,1.8914193,-9.442732,0.5650316
6.128474,4.7885766,0.015215342,-0.054794434,0.0460066,1.8722657,-9.385271,0.5650316
6.1283917,4.7885356,0.015215342,-0.054794434,0.0460066,1.8722657,-9.385271,0.5650316
6.1283116,4.7884912,0.0141500775,-0.052663904,0.0460066,1.9297266,-9.390059,0.5315128
6.128231,4.7884464,0.0141500775,-0.052663904,0.0460066,1.9297266,-9.390059,0.5315128
6.128158,4.788393,0.012019549,-0.04946811,0.0460066,1.8866309,-9.3661175,0.50757074
6.1280847,4.788339,0.012019549,-0.04946811,0.0460066,1.8866309,-9.3661175,0.50757074
6.1280055,4.788293,0.008823755,-0.045207053,0.04813713,1.8818425,-9.361329,0.5554548
6.1279263,4.788246,0.008823755,-0.045207053,0.04813713,1.8818425,-9.361329,0.5554548
6.127855,4.788188,0.0045626974,-0.03988073,0.04813713,1.8722657,-9.3421755,0.51714754
6.1277833,4.7881293,0.0045626974,-0.03988073,0.04813713,1.8722657,-9.3421755,0.51714754
6.1277094,4.7880726,0.001366904,-0.03455441,0.049202394,1.8914193,-9.32781,0.5267244
6.1276355,4.7880163,0.001366904,-0.03455441,0.049202394,1.8914193,-9.32781,0.5267244
6.1275606,4.78796,-0.0007636249,-0.031358615,0.05026766,1.9297266,-9.323022,0.521936
6.1274858,4.7879047,-0.0007636249,-0.031358615,0.05026766,1.9297266,-9.323022,0.521936
6.127421,4.787837,-0.0039594183,-0.026032293,0.05133292,1.9153614,-9.361329,0.48362875
6.127356,4.7877693,-0.0039594183,-0.026032293,0.05133292,1.9153614,-9.361329,0.48362875
6.1272845,4.78771,-0.0071552116,-0.020705972,0.05346345,1.9153614,-9.3182335,0.5315128
6.127213,4.7876506,-0.0071552116,-0.020705972,0.05346345,1.9153614,-9.3182335,0.5315128
6.1271453,4.78759,-0.009285741,-0.014314385,0.056659244,1.9297266,-9.3421755,0.5267244
6.1270776,4.787529,-0.009285741,-0.014314385,0.056659244,1.9297266,-9.3421755,0.5267244
6.127011,4.787471,-0.0114162695,-0.007922798,0.059855036,1.9057846,-9.32781,0.5506664
6.126944,4.7874126,-0.0114162695,-0.007922798,0.059855036,1.9057846,-9.32781,0.5506664
6.126874,4.787362,-0.013546798,-0.00046594674,0.0609203,1.8770541,-9.351752,0.59376204
6.126804,4.7873116,-0.013546798,-0.00046594674,0.0609203,1.8770541,-9.351752,0.59376204
6.1267424,4.7872486,-0.01674259,0.00592564,0.06305083,1.8818425,-9.356541,0.5554548
6.1266813,4.7871857,-0.01674259,0.00592564,0.06305083,1.8818425,-9.356541,0.5554548
6.126616,4.787132,-0.018873122,0.011251962,0.06518136,1.8483237,-9.3661175,0.60333884
6.12655,4.787078,-0.018873122,0.011251962,0.06518136,1.8483237,-9.3661175,0.60333884
6.1264777,4.787044,-0.021003649,0.019774077,0.06837715,1.8626889,-9.375694,0.6655881
6.1264777,4.787044,-0.021003649,0.019774077,0.06837715,1.8626889,-9.375694,0.6655881
6.1264777,4.787044,-0.021003649,0.019774077,0.06837715,1.8626889,-9.375694,0.6655881
6.1263213,4.7869487,-0.024199443,0.02723093,0.06944242,1.8195933,-9.390059,0.6560113
6.1262207,4.7868676,-0.026329972,0.035753045,0.06731189,1.8100165,-9.394848,0.61291564
6.1261578,4.786807,-0.026329972,0.035753045,0.06731189,1.8100165,-9.394848,0.61291564
6.1261578,4.786807,-0.026329972,0.035753045,0.06731189,1.7669208,-9.423578,0.6703765
6.1260295,4.7867284,-0.029525764,0.04214463,0.06944242,1.7669208,-9.423578,0.6703765
6.1259756,4.7866654,-0.031656295,0.047470953,0.071572945,1.7190368,-9.461885,0.641646
6.125921,4.786602,-0.031656295,0.047470953,0.071572945,1.7190368,-9.461885,0.641646
6.1258593,4.786567,-0.031656295,0.053862542,0.073703475,1.6759412,-9.500193,0.6943185
6.1257977,4.7865334,-0.031656295,0.053862542,0.073703475,1.6759412,-9.500193,0.6943185
6.1257977,4.7865334,-0.031656295,0.053862542,0.073703475,1.6759412,-9.500193,0.6943185
6.1256943,4.7864113,-0.031656295,0.0581236,0.073703475,1.6472107,-9.490616,0.6655881
6.125634,4.786401,-0.032721557,0.060254127,0.07476874,1.6328455,-9.5385,0.7182605
6.1255746,4.7863903,-0.032721557,0.060254127,0.07476874,1.6328455,-9.5385,0.7182605
6.125516,4.786384,-0.031656295,0.06344992,0.07476874,1.5945383,-9.581595,0.7182605
6.1254573,4.786379,-0.031656295,0.06344992,0.07476874,1.5945383,-9.581595,0.7182605
6.1254373,4.7862883,-0.03059103,0.06344992,0.07689927,1.5801731,-9.68694,0.6943185
6.1254163,4.786199,-0.03059103,0.06344992,0.07689927,1.5801731,-9.68694,0.6943185
6.125626,4.786225,-0.0284605,0.062384658,0.08116033,1.5131354,-9.68694,0.7278373
6.1258345,4.786252,-0.0284605,0.062384658,0.08116033,1.5131354,-9.68694,0.7278373
6.1259804,4.786327,-0.025264706,0.062384658,0.08435612,1.484405,-9.753978,0.8283938
6.126126,4.7864017,-0.025264706,0.062384658,0.08435612,1.484405,-9.753978,0.8283938
6.126344,4.786434,-0.021003649,0.060254127,0.089682445,1.4269443,-9.749189,0.7661445
6.126562,4.786467,-0.021003649,0.060254127,0.089682445,1.4269443,-9.749189,0.7661445
6.126797,4.7864823,-0.015677327,0.05918886,0.09500877,1.3694834,-9.792285,0.7565677
6.1270323,4.7864976,-0.015677327,0.05918886,0.09500877,1.3694834,-9.792285,0.7565677
6.1272564,4.7865496,-0.010351005,0.060254127,0.103530884,1.4030021,-9.744401,0.78529817
6.1274805,4.786602,-0.010351005,0.060254127,0.103530884,1.4030021,-9.744401,0.78529817
6.1277113,4.7866635,-0.0039594183,0.0581236,0.112053,1.4030021,-9.782708,0.79487497
6.1279445,4.786726,-0.0039594183,0.0581236,0.112053,1.4030021,-9.782708,0.79487497
6.1282034,4.786766,0.0024321685,0.057058334,0.120575115,1.340753,-9.730036,0.7661445
6.1284556,4.7868056,0.0024321685,0.057058334,0.120575115,1.340753,-9.730036,0.7661445
6.128698,4.7868857,0.00988902,0.05599307,0.13122776,1.3455414,-9.677363,0.81881696
6.1289487,4.786969,0.00988902,0.05599307,0.13122776,1.3455414,-9.677363,0.81881696
6.1292295,4.7870245,0.017345872,0.052797277,0.14188041,1.316811,-9.715671,0.770933
6.1294956,4.787076,0.017345872,0.052797277,0.14188041,1.316811,-9.715671,0.770933
6.1297674,4.787156,0.024802722,0.047470953,0.14933725,1.3311762,-9.648633,0.79008657
6.1300406,4.7872367,0.024802722,0.047470953,0.14933725,1.3311762,-9.648633,0.79008657
6.130318,4.787328,0.031194309,0.04214463,0.15892464,1.3742718,-9.691729,0.78529817
6.130596,4.7874184,0.031194309,0.04214463,0.15892464,1.3742718,-9.691729,0.78529817
6.1308765,4.7875185,0.037585896,0.03681831,0.16531622,1.4077905,-9.615114,0.7613561
6.1311555,4.7876186,0.037585896,0.03681831,0.16531622,1.4077905,-9.615114,0.7613561
6.1314087,4.7877464,0.043977484,0.031491987,0.17064254,1.4221559,-9.619903,0.78050977
6.1316614,4.787875,0.043977484,0.031491987,0.17064254,1.4221559,-9.619903,0.78050977
6.1318846,4.78802,0.049303804,0.02723093,0.1749036,1.4317327,-9.591172,0.79966336
6.1321063,4.788166,0.049303804,0.02723093,0.1749036,1.4317327,-9.591172,0.79966336
6.1323214,4.788318,0.05356486,0.022969872,0.17916466,1.460463,-9.634268,0.7613561
6.132531,4.788471,0.05356486,0.022969872,0.17916466,1.460463,-9.634268,0.7613561
6.132648,4.7884436,0.05995645,0.019774077,0.18129519,1.484405,-9.576807,0.6943185
6.132763,4.788417,0.05995645,0.019774077,0.18129519,1.484405,-9.576807,0.6943185
6.132888,4.7885733,0.06421751,0.017643549,0.18236046,1.4796166,-9.572019,0.7661445
6.1330075,4.7887273,0.06421751,0.017643549,0.18236046,1.4796166,-9.572019,0.7661445
6.133139,4.7888865,0.06634804,0.016578285,0.18555625,1.508347,-9.591172,0.81881696
6.1332684,4.7890444,0.06634804,0.016578285,0.18555625,1.508347,-9.591172,0.81881696
6.1334143,4.789208,0.0674133,0.016578285,0.1866215,1.4939818,-9.56723,0.8331822
6.133558,4.789371,0.0674133,0.016578285,0.1866215,1.4939818,-9.56723,0.8331822
6.13371,4.789538,0.06954383,0.01551302,0.1866215,1.484405,-9.653421,0.80924016
6.1338587,4.7897043,0.06954383,0.01551302,0.1866215,1.484405,-9.653421,0.80924016
6.1339054,4.789783,0.07060909,0.013382491,0.18555625,1.4987702,-9.605537,0.7469909
6.1339517,4.7898593,0.07060909,0.013382491,0.18555625,1.4987702,-9.605537,0.7469909
6.1341095,4.790029,0.07167436,0.013382491,0.1866215,1.4652514,-9.591172,0.80445176
6.134264,4.790198,0.07167436,0.013382491,0.1866215,1.4652514,-9.591172,0.80445176
6.134384,4.79036,0.073804885,0.012317227,0.18555625,1.4700398,-9.56723,0.78529817
6.1345,4.790521,0.073804885,0.012317227,0.18555625,1.4700398,-9.56723,0.78529817
6.134588,4.790526,0.075935416,0.011251962,0.1866215,1.4652514,-9.557653,0.7278373
6.134674,4.790532,0.075935416,0.011251962,0.1866215,1.4652514,-9.557653,0.7278373
6.1347804,4.7906938,0.07913121,0.009121433,0.18555625,1.4748282,-9.615114,0.78529817
6.1348825,4.7908525,0.07913121,0.009121433,0.18555625,1.4748282,-9.615114,0.78529817
6.13493,4.7909184,0.082327,0.010186698,0.18555625,1.5370775,-9.586384,0.7422025
6.1349783,4.7909827,0.082327,0.010186698,0.18555625,1.5370775,-9.586384,0.7422025
6.135035,4.791109,0.08445753,0.009121433,0.18342571,1.5705963,-9.600749,0.79966336
6.135091,4.7912345,0.08445753,0.009121433,0.18342571,1.5705963,-9.600749,0.79966336
6.1351404,4.791356,0.08658806,0.009121433,0.18022992,1.5993267,-9.533711,0.79966336
6.1351895,4.7914767,0.08658806,0.009121433,0.18022992,1.5993267,-9.533711,0.79966336
6.1352425,4.7916117,0.087653324,0.009121433,0.17596887,1.6184803,-9.519346,0.8283938
6.135295,4.791746,0.087653324,0.009121433,0.17596887,1.6184803,-9.519346,0.8283938
6.1353316,4.7918625,0.08871859,0.011251962,0.17064254,1.5753847,-9.457097,0.78529817
6.135368,4.791978,0.08871859,0.011251962,0.17064254,1.5753847,-9.457097,0.78529817
6.135432,4.792138,0.089783855,0.014447756,0.16318569,1.5610195,-9.394848,0.8571242
6.1354947,4.792298,0.089783855,0.014447756,0.16318569,1.5610195,-9.394848,0.8571242
6.135513,4.792412,0.08658806,0.017643549,0.15253304,1.5658079,-9.32781,0.78050977
6.135531,4.7925253,0.08658806,0.017643549,0.15253304,1.5658079,-9.32781,0.78050977
6.1355677,4.792672,0.08339227,0.019774077,0.1450762,1.508347,-9.313444,0.81402856
6.1356034,4.7928185,0.08339227,0.019774077,0.1450762,1.508347,-9.313444,0.81402856
6.135606,4.79292,0.08126174,0.024035135,0.1386846,1.508347,-9.313444,0.7661445
6.1356077,4.7930202,0.08126174,0.024035135,0.1386846,1.508347,-9.313444,0.7661445
6.1356025,4.79312,0.07700068,0.02723093,0.13016249,1.4556746,-9.299079,0.7613561
6.1355968,4.7932177,0.07700068,0.02723093,0.13016249,1.4556746,-9.299079,0.7613561
6.1356435,4.79321,0.07273962,0.029361458,0.12164038,1.4173675,-9.270349,0.7134721
6.1356897,4.7932024,0.07273962,0.029361458,0.12164038,1.4173675,-9.270349,0.7134721
6.1357293,4.7931933,0.07060909,0.031491987,0.11524879,1.4269443,-9.275137,0.7038953
6.135769,4.7931843,0.07060909,0.031491987,0.11524879,1.4269443,-9.275137,0.7038953
6.135943,4.793346,0.06847856,0.032557253,0.11098773,1.3599066,-9.313444,0.79487497
6.136116,4.7935085,0.06847856,0.032557253,0.11098773,1.3599066,-9.313444,0.79487497
6.136355,4.7935414,0.0674133,0.032557253,0.106726676,1.316811,-9.299079,0.7374141
6.136593,4.793573,0.0674133,0.032557253,0.106726676,1.316811,-9.299079,0.7374141
6.136781,4.793561,0.06634804,0.033622514,0.103530884,1.2449849,-9.23683,0.63206923
6.1369686,4.793548,0.06634804,0.033622514,0.103530884,1.2449849,-9.23683,0.63206923
6.1371493,4.7935333,0.06528277,0.03468778,0.10033509,1.2401965,-9.14585,0.62728083
6.137329,4.793518,0.06528277,0.03468778,0.10033509,1.2401965,-9.14585,0.62728083
6.1374736,4.7934866,0.061021715,0.03468778,0.09820456,1.2449849,-9.083601,0.5410896
6.137617,4.7934556,0.061021715,0.03468778,0.09820456,1.2449849,-9.083601,0.5410896
6.1377497,4.793418,0.056760654,0.032557253,0.09607403,1.2737153,-9.045294,0.5793968
6.1378813,4.7933807,0.056760654,0.032557253,0.09607403,1.2737153,-9.045294,0.5793968
6.1379423,4.793338,0.051434334,0.029361458,0.09181297,1.364695,-8.968679,0.58418524
6.1380024,4.793295,0.051434334,0.029361458,0.09181297,1.364695,-8.968679,0.58418524
6.1380577,4.7932453,0.045042746,0.028296193,0.08542138,1.364695,-8.920795,0.5506664
6.1381125,4.7931957,0.045042746,0.028296193,0.08542138,1.364695,-8.920795,0.5506664
6.1381354,4.7931433,0.03652063,0.026165664,0.07689927,1.4077905,-8.930372,0.5602432
6.138158,4.7930903,0.03652063,0.026165664,0.07689927,1.4077905,-8.930372,0.5602432
6.1381426,4.793041,0.026933251,0.024035135,0.06944242,1.436521,-8.959103,0.61291564
6.138127,4.7929926,0.026933251,0.024035135,0.06944242,1.436521,-8.959103,0.61291564
6.1381307,4.792921,0.017345872,0.024035135,0.059855036,1.388637,-8.939949,0.59855044
6.138134,4.79285,0.017345872,0.024035135,0.059855036,1.388637,-8.939949,0.59855044
6.138123,4.792772,0.008823755,0.0251004,0.04813713,1.4556746,-8.99741,0.521936
6.138112,4.792693,0.008823755,0.0251004,0.04813713,1.4556746,-8.99741,0.521936
6.1381183,4.792598,-0.0007636249,0.026165664,0.03641922,1.3838485,-9.030929,0.5410896
6.138124,4.792503,-0.0007636249,0.026165664,0.03641922,1.3838485,-9.030929,0.5410896
6.138166,4.7923937,-0.012481534,0.029361458,0.02683184,1.2976574,-9.069236,0.50278234
6.1382074,4.792285,-0.012481534,0.029361458,0.02683184,1.2976574,-9.069236,0.50278234
6.138261,4.7921677,-0.02313418,0.031491987,0.018309724,1.2593501,-9.160215,0.49799395
6.1383142,4.7920504,-0.02313418,0.031491987,0.018309724,1.2593501,-9.160215,0.49799395
6.138384,4.79193,-0.032721557,0.031491987,0.008722344,1.1779473,-9.169792,0.48362875
6.138454,4.79181,-0.032721557,0.031491987,0.008722344,1.1779473,-9.169792,0.48362875
6.138541,4.791691,-0.042308938,0.029361458,0.00020022877,1.0821792,-9.246407,0.48362875
6.1386285,4.7915716,-0.042308938,0.029361458,0.00020022877,1.0821792,-9.246407,0.48362875
6.138719,4.7914486,-0.050831053,0.0251004,-0.006191358,1.0869676,-9.337387,0.5267244
6.1388097,4.7913265,-0.050831053,0.0251004,-0.006191358,1.0869676,-9.337387,0.5267244
6.1389136,4.791214,-0.057222642,0.019774077,-0.013648209,0.9864111,-9.323022,0.5554548
6.1390176,4.7911024,-0.057222642,0.019774077,-0.013648209,0.9864111,-9.323022,0.5554548
6.139106,4.7909746,-0.06361423,0.010186698,-0.02110506,0.93852705,-9.356541,0.48841715
6.1391945,4.790848,-0.06361423,0.010186698,-0.02110506,0.93852705,-9.356541,0.48841715
6.1392894,4.790728,-0.06787529,-0.00046594674,-0.026431382,0.9528923,-9.361329,0.5650316
6.139385,4.790608,-0.06787529,-0.00046594674,-0.026431382,0.9528923,-9.361329,0.5650316
6.1394706,4.7904754,-0.07213634,-0.012183856,-0.03282297,0.92895025,-9.399636,0.5315128
6.1395535,4.790347,-0.07213634,-0.012183856,-0.03282297,0.92895025,-9.399636,0.5315128
6.139622,4.790206,-0.07426687,-0.02496703,-0.037084028,0.93852705,-9.409213,0.48362875
6.1396923,4.790063,-0.07426687,-0.02496703,-0.037084028,0.93852705,-9.409213,0.48362875
6.139764,4.78992,-0.07852793,-0.036684938,-0.041345086,0.91458505,-9.442732,0.50757074
6.139835,4.7897778,-0.07852793,-0.036684938,-0.041345086,0.91458505,-9.442732,0.50757074
6.1398993,4.789629,-0.08172372,-0.04946811,-0.045606144,0.8714894,-9.481039,0.47405192
6.139964,4.78948,-0.08172372,-0.04946811,-0.045606144,0.8714894,-9.481039,0.47405192
6.140013,4.7893186,-0.08491952,-0.062251285,-0.050932467,0.92895025,-9.509769,0.45010993
6.140063,4.789157,-0.08491952,-0.062251285,-0.050932467,0.92895025,-9.509769,0.45010993
6.140104,4.78899,-0.08598478,-0.07609972,-0.05519352,1.0007763,-9.500193,0.47884035
6.140145,4.788823,-0.08598478,-0.07609972,-0.05519352,1.0007763,-9.500193,0.47884035
6.140191,4.7886634,-0.08598478,-0.091013424,-0.059454583,1.0869676,-9.56723,0.5746084
6.140191,4.7886634,-0.08598478,-0.091013424,-0.059454583,1.0869676,-9.56723,0.5746084
6.1402316,4.788298,-0.08598478,-0.10486186,-0.06904196,1.2210429,-9.634268,0.48362875
6.140215,4.788102,-0.08598478,-0.10486186,-0.06904196,1.2210429,-9.634268,0.48362875
6.1401258,4.7879133,-0.08598478,-0.11657977,-0.0828904,1.3934253,-9.610326,0.5410896
6.1401258,4.7879133,-0.08598478,-0.11657977,-0.0828904,1.3934253,-9.610326,0.5410896
6.139823,4.7875204,-0.08705004,-0.12616715,-0.10313042,1.4652514,-9.485827,0.49799395
6.1396737,4.787326,-0.08705004,-0.12616715,-0.10313042,1.4652514,-9.485827,0.49799395
6.1394243,4.7871556,-0.089180574,-0.13255873,-0.1308273,1.6567876,-9.490616,0.5506664
6.139175,4.7869854,-0.089180574,-0.13255873,-0.1308273,1.6567876,-9.490616,0.5506664
6.13886,4.7868543,-0.0945069,-0.13575453,-0.16598102,1.7286136,-9.351752,0.6512229
6.138548,4.7867246,-0.0945069,-0.13575453,-0.16598102,1.7286136,-9.351752,0.6512229
6.1381884,4.7865987,-0.104094274,-0.13575453,-0.20859161,1.8195933,-9.23683,0.6751649
6.1378326,4.786474,-0.104094274,-0.13575453,-0.20859161,1.8195933,-9.23683,0.6751649
6.137425,4.786333,-0.11687745,-0.1368198,-0.25865903,1.9297266,-9.165004,0.6512229
6.137017,4.786192,-0.11687745,-0.1368198,-0.25865903,1.9297266,-9.165004,0.6512229
6.136557,4.7860527,-0.13285641,-0.133624,-0.31192225,2.0207062,-9.14585,0.7230489
6.136097,4.785914,-0.13285641,-0.133624,-0.31192225,2.0207062,-9.14585,0.7230489
6.1355767,4.785727,-0.15096591,-0.12723242,-0.37477285,2.1068976,-9.289502,0.5746084
6.135056,4.7855406,-0.15096591,-0.12723242,-0.37477285,2.1068976,-9.289502,0.5746084
6.1344614,4.785349,-0.1722712,-0.121906094,-0.44721085,2.2409728,-9.370906,0.6512229
6.1338663,4.785157,-0.1722712,-0.121906094,-0.44721085,2.2409728,-9.370906,0.6512229
6.1332026,4.7849674,-0.19677228,-0.11231872,-0.51964885,2.0829554,-9.3182335,0.7661445
6.1325393,4.7847776,-0.19677228,-0.11231872,-0.51964885,2.0829554,-9.3182335,0.7661445
6.1318088,4.7845716,-0.21807757,-0.10486186,-0.588891,2.4708161,-9.193734,0.8331822
6.131072,4.7843647,-0.21807757,-0.10486186,-0.588891,2.4708161,-9.193734,0.8331822
6.1302733,4.784131,-0.24257866,-0.09633975,-0.66345954,2.9257145,-9.097966,0.80924016
6.1294675,4.783895,-0.24257866,-0.09633975,-0.66345954,2.9257145,-9.097966,0.80924016
6.128573,4.783635,-0.26707974,-0.08142605,-0.7508112,3.1364043,-9.097966,0.79966336
6.1276655,4.783372,-0.26707974,-0.08142605,-0.7508112,3.1364043,-9.097966,0.79966336
6.1266904,4.783094,-0.29477662,-0.05372917,-0.8541419,3.2130187,-9.131485,0.78529817
6.1256976,4.7828116,-0.29477662,-0.05372917,-0.8541419,3.2130187,-9.131485,0.78529817
6.1245894,4.782513,-0.3256693,-0.019640706,-0.97238624,3.1364043,-9.074024,0.8762778
6.1235237,4.7822256,-0.3256693,-0.019640706,-0.97238624,3.1364043,-9.074024,0.8762778
6.122295,4.781911,-0.35975775,0.01551302,-1.1002179,3.0693667,-8.963891,0.9911995
6.121021,4.7815847,-0.35975775,0.01551302,-1.1002179,3.0693667,-8.963891,0.9911995
6.119664,4.781247,-0.39810726,0.049601484,-1.2365718,3.098097,-8.8777,1.1013328
6.1183176,4.7809124,-0.39810726,0.049601484,-1.2365718,3.098097,-8.8777,1.1013328
6.116822,4.7805433,-0.44284838,0.08049415,-1.3814478,3.0358477,-8.820239,1.1683705
6.115319,4.7801733,-0.44284838,0.08049415,-1.3814478,3.0358477,-8.820239,1.1683705
6.113675,4.779771,-0.48972002,0.11032156,-1.5380416,3.016694,-8.762778,1.2401965
6.1120334,4.7793694,-0.48972002,0.11032156,-1.5380416,3.016694,-8.762778,1.2401965
6.110228,4.778927,-0.5376569,0.13801843,-1.7020924,3.0789435,-8.8777,1.2593501
6.1084237,4.778486,-0.5376569,0.13801843,-1.7020924,3.0789435,-8.8777,1.2593501
6.10645,4.778002,-0.5887896,0.16358478,-1.8746653,3.1794999,-8.90643,1.3263878
6.1044774,4.777519,-0.5887896,0.16358478,-1.8746653,3.1794999,-8.90643,1.3263878
6.102319,4.776987,-0.6420528,0.1870206,-2.0600212,3.3087866,-9.011775,1.3215994
6.10016,4.776457,-0.6420528,0.1870206,-2.0600212,3.3087866,-9.011775,1.3215994
6.0978084,4.7758827,-0.6974466,0.21152169,-2.2592256,3.5242648,-9.097966,1.532289
6.0954614,4.775312,-0.6974466,0.21152169,-2.2592256,3.5242648,-9.097966,1.532289
6.0928974,4.7746916,-0.75284034,0.24028382,-2.474409,3.6583402,-9.227253,1.5370775
6.090334,4.774073,-0.75284034,0.24028382,-2.474409,3.6583402,-9.227253,1.5370775
6.0875344,4.773403,-0.80929935,0.27224174,-2.710898,3.9935284,-9.423578,1.5466543
6.084732,4.7727346,-0.80929935,0.27224174,-2.710898,3.9935284,-9.423578,1.5466543
6.0816693,4.7720165,-0.86788887,0.309526,-2.9718876,4.3047748,-9.672575,1.5897499
6.0786037,4.7713003,-0.86788887,0.309526,-2.9718876,4.3047748,-9.672575,1.5897499
6.0752597,4.77054,-0.9307395,0.35426712,-3.2616396,4.4723687,-9.945514,1.7860745
6.0719156,4.769782,-0.9307395,0.35426712,-3.2616396,4.4723687,-9.945514,1.7860745
6.0682693,4.768984,-0.9957206,0.40113875,-3.5801537,4.4963107,-10.180145,2.0446482
6.0646195,4.7681866,-0.9957206,0.40113875,-3.5801537,4.4963107,-10.180145,2.0446482
6.0606375,4.7673464,-1.0638976,0.45227146,-3.9263647,4.5537715,-10.443508,2.3702598
6.0566564,4.7665086,-1.0638976,0.45227146,-3.9263647,4.5537715,-10.443508,2.3702598
6.0523024,4.765623,-1.129944,0.5002083,-4.298142,4.759673,-10.836157,2.4851813
6.0479584,4.764742,-1.129944,0.5002083,-4.298142,4.759673,-10.836157,2.4851813
6.0432177,4.763817,-1.1949251,0.54175365,-4.696551,4.8506527,-11.401189,2.777274
6.038483,4.7628965,-1.1949251,0.54175365,-4.696551,4.8506527,-11.401189,2.777274
6.033303,4.761938,-1.2492535,0.5769074,-5.1226563,4.831499,-11.884817,2.9831753
6.02819,4.760996,-1.2492535,0.5769074,-5.1226563,4.831499,-11.884817,2.9831753
6.022592,4.7600226,-1.2897336,0.6014085,-5.573263,4.8506527,-12.41633,2.777274
6.017001,4.759055,-1.2897336,0.6014085,-5.573263,4.8506527,-12.41633,2.777274
6.010962,4.758083,-1.3142347,0.6152569,-6.037719,4.477157,-13.072341,2.7724855
6.004919,4.757115,-1.3142347,0.6152569,-6.037719,4.477157,-13.072341,2.7724855
5.9984384,4.756153,-1.3216915,0.6099306,-6.510696,4.2042184,-13.88637,2.6479871
5.991942,4.755193,-1.3216915,0.6099306,-6.510696,4.2042184,-13.88637,2.6479871
5.9849944,4.7542477,-1.3121042,0.583299,-6.9836736,4.3526587,-14.81532,2.681506
5.9780436,4.753306,-1.3121042,0.583299,-6.9836736,4.3526587,-14.81532,2.681506
5.970637,4.752398,-1.2812115,0.55134106,-7.453455,4.697424,-15.653291,2.8060043
5.9632716,4.751499,-1.2812115,0.55134106,-7.453455,4.697424,-15.653291,2.8060043
5.9554133,4.750639,-1.2332746,0.5161873,-7.9221716,4.6351743,-16.448166,2.5617957
5.9475126,4.749777,-1.2332746,0.5161873,-7.9221716,4.6351743,-16.448166,2.5617957
5.9392347,4.748966,-1.1682935,0.47890306,-8.386627,4.1659107,-17.27656,2.1978772
5.930959,4.7481585,-1.1682935,0.47890306,-8.386627,4.1659107,-17.27656,2.1978772
5.922249,4.747406,-1.0873333,0.43416196,-8.84256,3.3806129,-18.162415,2.135628
5.913548,4.7466574,-1.0873333,0.43416196,-8.84256,3.3806129,-18.162415,2.135628
5.9044046,4.7459803,-0.9935901,0.37450713,-9.281449,3.0502129,-18.938135,2.0638018
5.8952527,4.745306,-0.9935901,0.37450713,-9.281449,3.0502129,-18.938135,2.0638018
5.885697,4.744723,-0.88386786,0.29354703,-9.697968,3.145981,-19.809626,2.3702598
5.885697,4.744723,-0.88386786,0.29354703,-9.697968,3.145981,-19.809626,2.3702598
5.8741045,4.74402,-0.7571014,0.18489006,-10.095311,2.681506,-20.384233,2.3223755
5.855974,4.7431173,-0.7571014,0.18489006,-10.095311,2.681506,-20.384233,2.3223755
5.845877,4.7427053,-0.61542124,0.050666746,-10.472415,1.9728222,-20.427328,1.6567876
5.835573,4.742286,-0.61542124,0.050666746,-10.472415,1.9728222,-20.427328,1.6567876
5.824886,4.7419333,-0.4630884,-0.11551451,-10.823952,1.6998832,-20.556616,1.1109096
5.8142195,4.7415824,-0.4630884,-0.11551451,-10.823952,1.6998832,-20.556616,1.1109096
5.8031917,4.7412825,-0.30329874,-0.31898,-11.148857,1.5131354,-20.690691,0.6607997
5.792153,4.74098,-0.30329874,-0.31898,-11.148857,1.5131354,-20.690691,0.6607997
5.780873,4.740712,-0.14031327,-0.5522729,-11.44074,1.6041151,-20.642807,0.2777274
5.769536,4.740438,-0.14031327,-0.5522729,-11.44074,1.6041151,-20.642807,0.2777274
5.7579284,4.7401743,0.023737457,-0.8047406,-11.693208,2.0590134,-20.312407,-0.11492168
5.7464247,4.739904,0.023737457,-0.8047406,-11.693208,2.0590134,-20.312407,-0.11492168
5.734625,4.7396245,0.18778819,-1.0742525,-11.901999,2.920926,-19.88624,-0.20111294
5.7228127,4.7393312,0.18778819,-1.0742525,-11.901999,2.920926,-19.88624,-0.20111294
5.7108603,4.739012,0.34970838,-1.3469602,-12.071377,3.739743,-19.321207,-0.2777274
5.6988726,4.7386727,0.34970838,-1.3469602,-12.071377,3.739743,-19.321207,-0.2777274
5.686794,4.7383003,0.51162857,-1.6132764,-12.203469,4.5681367,-18.650831,-0.19632454
5.6746798,4.7379007,0.51162857,-1.6132764,-12.203469,4.5681367,-18.650831,-0.19632454
5.662508,4.737447,0.67354876,-1.8689398,-12.290821,5.401319,-17.7554,-0.5267244
5.6502886,4.7369595,0.67354876,-1.8689398,-12.290821,5.401319,-17.7554,-0.5267244
5.638041,4.736412,0.8301427,-2.1022327,-12.336627,5.7748146,-16.563087,-0.7517793
5.625819,4.735828,0.8301427,-2.1022327,-12.336627,5.7748146,-16.563087,-0.7517793
5.613557,4.7351794,0.9760839,-2.31209,-12.348346,7.3406224,-15.950171,-0.5554548
5.601296,4.7344856,0.9760839,-2.31209,-12.348346,7.3406224,-15.950171,-0.5554548
5.5890217,4.733711,1.1156335,-2.478271,-12.320648,8.250419,-14.590265,-0.9528923
5.576801,4.732888,1.1156335,-2.478271,-12.320648,8.250419,-14.590265,-0.9528923
5.564581,4.732009,1.2434653,-2.5890586,-12.248211,8.748413,-13.699622,-1.3215994
5.5523925,4.7310743,1.2434653,-2.5890586,-12.248211,8.748413,-13.699622,-1.3215994
5.540317,4.7301145,1.3499917,-2.647648,-12.142749,8.930372,-12.890382,-1.5466543
5.5282254,4.72909,1.3499917,-2.647648,-12.142749,8.930372,-12.890382,-1.5466543
5.5162597,4.7280607,1.4384086,-2.6636271,-12.007461,8.973468,-11.9853735,-1.5179238
5.504266,4.72696,1.4384086,-2.6636271,-12.007461,8.973468,-11.9853735,-1.5179238
5.492456,4.7258687,1.5065856,-2.6380608,-11.841279,9.217676,-11.176133,-1.6089035
5.4807024,4.724711,1.5065856,-2.6380608,-11.841279,9.217676,-11.176133,-1.6089035
5.469053,4.723572,1.560914,-2.5837324,-11.647402,9.021352,-10.453085,-1.7429788
5.457471,4.7223654,1.560914,-2.5837324,-11.647402,9.021352,-10.453085,-1.7429788
5.44607,4.721201,1.6035247,-2.5049026,-11.421565,8.748413,-9.792285,-1.6519991
5.4347243,4.719967,1.6035247,-2.5049026,-11.421565,8.748413,-9.792285,-1.6519991
5.423605,4.718808,1.6386784,-2.397311,-11.158445,8.1402855,-9.155427,-1.6041151
5.4125166,4.717578,1.6386784,-2.397311,-11.158445,8.1402855,-9.155427,-1.6041151
5.401773,4.7164764,1.669571,-2.2694793,-10.854845,6.0285997,-8.595184,-1.6472107
5.3910236,4.7153015,1.669571,-2.2694793,-10.854845,6.0285997,-8.595184,-1.6472107
5.3806214,4.714245,1.7036595,-2.1427128,-10.503307,5.291186,-7.7428484,-1.4987702
5.3702545,4.713122,1.7036595,-2.1427128,-10.503307,5.291186,-7.7428484,-1.4987702
5.3602743,4.71213,1.7452048,-2.0106199,-10.080398,2.9496565,-6.6175733,-1.8818425
5.3503366,4.711074,1.7452048,-2.0106199,-10.080398,2.9496565,-6.6175733,-1.8818425
5.340869,4.71018,1.7963375,-1.8710704,-9.573332,0.9911995,-5.2480903,-2.0733786
5.3314323,4.7092237,1.7963375,-1.8710704,-9.573332,0.9911995,-5.2480903,-2.0733786
5.322571,4.7084436,1.8591881,-1.7421733,-8.976784,-0.79008657,-4.122815,-2.3558946
5.3137374,4.7076063,1.8591881,-1.7421733,-8.976784,-0.79008657,-4.122815,-2.3558946
5.305547,4.7069564,1.9348218,-1.6207331,-8.286492,-1.9297266,-2.9400797,-2.6288335
5.2973833,4.7062554,1.9348218,-1.6207331,-8.286492,-1.9297266,-2.9400797,-2.6288335
5.289954,4.7057652,2.0221736,-1.5120763,-7.5195017,-2.5570073,-1.8291701,-2.5330653
5.2824807,4.705226,2.0221736,-1.5120763,-7.5195017,-2.5570073,-1.8291701,-2.5330653
5.2757616,4.704837,2.1212432,-1.4236592,-6.696052,-2.6144683,-0.22984336,-3.620033
5.269229,4.7044187,2.1212432,-1.4236592,-6.696052,-2.6144683,-0.22984336,-3.620033
5.263427,4.7041464,2.2181823,-1.3554823,-5.8481016,-1.6807296,0.8475474,-3.6008794
5.2574387,4.7038307,2.2181823,-1.3554823,-5.8481016,-1.6807296,0.8475474,-3.6008794
5.252506,4.703675,2.3023381,-1.3000885,-5.0022817,-0.23942018,2.183512,-4.2904096
5.247482,4.703487,2.3023381,-1.3000885,-5.0022817,-0.23942018,2.183512,-4.2904096
5.243227,4.70348,2.370515,-1.2436296,-4.193746,1.6711528,3.2513258,-4.429273
5.2389593,4.7034492,2.370515,-1.2436296,-4.193746,1.6711528,3.2513258,-4.429273
5.235426,4.703607,2.4120603,-1.1733221,-3.4427345,3.5338416,4.0940847,-4.381389
5.231595,4.7037587,2.4120603,-1.1733221,-3.4427345,3.5338416,4.0940847,-4.381389
5.228848,4.704058,2.426974,-1.0870357,-2.7748137,5.6886234,5.3678,-5.401319
5.225845,4.7043734,2.426974,-1.0870357,-2.7748137,5.6886234,5.3678,-5.401319
5.2236004,4.7048416,2.4077992,-0.97944397,-2.2059624,7.321469,6.9767036,-6.3302693
5.2236004,4.7048416,2.4077992,-0.97944397,-2.2059624,7.321469,6.9767036,-6.3302693
5.2236004,4.7048416,2.4077992,-0.97944397,-2.2059624,7.321469,6.9767036,-6.3302693
5.2236004,4.7048416,2.4077992,-0.97944397,-2.2059624,7.321469,6.9767036,-6.3302693
5.2164063,4.7073684,2.225639,-0.74295527,-1.4006225,8.303091,7.52737,-6.6367273
5.2148952,4.708081,2.225639,-0.74295527,-1.4006225,8.303091,7.52737,-6.6367273
5.2135673,4.7087917,2.0796978,-0.6918226,-1.2024833,16.898275,7.3071036,-5.3007627
5.2122383,4.7095,2.0796978,-0.6918226,-1.2024833,16.898275,7.3071036,-5.3007627
5.2122383,4.7095,2.0796978,-0.6918226,-1.2024833,16.898275,7.3071036,-5.3007627
5.209883,4.7114706,1.8804934,-0.42763698,-1.0458895,15.7825775,7.1634517,-5.6359506
5.2087913,4.712879,1.6621141,-0.07609972,-0.96812516,16.505627,6.555324,-5.315128
5.207696,4.7142944,1.6621141,-0.07609972,-0.96812516,16.505627,6.555324,-5.315128
5.2066092,4.7161493,1.4309518,0.2828944,-0.9574725,15.682021,5.765238,-4.8506527
5.2055235,4.7180085,1.4309518,0.2828944,-0.9574725,15.682021,5.765238,-4.8506527
5.2044215,4.720315,1.1923325,0.6450843,-0.975582,14.302961,5.195418,-4.175488
5.203321,4.7226276,1.1923325,0.6450843,-0.975582,14.302961,5.195418,-4.175488
5.2021694,4.7253,0.9547786,0.95294577,-1.0309758,13.120225,4.5872903,-3.394978
5.20102,4.72798,0.9547786,0.95294577,-1.0309758,13.120225,4.5872903,-3.394978
5.1998043,4.7309136,0.72574675,1.2043482,-1.104479,11.09473,3.2561142,-2.834735
5.198592,4.7338605,0.72574675,1.2043482,-1.104479,11.09473,3.2561142,-2.834735
5.197296,4.7369747,0.5169549,1.3886389,-1.1950265,11.300632,3.016694,-2.4756045
5.1960025,4.740107,0.5169549,1.3886389,-1.1950265,11.300632,3.016694,-2.4756045
5.194622,4.743326,0.33159888,1.5228622,-1.2919656,9.964667,2.480393,-2.1787236
5.1932497,4.746557,0.33159888,1.5228622,-1.2919656,9.964667,2.480393,-2.1787236
5.1917834,4.7498617,0.16435237,1.6293887,-1.3857088,8.403648,1.8531121,-1.9871874
5.190336,4.7531567,0.16435237,1.6293887,-1.3857088,8.403648,1.8531121,-1.9871874
5.1887994,4.7564473,0.020541664,1.6826519,-1.4773216,7.1059904,1.4556746,-1.7142484
5.1872687,4.75976,0.020541664,1.6826519,-1.4773216,7.1059904,1.4556746,-1.7142484
5.1856613,4.762995,-0.09876795,1.6847824,-1.5593469,6.2345014,1.1204864,-1.2785037
5.184057,4.766259,-0.09876795,1.6847824,-1.5593469,6.2345014,1.1204864,-1.2785037
5.182395,4.769381,-0.20103334,1.6496286,-1.6232628,5.449203,0.91937345,-1.0247183
5.1807365,4.7725306,-0.20103334,1.6496286,-1.6232628,5.449203,0.91937345,-1.0247183
5.1790304,4.7755117,-0.28731975,1.5835823,-1.6690692,5.142745,0.6607997,-0.7230489
5.1773252,4.778521,-0.28731975,1.5835823,-1.6690692,5.142745,0.6607997,-0.7230489
5.1773252,4.778521,-0.3576272,1.501557,-1.6957008,5.0421886,0.4357447,-0.45489833
5.173825,4.784255,-0.3576272,1.501557,-1.6957008,5.0421886,0.4357447,-0.45489833
5.172135,4.786825,-0.41728202,1.4152706,-1.7020924,4.9464207,0.18195933,-0.33518824
5.1704082,4.789481,-0.41728202,1.4152706,-1.7020924,4.9464207,0.18195933,-0.33518824
5.168697,4.7919474,-0.4662842,1.3311146,-1.6850481,4.759673,-0.095768064,-0.17717093
5.1669884,4.7944345,-0.4662842,1.3311146,-1.6850481,4.759673,-0.095768064,-0.17717093
5.165312,4.7967744,-0.5078295,1.2512197,-1.6466986,4.745308,-0.34476504,0.07182605
5.163637,4.7991333,-0.5078295,1.2512197,-1.6466986,4.745308,-0.34476504,0.07182605
5.162015,4.801324,-0.5408527,1.1723902,-1.5913049,4.7548847,-0.6512229,0.17238252
5.1603994,4.8035274,-0.5408527,1.1723902,-1.5913049,4.7548847,-0.6512229,0.17238252
5.158858,4.8056016,-0.5642885,1.1010175,-1.5156711,4.7261543,-0.94810385,0.320823
5.1573215,4.8076878,-0.5642885,1.1010175,-1.5156711,4.7261543,-0.94810385,0.320823
5.1558867,4.809672,-0.582398,1.0317754,-1.4219278,4.8123455,-1.3263878,0.49320555
5.154454,4.811671,-0.582398,1.0317754,-1.4219278,4.8123455,-1.3263878,0.49320555
5.153155,4.813572,-0.59518117,0.9667942,-1.3154013,4.879383,-1.6903064,0.62728083
5.151855,4.815491,-0.59518117,0.9667942,-1.3154013,4.879383,-1.6903064,0.62728083
5.1507287,4.817296,-0.6005075,0.90713936,-1.1939613,4.936844,-2.0494366,0.6991069
5.1496005,4.8191166,-0.6005075,0.90713936,-1.1939613,4.936844,-2.0494366,0.6991069
5.1486497,4.8208027,-0.60157275,0.85281086,-1.0639989,4.9320555,-2.3415294,0.8571242
5.147701,4.8224998,-0.60157275,0.85281086,-1.0639989,4.9320555,-2.3415294,0.8571242
5.146917,4.8240423,-0.59518117,0.8016782,-0.93190616,4.903325,-2.6192567,0.92895025
5.146135,4.825594,-0.59518117,0.8016782,-0.93190616,4.903325,-2.6192567,0.92895025
5.1455007,4.8270073,-0.5855938,0.7548066,-0.79661757,4.606444,-2.8203697,1.0821792
5.144869,4.828424,-0.5855938,0.7548066,-0.79661757,4.606444,-2.8203697,1.0821792
5.1443787,4.829706,-0.5706801,0.70686966,-0.6602637,4.5441947,-3.083732,1.1923125
5.143891,4.83099,-0.5706801,0.70686966,-0.6602637,4.5441947,-3.083732,1.1923125
5.1435337,4.8321457,-0.5536359,0.65680224,-0.52604043,4.280833,-3.0597897,1.1779473
5.143178,4.8333044,-0.5536359,0.65680224,-0.52604043,4.280833,-3.0597897,1.1779473
5.142938,4.8343477,-0.5355264,0.603539,-0.3918171,4.5154643,-3.0262709,1.3359646
5.1426983,4.8353963,-0.5355264,0.603539,-0.3918171,4.5154643,-3.0262709,1.3359646
5.14258,4.836318,-0.5152864,0.5492105,-0.25865903,4.050989,-2.6479871,1.2258313
5.1424623,4.8372407,-0.5152864,0.5492105,-0.25865903,4.050989,-2.6479871,1.2258313
5.142467,4.8379965,-0.49717686,0.48635992,-0.1340231,4.0940847,-3.2321723,1.661576
5.1424723,4.8387537,-0.49717686,0.48635992,-0.1340231,4.0940847,-3.2321723,1.661576
5.142564,4.839364,-0.4780021,0.41285667,-0.020039797,4.6495395,-3.0502129,1.7525556
5.142656,4.8399744,-0.4780021,0.41285667,-0.020039797,4.6495395,-3.0502129,1.7525556
5.1428404,4.840443,-0.45243576,0.345745,0.088617176,4.8219223,-2.8299465,1.5035586
5.143025,4.840912,-0.45243576,0.345745,0.088617176,4.8219223,-2.8299465,1.5035586
5.143285,4.8412514,-0.4268694,0.28182915,0.1866215,5.0517654,-2.72939,1.5514427
5.1435456,4.8415904,-0.4268694,0.28182915,0.1866215,5.0517654,-2.72939,1.5514427
5.143877,4.8418036,-0.40449885,0.22217433,0.27503845,5.2624555,-2.6910827,1.6232687
5.144208,4.8420157,-0.40449885,0.22217433,0.27503845,5.2624555,-2.6910827,1.6232687
5.144617,4.8420963,-0.38745463,0.16465004,0.35812908,5.21936,-2.719813,1.6424223
5.1450243,4.842175,-0.38745463,0.16465004,0.35812908,5.21936,-2.719813,1.6424223
5.145509,4.8421144,-0.37254092,0.10392997,0.44015446,5.1379566,-2.72939,1.7046716
5.1459913,4.842054,-0.37254092,0.10392997,0.44015446,5.1379566,-2.72939,1.7046716
5.1465626,4.841836,-0.360823,0.040014103,0.5275061,4.951209,-2.858677,1.8004397
5.1471334,4.8416176,-0.360823,0.040014103,0.5275061,4.951209,-2.858677,1.8004397
5.1477985,4.841242,-0.3491051,-0.0228365,0.6223147,4.6351743,-2.9831753,1.9393034
5.1484632,4.840867,-0.3491051,-0.0228365,0.6223147,4.6351743,-2.9831753,1.9393034
5.149233,4.840334,-0.3373872,-0.0856871,0.7299064,4.3622355,-3.0502129,1.9680338
5.1500025,4.839802,-0.3373872,-0.0856871,0.7299064,4.3622355,-3.0502129,1.9680338
5.150898,4.839119,-0.32353875,-0.14534192,0.85986865,4.10845,-3.0023289,1.8818425
5.1517944,4.838439,-0.32353875,-0.14534192,0.85986865,4.10845,-3.0023289,1.8818425
5.1528316,4.837619,-0.30649453,-0.20073566,1.0090057,3.86903,-2.920926,1.8435353
5.153871,4.836801,-0.30649453,-0.20073566,1.0090057,3.86903,-2.920926,1.8435353
5.1550694,4.835862,-0.29051554,-0.2476073,1.1783828,3.5913026,-2.8060043,1.8148049
5.15627,4.8349266,-0.29051554,-0.2476073,1.1783828,3.5913026,-2.8060043,1.8148049
5.157652,4.8338823,-0.27347133,-0.28808734,1.3701303,3.4763808,-2.7006595,1.8148049
5.1590376,4.832842,-0.27347133,-0.28808734,1.3701303,3.4763808,-2.7006595,1.8148049
5.1606245,4.8316994,-0.25855762,-0.32324108,1.5767916,3.4045548,-2.5953147,1.7477672
5.1622057,4.830569,-0.25855762,-0.32324108,1.5767916,3.4045548,-2.5953147,1.7477672
5.1639967,4.8293505,-0.24257866,-0.35306847,1.7930403,3.5051112,-2.5905263,1.7669208
5.1657896,4.8281403,-0.24257866,-0.35306847,1.7930403,3.5051112,-2.5905263,1.7669208
5.167814,4.8268433,-0.22873022,-0.37756956,2.0188763,3.3806129,-2.6719291,1.7190368
5.16984,4.825556,-0.22873022,-0.37756956,2.0188763,3.3806129,-2.6719291,1.7190368
5.1721115,4.8241568,-0.21488178,-0.40420118,2.2500389,2.5570073,-2.7868507,1.4317327
5.1743836,4.8227715,-0.21488178,-0.40420118,2.2500389,2.5570073,-2.7868507,1.4317327
5.17689,4.821288,-0.19996808,-0.4425507,2.4907885,2.7246015,-3.1411927,1.7812861
5.1794014,4.8198175,-0.19996808,-0.4425507,2.4907885,2.7246015,-3.1411927,1.7812861
5.18213,4.818242,-0.18825017,-0.49474865,2.7357993,3.2704794,-3.3183637,2.1787236
5.1848645,4.8166823,-0.18825017,-0.49474865,2.7357993,3.2704794,-3.3183637,2.1787236
5.187854,4.8149962,-0.17440173,-0.54588133,2.9872017,3.0789435,-3.3997664,2.1930888
5.1908293,4.8133397,-0.17440173,-0.54588133,2.9872017,3.0789435,-3.3997664,2.1930888
5.19408,4.811553,-0.16055329,-0.59381825,3.2449958,2.5761611,-3.7014358,2.087744
5.197334,4.8097887,-0.16055329,-0.59381825,3.2449958,2.5761611,-3.7014358,2.087744
5.2008634,4.807902,-0.14883539,-0.6438857,3.5134425,2.2361844,-3.916914,1.9919758
5.2043767,4.8060517,-0.14883539,-0.6438857,3.5134425,2.2361844,-3.916914,1.9919758
5.208199,4.804057,-0.13711748,-0.7035405,3.797868,2.087744,-4.1706996,1.8531121
5.2120037,4.8021035,-0.13711748,-0.7035405,3.797868,2.087744,-4.1706996,1.8531121
5.2161107,4.800015,-0.12539956,-0.7706522,4.0961423,2.078167,-4.3718123,1.8626889
5.220228,4.7979574,-0.12539956,-0.7706522,4.0961423,2.078167,-4.3718123,1.8626889
5.224648,4.7957644,-0.11261639,-0.8430901,4.4114604,1.9440918,-4.367024,1.5275006
5.2290783,4.793606,-0.11261639,-0.8430901,4.4114604,1.9440918,-4.367024,1.5275006
5.233837,4.791297,-0.10089848,-0.9219197,4.7395616,1.4508862,-4.3526587,1.2785037
5.2385993,4.789032,-0.10089848,-0.9219197,4.7395616,1.4508862,-4.3526587,1.2785037
5.2437086,4.7866035,-0.092376366,-1.0124671,5.0772505,1.2593501,-4.4580035,1.1013328
5.248796,4.7842355,-0.092376366,-1.0124671,5.0772505,1.2593501,-4.4580035,1.1013328
5.254255,4.781695,-0.08491952,-1.1115367,5.4234614,1.2545617,-4.453215,0.91937345
5.2597337,4.7792,-0.08491952,-1.1115367,5.4234614,1.2545617,-4.453215,0.91937345
5.2655144,4.776573,-0.08065846,-1.2127368,5.780325,1.1779473,-4.4580035,0.7134721
5.2713385,4.773985,-0.08065846,-1.2127368,5.780325,1.1779473,-4.4580035,0.7134721
5.2774982,4.771265,-0.0795932,-1.3150023,6.1446457,1.2545617,-4.3143516,0.5602432
5.283681,4.768599,-0.0795932,-1.3150023,6.1446457,1.2545617,-4.3143516,0.5602432
5.290244,4.7657967,-0.08172372,-1.4162024,6.5110965,1.3742718,-4.1611223,0.46926352
5.2967854,4.7630715,-0.08172372,-1.4162024,6.5110965,1.3742718,-4.1611223,0.46926352
5.3037224,4.7602205,-0.08491952,-1.5142068,6.8764825,1.6376339,-3.9073372,0.36391866
5.3106503,4.7574453,-0.08491952,-1.5142068,6.8764825,1.6376339,-3.9073372,0.36391866
5.317928,4.754572,-0.09024584,-1.60795,7.2344112,2.030283,-3.3423057,0.21068975
5.3258023,4.7515483,-0.09024584,-1.60795,7.2344112,2.030283,-3.3423057,0.21068975
5.333091,4.7487917,-0.09663743,-1.700628,7.580622,2.078167,-2.9257145,0.12928689
5.34053,4.746052,-0.09663743,-1.700628,7.580622,2.078167,-2.9257145,0.12928689
5.3484545,4.7430887,-0.107290074,-1.7922407,7.9161806,2.4899697,-2.456451,-0.11971009
5.3564487,4.7401786,-0.107290074,-1.7922407,7.9161806,2.4899697,-2.456451,-0.11971009
5.364538,4.737159,-0.12326904,-1.8785272,8.241086,3.0119057,-1.8866309,-0.25378537
5.372645,4.7342167,-0.12326904,-1.8785272,8.241086,3.0119057,-1.8866309,-0.25378537
5.3810253,4.7312884,-0.14670485,-1.9509652,8.553208,3.6391866,-1.3311762,-0.35434186
5.3894105,4.72844,-0.14670485,-1.9509652,8.553208,3.6391866,-1.3311762,-0.35434186
5.3980856,4.7255964,-0.175467,-1.9989021,8.850417,4.7309427,-0.93373865,-0.45968673
5.4068093,4.722817,-0.175467,-1.9989021,8.850417,4.7309427,-0.93373865,-0.45968673
5.4157515,4.720091,-0.20422913,-2.0084894,9.12419,6.579266,-0.5315128,-0.7422025
5.4247537,4.7174234,-0.20422913,-2.0084894,9.12419,6.579266,-0.5315128,-0.7422025
5.4339647,4.714854,-0.23192601,-1.9658788,9.354287,8.556877,-0.32561144,-1.091756
5.4439926,4.712137,-0.23192601,-1.9658788,9.354287,8.556877,-0.32561144,-1.091756
5.453321,4.7098045,-0.2596229,-1.8646787,9.517273,10.448297,-0.60333884,-1.4460979
5.462343,4.7076077,-0.2596229,-1.8646787,9.517273,10.448297,-0.60333884,-1.4460979
5.462343,4.7076077,-0.2596229,-1.8646787,9.517273,10.448297,-0.60333884,-1.4460979
5.462343,4.7076077,-0.2596229,-1.8646787,9.517273,10.448297,-0.60333884,-1.4460979
5.4904766,4.7016063,-0.3224735,-1.4960972,9.62806,11.741165,-2.0207062,-1.8770541
5.499901,4.699856,-0.3224735,-1.4960972,9.62806,11.741165,-2.0207062,-1.8770541
5.50939,4.698313,-0.36295354,-1.2649349,9.606755,11.204864,-3.1124623,-1.8195933
5.518871,4.6968083,-0.36295354,-1.2649349,9.606755,11.204864,-3.1124623,-1.8195933
5.5282946,4.6955013,-0.41302097,-1.0327072,9.56734,10.366894,-4.3478703,-1.6759412
5.537747,4.6942186,-0.41302097,-1.0327072,9.56734,10.366894,-4.3478703,-1.6759412
5.5471964,4.6930976,-0.46841472,-0.814328,9.535382,9.591172,-5.6120086,-1.3790601
5.556598,4.692004,-0.46841472,-0.814328,9.535382,9.591172,-5.6120086,-1.3790601
5.566012,4.69103,-0.52700424,-0.62364566,9.525795,8.805874,-6.8091097,-1.0630256
5.5754247,4.690074,-0.52700424,-0.62364566,9.525795,8.805874,-6.8091097,-1.0630256
5.584869,4.6892004,-0.5855938,-0.4510728,9.543904,8.0924015,-7.680599,-0.90021986
5.594309,4.6883435,-0.5855938,-0.4510728,9.543904,8.0924015,-7.680599,-0.90021986
5.603853,4.6875343,-0.638857,-0.29341367,9.589711,7.417237,-8.451532,-0.8571242
5.6133833,4.686738,-0.638857,-0.29341367,9.589711,7.417237,-8.451532,-0.8571242
5.6230583,4.6860085,-0.6846634,-0.14747244,9.656822,7.153875,-9.193734,-0.8475474
5.632715,4.6852827,-0.6846634,-0.14747244,9.656822,7.153875,-9.193734,-0.8475474
5.642498,4.684639,-0.7208824,-0.007922798,9.738848,7.086837,-9.892841,-0.9816227
5.652267,4.683993,-0.7208824,-0.007922798,9.738848,7.086837,-9.892841,-0.9816227
5.6621346,4.6834373,-0.7400572,0.13375737,9.827265,7.240066,-10.529699,-1.0247183
5.671988,4.6828766,-0.7400572,0.13375737,9.827265,7.240066,-10.529699,-1.0247183
5.6819043,4.682419,-0.73686135,0.28182915,9.908225,7.771579,-11.33894,-1.0534488
5.691802,4.6819544,-0.73686135,0.28182915,9.908225,7.771579,-11.33894,-1.0534488
5.7017083,4.681625,-0.70703393,0.43948826,9.97001,8.532935,-12.0571995,-1.3311762
5.711611,4.68129,-0.70703393,0.43948826,9.97001,8.532935,-12.0571995,-1.3311762
5.7215304,4.6811156,-0.65164024,0.6088653,9.995577,9.011775,-12.698846,-1.412579
5.7314286,4.680935,-0.65164024,0.6088653,9.995577,9.011775,-12.698846,-1.412579
5.741255,4.680968,-0.5685496,0.7835687,9.974272,9.710882,-13.575124,-0.9720459
5.751066,4.680992,-0.5685496,0.7835687,9.974272,9.710882,-13.575124,-0.9720459
5.7607923,4.681264,-0.46095788,0.95933735,9.900768,10.606314,-14.283808,-0.51235914
5.770519,4.6815186,-0.46095788,0.95933735,9.900768,10.606314,-14.283808,-0.51235914
5.780134,4.682022,-0.33312613,1.1468239,9.786785,10.625467,-14.78659,-0.02873042
5.7897587,4.6825027,-0.33312613,1.1468239,9.786785,10.625467,-14.78659,-0.02873042
5.7992396,4.6832447,-0.19570702,1.3428326,9.634452,10.012551,-15.251065,0.5746084
5.808726,4.683958,-0.19570702,1.3428326,9.634452,10.012551,-15.251065,0.5746084
5.818072,4.684908,-0.056157377,1.5271233,9.4522915,9.370906,-15.773001,1.1827357
5.827412,4.685828,-0.056157377,1.5271233,9.4522915,9.370906,-15.773001,1.1827357
5.8365874,4.6869473,0.08019647,1.6901088,9.247761,8.868123,-16.132132,1.910573
5.8453,4.6879835,0.08019647,1.6901088,9.247761,8.868123,-16.132132,1.910573
5.85427,4.689249,0.21015874,1.8424416,9.033643,8.269572,-16.46253,2.3894134
5.8636847,4.690548,0.21015874,1.8424416,9.033643,8.269572,-16.46253,2.3894134
5.8724494,4.6919394,0.33053362,1.9905133,8.823786,7.656657,-16.663643,2.791639
5.881168,4.6932964,0.33053362,1.9905133,8.823786,7.656657,-16.663643,2.791639
5.8897634,4.6948047,0.4391906,2.1396503,8.622451,6.943185,-16.82645,3.040636
5.8983927,4.69629,0.4391906,2.1396503,8.622451,6.943185,-16.82645,3.040636
5.9067955,4.6978927,0.5318686,2.2941136,8.426442,6.3925185,-17.046717,3.2465374
5.9151983,4.6994658,0.5318686,2.2941136,8.426442,6.3925185,-17.046717,3.2465374
5.923418,4.7011466,0.60856766,2.448577,8.227238,5.9902925,-17.113754,3.3566709
5.9316225,4.7027955,0.60856766,2.448577,8.227238,5.9902925,-17.113754,3.3566709
5.939631,4.704528,0.6660919,2.5987794,8.016315,5.6120086,-17.051504,3.514688
5.947641,4.706231,0.6660919,2.5987794,8.016315,5.6120086,-17.051504,3.514688
5.955419,4.707988,0.6991151,2.74259,7.780892,5.3678,-16.816874,3.8163576
5.963198,4.7097154,0.6991151,2.74259,7.780892,5.3678,-16.816874,3.8163576
5.9707074,4.711465,0.7055067,2.8768134,7.5060534,5.080496,-16.505627,4.1706996
5.978219,4.713186,0.7055067,2.8768134,7.5060534,5.080496,-16.505627,4.1706996
5.985424,4.714899,0.68952775,2.992927,7.1907353,4.697424,-16.371552,4.4484267
5.9926248,4.7165833,0.68952775,2.992927,7.1907353,4.697424,-16.371552,4.4484267
5.9994917,4.7182317,0.65117824,3.0866704,6.833872,4.0078936,-16.385916,4.6495395
6.006368,4.7198553,0.65117824,3.0866704,6.833872,4.0078936,-16.385916,4.6495395
6.012854,4.721417,0.6000455,3.1505864,6.439724,3.2609026,-16.472107,4.807557
6.019349,4.7229557,0.6000455,3.1505864,6.439724,3.2609026,-16.472107,4.807557
6.025443,4.7244186,0.5435865,3.172957,6.021075,2.384625,-16.783354,5.1379566
6.03154,4.7258596,0.5435865,3.172957,6.021075,2.384625,-16.783354,5.1379566
6.0372267,4.72722,0.4924538,3.1516516,5.5949693,1.4987702,-17.022774,5.233725
6.0429225,4.728562,0.4924538,3.1516516,5.5949693,1.4987702,-17.022774,5.233725
6.048195,4.7298255,0.45516956,3.0834746,5.1699286,0.7086837,-17.190369,5.2241483
6.0534806,4.731074,0.45516956,3.0834746,5.1699286,0.7086837,-17.190369,5.2241483
6.0583596,4.732251,0.432799,2.9694912,4.7619324,-0.02873042,-17.626112,5.1906295
6.0632463,4.7334137,0.432799,2.9694912,4.7619324,-0.02873042,-17.626112,5.1906295
6.0677633,4.7345233,0.42960322,2.8182237,4.3795023,-0.641646,-17.836803,4.9895163
6.072274,4.7356167,0.42960322,2.8182237,4.3795023,-0.641646,-17.836803,4.9895163
6.0764394,4.7366705,0.44451693,2.633933,4.0215735,-1.0103531,-17.903841,4.486734
6.0806108,4.7377143,0.44451693,2.633933,4.0215735,-1.0103531,-17.903841,4.486734
6.0844507,4.738725,0.4722138,2.428337,3.6892111,-1.2737153,-17.793707,3.8019924
6.0883,4.7397285,0.4722138,2.428337,3.6892111,-1.2737153,-17.793707,3.8019924
6.0918417,4.7407064,0.5084328,2.2078273,3.3813496,-1.5753847,-17.51598,3.1842883
6.095389,4.7416778,0.5084328,2.2078273,3.3813496,-1.5753847,-17.51598,3.1842883
6.098672,4.74263,0.54784757,1.9766649,3.096924,-1.9009962,-17.06587,2.4756045
6.1020584,4.7436047,0.54784757,1.9766649,3.096924,-1.9009962,-17.06587,2.4756045
6.105011,4.744506,0.58726233,1.739111,2.8412604,-2.2170308,-16.419436,1.9440918
6.107986,4.745408,0.58726233,1.739111,2.8412604,-2.2170308,-16.419436,1.9440918
6.1107655,4.7462983,0.6224161,1.4919696,2.6090329,-2.3558946,-15.749059,1.4269443
6.1137557,4.74725,0.6224161,1.4919696,2.6090329,-2.3558946,-15.749059,1.4269443
6.1162243,4.748071,0.65117824,1.2395018,2.399176,-2.4277205,-14.978126,0.89543146
6.118751,4.7489085,0.65117824,1.2395018,2.399176,-2.4277205,-14.978126,0.89543146
6.121122,4.7497244,0.67354876,0.9849037,2.2116892,-2.3654714,-14.231135,0.48841715
6.1235027,4.750541,0.67354876,0.9849037,2.2116892,-2.3654714,-14.231135,0.48841715
6.1257095,4.7513194,0.6863319,0.7271097,2.041247,-2.0973208,-13.532028,0.15801731
6.127917,4.752095,0.6863319,0.7271097,2.041247,-2.0973208,-13.532028,0.15801731
6.1299586,4.752823,0.690593,0.474642,1.8846531,-1.7764976,-12.928689,-0.16759412
6.1319985,4.7535486,0.690593,0.474642,1.8846531,-1.7764976,-12.928689,-0.16759412
6.133877,4.7542214,0.690593,0.22750065,1.7397771,-1.3024458,-12.411542,-0.45489833
6.1357584,4.7548943,0.690593,0.22750065,1.7397771,-1.3024458,-12.411542,-0.45489833
6.1374803,4.755506,0.6820709,-0.010053327,1.6044885,-0.8571242,-11.736377,-0.7134721
6.139205,4.756119,0.6820709,-0.010053327,1.6044885,-0.8571242,-11.736377,-0.7134721
6.1407785,4.756671,0.6660919,-0.23056307,1.4787873,-0.29688102,-11.295844,-0.78050977
6.142351,4.7572227,0.6660919,-0.23056307,1.4787873,-0.29688102,-11.295844,-0.78050977
6.1437626,4.7577047,0.6394603,-0.43189806,1.3552166,0.31603462,-10.893618,-0.8762778
6.145173,4.7581863,0.6394603,-0.43189806,1.3552166,0.31603462,-10.893618,-0.8762778
6.1464095,4.7585974,0.6043066,-0.612993,1.2337765,0.9768343,-10.577583,-1.0055647
6.147655,4.7590117,0.6043066,-0.612993,1.2337765,0.9768343,-10.577583,-1.0055647
6.148724,4.759358,0.5595655,-0.76532584,1.1165974,1.5610195,-10.342952,-0.93852705
6.1497817,4.7597017,0.5595655,-0.76532584,1.1165974,1.5610195,-10.342952,-0.93852705
6.150696,4.759986,0.5073675,-0.8899618,1.0068752,2.078167,-10.261548,-0.90500826
6.151609,4.760271,0.5073675,-0.8899618,1.0068752,2.078167,-10.261548,-0.90500826
6.1523857,4.760501,0.45197377,-0.9890314,0.90460974,2.5713725,-10.204087,-0.82360536
6.153162,4.760731,0.45197377,-0.9890314,0.90460974,2.5713725,-10.204087,-0.82360536
6.153819,4.760907,0.39338422,-1.0646651,0.8119317,3.064578,-10.208876,-0.7374141
6.1544757,4.7610836,0.39338422,-1.0646651,0.8119317,3.064578,-10.208876,-0.7374141
6.15504,4.761204,0.33585995,-1.1136672,0.7299064,3.3423057,-10.25676,-0.7134721
6.155604,4.761325,0.33585995,-1.1136672,0.7299064,3.3423057,-10.25676,-0.7134721
6.1560907,4.761403,0.2857925,-1.1392337,0.6627947,3.6774938,-10.390836,-0.59855044
6.1565766,4.7614822,0.2857925,-1.1392337,0.6627947,3.6774938,-10.390836,-0.59855044
6.157002,4.7615223,0.23892088,-1.1413642,0.6084662,3.8594532,-10.524911,-0.48362875
6.1574273,4.7615623,0.23892088,-1.1413642,0.6084662,3.8594532,-10.524911,-0.48362875
6.157823,4.7615633,0.1963103,-1.1221894,0.56905144,3.9983168,-10.553641,-0.521936
6.158204,4.761565,0.1963103,-1.1221894,0.56905144,3.9983168,-10.553641,-0.521936
6.158565,4.761537,0.15902604,-1.0838399,0.5402893,4.0174704,-10.67814,-0.45968673
6.158909,4.761511,0.15902604,-1.0838399,0.5402893,4.0174704,-10.67814,-0.45968673
6.159255,4.761457,0.12600285,-1.0284462,0.52431035,3.9935284,-10.6637745,-0.48362875
6.1596155,4.761401,0.12600285,-1.0284462,0.52431035,3.9935284,-10.6637745,-0.48362875
6.15996,4.761326,0.0972407,-0.96133447,0.51791877,3.8977604,-10.630256,-0.48841715
6.1603017,4.7612514,0.0972407,-0.96133447,0.51791877,3.8977604,-10.630256,-0.48841715
6.1606536,4.761158,0.06954383,-0.8835702,0.5211145,3.7780502,-10.577583,-0.47405192
6.161007,4.761065,0.06954383,-0.8835702,0.5211145,3.7780502,-10.577583,-0.47405192
6.161375,4.760952,0.045042746,-0.80047953,0.5285714,3.7110126,-10.606314,-0.60333884
6.161743,4.760839,0.045042746,-0.80047953,0.5285714,3.7110126,-10.606314,-0.60333884
6.1621222,4.760718,0.022672193,-0.7152584,0.5381588,3.7062242,-10.644621,-0.51235914
6.1625013,4.7605977,0.022672193,-0.7152584,0.5381588,3.7062242,-10.644621,-0.51235914
6.162893,4.7604733,0.0045626974,-0.63003725,0.54881144,3.6727054,-10.716447,-0.39743748
6.163284,4.7603498,0.0045626974,-0.63003725,0.54881144,3.6727054,-10.716447,-0.39743748
6.163681,4.760227,-0.010351005,-0.5501424,0.55413777,3.5769374,-10.864887,-0.22026655
6.164078,4.760105,-0.010351005,-0.5501424,0.55413777,3.5769374,-10.864887,-0.22026655
6.164479,4.7599845,-0.017807856,-0.4755739,0.55413777,3.572149,-10.984597,-0.20111294
6.1648793,4.759865,-0.017807856,-0.4755739,0.55413777,3.572149,-10.984597,-0.20111294
6.165279,4.7597523,-0.022068914,-0.40633172,0.55094194,3.5242648,-11.166556,-0.11492168
6.1656775,4.7596407,-0.022068914,-0.40633172,0.55094194,3.5242648,-11.166556,-0.11492168
6.166076,4.7595387,-0.021003649,-0.3413506,0.5477462,3.4763808,-11.329363,-0.05746084
6.166475,4.7594376,-0.021003649,-0.3413506,0.5477462,3.4763808,-11.329363,-0.05746084
6.1668687,4.7593474,-0.017807856,-0.28169575,0.5402893,3.2752678,-11.429919,0.009576807
6.167262,4.7592573,-0.017807856,-0.28169575,0.5402893,3.2752678,-11.429919,0.009576807
6.167652,4.7591844,-0.010351005,-0.22630201,0.534963,3.1555579,-11.520899,0.095768064
6.1680417,4.759112,-0.010351005,-0.22630201,0.534963,3.1555579,-11.520899,0.095768064
6.168426,4.7590704,0.0045626974,-0.17729984,0.53070194,3.098097,-11.626244,0.25857377
6.1688104,4.7590294,0.0045626974,-0.17729984,0.53070194,3.098097,-11.626244,0.25857377
6.16919,4.7590218,0.024802722,-0.13042821,0.5253756,2.9975405,-11.731588,0.37828386
6.16919,4.7590218,0.024802722,-0.13042821,0.5253756,2.9975405,-11.731588,0.37828386
6.169951,4.7590294,0.051434334,-0.0856871,0.518984,3.040636,-11.832145,0.47405192
6.169951,4.7590294,0.051434334,-0.0856871,0.518984,3.040636,-11.832145,0.47405192
6.169951,4.7590294,0.051434334,-0.0856871,0.518984,3.040636,-11.832145,0.47405192
6.169951,4.7590294,0.051434334,-0.0856871,0.518984,3.040636,-11.832145,0.47405192
6.169951,4.7590294,0.051434334,-0.0856871,0.518984,3.040636,-11.832145,0.47405192
6.1716785,4.7592297,0.12919864,-0.0025964756,0.49874398,2.767697,-11.96622,0.5315128
6.1721745,4.7594385,0.17820081,0.035753045,0.48809135,2.5139117,-11.99495,0.4405331
6.1725335,4.759608,0.17820081,0.035753045,0.48809135,2.5139117,-11.99495,0.4405331
6.172852,4.759804,0.23146403,0.069841504,0.47530818,2.1930888,-11.975797,0.40222588
6.1731925,4.7600126,0.23146403,0.069841504,0.47530818,2.1930888,-11.975797,0.40222588
6.1735353,4.7602634,0.28792304,0.09647312,0.46359026,1.8339585,-11.942278,0.38307226
6.1738777,4.7605133,0.28792304,0.09647312,0.46359026,1.8339585,-11.942278,0.38307226
6.174218,4.7608166,0.34544733,0.117778406,0.45506814,1.5466543,-11.851298,0.46447513
6.1745596,4.76112,0.34544733,0.117778406,0.45506814,1.5466543,-11.851298,0.46447513
6.1750374,4.761432,0.3997758,0.12949632,0.45187235,1.2401965,-11.717223,0.38307226
6.1755123,4.7617445,0.3997758,0.12949632,0.45187235,1.2401965,-11.717223,0.38307226
6.1761,4.7621627,0.44984323,0.1358879,0.4540029,0.9624691,-11.621455,0.46926352
6.176684,4.762577,0.44984323,0.1358879,0.4540029,0.9624691,-11.621455,0.46926352
6.177286,4.763065,0.4967149,0.13801843,0.45932922,0.6607997,-11.468226,0.49320555
6.177889,4.7635517,0.4967149,0.13801843,0.45932922,0.6607997,-11.468226,0.49320555
6.1785026,4.7640915,0.5393255,0.13695318,0.4678513,0.33518824,-11.243171,0.50757074
6.1791153,4.7646294,0.5393255,0.13695318,0.4678513,0.33518824,-11.243171,0.50757074
6.17974,4.765204,0.57874024,0.12949632,0.47956923,-0.023942016,-11.027693,0.45010993
6.1803646,4.7657776,0.57874024,0.12949632,0.47956923,-0.023942016,-11.027693,0.45010993
6.18101,4.76639,0.6160245,0.117778406,0.49980927,-0.34955344,-10.845734,0.4357447
6.1816545,4.7670007,0.6160245,0.117778406,0.49980927,-0.34955344,-10.845734,0.4357447
6.182325,4.7676415,0.65117824,0.100734174,0.5275061,-0.5602432,-10.654198,0.3878607
6.182996,4.768283,0.65117824,0.100734174,0.5275061,-0.5602432,-10.654198,0.3878607
6.1836967,4.768947,0.6852667,0.07942889,0.56052935,-0.7182605,-10.520123,0.25857377
6.1843977,4.769611,0.6852667,0.07942889,0.56052935,-0.7182605,-10.520123,0.25857377
6.1851344,4.7703056,0.71935517,0.05173201,0.5978136,-0.7278373,-10.409989,0.2633622
6.185871,4.771,0.71935517,0.05173201,0.5978136,-0.7278373,-10.409989,0.2633622
6.1866446,4.7717257,0.75450885,0.020839343,0.63722837,-0.63206923,-10.381259,0.2825158
6.187418,4.7724504,0.75450885,0.020839343,0.63722837,-0.63206923,-10.381259,0.2825158
6.18822,4.7731924,0.7896626,-0.010053327,0.6745126,-0.44532153,-10.232818,0.1436521
6.1890273,4.773938,0.7896626,-0.010053327,0.6745126,-0.44532153,-10.232818,0.1436521
6.189869,4.774713,0.8237511,-0.04201126,0.7096664,-0.08140286,-10.04607,0.11971009
6.190693,4.7754717,0.8237511,-0.04201126,0.7096664,-0.08140286,-10.04607,0.11971009
6.1914926,4.7762175,0.8525132,-0.07396919,0.73629797,0.33997664,-9.787497,0.07182605
6.192298,4.77697,0.8525132,-0.07396919,0.73629797,0.33997664,-9.787497,0.07182605
6.1930604,4.777729,0.87168795,-0.10060081,0.7437548,0.7182605,-9.385271,0.095768064
6.19382,4.7784877,0.87168795,-0.10060081,0.7437548,0.7182605,-9.385271,0.095768064
6.194509,4.7792525,0.87807953,-0.121906094,0.7320369,0.9528923,-8.968679,0.15322891
6.195197,4.780018,0.87807953,-0.121906094,0.7320369,0.9528923,-8.968679,0.15322891
6.19583,4.7807817,0.8727532,-0.1368198,0.70007896,1.0342951,-8.485051,0.10534488
6.196463,4.7815466,0.8727532,-0.1368198,0.70007896,1.0342951,-8.485051,0.10534488
6.19704,4.7822933,0.85464376,-0.15066823,0.65214205,0.9672575,-8.0445175,0.17238252
6.1976175,4.783041,0.85464376,-0.15066823,0.65214205,0.9672575,-8.0445175,0.17238252
6.1981506,4.7837563,0.8280121,-0.1634514,0.5924873,0.8714894,-7.723695,0.11492168
6.1986833,4.7844715,0.8280121,-0.1634514,0.5924873,0.8714894,-7.723695,0.11492168
6.1991687,4.7851496,0.79498893,-0.17729984,0.5285714,0.78050977,-7.4842744,0.038307227
6.1996536,4.785827,0.79498893,-0.17729984,0.5285714,0.78050977,-7.4842744,0.038307227
6.2000785,4.7864647,0.7577047,-0.19647461,0.462525,0.7374141,-7.3071036,-0.062249243
6.200505,4.7871046,0.7577047,-0.19647461,0.462525,0.7374141,-7.3071036,-0.062249243
6.2008653,4.7876997,0.7172246,-0.21777989,0.39541334,0.7134721,-7.1347213,-0.21547815
6.2012258,4.788295,0.7172246,-0.21777989,0.39541334,0.7134721,-7.1347213,-0.21547815
6.2015114,4.788848,0.6756793,-0.24228097,0.3272364,0.7565677,-6.967127,-0.30645782
6.201796,4.7894006,0.6756793,-0.24228097,0.3272364,0.7565677,-6.967127,-0.30645782
6.202013,4.789906,0.6309382,-0.27210838,0.25799423,0.7517793,-6.8761473,-0.50757074
6.20223,4.790411,0.6309382,-0.27210838,0.25799423,0.7517793,-6.8761473,-0.50757074
6.2023735,4.7908673,0.58406657,-0.30300105,0.18981731,0.78529817,-6.83784,-0.5650316
6.202517,4.7913237,0.58406657,-0.30300105,0.18981731,0.78529817,-6.83784,-0.5650316
6.2025905,4.7917295,0.53612965,-0.334959,0.12270564,0.81881696,-6.7085533,-0.7469909
6.2026634,4.792135,0.53612965,-0.334959,0.12270564,0.81881696,-6.7085533,-0.7469909
6.202667,4.792488,0.48606223,-0.37011272,0.05772451,0.8331822,-6.5601125,-0.79487497
6.202671,4.792841,0.48606223,-0.37011272,0.05772451,0.8331822,-6.5601125,-0.79487497
6.2025995,4.7931385,0.43173376,-0.40739697,-0.004060829,0.9816227,-6.459556,-0.842759
6.202528,4.793436,0.43173376,-0.40739697,-0.004060829,0.9816227,-6.459556,-0.842759
6.2023735,4.79368,0.37527472,-0.44468123,-0.06691143,1.2162545,-6.349423,-0.8858546
6.202221,4.7939205,0.37527472,-0.44468123,-0.06691143,1.2162545,-6.349423,-0.8858546
6.201993,4.7941017,0.31775045,-0.47983494,-0.1308273,1.4556746,-6.339846,-0.9864111
6.201764,4.7942843,0.31775045,-0.47983494,-0.1308273,1.4556746,-6.339846,-0.9864111
6.2014556,4.794416,0.26448724,-0.51072764,-0.1968737,1.5897499,-6.2967505,-0.90979666
6.2011476,4.7945466,0.26448724,-0.51072764,-0.1968737,1.5897499,-6.2967505,-0.90979666
6.2007685,4.7946234,0.211224,-0.536294,-0.26292008,1.6711528,-6.26802,-0.94810385
6.20039,4.7947,0.211224,-0.536294,-0.26292008,1.6711528,-6.26802,-0.94810385
6.1999364,4.794728,0.16009131,-0.5597298,-0.32683596,1.8291701,-6.3589997,-0.89064306
6.1994834,4.794755,0.16009131,-0.5597298,-0.32683596,1.8291701,-6.3589997,-0.89064306
6.1989684,4.7947288,0.10895862,-0.58210033,-0.38755605,1.8818425,-6.291962,-0.9624691
6.1984525,4.7947025,0.10895862,-0.58210033,-0.38755605,1.8818425,-6.291962,-0.9624691
6.197866,4.79463,0.056760654,-0.60020983,-0.44401506,2.0590134,-6.4068837,-0.7661445
6.1972795,4.794558,0.056760654,-0.60020983,-0.44401506,2.0590134,-6.4068837,-0.7661445
6.1966386,4.7944374,0.0077584907,-0.6108625,-0.49514773,2.15957,-6.5361705,-0.7565677
6.1959977,4.7943163,0.0077584907,-0.6108625,-0.49514773,2.15957,-6.5361705,-0.7565677
6.1953063,4.7941527,-0.039113145,-0.61405826,-0.53775835,2.3127987,-6.679823,-0.6847417
6.1946163,4.793989,-0.039113145,-0.61405826,-0.53775835,2.3127987,-6.679823,-0.6847417
6.193896,4.793778,-0.08278899,-0.6108625,-0.57291204,2.327164,-6.8043213,-0.79487497
6.193176,4.7935667,-0.08278899,-0.6108625,-0.57291204,2.327164,-6.8043213,-0.79487497
6.192428,4.793317,-0.124334306,-0.60340565,-0.5974131,2.4133554,-6.933608,-0.7278373
6.19168,4.793067,-0.124334306,-0.60340565,-0.5974131,2.4133554,-6.933608,-0.7278373
6.1909175,4.792778,-0.16374908,-0.5895572,-0.61445737,2.480393,-7.0820484,-0.7757214
6.190155,4.7924886,-0.16374908,-0.5895572,-0.61445737,2.480393,-7.0820484,-0.7757214
6.1893787,4.7921686,-0.19890282,-0.572513,-0.6261753,2.528277,-7.16824,-0.6847417
6.1886005,4.791847,-0.19890282,-0.572513,-0.6261753,2.528277,-7.16824,-0.6847417
6.1877995,4.791489,-0.23192601,-0.5522729,-0.6304363,2.6001031,-7.3071036,-0.62728083
6.187037,4.791148,-0.23192601,-0.5522729,-0.6304363,2.6001031,-7.3071036,-0.62728083
6.1862526,4.7907777,-0.25855762,-0.5320329,-0.63256687,2.6719291,-7.469909,-0.545878
6.1854672,4.7904058,-0.25855762,-0.5320329,-0.63256687,2.6719291,-7.469909,-0.545878
6.184683,4.7900133,-0.2798629,-0.50966233,-0.6346974,2.695871,-7.589619,-0.5746084
6.1838984,4.7896204,-0.2798629,-0.50966233,-0.6346974,2.695871,-7.589619,-0.5746084
6.1831164,4.7892137,-0.29690716,-0.48409602,-0.6336321,2.7485435,-7.699753,-0.56982
6.182335,4.7888064,-0.29690716,-0.48409602,-0.6336321,2.7485435,-7.699753,-0.56982
6.1815615,4.7883873,-0.31075558,-0.45639914,-0.6283058,2.7246015,-7.800309,-0.5506664
6.180788,4.7879677,-0.31075558,-0.45639914,-0.6283058,2.7246015,-7.800309,-0.5506664
6.1800222,4.787542,-0.3224735,-0.4244412,-0.62084895,2.7724855,-7.8529816,-0.50757074
6.179257,4.787116,-0.3224735,-0.4244412,-0.62084895,2.7724855,-7.8529816,-0.50757074
6.1785054,4.7866836,-0.33206087,-0.39035273,-0.60913104,2.705448,-8.010999,-0.4357447
6.1777544,4.7862515,-0.33206087,-0.39035273,-0.60913104,2.705448,-8.010999,-0.4357447
6.1770215,4.785817,-0.3395177,-0.35306847,-0.59315205,2.743755,-8.106767,-0.4165911
6.1762877,4.7853813,-0.3395177,-0.35306847,-0.59315205,2.743755,-8.106767,-0.4165911
6.175567,4.7849517,-0.34484404,-0.3136537,-0.5771731,2.7581203,-8.173804,-0.24899697
6.1748466,4.784522,-0.34484404,-0.3136537,-0.5771731,2.7581203,-8.173804,-0.24899697
6.17415,4.784092,-0.34803984,-0.27104312,-0.55799836,2.7629087,-8.303091,-0.272939
6.1734543,4.783662,-0.34803984,-0.27104312,-0.55799836,2.7629087,-8.303091,-0.272939
6.172777,4.783245,-0.34803984,-0.22523674,-0.5345625,2.7581203,-8.403648,-0.08619126
6.1721015,4.782829,-0.34803984,-0.22523674,-0.5345625,2.7581203,-8.403648,-0.08619126
6.1714516,4.782419,-0.34697458,-0.17943038,-0.51006144,2.767697,-8.494628,-0.05267244
6.170803,4.78201,-0.34697458,-0.17943038,-0.51006144,2.767697,-8.494628,-0.05267244
6.170178,4.78161,-0.3437788,-0.13255873,-0.4876909,2.6719291,-8.595184,0.009576807
6.169554,4.781211,-0.3437788,-0.13255873,-0.4876909,2.6719291,-8.595184,0.009576807
6.168953,4.7808228,-0.33845246,-0.08355658,-0.4663856,2.6192567,-8.700529,0.06703765
6.168353,4.7804365,-0.33845246,-0.08355658,-0.4663856,2.6192567,-8.700529,0.06703765
6.1677775,4.7800603,-0.33206087,-0.036684938,-0.4450803,2.5474305,-8.839393,0.095768064
6.1672015,4.779684,-0.33206087,-0.036684938,-0.4450803,2.5474305,-8.839393,0.095768064
6.1666484,4.779325,-0.32460403,0.009121433,-0.42377502,2.4277205,-8.896853,0.19153613
6.166094,4.778966,-0.32460403,0.009121433,-0.42377502,2.4277205,-8.896853,0.19153613
6.1655617,4.778619,-0.3160819,0.05173201,-0.4067308,2.2744915,-9.030929,0.22984336
6.165029,4.7782717,-0.3160819,0.05173201,-0.4067308,2.2744915,-9.030929,0.22984336
6.1645207,4.777932,-0.30542925,0.089016266,-0.39075184,2.054225,-9.155427,0.23463176
6.1640115,4.7775917,-0.30542925,0.089016266,-0.39075184,2.054225,-9.155427,0.23463176
6.1635294,4.777261,-0.29477662,0.12203947,-0.37157705,1.8866309,-9.212888,0.24899697
6.163047,4.776929,-0.29477662,0.12203947,-0.37157705,1.8866309,-9.212888,0.24899697
6.1625915,4.7766066,-0.28199345,0.1476058,-0.3524023,1.7525556,-9.3421755,0.272939
6.162136,4.776285,-0.28199345,0.1476058,-0.3524023,1.7525556,-9.3421755,0.272939
6.161717,4.775971,-0.2660145,0.1689111,-0.331097,1.5945383,-9.461885,0.29209262
6.1612964,4.7756557,-0.2660145,0.1689111,-0.331097,1.5945383,-9.461885,0.29209262
6.1612964,4.7756557,-0.2500355,0.1870206,-0.30872646,1.4939818,-9.509769,0.21547815
6.160559,4.775034,-0.2500355,0.1870206,-0.30872646,1.4939818,-9.509769,0.21547815
6.160235,4.7747335,-0.23192601,0.19980377,-0.28422537,1.364695,-9.634268,0.2825158
6.1599174,4.774439,-0.23192601,0.19980377,-0.28422537,1.364695,-9.634268,0.2825158
6.1596484,4.774157,-0.21168599,0.20939115,-0.2597243,1.2593501,-9.677363,0.35434186
6.1593785,4.773874,-0.21168599,0.20939115,-0.2597243,1.2593501,-9.677363,0.35434186
6.159191,4.773615,-0.18931544,0.21365221,-0.23415795,1.1013328,-9.730036,0.2777274
6.159004,4.773356,-0.18931544,0.21365221,-0.23415795,1.1013328,-9.730036,0.2777274
6.1588526,4.7731237,-0.16374908,0.21365221,-0.20433055,1.0869676,-9.730036,0.2825158
6.158701,4.7728915,-0.16374908,0.21365221,-0.20433055,1.0869676,-9.730036,0.2825158
6.158572,4.7726808,-0.14031327,0.20939115,-0.17237261,1.1348516,-9.68694,0.33997664
6.158444,4.7724695,-0.14031327,0.20939115,-0.17237261,1.1348516,-9.68694,0.33997664
6.1583686,4.772289,-0.11474692,0.2051301,-0.14147994,1.0965444,-9.720459,0.37349546
6.1582947,4.772111,-0.11474692,0.2051301,-0.14147994,1.0965444,-9.720459,0.37349546
6.1582475,4.7719436,-0.089180574,0.1987385,-0.11165254,1.0630256,-9.715671,0.320823
6.1582475,4.7719436,-0.089180574,0.1987385,-0.11165254,1.0630256,-9.715671,0.320823
6.1582475,4.7719436,-0.089180574,0.1987385,-0.11165254,1.0630256,-9.715671,0.320823
6.1581264,4.7714953,-0.06467949,0.19234692,-0.08182514,1.1013328,-9.710882,0.2777274
6.158104,4.7713795,-0.039113145,0.18489006,-0.05199773,1.1540052,-9.677363,0.23942018
6.1580806,4.7712607,-0.039113145,0.18489006,-0.05199773,1.1540052,-9.677363,0.23942018
6.1580806,4.7712607,-0.039113145,0.18489006,-0.05199773,1.1540052,-9.677363,0.23942018
6.1580095,4.771085,-0.013546798,0.17743322,-0.02110506,1.2593501,-9.576807,0.35913026
6.1579933,4.7710204,0.010954284,0.17104164,0.005526551,1.2976574,-9.519346,0.25857377
6.1579933,4.7710204,0.010954284,0.17104164,0.005526551,1.2976574,-9.519346,0.25857377
6.157974,4.7709103,0.032259572,0.16784583,0.031092897,1.2880806,-9.370906,0.30645782
6.1579723,4.7708673,0.032259572,0.16784583,0.031092897,1.2880806,-9.370906,0.30645782
6.1579556,4.770857,0.051434334,0.1657153,0.054528717,1.3742718,-9.270349,0.33518824
6.157939,4.7708464,0.051434334,0.1657153,0.054528717,1.3742718,-9.270349,0.33518824
6.1579323,4.770857,0.0674133,0.16465004,0.07263821,1.4077905,-9.155427,0.31603462
6.1579256,4.7708664,0.0674133,0.16465004,0.07263821,1.4077905,-9.155427,0.31603462
6.1579432,4.770883,0.08019647,0.16251951,0.087551914,1.4221559,-9.169792,0.25857377
6.1579614,4.7709,0.08019647,0.16251951,0.087551914,1.4221559,-9.169792,0.25857377
6.1580005,4.7709236,0.091914386,0.16251951,0.09926982,1.412579,-9.131485,0.20590134
6.15804,4.7709475,0.091914386,0.16251951,0.09926982,1.412579,-9.131485,0.20590134
6.158068,4.770988,0.09937123,0.16145425,0.10779194,1.4748282,-9.064447,0.23942018
6.158097,4.7710285,0.09937123,0.16145425,0.10779194,1.4748282,-9.064447,0.23942018
6.1581435,4.771068,0.10363229,0.16038899,0.11631405,1.412579,-8.99741,0.23463176
6.1581903,4.7711077,0.10363229,0.16038899,0.11631405,1.412579,-8.99741,0.23463176
6.158228,4.771157,0.104697555,0.15825845,0.12377091,1.436521,-8.954314,0.2873042
6.1582656,4.7712064,0.104697555,0.15825845,0.12377091,1.436521,-8.954314,0.2873042
6.158308,4.7712545,0.10363229,0.15293214,0.13016249,1.4221559,-8.882488,0.29209262
6.1583514,4.771303,0.10363229,0.15293214,0.13016249,1.4221559,-8.882488,0.29209262
6.1584067,4.7713413,0.09937123,0.14867108,0.13442355,1.3742718,-8.75799,0.272939
6.158462,4.7713795,0.09937123,0.14867108,0.13442355,1.3742718,-8.75799,0.272939
6.1585035,4.771426,0.09404491,0.14547528,0.14188041,1.5610195,-8.7053175,0.23942018
6.158545,4.7714734,0.09404491,0.14547528,0.14188041,1.5610195,-8.7053175,0.23942018
6.158584,4.771519,0.08552279,0.14227949,0.148272,1.7046716,-8.748413,0.22984336
6.158623,4.771565,0.08552279,0.14227949,0.148272,1.7046716,-8.748413,0.22984336
6.158665,4.7715993,0.073804885,0.14441001,0.15146779,1.733402,-8.896853,0.23463176
6.1587076,4.771634,0.073804885,0.14441001,0.15146779,1.733402,-8.896853,0.23463176
6.1587453,4.771666,0.062086977,0.1508016,0.15359831,1.8100165,-8.973468,0.272939
6.1587825,4.7716975,0.062086977,0.1508016,0.15359831,1.8100165,-8.973468,0.272939
6.1588225,4.7717233,0.0524996,0.15612793,0.1567941,1.8291701,-8.992621,0.2825158
6.1588626,4.7717485,0.0524996,0.15612793,0.1567941,1.8291701,-8.992621,0.2825158
6.1589055,4.771764,0.041846953,0.16465004,0.15892464,1.8770541,-9.069236,0.2681506
6.1589484,4.771778,0.041846953,0.16465004,0.15892464,1.8770541,-9.069236,0.2681506
6.15899,4.771785,0.031194309,0.17423743,0.15785937,1.8148049,-9.160215,0.30645782
6.1590323,4.771791,0.031194309,0.17423743,0.15785937,1.8148049,-9.160215,0.30645782
6.1590705,4.771797,0.020541664,0.1870206,0.15892464,1.7190368,-9.255983,0.39743748
6.159109,4.771804,0.020541664,0.1870206,0.15892464,1.7190368,-9.255983,0.39743748
6.1591606,4.771787,0.010954284,0.1987385,0.16105516,1.6519991,-9.26556,0.34476504
6.1592116,4.7717705,0.010954284,0.1987385,0.16105516,1.6519991,-9.26556,0.34476504
6.1592684,4.7717447,0.0024321685,0.20726062,0.16425095,1.6089035,-9.32781,0.35913026
6.159325,4.7717185,0.0024321685,0.20726062,0.16425095,1.6089035,-9.32781,0.35913026
6.1593795,4.771688,-0.006089947,0.21471748,0.16425095,1.6041151,-9.346964,0.37828386
6.159434,4.771658,-0.006089947,0.21471748,0.16425095,1.6041151,-9.346964,0.37828386
6.159477,4.771642,-0.012481534,0.21791327,0.16531622,1.6089035,-9.390059,0.46447513
6.1595206,4.771627,-0.012481534,0.21791327,0.16531622,1.6089035,-9.390059,0.46447513
6.159565,4.771611,-0.017807856,0.22217433,0.16744675,1.5705963,-9.481039,0.49320555
6.1596093,4.7715955,-0.017807856,0.22217433,0.16744675,1.5705963,-9.481039,0.49320555
6.159655,4.7715774,-0.022068914,0.22430485,0.16957727,1.4891934,-9.481039,0.51235914
6.159701,4.7715597,-0.022068914,0.22430485,0.16957727,1.4891934,-9.481039,0.51235914
6.1597457,4.771563,-0.026329972,0.22430485,0.17170781,1.4652514,-9.437943,0.5650316
6.1597905,4.771566,-0.026329972,0.22430485,0.17170781,1.4652514,-9.437943,0.5650316
6.1598353,4.771568,-0.03059103,0.22110906,0.17170781,1.5466543,-9.504981,0.5793968
6.15988,4.7715697,-0.03059103,0.22110906,0.17170781,1.5466543,-9.504981,0.5793968
6.1599345,4.771598,-0.034852087,0.2200438,0.17170781,1.4891934,-9.56723,0.6512229
6.1599894,4.7716255,-0.034852087,0.2200438,0.17170781,1.4891934,-9.56723,0.6512229
6.160039,4.771638,-0.04017841,0.21897852,0.17170781,1.484405,-9.634268,0.62728083
6.1600895,4.77165,-0.04017841,0.21897852,0.17170781,1.484405,-9.634268,0.62728083
6.1601334,4.7716513,-0.045504734,0.21791327,0.16851202,1.484405,-9.662998,0.61770403
6.1601777,4.771653,-0.045504734,0.21791327,0.16851202,1.484405,-9.662998,0.61770403
6.160222,4.77166,-0.052961584,0.21578273,0.16318569,1.4796166,-9.691729,0.6464345
6.1602664,4.771666,-0.052961584,0.21578273,0.16318569,1.4796166,-9.691729,0.6464345
6.1603284,4.771696,-0.0614837,0.21365221,0.15359831,1.4652514,-9.672575,0.7422025
6.1603904,4.771726,-0.0614837,0.21365221,0.15359831,1.4652514,-9.672575,0.7422025
6.1604695,4.7717643,-0.06894055,0.21152169,0.14401093,1.4460979,-9.648633,0.8379706
6.160548,4.771803,-0.06894055,0.21152169,0.14401093,1.4460979,-9.648633,0.8379706
6.160642,4.771841,-0.0795932,0.2083259,0.13016249,1.3694834,-9.696517,0.90021986
6.160736,4.7718787,-0.0795932,0.2083259,0.13016249,1.3694834,-9.696517,0.90021986
6.160853,4.7719097,-0.092376366,0.20406483,0.11311826,1.2354081,-9.763555,0.93852705
6.1609697,4.77194,-0.092376366,0.20406483,0.11311826,1.2354081,-9.763555,0.93852705
6.1610727,4.7719607,-0.10196375,0.19980377,0.09607403,1.2210429,-9.749189,0.94331545
6.161175,4.7719817,-0.10196375,0.19980377,0.09607403,1.2210429,-9.749189,0.94331545
6.1612706,4.771994,-0.1094206,0.19341218,0.07796454,1.1779473,-9.773131,0.9624691
6.1613665,4.7720065,-0.1094206,0.19341218,0.07796454,1.1779473,-9.773131,0.9624691
6.161467,4.77201,-0.11581218,0.18489006,0.06305083,1.0965444,-9.821015,0.9816227
6.1615677,4.772013,-0.11581218,0.18489006,0.06305083,1.0965444,-9.821015,0.9816227
6.1616645,4.7720084,-0.121138506,0.17423743,0.05133292,1.0582372,-9.825804,0.9864111
6.1617603,4.7720037,-0.121138506,0.17423743,0.05133292,1.0582372,-9.825804,0.9864111
6.1618576,4.7719903,-0.12539956,0.16251951,0.039615013,1.0103531,-9.883265,0.9768343
6.1618576,4.7719903,-0.12539956,0.16251951,0.039615013,1.0103531,-9.883265,0.9768343
6.162044,4.7719603,-0.1275301,0.15293214,0.02896237,1.0295067,-9.873688,0.89543146
6.162135,4.7719426,-0.1275301,0.15293214,0.02896237,1.0295067,-9.873688,0.89543146
6.162228,4.771918,-0.12966062,0.14441001,0.020440254,0.9959879,-9.892841,0.8762778
6.1623206,4.7718935,-0.12966062,0.14441001,0.020440254,0.9959879,-9.892841,0.8762778
6.1623893,4.7718716,-0.13072589,0.13162684,0.014048667,1.0247183,-9.921572,0.9528923
6.1624575,4.7718496,-0.13072589,0.13162684,0.014048667,1.0247183,-9.921572,0.9528923
6.162517,4.771825,-0.13179116,0.118843675,0.00765708,0.9959879,-9.911995,1.0247183
6.1625767,4.771801,-0.13179116,0.118843675,0.00765708,0.9959879,-9.911995,1.0247183
6.1626287,4.7717752,-0.13179116,0.10712577,-0.0008650357,1.0247183,-9.945514,0.9576807
6.1626806,4.7717495,-0.13179116,0.10712577,-0.0008650357,1.0247183,-9.945514,0.9576807
6.162717,4.771725,-0.13072589,0.09647312,-0.0072566224,1.0726024,-9.945514,0.92895025
6.162753,4.771702,-0.13072589,0.09647312,-0.0072566224,1.0726024,-9.945514,0.92895025
6.16277,4.771679,-0.12966062,0.08368994,-0.014713474,1.0965444,-9.940725,0.9959879
6.162786,4.7716565,-0.12966062,0.08368994,-0.014713474,1.0965444,-9.940725,0.9959879
6.1628027,4.771634,-0.12966062,0.08368994,-0.014713474,1.0965444,-9.940725,0.9959879
6.162812,4.771611,-0.12859535,0.07090677,-0.020039797,1.1109096,-9.950302,0.9576807
6.162822,4.7715883,-0.12859535,0.07090677,-0.020039797,1.1109096,-9.950302,0.9576807
6.162836,4.7715626,-0.1275301,0.0581236,-0.028561912,1.0486604,-9.916783,0.9576807
6.1628504,4.7715373,-0.1275301,0.0581236,-0.028561912,1.0486604,-9.916783,0.9576807
6.1628547,4.771513,-0.12539956,0.04427516,-0.036018763,1.0726024,-9.9550905,0.92895025
6.1628585,4.771488,-0.12539956,0.04427516,-0.036018763,1.0726024,-9.9550905,0.92895025
6.16284,4.7714667,-0.12326904,0.030426722,-0.04241035,1.1444284,-9.935937,0.8571242
6.1628213,4.7714453,-0.12326904,0.030426722,-0.04241035,1.1444284,-9.935937,0.8571242
6.1627817,4.7714252,-0.121138506,0.018708814,-0.0498672,1.1731589,-9.92636,0.92416185
6.1627426,4.7714057,-0.121138506,0.018708814,-0.0498672,1.1731589,-9.92636,0.92416185
6.162678,4.7713866,-0.11900798,0.00592564,-0.05732405,1.2210429,-9.873688,0.8714894
6.162614,4.771368,-0.11900798,0.00592564,-0.05732405,1.2210429,-9.873688,0.8714894
6.162545,4.77135,-0.11687745,-0.0047270046,-0.06371564,1.2114661,-9.873688,0.8283938
6.162477,4.7713323,-0.11687745,-0.0047270046,-0.06371564,1.2114661,-9.873688,0.8283938
6.162388,4.7713146,-0.11474692,-0.014314385,-0.06904196,1.2497733,-9.840169,0.842759
6.162297,4.7712965,-0.11474692,-0.014314385,-0.06904196,1.2497733,-9.840169,0.842759
6.162194,4.7712765,-0.11474692,-0.023901764,-0.07223775,1.2593501,-9.797073,0.770933
6.1620884,4.771256,-0.11474692,-0.023901764,-0.07223775,1.2593501,-9.797073,0.770933
6.161942,4.771227,-0.11368166,-0.03242388,-0.078629345,1.3311762,-9.797073,0.7565677
6.1617966,4.7711983,-0.11368166,-0.03242388,-0.078629345,1.3311762,-9.797073,0.7565677
6.161634,4.771163,-0.11474692,-0.040945996,-0.08608619,1.3838485,-9.753978,0.79008657
6.161479,4.7711296,-0.11474692,-0.040945996,-0.08608619,1.3838485,-9.753978,0.79008657
6.161265,4.771063,-0.11474692,-0.048402846,-0.092477776,1.460463,-9.758766,0.6895301
6.1610436,4.770993,-0.11474692,-0.048402846,-0.092477776,1.460463,-9.758766,0.6895301
6.160831,4.7709327,-0.11474692,-0.054794434,-0.09886937,1.4652514,-9.77792,0.7134721
6.1606193,4.770873,-0.11474692,-0.054794434,-0.09886937,1.4652514,-9.77792,0.7134721
6.1603928,4.7708063,-0.11474692,-0.060120758,-0.106326215,1.541866,-9.768343,0.7278373
6.1601663,4.7707396,-0.11474692,-0.060120758,-0.106326215,1.541866,-9.768343,0.7278373
6.159931,4.7706695,-0.11581218,-0.06331655,-0.11378307,1.5705963,-9.787497,0.7278373
6.1596956,4.7705994,-0.11581218,-0.06331655,-0.11378307,1.5705963,-9.787497,0.7278373
6.159448,4.7705216,-0.11581218,-0.06757761,-0.11910939,1.5897499,-9.758766,0.7038953
6.159202,4.770444,-0.11581218,-0.06757761,-0.11910939,1.5897499,-9.758766,0.7038953
6.158951,4.770366,-0.11687745,-0.06864287,-0.124435715,1.6136919,-9.753978,0.7134721
6.158699,4.770288,-0.11687745,-0.06864287,-0.124435715,1.6136919,-9.753978,0.7134721
6.1584454,4.770212,-0.11900798,-0.06864287,-0.12976204,1.6136919,-9.753978,0.7278373
6.1581917,4.7701364,-0.11900798,-0.06864287,-0.12976204,1.6136919,-9.753978,0.7278373
6.15793,4.770048,-0.121138506,-0.06757761,-0.13189256,1.6232687,-9.739613,0.6847417
6.157666,4.7699594,-0.121138506,-0.06757761,-0.13189256,1.6232687,-9.739613,0.6847417
6.1573935,4.7698426,-0.122203775,-0.064381815,-0.1308273,1.6472107,-9.744401,0.59855044
6.1571198,4.769726,-0.122203775,-0.064381815,-0.1308273,1.6472107,-9.744401,0.59855044
6.1568475,4.7696166,-0.122203775,-0.06118602,-0.13189256,1.6950948,-9.701305,0.62249243
6.1565757,4.769508,-0.122203775,-0.06118602,-0.13189256,1.6950948,-9.701305,0.62249243
6.156307,4.7694063,-0.122203775,-0.057990227,-0.13189256,1.6759412,-9.706094,0.641646
6.1560373,4.769305,-0.122203775,-0.057990227,-0.13189256,1.6759412,-9.706094,0.641646
6.155771,4.76921,-0.122203775,-0.054794434,-0.13189256,1.7525556,-9.691729,0.6799533
6.155505,4.7691154,-0.122203775,-0.054794434,-0.13189256,1.7525556,-9.691729,0.6799533
6.155026,4.7689204,-0.120073244,-0.050533377,-0.1308273,1.7286136,-9.720459,0.60333884
6.155026,4.7689204,-0.120073244,-0.050533377,-0.1308273,1.7286136,-9.720459,0.60333884
6.154676,4.7687826,-0.11794271,-0.048402846,-0.12869677,1.757344,-9.706094,0.61291564
6.154676,4.7687826,-0.11794271,-0.048402846,-0.12869677,1.757344,-9.706094,0.61291564
6.154676,4.7687826,-0.11794271,-0.048402846,-0.12869677,1.757344,-9.706094,0.61291564
6.154676,4.7687826,-0.11474692,-0.045207053,-0.124435715,1.7956513,-9.739613,0.6751649
6.153657,4.768441,-0.11261639,-0.043076526,-0.120174654,1.8052281,-9.749189,0.6991069
6.1533995,4.768359,-0.11261639,-0.043076526,-0.120174654,1.8052281,-9.749189,0.6991069
6.1531634,4.7682896,-0.108355336,-0.037750203,-0.11697886,1.8291701,-9.734824,0.7134721
6.1529183,4.768217,-0.108355336,-0.037750203,-0.11697886,1.8291701,-9.734824,0.7134721
6.152673,4.7681413,-0.10302901,-0.033489145,-0.11165254,1.8722657,-9.710882,0.6799533
6.1524267,4.7680655,-0.10302901,-0.033489145,-0.11165254,1.8722657,-9.710882,0.6799533
6.1521854,4.767998,-0.09663743,-0.027097559,-0.107391484,1.8579005,-9.734824,0.6799533
6.1519456,4.767931,-0.09663743,-0.027097559,-0.107391484,1.8579005,-9.734824,0.6799533
6.1517053,4.7678666,-0.09024584,-0.020705972,-0.10526095,1.9201498,-9.773131,0.6703765
6.151465,4.7678022,-0.09024584,-0.020705972,-0.10526095,1.9201498,-9.773131,0.6703765
6.151222,4.7677274,-0.08598478,-0.01324912,-0.10313042,1.9153614,-9.821015,0.59855044
6.1509805,4.767653,-0.08598478,-0.01324912,-0.10313042,1.9153614,-9.821015,0.59855044
6.150742,4.76758,-0.08385425,-0.00366174,-0.09993463,1.9009962,-9.77792,0.58418524
6.150502,4.7675066,-0.08385425,-0.00366174,-0.09993463,1.9009962,-9.77792,0.58418524
6.150267,4.7674246,-0.08172372,0.0069909045,-0.095673576,1.8291701,-9.835381,0.5363012
6.150032,4.767343,-0.08172372,0.0069909045,-0.095673576,1.8291701,-9.835381,0.5363012
6.1498036,4.7672496,-0.07852793,0.017643549,-0.091412514,1.7956513,-9.811439,0.47884035
6.149575,4.7671566,-0.07852793,0.017643549,-0.091412514,1.7956513,-9.811439,0.47884035
6.14935,4.767089,-0.076397404,0.026165664,-0.08715145,1.7381904,-9.811439,0.5506664
6.1491246,4.767021,-0.076397404,0.026165664,-0.08715145,1.7381904,-9.811439,0.5506664
6.1489053,4.766946,-0.07213634,0.033622514,-0.08182514,1.7525556,-9.830592,0.51235914
6.1486855,4.7668705,-0.07213634,0.033622514,-0.08182514,1.7525556,-9.830592,0.51235914
6.148476,4.766815,-0.06894055,0.040014103,-0.07223775,1.733402,-9.782708,0.5554548
6.148267,4.76676,-0.06894055,0.040014103,-0.07223775,1.733402,-9.782708,0.5554548
6.148065,4.76671,-0.06361423,0.04427516,-0.064780906,1.7142484,-9.758766,0.5506664
6.1478634,4.76666,-0.06361423,0.04427516,-0.064780906,1.7142484,-9.758766,0.5506664
6.1476684,4.766618,-0.058287904,0.04853622,-0.058389317,1.7381904,-9.744401,0.5554548
6.1474733,4.766576,-0.058287904,0.04853622,-0.058389317,1.7381904,-9.744401,0.5554548
6.1472855,4.7665267,-0.052961584,0.05173201,-0.050932467,1.7621324,-9.744401,0.51714754
6.1470976,4.7664776,-0.052961584,0.05173201,-0.050932467,1.7621324,-9.744401,0.51714754
6.1469197,4.766454,-0.049765788,0.05599307,-0.043475613,1.8100165,-9.706094,0.58897364
6.146742,4.7664313,-0.049765788,0.05599307,-0.043475613,1.8100165,-9.706094,0.58897364
6.1465673,4.76639,-0.04443947,0.061319392,-0.036018763,1.7764976,-9.68694,0.50757074
6.1465673,4.76639,-0.04443947,0.061319392,-0.036018763,1.7764976,-9.68694,0.50757074
6.1462307,4.766329,-0.041243672,0.06558045,-0.028561912,1.7286136,-9.65821,0.5554548
6.14607,4.7663093,-0.041243672,0.06558045,-0.028561912,1.7286136,-9.65821,0.5554548
6.145914,4.766295,-0.039113145,0.07090677,-0.022170324,1.6280571,-9.615114,0.5506664
6.145757,4.7662807,-0.039113145,0.07090677,-0.022170324,1.6280571,-9.615114,0.5506664
6.145607,4.7662544,-0.035917353,0.0762331,-0.014713474,1.6089035,-9.619903,0.51714754
6.1454563,4.7662287,-0.035917353,0.0762331,-0.014713474,1.6089035,-9.619903,0.51714754
6.145316,4.7661858,-0.033786822,0.08262468,-0.0072566224,1.5035586,-9.552865,0.48841715
6.1451764,4.766143,-0.033786822,0.08262468,-0.0072566224,1.5035586,-9.552865,0.48841715
6.145059,4.7660737,-0.032721557,0.090081535,0.00020022877,1.4748282,-9.581595,0.45968673
6.144942,4.7660046,-0.032721557,0.090081535,0.00020022877,1.4748282,-9.581595,0.45968673
6.1448245,4.766018,-0.032721557,0.09647312,0.009787609,1.412579,-9.504981,0.5315128
6.144707,4.7660317,-0.032721557,0.09647312,0.009787609,1.412579,-9.504981,0.5315128
6.1445947,4.766033,-0.032721557,0.09966891,0.019374989,1.3838485,-9.457097,0.51714754
6.144482,4.766035,-0.032721557,0.09966891,0.019374989,1.3838485,-9.457097,0.51714754
6.1445193,4.766114,-0.034852087,0.102864705,0.025766576,1.3263878,-9.504981,0.5554548
6.144556,4.766193,-0.034852087,0.102864705,0.025766576,1.3263878,-9.504981,0.5554548
6.144735,4.766157,-0.035917353,0.104995236,0.03428869,1.292869,-9.485827,0.50757074
6.1449127,4.7661223,-0.035917353,0.104995236,0.03428869,1.292869,-9.485827,0.50757074
6.1450286,4.7661843,-0.039113145,0.104995236,0.041745543,1.283292,-9.533711,0.56982
6.145144,4.766247,-0.039113145,0.104995236,0.041745543,1.283292,-9.533711,0.56982
6.1452346,4.7663145,-0.042308938,0.102864705,0.0460066,1.3120226,-9.562442,0.5602432
6.145324,4.7663817,-0.042308938,0.102864705,0.0460066,1.3120226,-9.562442,0.5602432
6.1453686,4.7664485,-0.045504734,0.09753838,0.04813713,1.340753,-9.600749,0.58897364
6.1454124,4.7665157,-0.045504734,0.09753838,0.04813713,1.340753,-9.600749,0.58897364
6.145452,4.766579,-0.048700526,0.0911468,0.04813713,1.3455414,-9.619903,0.58897364
6.145491,4.766642,-0.048700526,0.0911468,0.04813713,1.3455414,-9.619903,0.58897364
6.1455197,4.766699,-0.052961584,0.08262468,0.04387607,1.3551182,-9.691729,0.5746084
6.1455474,4.766756,-0.052961584,0.08262468,0.04387607,1.3551182,-9.691729,0.5746084
6.1455374,4.766803,-0.05509211,0.07516783,0.040680278,1.4317327,-9.739613,0.6607997
6.145527,4.7668495,-0.05509211,0.07516783,0.040680278,1.4317327,-9.739613,0.6607997
6.1454835,4.766884,-0.05509211,0.06664571,0.03641922,1.4508862,-9.768343,0.62249243
6.1454406,4.766918,-0.05509211,0.06664571,0.03641922,1.4508862,-9.768343,0.62249243
6.1453857,4.7669473,-0.056157377,0.05599307,0.030027634,1.4700398,-9.758766,0.63206923
6.145331,4.7669764,-0.056157377,0.05599307,0.030027634,1.4700398,-9.758766,0.63206923
6.1452565,4.766996,-0.056157377,0.047470953,0.024701312,1.484405,-9.787497,0.61770403
6.145183,4.767015,-0.056157377,0.047470953,0.024701312,1.484405,-9.787497,0.61770403
6.145096,4.767029,-0.056157377,0.038948838,0.01724446,1.532289,-9.787497,0.6368576
6.1450086,4.767043,-0.056157377,0.038948838,0.01724446,1.532289,-9.787497,0.6368576
6.144958,4.7670803,-0.05509211,0.030426722,0.012983402,1.4796166,-9.77792,0.6895301
6.1449075,4.7671175,-0.05509211,0.030426722,0.012983402,1.4796166,-9.77792,0.6895301
6.1448355,4.7671485,-0.05402685,0.024035135,0.0065918155,1.484405,-9.734824,0.6607997
6.1447635,4.7671795,-0.05402685,0.024035135,0.0065918155,1.484405,-9.734824,0.6607997
6.144699,4.7672186,-0.05189632,0.017643549,0.00020022877,1.4748282,-9.715671,0.6895301
6.144635,4.7672577,-0.05189632,0.017643549,0.00020022877,1.4748282,-9.715671,0.6895301
6.144502,4.767247,-0.05189632,0.012317227,-0.0051260935,1.4748282,-9.730036,0.56982
6.1443696,4.7672377,-0.05189632,0.012317227,-0.0051260935,1.4748282,-9.730036,0.56982
6.144292,4.767274,-0.050831053,0.008056169,-0.006191358,1.4556746,-9.701305,0.6464345
6.1442146,4.76731,-0.050831053,0.008056169,-0.006191358,1.4556746,-9.701305,0.6464345
6.1441154,4.7673345,-0.049765788,0.003795111,-0.0051260935,1.4317327,-9.706094,0.58897364
6.1440167,4.7673597,-0.049765788,0.003795111,-0.0051260935,1.4317327,-9.706094,0.58897364
6.1439185,4.7673864,-0.048700526,-0.00046594674,-0.006191358,1.4748282,-9.744401,0.62249243
6.143821,4.7674136,-0.048700526,-0.00046594674,-0.006191358,1.4748282,-9.744401,0.62249243
6.1437387,4.7674527,-0.045504734,-0.00366174,-0.008321887,1.4460979,-9.710882,0.62728083
6.143657,4.7674923,-0.045504734,-0.00366174,-0.008321887,1.4460979,-9.710882,0.62728083
6.143602,4.7675424,-0.042308938,-0.005792269,-0.006191358,1.484405,-9.701305,0.7565677
6.1435466,4.7675924,-0.042308938,-0.005792269,-0.006191358,1.484405,-9.701305,0.7565677
6.14347,4.767637,-0.04017841,-0.007922798,-0.0029955646,1.4652514,-9.720459,0.6464345
6.1433935,4.7676806,-0.04017841,-0.007922798,-0.0029955646,1.4652514,-9.720459,0.6464345
6.143347,4.7677364,-0.03698262,-0.010053327,-0.0008650357,1.4413095,-9.68694,0.6895301
6.1433,4.7677927,-0.03698262,-0.010053327,-0.0008650357,1.4413095,-9.68694,0.6895301
6.1432467,4.767849,-0.033786822,-0.011118591,0.0023307577,1.460463,-9.65821,0.6943185
6.1431932,4.767905,-0.033786822,-0.011118591,0.0023307577,1.460463,-9.65821,0.6943185
6.1431274,4.767962,-0.0284605,-0.012183856,0.0033960221,1.5179238,-9.619903,0.7326257
6.1430616,4.7680187,-0.0284605,-0.012183856,0.0033960221,1.5179238,-9.619903,0.7326257
6.143,4.768079,-0.025264706,-0.012183856,0.005526551,1.532289,-9.624691,0.7565677
6.1429386,4.76814,-0.025264706,-0.012183856,0.005526551,1.532289,-9.624691,0.7565677
6.142857,4.768193,-0.022068914,-0.008988062,0.008722344,1.5562311,-9.56723,0.7038953
6.142776,4.7682457,-0.022068914,-0.008988062,0.008722344,1.5562311,-9.56723,0.7038953
6.1426964,4.768302,-0.019938385,-0.0068575335,0.009787609,1.5849615,-9.586384,0.7278373
6.1426167,4.7683573,-0.019938385,-0.0068575335,0.009787609,1.5849615,-9.586384,0.7278373
6.1425085,4.7683887,-0.018873122,-0.00366174,0.011918138,1.5993267,-9.548077,0.6368576
6.1424,4.76842,-0.018873122,-0.00366174,0.011918138,1.5993267,-9.548077,0.6368576
6.1423225,4.7684793,-0.01674259,0.0005993177,0.014048667,1.5610195,-9.514558,0.7038953
6.142246,4.768538,-0.01674259,0.0005993177,0.014048667,1.5610195,-9.514558,0.7038953
6.14217,4.7685976,-0.015677327,0.0048603755,0.016179197,1.5227122,-9.514558,0.6703765
6.142094,4.7686577,-0.015677327,0.0048603755,0.016179197,1.5227122,-9.514558,0.6703765
6.1420116,4.7687154,-0.014612063,0.0069909045,0.01724446,1.4796166,-9.428367,0.62728083
6.141931,4.7687716,-0.014612063,0.0069909045,0.01724446,1.4796166,-9.428367,0.62728083
6.14186,4.7688365,-0.013546798,0.010186698,0.01724446,1.4652514,-9.404425,0.6368576
6.141789,4.7689013,-0.013546798,0.010186698,0.01724446,1.4652514,-9.404425,0.6368576
6.1417894,4.768987,-0.014612063,0.012317227,0.018309724,1.3551182,-9.385271,0.61770403
6.14179,4.7690735,-0.014612063,0.012317227,0.018309724,1.3551182,-9.385271,0.61770403
6.1417913,4.7691584,-0.015677327,0.012317227,0.020440254,1.3551182,-9.370906,0.62249243
6.141793,4.7692432,-0.015677327,0.012317227,0.020440254,1.3551182,-9.370906,0.62249243
6.1417575,4.7693195,-0.015677327,0.012317227,0.023636047,1.3599066,-9.332599,0.5746084
6.141722,4.7693963,-0.015677327,0.012317227,0.023636047,1.3599066,-9.332599,0.5746084
6.1418877,4.769395,-0.01674259,0.010186698,0.02683184,1.2880806,-9.390059,0.5410896
6.1420536,4.7693944,-0.01674259,0.010186698,0.02683184,1.2880806,-9.390059,0.5410896
6.142186,4.7694435,-0.017807856,0.009121433,0.027897105,1.2737153,-9.323022,0.5650316
6.1423187,4.769493,-0.017807856,0.009121433,0.027897105,1.2737153,-9.323022,0.5650316
6.142451,4.769542,-0.018873122,0.00592564,0.02896237,1.2641385,-9.3421755,0.5746084
6.1425824,4.7695913,-0.018873122,0.00592564,0.02896237,1.2641385,-9.3421755,0.5746084
6.142691,4.7696533,-0.021003649,0.0005993177,0.031092897,1.2593501,-9.361329,0.60812724
6.142799,4.7697153,-0.021003649,0.0005993177,0.031092897,1.2593501,-9.361329,0.60812724
6.1428304,4.7697897,-0.024199443,-0.0047270046,0.032158162,1.3311762,-9.399636,0.60333884
6.1428614,4.7698646,-0.024199443,-0.0047270046,0.032158162,1.3311762,-9.399636,0.60333884
6.1428123,4.76992,-0.025264706,-0.011118591,0.031092897,1.3742718,-9.414001,0.58418524
6.1427627,4.769975,-0.025264706,-0.011118591,0.031092897,1.3742718,-9.414001,0.58418524
6.1426516,4.7699456,-0.027395237,-0.017510178,0.030027634,1.3790601,-9.466674,0.545878
6.1425405,4.769917,-0.027395237,-0.017510178,0.030027634,1.3790601,-9.466674,0.545878
6.1424294,4.7698812,-0.0284605,-0.0228365,0.030027634,1.436521,-9.519346,0.545878
6.1423182,4.769846,-0.0284605,-0.0228365,0.030027634,1.436521,-9.519346,0.545878
6.142217,4.7698517,-0.03059103,-0.028162822,0.02896237,1.4556746,-9.509769,0.5793968
6.1421165,4.7698574,-0.03059103,-0.028162822,0.02896237,1.4556746,-9.509769,0.5793968
6.142024,4.7698765,-0.03059103,-0.03455441,0.02683184,1.4556746,-9.572019,0.59376204
6.141932,4.7698956,-0.03059103,-0.03455441,0.02683184,1.4556746,-9.572019,0.59376204
6.141828,4.7699018,-0.031656295,-0.040945996,0.024701312,1.5179238,-9.572019,0.60333884
6.141724,4.769908,-0.031656295,-0.040945996,0.024701312,1.5179238,-9.572019,0.60333884
6.1416173,4.7699103,-0.03059103,-0.04627232,0.023636047,1.5514427,-9.595961,0.60812724
6.141508,4.7699127,-0.03059103,-0.04627232,0.023636047,1.5514427,-9.595961,0.60812724
6.141508,4.7699127,-0.029525764,-0.050533377,0.022570781,1.6232687,-9.524135,0.641646
6.141508,4.7699127,-0.029525764,-0.050533377,0.022570781,1.6232687,-9.524135,0.641646
6.1411896,4.7699394,-0.026329972,-0.05372917,0.023636047,1.5945383,-9.610326,0.6464345
6.1411896,4.7699394,-0.026329972,-0.05372917,0.023636047,1.5945383,-9.610326,0.6464345
6.1411896,4.7699394,-0.026329972,-0.05372917,0.023636047,1.5945383,-9.610326,0.6464345
6.1409187,4.7700005,-0.024199443,-0.054794434,0.025766576,1.5897499,-9.552865,0.6751649
6.140791,4.7699747,-0.021003649,-0.054794434,0.030027634,1.5993267,-9.619903,0.5650316
6.1406803,4.769953,-0.021003649,-0.054794434,0.030027634,1.5993267,-9.619903,0.5650316
6.1405764,4.769962,-0.017807856,-0.054794434,0.033223428,1.6328455,-9.572019,0.61770403
6.140471,4.769971,-0.017807856,-0.054794434,0.033223428,1.6328455,-9.572019,0.61770403
6.140374,4.769978,-0.014612063,-0.054794434,0.03854975,1.6519991,-9.557653,0.61291564
6.140278,4.7699857,-0.014612063,-0.054794434,0.03854975,1.6519991,-9.557653,0.61291564
6.140187,4.7699947,-0.013546798,-0.05372917,0.042810805,1.6280571,-9.581595,0.60812724
6.1400943,4.7700033,-0.013546798,-0.05372917,0.042810805,1.6280571,-9.581595,0.60812724
6.1399994,4.769984,-0.012481534,-0.052663904,0.04813713,1.6567876,-9.524135,0.5506664
6.1399045,4.769964,-0.012481534,-0.052663904,0.04813713,1.6567876,-9.524135,0.5506664
6.1399045,4.769964,-0.012481534,-0.052663904,0.04813713,1.6567876,-9.524135,0.5506664
6.1399045,4.769964,-0.012481534,-0.052663904,0.04813713,1.6567876,-9.524135,0.5506664
6.139636,4.769958,-0.010351005,-0.050533377,0.052398186,1.7286136,-9.519346,0.58897364
6.1395593,4.7699676,-0.008220476,-0.048402846,0.058789775,1.7286136,-9.504981,0.61291564
6.1394835,4.769966,-0.006089947,-0.045207053,0.06624663,1.8052281,-9.528923,0.58418524
6.1394086,4.769964,-0.006089947,-0.045207053,0.06624663,1.8052281,-9.528923,0.58418524
6.1393404,4.7699504,-0.0018288894,-0.04201126,0.073703475,1.8339585,-9.533711,0.5315128
6.1392717,4.769936,-0.0018288894,-0.04201126,0.073703475,1.8339585,-9.533711,0.5315128
6.139212,4.7699494,0.00030163955,-0.036684938,0.08009506,1.8483237,-9.548077,0.61291564
6.1391535,4.769963,0.00030163955,-0.036684938,0.08009506,1.8483237,-9.548077,0.61291564
6.1390986,4.7699623,0.0024321685,-0.031358615,0.087551914,1.8626889,-9.509769,0.5554548
6.1390443,4.7699614,0.0024321685,-0.031358615,0.087551914,1.8626889,-9.509769,0.5554548
6.139003,4.769987,0.0045626974,-0.023901764,0.09500877,1.8722657,-9.481039,0.6368576
6.1389613,4.770013,0.0045626974,-0.023901764,0.09500877,1.8722657,-9.481039,0.6368576
6.1389246,4.770033,0.0077584907,-0.016444914,0.102465615,1.910573,-9.504981,0.60812724
6.138888,4.770054,0.0077584907,-0.016444914,0.102465615,1.910573,-9.504981,0.60812724
6.138856,4.77007,0.008823755,-0.010053327,0.10779194,1.9153614,-9.471462,0.58418524
6.138856,4.77007,0.008823755,-0.010053327,0.10779194,1.9153614,-9.471462,0.58418524
6.138804,4.7701254,0.010954284,-0.00046594674,0.11418352,1.8818425,-9.485827,0.6655881
6.138786,4.770167,0.010954284,-0.00046594674,0.11418352,1.8818425,-9.485827,0.6655881
6.138786,4.770167,0.010954284,-0.00046594674,0.11418352,1.8818425,-9.485827,0.6655881
6.138751,4.7702246,0.010954284,0.009121433,0.120575115,1.8962077,-9.5385,0.61291564
6.1387434,4.770257,0.010954284,0.018708814,0.1269667,1.8962077,-9.433155,0.62728083
6.138735,4.7702904,0.010954284,0.018708814,0.1269667,1.8962077,-9.433155,0.62728083
6.1387305,4.7703257,0.012019549,0.029361458,0.13122776,1.8531121,-9.514558,0.61770403
6.138726,4.7703605,0.012019549,0.029361458,0.13122776,1.8531121,-9.514558,0.61770403
6.138731,4.770408,0.0141500775,0.038948838,0.13655408,1.7717092,-9.557653,0.63206923
6.1387353,4.7704535,0.0141500775,0.038948838,0.13655408,1.7717092,-9.557653,0.63206923
6.1387396,4.7704806,0.016280606,0.043209895,0.14188041,1.7477672,-9.562442,0.56982
6.138744,4.770508,0.016280606,0.043209895,0.14188041,1.7477672,-9.562442,0.56982
6.138756,4.7705474,0.017345872,0.04853622,0.14720672,1.757344,-9.548077,0.59855044
6.1387677,4.770587,0.017345872,0.04853622,0.14720672,1.757344,-9.548077,0.59855044
6.1387887,4.77064,0.019476399,0.05599307,0.15253304,1.7286136,-9.557653,0.62249243
6.138809,4.770693,0.019476399,0.05599307,0.15253304,1.7286136,-9.557653,0.62249243
6.1388288,4.770729,0.02160693,0.062384658,0.15572885,1.6998832,-9.581595,0.5746084
6.1388483,4.770766,0.02160693,0.062384658,0.15572885,1.6998832,-9.581595,0.5746084
6.138869,4.7707987,0.02160693,0.06771098,0.1567941,1.5897499,-9.595961,0.5650316
6.1388893,4.770832,0.02160693,0.06771098,0.1567941,1.5897499,-9.595961,0.5650316
6.1389556,4.770934,0.022672193,0.071972035,0.16105516,1.532289,-9.586384,0.6560113
6.1390204,4.771036,0.022672193,0.071972035,0.16105516,1.532289,-9.586384,0.6560113
6.139057,4.7711077,0.025867987,0.074102566,0.16318569,1.5658079,-9.500193,0.60812724
6.139094,4.7711787,0.025867987,0.074102566,0.16318569,1.5658079,-9.500193,0.60812724
6.139127,4.7712364,0.025867987,0.074102566,0.16531622,1.508347,-9.490616,0.5793968
6.1391597,4.7712936,0.025867987,0.074102566,0.16531622,1.508347,-9.490616,0.5793968
6.139205,4.7713747,0.027998514,0.073037304,0.16744675,1.4652514,-9.466674,0.58897364
6.13925,4.771455,0.027998514,0.073037304,0.16744675,1.4652514,-9.466674,0.58897364
6.1392922,4.7715244,0.030129045,0.07090677,0.17170781,1.508347,-9.428367,0.58897364
6.139334,4.771593,0.030129045,0.07090677,0.17170781,1.508347,-9.428367,0.58897364
6.1393733,4.7716236,0.030129045,0.06771098,0.1749036,1.5179238,-9.437943,0.5506664
6.1394124,4.771653,0.030129045,0.06771098,0.1749036,1.5179238,-9.437943,0.5506664
6.139455,4.7717123,0.031194309,0.06451519,0.17596887,1.4939818,-9.461885,0.5793968
6.1394973,4.7717714,0.031194309,0.06451519,0.17596887,1.4939818,-9.461885,0.5793968
6.1395373,4.771811,0.031194309,0.061319392,0.17703412,1.5275006,-9.404425,0.5602432
6.139578,4.7718506,0.031194309,0.061319392,0.17703412,1.5275006,-9.404425,0.5602432
6.139618,4.771887,0.030129045,0.05918886,0.17703412,1.532289,-9.423578,0.5602432
6.1396585,4.771923,0.030129045,0.05918886,0.17703412,1.532289,-9.423578,0.5602432
6.1396976,4.7719536,0.030129045,0.057058334,0.17596887,1.5658079,-9.394848,0.5506664
6.139737,4.7719836,0.030129045,0.057058334,0.17596887,1.5658079,-9.394848,0.5506664
6.139793,4.772071,0.02906378,0.054927804,0.17277306,1.5179238,-9.3421755,0.62728083
6.139848,4.772157,0.02906378,0.054927804,0.17277306,1.5179238,-9.3421755,0.62728083
6.13992,4.7722607,0.024802722,0.05173201,0.16638148,1.436521,-9.41879,0.61770403
6.139991,4.772362,0.024802722,0.05173201,0.16638148,1.436521,-9.41879,0.61770403
6.1400375,4.7724414,0.019476399,0.04853622,0.16212043,1.4556746,-9.390059,0.60812724
6.140083,4.772519,0.019476399,0.04853622,0.16212043,1.4556746,-9.390059,0.60812724
6.1401095,4.772566,0.0141500775,0.04427516,0.15892464,1.5131354,-9.44752,0.59855044
6.1401362,4.7726116,0.0141500775,0.04427516,0.15892464,1.5131354,-9.44752,0.59855044
6.1401515,4.772631,0.008823755,0.04214463,0.15253304,1.5658079,-9.476251,0.5793968
6.1401663,4.7726507,0.008823755,0.04214463,0.15253304,1.5658079,-9.476251,0.5793968
6.1401772,4.7726865,0.003497433,0.04107937,0.14294566,1.541866,-9.495404,0.60812724
6.1401877,4.7727222,0.003497433,0.04107937,0.14294566,1.541866,-9.495404,0.60812724
6.140254,4.772815,0.00030163955,0.040014103,0.13229302,1.436521,-9.543288,0.6512229
6.1403193,4.772907,0.00030163955,0.040014103,0.13229302,1.436521,-9.543288,0.6512229
6.1403584,4.772986,-0.0050246827,0.037883572,0.12270564,1.412579,-9.528923,0.61291564
6.1403956,4.773063,-0.0050246827,0.037883572,0.12270564,1.412579,-9.528923,0.61291564
6.1404357,4.773142,-0.010351005,0.03468778,0.11311826,1.4221559,-9.490616,0.6368576
6.1404743,4.7732196,-0.010351005,0.03468778,0.11311826,1.4221559,-9.490616,0.6368576
6.1406403,4.7732964,-0.015677327,0.031491987,0.10140035,1.3263878,-9.519346,0.641646
6.140805,4.7733736,-0.015677327,0.031491987,0.10140035,1.3263878,-9.519346,0.641646
6.140938,4.773451,-0.021003649,0.026165664,0.09074771,1.3263878,-9.524135,0.6799533
6.1410694,4.773529,-0.021003649,0.026165664,0.09074771,1.3263878,-9.524135,0.6799533
6.141215,4.773594,-0.026329972,0.020839343,0.08329086,1.2976574,-9.519346,0.6799533
6.1413593,4.773659,-0.026329972,0.020839343,0.08329086,1.2976574,-9.519346,0.6799533
6.1414924,4.7737226,-0.029525764,0.01551302,0.07689927,1.316811,-9.562442,0.6703765
6.1416254,4.7737865,-0.029525764,0.01551302,0.07689927,1.316811,-9.562442,0.6703765
6.1417837,4.7738333,-0.031656295,0.0069909045,0.07050768,1.316811,-9.543288,0.62728083
6.1419396,4.773881,-0.031656295,0.0069909045,0.07050768,1.316811,-9.543288,0.62728083
6.142077,4.77393,-0.033786822,-0.00046594674,0.06305083,1.3311762,-9.600749,0.63206923
6.1422133,4.773981,-0.033786822,-0.00046594674,0.06305083,1.3311762,-9.600749,0.63206923
6.142372,4.7740116,-0.034852087,-0.008988062,0.056659244,1.3311762,-9.624691,0.61770403
6.14253,4.7740436,-0.034852087,-0.008988062,0.056659244,1.3311762,-9.624691,0.61770403
6.142441,4.773991,-0.034852087,-0.016444914,0.05026766,1.3934253,-9.65821,0.59376204
6.142351,4.773941,-0.034852087,-0.016444914,0.05026766,1.3934253,-9.65821,0.59376204
6.142416,4.7738013,-0.03698262,-0.021771235,0.047071867,1.3599066,-9.643845,0.545878
6.14248,4.7736616,-0.03698262,-0.021771235,0.047071867,1.3599066,-9.643845,0.545878
6.1425095,4.773519,-0.03804788,-0.029228088,0.041745543,1.3742718,-9.653421,0.545878
6.1425385,4.773377,-0.03804788,-0.029228088,0.041745543,1.3742718,-9.653421,0.545878
6.1424637,4.7733974,-0.039113145,-0.035619672,0.03428869,1.3982137,-9.591172,0.60812724
6.1423893,4.7734184,-0.039113145,-0.035619672,0.03428869,1.3982137,-9.591172,0.60812724
6.142365,4.773466,-0.039113145,-0.04201126,0.030027634,1.388637,-9.643845,0.62249243
6.14234,4.773514,-0.039113145,-0.04201126,0.030027634,1.388637,-9.643845,0.62249243
6.142238,4.7734284,-0.03804788,-0.04627232,0.02896237,1.4221559,-9.605537,0.56982
6.1421366,4.7733445,-0.03804788,-0.04627232,0.02896237,1.4221559,-9.605537,0.56982
6.1420403,4.7732477,-0.03804788,-0.050533377,0.02683184,1.4317327,-9.65821,0.5650316
6.141943,4.7731514,-0.03804788,-0.050533377,0.02683184,1.4317327,-9.65821,0.5650316
6.1418247,4.7731094,-0.03804788,-0.05372917,0.024701312,1.4173675,-9.662998,0.58897364
6.141706,4.7730684,-0.03804788,-0.05372917,0.024701312,1.4173675,-9.662998,0.58897364
6.1416163,4.772963,-0.035917353,-0.05692496,0.024701312,1.4652514,-9.672575,0.5410896
6.141527,4.772858,-0.035917353,-0.05692496,0.024701312,1.4652514,-9.672575,0.5410896
6.1414413,4.7727547,-0.031656295,-0.060120758,0.02896237,1.436521,-9.639056,0.5506664
6.141356,4.772653,-0.031656295,-0.060120758,0.02896237,1.436521,-9.639056,0.5506664
6.1412687,4.7725587,-0.029525764,-0.06118602,0.032158162,1.4939818,-9.639056,0.5267244
6.1411815,4.772465,-0.029525764,-0.06118602,0.032158162,1.4939818,-9.639056,0.5267244
6.1411676,4.772335,-0.027395237,-0.060120758,0.03854975,1.4460979,-9.629479,0.45010993
6.1411533,4.7722044,-0.027395237,-0.060120758,0.03854975,1.4460979,-9.629479,0.45010993
6.1410813,4.7721157,-0.02313418,-0.059055492,0.0460066,1.4891934,-9.586384,0.51714754
6.1410084,4.7720265,-0.02313418,-0.059055492,0.0460066,1.4891934,-9.586384,0.51714754
6.140954,4.7719297,-0.019938385,-0.059055492,0.05133292,1.532289,-9.591172,0.46926352
6.1408987,4.771832,-0.019938385,-0.059055492,0.05133292,1.532289,-9.591172,0.46926352
6.1408167,4.771777,-0.017807856,-0.057990227,0.055593982,1.5753847,-9.562442,0.5267244
6.1407347,4.771723,-0.017807856,-0.057990227,0.055593982,1.5753847,-9.562442,0.5267244
6.140655,4.7716656,-0.017807856,-0.0558597,0.058789775,1.6136919,-9.533711,0.51235914
6.140575,4.771608,-0.017807856,-0.0558597,0.058789775,1.6136919,-9.533711,0.51235914
6.1405044,4.771549,-0.01674259,-0.051598642,0.061985567,1.5945383,-9.504981,0.50278234
6.1404333,4.7714896,-0.01674259,-0.051598642,0.061985567,1.5945383,-9.504981,0.50278234
6.1403813,4.771409,-0.015677327,-0.047337584,0.06518136,1.6519991,-9.509769,0.4213795
6.140329,4.771328,-0.015677327,-0.047337584,0.06518136,1.6519991,-9.509769,0.4213795
6.14027,4.7712574,-0.015677327,-0.04201126,0.06731189,1.6519991,-9.524135,0.45489833
6.1402116,4.771188,-0.015677327,-0.04201126,0.06731189,1.6519991,-9.524135,0.45489833
6.140164,4.7711096,-0.015677327,-0.036684938,0.07050768,1.6663644,-9.5385,0.4213795
6.140116,4.7710314,-0.015677327,-0.036684938,0.07050768,1.6663644,-9.5385,0.4213795
6.1400566,4.7709775,-0.013546798,-0.029228088,0.073703475,1.6663644,-9.548077,0.48362875
6.1399975,4.7709236,-0.013546798,-0.029228088,0.073703475,1.6663644,-9.548077,0.48362875
6.139952,4.770851,-0.013546798,-0.0228365,0.075834006,1.6519991,-9.562442,0.4405331
6.139908,4.7707815,-0.013546798,-0.0228365,0.075834006,1.6519991,-9.562442,0.4405331
6.139851,4.770721,-0.012481534,-0.014314385,0.08009506,1.6663644,-9.639056,0.48362875
6.139851,4.770721,-0.012481534,-0.014314385,0.08009506,1.6663644,-9.639056,0.48362875
6.139772,4.7706065,-0.0114162695,-0.0068575335,0.08329086,1.6089035,-9.600749,0.47884035
6.139731,4.770548,-0.0114162695,-0.0068575335,0.08329086,1.6089035,-9.600749,0.47884035
6.139731,4.770548,-0.0114162695,-0.0068575335,0.08329086,1.6089035,-9.600749,0.47884035
6.139651,4.770441,-0.009285741,-0.00046594674,0.08542138,1.5705963,-9.615114,0.49799395
6.139651,4.770441,-0.009285741,-0.00046594674,0.08542138,1.5705963,-9.615114,0.49799395
6.1396365,4.770355,-0.008220476,0.0048603755,0.089682445,1.5131354,-9.643845,0.48362875
6.1396217,4.7702684,-0.008220476,0.0048603755,0.089682445,1.5131354,-9.643845,0.48362875
6.1395946,4.7702227,-0.006089947,0.009121433,0.09287824,1.5179238,-9.629479,0.51235914
6.1395535,4.7701154,-0.0018288894,0.013382491,0.0939435,1.5275006,-9.629479,0.47884035
6.1395535,4.7701154,-0.0018288894,0.013382491,0.0939435,1.5275006,-9.629479,0.47884035
6.1395507,4.7699757,0.001366904,0.016578285,0.09713929,1.4939818,-9.600749,0.45010993
6.1395683,4.7698936,0.001366904,0.016578285,0.09713929,1.4939818,-9.600749,0.45010993
6.1395683,4.7698936,0.001366904,0.016578285,0.09713929,1.4939818,-9.600749,0.45010993
6.139554,4.7697773,0.003497433,0.017643549,0.09926982,1.4796166,-9.619903,0.50278234
6.139554,4.7697773,0.003497433,0.017643549,0.09926982,1.4796166,-9.619903,0.50278234
6.1394877,4.7697344,0.0045626974,0.017643549,0.10033509,1.484405,-9.643845,0.5363012
6.139491,4.7696753,0.0077584907,0.019774077,0.102465615,1.4939818,-9.648633,0.48841715
6.1394935,4.769615,0.0077584907,0.019774077,0.102465615,1.4939818,-9.648633,0.48841715
6.13947,4.7696676,0.00988902,0.020839343,0.103530884,1.4700398,-9.624691,0.5746084
6.139446,4.76972,0.00988902,0.020839343,0.103530884,1.4700398,-9.624691,0.5746084
6.139414,4.769722,0.013084813,0.019774077,0.10566141,1.508347,-9.677363,0.545878
6.1393814,4.7697244,0.013084813,0.019774077,0.10566141,1.508347,-9.677363,0.545878
6.139403,4.7696643,0.017345872,0.018708814,0.106726676,1.4939818,-9.682152,0.47405192
6.1394243,4.7696047,0.017345872,0.018708814,0.106726676,1.4939818,-9.682152,0.47405192
6.1394753,4.7695355,0.020541664,0.017643549,0.10779194,1.460463,-9.677363,0.46447513
6.139525,4.769467,0.020541664,0.017643549,0.10779194,1.460463,-9.677363,0.46447513
6.139526,4.7694273,0.022672193,0.017643549,0.10779194,1.508347,-9.725247,0.49799395
6.139526,4.769388,0.022672193,0.017643549,0.10779194,1.508347,-9.725247,0.49799395
6.1394954,4.769432,0.025867987,0.01551302,0.106726676,1.4939818,-9.734824,0.5650316
6.1394644,4.7694745,0.025867987,0.01551302,0.106726676,1.4939818,-9.734824,0.5650316
6.1394553,4.7694483,0.02906378,0.014447756,0.10566141,1.5035586,-9.739613,0.51235914
6.139446,4.7694216,0.02906378,0.014447756,0.10566141,1.5035586,-9.739613,0.51235914
6.1394167,4.769432,0.034390103,0.011251962,0.10566141,1.484405,-9.715671,0.5410896
6.1393876,4.769442,0.034390103,0.011251962,0.10566141,1.484405,-9.715671,0.5410896
6.1393604,4.7694507,0.03865116,0.009121433,0.10566141,1.532289,-9.710882,0.5267244
6.1393332,4.7694592,0.03865116,0.009121433,0.10566141,1.532289,-9.710882,0.5267244
6.139335,4.769433,0.041846953,0.00592564,0.104596145,1.484405,-9.691729,0.50278234
6.139337,4.7694073,0.041846953,0.00592564,0.104596145,1.484405,-9.691729,0.50278234
6.139323,4.7694006,0.047173277,0.0027298466,0.104596145,1.541866,-9.734824,0.49799395
6.1393094,4.769394,0.047173277,0.0027298466,0.104596145,1.541866,-9.734824,0.49799395
6.139275,4.769444,0.0524996,0.0016645822,0.10566141,1.6089035,-9.68694,0.5506664
6.1392407,4.769494,0.0524996,0.0016645822,0.10566141,1.6089035,-9.68694,0.5506664
6.139217,4.7695146,0.05782592,-0.00046594674,0.106726676,1.5705963,-9.672575,0.50757074
6.139193,4.769535,0.05782592,-0.00046594674,0.106726676,1.5705963,-9.672575,0.50757074
6.139187,4.769539,0.06315224,-0.0015312112,0.10779194,1.5562311,-9.619903,0.46926352
6.139181,4.7695417,0.06315224,-0.0015312112,0.10779194,1.5562311,-9.619903,0.46926352
6.139182,4.7695417,0.06634804,-0.0025964756,0.10779194,1.541866,-9.56723,0.45489833
6.1391835,4.7695413,0.06634804,-0.0025964756,0.10779194,1.541866,-9.56723,0.45489833
6.1391535,4.769596,0.06954383,-0.0025964756,0.1088572,1.532289,-9.5385,0.5315128
6.1391234,4.7696505,0.06954383,-0.0025964756,0.1088572,1.532289,-9.5385,0.5315128
6.1391335,4.7696514,0.07273962,-0.0025964756,0.10992247,1.5370775,-9.471462,0.4309563
6.139143,4.7696524,0.07273962,-0.0025964756,0.10992247,1.5370775,-9.471462,0.4309563
6.1391554,4.7696543,0.073804885,-0.0025964756,0.112053,1.5179238,-9.452309,0.4405331
6.139168,4.769656,0.073804885,-0.0025964756,0.112053,1.5179238,-9.452309,0.4405331
6.139194,4.769653,0.074870154,-0.0025964756,0.11631405,1.4987702,-9.399636,0.4261679
6.1392198,4.7696495,0.074870154,-0.0025964756,0.11631405,1.4987702,-9.399636,0.4261679
6.1392846,4.769633,0.07700068,-0.00046594674,0.118444584,1.4508862,-9.313444,0.36391866
6.139349,4.7696157,0.07700068,-0.00046594674,0.118444584,1.4508862,-9.313444,0.36391866
6.1394067,4.769603,0.07700068,0.0016645822,0.12164038,1.4413095,-9.270349,0.39743748
6.139464,4.76959,0.07700068,0.0016645822,0.12164038,1.4413095,-9.270349,0.39743748
6.13952,4.7695785,0.07700068,0.0005993177,0.12590143,1.4748282,-9.255983,0.36391866
6.1395764,4.7695675,0.07700068,0.0005993177,0.12590143,1.4748282,-9.255983,0.36391866
6.139631,4.76956,0.07806595,0.0005993177,0.13016249,1.5035586,-9.232041,0.34476504
6.1396847,4.7695527,0.07806595,0.0005993177,0.13016249,1.5035586,-9.232041,0.34476504
6.139742,4.7695456,0.07806595,0.0005993177,0.13335828,1.4508862,-9.212888,0.39743748
6.139799,4.769538,0.07806595,0.0005993177,0.13335828,1.4508862,-9.212888,0.39743748
6.1398616,4.76953,0.07806595,0.0005993177,0.13655408,1.5035586,-9.203311,0.33039984
6.139923,4.7695217,0.07806595,0.0005993177,0.13655408,1.5035586,-9.203311,0.33039984
6.1399813,4.769515,0.07700068,-0.0015312112,0.1386846,1.5370775,-9.155427,0.30645782
6.1400385,4.7695084,0.07700068,-0.0015312112,0.1386846,1.5370775,-9.155427,0.30645782
6.1400833,4.7695084,0.074870154,-0.00046594674,0.14081514,1.5753847,-9.11712,0.32561144
6.140127,4.7695084,0.074870154,-0.00046594674,0.14081514,1.5753847,-9.11712,0.32561144
6.140155,4.769521,0.07273962,0.0005993177,0.14081514,1.6184803,-9.141062,0.36870706
6.1401815,4.7695336,0.07273962,0.0005993177,0.14081514,1.6184803,-9.141062,0.36870706
6.1401906,4.7695627,0.0674133,0.003795111,0.1386846,1.6711528,-9.088389,0.4165911
6.140199,4.7695913,0.0674133,0.003795111,0.1386846,1.6711528,-9.088389,0.4165911
6.140229,4.7695856,0.061021715,0.00592564,0.13548881,1.6472107,-9.083601,0.31124622
6.1402597,4.76958,0.061021715,0.00592564,0.13548881,1.6472107,-9.083601,0.31124622
6.140305,4.7695537,0.05356486,0.010186698,0.13016249,1.5945383,-9.02614,0.24420857
6.14035,4.7695274,0.05356486,0.010186698,0.13016249,1.5945383,-9.02614,0.24420857
6.1403604,4.7695165,0.045042746,0.01551302,0.12483617,1.6136919,-9.078813,0.36870706
6.140371,4.769505,0.045042746,0.01551302,0.12483617,1.6136919,-9.078813,0.36870706
6.1404014,4.7694626,0.033324838,0.019774077,0.119509846,1.5753847,-9.112331,0.29688102
6.140432,4.7694206,0.033324838,0.019774077,0.119509846,1.5753847,-9.112331,0.29688102
6.140469,4.769363,0.024802722,0.021904606,0.11418352,1.5179238,-9.112331,0.30645782
6.1405044,4.7693076,0.024802722,0.021904606,0.11418352,1.5179238,-9.112331,0.30645782
6.1405044,4.7693076,0.024802722,0.021904606,0.11418352,1.541866,-9.184157,0.38307226
6.1405163,4.7692094,0.016280606,0.0251004,0.1088572,1.541866,-9.184157,0.38307226
6.1405215,4.769151,0.0077584907,0.026165664,0.102465615,1.4987702,-9.260772,0.40701428
6.140527,4.7690907,0.0077584907,0.026165664,0.102465615,1.4987702,-9.260772,0.40701428
6.140511,4.769035,0.00030163955,0.024035135,0.09607403,1.4796166,-9.260772,0.45010993
6.140495,4.768979,0.00030163955,0.024035135,0.09607403,1.4796166,-9.260772,0.45010993
6.1404705,4.7689195,-0.006089947,0.022969872,0.09074771,1.508347,-9.332599,0.45010993
6.140446,4.76886,-0.006089947,0.022969872,0.09074771,1.508347,-9.332599,0.45010993
6.1404033,4.7688093,-0.009285741,0.018708814,0.08222559,1.4987702,-9.32781,0.47405192
6.1403604,4.768759,-0.009285741,0.018708814,0.08222559,1.4987702,-9.32781,0.47405192
6.1403008,4.7687764,-0.012481534,0.014447756,0.073703475,1.4939818,-9.404425,0.5602432
6.1402407,4.7687945,-0.012481534,0.014447756,0.073703475,1.4939818,-9.404425,0.5602432
6.1402063,4.768713,-0.015677327,0.012317227,0.06837715,1.4508862,-9.461885,0.47884035
6.140171,4.768632,-0.015677327,0.012317227,0.06837715,1.4508862,-9.461885,0.47884035
6.1401935,4.7685184,-0.018873122,0.012317227,0.0641161,1.3982137,-9.495404,0.46926352
6.1402154,4.768405,-0.018873122,0.012317227,0.0641161,1.3982137,-9.495404,0.46926352
6.140311,4.768285,-0.024199443,0.011251962,0.059855036,1.3263878,-9.500193,0.4165911
6.1404057,4.768164,-0.024199443,0.011251962,0.059855036,1.3263878,-9.500193,0.4165911
6.140444,4.768038,-0.0284605,0.010186698,0.05772451,1.3838485,-9.562442,0.49799395
6.1404805,4.7679114,-0.0284605,0.010186698,0.05772451,1.3838485,-9.562442,0.49799395
6.1405883,4.767788,-0.031656295,0.008056169,0.05346345,1.364695,-9.591172,0.50757074
6.1406956,4.7676644,-0.031656295,0.008056169,0.05346345,1.364695,-9.591172,0.50757074
6.1408663,4.767682,-0.033786822,0.003795111,0.04813713,1.3503298,-9.581595,0.5410896
6.1410313,4.7677,-0.033786822,0.003795111,0.04813713,1.3503298,-9.581595,0.5410896
6.1411314,4.767575,-0.033786822,-0.0015312112,0.042810805,1.3455414,-9.576807,0.48841715
6.1412315,4.767449,-0.033786822,-0.0015312112,0.042810805,1.3455414,-9.576807,0.48841715
6.141174,4.7674894,-0.032721557,-0.007922798,0.03641922,1.3934253,-9.572019,0.545878
6.141116,4.767531,-0.032721557,-0.007922798,0.03641922,1.3934253,-9.572019,0.545878
6.1410303,4.767439,-0.031656295,-0.016444914,0.027897105,1.4269443,-9.629479,0.50757074
6.1409426,4.7673473,-0.031656295,-0.016444914,0.027897105,1.4269443,-9.629479,0.50757074
6.140875,4.7672334,-0.031656295,-0.0228365,0.022570781,1.4652514,-9.619903,0.45489833
6.1408086,4.7671223,-0.031656295,-0.0228365,0.022570781,1.4652514,-9.619903,0.45489833
6.1407104,4.7670302,-0.029525764,-0.029228088,0.01724446,1.5658079,-9.634268,0.4357447
6.1406116,4.766938,-0.029525764,-0.029228088,0.01724446,1.5658079,-9.634268,0.4357447
6.1405096,4.766846,-0.027395237,-0.035619672,0.011918138,1.5993267,-9.696517,0.4213795
6.140407,4.766753,-0.027395237,-0.035619672,0.011918138,1.5993267,-9.696517,0.4213795
6.140271,4.7667184,-0.027395237,-0.03988073,0.0065918155,1.6232687,-9.730036,0.5267244
6.140136,4.7666836,-0.027395237,-0.03988073,0.0065918155,1.6232687,-9.730036,0.5267244
6.1400003,4.7666283,-0.027395237,-0.040945996,0.0033960221,1.6903064,-9.734824,0.48362875
6.139865,4.766573,-0.027395237,-0.040945996,0.0033960221,1.6903064,-9.734824,0.48362875
6.139725,4.766522,-0.026329972,-0.04201126,0.00020022877,1.6950948,-9.787497,0.49320555
6.139585,4.766471,-0.026329972,-0.04201126,0.00020022877,1.6950948,-9.787497,0.49320555
6.1394434,4.7664404,-0.025264706,-0.040945996,0.00020022877,1.6903064,-9.792285,0.5315128
6.1393013,4.76641,-0.025264706,-0.040945996,0.00020022877,1.6903064,-9.792285,0.5315128
6.1391616,4.7663655,-0.022068914,-0.037750203,0.00020022877,1.7286136,-9.801862,0.49320555
6.1390214,4.766321,-0.022068914,-0.037750203,0.00020022877,1.7286136,-9.801862,0.49320555
6.138883,4.7662854,-0.017807856,-0.03455441,0.0023307577,1.70946,-9.797073,0.50278234
6.1387444,4.7662497,-0.017807856,-0.03455441,0.0023307577,1.70946,-9.797073,0.50278234
6.138619,4.7661967,-0.012481534,-0.029228088,0.0065918155,1.7190368,-9.768343,0.44532153
6.1384935,4.7661433,-0.012481534,-0.029228088,0.0065918155,1.7190368,-9.768343,0.44532153
6.138376,4.766094,-0.006089947,-0.021771235,0.012983402,1.7477672,-9.753978,0.4261679
6.1382594,4.766045,-0.006089947,-0.021771235,0.012983402,1.7477672,-9.753978,0.4261679
6.138152,4.766,-0.0018288894,-0.01324912,0.021505518,1.757344,-9.730036,0.4165911
6.138045,4.765955,-0.0018288894,-0.01324912,0.021505518,1.757344,-9.730036,0.4165911
6.1379347,4.765934,0.0024321685,-0.0047270046,0.02683184,1.7956513,-9.701305,0.45968673
6.1378245,4.765913,0.0024321685,-0.0047270046,0.02683184,1.7956513,-9.701305,0.45968673
6.1377244,4.765892,0.0077584907,0.0048603755,0.03428869,1.8435353,-9.65821,0.4261679
6.1376247,4.765871,0.0077584907,0.0048603755,0.03428869,1.8435353,-9.65821,0.4261679
6.137533,4.7658544,0.013084813,0.014447756,0.040680278,1.7956513,-9.615114,0.4261679
6.137441,4.7658377,0.013084813,0.014447756,0.040680278,1.7956513,-9.615114,0.4261679
6.137354,4.765831,0.016280606,0.022969872,0.047071867,1.7812861,-9.56723,0.4405331
6.1372666,4.7658243,0.016280606,0.022969872,0.047071867,1.7812861,-9.56723,0.4405331
6.1372666,4.7658243,0.018411135,0.033622514,0.055593982,1.7621324,-9.552865,0.41180268
6.1372666,4.7658243,0.018411135,0.033622514,0.055593982,1.7621324,-9.552865,0.41180268
6.1370454,4.765782,0.019476399,0.043209895,0.06305083,1.7190368,-9.481039,0.4213795
6.1370454,4.765782,0.019476399,0.043209895,0.06305083,1.7190368,-9.481039,0.4213795
6.136965,4.7657695,0.020541664,0.054927804,0.06944242,1.733402,-9.414001,0.35913026
6.136879,4.7657285,0.020541664,0.054927804,0.06944242,1.733402,-9.414001,0.35913026
6.136879,4.7657285,0.020541664,0.06771098,0.07689927,1.6998832,-9.399636,0.40701428
6.136828,4.7657185,0.020541664,0.06771098,0.07689927,1.6998832,-9.399636,0.40701428
6.13673,4.7656984,0.020541664,0.06771098,0.07689927,1.6998832,-9.399636,0.40701428
6.136686,4.7656984,0.020541664,0.07942889,0.08009506,1.6663644,-9.385271,0.4357447
6.136653,4.765679,0.020541664,0.089016266,0.08222559,1.6519991,-9.394848,0.3878607
6.13662,4.76566,0.020541664,0.089016266,0.08222559,1.6519991,-9.394848,0.3878607
6.136592,4.7656393,0.018411135,0.100734174,0.08542138,1.5801731,-9.433155,0.4213795
6.136564,4.765619,0.018411135,0.100734174,0.08542138,1.5801731,-9.433155,0.4213795
6.136544,4.7655926,0.015215342,0.11138682,0.089682445,1.5562311,-9.41879,0.4213795
6.136525,4.765566,0.015215342,0.11138682,0.089682445,1.5562311,-9.41879,0.4213795
6.136505,4.765542,0.012019549,0.118843675,0.09287824,1.4556746,-9.457097,0.47884035
6.1364846,4.765518,0.012019549,0.118843675,0.09287824,1.4556746,-9.457097,0.47884035
6.136522,4.7654576,0.008823755,0.12630053,0.09607403,1.4173675,-9.476251,0.48362875
6.136556,4.765397,0.008823755,0.12630053,0.09607403,1.4173675,-9.476251,0.48362875
6.136526,4.765394,0.003497433,0.13482264,0.09820456,1.4077905,-9.490616,0.50278234
6.1364965,4.7653904,0.003497433,0.13482264,0.09820456,1.4077905,-9.490616,0.50278234
6.136705,4.765478,-0.0007636249,0.14121422,0.09926982,1.3359646,-9.56723,0.5602432
6.1369123,4.765566,-0.0007636249,0.14121422,0.09926982,1.3359646,-9.56723,0.5602432
6.1371255,4.7656455,-0.0039594183,0.14441001,0.09820456,1.2641385,-9.557653,0.59376204
6.137338,4.7657256,-0.0039594183,0.14441001,0.09820456,1.2641385,-9.557653,0.59376204
6.1375766,4.7657804,-0.006089947,0.14547528,0.10033509,1.1827357,-9.615114,0.58418524
6.1378098,4.7658343,-0.006089947,0.14547528,0.10033509,1.1827357,-9.615114,0.58418524
6.1380467,4.7658873,-0.009285741,0.14547528,0.103530884,1.1444284,-9.643845,0.60333884
6.138284,4.7659397,-0.009285741,0.14547528,0.103530884,1.1444284,-9.643845,0.60333884
6.1385217,4.765997,-0.009285741,0.14441001,0.106726676,1.0582372,-9.691729,0.6512229
