Pitch,Roll,Gyro_X,Gyro_Y,Gyro_Z,Accel_X,Accel_Y,Accel_Z
6.2365413,4.698604,0.075935416,0.054927804,0.22177523,0.45010993,-9.495404,-0.19153613
6.2367153,4.6985874,0.075935416,0.054927804,0.22177523,0.45010993,-9.495404,-0.19153613
6.2368555,4.698573,0.07060909,0.045340426,0.21005733,0.50757074,-9.514558,-0.21547815
6.236996,4.6985593,0.07060909,0.045340426,0.21005733,0.50757074,-9.514558,-0.21547815
6.237096,4.698552,0.06315224,0.03681831,0.1962089,0.545878,-9.514558,-0.21068975
6.2371993,4.6985445,0.06315224,0.03681831,0.1962089,0.545878,-9.514558,-0.21068975
6.2372518,4.698559,0.055695392,0.032557253,0.18236046,0.6464345,-9.524135,-0.20111294
6.237306,4.698574,0.055695392,0.032557253,0.18236046,0.6464345,-9.524135,-0.20111294
6.23733,4.6986194,0.04610801,0.02723093,0.16425095,0.6607997,-9.504981,-0.1340753
6.23733,4.6986194,0.04610801,0.02723093,0.16425095,0.6607997,-9.504981,-0.1340753
6.2373757,4.6987147,0.03652063,0.022969872,0.14614145,0.62728083,-9.543288,-0.10055647
6.2373857,4.6987753,0.03652063,0.022969872,0.14614145,0.62728083,-9.543288,-0.10055647
6.2373734,4.698794,0.027998514,0.018708814,0.1269667,0.62728083,-9.514558,-0.1436521
6.237361,4.6988125,0.027998514,0.018708814,0.1269667,0.62728083,-9.514558,-0.1436521
6.237333,4.698854,0.017345872,0.016578285,0.10779194,0.6560113,-9.504981,-0.090979666
6.237333,4.698854,0.017345872,0.016578285,0.10779194,0.6560113,-9.504981,-0.090979666
6.237333,4.698854,0.017345872,0.016578285,0.10779194,0.6560113,-9.504981,-0.090979666
6.237171,4.698815,0.0077584907,0.014447756,0.087551914,0.5650316,-9.572019,-0.14844051
6.23712,4.698816,0.00030163955,0.012317227,0.06837715,0.56982,-9.56723,-0.12928689
6.237048,4.6988173,0.00030163955,0.012317227,0.06837715,0.56982,-9.56723,-0.12928689
6.236963,4.69879,-0.008220476,0.011251962,0.052398186,0.56982,-9.619903,-0.14844051
6.236878,4.698763,-0.008220476,0.011251962,0.052398186,0.56982,-9.619903,-0.14844051
6.236792,4.6987066,-0.014612063,0.011251962,0.040680278,0.5267244,-9.634268,-0.15801731
6.2367053,4.698651,-0.014612063,0.011251962,0.040680278,0.5267244,-9.634268,-0.15801731
6.2365975,4.698638,-0.021003649,0.009121433,0.032158162,0.51714754,-9.682152,-0.12928689
6.23649,4.6986256,-0.021003649,0.009121433,0.032158162,0.51714754,-9.682152,-0.12928689
6.2363777,4.6986217,-0.026329972,0.0069909045,0.023636047,0.5410896,-9.725247,-0.11971009
6.236265,4.6986184,-0.026329972,0.0069909045,0.023636047,0.5410896,-9.725247,-0.11971009
6.236175,4.6985254,-0.029525764,0.0048603755,0.01724446,0.5363012,-9.691729,-0.18195933
6.236085,4.698432,-0.029525764,0.0048603755,0.01724446,0.5363012,-9.691729,-0.18195933
6.2359767,4.698353,-0.03059103,0.003795111,0.014048667,0.50278234,-9.753978,-0.15322891
6.235868,4.6982746,-0.03059103,0.003795111,0.014048667,0.50278234,-9.753978,-0.15322891
6.2357936,4.698165,-0.031656295,0.0005993177,0.011918138,0.5267244,-9.744401,-0.19632454
6.2357187,4.6980553,-0.031656295,0.0005993177,0.011918138,0.5267244,-9.744401,-0.19632454
6.235604,4.69806,-0.031656295,-0.0015312112,0.015113931,0.50278234,-9.773131,-0.12928689
6.2354894,4.6980658,-0.031656295,-0.0015312112,0.015113931,0.50278234,-9.773131,-0.12928689
6.235418,4.6979575,-0.03059103,-0.00366174,0.016179197,0.49320555,-9.797073,-0.16280572
6.2353454,4.69785,-0.03059103,-0.00366174,0.016179197,0.49320555,-9.797073,-0.16280572
6.235365,4.697719,-0.031656295,-0.0025964756,0.018309724,0.46926352,-9.811439,-0.17717093
6.2353845,4.697588,-0.031656295,-0.0025964756,0.018309724,0.46926352,-9.811439,-0.17717093
6.2355423,4.6975307,-0.033786822,-0.0025964756,0.021505518,0.19153613,-9.758766,-0.19153613
6.2357006,4.697474,-0.033786822,-0.0025964756,0.021505518,0.19153613,-9.758766,-0.19153613
6.2358084,4.697517,-0.039113145,-0.0068575335,0.032158162,0.2681506,-9.758766,0.06703765
6.235916,4.69756,-0.039113145,-0.0068575335,0.032158162,0.2681506,-9.758766,0.06703765
6.2359185,4.6976047,-0.04763526,-0.014314385,0.04813713,0.60333884,-9.811439,0.1340753
6.2359204,4.697649,-0.04763526,-0.014314385,0.04813713,0.60333884,-9.811439,0.1340753
6.2358556,4.697643,-0.049765788,-0.016444914,0.058789775,0.8283938,-9.811439,-0.01436521
6.2357903,4.6976366,-0.049765788,-0.016444914,0.058789775,0.8283938,-9.811439,-0.01436521
6.235714,4.6975718,-0.049765788,-0.011118591,0.061985567,0.80445176,-9.931149,-0.18195933
6.235637,4.697507,-0.049765788,-0.011118591,0.061985567,0.80445176,-9.931149,-0.18195933
6.235601,4.697388,-0.04763526,0.0005993177,0.061985567,0.59855044,-9.892841,-0.23942018
6.235564,4.69727,-0.04763526,0.0005993177,0.061985567,0.59855044,-9.892841,-0.23942018
6.235743,4.697171,-0.043374203,0.012317227,0.0641161,0.39743748,-9.916783,-0.18674773
6.2359223,4.6970716,-0.043374203,0.012317227,0.0641161,0.39743748,-9.916783,-0.18674773
6.2361283,4.697024,-0.03698262,0.019774077,0.06731189,0.35434186,-9.974244,-0.16280572
6.236335,4.696976,-0.03698262,0.019774077,0.06731189,0.35434186,-9.974244,-0.16280572
6.236535,4.6969833,-0.031656295,0.024035135,0.071572945,0.33518824,-9.945514,-0.11492168
6.236735,4.6969914,-0.031656295,0.024035135,0.071572945,0.33518824,-9.945514,-0.11492168
6.236924,4.6970277,-0.025264706,0.02723093,0.0790298,0.31124622,-9.89763,-0.07182605
6.2371135,4.697064,-0.025264706,0.02723093,0.0790298,0.31124622,-9.89763,-0.07182605
6.2373056,4.697111,-0.019938385,0.02723093,0.088617176,0.30645782,-9.931149,-0.05746084
6.2374983,4.697158,-0.019938385,0.02723093,0.088617176,0.30645782,-9.931149,-0.05746084
6.2376757,4.6972275,-0.013546798,0.026165664,0.09926982,0.31603462,-9.907207,-0.009576807
6.237853,4.6972966,-0.013546798,0.026165664,0.09926982,0.31603462,-9.907207,-0.009576807
6.2379913,4.697388,-0.006089947,0.024035135,0.11098773,0.39264908,-9.883265,0.04309563
6.2381296,4.69748,-0.006089947,0.024035135,0.11098773,0.39264908,-9.883265,0.04309563
6.238253,4.6975784,-0.0018288894,0.022969872,0.12377091,0.44532153,-9.878476,-0.047884032
6.238375,4.697676,-0.0018288894,0.022969872,0.12377091,0.44532153,-9.878476,-0.047884032
6.238477,4.697777,0.0024321685,0.024035135,0.13122776,0.48362875,-9.911995,-0.01436521
6.2385783,4.697877,0.0024321685,0.024035135,0.13122776,0.48362875,-9.911995,-0.01436521
6.238683,4.697981,0.0066932263,0.02723093,0.13761935,0.48362875,-9.854534,-0.01436521
6.2387867,4.6980844,0.0066932263,0.02723093,0.13761935,0.48362875,-9.854534,-0.01436521
6.238942,4.6981945,0.00988902,0.032557253,0.1450762,0.4213795,-9.849746,0.0047884034
6.2390966,4.698304,0.00988902,0.032557253,0.1450762,0.4213795,-9.849746,0.0047884034
6.2393184,4.6984034,0.012019549,0.03681831,0.15253304,0.32561144,-9.859323,-0.0047884034
6.239539,4.698503,0.012019549,0.03681831,0.15253304,0.32561144,-9.859323,-0.0047884034
6.239804,4.698586,0.016280606,0.04107937,0.1599899,0.2633622,-9.89763,-0.033518825
6.240068,4.6986694,0.016280606,0.04107937,0.1599899,0.2633622,-9.89763,-0.033518825
6.2403245,4.6987705,0.022672193,0.043209895,0.16957727,0.2681506,-9.945514,0.0047884034
6.24058,4.698872,0.022672193,0.043209895,0.16957727,0.2681506,-9.945514,0.0047884034
6.2408648,4.6989703,0.02906378,0.043209895,0.18236046,0.2825158,-9.911995,-0.04309563
6.241149,4.699068,0.02906378,0.043209895,0.18236046,0.2825158,-9.911995,-0.04309563
6.2414947,4.699131,0.03545537,0.043209895,0.19514363,0.2825158,-9.9550905,-0.110133275
6.2418103,4.699188,0.03545537,0.043209895,0.19514363,0.2825158,-9.9550905,-0.110133275
6.2421436,4.6991873,0.040781688,0.043209895,0.2079268,0.320823,-9.959879,-0.16280572
6.242511,4.6991854,0.040781688,0.043209895,0.2079268,0.320823,-9.959879,-0.16280572
6.242803,4.699296,0.047173277,0.04427516,0.22177523,0.36870706,-9.921572,-0.10534488
6.2431126,4.699415,0.047173277,0.04427516,0.22177523,0.36870706,-9.921572,-0.10534488
6.2434187,4.699386,0.05356486,0.04427516,0.23349315,0.37828386,-9.873688,-0.14844051
6.243716,4.699353,0.05356486,0.04427516,0.23349315,0.37828386,-9.873688,-0.14844051
6.2440395,4.699334,0.05995645,0.043209895,0.2441458,0.37349546,-9.844957,-0.1436521
6.244353,4.69931,0.05995645,0.043209895,0.2441458,0.37349546,-9.844957,-0.1436521
6.2445126,4.699303,0.06528277,0.04214463,0.25479844,0.4261679,-9.835381,-0.16280572
6.244671,4.6992984,0.06528277,0.04214463,0.25479844,0.4261679,-9.835381,-0.16280572
6.244795,4.699357,0.07167436,0.040014103,0.26332054,0.4309563,-9.821015,-0.1340753
6.2449193,4.6994147,0.07167436,0.040014103,0.26332054,0.4309563,-9.821015,-0.1340753
6.245083,4.699426,0.074870154,0.037883572,0.2707774,0.46447513,-9.758766,-0.18195933
6.245247,4.6994386,0.074870154,0.037883572,0.2707774,0.46447513,-9.758766,-0.18195933
6.2454476,4.6994343,0.07806595,0.03681831,0.277169,0.46447513,-9.773131,-0.22984336
6.2456474,4.6994305,0.07806595,0.03681831,0.277169,0.46447513,-9.773131,-0.22984336
6.2458634,4.6994247,0.08019647,0.035753045,0.28356057,0.46447513,-9.749189,-0.25378537
6.246078,4.69942,0.08019647,0.035753045,0.28356057,0.46447513,-9.749189,-0.25378537
6.246305,4.699415,0.08339227,0.033622514,0.28995216,0.46447513,-9.763555,-0.272939
6.2465315,4.699411,0.08339227,0.033622514,0.28995216,0.46447513,-9.763555,-0.272939
6.246741,4.6994176,0.08445753,0.031491987,0.2942132,0.5410896,-9.768343,-0.29688102
6.246971,4.6994247,0.08445753,0.031491987,0.2942132,0.5410896,-9.768343,-0.29688102
6.2471404,4.699449,0.08552279,0.031491987,0.29847428,0.62728083,-9.768343,-0.272939
6.247322,4.6994753,0.08552279,0.031491987,0.29847428,0.62728083,-9.768343,-0.272939
6.2475004,4.6995173,0.08658806,0.032557253,0.3038006,0.6847417,-9.825804,-0.24899697
6.2476788,4.699559,0.08658806,0.032557253,0.3038006,0.6847417,-9.825804,-0.24899697
6.2478485,4.699624,0.08871859,0.035753045,0.30593112,0.78050977,-9.80665,-0.20590134
6.2480183,4.699689,0.08871859,0.035753045,0.30593112,0.78050977,-9.80665,-0.20590134
6.248186,4.6997623,0.09297965,0.04107937,0.30593112,0.80924016,-9.911995,-0.19632454
6.248354,4.699836,0.09297965,0.04107937,0.30593112,0.80924016,-9.911995,-0.19632454
6.248516,4.699925,0.09937123,0.047470953,0.30167007,0.9576807,-9.883265,-0.17717093
6.2486787,4.700014,0.09937123,0.047470953,0.30167007,0.9576807,-9.883265,-0.17717093
6.248831,4.7001357,0.10895862,0.057058334,0.28995216,1.5131354,-9.825804,-0.04309563
6.24898,4.700255,0.10895862,0.057058334,0.28995216,1.5131354,-9.825804,-0.04309563
6.249113,4.70039,0.118545994,0.06664571,0.2707774,1.6041151,-9.864111,0.0047884034
6.2492456,4.7005243,0.118545994,0.06664571,0.2707774,1.6041151,-9.864111,0.0047884034
6.249347,4.7006636,0.12387232,0.07836362,0.24094999,1.5227122,-9.868899,0.0047884034
6.2494497,4.7008038,0.12387232,0.07836362,0.24094999,1.5227122,-9.868899,0.0047884034
6.249521,4.7009406,0.12600285,0.100734174,0.21112259,1.460463,-9.821015,-0.05746084
6.249592,4.7010765,0.12600285,0.100734174,0.21112259,1.460463,-9.821015,-0.05746084
6.249633,4.7012053,0.122807056,0.13056158,0.18236046,1.3311762,-9.92636,-0.10055647
6.249674,4.701334,0.122807056,0.13056158,0.18236046,1.3311762,-9.92636,-0.10055647
6.2496843,4.701475,0.1153502,0.16145425,0.148272,1.388637,-10.0269165,0.04309563
6.249695,4.701616,0.1153502,0.16145425,0.148272,1.388637,-10.0269165,0.04309563
6.2496724,4.7017603,0.105762824,0.19128166,0.10992247,1.2976574,-10.113108,0.12928689
6.24965,4.7019053,0.105762824,0.19128166,0.10992247,1.2976574,-10.113108,0.12928689
6.2496047,4.7020664,0.09830597,0.22217433,0.06944242,1.2162545,-10.280702,0.32561144
6.2495594,4.702228,0.09830597,0.22217433,0.06944242,1.2162545,-10.280702,0.32561144
6.249472,4.7023892,0.091914386,0.24880594,0.023636047,1.1061212,-10.472239,0.31603462
6.249386,4.70255,0.091914386,0.24880594,0.023636047,1.1061212,-10.472239,0.31603462
6.2492633,4.7027164,0.087653324,0.2711765,-0.02323559,0.9672575,-10.6398325,0.33518824
6.249141,4.702883,0.087653324,0.2711765,-0.02323559,0.9672575,-10.6398325,0.33518824
6.24898,4.7030563,0.08871859,0.28822073,-0.06904196,0.80445176,-10.716447,0.2633622
6.248819,4.703229,0.08871859,0.28822073,-0.06904196,0.80445176,-10.716447,0.2633622
6.2486496,4.7034216,0.091914386,0.29993862,-0.11271781,0.61770403,-10.82658,0.31603462
6.248481,4.703614,0.091914386,0.29993862,-0.11271781,0.61770403,-10.82658,0.31603462
6.248286,4.7038174,0.0972407,0.3063302,-0.15532838,0.50278234,-10.965444,0.21547815
6.248091,4.70402,0.0972407,0.3063302,-0.15532838,0.50278234,-10.965444,0.21547815
6.2478943,4.704232,0.10363229,0.309526,-0.19261263,0.39264908,-11.003751,0.2633622
6.247698,4.704446,0.10363229,0.309526,-0.19261263,0.39264908,-11.003751,0.2633622
6.247504,4.704664,0.11215441,0.309526,-0.2235053,0.24899697,-11.032481,0.33039984
6.2473183,4.704875,0.11215441,0.309526,-0.2235053,0.24899697,-11.032481,0.33039984
6.2471347,4.7050924,0.12174179,0.3073955,-0.2512022,0.10055647,-11.104307,0.2777274
6.2469454,4.705317,0.12174179,0.3073955,-0.2512022,0.10055647,-11.104307,0.2777274
6.246765,4.705533,0.13239443,0.3031344,-0.2714422,0.02873042,-11.089942,0.21068975
6.246587,4.7057476,0.13239443,0.3031344,-0.2714422,0.02873042,-11.089942,0.21068975
6.2464113,4.705963,0.14624287,0.29567757,-0.28529066,-0.01436521,-11.018116,0.1436521
6.246236,4.706178,0.14624287,0.29567757,-0.28529066,-0.01436521,-11.018116,0.1436521
6.246064,4.7063856,0.16009131,0.28822073,-0.29913908,-0.12449849,-10.941502,0.08140286
6.245893,4.7065926,0.16009131,0.28822073,-0.29913908,-0.12449849,-10.941502,0.08140286
6.2457047,4.7068157,0.17393975,0.27756807,-0.3140528,-0.1436521,-10.817003,0.10534488
6.2455173,4.7070384,0.17393975,0.27756807,-0.3140528,-0.1436521,-10.817003,0.10534488
6.245328,4.707254,0.18672292,0.26691544,-0.32470542,-0.11492168,-10.630256,0.01436521
6.245139,4.707469,0.18672292,0.26691544,-0.32470542,-0.11492168,-10.630256,0.01436521
6.2449436,4.7076783,0.19950609,0.25839332,-0.3342928,-0.22984336,-10.443508,-0.05267244
6.2449436,4.7076783,0.19950609,0.25839332,-0.3342928,-0.22984336,-10.443508,-0.05267244
6.2449436,4.7076783,0.20589767,0.24774067,-0.347076,-0.33518824,-10.237606,-0.090979666
6.244309,4.708308,0.20589767,0.24774067,-0.347076,-0.33518824,-10.237606,-0.090979666
6.244309,4.708308,0.20589767,0.24774067,-0.347076,-0.33518824,-10.237606,-0.090979666
6.2438507,4.708706,0.21015874,0.23602276,-0.35772863,-0.36391866,-10.108319,-0.18674773
6.2436314,4.708877,0.21335453,0.22217433,-0.36838126,-0.45968673,-9.993398,-0.272939
6.2433853,4.7090697,0.21335453,0.22217433,-0.36838126,-0.45968673,-9.993398,-0.272939
6.2431397,4.7092505,0.21335453,0.20726062,-0.37903392,-0.51714754,-9.888053,-0.29688102
6.2428885,4.7094364,0.21335453,0.20726062,-0.37903392,-0.51714754,-9.888053,-0.29688102
6.2426367,4.709594,0.21228927,0.19341218,-0.38436025,-0.49320555,-9.801862,-0.4309563
6.2423725,4.7097588,0.21228927,0.19341218,-0.38436025,-0.49320555,-9.801862,-0.4309563
6.2423725,4.7097588,0.20802821,0.18062901,-0.38649076,-0.545878,-9.797073,-0.46447513
6.241837,4.7100787,0.20802821,0.18062901,-0.38649076,-0.545878,-9.797073,-0.46447513
6.241567,4.710232,0.20270188,0.1689111,-0.38968655,-0.5746084,-9.797073,-0.48362875
6.2412944,4.7103863,0.20270188,0.1689111,-0.38968655,-0.5746084,-9.797073,-0.48362875
6.2410145,4.7105265,0.1963103,0.15612793,-0.39288235,-0.641646,-9.782708,-0.59855044
6.2407346,4.710667,0.1963103,0.15612793,-0.39288235,-0.641646,-9.782708,-0.59855044
6.240452,4.7107983,0.18885344,0.14334476,-0.3918171,-0.6607997,-9.77792,-0.641646
6.2401714,4.7109284,0.18885344,0.14334476,-0.3918171,-0.6607997,-9.77792,-0.641646
6.239889,4.711047,0.18246186,0.12949632,-0.38968655,-0.62249243,-9.854534,-0.6895301
6.239606,4.711167,0.18246186,0.12949632,-0.38968655,-0.62249243,-9.854534,-0.6895301
6.2393193,4.7112746,0.17607027,0.11245208,-0.38649076,-0.5410896,-9.830592,-0.7182605
6.239033,4.711383,0.17607027,0.11245208,-0.38649076,-0.5410896,-9.830592,-0.7182605
6.2387147,4.7114754,0.16967869,0.09434259,-0.38436025,-0.39743748,-9.801862,-0.89543146
6.2384233,4.7115607,0.16967869,0.09434259,-0.38436025,-0.39743748,-9.801862,-0.89543146
6.2381024,4.711636,0.16435237,0.07516783,-0.38329497,-0.18195933,-9.787497,-0.92416185
6.2377815,4.711712,0.16435237,0.07516783,-0.38329497,-0.18195933,-9.787497,-0.92416185
6.2374325,4.7117763,0.16009131,0.05173201,-0.3886213,0.009576807,-9.888053,-1.0965444
6.237084,4.7118406,0.16009131,0.05173201,-0.3886213,0.009576807,-9.888053,-1.0965444
6.2366915,4.711896,0.15583025,0.030426722,-0.39820868,0.39264908,-9.883265,-1.1731589
6.236299,4.7119513,0.15583025,0.030426722,-0.39820868,0.39264908,-9.883265,-1.1731589
6.2358656,4.7120028,0.15263446,0.008056169,-0.4131224,0.7278373,-9.911995,-1.3551182
6.2354326,4.7120543,0.15263446,0.008056169,-0.4131224,0.7278373,-9.911995,-1.3551182
6.23495,4.7121053,0.14943866,-0.014314385,-0.43762347,1.1587936,-10.041282,-1.4317327
6.2344666,4.7121563,0.14943866,-0.014314385,-0.43762347,1.1587936,-10.041282,-1.4317327
6.233928,4.712205,0.14198181,-0.035619672,-0.47064665,1.5705963,-10.103531,-1.4556746
6.23339,4.7122536,0.14198181,-0.035619672,-0.47064665,1.5705963,-10.103531,-1.4556746
6.2327914,4.7122984,0.1334597,-0.054794434,-0.5153878,1.9488802,-10.1226845,-1.4891934
6.2321935,4.712343,0.1334597,-0.054794434,-0.5153878,1.9488802,-10.1226845,-1.4891934
6.2315254,4.7123804,0.12174179,-0.07183866,-0.5750426,2.327164,-10.108319,-1.5705963
6.2308574,4.712417,0.12174179,-0.07183866,-0.5750426,2.327164,-10.108319,-1.5705963
6.230112,4.7124414,0.106828086,-0.08781763,-0.64748055,2.6431987,-10.0269165,-1.6950948
6.229367,4.7124643,0.106828086,-0.08781763,-0.64748055,2.6431987,-10.0269165,-1.6950948
6.2285256,4.7124753,0.08658806,-0.09953554,-0.73163646,3.0933087,-10.060435,-1.6232687
6.227684,4.7124863,0.08658806,-0.09953554,-0.73163646,3.0933087,-10.060435,-1.6232687
6.22674,4.7124724,0.05995645,-0.108057655,-0.82751024,3.4620156,-10.0748005,-1.7190368
6.2257614,4.712458,0.05995645,-0.108057655,-0.82751024,3.4620156,-10.0748005,-1.7190368
6.2247276,4.7124205,0.030129045,-0.106992394,-0.9287104,3.763685,-10.1226845,-1.661576
6.2237053,4.7123823,0.030129045,-0.106992394,-0.9287104,3.763685,-10.1226845,-1.661576
6.2225437,4.712312,-0.0050246827,-0.10060081,-1.0405631,4.074931,-10.199299,-1.6759412
6.2213836,4.712242,-0.0050246827,-0.10060081,-1.0405631,4.074931,-10.199299,-1.6759412
6.2201023,4.712139,-0.041243672,-0.08994816,-1.156677,4.4101195,-10.261548,-1.6903064
6.218821,4.7120357,-0.041243672,-0.08994816,-1.156677,4.4101195,-10.261548,-1.6903064
6.2174144,4.7118964,-0.0795932,-0.07609972,-1.2802477,4.841076,-10.237606,-1.8052281
6.2160077,4.711757,-0.0795932,-0.07609972,-1.2802477,4.841076,-10.237606,-1.8052281
6.2144694,4.7115803,-0.120073244,-0.05692496,-1.4123404,5.33907,-10.34774,-1.934515
6.2129283,4.7114024,-0.120073244,-0.05692496,-1.4123404,5.33907,-10.34774,-1.934515
6.211247,4.7111816,-0.16481435,-0.03455441,-1.5550859,5.9041014,-10.429143,-2.1452048
6.2095637,4.7109613,-0.16481435,-0.03455441,-1.5550859,5.9041014,-10.429143,-2.1452048
6.207713,4.71069,-0.21594705,-0.0047270046,-1.7148756,6.363788,-10.572795,-2.3319526
6.205876,4.7104206,-0.21594705,-0.0047270046,-1.7148756,6.363788,-10.572795,-2.3319526
6.203854,4.710098,-0.27240607,0.028296193,-1.8927747,6.9479733,-10.658986,-2.4995465
6.2018323,4.7097745,-0.27240607,0.028296193,-1.8927747,6.9479733,-10.658986,-2.4995465
6.1996117,4.709394,-0.33525667,0.062384658,-2.0898485,7.6853876,-10.596737,-2.60968
6.197393,4.709014,-0.33525667,0.062384658,-2.0898485,7.6853876,-10.596737,-2.60968
6.1949477,4.7085724,-0.4034336,0.09860365,-2.3103583,8.456321,-10.563218,-2.6431987
6.1925073,4.708131,-0.4034336,0.09860365,-2.3103583,8.456321,-10.563218,-2.6431987
6.189812,4.7076254,-0.47587156,0.14227949,-2.5606954,9.131485,-10.539276,-2.5570073
6.187117,4.7071204,-0.47587156,0.14227949,-2.5606954,9.131485,-10.539276,-2.5570073
6.1841426,4.7065477,-0.5536359,0.19660798,-2.8387296,9.653421,-10.477027,-2.384625
6.181165,4.705975,-0.5536359,0.19660798,-2.8387296,9.653421,-10.477027,-2.384625
6.1778903,4.7053347,-0.63353074,0.26052386,-3.138069,10.022128,-10.395624,-2.1452048
6.174615,4.7046947,-0.63353074,0.26052386,-3.138069,10.022128,-10.395624,-2.1452048
6.171023,4.7039857,-0.7176866,0.32976604,-3.4576483,10.247183,-10.419566,-1.8004397
6.1674266,4.703276,-0.7176866,0.32976604,-3.4576483,10.247183,-10.419566,-1.8004397
6.1634955,4.7024927,-0.8050383,0.40966088,-3.7878802,10.611102,-10.5919485,-1.5658079
6.159572,4.7017126,-0.8050383,0.40966088,-3.7878802,10.611102,-10.5919485,-1.5658079
6.1553,4.70086,-0.89238995,0.5044694,-4.126634,10.965444,-10.869676,-1.3263878
6.1510324,4.70001,-0.89238995,0.5044694,-4.126634,10.965444,-10.869676,-1.3263878
6.146421,4.699091,-0.98080695,0.6184527,-4.472845,11.21444,-11.166556,-1.1827357
6.141791,4.6981707,-0.98080695,0.6184527,-4.472845,11.21444,-11.166556,-1.1827357
6.136827,4.697193,-1.0660281,0.75587183,-4.827578,11.104307,-11.60709,-1.0247183
6.131852,4.6962166,-1.0660281,0.75587183,-4.827578,11.104307,-11.60709,-1.0247183
6.1265125,4.6951847,-1.1523145,0.9156615,-5.1897683,11.089942,-12.038046,-0.7134721
6.121166,4.6941566,-1.1523145,0.9156615,-5.1897683,11.089942,-12.038046,-0.7134721
6.115362,4.693063,-1.2396662,1.0924954,-5.5583496,10.936713,-12.473791,-0.29209262
6.1097403,4.6920085,-1.2396662,1.0924954,-5.5583496,10.936713,-12.473791,-0.29209262
6.103651,4.690893,-1.3270179,1.279982,-5.930127,10.821792,-13.086706,0.08140286
6.0975547,4.689783,-1.3270179,1.279982,-5.930127,10.821792,-13.086706,0.08140286
6.0911,4.6886396,-1.4154348,1.4759905,-6.310426,10.7356,-13.603854,0.5746084
6.0846186,4.6874995,-1.4154348,1.4759905,-6.310426,10.7356,-13.603854,0.5746084
6.0777545,4.6863294,-1.5027865,1.6719992,-6.6971173,10.386047,-14.140155,1.0869676
6.0708885,4.6851687,-1.5027865,1.6719992,-6.6971173,10.386047,-14.140155,1.0869676
6.0636263,4.683982,-1.5880077,1.8637469,-7.0923305,9.868899,-14.709975,1.4987702
6.056362,4.6828065,-1.5880077,1.8637469,-7.0923305,9.868899,-14.709975,1.4987702
6.0487056,4.681617,-1.6636415,2.045907,-7.484348,9.260772,-15.346833,1.7812861
6.041048,4.680441,-1.6636415,2.045907,-7.484348,9.260772,-15.346833,1.7812861
6.033003,4.6792626,-1.726492,2.2174146,-7.8699737,8.580819,-15.95496,1.7812861
6.0249567,4.6781006,-1.726492,2.2174146,-7.8699737,8.580819,-15.95496,1.7812861
6.016541,4.6769505,-1.77869,2.3740084,-8.243881,7.7811556,-16.725893,1.733402
6.0081253,4.6758184,-1.77869,2.3740084,-8.243881,7.7811556,-16.725893,1.733402
5.999377,4.6747136,-1.8181047,2.5135581,-8.597549,7.043741,-17.472883,1.6232687
5.990621,4.673628,-1.8181047,2.5135581,-8.597549,7.043741,-17.472883,1.6232687
5.98158,4.672588,-1.8394101,2.6392593,-8.925651,6.133945,-18.282124,1.4317327
5.972517,4.671566,-1.8394101,2.6392593,-8.925651,6.133945,-18.282124,1.4317327
5.9632173,4.6705894,-1.846867,2.750047,-9.228186,5.3582234,-19.057846,1.1252748
5.953923,4.669633,-1.846867,2.750047,-9.228186,5.3582234,-19.057846,1.1252748
5.9444084,4.6687107,-1.8404753,2.8405943,-9.501959,4.3239284,-19.838356,0.94331545
5.934885,4.6678085,-1.8404753,2.8405943,-9.501959,4.3239284,-19.838356,0.94331545
5.9251313,4.666963,-1.8159742,2.9140975,-9.741643,3.2561142,-20.671537,1.0869676
5.915367,4.66614,-1.8159742,2.9140975,-9.741643,3.2561142,-20.671537,1.0869676
5.905421,4.665396,-1.7701678,2.9705567,-9.936586,2.1547816,-21.38022,1.1109096
5.8954735,4.6646776,-1.7701678,2.9705567,-9.936586,2.1547816,-21.38022,1.1109096
5.885381,4.6640587,-1.6998605,3.0089061,-10.083593,0.8858546,-21.95483,0.9576807
5.8752975,4.6634665,-1.6998605,3.0089061,-10.083593,0.8858546,-21.95483,0.9576807
5.8651166,4.6629925,-1.6071824,3.0248852,-10.181598,-0.24420857,-22.385786,0.7326257
5.854904,4.662545,-1.6071824,3.0248852,-10.181598,-0.24420857,-22.385786,0.7326257
5.844661,4.6622276,-1.4974601,3.0099714,-10.23273,-0.90021986,-22.682667,0.7182605
5.834438,4.66194,-1.4974601,3.0099714,-10.23273,-0.90021986,-22.682667,0.7182605
5.824169,4.661784,-1.3706937,2.9630997,-10.239121,-1.283292,-22.88378,0.6703765
5.813931,4.6616583,-1.3706937,2.9630997,-10.239121,-1.283292,-22.88378,0.6703765
5.803723,4.6616697,-1.2300788,2.8906617,-10.200772,-1.5035586,-23.013067,0.8762778
5.7935147,4.6617117,-1.2300788,2.8906617,-10.200772,-1.5035586,-23.013067,0.8762778
5.7833576,4.6618896,-1.0766808,2.7894616,-10.132595,-1.5897499,-23.171083,1.2258313
5.7732215,4.662098,-1.0766808,2.7894616,-10.132595,-1.5897499,-23.171083,1.2258313
5.7631817,4.662438,-0.90623844,2.6605647,-10.033525,-1.5945383,-23.338678,1.1971009
5.753132,4.6628084,-0.90623844,2.6605647,-10.033525,-1.5945383,-23.338678,1.1971009
5.7432346,4.663309,-0.72194767,2.5135581,-9.91102,-1.4891934,-23.262064,0.9911995
5.733338,4.6638393,-0.72194767,2.5135581,-9.91102,-1.4891934,-23.262064,0.9911995
5.723597,4.6644893,-0.5355264,2.3537686,-9.766145,-0.9911995,-23.017855,0.6512229
5.7138376,4.66517,-0.5355264,2.3537686,-9.766145,-0.9911995,-23.017855,0.6512229
5.704283,4.6659594,-0.35123563,2.1886525,-9.60955,-0.40222588,-22.720974,0.46926352
5.6947117,4.6667786,-0.35123563,2.1886525,-9.60955,-0.40222588,-22.720974,0.46926352
5.685309,4.6677055,-0.16801015,2.0235364,-9.448695,-0.033518825,-22.385786,0.5793968
5.675908,4.6686606,-0.16801015,2.0235364,-9.448695,-0.033518825,-22.385786,0.5793968
5.6666794,4.6697125,0.00988902,1.8648121,-9.28571,0.06703765,-21.605276,0.32561144
5.657351,4.670804,0.00988902,1.8648121,-9.28571,0.06703765,-21.605276,0.32561144
5.6483345,4.671977,0.18246186,1.707153,-9.116333,0.46447513,-21.179108,0.91937345
5.639347,4.6731725,0.18246186,1.707153,-9.116333,0.46447513,-21.179108,0.91937345
5.6299963,4.6745214,0.34438205,1.5484285,-8.944825,1.1731589,-20.594923,0.90500826
5.621597,4.6757574,0.34438205,1.5484285,-8.944825,1.1731589,-20.594923,0.90500826
5.612921,4.6771417,0.50949806,1.4056832,-8.767991,1.5658079,-19.436129,0.58897364
5.6042385,4.6785517,0.50949806,1.4056832,-8.767991,1.5658079,-19.436129,0.58897364
5.595748,4.680042,0.6671572,1.2746556,-8.582636,1.8435353,-18.732235,0.4165911
5.5872593,4.6815557,0.6671572,1.2746556,-8.582636,1.8435353,-18.732235,0.4165911
5.57888,4.683153,0.80883735,1.155346,-8.39728,2.408567,-17.72667,0.1436521
5.570336,4.684808,0.80883735,1.155346,-8.39728,2.408567,-17.72667,0.1436521
5.5623198,4.686451,0.93773437,1.046689,-8.222576,3.2321723,-16.73547,-0.19153613
5.554346,4.688109,0.93773437,1.046689,-8.222576,3.2321723,-16.73547,-0.19153613
5.546454,4.6898193,1.0463914,0.9465542,-8.064917,4.1276035,-15.753847,-0.60812724
5.546454,4.6898193,1.0463914,0.9465542,-8.064917,4.1276035,-15.753847,-0.60812724
5.5292583,4.6936927,1.1326778,0.85920244,-7.931759,4.865018,-14.762648,-0.8475474
5.5228324,4.6951685,1.1326778,0.85920244,-7.931759,4.865018,-14.762648,-0.8475474
5.514776,4.6970515,1.1976589,0.7867645,-7.8284283,5.5880666,-13.809755,-1.0821792
5.5062594,4.69907,1.1976589,0.7867645,-7.8284283,5.5880666,-13.809755,-1.0821792
5.4998407,4.7005982,1.2413347,0.7281749,-7.7591863,6.1243677,-12.832921,-1.340753
5.4900727,4.702956,1.2413347,0.7281749,-7.7591863,6.1243677,-12.832921,-1.340753
5.484359,4.7043214,1.2605095,0.68023807,-7.7208366,6.6175733,-12.014104,-1.6280571
5.4758654,4.706377,1.2605095,0.68023807,-7.7208366,6.6175733,-12.014104,-1.6280571
5.4693213,4.7079315,1.2562485,0.64401907,-7.717641,7.1059904,-11.271901,-1.6519991
5.4619656,4.7097015,1.2562485,0.64401907,-7.717641,7.1059904,-11.271901,-1.6519991
5.4543705,4.711487,1.2328126,0.61632216,-7.7410765,7.369353,-10.821792,-1.5753847
5.4467473,4.7133055,1.2328126,0.61632216,-7.7410765,7.369353,-10.821792,-1.5753847
5.4390793,4.715082,1.1965936,0.5971474,-7.7890134,7.469909,-10.299856,-1.5753847
5.431413,4.7168856,1.1965936,0.5971474,-7.7890134,7.469909,-10.299856,-1.5753847
5.4236717,4.718655,1.149722,0.5854295,-7.8561254,7.656657,-9.964667,-1.436521
5.4159327,4.7204533,1.149722,0.5854295,-7.8561254,7.656657,-9.964667,-1.436521
5.408075,4.722231,1.0964588,0.58010316,-7.9381504,7.5225816,-9.56723,-1.3072342
5.4002275,4.724037,1.0964588,0.58010316,-7.9381504,7.5225816,-9.56723,-1.3072342
5.3912916,4.72604,1.0378692,0.5790379,-8.030828,7.441179,-9.155427,-1.1923125
5.3843985,4.727614,1.0378692,0.5790379,-8.030828,7.441179,-9.155427,-1.1923125
5.3764095,4.729388,0.9750186,0.583299,-8.132029,7.177817,-8.781932,-1.1587936
5.368407,4.731201,0.9750186,0.583299,-8.132029,7.177817,-8.781932,-1.1587936
5.360309,4.7330127,0.9089722,0.5950169,-8.235359,6.9240313,-8.623915,-0.9720459
5.3522053,4.7348633,0.9089722,0.5950169,-8.235359,6.9240313,-8.623915,-0.9720459
5.344021,4.7367325,0.83973,0.6216485,-8.34082,6.622362,-8.451532,-0.770933
5.3358293,4.738644,0.83973,0.6216485,-8.34082,6.622362,-8.451532,-0.770933
5.327541,4.740628,0.7715531,0.675977,-8.445216,5.6790466,-8.09719,-0.59855044
5.319247,4.7426596,0.7715531,0.675977,-8.445216,5.6790466,-8.09719,-0.59855044
5.3108635,4.744798,0.7023109,0.76119816,-8.547482,4.247314,-7.642292,-0.6991069
5.302482,4.746991,0.7023109,0.76119816,-8.547482,4.247314,-7.642292,-0.6991069
5.2940283,4.749328,0.63306874,0.8698551,-8.64229,2.743755,-7.1969705,-0.9816227
5.2857203,4.7516856,0.63306874,0.8698551,-8.64229,2.743755,-7.1969705,-0.9816227
5.277174,4.7542615,0.56063074,0.98383844,-8.725381,1.5562311,-6.885724,-1.2162545
5.2684608,4.756966,0.56063074,0.98383844,-8.725381,1.5562311,-6.885724,-1.2162545
5.259862,4.759794,0.48180118,1.0861038,-8.797819,0.8331822,-6.847417,-1.2018893
5.2512927,4.762701,0.48180118,1.0861038,-8.797819,0.8331822,-6.847417,-1.2018893
5.24262,4.765777,0.3976453,1.159607,-8.872388,0.21068975,-6.8330517,-0.8714894
5.2339005,4.768974,0.3976453,1.159607,-8.872388,0.21068975,-6.8330517,-0.8714894
5.225156,4.7722735,0.31775045,1.1979566,-8.9629345,-0.11492168,-6.694188,-0.4165911
5.2164164,4.7756877,0.31775045,1.1979566,-8.9629345,-0.11492168,-6.694188,-0.4165911
5.2075534,4.7791924,0.25276932,1.1894344,-9.06733,-0.4357447,-6.4787097,0.272939
5.198715,4.7828193,0.25276932,1.1894344,-9.06733,-0.4357447,-6.4787097,0.272939
5.189741,4.7864585,0.20589767,1.1297797,-9.1898365,-0.7086837,-6.167464,0.6895301
5.1807203,4.790262,0.20589767,1.1297797,-9.1898365,-0.7086837,-6.167464,0.6895301
5.1716013,4.793971,0.17820081,1.0200574,-9.333647,-1.532289,-5.9041014,0.7757214
5.162552,4.7978053,0.17820081,1.0200574,-9.333647,-1.532289,-5.9041014,0.7757214
5.1532364,4.801526,0.16435237,0.86239827,-9.498763,-1.8818425,-5.554548,0.79487497
5.1439548,4.805398,0.16435237,0.86239827,-9.498763,-1.8818425,-5.554548,0.79487497
5.134481,4.8090587,0.15689552,0.67491174,-9.676662,-2.183512,-5.2720323,0.79008657
5.1250415,4.812878,0.15689552,0.67491174,-9.676662,-2.183512,-5.2720323,0.79008657
5.1153626,4.816463,0.15476498,0.46931568,-9.859887,-2.4229321,-5.046977,0.90979666
5.105708,4.8202186,0.15476498,0.46931568,-9.859887,-2.4229321,-5.046977,0.90979666
5.0958242,4.8236985,0.15689552,0.253067,-10.049504,-2.528277,-5.00867,1.0199299
5.085966,4.8273563,0.15689552,0.253067,-10.049504,-2.528277,-5.00867,1.0199299
5.0758653,4.830741,0.16861342,0.035753045,-10.246578,-2.743755,-4.644751,1.2976574
5.0657783,4.8343134,0.16861342,0.035753045,-10.246578,-2.743755,-4.644751,1.2976574
5.055459,4.837568,0.18565765,-0.19114828,-10.454305,-2.7868507,-4.7070007,1.5945383
5.0451527,4.841019,0.18565765,-0.19114828,-10.454305,-2.7868507,-4.7070007,1.5945383
5.0346055,4.844127,0.21228927,-0.4180496,-10.65564,-3.347094,-4.3622355,1.6376339
5.0240607,4.8474426,0.21228927,-0.4180496,-10.65564,-3.347094,-4.3622355,1.6376339
5.0132904,4.8503704,0.24637774,-0.64814675,-10.846322,-4.367024,-4.209007,1.757344
5.002523,4.853511,0.24637774,-0.64814675,-10.846322,-4.367024,-4.209007,1.757344
4.991544,4.8561554,0.283662,-0.8984839,-11.018895,-5.243302,-3.8881836,2.054225
4.980565,4.859007,0.283662,-0.8984839,-11.018895,-5.243302,-3.8881836,2.054225
4.969405,4.8612127,0.32733783,-1.1658653,-11.15738,-6.0285997,-3.3614593,2.1404164
4.9582458,4.8636055,0.32733783,-1.1658653,-11.15738,-6.0285997,-3.3614593,2.1404164
4.946951,4.8651643,0.3731442,-1.4438993,-11.243666,-7.0341644,-2.681506,2.2122424
4.9356556,4.8668623,0.3731442,-1.4438993,-11.243666,-7.0341644,-2.681506,2.2122424
4.924279,4.8674736,0.42214635,-1.7315207,-11.274559,-8.418014,-1.9632454,2.231396
4.912901,4.868129,0.42214635,-1.7315207,-11.274559,-8.418014,-1.9632454,2.231396
4.9015064,4.8673143,0.4754096,-2.0297947,-11.234078,-9.931149,-0.8619126,2.1547816
4.8902507,4.8663774,0.4754096,-2.0297947,-11.234078,-9.931149,-0.8619126,2.1547816
4.878893,4.863365,0.5318686,-2.3397868,-11.106247,-11.27669,0.4165911,1.8531121
4.8674364,4.859838,0.5318686,-2.3397868,-11.106247,-11.27669,0.4165911,1.8531121
4.8562794,4.853379,0.58832765,-2.662562,-10.887868,-12.3876,1.8579005,1.3934253
4.8452067,4.8458357,0.58832765,-2.662562,-10.887868,-12.3876,1.8579005,1.3934253
4.834324,4.8338275,0.6362645,-2.993859,-10.581072,-12.938266,3.2321723,0.60812724
4.8233957,4.8193007,0.6362645,-2.993859,-10.581072,-12.938266,3.2321723,0.60812724
4.812933,4.7979956,0.6767446,-3.3347437,-10.1933155,-12.717999,4.43885,-0.17717093
4.802517,4.771639,0.6767446,-3.3347437,-10.1933155,-12.717999,4.43885,-0.17717093
4.792601,4.7338395,0.7044414,-3.6766937,-9.737382,-11.415554,5.482722,-0.7326257
4.782857,4.6854687,0.7044414,-3.6766937,-9.737382,-11.415554,5.482722,-0.7326257
4.7738333,4.6168594,0.7150941,-4.0111866,-9.239903,-9.457097,6.2728086,-0.93373865
4.7651625,4.524598,0.7150941,-4.0111866,-9.239903,-9.457097,6.2728086,-0.93373865
4.7577286,4.3951273,0.7150941,-4.3179827,-8.722185,-7.0581064,6.9383965,-0.89543146
4.7513776,4.2207327,0.7150941,-4.3179827,-8.722185,-7.0581064,6.9383965,-0.89543146
4.747167,3.9905102,0.70976776,-4.578973,-8.204467,-4.5394063,7.2065473,-0.79966336
4.7452145,3.7161932,0.70976776,-4.578973,-8.204467,-4.5394063,7.2065473,-0.79966336
4.746257,3.4440618,0.70124567,-4.78883,-7.703792,-1.8962077,7.326257,-0.7374141
4.749584,3.2041416,0.70124567,-4.78883,-7.703792,-1.8962077,7.326257,-0.7374141
4.7547646,3.0238113,0.68739724,-4.947554,-7.2297497,0.6943185,7.302315,-0.6607997
4.761014,2.8862562,0.68739724,-4.947554,-7.2297497,0.6943185,7.302315,-0.6607997
4.7679176,2.7893438,0.6682224,-5.0551457,-6.7951217,3.3279405,7.0964136,-0.47884035
4.7752314,2.7144883,0.6682224,-5.0551457,-6.7951217,3.3279405,7.0964136,-0.47884035
4.7827525,2.6603334,0.650113,-5.1116047,-6.405235,5.645528,6.919243,-0.40701428
4.790609,2.6159937,0.650113,-5.1116047,-6.405235,5.645528,6.919243,-0.40701428
4.798113,2.5844762,0.6320035,-5.1190615,-6.055828,7.3166804,6.6367273,-0.40701428
4.805669,2.5581813,0.6320035,-5.1190615,-6.055828,7.3166804,6.6367273,-0.40701428
4.813009,2.5383847,0.6192203,-5.0807123,-5.7394447,7.819463,6.483498,-0.7422025
4.820551,2.5209706,0.6192203,-5.0807123,-5.7394447,7.819463,6.483498,-0.7422025
4.827853,2.507548,0.60537183,-5.008274,-5.4486275,9.270349,5.9424086,-0.8331822
4.8352256,2.4956813,0.60537183,-5.008274,-5.4486275,9.270349,5.9424086,-0.8331822
4.842353,2.4864097,0.59684974,-4.9092045,-5.1769853,9.959879,5.5976434,-1.1204864
4.8494897,2.4781313,0.59684974,-4.9092045,-5.1769853,9.959879,5.5976434,-1.1204864
4.856354,2.4716163,0.59471923,-4.7792425,-4.911734,10.323798,5.3103395,-1.4173675
4.8632665,2.4656832,0.59471923,-4.7792425,-4.911734,10.323798,5.3103395,-1.4173675
4.869866,2.4610333,0.5957845,-4.6290402,-4.6507444,10.601525,5.118803,-1.6950948
4.876509,2.456752,0.5957845,-4.6290402,-4.6507444,10.601525,5.118803,-1.6950948
4.8828535,2.453448,0.5957845,-4.4660544,-4.3918853,9.208099,4.88896,-1.9057846
4.8891993,2.4503982,0.5957845,-4.4660544,-4.3918853,9.208099,4.88896,-1.9057846
4.895238,2.4480643,0.59471923,-4.3094606,-4.1383524,10.323798,4.855441,-1.8243817
4.9011216,2.445947,0.59471923,-4.3094606,-4.1383524,10.323798,4.855441,-1.8243817
4.9068866,2.444488,0.597915,-4.152867,-3.8773625,9.931149,4.8841715,-2.231396
4.912877,2.4430742,0.597915,-4.152867,-3.8773625,9.931149,4.8841715,-2.231396
4.9183407,2.4422643,0.6032413,-3.9728372,-3.5993283,10.376471,5.085284,-2.3080103
4.9237833,2.44151,0.6032413,-3.9728372,-3.5993283,10.376471,5.085284,-2.3080103
4.9288797,2.4411485,0.6043066,-3.7768285,-3.3149028,11.314998,5.070919,-1.8435353
4.9340243,2.4408114,0.6043066,-3.7768285,-3.3149028,11.314998,5.070919,-1.8435353
4.9387693,2.4408107,0.6064371,-3.5552535,-3.0358036,11.085154,5.0661306,-1.8291701
4.943542,2.4408178,0.6064371,-3.5552535,-3.0358036,11.085154,5.0661306,-1.8291701
4.9479303,2.4410567,0.6064371,-3.311308,-2.7609653,11.056423,5.463568,-1.8148049
4.9523206,2.4412947,0.6064371,-3.311308,-2.7609653,11.056423,5.463568,-1.8148049
4.956335,2.4417017,0.6021761,-3.0609708,-2.493584,10.960655,5.779603,-1.7717092
4.960371,2.4421058,0.6021761,-3.0609708,-2.493584,10.960655,5.779603,-1.7717092
4.9640274,2.4426222,0.59045815,-2.8095684,-2.2389855,10.654198,5.9519854,-1.7381904
4.9677052,2.4431338,0.59045815,-2.8095684,-2.2389855,10.654198,5.9519854,-1.7381904
4.9710245,2.4437168,0.57447916,-2.5571005,-1.9961053,10.362105,6.143522,-1.7908629
4.9743423,2.4442909,0.57447916,-2.5571005,-1.9961053,10.362105,6.143522,-1.7908629
4.9773097,2.4448903,0.55423915,-2.3014371,-1.7638777,10.19451,6.2488666,-1.8435353
4.9802933,2.4454846,0.55423915,-2.3014371,-1.7638777,10.19451,6.2488666,-1.8435353
4.982936,2.4460826,0.5318686,-2.0447085,-1.5412375,9.792285,6.3446345,-2.0111294
4.9855757,2.4466724,0.5318686,-2.0447085,-1.5412375,9.792285,6.3446345,-2.0111294
4.987873,2.4472208,0.5084328,-1.7858492,-1.326054,10.156203,6.229713,-1.9440918
4.9901705,2.4477644,0.5084328,-1.7858492,-1.326054,10.156203,6.229713,-1.9440918
4.992137,2.4482715,0.47967064,-1.5259247,-1.1161969,9.02614,6.143522,-1.982399
4.994112,2.448775,0.47967064,-1.5259247,-1.1161969,9.02614,6.143522,-1.982399
4.995747,2.4492311,0.44984323,-1.2723917,-0.90847033,8.810662,5.770026,-1.8626889
4.997392,2.449686,0.44984323,-1.2723917,-0.90847033,8.810662,5.770026,-1.8626889
4.998728,2.4501376,0.42321163,-1.0422946,-0.71139646,7.656657,6.14831,-1.7286136
5.0000696,2.4505897,0.42321163,-1.0422946,-0.71139646,7.656657,6.14831,-1.7286136
5.001145,2.451211,0.39018843,-0.8175238,-0.5153878,0.5267244,4.865018,-2.5713725
5.002222,2.4518304,0.39018843,-0.8175238,-0.5153878,0.5267244,4.865018,-2.5713725
5.0030384,2.4523556,0.36994842,-0.705671,-0.36518547,14.595054,7.929596,-1.6280571
5.0038595,2.4528816,0.36994842,-0.705671,-0.36518547,14.595054,7.929596,-1.6280571
5.0045247,2.45352,0.33266416,-0.57570875,-0.21391793,9.873688,7.1347213,-2.432509
5.0051928,2.4541593,0.33266416,-0.57570875,-0.21391793,9.873688,7.1347213,-2.432509
5.005506,2.454575,0.26661775,-0.29128313,-0.029627176,11.286267,6.71813,-2.0973208
5.0058193,2.45499,0.26661775,-0.29128313,-0.029627176,11.286267,6.71813,-2.0973208
5.005807,2.4551554,0.20589767,0.011251962,0.13761935,10.232818,6.1195793,-2.3942018
5.005807,2.4551554,0.20589767,0.011251962,0.13761935,10.232818,6.1195793,-2.3942018
5.005807,2.4551554,0.20589767,0.011251962,0.13761935,10.232818,6.1195793,-2.3942018
5.005807,2.4551554,0.20589767,0.011251962,0.13761935,10.232818,6.1195793,-2.3942018
5.002882,2.454036,0.105762824,0.603539,0.48276502,7.3789296,5.827487,-2.3223755
5.00245,2.4538682,0.105762824,0.603539,0.48276502,7.3789296,5.827487,-2.3223755
5.001417,2.453461,0.055695392,0.8197877,0.6446852,6.991069,5.3342814,-1.8100165
5.000475,2.4530878,0.055695392,0.8197877,0.6446852,6.991069,5.3342814,-1.8100165
4.999266,2.4526937,0.0141500775,0.9987521,0.8002138,5.6646814,5.070919,-1.6807296
4.9981465,2.452326,0.0141500775,0.9987521,0.8002138,5.6646814,5.070919,-1.6807296
4.9967723,2.4519958,-0.014612063,1.1287143,0.941894,5.142745,5.0661306,-1.4987702
4.9953537,2.451652,-0.014612063,1.1287143,0.941894,5.142745,5.0661306,-1.4987702
4.993704,2.4514337,-0.03059103,1.2086092,1.0675952,4.3718123,4.654328,-1.067814
4.9923353,2.451251,-0.03059103,1.2086092,1.0675952,4.3718123,4.654328,-1.067814
4.990547,2.4512396,-0.033786822,1.2565461,1.18797,4.6016555,4.1659107,-0.8283938
4.9890375,2.4512312,-0.033786822,1.2565461,1.18797,4.6016555,4.1659107,-0.8283938
4.9873,2.4515004,-0.018873122,1.2821125,1.3030187,4.817134,4.1419687,-1.067814
4.9855585,2.4517741,-0.018873122,1.2821125,1.3030187,4.817134,4.1419687,-1.067814
4.983761,2.452383,0.005627962,1.2991567,1.4159367,4.3382936,4.0892963,-1.412579
4.981956,2.4530036,0.005627962,1.2991567,1.4159367,4.3382936,4.0892963,-1.412579
4.9800787,2.453928,0.031194309,1.3034178,1.5192673,4.5202527,4.1036615,-1.3215994
4.978204,2.4548645,0.031194309,1.3034178,1.5192673,4.5202527,4.1036615,-1.3215994
4.9762783,2.4561324,0.0524996,1.2863735,1.6098148,3.6056678,3.7541082,-0.9864111
4.974355,2.4574175,0.0524996,1.2863735,1.6098148,3.6056678,3.7541082,-0.9864111
4.9723997,2.4590714,0.07273962,1.2416325,1.6875792,3.2321723,3.6056678,-0.6799533
4.9704456,2.46075,0.07273962,1.2416325,1.6875792,3.2321723,3.6056678,-0.6799533
4.968521,2.4628367,0.09511018,1.1681292,1.755756,3.122039,3.3758245,-0.61770403
4.966588,2.4649653,0.09511018,1.1681292,1.755756,3.122039,3.3758245,-0.61770403
4.9646807,2.4675455,0.122807056,1.0754511,1.8154109,3.1842883,3.193865,-0.3878607
4.9627743,2.4701645,0.122807056,1.0754511,1.8154109,3.1842883,3.193865,-0.3878607
4.9609137,2.4732687,0.15583025,0.9774468,1.8729352,3.1794999,2.9352913,-0.41180268
4.959057,2.4764152,0.15583025,0.9774468,1.8729352,3.1794999,2.9352913,-0.41180268
4.9572616,2.4801128,0.19737557,0.87837726,1.9336553,2.6384103,2.944868,-0.641646
4.9554653,2.4838722,0.19737557,0.87837726,1.9336553,2.6384103,2.944868,-0.641646
4.953723,2.488216,0.2410514,0.7771771,2.000767,2.4516625,3.083732,-0.8283938
4.951982,2.4926276,0.2410514,0.7771771,2.000767,2.4516625,3.083732,-0.8283938
4.9502916,2.4976726,0.283662,0.6695854,2.07427,2.183512,3.083732,-0.8858546
4.9486074,2.5027847,0.283662,0.6695854,2.07427,2.183512,3.083732,-0.8858546
4.9469757,2.5085802,0.3220115,0.5587979,2.1562955,1.7860745,3.0262709,-0.9624691
4.9453435,2.5144796,0.3220115,0.5587979,2.1562955,1.7860745,3.0262709,-0.9624691
4.943718,2.5213058,0.3582305,0.438423,2.2468429,1.7956513,2.9879637,-0.93373865
4.9421954,2.5278287,0.3582305,0.438423,2.2468429,1.7956513,2.9879637,-0.93373865
4.940713,2.5352278,0.3912537,0.31165653,2.3427167,1.8818425,3.074155,-1.0869676
4.939227,2.5427988,0.3912537,0.31165653,2.3427167,1.8818425,3.074155,-1.0869676
4.937808,2.5511413,0.42214635,0.18489006,2.444982,2.2122424,2.3750482,-0.93373865
4.936399,2.5596132,0.42214635,0.18489006,2.444982,2.2122424,2.3750482,-0.93373865
4.935066,2.568956,0.45943063,0.05599307,2.5504434,2.3654714,2.542642,-1.1731589
4.933675,2.5789602,0.45943063,0.05599307,2.5504434,2.3654714,2.542642,-1.1731589
4.9324784,2.5889144,0.49778014,-0.079295516,2.6516435,3.6727054,2.4133554,-1.2306197
4.9312954,2.5990472,0.49778014,-0.079295516,2.6516435,3.6727054,2.4133554,-1.2306197
4.930166,2.610272,0.5329339,-0.19753987,2.7571046,3.9312792,2.0398598,-1.3455414
4.929063,2.621609,0.5329339,-0.19753987,2.7571046,3.9312792,2.0398598,-1.3455414
4.9280305,2.6338792,0.5680876,-0.30406633,2.8625658,4.3766007,1.7429788,-1.4796166
4.927032,2.646236,0.5680876,-0.30406633,2.8625658,4.3766007,1.7429788,-1.4796166
4.926119,2.6594212,0.6021761,-0.41165802,2.96057,4.745308,1.5658079,-1.5658079
4.9252405,2.672712,0.6021761,-0.41165802,2.96057,4.745308,1.5658079,-1.5658079
4.9244633,2.6868055,0.63519925,-0.5256413,3.0468566,5.93762,1.1252748,-1.532289
4.9237266,2.700985,0.63519925,-0.5256413,3.0468566,5.93762,1.1252748,-1.532289
4.9230967,2.7159314,0.67141825,-0.63216776,3.128882,7.038953,1.091756,-1.7621324
4.922514,2.7308695,0.67141825,-0.63216776,3.128882,7.038953,1.091756,-1.7621324
4.9220123,2.7469132,0.70976776,-0.7141931,3.2119725,6.8569937,0.6943185,-1.8722657
4.9215665,2.7629423,0.70976776,-0.7141931,3.2119725,6.8569937,0.6943185,-1.8722657
4.9212093,2.779644,0.74598676,-0.7898269,3.2908022,6.9862804,0.59376204,-1.9536686
4.9209104,2.7963934,0.74598676,-0.7898269,3.2908022,6.9862804,0.59376204,-1.9536686
4.9207006,2.813867,0.78220576,-0.8675912,3.366436,7.1490865,0.34476504,-1.9297266
4.9205537,2.8312988,0.78220576,-0.8675912,3.366436,7.1490865,0.34476504,-1.9297266
4.920516,2.849375,0.8226858,-0.9421597,3.4442003,7.326257,0.30645782,-1.958457
4.9205446,2.8673768,0.8226858,-0.9421597,3.4442003,7.326257,0.30645782,-1.958457
4.9206963,2.8857467,0.86316586,-1.0124671,3.5251603,7.369353,0.39743748,-2.1164744
4.9209156,2.904063,0.86316586,-1.0124671,3.5251603,7.369353,0.39743748,-2.1164744
4.9212413,2.9229565,0.90151536,-1.076383,3.6157079,7.129933,0.23463176,-2.054225
4.921637,2.9417093,0.90151536,-1.076383,3.6157079,7.129933,0.23463176,-2.054225
4.9221506,2.9610858,0.9398649,-1.140299,3.709451,6.766014,0.090979666,-2.078167
4.9227376,2.980269,0.9398649,-1.140299,3.709451,6.766014,0.090979666,-2.078167
4.92346,2.9998713,0.9814102,-1.2116716,3.8074553,6.775591,0.05267244,-2.3942018
4.924258,3.019283,0.9814102,-1.2116716,3.8074553,6.775591,0.05267244,-2.3942018
4.9252152,3.0392728,1.0272166,-1.3000885,3.9129167,6.5936313,-0.24420857,-2.9640217
4.9262495,3.0589926,1.0272166,-1.3000885,3.9129167,6.5936313,-0.24420857,-2.9640217
4.927467,3.0792212,1.0708925,-1.4044845,4.0300956,5.473145,-0.7565677,-3.6822822
4.9287653,3.099195,1.0708925,-1.4044845,4.0300956,5.473145,-0.7565677,-3.6822822
4.930263,3.119605,1.1145682,-1.5301857,4.1536665,5.7748146,-0.92895025,-3.3183637
4.9318433,3.1396692,1.1145682,-1.5301857,4.1536665,5.7748146,-0.92895025,-3.3183637
4.9335327,3.160536,1.169962,-1.676127,4.277237,8.015787,-1.2880806,-1.4891934
4.935314,3.1811213,1.169962,-1.676127,4.277237,8.015787,-1.2880806,-1.4891934
4.937234,3.201305,1.2402694,-1.7986324,4.3837633,10.520123,-0.93852705,0.02873042
4.939243,3.2211783,1.2402694,-1.7986324,4.3837633,10.520123,-0.93852705,0.02873042
4.9413967,3.240911,1.3382738,-1.8582872,4.465789,12.531252,0.34955344,0.0047884034
4.94363,3.2602332,1.3382738,-1.8582872,4.465789,12.531252,0.34955344,0.0047884034
4.945962,3.2795897,1.4405392,-1.8561566,4.5243783,13.096283,0.5793968,-0.521936
4.948366,3.2984858,1.4405392,-1.8561566,4.5243783,13.096283,0.5793968,-0.521936
4.950816,3.3172815,1.5310867,-1.8135461,4.5744457,13.55597,0.7038953,-1.1204864
4.953339,3.335657,1.5310867,-1.8135461,4.5744457,13.55597,0.7038953,-1.1204864
4.955899,3.3538842,1.597133,-1.7464343,4.6181216,14.379576,1.3455414,-1.6807296
4.9585238,3.3716826,1.597133,-1.7464343,4.6181216,14.379576,1.3455414,-1.6807296
4.961136,3.3895006,1.629091,-1.644169,4.667124,15.164873,1.163582,-1.6807296
4.9638166,3.406934,1.629091,-1.644169,4.667124,15.164873,1.163582,-1.6807296
4.966454,3.4243395,1.6365478,-1.5099456,4.7182565,15.911864,1.1923125,-1.8339585
4.96916,3.4413912,1.6365478,-1.5099456,4.7182565,15.911864,1.1923125,-1.8339585
4.9717846,3.4584951,1.629091,-1.3288507,4.781107,16.529568,1.3694834,-2.0494366
4.974477,3.4752605,1.629091,-1.3288507,4.781107,16.529568,1.3694834,-2.0494366
4.9770613,3.492215,1.608851,-1.1008841,4.8641977,16.49605,1.7429788,-2.4037786
4.9797077,3.5087972,1.608851,-1.1008841,4.8641977,16.49605,1.7429788,-2.4037786
4.982217,3.5257692,1.5811541,-0.8313722,4.9685936,15.44739,1.4269443,-2.4420857
4.984783,3.5423493,1.5811541,-0.8313722,4.9685936,15.44739,1.4269443,-2.4420857
4.9872227,3.5594163,1.5502614,-0.5544035,5.086838,14.743494,1.4413095,-2.3511062
4.989748,3.5762684,1.5502614,-0.5544035,5.086838,14.743494,1.4413095,-2.3511062
4.9921627,3.5935311,1.5278909,-0.28915262,5.221061,13.623008,1.4891934,-2.4420857
4.99465,3.6104665,1.5278909,-0.28915262,5.221061,13.623008,1.4891934,-2.4420857
4.9970675,3.627967,1.5129771,-0.03881547,5.3755245,12.133814,1.316811,-2.2601264
4.999564,3.6451735,1.5129771,-0.03881547,5.3755245,12.133814,1.316811,-2.2601264
5.0020275,3.6628919,1.5055203,0.18169427,5.545967,11.281479,1.1587936,-2.111686
5.00459,3.6804154,1.5055203,0.18169427,5.545967,11.281479,1.1587936,-2.111686
5.0071554,3.698425,1.5119119,0.37237662,5.7366495,10.769119,0.90021986,-1.9249382
5.0098267,3.7162292,1.5119119,0.37237662,5.7366495,10.769119,0.90021986,-1.9249382
5.0125523,3.7345185,1.5257603,0.5524063,5.951833,9.988609,0.9768343,-2.0446482
5.015377,3.7525156,1.5257603,0.5524063,5.951833,9.988609,0.9768343,-2.0446482
5.0182886,3.771024,1.5460004,0.7271097,6.189387,9.409213,1.2258313,-2.1883004
5.021316,3.7892942,1.5460004,0.7271097,6.189387,9.409213,1.2258313,-2.1883004
5.024464,3.8080902,1.5587835,0.8964867,6.452507,8.087613,0.8762778,-2.1068976
5.027723,3.8265514,1.5587835,0.8964867,6.452507,8.087613,0.8762778,-2.1068976
5.0311236,3.8455148,1.5683709,1.0488195,6.72628,7.3645644,0.38307226,-1.8387469
5.0346537,3.8641915,1.5683709,1.0488195,6.72628,7.3645644,0.38307226,-1.8387469
5.038375,3.883237,1.5790236,1.1734555,7.0032487,7.1395097,0.29688102,-1.9153614
5.0422106,3.901874,1.5790236,1.1734555,7.0032487,7.1395097,0.29688102,-1.9153614
5.046294,3.92087,1.5864804,1.2831777,7.2887397,6.4260373,-0.14844051,-1.9153614
5.050498,3.9394484,1.5864804,1.2831777,7.2887397,6.4260373,-0.14844051,-1.9153614
5.0549345,3.9581816,1.5950025,1.3683989,7.567839,6.253655,-0.80445176,-1.7525556
5.059519,3.9765868,1.5950025,1.3683989,7.567839,6.253655,-0.80445176,-1.7525556
5.064355,3.9950297,1.6077857,1.4248579,7.8320246,6.50744,-1.2401965,-1.7381904
5.0693116,4.013016,1.6077857,1.4248579,7.8320246,6.50744,-1.2401965,-1.7381904
5.074626,4.0310664,1.6269605,1.4674685,8.084492,6.789956,-1.6472107,-2.0207062
5.080036,4.0485783,1.6269605,1.4674685,8.084492,6.789956,-1.6472107,-2.0207062
5.085712,4.06602,1.6461352,1.5026222,8.325242,7.1826053,-1.8674773,-2.0733786
5.0914893,4.082959,1.6461352,1.5026222,8.325242,7.1826053,-1.8674773,-2.0733786
5.097618,4.099906,1.6621141,1.5335149,8.550013,7.6710224,-2.4660277,-2.1499932
5.103788,4.116193,1.6621141,1.5335149,8.550013,7.6710224,-2.4660277,-2.1499932
5.1103396,4.13264,1.677028,1.5665381,8.758804,7.8386164,-3.0502129,-2.207454
5.1169405,4.148436,1.677028,1.5665381,8.758804,7.8386164,-3.0502129,-2.207454
5.1238365,4.1641936,1.6962026,1.6027571,8.953748,8.049306,-3.6152446,-2.5234885
5.1307983,4.179377,1.6962026,1.6027571,8.953748,8.049306,-3.6152446,-2.5234885
5.1379986,4.194401,1.7153774,1.6421719,9.134843,7.8865004,-4.3766007,-2.9592333
5.1452613,4.2088814,1.7153774,1.6421719,9.134843,7.8865004,-4.3766007,-2.9592333
5.1527925,4.2233214,1.7334869,1.6826519,9.297829,8.99741,-5.434838,-2.9400797
5.1603823,4.237236,1.7334869,1.6826519,9.297829,8.99741,-5.434838,-2.9400797
5.1681404,4.250872,1.7558575,1.7348498,9.446965,10.261548,-5.535394,-3.41892
5.175946,4.2640114,1.7558575,1.7348498,9.446965,10.261548,-5.535394,-3.41892
5.184004,4.2771573,1.7729017,1.8168752,9.588646,10.328587,-6.2967505,-3.6248214
5.192934,4.2910895,1.7729017,1.8168752,9.588646,10.328587,-6.2967505,-3.6248214
5.2005124,4.302598,1.7750323,1.9095532,9.703694,11.142614,-7.3310456,-3.5338416
5.208597,4.3143997,1.7750323,1.9095532,9.703694,11.142614,-7.3310456,-3.5338416
5.2169905,4.3263607,1.7739669,1.9958396,9.786785,12.047623,-8.422802,-3.41892
5.22676,4.3396873,1.7739669,1.9958396,9.786785,12.047623,-8.422802,-3.41892
5.22676,4.3396873,1.7686406,2.0778651,9.832591,13.441049,-9.481039,-3.2848446
5.244116,4.362319,1.7686406,2.0778651,9.832591,13.441049,-9.481039,-3.2848446
5.2517905,4.3719234,1.7654449,2.1524336,9.833656,14.403518,-10.271125,-3.323152
5.260533,4.382475,1.7654449,2.1524336,9.833656,14.403518,-10.271125,-3.323152
5.269914,4.3935933,1.7654449,2.2195451,9.78785,14.915876,-11.425131,-3.0885203
5.2780666,4.402906,1.7654449,2.2195451,9.78785,14.915876,-11.425131,-3.0885203
5.2780666,4.402906,1.7654449,2.2195451,9.78785,14.915876,-11.425131,-3.0885203
5.297057,4.4238157,1.7792933,2.2696126,9.703694,15.246277,-12.186486,-2.9831753
5.30365,4.4308276,1.8123165,2.3047664,9.58545,15.370775,-12.694057,-3.107674
5.312358,4.4398184,1.8123165,2.3047664,9.58545,15.370775,-12.694057,-3.107674
5.320981,4.44861,1.862384,2.3303328,9.451226,15.126566,-12.722788,-3.0023289
5.3296547,4.4571705,1.862384,2.3303328,9.451226,15.126566,-12.722788,-3.0023289
5.338231,4.4655766,1.9241693,2.3463116,9.321264,14.743494,-12.880805,-2.585738
5.346839,4.473758,1.9241693,2.3463116,9.321264,14.743494,-12.880805,-2.585738
5.3553634,4.4818106,1.9923462,2.3527033,9.192368,14.5567465,-12.751518,-2.2649148
5.363916,4.4896584,1.9923462,2.3527033,9.192368,14.5567465,-12.751518,-2.2649148
5.372393,4.4973936,2.0669148,2.3537686,9.073057,14.489709,-12.488156,-2.0925324
5.380869,4.5049186,2.0669148,2.3537686,9.073057,14.489709,-12.488156,-2.0925324
5.3892817,4.5123568,2.1414833,2.3590949,8.971857,14.355634,-12.176909,-1.9967642
5.3977222,4.5196323,2.1414833,2.3590949,8.971857,14.355634,-12.176909,-1.9967642
5.406078,4.526846,2.2117906,2.3782697,8.888767,14.288596,-11.923124,-1.9393034
5.4144387,4.533915,2.2117906,2.3782697,8.888767,14.288596,-11.923124,-1.9393034
5.422644,4.5409083,2.2746413,2.412358,8.819525,13.9677725,-11.592725,-2.0446482
5.4307985,4.547587,2.2746413,2.412358,8.819525,13.9677725,-11.592725,-2.0446482
5.439019,4.554121,2.330035,2.4613602,8.764131,13.383588,-11.473015,-2.0254946
5.447215,4.5605464,2.330035,2.4613602,8.764131,13.383588,-11.473015,-2.0254946
5.455481,4.566934,2.3811677,2.5199497,8.730042,12.813767,-11.434708,-1.9153614
5.4637113,4.5732045,2.3811677,2.5199497,8.730042,12.813767,-11.434708,-1.9153614
5.4719877,4.579468,2.4344308,2.5859962,8.717259,12.105083,-11.075577,-2.030283
5.480263,4.5856147,2.4344308,2.5859962,8.717259,12.105083,-11.075577,-2.030283
5.48864,4.5917845,2.4887595,2.6584342,8.728977,11.300632,-11.056423,-1.8674773
5.49701,4.597833,2.4887595,2.6584342,8.728977,11.300632,-11.056423,-1.8674773
5.5054893,4.603926,2.5484142,2.7330027,8.772653,10.448297,-10.864887,-1.7764976
5.513968,4.609898,2.5484142,2.7330027,8.772653,10.448297,-10.864887,-1.7764976
5.522602,4.61595,2.6165912,2.810767,8.850417,9.725247,-10.702082,-1.6280571
5.5311947,4.621852,2.6165912,2.810767,8.850417,9.725247,-10.702082,-1.6280571
5.5399227,4.627807,2.687964,2.8885312,8.96227,9.035717,-10.208876,-1.5610195
5.548662,4.6336555,2.687964,2.8885312,8.96227,9.035717,-10.208876,-1.5610195
5.5575857,4.6395636,2.7604017,2.9630997,9.100755,8.336611,-9.9550905,-1.4030021
5.566513,4.64536,2.7604017,2.9630997,9.100755,8.336611,-9.9550905,-1.4030021
5.575658,4.651228,2.8307092,3.0440598,9.26374,7.4603324,-9.835381,-1.3311762
5.584812,4.6569858,2.8307092,3.0440598,9.26374,7.4603324,-9.835381,-1.3311762
5.5942016,4.662816,2.8956904,3.1282158,9.450161,6.2345014,-9.768343,-1.3072342
5.6036053,4.668538,2.8956904,3.1282158,9.450161,6.2345014,-9.768343,-1.3072342
5.6132545,4.674314,2.9574757,3.2187634,9.667475,4.711789,-9.639056,-1.532289
5.6230755,4.6800756,2.9574757,3.2187634,9.667475,4.711789,-9.639056,-1.532289
5.632878,4.685714,3.015,3.317833,9.918878,2.7006595,-9.471462,-1.9440918
5.642818,4.69132,3.015,3.317833,9.918878,2.7006595,-9.471462,-1.9440918
5.6530824,4.69697,3.0640023,3.4051845,10.197977,1.6998832,-9.423578,-1.7956513
5.663356,4.7025156,3.0640023,3.4051845,10.197977,1.6998832,-9.423578,-1.7956513
5.6739655,4.708048,3.103417,3.4477952,10.503708,2.2457612,-9.279925,-1.3359646
5.6846037,4.7134886,3.103417,3.4477952,10.503708,2.2457612,-9.279925,-1.3359646
5.6955686,4.7188587,3.1364403,3.4371424,10.822222,2.9352913,-8.887277,-0.89543146
5.7065487,4.7241335,3.1364403,3.4371424,10.822222,2.9352913,-8.887277,-0.89543146
5.717843,4.7293143,3.171594,3.398793,11.136475,3.4811692,-8.465898,-0.6703765
5.729161,4.7344074,3.171594,3.398793,11.136475,3.4811692,-8.465898,-0.6703765
5.740773,4.7394047,3.2131393,3.3561823,11.440075,3.9695864,-7.9631147,-0.6464345
5.752483,4.744353,3.2131393,3.3561823,11.440075,3.9695864,-7.9631147,-0.6464345
5.7642055,4.749146,3.2610762,3.3295507,11.728762,4.4101195,-7.417237,-0.80924016
5.776027,4.7539015,3.2610762,3.3295507,11.728762,4.4101195,-7.417237,-0.80924016
5.788106,4.7586412,3.3068826,3.330616,11.996143,4.903325,-6.8809357,-1.1492168
5.80017,4.763299,3.3068826,3.330616,11.996143,4.903325,-6.8809357,-1.1492168
5.8124714,4.7679462,3.3431015,3.3647044,12.22624,5.257667,-6.4068837,-1.3838485
5.824795,4.7725286,3.3431015,3.3647044,12.22624,5.257667,-6.4068837,-1.3838485
5.837301,4.777073,3.35695,3.431816,12.417988,5.281609,-5.9280434,-1.7381904
5.849841,4.78156,3.35695,3.431816,12.417988,5.281609,-5.9280434,-1.7381904
5.8625383,4.7859945,3.3388405,3.5244942,12.570321,5.195418,-5.1523223,-2.1212628
5.875245,4.790366,3.3388405,3.5244942,12.570321,5.195418,-5.1523223,-2.1212628
5.8880887,4.794659,3.2834468,3.6320858,12.683239,4.7644615,-4.9943047,-2.0685902
5.9009414,4.7988915,3.2834468,3.6320858,12.683239,4.7644615,-4.9943047,-2.0685902
5.913888,4.80302,3.196095,3.740743,12.7610035,4.5920787,-4.865018,-1.8674773
5.9268312,4.807087,3.196095,3.740743,12.7610035,4.5920787,-4.865018,-1.8674773
5.939866,4.81102,3.0821116,3.8451388,12.810005,4.0462008,-5.2145715,-1.6184803
5.952922,4.814902,3.0821116,3.8451388,12.810005,4.0462008,-5.2145715,-1.6184803
5.9660068,4.8186255,2.9564104,3.9420779,12.837702,3.5577838,-5.3438582,-1.3694834
5.9790983,4.8222976,2.9564104,3.9420779,12.837702,3.5577838,-5.3438582,-1.3694834
5.9922256,4.825805,2.8179262,4.0251684,12.833441,3.2704794,-5.21936,-1.4796166
6.0053463,4.8292603,2.8179262,4.0251684,12.833441,3.2704794,-5.21936,-1.4796166
6.018486,4.832672,2.8179262,4.0251684,12.833441,3.2704794,-5.21936,-1.4796166
6.031626,4.8359,2.6666586,4.09228,12.792961,3.2034419,-4.8745947,-2.2170308
6.044746,4.839077,2.6666586,4.09228,12.792961,3.2034419,-4.8745947,-2.2170308
6.0578666,4.84205,2.4962163,4.140217,12.725849,2.087744,-4.3957543,-2.1643584
6.070979,4.8449783,2.4962163,4.140217,12.725849,2.087744,-4.3957543,-2.1643584
6.08401,4.8476596,2.2810328,4.156196,12.6139965,1.5801731,-5.4300494,-1.2210429
6.0970306,4.850299,2.2810328,4.156196,12.6139965,1.5801731,-5.4300494,-1.2210429
6.109907,4.8526945,2.0669148,4.1221075,12.453142,1.9009962,-6.919243,-0.58897364
6.1228228,4.8550615,2.0669148,4.1221075,12.453142,1.9009962,-6.919243,-0.58897364
6.135387,4.857188,1.8730365,4.0454082,12.24648,2.767697,-7.374141,-0.5650316
6.1480036,4.8592925,1.8730365,4.0454082,12.24648,2.767697,-7.374141,-0.5650316
6.1603427,4.861189,1.6983331,3.9537957,12.002535,3.3135753,-6.885724,-0.80445176
6.172696,4.8630586,1.6983331,3.9537957,12.002535,3.3135753,-6.885724,-0.80445176
6.18472,4.864741,1.5257603,3.8493998,11.70213,4.185065,-6.4308257,-0.62249243
6.196747,4.8663974,1.5257603,3.8493998,11.70213,4.185065,-6.4308257,-0.62249243
6.2083893,4.867867,1.3382738,3.7386122,11.327157,5.329493,-6.1866174,-0.009576807
6.2211146,4.8692985,1.1358736,3.6384773,10.884007,6.191406,-5.8945246,0.5602432
6.230778,4.8703656,1.1358736,3.6384773,10.884007,6.191406,-5.8945246,0.5602432
6.2423453,4.8716216,1.1358736,3.6384773,10.884007,6.191406,-5.8945246,0.5602432
6.2528653,4.872598,0.9228207,3.5553868,10.378007,6.4643445,-5.81791,1.043872
6.263483,4.8735633,0.9228207,3.5553868,10.378007,6.4643445,-5.81791,1.043872
6.27357,4.8742948,0.6969846,3.4850793,9.8134165,6.3446345,-5.875371,1.388637
0.00036179923,4.8749986,0.6969846,3.4850793,9.8134165,6.3446345,-5.875371,1.388637
0.00983988,4.875464,0.4604959,3.4147718,9.191302,6.253655,-6.291962,1.7860745
0.019337941,4.8759117,0.4604959,3.4147718,9.191302,6.253655,-6.291962,1.7860745
0.028139198,4.876105,0.21868086,3.3433993,8.521251,5.9663506,-6.8665705,2.1499932
0.03698507,4.8762817,0.21868086,3.3433993,8.521251,5.9663506,-6.8665705,2.1499932
0.045115538,4.876199,-0.025264706,3.2730918,7.817111,5.7125654,-7.326257,2.303222
0.053246047,4.8760996,-0.025264706,3.2730918,7.817111,5.7125654,-7.326257,2.303222
0.060614374,4.8757415,-0.27240607,3.197458,7.0863395,5.4204726,-7.9487495,2.6384103
0.06805602,4.8753643,-0.27240607,3.197458,7.0863395,5.4204726,-7.9487495,2.6384103
0.07467559,4.874743,-0.5142211,3.1164978,6.334263,4.984728,-8.734048,3.2513258
0.08130718,4.874106,-0.5142211,3.1164978,6.334263,4.984728,-8.734048,3.2513258
0.08717386,4.873236,-0.7411224,3.0291462,5.566207,4.2999864,-9.504981,3.8307228
0.09305041,4.8723516,-0.7411224,3.0291462,5.566207,4.2999864,-9.504981,3.8307228
0.098147936,4.8712626,-0.94458795,2.927946,4.7896295,3.4476504,-10.141838,4.390966
0.10324292,4.870161,-0.94458795,2.927946,4.7896295,3.4476504,-10.141838,4.390966
0.1075546,4.86889,-1.1203566,2.8086364,4.014117,2.2601264,-10.5680065,4.76925
0.111889146,4.8676,-1.1203566,2.8086364,4.014117,2.2601264,-10.5680065,4.76925
0.11544398,4.866177,-1.2641673,2.6594994,3.2449958,1.0630256,-10.922348,5.1235914
0.11900587,4.864742,-1.2641673,2.6594994,3.2449958,1.0630256,-10.922348,5.1235914
0.12180662,4.8632097,-1.3760201,2.4816003,2.4950495,-0.10055647,-11.075577,5.3678
0.124620475,4.8616614,-1.3760201,2.4816003,2.4950495,-0.10055647,-11.075577,5.3678
0.1267025,4.86005,-1.4580454,2.2802653,1.7770613,-1.1971009,-11.013328,5.401319
0.1287745,4.8584394,-1.4580454,2.2802653,1.7770613,-1.1971009,-11.013328,5.401319
0.13018839,4.8567734,-1.5134392,2.0629513,1.102749,-2.4420857,-10.67814,5.2768207
0.13161267,4.8550873,-1.5134392,2.0629513,1.102749,-2.4420857,-10.67814,5.2768207
0.13240111,4.853391,-1.5507234,1.8307236,0.47530818,-3.9552212,-10.409989,4.88896
0.13318619,4.851693,-1.5507234,1.8307236,0.47530818,-3.9552212,-10.409989,4.88896
0.13340744,4.849969,-1.5794855,1.5835823,-0.08821672,-5.3438582,-10.113108,4.3143516
0.13362649,4.848237,-1.5794855,1.5835823,-0.08821672,-5.3438582,-10.113108,4.3143516
0.13333464,4.846504,-1.6018561,1.3236578,-0.58249944,-6.6846113,-9.840169,3.9121256
0.1330389,4.844765,-1.6018561,1.3236578,-0.58249944,-6.6846113,-9.840169,3.9121256
0.13229477,4.8430285,-1.6189003,1.0541458,-1.00754,-7.795521,-9.782708,3.4811692
0.13154829,4.841294,-1.6189003,1.0541458,-1.00754,-7.795521,-9.782708,3.4811692
0.13042337,4.839569,-1.633814,0.7814382,-1.362273,-8.628703,-9.753978,2.9735985
0.12929107,4.837837,-1.633814,0.7814382,-1.362273,-8.628703,-9.753978,2.9735985
0.12784675,4.8361197,-1.6487278,0.5097957,-1.6466986,-9.251195,-9.935937,2.6767175
0.12640093,4.8344035,-1.6487278,0.5097957,-1.6466986,-9.251195,-9.935937,2.6767175
0.124711476,4.8327103,-1.661511,0.24454488,-1.8640126,-9.504981,-10.175357,2.6862943
0.12301084,4.8310084,-1.661511,0.24454488,-1.8640126,-9.504981,-10.175357,2.6862943
0.12113352,4.829337,-1.6647067,-0.008988062,-2.0174108,-9.610326,-10.620679,2.6288335
0.11925558,4.8276663,-1.6647067,-0.008988062,-2.0174108,-9.610326,-10.620679,2.6288335
0.11726281,4.8260374,-1.6561846,-0.24441151,-2.1111538,-9.696517,-11.003751,2.7389667
0.11525783,4.8244,-1.6561846,-0.24441151,-2.1111538,-9.696517,-11.003751,2.7389667
0.11320396,4.822818,-1.6327487,-0.46172544,-2.1495035,-9.715671,-11.27669,2.6288335
0.111138046,4.821226,-1.6327487,-0.46172544,-2.1495035,-9.715671,-11.27669,2.6288335
0.10907565,4.8197,-1.5943992,-0.6577341,-2.1345897,-9.682152,-11.7268,2.5187001
0.107009664,4.818169,-1.5943992,-0.6577341,-2.1345897,-9.682152,-11.7268,2.5187001
0.10499662,4.8167167,-1.5422013,-0.834568,-2.0717392,-9.299079,-12.061988,2.5187001
0.102972224,4.8152547,-1.5422013,-0.834568,-2.0717392,-9.299079,-12.061988,2.5187001
0.100767985,4.813684,-1.4772202,-0.9911619,-1.970539,-8.734048,-12.464214,2.4468741
0.100767985,4.813684,-1.4772202,-0.9911619,-1.970539,-8.734048,-12.464214,2.4468741
0.100767985,4.813684,-1.3994559,-1.1243199,-1.8395115,-8.049306,-12.856863,2.3654714
0.09582168,4.810171,-1.3994559,-1.1243199,-1.8395115,-8.049306,-12.856863,2.3654714
0.09582168,4.810171,-1.3994559,-1.1243199,-1.8395115,-8.049306,-12.856863,2.3654714
0.09167791,4.807216,-1.2194262,-1.3267202,-1.527389,-6.813898,-13.512875,2.303222
0.09041104,4.8063064,-1.2194262,-1.3267202,-1.527389,-6.813898,-13.512875,2.303222
0.08891828,4.805231,-1.1192913,-1.4012887,-1.358012,-6.1004257,-13.608643,2.384625
0.08773531,4.8043766,-1.1192913,-1.4012887,-1.358012,-6.1004257,-13.608643,2.384625
0.08640709,4.803416,-1.1192913,-1.4012887,-1.358012,-6.1004257,-13.608643,2.384625
0.08521193,4.8025475,-1.0202217,-1.4609435,-1.1875696,-5.2385135,-13.771448,2.5091233
0.084021404,4.80168,-1.0202217,-1.4609435,-1.1875696,-5.2385135,-13.771448,2.5091233
0.08298679,4.8009233,-0.9232826,-1.5088804,-1.0245842,-4.4196963,-13.833697,2.5187001
0.08194902,4.800162,-0.9232826,-1.5088804,-1.0245842,-4.4196963,-13.833697,2.5187001
0.0810524,4.7995076,-0.8306046,-1.5440341,-0.8743819,-3.667917,-13.8480625,2.5234885
0.0801567,4.798852,-0.8306046,-1.5440341,-0.8743819,-3.667917,-13.8480625,2.5234885
0.07938685,4.798293,-0.7421877,-1.5685352,-0.7348322,-2.9831753,-13.857639,2.408567
0.078625426,4.797738,-0.7421877,-1.5685352,-0.7348322,-2.9831753,-13.857639,2.408567
0.07797381,4.7972765,-0.6569665,-1.5845141,-0.6070005,-2.336741,-13.742718,2.2409728
0.07732288,4.7968135,-0.6569665,-1.5845141,-0.6070005,-2.336741,-13.742718,2.2409728
0.07675801,4.7964463,-0.57494116,-1.5930363,-0.4908867,-1.6519991,-13.565547,2.0350714
0.076193504,4.7960773,-0.57494116,-1.5930363,-0.4908867,-1.6519991,-13.565547,2.0350714
0.07565308,4.7957945,-0.49824214,-1.5941015,-0.3854255,-0.8475474,-13.393165,1.8483237
0.07511308,4.7955103,-0.49824214,-1.5941015,-0.3854255,-0.8475474,-13.393165,1.8483237
0.07458322,4.7952642,-0.4236736,-1.5866448,-0.29168224,-0.10055647,-13.139379,1.5945383
0.074053876,4.7950177,-0.4236736,-1.5866448,-0.29168224,-0.10055647,-13.139379,1.5945383
0.07358348,4.7948093,-0.35336617,-1.5706657,-0.21072213,0.6703765,-12.919112,1.4508862
0.07311357,4.7946005,-0.35336617,-1.5706657,-0.21072213,0.6703765,-12.919112,1.4508862
0.07270939,4.7944427,-0.28838503,-1.5472299,-0.14254521,1.4939818,-12.555194,1.3694834
0.072305515,4.794285,-0.28838503,-1.5472299,-0.14254521,1.4939818,-12.555194,1.3694834
0.07195483,4.7941756,-0.22553442,-1.5142068,-0.08928198,2.1212628,-12.186486,1.1827357
0.071604975,4.7940664,-0.22553442,-1.5142068,-0.08928198,2.1212628,-12.186486,1.1827357
0.07129651,4.794002,-0.16907541,-1.4694656,-0.0498672,2.6048915,-11.765107,0.9720459
0.070988774,4.7939377,-0.16907541,-1.4694656,-0.0498672,2.6048915,-11.765107,0.9720459
0.070713595,4.793914,-0.11900798,-1.4162024,-0.02110506,3.0071173,-11.295844,0.79487497
0.07043841,4.79389,-0.11900798,-1.4162024,-0.02110506,3.0071173,-11.295844,0.79487497
0.07018722,4.7938976,-0.077462666,-1.3533518,-0.0019303001,3.4237084,-10.850522,0.5793968
0.06993647,4.7939043,-0.077462666,-1.3533518,-0.0019303001,3.4237084,-10.850522,0.5793968
0.069699995,4.7939367,-0.04443947,-1.2830443,0.0065918155,3.7253778,-10.381259,0.4405331
0.06946338,4.7939687,-0.04443947,-1.2830443,0.0065918155,3.7253778,-10.381259,0.4405331
0.06923447,4.7940145,-0.019938385,-1.2052801,0.00765708,3.9695864,-10.01734,0.22026655
0.06900551,4.7940598,-0.019938385,-1.2052801,0.00765708,3.9695864,-10.01734,0.22026655
0.06877531,4.7941103,-0.0039594183,-1.1221894,-0.0008650357,4.0797195,-9.639056,0
0.068545066,4.7941604,-0.0039594183,-1.1221894,-0.0008650357,4.0797195,-9.639056,0
0.068305984,4.7942085,0.001366904,-1.0348377,-0.016844003,4.156334,-9.323022,-0.05746084
0.0680665,4.7942567,0.001366904,-1.0348377,-0.016844003,4.156334,-9.323022,-0.05746084
0.067811996,4.7942934,-0.0007636249,-0.94322497,-0.039214555,4.189853,-9.074024,-0.18195933
0.0675511,4.7943306,-0.0007636249,-0.94322497,-0.039214555,4.189853,-9.074024,-0.18195933
0.06727891,4.7943487,-0.010351005,-0.85161227,-0.06691143,4.1802764,-8.8777,-0.2681506
0.06701104,4.794366,-0.010351005,-0.85161227,-0.06691143,4.1802764,-8.8777,-0.2681506
0.066714466,4.794358,-0.027395237,-0.75786895,-0.09886937,3.9504328,-8.619126,-0.31124622
0.06641819,4.7943497,-0.027395237,-0.75786895,-0.09886937,3.9504328,-8.619126,-0.31124622
0.06609338,4.7943115,-0.048700526,-0.6641257,-0.1340231,3.7062242,-8.336611,-0.31603462
0.06577053,4.7942743,-0.048700526,-0.6641257,-0.1340231,3.7062242,-8.336611,-0.31603462
0.06541944,4.7942047,-0.07213634,-0.5746435,-0.16811156,3.5529952,-8.073248,-0.36391866
0.06506881,4.7941346,-0.07213634,-0.5746435,-0.16811156,3.5529952,-8.073248,-0.36391866
0.06469326,4.794026,-0.10302901,-0.48835707,-0.20113476,3.3279405,-7.8386164,-0.37828386
0.06431773,4.7939177,-0.10302901,-0.48835707,-0.20113476,3.3279405,-7.8386164,-0.37828386
0.06391765,4.793765,-0.13711748,-0.40313593,-0.23415795,3.0789435,-7.7189064,-0.4309563
0.063518405,4.793613,-0.13711748,-0.40313593,-0.23415795,3.0789435,-7.7189064,-0.4309563
0.0630944,4.793417,-0.17120594,-0.32111055,-0.26611587,2.7868507,-7.6853876,-0.45010993
0.0626709,4.793221,-0.17120594,-0.32111055,-0.26611587,2.7868507,-7.6853876,-0.45010993
0.062221605,4.7929792,-0.20955546,-0.24121572,-0.29913908,2.5570073,-7.6710224,-0.4261679
0.061774217,4.792739,-0.20955546,-0.24121572,-0.29913908,2.5570073,-7.6710224,-0.4261679
0.0612997,4.792445,-0.2500355,-0.1634514,-0.33322755,2.2984335,-7.728483,-0.48362875
0.060826156,4.7921524,-0.2500355,-0.1634514,-0.33322755,2.2984335,-7.728483,-0.48362875
0.060325284,4.791816,-0.2894503,-0.08994816,-0.367316,1.9632454,-7.8146744,-0.33039984
0.059824817,4.791481,-0.2894503,-0.08994816,-0.367316,1.9632454,-7.8146744,-0.33039984
0.059295136,4.791094,-0.33099562,-0.023901764,-0.40460026,1.6759412,-7.8529816,-0.32561144
0.058766447,4.7907085,-0.33099562,-0.023901764,-0.40460026,1.6759412,-7.8529816,-0.32561144
0.058201853,4.790278,-0.37254092,0.03681831,-0.44401506,1.4030021,-8.001422,-0.17238252
0.057638254,4.789849,-0.37254092,0.03681831,-0.44401506,1.4030021,-8.001422,-0.17238252
0.057044078,4.7893734,-0.41089043,0.090081535,-0.4812993,1.0869676,-8.087613,-0.10055647
0.056452177,4.7889004,-0.41089043,0.090081535,-0.4812993,1.0869676,-8.087613,-0.10055647
0.055816785,4.788389,-0.4481747,0.13375737,-0.5228446,0.770933,-8.317456,0.110133275
0.0551824,4.787879,-0.4481747,0.13375737,-0.5228446,0.770933,-8.317456,0.110133275
0.05450747,4.7873316,-0.48545894,0.1689111,-0.56438994,0.61770403,-8.628703,0.21068975
0.053833008,4.7867846,-0.48545894,0.1689111,-0.56438994,0.61770403,-8.628703,0.21068975
0.053110495,4.7862177,-0.5174169,0.19660798,-0.6070005,0.38307226,-8.887277,0.4213795
0.052389797,4.7856526,-0.5174169,0.19660798,-0.6070005,0.38307226,-8.887277,0.4213795
0.051626153,4.785047,-0.54511374,0.216848,-0.6528069,0,-9.203311,0.50278234
0.050864305,4.784444,-0.54511374,0.216848,-0.6528069,0,-9.203311,0.50278234
0.050146382,4.7837677,-0.5674843,0.23069644,-0.6911564,-0.4261679,-9.461885,0.5650316
0.049431916,4.7830925,-0.5674843,0.23069644,-0.6911564,-0.4261679,-9.461885,0.5650316
0.04884658,4.7824416,-0.582398,0.23602276,-0.72204906,-0.8475474,-9.701305,0.521936
0.048264008,4.7817945,-0.582398,0.23602276,-0.72204906,-0.8475474,-9.701305,0.521936
0.0476751,4.781167,-0.5887896,0.23176171,-0.7422891,-1.2114661,-9.907207,0.5554548
0.047088932,4.780543,-0.5887896,0.23176171,-0.7422891,-1.2114661,-9.907207,0.5554548
0.04649158,4.7799253,-0.5898549,0.2200438,-0.7508112,-1.5227122,-10.127473,0.59376204
0.045897227,4.779311,-0.5898549,0.2200438,-0.7508112,-1.5227122,-10.127473,0.59376204
0.045303207,4.778704,-0.5855938,0.20086904,-0.7486807,-1.7860745,-10.218452,0.58897364
0.044709723,4.7780986,-0.5855938,0.20086904,-0.7486807,-1.7860745,-10.218452,0.58897364
0.04412507,4.7775054,-0.5760064,0.17530268,-0.7369628,-1.7621324,-10.496181,0.63206923
0.043542594,4.776916,-0.5760064,0.17530268,-0.7369628,-1.7621324,-10.496181,0.63206923
0.042974792,4.776336,-0.56109273,0.14547528,-0.7167227,-2.1691468,-10.539276,0.5746084
0.042409133,4.775759,-0.56109273,0.14547528,-0.7167227,-2.1691468,-10.539276,0.5746084
0.04186073,4.775214,-0.541918,0.10712577,-0.69541746,-1.958457,-10.6398325,0.7134721
0.04131324,4.7746706,-0.541918,0.10712577,-0.69541746,-1.958457,-10.6398325,0.7134721
0.040789865,4.774151,-0.51848215,0.06771098,-0.66772056,-1.8818425,-10.721235,0.7086837
0.04026847,4.773634,-0.51848215,0.06771098,-0.66772056,-1.8818425,-10.721235,0.7086837
0.039774068,4.7731395,-0.49078527,0.032557253,-0.63576263,-1.9297266,-10.860099,0.6751649
0.03928102,4.7726474,-0.49078527,0.032557253,-0.63576263,-1.9297266,-10.860099,0.6751649
0.03881331,4.7721963,-0.45882735,-0.0068575335,-0.6070005,-1.9201498,-10.936713,0.7565677
0.038345464,4.7717457,-0.45882735,-0.0068575335,-0.6070005,-1.9201498,-10.936713,0.7565677
0.037902534,4.7713327,-0.42473888,-0.047337584,-0.5793036,-1.7669208,-10.984597,0.7661445
0.037460852,4.770922,-0.42473888,-0.047337584,-0.5793036,-1.7669208,-10.984597,0.7661445
0.037044812,4.770542,-0.38958514,-0.08781763,-0.5494762,-1.7238252,-10.979809,0.7230489
0.03663037,4.7701635,-0.38958514,-0.08781763,-0.5494762,-1.7238252,-10.979809,0.7230489
0.03623905,4.769826,-0.35230088,-0.12936294,-0.52177936,-1.6472107,-10.91756,0.7374141
0.035849594,4.76949,-0.35230088,-0.12936294,-0.52177936,-1.6472107,-10.91756,0.7374141
0.035487313,4.769183,-0.31501663,-0.16877773,-0.49301723,-1.6280571,-10.79785,0.6464345
0.035126206,4.7688775,-0.31501663,-0.16877773,-0.49301723,-1.6280571,-10.79785,0.6464345
0.034792844,4.7686033,-0.28199345,-0.20712726,-0.46105927,-1.5849615,-10.754754,0.62728083
0.03446092,4.7683306,-0.28199345,-0.20712726,-0.46105927,-1.5849615,-10.754754,0.62728083
0.034156747,4.7680936,-0.24897024,-0.24654204,-0.4301666,-1.5610195,-10.668563,0.6368576
0.033853903,4.7678576,-0.24897024,-0.24654204,-0.4301666,-1.5610195,-10.668563,0.6368576
0.033579644,4.7676425,-0.21807757,-0.28276104,-0.39820868,-1.532289,-10.620679,0.545878
0.033306386,4.7674284,-0.21807757,-0.28276104,-0.39820868,-1.532289,-10.620679,0.545878
0.033061963,4.7672343,-0.18825017,-0.3200453,-0.36625075,-1.460463,-10.462662,0.45010993
0.032817688,4.7670403,-0.18825017,-0.3200453,-0.36625075,-1.460463,-10.462662,0.45010993
0.03260021,4.7668695,-0.15842277,-0.35626426,-0.33535808,-1.3503298,-10.366894,0.39264908
0.03238358,4.766699,-0.15842277,-0.35626426,-0.33535808,-1.3503298,-10.366894,0.39264908
0.032195255,4.7665462,-0.13179116,-0.39248326,-0.30020434,-1.1492168,-10.237606,0.35434186
0.03200764,4.7663937,-0.13179116,-0.39248326,-0.30020434,-1.1492168,-10.237606,0.35434186
0.031845007,4.7662544,-0.107290074,-0.4244412,-0.26611587,-0.866701,-10.055647,0.34955344
0.03168308,4.766116,-0.107290074,-0.4244412,-0.26611587,-0.866701,-10.055647,0.34955344
0.031524584,4.7659755,-0.08385425,-0.45320335,-0.23415795,-0.61770403,-9.916783,0.320823
0.031367354,4.765836,-0.08385425,-0.45320335,-0.23415795,-0.61770403,-9.916783,0.320823
0.031130897,4.765686,-0.06467949,-0.47770444,-0.20433055,-0.29209262,-9.801862,0.30166942
0.030895542,4.7655363,-0.06467949,-0.47770444,-0.20433055,-0.29209262,-9.801862,0.30166942
0.03057823,4.765446,-0.04763526,-0.49474865,-0.1755684,0.05746084,-9.706094,0.33997664
0.03026206,4.7653565,-0.04763526,-0.49474865,-0.1755684,0.05746084,-9.706094,0.33997664
0.029952247,4.7653008,-0.031656295,-0.5054013,-0.15213259,0.39264908,-9.624691,0.30645782
0.02964342,4.7652454,-0.031656295,-0.5054013,-0.15213259,0.39264908,-9.624691,0.30645782
0.029347068,4.765219,-0.018873122,-0.50966233,-0.13189256,0.6560113,-9.639056,0.35913026
0.029052217,4.765193,-0.018873122,-0.50966233,-0.13189256,0.6560113,-9.639056,0.35913026
0.028770093,4.765177,-0.009285741,-0.5075318,-0.11697886,0.90500826,-9.605537,0.320823
0.028488832,4.76516,-0.009285741,-0.5075318,-0.11697886,0.90500826,-9.605537,0.320823
0.028218733,4.765151,-0.0007636249,-0.4990097,-0.106326215,1.0486604,-9.552865,0.29209262
0.027949387,4.765142,-0.0007636249,-0.4990097,-0.106326215,1.0486604,-9.552865,0.29209262
0.027691614,4.7651424,0.008823755,-0.4872918,-0.093543045,1.1587936,-9.572019,0.2825158
0.027434759,4.7651434,0.008823755,-0.4872918,-0.093543045,1.1587936,-9.572019,0.2825158
0.027194865,4.7651463,0.017345872,-0.4723781,-0.078629345,1.2066777,-9.562442,0.21547815
0.026955714,4.7651496,0.017345872,-0.4723781,-0.078629345,1.2066777,-9.562442,0.21547815
0.026734762,4.7651453,0.024802722,-0.45213807,-0.06584617,1.2593501,-9.543288,0.02873042
0.026514912,4.7651415,0.024802722,-0.45213807,-0.06584617,1.2593501,-9.543288,0.02873042
0.026307728,4.7651386,0.02906378,-0.42976752,-0.053062994,1.3599066,-9.524135,-0.033518825
0.0260926,4.765136,0.02906378,-0.42976752,-0.053062994,1.3599066,-9.524135,-0.033518825
0.02591577,4.765129,0.031194309,-0.40633172,-0.037084028,1.4221559,-9.476251,-0.1436521
0.02573394,4.765122,0.031194309,-0.40633172,-0.037084028,1.4221559,-9.476251,-0.1436521
0.02573394,4.765122,0.032259572,-0.38183063,-0.02323559,1.4748282,-9.337387,-0.10534488
0.025379067,4.765116,0.032259572,-0.38183063,-0.02323559,1.4748282,-9.337387,-0.10534488
0.025225783,4.765114,0.032259572,-0.355199,-0.01151768,1.5514427,-9.26556,-0.11492168
0.025225783,4.765114,0.032259572,-0.355199,-0.01151768,1.5514427,-9.26556,-0.11492168
0.024948478,4.765109,0.032259572,-0.355199,-0.01151768,1.5514427,-9.26556,-0.11492168
0.024753973,4.76511,0.031194309,-0.3019358,0.005526551,1.6711528,-9.054871,-0.07182605
0.02461041,4.76511,0.031194309,-0.3019358,0.005526551,1.6711528,-9.054871,-0.07182605
0.02447083,4.7651105,0.031194309,-0.3019358,0.005526551,1.6711528,-9.054871,-0.07182605
0.02447083,4.7651105,0.031194309,-0.3019358,0.005526551,1.6711528,-9.054871,-0.07182605
0.02418619,4.7650957,0.02160693,-0.24654204,0.015113931,1.6519991,-8.925584,0.01436521
0.024074072,4.765091,0.02160693,-0.24654204,0.015113931,1.6519991,-8.925584,0.01436521
0.023941422,4.7650857,0.02160693,-0.24654204,0.015113931,1.6519991,-8.925584,0.01436521
0.023813458,4.7650733,0.015215342,-0.21777989,0.018309724,1.6998832,-8.954314,0.0047884034
0.023685431,4.765061,0.015215342,-0.21777989,0.018309724,1.6998832,-8.954314,0.0047884034
0.023565432,4.765036,0.0066932263,-0.18795249,0.023636047,1.7381904,-8.911219,-0.05267244
0.023445431,4.7650113,0.0066932263,-0.18795249,0.023636047,1.7381904,-8.911219,-0.05267244
0.023326717,4.764981,-0.0018288894,-0.1549293,0.024701312,1.7190368,-8.882488,0.0047884034
0.0232082,4.76495,-0.0018288894,-0.1549293,0.024701312,1.7190368,-8.882488,0.0047884034
0.023088096,4.7649145,-0.012481534,-0.12084083,0.023636047,1.7812861,-9.006987,0.10055647
0.02296325,4.764878,-0.012481534,-0.12084083,0.023636047,1.7812861,-9.006987,0.10055647
0.022844186,4.76483,-0.025264706,-0.0856871,0.01724446,1.7286136,-9.02614,0.10055647
0.02272022,4.7647805,-0.025264706,-0.0856871,0.01724446,1.7286136,-9.02614,0.10055647
0.022589557,4.764716,-0.03804788,-0.04946811,0.008722344,1.6472107,-9.059659,0.10534488
0.022458991,4.764652,-0.03804788,-0.04946811,0.008722344,1.6472107,-9.059659,0.10534488
0.022316996,4.764579,-0.052961584,-0.014314385,-0.0029955646,1.5466543,-9.141062,0.22026655
0.022174766,4.7645063,-0.052961584,-0.014314385,-0.0029955646,1.5466543,-9.141062,0.22026655
0.022023588,4.7644186,-0.06787529,0.020839343,-0.013648209,1.4413095,-9.188946,0.25378537
0.021872438,4.7643313,-0.06787529,0.020839343,-0.013648209,1.4413095,-9.188946,0.25378537
0.021709662,4.7642355,-0.08065846,0.054927804,-0.026431382,1.2880806,-9.222465,0.33039984
0.021546792,4.7641397,-0.08065846,0.054927804,-0.026431382,1.2880806,-9.222465,0.33039984
0.021369994,4.7640276,-0.092376366,0.08262468,-0.04241035,1.1348516,-9.308656,0.31124622
0.021193303,4.763916,-0.092376366,0.08262468,-0.04241035,1.1348516,-9.308656,0.31124622
0.021000894,4.763796,-0.10515954,0.10925629,-0.058389317,0.9528923,-9.404425,0.38307226
0.020809209,4.7636766,-0.10515954,0.10925629,-0.058389317,0.9528923,-9.404425,0.38307226
0.020605046,4.7635508,-0.11368166,0.12949632,-0.07117249,0.78529817,-9.380483,0.4165911
0.0204009,4.7634254,-0.11368166,0.12949632,-0.07117249,0.78529817,-9.380483,0.4165911
0.020183442,4.763294,-0.120073244,0.14547528,-0.08502093,0.6512229,-9.481039,0.4357447
0.019966286,4.7631636,-0.120073244,0.14547528,-0.08502093,0.6512229,-9.481039,0.4357447
0.019736024,4.7630253,-0.124334306,0.1571932,-0.09886937,0.5315128,-9.481039,0.4261679
0.019505741,4.762887,-0.124334306,0.1571932,-0.09886937,0.5315128,-9.481039,0.4261679
0.019262739,4.762759,-0.1275301,0.16358478,-0.11165254,0.4213795,-9.524135,0.49320555
0.019019626,4.762631,-0.1275301,0.16358478,-0.11165254,0.4213795,-9.524135,0.49320555
0.018766986,4.7624955,-0.1275301,0.16678058,-0.121239915,0.31124622,-9.495404,0.45968673
0.01851429,4.76236,-0.1275301,0.16678058,-0.121239915,0.31124622,-9.495404,0.45968673
0.018255178,4.7622232,-0.1275301,0.16358478,-0.1276315,0.22505496,-9.461885,0.45489833
0.017996045,4.7620864,-0.1275301,0.16358478,-0.1276315,0.22505496,-9.461885,0.45489833
0.017731484,4.7619476,-0.12646483,0.1571932,-0.13295783,0.20590134,-9.452309,0.44532153
0.017466592,4.7618093,-0.12646483,0.1571932,-0.13295783,0.20590134,-9.452309,0.44532153
0.017196171,4.761667,-0.12646483,0.14867108,-0.13934942,0.17238252,-9.485827,0.4357447
0.016925268,4.761524,-0.12646483,0.14867108,-0.13934942,0.17238252,-9.485827,0.4357447
0.016652852,4.761371,-0.12539956,0.1390837,-0.14361048,0.17238252,-9.437943,0.40222588
0.016380284,4.7612185,-0.12539956,0.1390837,-0.14361048,0.17238252,-9.437943,0.40222588
0.016096862,4.761089,-0.124334306,0.13056158,-0.15000206,0.22026655,-9.485827,0.45489833
0.015813412,4.7609596,-0.124334306,0.13056158,-0.15000206,0.22026655,-9.485827,0.45489833
0.015521453,4.7608466,-0.124334306,0.11990894,-0.15958944,0.25857377,-9.524135,0.50278234
0.015229564,4.7607346,-0.124334306,0.11990894,-0.15958944,0.25857377,-9.524135,0.50278234
0.014933589,4.76063,-0.12539956,0.11032156,-0.16598102,0.2681506,-9.605537,0.5363012
0.014637798,4.7605267,-0.12539956,0.11032156,-0.16598102,0.2681506,-9.605537,0.5363012
0.014353324,4.7604485,-0.124334306,0.10179944,-0.16811156,0.30645782,-9.576807,0.6368576
0.0140692005,4.760371,-0.124334306,0.10179944,-0.16811156,0.30645782,-9.576807,0.6368576
0.013771331,4.760282,-0.124334306,0.09327733,-0.17343788,0.31603462,-9.677363,0.59376204
0.013465707,4.760191,-0.124334306,0.09327733,-0.17343788,0.31603462,-9.677363,0.59376204
0.013165085,4.7601004,-0.122203775,0.087951005,-0.18089473,0.37828386,-9.773131,0.58418524
0.012856581,4.760008,-0.122203775,0.087951005,-0.18089473,0.37828386,-9.773131,0.58418524
0.012551,4.7599306,-0.120073244,0.08475521,-0.18515578,0.272939,-9.873688,0.61291564
0.012246096,4.759854,-0.120073244,0.08475521,-0.18515578,0.272939,-9.873688,0.61291564
0.011970174,4.759809,-0.11794271,0.08368994,-0.18941684,0.17238252,-9.9550905,0.7134721
0.011694584,4.7597647,-0.11794271,0.08368994,-0.18941684,0.17238252,-9.9550905,0.7134721
0.011436133,4.759734,-0.11368166,0.08475521,-0.19154738,0.076614454,-9.988609,0.7038953
0.011178422,4.7597046,-0.11368166,0.08475521,-0.19154738,0.076614454,-9.988609,0.7038953
0.0109354835,4.759686,-0.107290074,0.085820474,-0.19048211,0.01436521,-10.012551,0.6751649
0.010693564,4.759668,-0.107290074,0.085820474,-0.19048211,0.01436521,-10.012551,0.6751649
0.010471515,4.759659,-0.10196375,0.086885735,-0.18515578,-0.009576807,-9.988609,0.6943185
0.010249905,4.75965,-0.10196375,0.086885735,-0.18515578,-0.009576807,-9.988609,0.6943185
0.010053256,4.759651,-0.09557216,0.085820474,-0.17769894,-0.05267244,-10.022128,0.6847417
0.00985751,4.7596517,-0.09557216,0.085820474,-0.17769894,-0.05267244,-10.022128,0.6847417
0.009699877,4.7596602,-0.089180574,0.08475521,-0.16917682,-0.110133275,-10.012551,0.63206923
0.009542819,4.7596684,-0.089180574,0.08475521,-0.16917682,-0.110133275,-10.012551,0.63206923
0.009407818,4.759682,-0.08278899,0.08262468,-0.16171996,-0.1436521,-10.022128,0.6799533
0.009273349,4.759696,-0.08278899,0.08262468,-0.16171996,-0.1436521,-10.022128,0.6799533
0.009114853,4.759718,-0.075332135,0.08155942,-0.15213259,-0.06703765,-10.0269165,0.7230489
0.008956997,4.75974,-0.075332135,0.08155942,-0.15213259,-0.06703765,-10.0269165,0.7230489
0.008792719,4.7597694,-0.06681002,0.07942889,-0.14361048,-0.033518825,-10.022128,0.6991069
0.008629433,4.759799,-0.06681002,0.07942889,-0.14361048,-0.033518825,-10.022128,0.6991069
0.00847787,4.759836,-0.05935317,0.0762331,-0.13508835,-0.02873042,-10.089166,0.7613561
0.0083268825,4.7598734,-0.05935317,0.0762331,-0.13508835,-0.02873042,-10.089166,0.7613561
0.008174007,4.759919,-0.049765788,0.07090677,-0.12656625,-0.009576807,-10.060435,0.7182605
0.008015761,4.759967,-0.049765788,0.07090677,-0.12656625,-0.009576807,-10.060435,0.7182605
0.007875659,4.7600203,-0.041243672,0.06771098,-0.11804412,0,-10.0748005,0.7517793
0.0077231303,4.7600784,-0.041243672,0.06771098,-0.11804412,0,-10.0748005,0.7517793
0.0075858356,4.760136,-0.032721557,0.06344992,-0.10952201,0.023942016,-10.0508585,0.7230489
0.0074429205,4.760196,-0.032721557,0.06344992,-0.10952201,0.023942016,-10.0508585,0.7230489
0.0073106918,4.7602677,-0.022068914,0.060254127,-0.0978041,-0.0047884034,-10.007763,0.6512229
0.0071784365,4.76034,-0.022068914,0.060254127,-0.0978041,-0.0047884034,-10.007763,0.6512229
0.007052113,4.760421,-0.012481534,0.057058334,-0.08395566,-0.0047884034,-9.9550905,0.61770403
0.006927026,4.760502,-0.012481534,0.057058334,-0.08395566,-0.0047884034,-9.9550905,0.61770403
0.0067751613,4.7605762,-0.0028941538,0.054927804,-0.0679767,0.033518825,-9.907207,0.56982
0.0067751613,4.7605762,-0.0028941538,0.054927804,-0.0679767,0.033518825,-9.907207,0.56982
0.0064536603,4.7607484,0.0066932263,0.052797277,-0.053062994,-0.019153614,-9.873688,0.5554548
0.0063644764,4.760833,0.0066932263,0.052797277,-0.053062994,-0.019153614,-9.873688,0.5554548
0.006249854,4.7609234,0.0141500775,0.052797277,-0.039214555,0.076614454,-9.758766,0.60812724
0.006133948,4.761015,0.0141500775,0.052797277,-0.039214555,0.076614454,-9.758766,0.60812724
0.006023506,4.7611065,0.019476399,0.052797277,-0.025366118,0.08619126,-9.639056,0.58897364
0.005910145,4.7612,0.019476399,0.052797277,-0.025366118,0.08619126,-9.639056,0.58897364
0.0057598846,4.7612367,0.025867987,0.05173201,-0.013648209,0.11971009,-9.615114,0.48362875
0.0056095226,4.761273,0.025867987,0.05173201,-0.013648209,0.11971009,-9.615114,0.48362875
0.005470762,4.76132,0.02906378,0.04853622,-0.004060829,0.24899697,-9.643845,0.51235914
0.005331909,4.761367,0.02906378,0.04853622,-0.004060829,0.24899697,-9.643845,0.51235914
0.005196616,4.7614098,0.031194309,0.046405688,0.0012654932,0.320823,-9.624691,0.50278234
0.0050614327,4.761452,0.031194309,0.046405688,0.0012654932,0.320823,-9.624691,0.50278234
0.0049390034,4.7615204,0.031194309,0.046405688,0.0044612866,0.29209262,-9.600749,0.56982
0.0048169605,4.761588,0.031194309,0.046405688,0.0044612866,0.29209262,-9.600749,0.56982
0.004683679,4.7616324,0.030129045,0.043209895,0.0033960221,0.35913026,-9.461885,0.50757074
0.0045509175,4.7616763,0.030129045,0.043209895,0.0033960221,0.35913026,-9.461885,0.50757074
0.004414396,4.761722,0.02906378,0.040014103,-0.0008650357,0.40222588,-9.490616,0.521936
0.0042782505,4.7617674,0.02906378,0.040014103,-0.0008650357,0.40222588,-9.490616,0.521936
0.0041341484,4.7618146,0.025867987,0.03468778,-0.009387151,0.46926352,-9.399636,0.545878
0.0039906027,4.761862,0.025867987,0.03468778,-0.009387151,0.46926352,-9.399636,0.545878
0.003835041,4.761897,0.020541664,0.030426722,-0.018974531,0.49799395,-9.390059,0.521936
0.003679614,4.7619324,0.020541664,0.030426722,-0.018974531,0.49799395,-9.390059,0.521936
0.0035115548,4.7619514,0.016280606,0.026165664,-0.029627176,0.521936,-9.337387,0.47405192
0.0033439524,4.76197,0.016280606,0.026165664,-0.029627176,0.521936,-9.337387,0.47405192
0.003163335,4.761979,0.010954284,0.022969872,-0.041345086,0.521936,-9.323022,0.45489833
0.0029832583,4.761988,0.010954284,0.022969872,-0.041345086,0.521936,-9.323022,0.45489833
0.0027877565,4.76198,0.0045626974,0.018708814,-0.05732405,0.51235914,-9.260772,0.41180268
0.0025922349,4.7619724,0.0045626974,0.018708814,-0.05732405,0.51235914,-9.260772,0.41180268
0.0023831506,4.761953,-0.0039594183,0.013382491,-0.07117249,0.51714754,-9.232041,0.39743748
0.0021746643,4.7619333,-0.0039594183,0.013382491,-0.07117249,0.51714754,-9.232041,0.39743748
0.0019539495,4.761902,-0.0114162695,0.009121433,-0.0828904,0.5554548,-9.222465,0.37349546
0.0017339302,4.7618704,-0.0114162695,0.009121433,-0.0828904,0.5554548,-9.222465,0.37349546
0.0015029472,4.7618313,-0.019938385,0.00592564,-0.093543045,0.5602432,-9.165004,0.37349546
0.0012719778,4.761792,-0.019938385,0.00592564,-0.093543045,0.5602432,-9.165004,0.37349546
0.0010340746,4.76173,-0.029525764,0.0048603755,-0.10526095,0.5602432,-9.150639,0.31124622
0.0007965955,4.7616677,-0.029525764,0.0048603755,-0.10526095,0.5602432,-9.150639,0.31124622
0.00054887956,4.761592,-0.039113145,0.003795111,-0.1159136,0.5746084,-9.174581,0.29209262
0.00030135066,4.7615166,-0.039113145,0.003795111,-0.1159136,0.5746084,-9.174581,0.29209262
4.092651e-05,4.761444,-0.049765788,0.0016645822,-0.124435715,0.6607997,-9.150639,0.33997664
6.282965,4.761372,-0.049765788,0.0016645822,-0.124435715,0.6607997,-9.150639,0.33997664
6.282699,4.761284,-0.0614837,0.0005993177,-0.1308273,0.6464345,-9.150639,0.320823
6.2824335,4.7611957,-0.0614837,0.0005993177,-0.1308273,0.6464345,-9.150639,0.320823
6.2821617,4.7610874,-0.07213634,-0.00046594674,-0.13934942,0.6991069,-9.136273,0.25857377
6.281891,4.7609797,-0.07213634,-0.00046594674,-0.13934942,0.6991069,-9.136273,0.25857377
6.2816043,4.7608747,-0.08385425,-0.0015312112,-0.1489368,0.7278373,-9.14585,0.33518824
6.2813177,4.76077,-0.08385425,-0.0015312112,-0.1489368,0.7278373,-9.14585,0.33518824
6.2810264,4.7606473,-0.0945069,-0.0015312112,-0.15639365,0.770933,-9.188946,0.2873042
6.2807355,4.760525,-0.0945069,-0.0015312112,-0.15639365,0.770933,-9.188946,0.2873042
6.2804346,4.7603884,-0.10515954,-0.0025964756,-0.16598102,0.79487497,-9.222465,0.2633622
6.280135,4.760252,-0.10515954,-0.0025964756,-0.16598102,0.79487497,-9.222465,0.2633622
6.2798223,4.7601147,-0.11474692,-0.0025964756,-0.1755684,0.79008657,-9.227253,0.31603462
6.2795095,4.7599773,-0.11474692,-0.0025964756,-0.1755684,0.79008657,-9.227253,0.31603462
6.27915,4.759795,-0.12646483,-0.0025964756,-0.18515578,0.79487497,-9.260772,0.24420857
6.2788734,4.7596555,-0.12646483,-0.0025964756,-0.18515578,0.79487497,-9.260772,0.24420857
6.2788734,4.7596555,-0.12646483,-0.0025964756,-0.18515578,0.79487497,-9.260772,0.24420857
6.2781143,4.7592664,-0.14883539,0.0027298466,-0.20859161,0.7661445,-9.279925,0.33997664
6.2778707,4.759149,-0.14883539,0.0027298466,-0.20859161,0.7661445,-9.279925,0.33997664
6.2774973,4.758969,-0.14883539,0.0027298466,-0.20859161,0.7661445,-9.279925,0.33997664
6.2771664,4.758792,-0.15948802,0.00592564,-0.21711372,0.7278373,-9.232041,0.2873042
6.276805,4.7585993,-0.15948802,0.00592564,-0.21711372,0.7278373,-9.232041,0.2873042
6.2764525,4.758389,-0.16801015,0.008056169,-0.22457057,0.6703765,-9.208099,0.22505496
6.2764525,4.758389,-0.16801015,0.008056169,-0.22457057,0.6703765,-9.208099,0.22505496
6.2757564,4.7579737,-0.17866279,0.012317227,-0.23202743,0.60812724,-9.193734,0.25857377
6.275399,4.757759,-0.17866279,0.012317227,-0.23202743,0.60812724,-9.193734,0.25857377
6.2750454,4.7575164,-0.18825017,0.01551302,-0.23735374,0.50757074,-9.208099,0.21547815
6.274691,4.7572737,-0.18825017,0.01551302,-0.23735374,0.50757074,-9.208099,0.21547815
6.274323,4.757031,-0.19996808,0.019774077,-0.2416148,0.49799395,-9.23683,0.272939
6.2739553,4.7567883,-0.19996808,0.019774077,-0.2416148,0.49799395,-9.23683,0.272939
6.2735987,4.7565184,-0.21062072,0.021904606,-0.2448106,0.50278234,-9.208099,0.18674773
6.2732434,4.756249,-0.21062072,0.021904606,-0.2448106,0.50278234,-9.208099,0.18674773
6.2728753,4.7559776,-0.22127336,0.0251004,-0.24694112,0.46926352,-9.212888,0.24899697
6.2725067,4.755706,-0.22127336,0.0251004,-0.24694112,0.46926352,-9.212888,0.24899697
6.272121,4.7554584,-0.23086074,0.028296193,-0.24907166,0.5602432,-9.294291,0.34476504
6.271735,4.755211,-0.23086074,0.028296193,-0.24907166,0.5602432,-9.294291,0.34476504
6.271351,4.7549477,-0.24044813,0.031491987,-0.24907166,0.545878,-9.32781,0.32561144
6.2709627,4.7546825,-0.24044813,0.031491987,-0.24907166,0.545878,-9.32781,0.32561144
6.270572,4.754432,-0.24897024,0.033622514,-0.25226745,0.59376204,-9.452309,0.39264908
6.270186,4.754185,-0.24897024,0.033622514,-0.25226745,0.59376204,-9.452309,0.39264908
6.2697897,4.753951,-0.25536183,0.03468778,-0.26078957,0.5746084,-9.528923,0.46926352
6.2693963,4.75372,-0.25536183,0.03468778,-0.26078957,0.5746084,-9.528923,0.46926352
6.2689934,4.753467,-0.2628187,0.03468778,-0.26611587,0.5650316,-9.615114,0.4261679
6.2685895,4.753215,-0.2628187,0.03468778,-0.26611587,0.5650316,-9.615114,0.4261679
6.268204,4.753001,-0.268145,0.032557253,-0.27037695,0.50757074,-9.682152,0.5650316
6.26782,4.7527885,-0.268145,0.032557253,-0.27037695,0.50757074,-9.682152,0.5650316
6.267427,4.7525673,-0.27027553,0.030426722,-0.27357274,0.44532153,-9.744401,0.51235914
6.267034,4.752347,-0.27027553,0.030426722,-0.27357274,0.44532153,-9.744401,0.51235914
6.266666,4.7521496,-0.27027553,0.02723093,-0.274638,0.41180268,-9.830592,0.58418524
6.266299,4.7519526,-0.27027553,0.02723093,-0.274638,0.41180268,-9.830592,0.58418524
6.265915,4.7517476,-0.26707974,0.024035135,-0.27570325,0.4213795,-9.883265,0.5363012
6.265534,4.7515445,-0.26707974,0.024035135,-0.27570325,0.4213795,-9.883265,0.5363012
6.2651873,4.7513657,-0.2628187,0.019774077,-0.27357274,0.35434186,-9.911995,0.58897364
6.2648377,4.751185,-0.2628187,0.019774077,-0.27357274,0.35434186,-9.911995,0.58897364
6.264495,4.7510104,-0.25855762,0.01551302,-0.26931167,0.31124622,-9.974244,0.521936
6.264151,4.750836,-0.25855762,0.01551302,-0.26931167,0.31124622,-9.974244,0.521936
6.2637844,4.7506485,-0.2532313,0.011251962,-0.26292008,0.32561144,-9.998186,0.46926352
6.26342,4.7504625,-0.2532313,0.011251962,-0.26292008,0.32561144,-9.998186,0.46926352
6.263057,4.750277,-0.24790499,0.0069909045,-0.254398,0.34476504,-10.0029745,0.46447513
6.2626967,4.750093,-0.24790499,0.0069909045,-0.254398,0.34476504,-10.0029745,0.46447513
6.262332,4.749904,-0.24257866,0.003795111,-0.24587587,0.30645782,-10.041282,0.4261679
6.261973,4.7497196,-0.24257866,0.003795111,-0.24587587,0.30645782,-10.041282,0.4261679
6.2616115,4.7495403,-0.23618707,0.0005993177,-0.23735374,0.31124622,-10.041282,0.4405331
6.2612987,4.749386,-0.23618707,0.0005993177,-0.23735374,0.31124622,-10.041282,0.4405331
6.2609797,4.7492313,-0.22979549,-0.00366174,-0.22883163,0.34955344,-10.070012,0.47884035
6.2606635,4.7490788,-0.22979549,-0.00366174,-0.22883163,0.34955344,-10.070012,0.47884035
6.260344,4.7489233,-0.22553442,-0.0068575335,-0.22030951,0.33997664,-10.041282,0.45010993
6.260028,4.7487693,-0.22553442,-0.0068575335,-0.22030951,0.33997664,-10.041282,0.45010993
6.259725,4.7486253,-0.21914284,-0.012183856,-0.2117874,0.37349546,-10.0748005,0.48362875
6.259425,4.7484827,-0.21914284,-0.012183856,-0.2117874,0.37349546,-10.0748005,0.48362875
6.259135,4.748348,-0.21168599,-0.016444914,-0.20326528,0.36391866,-10.0269165,0.47405192
6.2588463,4.7482147,-0.21168599,-0.016444914,-0.20326528,0.36391866,-10.0269165,0.47405192
6.2586064,4.7481046,-0.20316388,-0.020705972,-0.19474317,0.33997664,-9.9550905,0.5602432
6.2583675,4.747995,-0.20316388,-0.020705972,-0.19474317,0.33997664,-9.9550905,0.5602432
6.258058,4.7478437,-0.19677228,-0.027097559,-0.18515578,0.4261679,-9.92636,0.4213795
6.2577505,4.7476945,-0.19677228,-0.027097559,-0.18515578,0.4261679,-9.92636,0.4213795
6.257436,4.7474833,-0.19038069,-0.033489145,-0.1755684,0.6512229,-10.041282,0.29688102
6.2571216,4.7472725,-0.19038069,-0.033489145,-0.1755684,0.6512229,-10.041282,0.29688102
6.25681,4.74708,-0.18398911,-0.036684938,-0.17024209,0.6655881,-10.103531,0.33039984
6.2565,4.746888,-0.18398911,-0.036684938,-0.17024209,0.6655881,-10.103531,0.33039984
6.2561913,4.746702,-0.17972806,-0.03881547,-0.1670463,0.6895301,-10.070012,0.33039984
6.255883,4.746516,-0.17972806,-0.03881547,-0.1670463,0.6895301,-10.070012,0.33039984
6.255589,4.74638,-0.17440173,-0.03881547,-0.16491576,0.7230489,-10.04607,0.47884035
6.255294,4.746243,-0.17440173,-0.03881547,-0.16491576,0.7230489,-10.04607,0.47884035
6.2549953,4.7460947,-0.16907541,-0.040945996,-0.16171996,0.7326257,-9.9550905,0.40701428
6.2546983,4.745947,-0.16907541,-0.040945996,-0.16171996,0.7326257,-9.9550905,0.40701428
6.254402,4.7458076,-0.16268381,-0.040945996,-0.15958944,0.770933,-9.864111,0.4213795
6.254105,4.745669,-0.16268381,-0.040945996,-0.15958944,0.770933,-9.864111,0.4213795
6.253804,4.7455196,-0.15948802,-0.04201126,-0.16065471,0.79487497,-9.792285,0.36870706
6.2535043,4.745372,-0.15948802,-0.04201126,-0.16065471,0.79487497,-9.792285,0.36870706
6.253202,4.745222,-0.15842277,-0.04201126,-0.16171996,0.80445176,-9.739613,0.35913026
6.2529006,4.7450733,-0.15842277,-0.04201126,-0.16171996,0.80445176,-9.739613,0.35913026
6.2525973,4.744903,-0.15629223,-0.040945996,-0.16278523,0.7757214,-9.739613,0.272939
6.2522945,4.744733,-0.15629223,-0.040945996,-0.16278523,0.7757214,-9.739613,0.272939
6.251991,4.744557,-0.1573575,-0.03881547,-0.1638505,0.78529817,-9.68694,0.25378537
6.2516875,4.7443824,-0.1573575,-0.03881547,-0.1638505,0.78529817,-9.68694,0.25378537
6.2513843,4.7442064,-0.1573575,-0.037750203,-0.1638505,0.80924016,-9.624691,0.24420857
6.251081,4.744031,-0.1573575,-0.037750203,-0.1638505,0.80924016,-9.624691,0.24420857
6.2507734,4.743862,-0.1573575,-0.033489145,-0.1670463,0.8331822,-9.576807,0.2633622
6.250466,4.7436934,-0.1573575,-0.033489145,-0.1670463,0.8331822,-9.576807,0.2633622
6.2501574,4.7435126,-0.15948802,-0.03242388,-0.17024209,0.8331822,-9.528923,0.22026655
6.2498493,4.743332,-0.15948802,-0.03242388,-0.17024209,0.8331822,-9.528923,0.22026655
6.2495337,4.743149,-0.16268381,-0.031358615,-0.17663367,0.79966336,-9.490616,0.22505496
6.2492185,4.742966,-0.16268381,-0.031358615,-0.17663367,0.79966336,-9.490616,0.22505496
6.248895,4.742779,-0.16481435,-0.029228088,-0.18515578,0.7422025,-9.485827,0.22505496
6.2485723,4.742593,-0.16481435,-0.029228088,-0.18515578,0.7422025,-9.485827,0.22505496
6.248241,4.742407,-0.17014067,-0.026032293,-0.19154738,0.7134721,-9.461885,0.24420857
6.247911,4.742222,-0.17014067,-0.026032293,-0.19154738,0.7134721,-9.461885,0.24420857
6.247583,4.742009,-0.175467,-0.021771235,-0.19580843,0.7278373,-9.433155,0.17238252
6.247256,4.7417974,-0.175467,-0.021771235,-0.19580843,0.7278373,-9.433155,0.17238252
6.246918,4.741593,-0.18185858,-0.016444914,-0.20006949,0.6991069,-9.442732,0.22026655
6.2465806,4.7413893,-0.18185858,-0.016444914,-0.20006949,0.6991069,-9.442732,0.22026655
6.2462387,4.7411838,-0.18931544,-0.011118591,-0.20326528,0.7134721,-9.409213,0.22984336
6.245897,4.7409782,-0.18931544,-0.011118591,-0.20326528,0.7134721,-9.409213,0.22984336
6.2455544,4.7407656,-0.19570702,-0.005792269,-0.20433055,0.6655881,-9.433155,0.22984336
6.245212,4.740553,-0.19570702,-0.005792269,-0.20433055,0.6655881,-9.433155,0.22984336
6.2448654,4.7403483,-0.20316388,0.0005993177,-0.20646107,0.62728083,-9.457097,0.2633622
6.244519,4.7401447,-0.20316388,0.0005993177,-0.20646107,0.62728083,-9.457097,0.2633622
6.2441726,4.7399497,-0.21062072,0.008056169,-0.20859161,0.6368576,-9.461885,0.29209262
6.2438273,4.7397566,-0.21062072,0.008056169,-0.20859161,0.6368576,-9.461885,0.29209262
6.2434826,4.739572,-0.21594705,0.012317227,-0.2117874,0.5267244,-9.5385,0.29688102
6.2431397,4.7393904,-0.21594705,0.012317227,-0.2117874,0.5267244,-9.5385,0.29688102
6.2428074,4.7392197,-0.22127336,0.016578285,-0.2117874,0.5363012,-9.56723,0.320823
6.2424774,4.739051,-0.22127336,0.016578285,-0.2117874,0.5363012,-9.56723,0.320823
6.242173,4.7388983,-0.2265997,0.020839343,-0.2117874,0.5267244,-9.65821,0.36391866
6.2418714,4.7387486,-0.2265997,0.020839343,-0.2117874,0.5267244,-9.65821,0.36391866
6.2415624,4.7385902,-0.22979549,0.021904606,-0.2117874,0.49799395,-9.68694,0.32561144
6.241256,4.738434,-0.22979549,0.021904606,-0.2117874,0.49799395,-9.68694,0.32561144
6.2410135,4.7382975,-0.23405655,0.024035135,-0.21285266,0.4309563,-9.672575,0.33039984
6.240774,4.738162,-0.23405655,0.024035135,-0.21285266,0.4309563,-9.672575,0.33039984
6.240544,4.738025,-0.23618707,0.022969872,-0.2149832,0.4357447,-9.763555,0.38307226
6.2403154,4.7378883,-0.23618707,0.022969872,-0.2149832,0.4357447,-9.763555,0.38307226
6.2400894,4.7377515,-0.23618707,0.019774077,-0.21711372,0.4357447,-9.763555,0.4165911
6.239865,4.7376156,-0.23618707,0.019774077,-0.21711372,0.4357447,-9.763555,0.4165911
6.2396564,4.7374773,-0.23725234,0.016578285,-0.21924424,0.4165911,-9.849746,0.34476504
6.2394505,4.7373395,-0.23725234,0.016578285,-0.21924424,0.4165911,-9.849746,0.34476504
6.239274,4.737196,-0.2383176,0.013382491,-0.22030951,0.40222588,-9.830592,0.30645782
6.2390943,4.7370486,-0.2383176,0.013382491,-0.22030951,0.40222588,-9.830592,0.30645782
6.2389784,4.7368784,-0.24044813,0.008056169,-0.22244005,0.36391866,-9.835381,0.2873042
6.238859,4.7367063,-0.24044813,0.008056169,-0.22244005,0.36391866,-9.835381,0.2873042
6.2386813,4.736558,-0.24044813,0.0005993177,-0.22563584,0.39264908,-9.907207,0.33039984
6.238506,4.7364106,-0.24044813,0.0005993177,-0.22563584,0.39264908,-9.907207,0.33039984
6.2383065,4.7362647,-0.24151339,-0.0068575335,-0.23096216,0.39743748,-9.969456,0.38307226
6.238109,4.7361193,-0.24151339,-0.0068575335,-0.23096216,0.39743748,-9.969456,0.38307226
6.237869,4.7359734,-0.24364392,-0.01324912,-0.23841901,0.45489833,-10.041282,0.36870706
6.237632,4.735829,-0.24364392,-0.01324912,-0.23841901,0.45489833,-10.041282,0.36870706
6.2373905,4.7356815,-0.24470918,-0.018575443,-0.2448106,0.45010993,-10.0508585,0.40222588
6.237152,4.735535,-0.24470918,-0.018575443,-0.2448106,0.45010993,-10.0508585,0.40222588
6.2368903,4.7353864,-0.24577445,-0.02496703,-0.2501369,0.49320555,-10.055647,0.49799395
6.23663,4.735238,-0.24577445,-0.02496703,-0.2501369,0.49320555,-10.055647,0.49799395
6.2363625,4.7350907,-0.24470918,-0.029228088,-0.25759378,0.50278234,-10.13705,0.5410896
6.236095,4.734943,-0.24470918,-0.029228088,-0.25759378,0.50278234,-10.13705,0.5410896
6.235815,4.7347946,-0.24470918,-0.035619672,-0.26292008,0.5315128,-10.160992,0.5410896
6.235537,4.7346463,-0.24470918,-0.035619672,-0.26292008,0.5315128,-10.160992,0.5410896
6.235259,4.734501,-0.24151339,-0.04201126,-0.2714422,0.50278234,-10.146626,0.60333884
6.234986,4.734358,-0.24151339,-0.04201126,-0.2714422,0.50278234,-10.146626,0.60333884
6.234675,4.73421,-0.23725234,-0.04627232,-0.27889907,0.58418524,-10.204087,0.6607997
6.234383,4.7340717,-0.23725234,-0.04627232,-0.27889907,0.58418524,-10.204087,0.6607997
6.234079,4.733931,-0.23192601,-0.050533377,-0.2863559,0.521936,-10.19451,0.5793968
6.2337937,4.733799,-0.23192601,-0.050533377,-0.2863559,0.521936,-10.19451,0.5793968
6.2335014,4.733663,-0.22766495,-0.052663904,-0.28848645,0.48362875,-10.175357,0.5554548
6.233222,4.733533,-0.22766495,-0.052663904,-0.28848645,0.48362875,-10.175357,0.5554548
6.232939,4.733407,-0.22233863,-0.0558597,-0.28848645,0.49799395,-10.199299,0.521936
6.2326584,4.733283,-0.22233863,-0.0558597,-0.28848645,0.49799395,-10.199299,0.521936
6.2323794,4.733157,-0.21594705,-0.057990227,-0.28742117,0.45968673,-10.199299,0.48841715
6.232117,4.7330384,-0.21594705,-0.057990227,-0.28742117,0.45968673,-10.199299,0.48841715
6.232117,4.7330384,-0.21594705,-0.057990227,-0.28742117,0.45968673,-10.199299,0.48841715
6.231637,4.73282,-0.20955546,-0.059055492,-0.2863559,0.4213795,-10.141838,0.50757074
6.231326,4.7326765,-0.20422913,-0.06118602,-0.28422537,0.40701428,-10.1226845,0.46447513
6.231063,4.7325535,-0.20422913,-0.06118602,-0.28422537,0.40701428,-10.1226845,0.46447513
6.230868,4.7324705,-0.19677228,-0.06331655,-0.27996433,0.4165911,-10.13705,0.50757074
6.230613,4.732362,-0.19677228,-0.06331655,-0.27996433,0.4165911,-10.13705,0.50757074
6.2303853,4.7322655,-0.18825017,-0.06544708,-0.27357274,0.40701428,-10.117896,0.47405192
6.230149,4.7321653,-0.18825017,-0.06544708,-0.27357274,0.40701428,-10.117896,0.47405192
6.2299323,4.732081,-0.18185858,-0.06757761,-0.26611587,0.4357447,-10.113108,0.46926352
6.2297025,4.7319913,-0.18185858,-0.06757761,-0.26611587,0.4357447,-10.113108,0.46926352
6.2294774,4.731907,-0.175467,-0.06970814,-0.2597243,0.4405331,-10.079589,0.45489833
6.229254,4.731823,-0.175467,-0.06970814,-0.2597243,0.4405331,-10.079589,0.45489833
6.229021,4.73175,-0.16694488,-0.07183866,-0.2512022,0.49799395,-10.01734,0.40701428
6.2287903,4.731677,-0.16694488,-0.07183866,-0.2512022,0.49799395,-10.01734,0.40701428
6.228531,4.731613,-0.15842277,-0.07503446,-0.24054953,0.5793968,-10.022128,0.39264908
6.228274,4.731549,-0.15842277,-0.07503446,-0.24054953,0.5793968,-10.022128,0.39264908
6.2280188,4.731489,-0.15309644,-0.077164985,-0.23309268,0.59855044,-10.01734,0.4165911
6.2277646,4.731429,-0.15309644,-0.077164985,-0.23309268,0.59855044,-10.01734,0.4165911
6.2275023,4.7313724,-0.14883539,-0.079295516,-0.22776636,0.6368576,-10.012551,0.4165911
6.22724,4.7313147,-0.14883539,-0.079295516,-0.22776636,0.6368576,-10.012551,0.4165911
6.226957,4.7312574,-0.14244379,-0.08142605,-0.22244005,0.7038953,-9.969456,0.40701428
6.2266746,4.7312,-0.14244379,-0.08142605,-0.22244005,0.7038953,-9.969456,0.40701428
6.2263565,4.7311263,-0.13711748,-0.0856871,-0.21604845,0.79008657,-9.940725,0.33997664
6.226039,4.7310534,-0.13711748,-0.0856871,-0.21604845,0.79008657,-9.940725,0.33997664
6.22572,4.7309823,-0.13072589,-0.091013424,-0.2117874,0.8523358,-9.921572,0.35913026
6.2254024,4.7309117,-0.13072589,-0.091013424,-0.2117874,0.8523358,-9.921572,0.35913026
6.225063,4.730818,-0.12539956,-0.093143955,-0.20859161,0.91937345,-9.902418,0.2825158
6.224724,4.7307253,-0.12539956,-0.093143955,-0.20859161,0.91937345,-9.902418,0.2825158
6.224397,4.730651,-0.120073244,-0.09633975,-0.20646107,0.9672575,-9.873688,0.34955344
6.2240705,4.7305775,-0.120073244,-0.09633975,-0.20646107,0.9672575,-9.873688,0.34955344
6.2237406,4.730504,-0.11368166,-0.09740501,-0.20539582,1.067814,-9.883265,0.35913026
6.223411,4.730431,-0.11368166,-0.09740501,-0.20539582,1.067814,-9.883265,0.35913026
6.223069,4.730332,-0.1094206,-0.09847028,-0.20220003,1.0821792,-9.854534,0.23463176
6.222728,4.730233,-0.1094206,-0.09847028,-0.20220003,1.0821792,-9.854534,0.23463176
6.222392,4.7301536,-0.10515954,-0.09740501,-0.20220003,1.1923125,-9.80665,0.31603462
6.2220564,4.7300744,-0.10515954,-0.09740501,-0.20220003,1.1923125,-9.80665,0.31603462
6.2217207,4.7299957,-0.09983322,-0.09420922,-0.20006949,1.1971009,-9.821015,0.29209262
6.2213855,4.729917,-0.09983322,-0.09420922,-0.20006949,1.1971009,-9.821015,0.29209262
6.2210484,4.7298336,-0.09557216,-0.08888289,-0.19793896,1.2593501,-9.787497,0.25378537
6.220712,4.72975,-0.09557216,-0.08888289,-0.19793896,1.2593501,-9.787497,0.25378537
6.2203774,4.729679,-0.09024584,-0.08355658,-0.19793896,1.2401965,-9.739613,0.2825158
6.220043,4.7296085,-0.09024584,-0.08355658,-0.19793896,1.2401965,-9.739613,0.2825158
6.2197065,4.729532,-0.08705004,-0.077164985,-0.19793896,1.2401965,-9.662998,0.23463176
6.2193694,4.729455,-0.08705004,-0.077164985,-0.19793896,1.2401965,-9.662998,0.23463176
6.2190394,4.7293887,-0.08598478,-0.06970814,-0.1936779,1.2593501,-9.629479,0.2777274
6.2187095,4.7293224,-0.08598478,-0.06970814,-0.1936779,1.2593501,-9.629479,0.2777274
6.218382,4.729246,-0.08491952,-0.06118602,-0.18835159,1.2641385,-9.610326,0.22026655
6.2180543,4.7291703,-0.08491952,-0.06118602,-0.18835159,1.2641385,-9.610326,0.22026655
6.217732,4.729101,-0.08385425,-0.050533377,-0.18409052,1.2401965,-9.572019,0.23942018
6.2174087,4.7290316,-0.08385425,-0.050533377,-0.18409052,1.2401965,-9.572019,0.23942018
6.2170877,4.728948,-0.08278899,-0.03881547,-0.1787642,1.2162545,-9.519346,0.16759412
6.216768,4.7288656,-0.08278899,-0.03881547,-0.1787642,1.2162545,-9.519346,0.16759412
6.216457,4.728774,-0.08385425,-0.026032293,-0.17343788,1.1971009,-9.44752,0.12928689
6.216144,4.728683,-0.08385425,-0.026032293,-0.17343788,1.1971009,-9.44752,0.12928689
6.2158375,4.7285852,-0.08598478,-0.015379649,-0.1670463,1.1300632,-9.394848,0.11492168
6.2155313,4.728488,-0.08598478,-0.015379649,-0.1670463,1.1300632,-9.394848,0.11492168
6.215229,4.728385,-0.08811531,-0.00366174,-0.16278523,1.1204864,-9.414001,0.10055647
6.2149277,4.728282,-0.08811531,-0.00366174,-0.16278523,1.1204864,-9.414001,0.10055647
6.2146325,4.728172,-0.091311105,0.00592564,-0.15745892,1.0821792,-9.370906,0.08619126
6.2143373,4.7280617,-0.091311105,0.00592564,-0.15745892,1.0821792,-9.370906,0.08619126
6.214049,4.727948,-0.09557216,0.014447756,-0.15106732,1.0965444,-9.351752,0.08619126
6.21376,4.7278357,-0.09557216,0.014447756,-0.15106732,1.0965444,-9.351752,0.08619126
6.2134743,4.727728,-0.10089848,0.022969872,-0.14680627,1.115698,-9.356541,0.11492168
6.213188,4.72762,-0.10089848,0.022969872,-0.14680627,1.115698,-9.356541,0.11492168
6.212905,4.7275105,-0.106224805,0.029361458,-0.14361048,1.1013328,-9.294291,0.12449849
6.212622,4.7274017,-0.106224805,0.029361458,-0.14361048,1.1013328,-9.294291,0.12449849
6.212348,4.7272654,-0.11048587,0.035753045,-0.13934942,1.0821792,-9.313444,0.05267244
6.2120743,4.7271304,-0.11048587,0.035753045,-0.13934942,1.0821792,-9.313444,0.05267244
6.2117987,4.727,-0.11474692,0.040014103,-0.13828415,1.115698,-9.332599,0.076614454
6.211523,4.7268696,-0.11474692,0.040014103,-0.13828415,1.115698,-9.332599,0.076614454
6.211251,4.726737,-0.120073244,0.045340426,-0.13508835,1.1300632,-9.299079,0.08140286
6.2109694,4.7266006,-0.120073244,0.045340426,-0.13508835,1.1300632,-9.299079,0.08140286
6.2107034,4.726462,-0.12539956,0.049601484,-0.1340231,1.067814,-9.351752,0.076614454
6.210433,4.7263207,-0.12539956,0.049601484,-0.1340231,1.067814,-9.351752,0.076614454
6.210159,4.7261977,-0.13072589,0.053862542,-0.1372189,1.1300632,-9.375694,0.1388637
6.2098827,4.7260737,-0.13072589,0.053862542,-0.1372189,1.1300632,-9.375694,0.1388637
6.209604,4.7259626,-0.13711748,0.0581236,-0.14361048,1.1492168,-9.361329,0.20111294
6.209325,4.725852,-0.13711748,0.0581236,-0.14361048,1.1492168,-9.361329,0.20111294
6.209037,4.725726,-0.14457433,0.062384658,-0.15106732,1.1204864,-9.3421755,0.16759412
6.2087517,4.725602,-0.14457433,0.062384658,-0.15106732,1.1204864,-9.3421755,0.16759412
6.208469,4.7255,-0.15096591,0.06664571,-0.15958944,1.0965444,-9.375694,0.2633622
6.2081814,4.725397,-0.15096591,0.06664571,-0.15958944,1.0965444,-9.375694,0.2633622
6.2078786,4.7252684,-0.1573575,0.06771098,-0.16811156,1.0295067,-9.404425,0.17717093
6.2075777,4.7251406,-0.1573575,0.06771098,-0.16811156,1.0295067,-9.404425,0.17717093
6.207283,4.725035,-0.16268381,0.069841504,-0.17663367,1.0247183,-9.442732,0.25378537
6.206988,4.72493,-0.16268381,0.069841504,-0.17663367,1.0247183,-9.442732,0.25378537
6.206706,4.724839,-0.16801015,0.069841504,-0.18728632,0.93373865,-9.457097,0.2777274
6.206425,4.7247496,-0.16801015,0.069841504,-0.18728632,0.93373865,-9.457097,0.2777274
6.206158,4.724666,-0.1722712,0.07090677,-0.19474317,0.91937345,-9.504981,0.33039984
6.2058916,4.7245836,-0.1722712,0.07090677,-0.19474317,0.91937345,-9.504981,0.33039984
6.20562,4.724498,-0.17759752,0.069841504,-0.20433055,0.89543146,-9.490616,0.31603462
6.205349,4.724412,-0.17759752,0.069841504,-0.20433055,0.89543146,-9.490616,0.31603462
6.205094,4.72433,-0.18185858,0.06771098,-0.21391793,0.80924016,-9.543288,0.25857377
6.20484,4.7242484,-0.18185858,0.06771098,-0.21391793,0.80924016,-9.543288,0.25857377
6.2046113,4.724166,-0.18505438,0.062384658,-0.22137478,0.7613561,-9.605537,0.2681506
6.2043824,4.724083,-0.18505438,0.062384658,-0.22137478,0.7613561,-9.605537,0.2681506
6.2041945,4.7239966,-0.1871849,0.05918886,-0.2267011,0.7086837,-9.56723,0.22984336
6.2040124,4.7239113,-0.1871849,0.05918886,-0.2267011,0.7086837,-9.56723,0.22984336
6.203845,4.723816,-0.18931544,0.057058334,-0.23096216,0.62249243,-9.624691,0.31124622
6.203677,4.7237196,-0.18931544,0.057058334,-0.23096216,0.62249243,-9.624691,0.31124622
6.2035484,4.723601,-0.19038069,0.052797277,-0.23202743,0.5315128,-9.65821,0.2633622
6.2034197,4.723481,-0.19038069,0.052797277,-0.23202743,0.5315128,-9.65821,0.2633622
6.203298,4.723353,-0.19144596,0.04853622,-0.23309268,0.49320555,-9.643845,0.25378537
6.2031775,4.7232256,-0.19144596,0.04853622,-0.23309268,0.49320555,-9.643845,0.25378537
6.203057,4.723095,-0.19144596,0.043209895,-0.23309268,0.4309563,-9.615114,0.2777274
6.2029366,4.7229652,-0.19144596,0.043209895,-0.23309268,0.4309563,-9.615114,0.2777274
6.2028294,4.7228236,-0.19144596,0.035753045,-0.22989689,0.320823,-9.591172,0.272939
6.2027216,4.722682,-0.19144596,0.035753045,-0.22989689,0.320823,-9.591172,0.272939
6.2026277,4.7225266,-0.19038069,0.02723093,-0.22563584,0.32561144,-9.648633,0.21068975
6.202534,4.722372,-0.19038069,0.02723093,-0.22563584,0.32561144,-9.648633,0.21068975
6.2024403,4.7222247,-0.1871849,0.01551302,-0.22137478,0.32561144,-9.557653,0.22984336
6.202347,4.722078,-0.1871849,0.01551302,-0.22137478,0.32561144,-9.557653,0.22984336
6.202257,4.7219343,-0.18505438,0.003795111,-0.21604845,0.36391866,-9.543288,0.22505496
6.2021675,4.7217917,-0.18505438,0.003795111,-0.21604845,0.36391866,-9.543288,0.22505496
6.2020926,4.7216306,-0.18292385,-0.008988062,-0.21072213,0.3878607,-9.557653,0.15322891
6.202018,4.72147,-0.18292385,-0.008988062,-0.21072213,0.3878607,-9.557653,0.15322891
6.201941,4.7213235,-0.17972806,-0.023901764,-0.20646107,0.4405331,-9.519346,0.17717093
6.2018642,4.721178,-0.17972806,-0.023901764,-0.20646107,0.4405331,-9.519346,0.17717093
6.2017922,4.7210283,-0.17653225,-0.036684938,-0.20433055,0.5267244,-9.514558,0.1388637
6.2017207,4.7208796,-0.17653225,-0.036684938,-0.20433055,0.5267244,-9.514558,0.1388637
6.2016535,4.72073,-0.175467,-0.048402846,-0.20006949,0.5315128,-9.476251,0.1340753
6.201586,4.720581,-0.175467,-0.048402846,-0.20006949,0.5315128,-9.476251,0.1340753
6.2015266,4.720418,-0.17333646,-0.060120758,-0.1968737,0.61770403,-9.509769,0.095768064
6.201467,4.720257,-0.17333646,-0.060120758,-0.1968737,0.61770403,-9.509769,0.095768064
6.2013354,4.7201676,-0.1722712,-0.07290393,-0.19261263,0.7230489,-9.457097,0.14844051
6.2012043,4.720078,-0.1722712,-0.07290393,-0.19261263,0.7230489,-9.457097,0.14844051
6.200975,4.7199945,-0.1722712,-0.08249131,-0.18941684,0.78050977,-9.404425,0.090979666
6.2007575,4.719913,-0.1722712,-0.08249131,-0.18941684,0.78050977,-9.404425,0.090979666
6.2004395,4.7197733,-0.17120594,-0.08994816,-0.18835159,0.8475474,-9.476251,0.090979666
6.2001247,4.7196383,-0.17120594,-0.08994816,-0.18835159,0.8475474,-9.476251,0.090979666
6.199802,4.71944,-0.16907541,-0.09420922,-0.18515578,0.8858546,-9.433155,0.05267244
6.1994786,4.719243,-0.16907541,-0.09420922,-0.18515578,0.8858546,-9.433155,0.05267244
6.1991706,4.7190228,-0.16907541,-0.09847028,-0.18089473,1.0055647,-9.404425,-0.009576807
6.1988635,4.718803,-0.16907541,-0.09847028,-0.18089473,1.0055647,-9.404425,-0.009576807
6.198569,4.718568,-0.17014067,-0.09847028,-0.17663367,1.0007763,-9.399636,-0.038307227
6.198275,4.718334,-0.17014067,-0.09847028,-0.17663367,1.0007763,-9.399636,-0.038307227
6.1979747,4.718109,-0.17014067,-0.09740501,-0.1755684,1.1013328,-9.375694,-0.05746084
6.1976743,4.717884,-0.17014067,-0.09740501,-0.1755684,1.1013328,-9.375694,-0.05746084
6.197368,4.717672,-0.17120594,-0.095274486,-0.17237261,1.1731589,-9.41879,-0.038307227
6.1970634,4.7174606,-0.17120594,-0.095274486,-0.17237261,1.1731589,-9.41879,-0.038307227
6.196761,4.717245,-0.17333646,-0.091013424,-0.16917682,1.2593501,-9.423578,-0.06703765
6.196459,4.717029,-0.17333646,-0.091013424,-0.16917682,1.2593501,-9.423578,-0.06703765
6.196157,4.716813,-0.17440173,-0.08675237,-0.16917682,1.2880806,-9.409213,-0.076614454
6.195855,4.716598,-0.17440173,-0.08675237,-0.16917682,1.2880806,-9.409213,-0.076614454
6.1955476,4.7163873,-0.17653225,-0.08036078,-0.17130736,1.3838485,-9.3661175,-0.07182605
6.1952415,4.7161775,-0.17653225,-0.08036078,-0.17130736,1.3838485,-9.3661175,-0.07182605
6.194936,4.7159586,-0.17866279,-0.07183866,-0.17130736,1.3934253,-9.337387,-0.10534488
6.1946316,4.715741,-0.17866279,-0.07183866,-0.17130736,1.3934253,-9.337387,-0.10534488
6.1942787,4.7154927,-0.18079332,-0.064381815,-0.17237261,1.4077905,-9.3421755,-0.095768064
6.194003,4.715299,-0.18079332,-0.064381815,-0.17237261,1.4077905,-9.3421755,-0.095768064
6.194003,4.715299,-0.18079332,-0.064381815,-0.17237261,1.4077905,-9.3421755,-0.095768064
6.193396,4.714861,-0.18398911,-0.054794434,-0.17450315,1.412579,-9.385271,-0.11492168
6.193081,4.714636,-0.1871849,-0.044141788,-0.1755684,1.3982137,-9.437943,-0.10055647
6.1927743,4.7144165,-0.1871849,-0.044141788,-0.1755684,1.3982137,-9.437943,-0.10055647
6.192455,4.714181,-0.19038069,-0.03242388,-0.17663367,1.3742718,-9.500193,-0.11492168
6.192455,4.714181,-0.19038069,-0.03242388,-0.17663367,1.3742718,-9.500193,-0.11492168
6.1918254,4.713745,-0.19464175,-0.020705972,-0.17663367,1.3359646,-9.5385,-0.05267244
6.1915326,4.7135444,-0.19464175,-0.020705972,-0.17663367,1.3359646,-9.5385,-0.05267244
6.191225,4.7133136,-0.19570702,-0.0068575335,-0.17343788,1.2737153,-9.586384,-0.08619126
6.19092,4.7130857,-0.19570702,-0.0068575335,-0.17343788,1.2737153,-9.586384,-0.08619126
6.1906123,4.7128735,-0.19677228,0.0069909045,-0.17024209,1.1875241,-9.629479,-0.02873042
6.190303,4.712661,-0.19677228,0.0069909045,-0.17024209,1.1875241,-9.629479,-0.02873042
6.190007,4.712425,-0.19783755,0.018708814,-0.16598102,1.1540052,-9.725247,-0.07182605
6.189713,4.7121916,-0.19783755,0.018708814,-0.16598102,1.1540052,-9.725247,-0.07182605
6.189421,4.712029,-0.19783755,0.030426722,-0.15852417,1.1587936,-9.811439,0.05746084
6.189132,4.7118683,-0.19783755,0.030426722,-0.15852417,1.1587936,-9.811439,0.05746084
6.188848,4.7117033,-0.19570702,0.04107937,-0.15000206,1.0773908,-9.840169,0.023942016
6.1885633,4.7115393,-0.19570702,0.04107937,-0.15000206,1.0773908,-9.840169,0.023942016
6.188321,4.71142,-0.19144596,0.04853622,-0.13934942,1.0486604,-9.89763,0.062249243
6.188081,4.7113013,-0.19144596,0.04853622,-0.13934942,1.0486604,-9.89763,0.062249243
6.187842,4.7111816,-0.18505438,0.054927804,-0.1276315,1.0007763,-9.988609,0.01436521
6.1876035,4.7110634,-0.18505438,0.054927804,-0.1276315,1.0007763,-9.988609,0.01436521
6.1875286,4.710987,-0.17759752,0.05918886,-0.11378307,0.93373865,-10.0029745,0.047884032
6.187454,4.7109103,-0.17759752,0.05918886,-0.11378307,0.93373865,-10.0029745,0.047884032
6.187378,4.710846,-0.16801015,0.061319392,-0.09673884,0.94331545,-10.070012,0.10055647
6.187301,4.7107825,-0.16801015,0.061319392,-0.09673884,0.94331545,-10.070012,0.10055647
6.187255,4.7107267,-0.1573575,0.062384658,-0.0828904,0.94331545,-10.1226845,0.062249243
6.1872087,4.710671,-0.1573575,0.062384658,-0.0828904,0.94331545,-10.1226845,0.062249243
6.1871686,4.7106285,-0.1456396,0.06451519,-0.0679767,0.92416185,-10.156203,0.16759412
6.1871285,4.710586,-0.1456396,0.06451519,-0.0679767,0.92416185,-10.156203,0.16759412
6.1871014,4.7105584,-0.13179116,0.06664571,-0.0498672,0.91458505,-10.132261,0.23942018
6.1870747,4.7105303,-0.13179116,0.06664571,-0.0498672,0.91458505,-10.132261,0.23942018
6.1870737,4.710514,-0.11900798,0.06664571,-0.031757705,0.90021986,-10.170568,0.22984336
6.1870728,4.710498,-0.11900798,0.06664571,-0.031757705,0.90021986,-10.170568,0.22984336
6.187099,4.710493,-0.10515954,0.06771098,-0.015778739,0.8810662,-10.175357,0.20111294
6.187125,4.710489,-0.10515954,0.06771098,-0.015778739,0.8810662,-10.175357,0.20111294
6.1871533,4.710502,-0.09024584,0.06771098,-0.0008650357,0.90979666,-10.108319,0.19153613
6.1871815,4.710515,-0.09024584,0.06771098,-0.0008650357,0.90979666,-10.108319,0.19153613
6.187215,4.7105417,-0.077462666,0.06771098,0.014048667,0.93852705,-10.079589,0.1436521
6.1872478,4.7105694,-0.077462666,0.06771098,0.014048667,0.93852705,-10.079589,0.1436521
6.18732,4.710605,-0.06467949,0.06877624,0.027897105,0.8858546,-10.089166,0.15801731
6.187392,4.7106404,-0.06467949,0.06877624,0.027897105,0.8858546,-10.089166,0.15801731
6.187465,4.710693,-0.050831053,0.06877624,0.042810805,0.90500826,-10.070012,0.18195933
6.1875377,4.710746,-0.050831053,0.06877624,0.042810805,0.90500826,-10.070012,0.18195933
6.1876616,4.710815,-0.03804788,0.06451519,0.058789775,0.8810662,-10.007763,0.12928689
6.187756,4.7108684,-0.03804788,0.06451519,0.058789775,0.8810662,-10.007763,0.12928689
6.187867,4.71095,-0.026329972,0.061319392,0.06944242,0.90021986,-9.988609,0.1436521
6.1879625,4.7110205,-0.026329972,0.061319392,0.06944242,0.90021986,-9.988609,0.1436521
6.18808,4.7111015,-0.015677327,0.057058334,0.0790298,0.89064306,-9.964667,0.11971009
6.188201,4.7111855,-0.015677327,0.057058334,0.0790298,0.89064306,-9.964667,0.11971009
6.1884127,4.711231,-0.0050246827,0.052797277,0.087551914,0.8810662,-9.864111,0.009576807
6.188623,4.7112775,-0.0050246827,0.052797277,0.087551914,0.8810662,-9.864111,0.009576807
6.188814,4.711357,0.003497433,0.050666746,0.0939435,0.8810662,-9.864111,0.02873042
6.1890044,4.711437,0.003497433,0.050666746,0.0939435,0.8810662,-9.864111,0.02873042
6.1892424,4.711476,0.012019549,0.047470953,0.10140035,0.90021986,-9.835381,-0.0047884034
6.18948,4.711514,0.012019549,0.047470953,0.10140035,0.90021986,-9.835381,-0.0047884034
6.1894755,4.711477,0.018411135,0.04214463,0.10779194,0.9576807,-9.782708,-0.02873042
6.1894703,4.71144,0.018411135,0.04214463,0.10779194,0.9576807,-9.782708,-0.02873042
