Pitch,Roll,Gyro_X,Gyro_Y,Gyro_Z,Accel_X,Accel_Y,Accel_Z
0.08116899,4.595249,0.024802722,0.03468778,-0.092477776,-0.7326257,-9.394848,-1.1061212
0.080713734,4.5952487,0.027998514,0.032557253,-0.091412514,-0.6943185,-9.423578,-1.13964
0.08049991,4.595225,0.027998514,0.032557253,-0.091412514,-0.6943185,-9.423578,-1.13964
0.08028435,4.5952044,0.031194309,0.030426722,-0.092477776,-0.7134721,-9.385271,-1.1252748
0.0800698,4.595182,0.031194309,0.030426722,-0.092477776,-0.7134721,-9.385271,-1.1252748
0.07983555,4.595221,0.03545537,0.028296193,-0.092477776,-0.6560113,-9.3421755,-1.0965444
0.07960009,4.5952597,0.03545537,0.028296193,-0.092477776,-0.6560113,-9.3421755,-1.0965444
0.07938358,4.5953436,0.037585896,0.02723093,-0.091412514,-0.6703765,-9.337387,-1.067814
0.079166755,4.595428,0.037585896,0.02723093,-0.091412514,-0.6703765,-9.337387,-1.067814
0.078993656,4.5955486,0.041846953,0.028296193,-0.08715145,-0.6560113,-9.3182335,-1.0103531
0.07882111,4.5956693,0.041846953,0.028296193,-0.08715145,-0.6560113,-9.3182335,-1.0103531
0.07860172,4.595745,0.04610801,0.028296193,-0.08395566,-0.6607997,-9.356541,-1.0773908
0.07838175,4.5958214,0.04610801,0.028296193,-0.08395566,-0.6607997,-9.356541,-1.0773908
0.07817574,4.5959163,0.04823854,0.028296193,-0.08075987,-0.63206923,-9.303867,-1.0486604
0.07796963,4.596011,0.04823854,0.028296193,-0.08075987,-0.63206923,-9.303867,-1.0486604
0.07781995,4.5961456,0.049303804,0.02723093,-0.077564076,-0.6560113,-9.375694,-0.9959879
0.07767045,4.59628,0.049303804,0.02723093,-0.077564076,-0.6560113,-9.375694,-0.9959879
0.07748393,4.5963926,0.051434334,0.02723093,-0.07436828,-0.6560113,-9.303867,-1.043872
0.07729732,4.5965047,0.051434334,0.02723093,-0.07436828,-0.6560113,-9.303867,-1.043872
0.07713779,4.5966344,0.0524996,0.026165664,-0.07117249,-0.6655881,-9.32781,-1.0295067
0.07697837,4.5967646,0.0524996,0.026165664,-0.07117249,-0.6655881,-9.32781,-1.0295067
0.07677988,4.596852,0.051434334,0.026165664,-0.06584617,-0.6368576,-9.375694,-1.0630256
0.0765812,4.596938,0.051434334,0.026165664,-0.06584617,-0.6368576,-9.375694,-1.0630256
0.076382756,4.59697,0.0524996,0.026165664,-0.058389317,-0.62249243,-9.409213,-1.1061212
0.0761849,4.5970006,0.0524996,0.026165664,-0.058389317,-0.62249243,-9.409213,-1.1061212
0.07602227,4.597114,0.051434334,0.026165664,-0.05199773,-0.6368576,-9.394848,-1.0390835
0.075859465,4.597227,0.051434334,0.026165664,-0.05199773,-0.6368576,-9.394848,-1.0390835
0.075704,4.597213,0.05036907,0.02723093,-0.04454088,-0.6655881,-9.409213,-1.1204864
0.07554995,4.597197,0.05036907,0.02723093,-0.04454088,-0.6655881,-9.409213,-1.1204864
0.07536857,4.5972514,0.04610801,0.02723093,-0.039214555,-0.61291564,-9.375694,-1.0773908
0.07518731,4.597306,0.04610801,0.02723093,-0.039214555,-0.61291564,-9.375694,-1.0773908
0.075088754,4.597256,0.041846953,0.026165664,-0.033888236,-0.6464345,-9.351752,-1.1731589
0.07499091,4.5972066,0.041846953,0.026165664,-0.033888236,-0.6464345,-9.351752,-1.1731589
0.07493108,4.5971446,0.037585896,0.028296193,-0.028561912,-0.6847417,-9.390059,-1.1779473
0.074871935,4.5970826,0.037585896,0.028296193,-0.028561912,-0.6847417,-9.390059,-1.1779473
0.07481949,4.5970135,0.032259572,0.032557253,-0.022170324,-0.6799533,-9.3661175,-1.1923125
0.07476896,4.5969462,0.032259572,0.032557253,-0.022170324,-0.6799533,-9.3661175,-1.1923125
0.07484956,4.5969005,0.026933251,0.033622514,-0.015778739,-0.7517793,-9.409213,-1.1204864
0.074931026,4.596854,0.026933251,0.033622514,-0.015778739,-0.7517793,-9.409213,-1.1204864
0.0749284,4.596774,0.02160693,0.033622514,-0.012582945,-0.7326257,-9.5385,-1.1875241
0.0749259,4.5966945,0.02160693,0.033622514,-0.012582945,-0.7326257,-9.5385,-1.1875241
0.07488655,4.596609,0.015215342,0.033622514,-0.008321887,-0.6847417,-9.471462,-1.2162545
0.07484711,4.5965233,0.015215342,0.033622514,-0.008321887,-0.6847417,-9.471462,-1.2162545
0.07486863,4.5964346,0.010954284,0.03468778,-0.004060829,-0.7422025,-9.414001,-1.1971009
0.0748903,4.596345,0.010954284,0.03468778,-0.004060829,-0.7422025,-9.414001,-1.1971009
0.07499218,4.5962834,0.0066932263,0.035753045,-0.0029955646,-0.7565677,-9.423578,-1.1252748
0.07509086,4.596224,0.0066932263,0.035753045,-0.0029955646,-0.7565677,-9.423578,-1.1252748
0.07510853,4.596125,0.0024321685,0.03681831,-0.0019303001,-0.7469909,-9.404425,-1.2354081
0.075126395,4.596026,0.0024321685,0.03681831,-0.0019303001,-0.7469909,-9.404425,-1.2354081
0.07518554,4.595934,-0.0007636249,0.035753045,-0.0019303001,-0.78529817,-9.404425,-1.1971009
0.075244814,4.5958414,-0.0007636249,0.035753045,-0.0019303001,-0.78529817,-9.404425,-1.1971009
0.07525541,4.5957346,-0.0050246827,0.037883572,-0.0019303001,-0.7326257,-9.356541,-1.2210429
0.07526602,4.5956273,-0.0050246827,0.037883572,-0.0019303001,-0.7326257,-9.356541,-1.2210429
0.075354114,4.595544,-0.0071552116,0.04107937,-0.0029955646,-0.7469909,-9.356541,-1.1252748
0.075442396,4.595461,-0.0071552116,0.04107937,-0.0029955646,-0.7469909,-9.356541,-1.1252748
0.07540543,4.5953536,-0.006089947,0.04427516,-0.004060829,-0.6991069,-9.351752,-1.1444284
0.07536863,4.595247,-0.006089947,0.04427516,-0.004060829,-0.6991069,-9.351752,-1.1444284
0.075448565,4.595161,-0.006089947,0.047470953,-0.006191358,-0.7422025,-9.332599,-1.1252748
0.07552833,4.5950756,-0.006089947,0.047470953,-0.006191358,-0.7422025,-9.332599,-1.1252748
0.07557197,4.5949755,-0.006089947,0.050666746,-0.01151768,-0.770933,-9.351752,-1.1875241
0.075615846,4.5948753,-0.006089947,0.050666746,-0.01151768,-0.770933,-9.351752,-1.1875241
0.075713634,4.5948124,-0.0050246827,0.053862542,-0.014713474,-0.8762778,-9.351752,-1.1779473
0.07581151,4.59475,-0.0050246827,0.053862542,-0.014713474,-0.8762778,-9.351752,-1.1779473
0.07592652,4.5947175,-0.0039594183,0.05599307,-0.014713474,-0.8714894,-9.323022,-1.1300632
0.07604162,4.5946856,-0.0039594183,0.05599307,-0.014713474,-0.8714894,-9.323022,-1.1300632
0.07612691,4.59461,-0.0039594183,0.05599307,-0.013648209,-0.8619126,-9.361329,-1.1971009
0.07643974,4.594422,-0.0050246827,0.05599307,-0.012582945,-0.8619126,-9.351752,-1.1683705
0.07644031,4.594422,-0.0050246827,0.05599307,-0.012582945,-0.8619126,-9.351752,-1.1683705
0.07644031,4.594422,-0.0050246827,0.05599307,-0.012582945,-0.8619126,-9.351752,-1.1683705
0.076551944,4.594378,-0.006089947,0.054927804,-0.01151768,-0.79487497,-9.3661175,-1.1252748
0.076664105,4.5943413,-0.006089947,0.054927804,-0.01151768,-0.79487497,-9.3661175,-1.1252748
0.076748624,4.594399,-0.0071552116,0.052797277,-0.009387151,-0.80924016,-9.399636,-1.0582372
0.07683081,4.5944543,-0.0071552116,0.052797277,-0.009387151,-0.80924016,-9.399636,-1.0582372
0.07687161,4.594533,-0.008220476,0.050666746,-0.008321887,-0.81881696,-9.457097,-0.9768343
0.07691246,4.594612,-0.008220476,0.050666746,-0.008321887,-0.81881696,-9.457097,-0.9768343
0.07691246,4.594612,-0.008220476,0.050666746,-0.008321887,-0.81881696,-9.457097,-0.9768343
0.07707219,4.5947266,-0.009285741,0.04853622,-0.006191358,-0.8331822,-9.437943,-1.0390835
0.077125646,4.5948057,-0.0114162695,0.047470953,-0.0019303001,-0.81402856,-9.457097,-0.9624691
0.07716589,4.594884,-0.0114162695,0.047470953,-0.0019303001,-0.81402856,-9.457097,-0.9624691
0.07725767,4.5949383,-0.015677327,0.043209895,0.0044612866,-0.866701,-9.504981,-1.0199299
0.07734937,4.5949936,-0.015677327,0.043209895,0.0044612866,-0.866701,-9.504981,-1.0199299
0.07742171,4.595058,-0.018873122,0.038948838,0.009787609,-0.8379706,-9.485827,-0.9911995
0.07749396,4.595123,-0.018873122,0.038948838,0.009787609,-0.8379706,-9.485827,-0.9911995
0.07758781,4.595177,-0.02313418,0.035753045,0.01724446,-0.8379706,-9.457097,-1.0151415
0.07768148,4.5952315,-0.02313418,0.035753045,0.01724446,-0.8379706,-9.457097,-1.0151415
0.07776453,4.595295,-0.02313418,0.030426722,0.025766576,-0.842759,-9.495404,-0.9720459
0.07784739,4.595358,-0.02313418,0.030426722,0.025766576,-0.842759,-9.495404,-0.9720459
0.077907234,4.595426,-0.026329972,0.026165664,0.033223428,-0.79487497,-9.471462,-0.94331545
0.07796677,4.5954943,-0.026329972,0.026165664,0.033223428,-0.79487497,-9.471462,-0.94331545
0.07803164,4.5955596,-0.029525764,0.022969872,0.040680278,-0.79966336,-9.504981,-0.92416185
0.07809635,4.595625,-0.029525764,0.022969872,0.040680278,-0.79966336,-9.504981,-0.92416185
0.07817106,4.59569,-0.029525764,0.020839343,0.047071867,-0.79008657,-9.509769,-0.9816227
0.07824541,4.5957556,-0.029525764,0.020839343,0.047071867,-0.79008657,-9.509769,-0.9816227
0.07834346,4.5958176,-0.029525764,0.018708814,0.052398186,-0.8379706,-9.557653,-0.9528923
0.078441426,4.5958796,-0.029525764,0.018708814,0.052398186,-0.8379706,-9.557653,-0.9528923
0.07855201,4.59594,-0.03059103,0.016578285,0.05772451,-0.842759,-9.600749,-0.9768343
0.078655794,4.5959973,-0.03059103,0.016578285,0.05772451,-0.842759,-9.600749,-0.9768343
0.07880694,4.5960417,-0.029525764,0.01551302,0.06518136,-0.90979666,-9.653421,-1.0055647
0.078958616,4.5960865,-0.029525764,0.01551302,0.06518136,-0.90979666,-9.653421,-1.0055647
0.07913861,4.596117,-0.03059103,0.013382491,0.07476874,-0.90021986,-9.701305,-1.0582372
0.07931838,4.5961475,-0.03059103,0.013382491,0.07476874,-0.90021986,-9.701305,-1.0582372
0.07945298,4.5962057,-0.03059103,0.012317227,0.08116033,-0.8714894,-9.710882,-0.9768343
0.07958688,4.596265,-0.03059103,0.012317227,0.08116033,-0.8714894,-9.710882,-0.9768343
0.07976116,4.5963044,-0.032721557,0.011251962,0.08435612,-0.91937345,-9.821015,-1.0390835
0.07993519,4.5963445,-0.032721557,0.011251962,0.08435612,-0.91937345,-9.821015,-1.0390835
0.08011487,4.596382,-0.035917353,0.009121433,0.09074771,-0.94331545,-9.753978,-1.0055647
0.080293484,4.5964203,-0.035917353,0.009121433,0.09074771,-0.94331545,-9.753978,-1.0055647
0.08051798,4.596418,-0.03698262,0.008056169,0.09607403,-0.9768343,-9.811439,-1.091756
0.080741435,4.5964165,-0.03698262,0.008056169,0.09607403,-0.9768343,-9.811439,-1.091756
0.08091583,4.596459,-0.039113145,0.00592564,0.10140035,-0.94810385,-9.868899,-0.9864111
0.08108977,4.5965023,-0.039113145,0.00592564,0.10140035,-0.94810385,-9.868899,-0.9864111
0.08125135,4.596548,-0.042308938,0.0048603755,0.10566141,-0.90979666,-9.854534,-0.9816227
0.0814123,4.596595,-0.042308938,0.0048603755,0.10566141,-0.90979666,-9.854534,-0.9816227
0.08137866,4.596527,-0.045504734,0.00592564,0.104596145,-0.7374141,-9.792285,-1.1492168
0.08134479,4.5964603,-0.045504734,0.00592564,0.104596145,-0.7374141,-9.792285,-1.1492168
0.08158246,4.596419,-0.050831053,0.008056169,0.10033509,-0.9768343,-9.739613,-1.1204864
0.081819914,4.5963774,-0.050831053,0.008056169,0.10033509,-0.9768343,-9.739613,-1.1204864
0.08204711,4.596349,-0.05402685,0.010186698,0.09500877,-1.1300632,-9.801862,-1.0773908
0.08227432,4.5963206,-0.05402685,0.010186698,0.09500877,-1.1300632,-9.801862,-1.0773908
0.08248735,4.5963054,-0.056157377,0.011251962,0.089682445,-1.1109096,-9.854534,-1.0486604
0.082699955,4.5962906,-0.056157377,0.011251962,0.089682445,-1.1109096,-9.854534,-1.0486604
0.082872786,4.596306,-0.058287904,0.010186698,0.08435612,-0.9672575,-9.864111,-1.0295067
0.083045036,4.596321,-0.058287904,0.010186698,0.08435612,-0.9672575,-9.864111,-1.0295067
0.08319526,4.596347,-0.057222642,0.009121433,0.08009506,-0.94331545,-9.931149,-1.0247183
0.08334452,4.5963736,-0.057222642,0.009121433,0.08009506,-0.94331545,-9.931149,-1.0247183
0.08349099,4.5964017,-0.052961584,0.010186698,0.07263821,-0.9720459,-9.888053,-0.9959879
0.083636664,4.596431,-0.052961584,0.010186698,0.07263821,-0.9720459,-9.888053,-0.9959879
0.08380735,4.596444,-0.046569996,0.013382491,0.0641161,-1.0199299,-9.907207,-1.0486604
0.083977394,4.596458,-0.046569996,0.013382491,0.0641161,-1.0199299,-9.907207,-1.0486604
0.084137335,4.596478,-0.04017841,0.01551302,0.054528717,-1.0534488,-9.911995,-1.0295067
0.084296696,4.596499,-0.04017841,0.01551302,0.054528717,-1.0534488,-9.911995,-1.0295067
0.08447973,4.5964646,-0.032721557,0.01551302,0.044941336,-1.0582372,-9.873688,-1.1492168
0.084662385,4.596431,-0.032721557,0.01551302,0.044941336,-1.0582372,-9.873688,-1.1492168
0.0848342,4.5964155,-0.026329972,0.016578285,0.035353955,-1.0630256,-9.911995,-1.1348516
0.08500593,4.5964,-0.026329972,0.016578285,0.035353955,-1.0630256,-9.911995,-1.1348516
0.08516093,4.5963416,-0.021003649,0.018708814,0.025766576,-1.0582372,-9.868899,-1.2066777
0.08531591,4.5962834,-0.021003649,0.018708814,0.025766576,-1.0582372,-9.868899,-1.2066777
0.0854696,4.5962496,-0.01674259,0.017643549,0.01724446,-1.0247183,-9.892841,-1.1731589
0.085623264,4.5962157,-0.01674259,0.017643549,0.01724446,-1.0247183,-9.892841,-1.1731589
0.08576431,4.596228,-0.015677327,0.01551302,0.009787609,-1.0151415,-9.835381,-1.1109096
0.085905224,4.596241,-0.015677327,0.01551302,0.009787609,-1.0151415,-9.835381,-1.1109096
0.08602413,4.5961733,-0.014612063,0.014447756,0.00020022877,-0.9576807,-9.892841,-1.1971009
0.08614315,4.5961056,-0.014612063,0.014447756,0.00020022877,-0.9576807,-9.892841,-1.1971009
0.08627219,4.5960884,-0.013546798,0.014447756,-0.009387151,-0.9672575,-9.821015,-1.1492168
0.08640121,4.5960712,-0.013546798,0.014447756,-0.009387151,-0.9672575,-9.821015,-1.1492168
0.086520016,4.596046,-0.013546798,0.013382491,-0.018974531,-0.9624691,-9.801862,-1.1540052
0.08663887,4.59602,-0.013546798,0.013382491,-0.018974531,-0.9624691,-9.801862,-1.1540052
0.08675071,4.595997,-0.013546798,0.012317227,-0.026431382,-0.9528923,-9.77792,-1.1492168
0.086862504,4.595974,-0.013546798,0.012317227,-0.026431382,-0.9528923,-9.77792,-1.1492168
0.08696467,4.5959797,-0.012481534,0.012317227,-0.033888236,-0.90979666,-9.730036,-1.1300632
0.08706676,4.5959854,-0.012481534,0.012317227,-0.033888236,-0.90979666,-9.730036,-1.1300632
0.087115936,4.5960503,-0.009285741,0.010186698,-0.041345086,-0.90979666,-9.725247,-1.091756
0.087165415,4.5961156,-0.009285741,0.010186698,-0.041345086,-0.90979666,-9.725247,-1.091756
0.08722423,4.5960455,-0.006089947,0.010186698,-0.048801936,-0.90021986,-9.677363,-1.1587936
0.08728363,4.5959754,-0.006089947,0.010186698,-0.048801936,-0.90021986,-9.677363,-1.1587936
0.08727645,4.5958786,-0.0028941538,0.011251962,-0.05519352,-0.8714894,-9.653421,-1.1683705
0.08727041,4.595782,-0.0028941538,0.011251962,-0.05519352,-0.8714894,-9.653421,-1.1683705
0.08722244,4.595685,0.003497433,0.012317227,-0.059454583,-0.8523358,-9.600749,-1.1731589
0.08717565,4.5955887,0.003497433,0.012317227,-0.059454583,-0.8523358,-9.600749,-1.1731589
0.087078445,4.595501,0.00988902,0.012317227,-0.064780906,-0.82360536,-9.572019,-1.1827357
0.08698232,4.595413,0.00988902,0.012317227,-0.064780906,-0.82360536,-9.572019,-1.1827357
0.08687727,4.595331,0.015215342,0.013382491,-0.0679767,-0.80445176,-9.524135,-1.2066777
0.086772986,4.5952497,0.015215342,0.013382491,-0.0679767,-0.80445176,-9.524135,-1.2066777
0.086648494,4.5951777,0.020541664,0.013382491,-0.07010722,-0.770933,-9.500193,-1.2258313
0.08652459,4.595105,0.020541664,0.013382491,-0.07010722,-0.770933,-9.500193,-1.2258313
0.08646488,4.5950313,0.025867987,0.012317227,-0.07223775,-0.8331822,-9.437943,-1.1731589
0.08640621,4.5949574,0.025867987,0.012317227,-0.07223775,-0.8331822,-9.437943,-1.1731589
0.08623027,4.59492,0.031194309,0.012317227,-0.07330302,-0.7374141,-9.44752,-1.1731589
0.08605493,4.594882,0.031194309,0.012317227,-0.07330302,-0.7374141,-9.44752,-1.1731589
0.08584846,4.594893,0.03652063,0.012317227,-0.07010722,-0.7182605,-9.380483,-1.1252748
0.08564224,4.5949035,0.03652063,0.012317227,-0.07010722,-0.7182605,-9.380483,-1.1252748
0.085481696,4.5948687,0.040781688,0.014447756,-0.06691143,-0.6991069,-9.423578,-1.2066777
0.08532165,4.5948334,0.040781688,0.014447756,-0.06691143,-0.6991069,-9.423578,-1.2066777
0.0851634,4.594801,0.041846953,0.017643549,-0.062650375,-0.7230489,-9.370906,-1.1731589
0.08500582,4.5947676,0.041846953,0.017643549,-0.062650375,-0.7230489,-9.370906,-1.1731589
0.084870644,4.5947247,0.041846953,0.020839343,-0.05732405,-0.7134721,-9.361329,-1.2066777
0.084736034,4.594681,0.041846953,0.020839343,-0.05732405,-0.7134721,-9.361329,-1.2066777
0.08462362,4.594633,0.043977484,0.024035135,-0.0498672,-0.7086837,-9.370906,-1.2497733
0.084511615,4.5945854,0.043977484,0.024035135,-0.0498672,-0.7086837,-9.370906,-1.2497733
0.08433096,4.594602,0.04291222,0.024035135,-0.04241035,-0.6751649,-9.361329,-1.1300632
0.08415052,4.594619,0.04291222,0.024035135,-0.04241035,-0.6751649,-9.361329,-1.1300632
0.08403523,4.5945745,0.039716423,0.021904606,-0.033888236,-0.6847417,-9.370906,-1.2258313
0.083920226,4.59453,0.039716423,0.021904606,-0.033888236,-0.6847417,-9.370906,-1.2258313
0.08381273,4.5944843,0.037585896,0.022969872,-0.025366118,-0.7086837,-9.3661175,-1.1971009
0.08370557,4.5944376,0.037585896,0.022969872,-0.025366118,-0.7086837,-9.3661175,-1.1971009
0.08358116,4.594405,0.034390103,0.022969872,-0.015778739,-0.6751649,-9.428367,-1.1923125
0.08345699,4.5943727,0.034390103,0.022969872,-0.015778739,-0.6751649,-9.428367,-1.1923125
0.083345614,4.5943346,0.032259572,0.020839343,-0.0072566224,-0.6847417,-9.375694,-1.1827357
0.08323443,4.594297,0.032259572,0.020839343,-0.0072566224,-0.6847417,-9.375694,-1.1827357
0.08311112,4.594277,0.02906378,0.020839343,0.0023307577,-0.6512229,-9.3661175,-1.163582
0.08298795,4.594257,0.02906378,0.020839343,0.0023307577,-0.6512229,-9.3661175,-1.163582
0.08287182,4.5943236,0.024802722,0.019774077,0.011918138,-0.6368576,-9.399636,-1.0630256
0.0827556,4.594391,0.024802722,0.019774077,0.011918138,-0.6368576,-9.399636,-1.0630256
0.08263887,4.594448,0.023737457,0.019774077,0.018309724,-0.6943185,-9.3661175,-1.0869676
0.08252167,4.5945053,0.023737457,0.019774077,0.018309724,-0.6943185,-9.3661175,-1.0869676
0.082407184,4.5945215,0.022672193,0.020839343,0.02683184,-0.6847417,-9.433155,-1.1204864
0.08229311,4.5945373,0.022672193,0.020839343,0.02683184,-0.6847417,-9.433155,-1.1204864
0.08225515,4.5946436,0.022672193,0.019774077,0.035353955,-0.7422025,-9.461885,-1.067814
0.082216464,4.59475,0.022672193,0.019774077,0.035353955,-0.7422025,-9.461885,-1.067814
0.08213463,4.5947175,0.020541664,0.019774077,0.040680278,-0.6991069,-9.485827,-1.1587936
0.08205279,4.5946846,0.020541664,0.019774077,0.040680278,-0.6991069,-9.485827,-1.1587936
0.08195996,4.594679,0.018411135,0.018708814,0.0460066,-0.7230489,-9.471462,-1.1300632
0.08186729,4.594673,0.018411135,0.018708814,0.0460066,-0.7230489,-9.471462,-1.1300632
0.0818215,4.594613,0.016280606,0.018708814,0.05026766,-0.7374141,-9.485827,-1.1587936
0.081775546,4.594554,0.016280606,0.018708814,0.05026766,-0.7374141,-9.485827,-1.1587936
0.08175794,4.594479,0.0141500775,0.016578285,0.052398186,-0.7182605,-9.461885,-1.2018893
0.08174008,4.594404,0.0141500775,0.016578285,0.052398186,-0.7182605,-9.461885,-1.2018893
0.08167025,4.5944595,0.00988902,0.01551302,0.055593982,-0.6799533,-9.509769,-1.0869676
0.08160032,4.594515,0.00988902,0.01551302,0.055593982,-0.6799533,-9.509769,-1.0869676
0.081515,4.594515,0.005627962,0.014447756,0.056659244,-0.6943185,-9.519346,-1.1300632
0.08142968,4.5945144,0.005627962,0.014447756,0.056659244,-0.6943185,-9.519346,-1.1300632
0.08136225,4.5944643,0.001366904,0.014447756,0.055593982,-0.6895301,-9.504981,-1.163582
0.08129462,4.5944138,0.001366904,0.014447756,0.055593982,-0.6895301,-9.504981,-1.163582
0.08122247,4.5943613,-0.0028941538,0.014447756,0.052398186,-0.6751649,-9.476251,-1.163582
0.08115013,4.594309,-0.0028941538,0.014447756,0.052398186,-0.6751649,-9.476251,-1.163582
0.08106641,4.5943403,-0.008220476,0.013382491,0.0460066,-0.7182605,-9.481039,-1.1061212
0.080981694,4.594372,-0.008220476,0.013382491,0.0460066,-0.7182605,-9.481039,-1.1061212
0.080981694,4.594372,-0.008220476,0.013382491,0.0460066,-0.7182605,-9.481039,-1.1061212
0.080981694,4.594372,-0.0114162695,0.013382491,0.040680278,-0.7086837,-9.5385,-1.1492168
0.080981694,4.594372,-0.014612063,0.013382491,0.03428869,-0.7326257,-9.504981,-1.1587936
0.08071269,4.5940237,-0.014612063,0.013382491,0.03428869,-0.7326257,-9.504981,-1.1587936
0.080634356,4.593936,-0.01674259,0.013382491,0.027897105,-0.7469909,-9.509769,-1.1492168
0.08056181,4.593857,-0.01674259,0.013382491,0.027897105,-0.7469909,-9.509769,-1.1492168
0.08056181,4.593857,-0.01674259,0.013382491,0.027897105,-0.7469909,-9.509769,-1.1492168
0.080329,4.593869,-0.017807856,0.014447756,0.01724446,-0.7182605,-9.44752,-1.115698
0.080356345,4.5937505,-0.018873122,0.014447756,0.0065918155,-0.770933,-9.433155,-1.1492168
0.08038509,4.593626,-0.018873122,0.014447756,0.0065918155,-0.770933,-9.433155,-1.1492168
0.08024397,4.593628,-0.017807856,0.01551302,-0.0019303001,-0.6751649,-9.466674,-1.115698
0.0801043,4.59363,-0.017807856,0.01551302,-0.0019303001,-0.6751649,-9.466674,-1.115698
0.07999331,4.593683,-0.01674259,0.016578285,-0.010452416,-0.7086837,-9.433155,-1.0869676
0.07988277,4.5937357,-0.01674259,0.016578285,-0.010452416,-0.7086837,-9.433155,-1.0869676
0.07982501,4.5938163,-0.014612063,0.016578285,-0.016844003,-0.7278373,-9.394848,-1.0486604
0.07976817,4.5938954,-0.014612063,0.016578285,-0.016844003,-0.7278373,-9.394848,-1.0486604
0.07961748,4.593929,-0.013546798,0.016578285,-0.02323559,-0.6991069,-9.394848,-1.0965444
0.07947145,4.5939617,-0.013546798,0.016578285,-0.02323559,-0.6991069,-9.394848,-1.0965444
0.07935841,4.594031,-0.0114162695,0.017643549,-0.029627176,-0.7230489,-9.380483,-1.0869676
0.079247124,4.5941,-0.0114162695,0.017643549,-0.029627176,-0.7230489,-9.380483,-1.0869676
0.079196945,4.5941896,-0.008220476,0.016578285,-0.033888236,-0.7469909,-9.399636,-1.0869676
0.07914791,4.59428,-0.008220476,0.016578285,-0.033888236,-0.7469909,-9.399636,-1.0869676
0.079147935,4.5943685,-0.006089947,0.016578285,-0.036018763,-0.770933,-9.385271,-1.0582372
0.07914848,4.5944567,-0.006089947,0.016578285,-0.036018763,-0.770933,-9.385271,-1.0582372
0.078998275,4.5945106,-0.0050246827,0.016578285,-0.036018763,-0.7182605,-9.399636,-1.0965444
0.0788486,4.5945644,-0.0050246827,0.016578285,-0.036018763,-0.7182605,-9.399636,-1.0965444
0.07879159,4.594658,-0.0039594183,0.01551302,-0.033888236,-0.7230489,-9.370906,-1.0103531
0.0787349,4.5947514,-0.0039594183,0.01551302,-0.033888236,-0.7230489,-9.370906,-1.0103531
0.07862771,4.5946627,-0.0050246827,0.014447756,-0.029627176,-0.7182605,-9.409213,-1.1444284
0.07852078,4.594573,-0.0050246827,0.014447756,-0.029627176,-0.7182605,-9.409213,-1.1444284
0.07845154,4.59466,-0.006089947,0.013382491,-0.02323559,-0.7230489,-9.394848,-1.067814
0.07838264,4.5947475,-0.006089947,0.013382491,-0.02323559,-0.7230489,-9.394848,-1.067814
0.07837774,4.5948377,-0.008220476,0.012317227,-0.015778739,-0.7517793,-9.390059,-1.0295067
0.078373015,4.594928,-0.008220476,0.012317227,-0.015778739,-0.7517793,-9.390059,-1.0295067
0.07835314,4.5950155,-0.010351005,0.012317227,-0.006191358,-0.7374141,-9.414001,-1.0582372
0.07833332,4.5951037,-0.010351005,0.012317227,-0.006191358,-0.7374141,-9.414001,-1.0582372
0.07823665,4.595163,-0.010351005,0.010186698,0.0044612866,-0.7422025,-9.461885,-1.1109096
0.07814149,4.5952225,-0.010351005,0.010186698,0.0044612866,-0.7422025,-9.461885,-1.1109096
0.078126416,4.595308,-0.0114162695,0.008056169,0.015113931,-0.7326257,-9.514558,-1.0630256
0.07811108,4.5953937,-0.0114162695,0.008056169,0.015113931,-0.7326257,-9.514558,-1.0630256
0.078196816,4.5954704,-0.012481534,0.0069909045,0.02683184,-0.7757214,-9.528923,-1.0821792
0.07828173,4.5955467,-0.012481534,0.0069909045,0.02683184,-0.7757214,-9.528923,-1.0821792
0.07831074,4.5956316,-0.013546798,0.0048603755,0.037484486,-0.7469909,-9.557653,-1.0295067
0.078339465,4.595717,-0.013546798,0.0048603755,0.037484486,-0.7469909,-9.557653,-1.0295067
0.07837652,4.5958014,-0.013546798,0.0027298466,0.05133292,-0.7422025,-9.548077,-1.0342951
0.07841295,4.595886,-0.013546798,0.0027298466,0.05133292,-0.7422025,-9.548077,-1.0342951
0.0785044,4.59597,-0.012481534,0.0005993177,0.0641161,-0.79008657,-9.581595,-1.0055647
0.07859529,4.5960546,-0.012481534,0.0005993177,0.0641161,-0.79008657,-9.581595,-1.0055647
0.078698486,4.59614,-0.0114162695,-0.0015312112,0.07689927,-0.80445176,-9.65821,-0.9816227
0.07880106,4.5962253,-0.0114162695,-0.0015312112,0.07689927,-0.80445176,-9.65821,-0.9816227
0.07888958,4.5963125,-0.0114162695,-0.0025964756,0.08648665,-0.770933,-9.672575,-0.9864111
0.07897743,4.5963993,-0.0114162695,-0.0025964756,0.08648665,-0.770933,-9.672575,-0.9864111
0.0790684,4.596486,-0.012481534,-0.0025964756,0.09713929,-0.770933,-9.758766,-1.0390835
0.07915846,4.596572,-0.012481534,-0.0025964756,0.09713929,-0.770933,-9.758766,-1.0390835
0.07928938,4.596654,-0.014612063,-0.00366174,0.10566141,-0.81402856,-9.787497,-1.0103531
0.07941948,4.5967364,-0.014612063,-0.00366174,0.10566141,-0.81402856,-9.787497,-1.0103531
0.0795542,4.596818,-0.015677327,-0.0047270046,0.11311826,-0.79487497,-9.77792,-1.0821792
0.07968683,4.5969,-0.015677327,-0.0047270046,0.11311826,-0.79487497,-9.77792,-1.0821792
0.07981681,4.59698,-0.018873122,-0.0068575335,0.118444584,-0.79966336,-9.830592,-1.0534488
0.07994547,4.5970592,-0.018873122,-0.0068575335,0.118444584,-0.79966336,-9.830592,-1.0534488
0.08010003,4.5971313,-0.024199443,-0.0068575335,0.12270564,-0.80924016,-9.763555,-1.0630256
0.08025276,4.5972033,-0.024199443,-0.0068575335,0.12270564,-0.80924016,-9.763555,-1.0630256
0.080517344,4.597174,-0.03059103,-0.005792269,0.12483617,-0.8858546,-9.77792,-1.1300632
0.08078198,4.597145,-0.03059103,-0.005792269,0.12483617,-0.8858546,-9.77792,-1.1300632
0.08104281,4.5971212,-0.03698262,-0.005792269,0.12270564,-0.94810385,-9.773131,-1.115698
0.08130355,4.597099,-0.03698262,-0.005792269,0.12270564,-0.94810385,-9.773131,-1.115698
0.08150262,4.597135,-0.043374203,-0.005792269,0.118444584,-0.89064306,-9.878476,-1.0630256
0.0817007,4.5971723,-0.043374203,-0.005792269,0.118444584,-0.89064306,-9.878476,-1.0630256
0.081910625,4.5971956,-0.04763526,-0.0068575335,0.11418352,-0.90021986,-9.873688,-1.0773908
0.082119584,4.5972204,-0.04763526,-0.0068575335,0.11418352,-0.90021986,-9.873688,-1.0773908
0.08228607,4.597259,-0.05189632,-0.0068575335,0.10992247,-0.8571242,-9.92636,-1.091756
0.082450636,4.5972977,-0.05189632,-0.0068575335,0.10992247,-0.8571242,-9.92636,-1.091756
0.082675524,4.5972877,-0.05509211,-0.0047270046,0.10140035,-0.90979666,-9.9550905,-1.1204864
0.08289962,4.597279,-0.05509211,-0.0047270046,0.10140035,-0.90979666,-9.9550905,-1.1204864
0.08311329,4.597266,-0.057222642,-0.0015312112,0.089682445,-0.89543146,-9.935937,-1.1252748
0.0833254,4.597255,-0.057222642,-0.0015312112,0.089682445,-0.89543146,-9.935937,-1.1252748
0.08350776,4.5972652,-0.056157377,0.0005993177,0.08009506,-0.91937345,-9.9550905,-1.0965444
0.0836905,4.5972767,-0.056157377,0.0005993177,0.08009506,-0.91937345,-9.9550905,-1.0965444
0.08387023,4.5971613,-0.05509211,0.0027298466,0.06731189,-0.9624691,-9.974244,-1.2162545
0.08404864,4.597047,-0.05509211,0.0027298466,0.06731189,-0.9624691,-9.974244,-1.2162545
0.08422509,4.5969434,-0.05402685,0.003795111,0.055593982,-0.94331545,-10.007763,-1.1971009
0.08440244,4.59684,-0.05402685,0.003795111,0.055593982,-0.94331545,-10.007763,-1.1971009
0.084553026,4.5968475,-0.052961584,0.0048603755,0.041745543,-0.90979666,-10.012551,-1.1300632
0.08470234,4.5968556,-0.052961584,0.0048603755,0.041745543,-0.90979666,-10.012551,-1.1300632
0.084855326,4.596845,-0.05189632,0.0069909045,0.027897105,-0.92416185,-10.01734,-1.13964
0.08500753,4.596836,-0.05189632,0.0069909045,0.027897105,-0.92416185,-10.01734,-1.13964
0.08514776,4.5967417,-0.050831053,0.010186698,0.014048667,-0.9624691,-10.01734,-1.1971009
0.08528814,4.5966473,-0.050831053,0.010186698,0.014048667,-0.9624691,-10.01734,-1.1971009
0.08542471,4.5965996,-0.048700526,0.011251962,-0.0019303001,-0.93373865,-10.01734,-1.163582
0.085561395,4.5965533,-0.048700526,0.011251962,-0.0019303001,-0.93373865,-10.01734,-1.163582
0.08566216,4.5964513,-0.046569996,0.012317227,-0.015778739,-0.94810385,-9.92636,-1.1971009
0.085763335,4.5963492,-0.046569996,0.012317227,-0.015778739,-0.94810385,-9.92636,-1.1971009
0.085860245,4.596263,-0.043374203,0.011251962,-0.029627176,-0.93373865,-9.940725,-1.1827357
0.0859577,4.596178,-0.043374203,0.011251962,-0.029627176,-0.93373865,-9.940725,-1.1827357
0.08602849,4.596079,-0.04017841,0.012317227,-0.04241035,-0.92895025,-9.849746,-1.1875241
0.086099684,4.595981,-0.04017841,0.012317227,-0.04241035,-0.92895025,-9.849746,-1.1875241
0.08617863,4.5959606,-0.03804788,0.012317227,-0.05732405,-0.91937345,-9.821015,-1.13964
0.08625791,4.595941,-0.03804788,0.012317227,-0.05732405,-0.91937345,-9.821015,-1.13964
0.08622442,4.596002,-0.033786822,0.013382491,-0.07223775,-0.89543146,-9.773131,-1.0342951
0.08619141,4.5960627,-0.033786822,0.013382491,-0.07223775,-0.89543146,-9.773131,-1.0342951
0.086202525,4.5961046,-0.029525764,0.013382491,-0.08395566,-0.91458505,-9.710882,-1.0821792
0.08621386,4.5961466,-0.029525764,0.013382491,-0.08395566,-0.91458505,-9.710882,-1.0821792
0.08615082,4.596221,-0.022068914,0.013382491,-0.093543045,-0.8619126,-9.715671,-1.0821792
0.0860894,4.5962954,-0.022068914,0.013382491,-0.093543045,-0.8619126,-9.715671,-1.0821792
0.08597246,4.596379,-0.015677327,0.013382491,-0.104195684,-0.8331822,-9.706094,-1.0534488
0.085856885,4.5964622,-0.015677327,0.013382491,-0.104195684,-0.8331822,-9.706094,-1.0534488
0.085685275,4.5963607,-0.010351005,0.014447756,-0.11378307,-0.81881696,-9.65821,-1.1540052
0.08551646,4.5962586,-0.010351005,0.014447756,-0.11378307,-0.81881696,-9.65821,-1.1540052
0.08533882,4.596161,-0.006089947,0.01551302,-0.122305185,-0.80924016,-9.586384,-1.1492168
0.08516396,4.5960627,-0.006089947,0.01551302,-0.122305185,-0.80924016,-9.586384,-1.1492168
0.08501543,4.5959606,-0.0028941538,0.013382491,-0.12869677,-0.79966336,-9.524135,-1.2162545
0.08486816,4.5958586,-0.0028941538,0.013382491,-0.12869677,-0.79966336,-9.524135,-1.2162545
0.084702246,4.5957623,0.00030163955,0.011251962,-0.1308273,-0.7757214,-9.552865,-1.2401965
0.08453725,4.595666,0.00030163955,0.011251962,-0.1308273,-0.7757214,-9.552865,-1.2401965
0.0843797,4.5955706,0.0024321685,0.010186698,-0.1340231,-0.78529817,-9.490616,-1.2210429
0.08422336,4.5954747,0.0024321685,0.010186698,-0.1340231,-0.78529817,-9.490616,-1.2210429
0.08394873,4.5954714,0.0066932263,0.009121433,-0.13508835,-0.7230489,-9.562442,-1.1300632
0.08367475,4.5954676,0.0066932263,0.009121433,-0.13508835,-0.7230489,-9.562442,-1.1300632
0.08341679,4.595427,0.0077584907,0.008056169,-0.13615362,-0.7326257,-9.56723,-1.1540052
0.083159305,4.595386,0.0077584907,0.008056169,-0.13615362,-0.7326257,-9.56723,-1.1540052
0.0829201,4.59546,0.00988902,0.008056169,-0.1308273,-0.7517793,-9.662998,-1.1013328
0.0826818,4.5955343,0.00988902,0.008056169,-0.1308273,-0.7517793,-9.662998,-1.1013328
0.08245563,4.5954766,0.010954284,0.009121433,-0.12550098,-0.7469909,-9.677363,-1.1779473
0.08223058,4.595418,0.010954284,0.009121433,-0.12550098,-0.7469909,-9.677363,-1.1779473
0.08203571,4.5953445,0.00988902,0.009121433,-0.11910939,-0.770933,-9.768343,-1.1923125
0.081842616,4.59527,0.00988902,0.009121433,-0.11910939,-0.770933,-9.768343,-1.1923125
0.0817318,4.595177,0.0066932263,0.008056169,-0.11058728,-0.81402856,-9.840169,-1.292869
0.08162191,4.595084,0.0066932263,0.008056169,-0.11058728,-0.81402856,-9.840169,-1.292869
0.08148901,4.59499,0.0024321685,0.0069909045,-0.10099989,-0.78529817,-9.931149,-1.2737153
0.08135712,4.5948954,0.0024321685,0.0069909045,-0.10099989,-0.78529817,-9.931149,-1.2737153
0.081224576,4.594796,-0.0039594183,0.0048603755,-0.092477776,-0.7517793,-9.911995,-1.3215994
0.08109246,4.5946965,-0.0039594183,0.0048603755,-0.092477776,-0.7517793,-9.911995,-1.3215994
0.080979496,4.5945864,-0.012481534,0.0048603755,-0.08821672,-0.7613561,-9.969456,-1.4030021
0.08086678,4.5944757,-0.012481534,0.0048603755,-0.08821672,-0.7613561,-9.969456,-1.4030021
0.080760255,4.594355,-0.022068914,0.0027298466,-0.08502093,-0.7565677,-9.935937,-1.436521
0.08065407,4.5942345,-0.022068914,0.0027298466,-0.08502093,-0.7565677,-9.935937,-1.436521
0.08055275,4.594103,-0.032721557,0.0016645822,-0.08395566,-0.770933,-9.950302,-1.412579
0.08045168,4.5939713,-0.032721557,0.0016645822,-0.08395566,-0.770933,-9.950302,-1.412579
0.08034821,4.593831,-0.041243672,0.0016645822,-0.08502093,-0.7517793,-9.974244,-1.508347
0.08024498,4.593691,-0.041243672,0.0016645822,-0.08502093,-0.7517793,-9.974244,-1.508347
0.080132835,4.5935426,-0.049765788,0.003795111,-0.08928198,-0.7469909,-10.036493,-1.4939818
0.08002119,4.5933943,-0.049765788,0.003795111,-0.08928198,-0.7469909,-10.036493,-1.4939818
0.07991063,4.593234,-0.060418434,0.010186698,-0.0978041,-0.7757214,-10.132261,-1.5897499
0.07980034,4.593074,-0.060418434,0.010186698,-0.0978041,-0.7757214,-10.132261,-1.5897499
0.07969367,4.592901,-0.07107108,0.018708814,-0.108456746,-0.8475474,-10.31901,-1.6328455
0.079587206,4.5927286,-0.07107108,0.018708814,-0.108456746,-0.8475474,-10.31901,-1.6328455
0.07945932,4.5925446,-0.08278899,0.028296193,-0.121239915,-0.8331822,-10.553641,-1.70946
0.079331554,4.59236,-0.08278899,0.028296193,-0.121239915,-0.8331822,-10.553641,-1.70946
0.07918418,4.5921593,-0.09770269,0.040014103,-0.14041469,-0.8571242,-10.82658,-1.7381904
0.07918418,4.5921593,-0.09770269,0.040014103,-0.14041469,-0.8571242,-10.82658,-1.7381904
0.07918418,4.5921593,-0.09770269,0.040014103,-0.14041469,-0.8571242,-10.82658,-1.7381904
0.07918418,4.5921593,-0.11581218,0.05173201,-0.1638505,-0.8523358,-11.056423,-1.7717092
0.07844265,4.591253,-0.1360522,0.06451519,-0.19048211,-0.8714894,-11.252748,-1.8483237
0.0782419,4.5910144,-0.1360522,0.06451519,-0.19048211,-0.8714894,-11.252748,-1.8483237
0.078060016,4.5907593,-0.15842277,0.0762331,-0.22244005,-1.1540052,-11.429919,-1.9057846
0.077881366,4.590508,-0.15842277,0.0762331,-0.22244005,-1.1540052,-11.429919,-1.9057846
0.07769406,4.590235,-0.18505438,0.086885735,-0.25759378,-1.388637,-11.559206,-1.934515
0.07750636,4.589961,-0.18505438,0.086885735,-0.25759378,-1.388637,-11.559206,-1.934515
0.07729136,4.589668,-0.21062072,0.0911468,-0.29700854,-1.484405,-11.7268,-1.9297266
0.07729136,4.589668,-0.21062072,0.0911468,-0.29700854,-1.484405,-11.7268,-1.9297266
0.07680967,4.5890527,-0.2351218,0.09434259,-0.33961913,-1.3072342,-11.822568,-1.8818425
0.076540664,4.588731,-0.2351218,0.09434259,-0.33961913,-1.3072342,-11.822568,-1.8818425
0.076214485,4.588382,-0.25749236,0.100734174,-0.38755605,-1.2018893,-11.908759,-1.8243817
0.07588966,4.588033,-0.25749236,0.100734174,-0.38755605,-1.2018893,-11.908759,-1.8243817
0.07553183,4.5876775,-0.27773237,0.10925629,-0.44401506,-1.2401965,-12.047623,-1.7477672
0.07517566,4.587323,-0.27773237,0.10925629,-0.44401506,-1.2401965,-12.047623,-1.7477672
0.07479552,4.587036,-0.29584187,0.12417,-0.5068657,-1.3742718,-12.306197,-1.5035586
0.07479552,4.587036,-0.29584187,0.12417,-0.5068657,-1.3742718,-12.306197,-1.5035586
0.07396932,4.586473,-0.31075558,0.14334476,-0.5739773,-1.532289,-12.579136,-1.3455414
0.07349015,4.5861998,-0.31075558,0.14334476,-0.5739773,-1.532289,-12.579136,-1.3455414
0.072931394,4.5859437,-0.32779983,0.16678058,-0.64321953,-1.6807296,-12.98615,-1.0630256
0.07237732,4.585689,-0.32779983,0.16678058,-0.64321953,-1.6807296,-12.98615,-1.0630256
0.07169957,4.5854244,-0.3459093,0.19234692,-0.7167227,-1.5993267,-13.278243,-0.6991069
0.07102155,4.5851593,-0.3459093,0.19234692,-0.7167227,-1.5993267,-13.278243,-0.6991069
0.07027334,4.5848694,-0.3640188,0.22217433,-0.7976828,-1.8579005,-13.661315,-0.7182605
0.069525495,4.5845795,-0.3640188,0.22217433,-0.7976828,-1.8579005,-13.661315,-0.7182605
0.06869048,4.5842657,-0.38425884,0.253067,-0.8807735,-1.934515,-13.88637,-0.7086837
0.06869048,4.5842657,-0.38425884,0.253067,-0.8807735,-1.934515,-13.88637,-0.7086837
0.06758287,4.58385,-0.38425884,0.253067,-0.8807735,-1.934515,-13.88637,-0.7086837
0.06603197,4.583296,-0.40236834,0.27863333,-0.9713209,-1.8866309,-14.068329,-0.7565677
0.06501302,4.58295,-0.4204778,0.29887336,-1.0693253,-1.8866309,-14.188039,-0.7517793
0.06398634,4.582601,-0.4204778,0.29887336,-1.0693253,-1.8866309,-14.188039,-0.7517793
0.06285423,4.5822334,-0.4385873,0.31698287,-1.1737212,-1.8770541,-14.235924,-0.770933
0.0617226,4.5818663,-0.4385873,0.31698287,-1.1737212,-1.8770541,-14.235924,-0.770933
0.06047649,4.5814834,-0.45350102,0.33509237,-1.2887697,-1.8291701,-14.30775,-0.8619126
0.059230886,4.5811,-0.45350102,0.33509237,-1.2887697,-1.8291701,-14.30775,-0.8619126
0.057862166,4.580709,-0.46202314,0.3574629,-1.4112751,-1.7812861,-14.350845,-0.90500826
0.056491498,4.5803165,-0.46202314,0.3574629,-1.4112751,-1.7812861,-14.350845,-0.90500826
0.054996442,4.5799203,-0.46521893,0.381964,-1.5401722,-1.757344,-14.393941,-0.9911995
0.053497586,4.579523,-0.46521893,0.381964,-1.5401722,-1.757344,-14.393941,-0.9911995
0.051853772,4.579136,-0.46202314,0.40646508,-1.6775913,-1.4508862,-14.417883,-1.1061212
0.050206386,4.5787477,-0.46202314,0.40646508,-1.6775913,-1.4508862,-14.417883,-1.1061212
0.048450544,4.5783443,-0.45456627,0.42990088,-1.8256631,-1.4748282,-14.279019,-1.5035586
0.046693616,4.5779405,-0.45456627,0.42990088,-1.8256631,-1.4748282,-14.279019,-1.5035586
0.044790875,4.577531,-0.44604418,0.46079355,-1.9769306,-1.4987702,-14.417883,-1.6376339
0.042894166,4.5771227,-0.44604418,0.46079355,-1.9769306,-1.4987702,-14.417883,-1.6376339
0.04078295,4.576759,-0.44071785,0.49488202,-2.1303287,-1.1683705,-14.652514,-1.2976574
0.038674098,4.5763946,-0.44071785,0.49488202,-2.1303287,-1.1683705,-14.652514,-1.2976574
0.036385346,4.5760446,-0.433261,0.52151364,-2.2954447,-1.043872,-14.662091,-1.1683705
0.034092404,4.575693,-0.433261,0.52151364,-2.2954447,-1.043872,-14.662091,-1.1683705
0.03163864,4.5753403,-0.4236736,0.5406884,-2.4680176,-1.2210429,-14.571112,-1.2785037
0.029213816,4.5749907,-0.4236736,0.5406884,-2.4680176,-1.2210429,-14.571112,-1.2785037
0.02664026,4.574627,-0.41621676,0.55773264,-2.6416557,-1.4460979,-14.432248,-1.4748282
0.024062378,4.5742617,-0.41621676,0.55773264,-2.6416557,-1.4460979,-14.432248,-1.4748282
0.021320224,4.573887,-0.4119557,0.5705158,-2.8152938,-1.5897499,-14.302961,-1.5753847
0.0185784,4.5735116,-0.4119557,0.5705158,-2.8152938,-1.5897499,-14.302961,-1.5753847
0.0156739,4.573125,-0.4119557,0.57797265,-2.9857361,-1.6759412,-14.149732,-1.6807296
0.012769371,4.5727377,-0.4119557,0.57797265,-2.9857361,-1.6759412,-14.149732,-1.6807296
0.009703074,4.572346,-0.4151515,0.58010316,-3.1497867,-1.6184803,-14.03481,-1.6998832
0.0066367956,4.5719547,-0.4151515,0.58010316,-3.1497867,-1.6184803,-14.03481,-1.6998832
0.003384946,4.571557,-0.42260835,0.5811685,-3.3127723,-1.6184803,-13.9151,-1.6424223
0.00017514388,4.571164,-0.42260835,0.5811685,-3.3127723,-1.6184803,-13.9151,-1.6424223
6.2799697,4.5707684,-0.4300652,0.58010316,-3.4725618,-1.5275006,-13.785813,-1.5514427
6.2765794,4.570372,-0.4300652,0.58010316,-3.4725618,-1.5275006,-13.785813,-1.5514427
6.2730355,4.569973,-0.43752205,0.57584214,-3.6291559,-1.4748282,-13.575124,-1.4796166
6.269489,4.5695724,-0.43752205,0.57584214,-3.6291559,-1.4748282,-13.575124,-1.4796166
6.2657804,4.56917,-0.44391364,0.5705158,-3.7857497,-1.3934253,-13.426683,-1.3934253
6.2620797,4.568768,-0.44391364,0.5705158,-3.7857497,-1.3934253,-13.426683,-1.3934253
6.258199,4.568385,-0.4449789,0.5641242,-3.944474,-1.2162545,-13.412318,-1.0390835
6.25432,4.568001,-0.4449789,0.5641242,-3.944474,-1.2162545,-13.412318,-1.0390835
6.2502766,4.5676236,-0.44071785,0.5587979,-4.105329,-1.2354081,-13.417107,-0.8810662
6.24623,4.567245,-0.44071785,0.5587979,-4.105329,-1.2354081,-13.417107,-0.8810662
6.24203,4.566875,-0.43219572,0.5524063,-4.2683144,-1.412579,-13.551182,-0.7278373
6.2378273,4.5665035,-0.43219572,0.5524063,-4.2683144,-1.412579,-13.551182,-0.7278373
6.233466,4.566145,-0.41728202,0.53749263,-4.429169,-1.5466543,-13.699622,-0.60333884
6.229106,4.5657845,-0.41728202,0.53749263,-4.429169,-1.5466543,-13.699622,-0.60333884
6.224593,4.5654373,-0.4002378,0.51512206,-4.587894,-1.6567876,-13.8959465,-0.5650316
6.2200813,4.5650887,-0.4002378,0.51512206,-4.587894,-1.6567876,-13.8959465,-0.5650316
6.2154236,4.5647507,-0.38319355,0.4831641,-4.741292,-1.8004397,-14.073117,-0.521936
6.210767,4.564411,-0.38319355,0.4831641,-4.741292,-1.8004397,-14.073117,-0.521936
6.205972,4.5640764,-0.36827987,0.43948826,-4.8914943,-1.9440918,-14.18325,-0.59855044
6.201174,4.563739,-0.36827987,0.43948826,-4.8914943,-1.9440918,-14.18325,-0.59855044
6.1962576,4.563397,-0.35869247,0.38729033,-5.035305,-2.0685902,-14.173674,-0.80924016
6.191337,4.563052,-0.35869247,0.38729033,-5.035305,-2.0685902,-14.173674,-0.80924016
6.186299,4.562688,-0.35549667,0.32337445,-5.172724,-2.3894134,-14.06354,-1.1109096
6.1812615,4.5623207,-0.35549667,0.32337445,-5.172724,-2.3894134,-14.06354,-1.1109096
6.1761117,4.5619297,-0.35549667,0.2498712,-5.3037515,-2.801216,-13.814544,-1.4030021
6.170962,4.561535,-0.35549667,0.2498712,-5.3037515,-2.801216,-13.814544,-1.4030021
6.165699,4.561112,-0.360823,0.1657153,-5.4283876,-3.193865,-13.364434,-1.5466543
6.160447,4.560686,-0.360823,0.1657153,-5.4283876,-3.193865,-13.364434,-1.5466543
6.155084,4.560234,-0.3672146,0.06877624,-5.5498276,-3.41892,-12.861651,-1.508347
6.149722,4.5597773,-0.3672146,0.06877624,-5.5498276,-3.41892,-12.861651,-1.508347
6.1442623,4.559298,-0.36934513,-0.035619672,-5.6638107,-3.3758245,-12.334928,-1.388637
6.1387978,4.5588136,-0.36934513,-0.035619672,-5.6638107,-3.3758245,-12.334928,-1.388637
6.133242,4.5583124,-0.36614934,-0.14427665,-5.776729,-3.1124623,-11.769896,-1.1779473
6.1276927,4.557806,-0.36614934,-0.14427665,-5.776729,-3.1124623,-11.769896,-1.1779473
6.12204,4.55729,-0.35549667,-0.24973783,-5.8907123,-2.6767175,-11.267113,-0.94810385
6.116387,4.556766,-0.35549667,-0.24973783,-5.8907123,-2.6767175,-11.267113,-0.94810385
6.1106296,4.556241,-0.3373872,-0.34561163,-6.0089564,-2.2266076,-10.884041,-0.7374141
6.104873,4.5557075,-0.3373872,-0.34561163,-6.0089564,-2.2266076,-10.884041,-0.7374141
6.099003,4.5551734,-0.31501663,-0.43189806,-6.135723,-1.8531121,-10.5919485,-0.62249243
6.0931277,4.5546293,-0.31501663,-0.43189806,-6.135723,-1.8531121,-10.5919485,-0.62249243
6.0871406,4.554087,-0.29371136,-0.50646657,-6.2688813,-1.6711528,-10.43872,-0.41180268
6.0811486,4.5535336,-0.29371136,-0.50646657,-6.2688813,-1.6711528,-10.43872,-0.41180268
6.0750155,4.5529823,-0.2713408,-0.56718665,-6.4084306,-1.6424223,-10.271125,-0.06703765
6.0688963,4.552421,-0.2713408,-0.56718665,-6.4084306,-1.6424223,-10.271125,-0.06703765
6.062634,4.551862,-0.24790499,-0.61405826,-6.5479803,-1.9440918,-10.093954,0.3878607
6.0563664,4.551289,-0.24790499,-0.61405826,-6.5479803,-1.9440918,-10.093954,0.3878607
6.049979,4.5507293,-0.21701232,-0.6449509,-6.6800733,-2.2505496,-9.959879,0.92895025
6.043587,4.550156,-0.21701232,-0.6449509,-6.6800733,-2.2505496,-9.959879,0.92895025
6.0370717,4.5496073,-0.17440173,-0.6630604,-6.800448,-2.5378537,-9.80665,1.5562311
6.0305576,4.549045,-0.17440173,-0.6630604,-6.800448,-2.5378537,-9.80665,1.5562311
6.0239305,4.5485244,-0.11368166,-0.669452,-6.9080396,-2.7102363,-9.840169,1.7956513
6.0173182,4.547991,-0.11368166,-0.669452,-6.9080396,-2.7102363,-9.840169,1.7956513
6.010608,4.5475154,-0.03804788,-0.665191,-7.0007176,-2.6479871,-9.849746,1.7525556
6.0038996,4.5470257,-0.03804788,-0.665191,-7.0007176,-2.6479871,-9.849746,1.7525556
5.997113,4.546611,0.051434334,-0.6556036,-7.0795474,-2.3894134,-10.079589,1.6232687
5.990321,4.546181,0.051434334,-0.6556036,-7.0795474,-2.3894134,-10.079589,1.6232687
5.9834695,4.5458374,0.14943866,-0.649212,-7.151985,-1.8435353,-10.366894,1.5131354
5.976612,4.545478,0.14943866,-0.649212,-7.151985,-1.8435353,-10.366894,1.5131354
5.9696846,4.545203,0.24850826,-0.6470815,-7.222293,-1.3455414,-10.821792,1.4077905
5.9627514,4.544913,0.24850826,-0.6470815,-7.222293,-1.3455414,-10.821792,1.4077905
5.9557595,4.5446963,0.34225154,-0.65240777,-7.291535,-1.0342951,-11.176133,1.2162545
5.948776,4.5444646,0.34225154,-0.65240777,-7.291535,-1.0342951,-11.176133,1.2162545
5.9417133,4.544291,0.4242769,-0.6609299,-7.3618426,-0.9720459,-11.262324,1.0726024
5.934665,4.5441017,0.4242769,-0.6609299,-7.3618426,-0.9720459,-11.262324,1.0726024
5.9275503,4.543952,0.48925802,-0.6737131,-7.4268236,-0.9528923,-11.27669,1.0055647
5.920351,4.543784,0.48925802,-0.6737131,-7.4268236,-0.9528923,-11.27669,1.0055647
5.9130177,4.543639,0.53826016,-0.69075733,-7.4832826,-0.8379706,-11.133038,1.0965444
5.9059787,4.5434833,0.53826016,-0.69075733,-7.4832826,-0.8379706,-11.133038,1.0965444
5.8987317,4.543338,0.57660973,-0.71099734,-7.5280237,-0.60333884,-10.783484,1.2018893
5.8916144,4.5431776,0.57660973,-0.71099734,-7.5280237,-0.60333884,-10.783484,1.2018893
5.8843975,4.543024,0.6096329,-0.7301721,-7.565308,-0.3878607,-10.199299,1.2066777
5.8771596,4.5428514,0.6096329,-0.7301721,-7.565308,-0.3878607,-10.199299,1.2066777
5.869901,4.54269,0.6458519,-0.74295527,-7.5919394,-0.15322891,-9.409213,0.91458505
5.8626213,4.5425086,0.6458519,-0.74295527,-7.5919394,-0.15322891,-9.409213,0.91458505
5.8553586,4.5423417,0.6842014,-0.74189,-7.6079187,0.12449849,-8.432379,0.30645782
5.848089,4.5421557,0.6842014,-0.74189,-7.6079187,0.12449849,-8.432379,0.30645782
5.840853,4.541972,0.72574675,-0.7280416,-7.6121798,0.58897364,-7.2831616,-0.6655881
5.833589,4.5417686,0.72574675,-0.7280416,-7.6121798,0.58897364,-7.2831616,-0.6655881
5.8263354,4.5415072,0.76622677,-0.7003447,-7.6100492,1.532289,-5.9280434,-1.6328455
5.819069,4.541227,0.76622677,-0.7003447,-7.6100492,1.532289,-5.9280434,-1.6328455
5.811682,4.540932,0.8056416,-0.6513425,-7.6036572,2.6767175,-4.5202527,-2.5091233
5.8042836,4.5406165,0.8056416,-0.6513425,-7.6036572,2.6767175,-4.5202527,-2.5091233
5.7968507,4.5403585,0.84186053,-0.5682519,-7.5930047,3.6343982,-3.169923,-3.5434184
5.789404,4.5400805,0.84186053,-0.5682519,-7.5930047,3.6343982,-3.169923,-3.5434184
5.7819533,4.5398836,0.8738185,-0.45000756,-7.581287,4.630386,-1.7956513,-4.2521024
5.774459,4.539666,0.8738185,-0.45000756,-7.581287,4.630386,-1.7956513,-4.2521024
5.76697,4.539547,0.9025806,-0.30513158,-7.569569,5.5401826,-0.6943185,-4.8745947
5.76697,4.539547,0.9025806,-0.30513158,-7.569569,5.5401826,-0.6943185,-4.8745947
5.76697,4.539547,0.9025806,-0.30513158,-7.569569,5.5401826,-0.6943185,-4.8745947
5.76697,4.539547,0.9025806,-0.30513158,-7.569569,5.5401826,-0.6943185,-4.8745947
5.737772,4.5394087,0.9313428,0.026165664,-7.546133,6.7133417,0.7278373,-5.4444146
5.729081,4.5394516,0.9313428,0.026165664,-7.546133,6.7133417,0.7278373,-5.4444146
5.7215734,4.539585,0.9270817,0.19980377,-7.5269585,7.1873937,1.1013328,-5.353435
5.714255,4.5397034,0.9270817,0.19980377,-7.5269585,7.1873937,1.1013328,-5.353435
5.706689,4.5399117,0.9068417,0.3670503,-7.4992614,7.5704656,1.2306197,-5.0900726
5.699153,4.5401087,0.9068417,0.3670503,-7.4992614,7.5704656,1.2306197,-5.0900726
5.691594,4.5403776,0.86955744,0.5247094,-7.4523897,7.8050976,1.1492168,-4.644751
5.6840506,4.5406375,0.86955744,0.5247094,-7.4523897,7.8050976,1.1492168,-4.644751
5.676538,4.540961,0.8216205,0.6695854,-7.3831477,8.0445175,0.9576807,-4.0078936
5.6690397,4.541277,0.8216205,0.6695854,-7.3831477,8.0445175,0.9576807,-4.0078936
5.66159,4.541645,0.763031,0.8006129,-7.291535,8.279149,0.62728083,-3.3518825
5.654163,4.5420084,0.763031,0.8006129,-7.291535,8.279149,0.62728083,-3.3518825
5.6467967,4.5424156,0.70124567,0.91353095,-7.1764865,8.39886,0.31603462,-2.7868507
5.63946,4.5428185,0.70124567,0.91353095,-7.1764865,8.39886,0.31603462,-2.7868507
5.6322117,4.5432615,0.64159083,1.006209,-7.0390673,8.695741,0.076614454,-2.2888567
5.6249995,4.543701,0.64159083,1.006209,-7.0390673,8.695741,0.076614454,-2.2888567
5.617895,4.5441747,0.58726233,1.0775816,-6.880343,8.944737,-0.17717093,-1.9153614
5.6108046,4.5446477,0.58726233,1.0775816,-6.880343,8.944737,-0.17717093,-1.9153614
5.6038733,4.545157,0.54571706,1.1297797,-6.7024436,9.155427,-0.35913026,-1.5179238
5.5969696,4.545666,0.54571706,1.1297797,-6.7024436,9.155427,-0.35913026,-1.5179238
5.590221,4.5462112,0.5169549,1.1617376,-6.5053697,9.241618,-0.5602432,-1.2689269
5.583492,4.546758,0.5169549,1.1617376,-6.5053697,9.241618,-0.5602432,-1.2689269
5.5769506,4.5473475,0.5041717,1.1766512,-6.293382,9.222465,-0.6895301,-1.0007763
5.570429,4.547939,0.5041717,1.1766512,-6.293382,9.222465,-0.6895301,-1.0007763
5.564139,4.5485797,0.51375914,1.1766512,-6.06435,9.203311,-0.7469909,-0.8762778
5.5578237,4.5492277,0.51375914,1.1766512,-6.06435,9.203311,-0.7469909,-0.8762778
5.551779,4.5499353,0.54039073,1.1649333,-5.818274,8.963891,-0.8283938,-0.7230489
5.545709,4.5506506,0.54039073,1.1649333,-5.818274,8.963891,-0.8283938,-0.7230489
5.5399103,4.5514374,0.58406657,1.1457586,-5.5530233,8.7532015,-0.9528923,-0.7182605
5.534117,4.5522294,0.58406657,1.1457586,-5.5530233,8.7532015,-0.9528923,-0.7182605
5.5286036,4.5530963,0.6383951,1.1201923,-5.2728586,8.523358,-1.0486604,-0.82360536
5.5230794,4.5539727,0.6383951,1.1201923,-5.2728586,8.523358,-1.0486604,-0.82360536
5.5178704,4.554926,0.7001804,1.0914301,-4.978846,8.293514,-1.0726024,-0.94331545
5.5126514,4.555889,0.7001804,1.0914301,-4.978846,8.293514,-1.0726024,-0.94331545
5.5077467,4.5569305,0.763031,1.0605375,-4.6645927,8.078036,-1.0390835,-1.1540052
5.502843,4.5579805,0.763031,1.0605375,-4.6645927,8.078036,-1.0390835,-1.1540052
5.498269,4.559104,0.8237511,1.0275142,-4.3354263,7.642292,-1.0199299,-1.388637
5.4936953,4.560235,0.8237511,1.0275142,-4.3354263,7.642292,-1.0199299,-1.388637
5.489472,4.5614266,0.8802101,0.99236053,-3.9977372,7.1730285,-0.94331545,-1.70946
5.485232,4.5626307,0.8802101,0.99236053,-3.9977372,7.1730285,-0.94331545,-1.70946
5.4813533,4.5638785,0.92601645,0.9486847,-3.6515262,6.7229185,-0.90021986,-1.9680338
5.4774714,4.565135,0.92601645,0.9486847,-3.6515262,6.7229185,-0.90021986,-1.9680338
5.4739585,4.566422,0.96010494,0.8964867,-3.2978585,6.483498,-0.8475474,-2.111686
5.470442,4.5677166,0.96010494,0.8964867,-3.2978585,6.483498,-0.8475474,-2.111686
5.4672937,4.5690227,0.9814102,0.8357667,-2.9388645,6.26802,-0.8858546,-2.207454
5.464259,4.570288,0.9814102,0.8357667,-2.9388645,6.26802,-0.8858546,-2.207454
5.4614806,4.571594,0.98886704,0.7707855,-2.5809355,6.2632318,-0.9528923,-2.2840683
5.458594,4.572957,0.98886704,0.7707855,-2.5809355,6.2632318,-0.9528923,-2.2840683
5.456171,4.574258,0.98034495,0.7090002,-2.2272677,6.4882865,-1.2162545,-2.207454
5.453766,4.5755534,0.98034495,0.7090002,-2.2272677,6.4882865,-1.2162545,-2.207454
5.4516907,4.5768366,0.9579744,0.65467167,-1.8831873,6.7803793,-1.6041151,-2.1739352
5.449603,4.5781307,0.9579744,0.65467167,-1.8831873,6.7803793,-1.6041151,-2.1739352
5.44787,4.579376,0.91962487,0.6109958,-1.5529554,7.043741,-2.1260512,-2.2505496
5.4461317,4.580629,0.91962487,0.6109958,-1.5529554,7.043741,-2.1260512,-2.2505496
5.444721,4.581833,0.8706227,0.5822337,-1.2440287,7.192182,-2.5905263,-2.4037786
5.4433026,4.583047,0.8706227,0.5822337,-1.2440287,7.192182,-2.5905263,-2.4037786
5.4421806,4.584215,0.81096786,0.56625473,-0.9606683,7.264008,-3.074155,-2.5570073
5.441062,4.5853825,0.81096786,0.56625473,-0.9606683,7.264008,-3.074155,-2.5570073
5.4402065,4.586507,0.7449215,0.55773264,-0.7071354,7.2304893,-3.4476504,-2.791639
5.4393544,4.5876293,0.7449215,0.55773264,-0.7071354,7.2304893,-3.4476504,-2.791639
5.438736,4.588711,0.67780983,0.5556021,-0.48236457,7.1490865,-3.7349546,-2.8874073
5.4381194,4.5897903,0.67780983,0.5556021,-0.48236457,7.1490865,-3.7349546,-2.8874073
5.4377084,4.5908313,0.61282873,0.5545368,-0.28742117,6.967127,-3.9935284,-2.9879637
5.437299,4.591871,0.61282873,0.5545368,-0.28742117,6.967127,-3.9935284,-2.9879637
5.43706,4.5928774,0.5553044,0.5566674,-0.122305185,6.7947445,-4.209007,-2.8538885
5.436823,4.593883,0.5553044,0.5566674,-0.122305185,6.7947445,-4.209007,-2.8538885
5.4367213,4.5948677,0.5105633,0.55986315,0.012983402,6.6893997,-4.309563,-2.657564
5.436621,4.5958505,0.5105633,0.55986315,0.012983402,6.6893997,-4.309563,-2.657564
5.4366236,4.5968256,0.4786054,0.5641242,0.118444584,6.655881,-4.4196963,-2.4037786
5.4366264,4.5977983,0.4786054,0.5641242,0.118444584,6.655881,-4.4196963,-2.4037786
5.4367,4.5987706,0.45836535,0.56838524,0.19727415,6.646304,-4.429273,-2.1068976
5.4367733,4.599743,0.45836535,0.56838524,0.19727415,6.646304,-4.429273,-2.1068976
5.436892,4.600726,0.44877797,0.5769074,0.24840684,6.6367273,-4.501099,-1.8626889
5.4370103,4.6017046,0.44877797,0.5769074,0.24840684,6.6367273,-4.501099,-1.8626889
5.4371448,4.6027102,0.44984323,0.58649474,0.27610373,6.6175733,-4.4915223,-1.6136919
5.43728,4.603716,0.44984323,0.58649474,0.27610373,6.6175733,-4.4915223,-1.6136919
5.437415,4.604817,0.45836535,0.59821266,0.28356057,6.6271505,-4.453215,-1.3982137
5.4375386,4.605816,0.45836535,0.59821266,0.28356057,6.6271505,-4.453215,-1.3982137
5.437643,4.6068583,0.47008327,0.6088653,0.2675816,6.622362,-4.414908,-1.3311762
5.437749,4.6079073,0.47008327,0.6088653,0.2675816,6.622362,-4.414908,-1.3311762
5.437806,4.609006,0.48606223,0.61632216,0.23349315,6.703765,-4.3766007,-1.1540052
5.4378643,4.610105,0.48606223,0.61632216,0.23349315,6.703765,-4.3766007,-1.1540052
5.437862,4.6112275,0.5009759,0.619518,0.18022992,6.775591,-4.295198,-1.0821792
5.4378605,4.6123524,0.5009759,0.619518,0.18022992,6.775591,-4.295198,-1.0821792
5.4377837,4.613493,0.51375914,0.619518,0.11098773,6.895301,-4.261679,-0.9959879
5.4377084,4.614632,0.51375914,0.619518,0.11098773,6.895301,-4.261679,-0.9959879
5.437548,4.6157875,0.5265423,0.61632216,0.031092897,6.9767036,-4.1180267,-0.90979666
5.437389,4.6169434,0.5265423,0.61632216,0.031092897,6.9767036,-4.1180267,-0.90979666
5.4371424,4.6180935,0.5350644,0.60780007,-0.056258786,7.067683,-4.050989,-0.89064306
5.4368973,4.619243,0.5350644,0.60780007,-0.056258786,7.067683,-4.050989,-0.89064306
5.436554,4.6203938,0.54252124,0.5950169,-0.15213259,7.0485296,-3.8977604,-0.7374141
5.4362116,4.6215467,0.54252124,0.5950169,-0.15213259,7.0485296,-3.8977604,-0.7374141
5.4357705,4.62269,0.54784757,0.5811685,-0.2512022,7.0245876,-3.7780502,-0.63206923
5.43533,4.623836,0.54784757,0.5811685,-0.2512022,7.0245876,-3.7780502,-0.63206923
5.4347954,4.624973,0.5531739,0.5651895,-0.34814125,6.967127,-3.643975,-0.49320555
5.4342604,4.626113,0.5531739,0.5651895,-0.34814125,6.967127,-3.643975,-0.49320555
5.433629,4.6272383,0.5595655,0.5460147,-0.4450803,6.943185,-3.490746,-0.4309563
5.4329977,4.628365,0.5595655,0.5460147,-0.4450803,6.943185,-3.490746,-0.4309563
5.43229,4.629464,0.57021815,0.5247094,-0.5356278,6.9479733,-3.2752678,-0.33518824
5.4315753,4.630574,0.57021815,0.5247094,-0.5356278,6.9479733,-3.2752678,-0.33518824
5.4307857,4.6316733,0.58193606,0.5023389,-0.6155226,7.0724716,-3.0693667,-0.22026655
5.4299955,4.6327744,0.58193606,0.5023389,-0.6155226,7.0724716,-3.0693667,-0.22026655
5.429141,4.6338634,0.5957845,0.47890306,-0.6826343,7.1059904,-2.9017725,-0.15801731
5.428288,4.6349525,0.5957845,0.47890306,-0.6826343,7.1059904,-2.9017725,-0.15801731
5.427386,4.6360297,0.613894,0.45440197,-0.7348322,7.2352777,-2.6384103,-0.10534488
5.426485,4.6371083,0.613894,0.45440197,-0.7348322,7.2352777,-2.6384103,-0.10534488
5.425545,4.6381845,0.634134,0.42883563,-0.77637756,7.369353,-2.456451,0.019153614
5.4246078,4.63926,0.634134,0.42883563,-0.77637756,7.369353,-2.456451,0.019153614
5.4236436,4.6403236,0.65543926,0.40646508,-0.80300915,7.431602,-2.2218192,-0.06703765
5.422679,4.641391,0.65543926,0.40646508,-0.80300915,7.431602,-2.2218192,-0.06703765
5.4217086,4.64245,0.6767446,0.3808987,-0.8136618,7.455544,-2.0254946,-0.01436521
5.4207363,4.6435127,0.6767446,0.3808987,-0.8136618,7.455544,-2.0254946,-0.01436521
5.419776,4.6445713,0.69804984,0.35533237,-0.806205,7.4986396,-1.8674773,0.04309563
5.4188166,4.6456304,0.69804984,0.35533237,-0.806205,7.4986396,-1.8674773,0.04309563
5.4178824,4.6466746,0.71402884,0.3276355,-0.78063864,7.5321584,-1.6807296,0.0047884034
5.4169497,4.64772,0.71402884,0.3276355,-0.78063864,7.5321584,-1.6807296,0.0047884034
5.416064,4.6487417,0.72787726,0.29461232,-0.7358975,7.603985,-1.5849615,-0.04309563
5.415178,4.649765,0.72787726,0.29461232,-0.7358975,7.603985,-1.5849615,-0.04309563
5.4143596,4.6507583,0.73639935,0.25945857,-0.6709164,7.7189064,-1.4796166,-0.062249243
5.413541,4.6517544,0.73639935,0.25945857,-0.6709164,7.7189064,-1.4796166,-0.062249243
5.4128065,4.65272,0.7385299,0.22323959,-0.5899563,7.867347,-1.316811,0.01436521
5.4120727,4.6536865,0.7385299,0.22323959,-0.5899563,7.867347,-1.316811,0.01436521
5.4114375,4.654617,0.7332036,0.1870206,-0.49408248,8.049306,-1.292869,0.11971009
5.4108047,4.655545,0.7332036,0.1870206,-0.49408248,8.049306,-1.292869,0.11971009
5.41028,4.656437,0.7214857,0.1539974,-0.3854255,8.1642275,-1.4030021,0.16280572
5.4097548,4.657331,0.7214857,0.1539974,-0.3854255,8.1642275,-1.4030021,0.16280572
5.409353,4.6581807,0.7033762,0.12417,-0.26505062,8.197746,-1.5131354,0.21547815
5.408954,4.659024,0.7033762,0.12417,-0.26505062,8.197746,-1.5131354,0.21547815
5.4086885,4.659827,0.6788751,0.09860365,-0.12976204,8.192958,-1.6472107,0.20590134
5.4084215,4.660637,0.6788751,0.09860365,-0.12976204,8.192958,-1.6472107,0.20590134
5.4083037,4.661398,0.6522435,0.074102566,0.016179197,8.073248,-1.8100165,0.2633622
5.4081864,4.662158,0.6522435,0.074102566,0.016179197,8.073248,-1.8100165,0.2633622
5.408223,4.6628737,0.62348133,0.052797277,0.17064254,8.001422,-2.0590134,0.23463176
5.40826,4.6635895,0.62348133,0.052797277,0.17064254,8.001422,-2.0590134,0.23463176
5.4084616,4.664254,0.5957845,0.031491987,0.3368238,7.771579,-2.231396,0.06703765
5.408663,4.664918,0.5957845,0.031491987,0.3368238,7.771579,-2.231396,0.06703765
5.409035,4.665531,0.56915283,0.0069909045,0.50833136,7.6231384,-2.4133554,-0.019153614
5.4094076,4.6661434,0.56915283,0.0069909045,0.50833136,7.6231384,-2.4133554,-0.019153614
5.4099574,4.666702,0.54465175,-0.023901764,0.6851653,7.5848308,-2.5617957,-0.05267244
5.4105062,4.667259,0.54465175,-0.023901764,0.6851653,7.5848308,-2.5617957,-0.05267244
5.411237,4.6677737,0.52441174,-0.057990227,0.8630644,7.52737,-2.7485435,0.038307227
5.411967,4.668287,0.52441174,-0.057990227,0.8630644,7.52737,-2.7485435,0.038307227
5.412876,4.66876,0.5105633,-0.091013424,1.0409636,7.489063,-2.906561,0.076614454
5.413786,4.6692324,0.5105633,-0.091013424,1.0409636,7.489063,-2.906561,0.076614454
5.414874,4.66969,0.5041717,-0.124036625,1.2124711,7.493851,-3.217807,0.32561144
5.415962,4.6701474,0.5041717,-0.124036625,1.2124711,7.493851,-3.217807,0.32561144
5.4172325,4.670601,0.5009759,-0.1549293,1.380783,7.4028716,-3.5913026,0.59855044
5.4199667,4.6715302,0.5031065,-0.18369143,1.5458989,7.2687964,-4.0892963,0.842759
5.4199667,4.6715302,0.5031065,-0.18369143,1.5458989,7.2687964,-4.0892963,0.842759
5.4199667,4.6715302,0.5031065,-0.18369143,1.5458989,7.2687964,-4.0892963,0.842759
5.4199667,4.6715302,0.5031065,-0.18369143,1.5458989,7.2687964,-4.0892963,0.842759
5.4199667,4.6715302,0.5031065,-0.18369143,1.5458989,7.2687964,-4.0892963,0.842759
5.425551,4.673252,0.50630224,-0.22523674,1.8473688,7.015011,-5.1235914,0.94331545
5.4277225,4.673808,0.50630224,-0.22523674,1.8473688,7.015011,-5.1235914,0.94331545
5.4296336,4.67425,0.49991068,-0.23908518,1.9869184,6.895301,-5.57849,0.8331822
5.4315557,4.674695,0.49991068,-0.23908518,1.9869184,6.895301,-5.57849,0.8331822
5.4336767,4.675131,0.48606223,-0.25186837,2.113685,6.7229185,-5.90889,0.5650316
5.435815,4.6755705,0.48606223,-0.25186837,2.113685,6.7229185,-5.90889,0.5650316
5.4381127,4.6759577,0.4604959,-0.2657168,2.226603,6.483498,-6.2584434,0.35913026
5.440397,4.676344,0.4604959,-0.2657168,2.226603,6.483498,-6.2584434,0.35913026
5.4428453,4.6766443,0.42214635,-0.27956524,2.3256726,6.4020953,-6.6367273,0.18195933
5.4452734,4.6769443,0.42214635,-0.27956524,2.3256726,6.4020953,-6.6367273,0.18195933
5.447834,4.6771326,0.37420946,-0.29447892,2.4140894,6.325481,-7.015011,-0.023942016
5.4503994,4.677323,0.37420946,-0.29447892,2.4140894,6.325481,-7.015011,-0.023942016
5.4530325,4.677421,0.31348938,-0.30619684,2.484397,6.301539,-7.359776,-0.110133275
5.455661,4.6775208,0.31348938,-0.30619684,2.484397,6.301539,-7.359776,-0.110133275
5.458341,4.6775293,0.2442472,-0.3136537,2.5365949,6.2249246,-7.6375036,-0.21068975
5.461015,4.6775384,0.2442472,-0.3136537,2.5365949,6.2249246,-7.6375036,-0.21068975
5.4637365,4.677469,0.16541763,-0.3168495,2.569618,6.129156,-7.867347,-0.20590134
5.4664574,4.677401,0.16541763,-0.3168495,2.569618,6.129156,-7.867347,-0.20590134
5.469187,4.6772556,0.082327,-0.3136537,2.5866623,6.019023,-8.078036,-0.20590134
5.471925,4.677112,0.082327,-0.3136537,2.5866623,6.019023,-8.078036,-0.20590134
5.47466,4.676893,-0.0028941538,-0.30619684,2.5866623,5.971139,-8.192958,-0.20590134
5.4773893,4.6766768,-0.0028941538,-0.30619684,2.5866623,5.971139,-8.192958,-0.20590134
5.480117,4.6763883,-0.08278899,-0.29341367,2.5738792,5.9902925,-8.298303,-0.2633622
5.482853,4.676101,-0.08278899,-0.29341367,2.5738792,5.9902925,-8.298303,-0.2633622
5.4855227,4.6757655,-0.16374908,-0.27530417,2.5419211,6.0142345,-8.384495,-0.18195933
5.4855227,4.6757655,-0.16374908,-0.27530417,2.5419211,6.0142345,-8.384495,-0.18195933
5.4910026,4.675037,-0.23938286,-0.25399888,2.4918537,6.05733,-8.394072,-0.10534488
5.4935675,4.6746693,-0.23938286,-0.25399888,2.4918537,6.05733,-8.394072,-0.10534488
5.49611,4.6742544,-0.3075598,-0.22843254,2.4268727,6.0381765,-8.480263,-0.095768064
5.498649,4.6738415,-0.3075598,-0.22843254,2.4268727,6.0381765,-8.480263,-0.095768064
5.5011325,4.6733966,-0.37041038,-0.20393145,2.3448472,5.93762,-8.528147,0.04309563
5.5036135,4.6729546,-0.37041038,-0.20393145,2.3448472,5.93762,-8.528147,0.04309563
5.505996,4.6724987,-0.42260835,-0.17836511,2.251104,5.889736,-8.48984,0.20590134
5.508378,4.6720448,-0.42260835,-0.17836511,2.251104,5.889736,-8.48984,0.20590134
5.5106564,4.6715555,-0.46734947,-0.15919036,2.146708,5.9041014,-8.494628,0.110133275
5.5129366,4.671067,-0.46734947,-0.15919036,2.146708,5.9041014,-8.494628,0.110133275
5.5150886,4.6705756,-0.50250316,-0.14427665,2.03379,5.889736,-8.389283,0.31124622
5.517249,4.6700845,-0.50250316,-0.14427665,2.03379,5.889736,-8.389283,0.31124622
5.519278,4.669571,-0.5323306,-0.13895033,1.9102194,5.8945246,-8.360553,0.36391866
5.521306,4.6690598,-0.5323306,-0.13895033,1.9102194,5.8945246,-8.360553,0.36391866
5.523192,4.668535,-0.5536359,-0.14214613,1.7813224,5.9759274,-8.240842,0.5267244
5.524996,4.6680355,-0.5536359,-0.14214613,1.7813224,5.9759274,-8.240842,0.5267244
5.5267363,4.667495,-0.5696148,-0.15279876,1.6492296,6.1530986,-8.197746,0.6655881
5.5285506,4.666933,-0.5696148,-0.15279876,1.6492296,6.1530986,-8.197746,0.6655881
5.530139,4.6663785,-0.578137,-0.16771246,1.5171368,6.301539,-8.054094,0.7661445
5.531717,4.665829,-0.578137,-0.16771246,1.5171368,6.301539,-8.054094,0.7661445
5.5331693,4.6652555,-0.582398,-0.18369143,1.3871746,6.38773,-7.9822683,0.79487497
5.534628,4.6646805,-0.582398,-0.18369143,1.3871746,6.38773,-7.9822683,0.79487497
5.535947,4.6640887,-0.5834633,-0.2028662,1.2625386,6.397307,-7.872135,0.81881696
5.537265,4.663498,-0.5834633,-0.2028662,1.2625386,6.397307,-7.872135,0.81881696
5.538451,4.6628885,-0.5802675,-0.22523674,1.143229,6.4499793,-7.680599,0.8619126
5.539636,4.6622806,-0.5802675,-0.22523674,1.143229,6.4499793,-7.680599,0.8619126
5.540704,4.6616564,-0.57281065,-0.24973783,1.0356373,6.4020953,-7.4507556,0.92895025
5.5417724,4.6610317,-0.57281065,-0.24973783,1.0356373,6.4020953,-7.4507556,0.92895025
5.5427423,4.660393,-0.5600275,-0.27530417,0.94402456,6.349423,-7.2592196,0.94331545
5.54371,4.659758,-0.5600275,-0.27530417,0.94402456,6.349423,-7.2592196,0.94331545
5.544591,4.659108,-0.54298323,-0.30406633,0.86945605,6.4164605,-6.991069,0.9768343
5.5454693,4.6584606,-0.54298323,-0.30406633,0.86945605,6.4164605,-6.991069,0.9768343
5.546276,4.657808,-0.51635164,-0.33282846,0.8119317,6.4404025,-6.655881,1.0247183
5.5470815,4.657157,-0.51635164,-0.33282846,0.8119317,6.4404025,-6.655881,1.0247183
5.54783,4.656505,-0.48332843,-0.3615906,0.7735822,6.5984197,-6.3446345,0.9911995
5.5485773,4.6558547,-0.48332843,-0.3615906,0.7735822,6.5984197,-6.3446345,0.9911995
5.5492873,4.6552086,-0.44284838,-0.38609168,0.76079905,6.823475,-6.0238113,0.8331822
5.5499973,4.654564,-0.44284838,-0.38609168,0.76079905,6.823475,-6.0238113,0.8331822
5.5506916,4.6539326,-0.39597675,-0.40526643,0.76292956,7.091625,-5.631162,0.78529817
5.5513835,4.653303,-0.39597675,-0.40526643,0.76292956,7.091625,-5.631162,0.78529817
5.552079,4.6526885,-0.34697458,-0.42018014,0.7821043,7.2448545,-5.267244,0.5506664
5.5527744,4.652075,-0.34697458,-0.42018014,0.7821043,7.2448545,-5.267244,0.5506664
5.5534945,4.6514797,-0.29903767,-0.43083277,0.81938857,7.4603324,-4.831499,0.33518824
5.554215,4.650885,-0.29903767,-0.43083277,0.81938857,7.4603324,-4.831499,0.33518824
5.5549836,4.6503105,-0.2532313,-0.43828964,0.8747823,7.599196,-4.462792,0.047884032
5.5557513,4.649738,-0.2532313,-0.43828964,0.8747823,7.599196,-4.462792,0.047884032
5.556585,4.649184,-0.21275125,-0.44361597,0.94402456,7.6470804,-4.0653543,-0.24420857
5.557419,4.6486325,-0.21275125,-0.44361597,0.94402456,7.6470804,-4.0653543,-0.24420857
5.5583396,4.6480947,-0.18079332,-0.4510728,1.030311,7.6375036,-3.620033,-0.51714754
5.5592594,4.647558,-0.18079332,-0.4510728,1.030311,7.6375036,-3.620033,-0.51714754
5.5602846,4.647029,-0.15948802,-0.45959494,1.1347069,7.5944076,-3.2082303,-0.79487497
5.5613084,4.646501,-0.15948802,-0.45959494,1.1347069,7.5944076,-3.2082303,-0.79487497
5.5624604,4.6459723,-0.14670485,-0.47024757,1.2582775,7.350199,-2.7341783,-1.0342951
5.56361,4.6454463,-0.14670485,-0.47024757,1.2582775,7.350199,-2.7341783,-1.0342951
5.564907,4.644913,-0.1456396,-0.48303074,1.401023,7.16824,-2.1691468,-1.1827357
5.566201,4.644383,-0.1456396,-0.48303074,1.401023,7.16824,-2.1691468,-1.1827357
5.5676613,4.6438384,-0.1541617,-0.4958139,1.561878,7.0102224,-1.6136919,-1.3359646
5.5691185,4.643297,-0.1541617,-0.4958139,1.561878,7.0102224,-1.6136919,-1.3359646
5.5707636,4.6427464,-0.16587962,-0.5075318,1.7440381,6.943185,-1.1300632,-1.3359646
5.5724044,4.6422005,-0.16587962,-0.5075318,1.7440381,6.943185,-1.1300632,-1.3359646
5.5742474,4.6416492,-0.18398911,-0.5171192,1.9443078,7.0485296,-0.90500826,-1.1779473
5.5760865,4.6411014,-0.18398911,-0.5171192,1.9443078,7.0485296,-0.90500826,-1.1779473
5.5781493,4.6405497,-0.20742492,-0.520315,2.1594913,7.1730285,-0.90021986,-0.9528923
5.580208,4.640002,-0.20742492,-0.520315,2.1594913,7.1730285,-0.90021986,-0.9528923
5.582494,4.639457,-0.2351218,-0.51498866,2.3874578,7.2448545,-1.1204864,-0.6847417
5.58478,4.638915,-0.2351218,-0.51498866,2.3874578,7.2448545,-1.1204864,-0.6847417
5.587303,4.638379,-0.2713408,-0.4968792,2.6260772,7.129933,-1.6519991,-0.41180268
5.589824,4.637847,-0.2713408,-0.4968792,2.6260772,7.129933,-1.6519991,-0.41180268
5.592592,4.637312,-0.31714717,-0.46705177,2.8721533,6.7612257,-2.3223755,-0.36391866
5.595354,4.6367807,-0.31714717,-0.46705177,2.8721533,6.7612257,-2.3223755,-0.36391866
5.5983706,4.63623,-0.3789325,-0.42976752,3.1299472,6.2345014,-3.0933087,-0.47405192
5.6013813,4.635683,-0.3789325,-0.42976752,3.1299472,6.2345014,-3.0933087,-0.47405192
5.604673,4.6350837,-0.45882735,-0.39248326,3.402655,5.755661,-3.8498764,-0.6895301
5.6079583,4.634489,-0.45882735,-0.39248326,3.402655,5.755661,-3.8498764,-0.6895301
5.6115475,4.6337914,-0.5578969,-0.36052534,3.6849499,5.3103395,-4.6112323,-1.0342951
5.615128,4.633099,-0.5578969,-0.36052534,3.6849499,5.3103395,-4.6112323,-1.0342951
5.6190567,4.632289,-0.675076,-0.33389372,3.971506,5.0374002,-5.2289367,-1.4460979
5.622975,4.631484,-0.675076,-0.33389372,3.971506,5.0374002,-5.2289367,-1.4460979
5.6272182,4.6305814,-0.80077726,-0.30939263,4.255932,4.879383,-5.6407394,-1.8435353
5.6314588,4.6296825,-0.80077726,-0.30939263,4.255932,4.879383,-5.6407394,-1.8435353
5.635999,4.628686,-0.93287003,-0.28808734,4.531835,4.7070007,-6.019023,-2.1691468
5.6405373,4.6276927,-0.93287003,-0.28808734,4.531835,4.7070007,-6.019023,-2.1691468
5.6453547,4.6266093,-1.0607017,-0.26465154,4.7938905,4.381389,-6.2584434,-2.5139117
5.6501613,4.6255307,-1.0607017,-0.26465154,4.7938905,4.381389,-6.2584434,-2.5139117
5.655235,4.6243715,-1.1757504,-0.23695466,5.03464,4.0892963,-6.3542113,-2.7820623
5.660297,4.6232185,-1.1757504,-0.23695466,5.03464,4.0892963,-6.3542113,-2.7820623
5.665577,4.6220036,-1.27482,-0.20712726,5.250889,3.8402996,-6.3829417,-3.0358477
5.670855,4.620791,-1.27482,-0.20712726,5.250889,3.8402996,-6.3829417,-3.0358477
5.676319,4.6195374,-1.3547148,-0.17197353,5.440506,3.6870706,-6.3302693,-3.2561142
5.6817813,4.618286,-1.3547148,-0.17197353,5.440506,3.6870706,-6.3302693,-3.2561142
5.6874013,4.6170115,-1.4143696,-0.13575453,5.6045566,3.667917,-6.3446345,-3.4093432
5.6930137,4.615741,-1.4143696,-0.13575453,5.6045566,3.667917,-6.3446345,-3.4093432
5.6987596,4.614457,-1.4580454,-0.09847028,5.737715,3.7924154,-6.3446345,-3.596091
5.704498,4.613176,-1.4580454,-0.09847028,5.737715,3.7924154,-6.3446345,-3.596091
5.710333,4.6118984,-1.4868076,-0.057990227,5.8410454,3.9743748,-6.3446345,-3.6391866
5.716154,4.6106243,-1.4868076,-0.057990227,5.8410454,3.9743748,-6.3446345,-3.6391866
5.7220464,4.609365,-1.5017213,-0.01324912,5.912418,4.10845,-6.2967505,-3.8402996
5.727954,4.6081023,-1.5017213,-0.01324912,5.912418,4.10845,-6.2967505,-3.8402996
5.727954,4.6081023,-1.5017213,-0.01324912,5.912418,4.10845,-6.2967505,-3.8402996
5.739842,4.605619,-1.5113087,0.03468778,5.956094,4.132392,-6.220136,-4.0078936
5.745687,4.60442,-1.5177002,0.08262468,5.9720726,4.122815,-6.0381765,-4.10845
5.751607,4.6032047,-1.5177002,0.08262468,5.9720726,4.122815,-6.0381765,-4.10845
5.7575035,4.602008,-1.5240918,0.12843105,5.9624853,4.027047,-5.8466406,-4.146757
5.763404,4.6008086,-1.5240918,0.12843105,5.9624853,4.027047,-5.8466406,-4.146757
5.7692633,4.599623,-1.5304834,0.1689111,5.931593,3.8259344,-5.6551046,-4.0701427
5.7751265,4.598434,-1.5304834,0.1689111,5.931593,3.8259344,-5.6551046,-4.0701427
5.7809277,4.5972595,-1.5358098,0.20939115,5.887917,3.6248214,-5.3678,-3.940856
5.7867503,4.5960774,-1.5358098,0.20939115,5.887917,3.6248214,-5.3678,-3.940856
5.7925005,4.5949106,-1.5379403,0.24880594,5.835719,3.3901896,-4.9176903,-3.715801
5.7982545,4.59374,-1.5379403,0.24880594,5.835719,3.3901896,-4.9176903,-3.715801
5.803934,4.592592,-1.5315486,0.28822073,5.780325,3.1507695,-4.525041,-3.4476504
5.809628,4.591437,-1.5315486,0.28822073,5.780325,3.1507695,-4.525041,-3.4476504
5.815246,4.590312,-1.5155697,0.32337445,5.7228007,2.944868,-4.2042184,-3.1603463
5.820862,4.5891833,-1.5155697,0.32337445,5.7228007,2.944868,-4.2042184,-3.1603463
5.8264065,4.5880966,-1.484677,0.35426712,5.6695375,2.8682537,-3.9456444,-2.8060043
5.8319597,4.5870037,-1.484677,0.35426712,5.6695375,2.8682537,-3.9456444,-2.8060043
5.8374357,4.5859623,-1.4441969,0.3787682,5.6205354,2.9113493,-3.7780502,-2.4516625
5.8429203,4.584914,-1.4441969,0.3787682,5.6205354,2.9113493,-3.7780502,-2.4516625
5.8483343,4.5839286,-1.3898685,0.3968777,5.5779247,2.9352913,-3.7349546,-2.255338
5.8483343,4.5839286,-1.3898685,0.3968777,5.5779247,2.9352913,-3.7349546,-2.255338
5.8593073,4.5819244,-1.3280832,0.4053998,5.544902,2.944868,-3.7541082,-2.0973208
5.86482,4.580967,-1.3280832,0.4053998,5.544902,2.944868,-3.7541082,-2.0973208
5.86482,4.580967,-1.3280832,0.4053998,5.544902,2.944868,-3.7541082,-2.0973208
5.8753734,4.5792274,-1.2673631,0.40646508,5.521466,2.8682537,-3.6966474,-2.111686
5.880914,4.5783606,-1.2077082,0.39581242,5.510813,2.7246015,-3.6248214,-2.1547816
5.880914,4.5783606,-1.2077082,0.39581242,5.510813,2.7246015,-3.6248214,-2.1547816
5.891355,4.5767527,-1.1523145,0.37237662,5.5172048,2.566584,-3.4715924,-2.1452048
5.896679,4.5759506,-1.1523145,0.37237662,5.5172048,2.566584,-3.4715924,-2.1452048
5.9020534,4.5751777,-1.1011819,0.3393534,5.540641,2.4133554,-3.2082303,-2.1643584
5.9074306,4.5743995,-1.1011819,0.3393534,5.540641,2.4133554,-3.2082303,-2.1643584
5.9128714,4.5736475,-1.0543102,0.29993862,5.5875125,2.2697031,-2.9352913,-2.1643584
5.918315,4.5728903,-1.0543102,0.29993862,5.5875125,2.2697031,-2.9352913,-2.1643584
5.923819,4.5721574,-1.0127648,0.26052386,5.6578197,1.9871874,-2.585738,-2.1930888
5.929338,4.571418,-1.0127648,0.26052386,5.6578197,1.9871874,-2.585738,-2.1930888
5.934955,4.5707045,-0.9701543,0.22537012,5.7536936,1.5945383,-2.2697031,-2.2697031
5.940587,4.5699844,-0.9701543,0.22537012,5.7536936,1.5945383,-2.2697031,-2.2697031
5.946339,4.5693007,-0.92434794,0.19767325,5.8740683,1.2880806,-2.0159178,-2.15957
5.952101,4.56861,-0.92434794,0.19767325,5.8740683,1.2880806,-2.0159178,-2.15957
5.9580116,4.567968,-0.8710847,0.17423743,6.0189443,1.0534488,-1.9201498,-1.9057846
5.963914,4.5673213,-0.8710847,0.17423743,6.0189443,1.0534488,-1.9201498,-1.9057846
5.970026,4.566733,-0.81142986,0.15612793,6.189387,0.7038953,-2.087744,-1.6089035
5.976118,4.56614,-0.81142986,0.15612793,6.189387,0.7038953,-2.087744,-1.6089035
5.9825044,4.565637,-0.7453835,0.14654055,6.383265,0.23942018,-2.6671407,-1.0965444
5.988869,4.565128,-0.7453835,0.14654055,6.383265,0.23942018,-2.6671407,-1.0965444
5.995521,4.564794,-0.67614126,0.14867108,6.6027093,-0.41180268,-3.7110126,-0.45968673
6.0021653,4.564454,-0.67614126,0.14867108,6.6027093,-0.41180268,-3.7110126,-0.45968673
6.0091777,4.564204,-0.61116016,0.1571932,6.842394,-1.3024458,-4.7548847,0.033518825
6.015888,4.5639577,-0.61116016,0.1571932,6.842394,-1.3024458,-4.7548847,0.033518825
6.022979,4.563786,-0.5600275,0.1657153,7.101253,-1.2497733,-6.4164605,0.866701
6.0300546,4.563606,-0.5600275,0.1657153,7.101253,-1.2497733,-6.4164605,0.866701
6.037448,4.563443,-0.52700424,0.17636795,7.3792872,-2.9783869,-7.541735,0.6703765
6.0448184,4.563272,-0.52700424,0.17636795,7.3792872,-2.9783869,-7.541735,0.6703765
6.052464,4.5631204,-0.51635164,0.16678058,7.6562557,-2.5570073,-9.380483,1.0486604
6.0601087,4.5629587,-0.51635164,0.16678058,7.6562557,-2.5570073,-9.380483,1.0486604
6.068039,4.5627704,-0.5312653,0.14121422,7.9278984,-3.145981,-10.749966,0.89064306
6.0759525,4.562572,-0.5312653,0.14121422,7.9278984,-3.145981,-10.749966,0.89064306
6.0841455,4.5623336,-0.5578969,0.11458261,8.192084,-3.3566709,-11.563994,0.50757074
6.0923376,4.562085,-0.5578969,0.11458261,8.192084,-3.3566709,-11.563994,0.50757074
6.1007824,4.5617867,-0.5941159,0.07729836,8.431768,-3.7205894,-12.737153,0.39264908
6.109201,4.5614786,-0.5941159,0.07729836,8.431768,-3.7205894,-12.737153,0.39264908
6.11787,4.5611115,-0.6399223,0.033622514,8.645886,-4.0892963,-14.164097,0.49799395
6.1265125,4.560735,-0.6399223,0.033622514,8.645886,-4.0892963,-14.164097,0.49799395
6.1353607,4.5603056,-0.68040234,-0.010053327,8.832308,-4.3766007,-15.557523,0.62249243
6.144191,4.559867,-0.68040234,-0.010053327,8.832308,-4.3766007,-15.557523,0.62249243
6.1531963,4.559388,-0.7059687,-0.051598642,8.987837,-4.6399627,-16.783354,0.6751649
6.162174,4.5589004,-0.7059687,-0.051598642,8.987837,-4.6399627,-16.783354,0.6751649
6.1713142,4.5583887,-0.71449083,-0.08994816,9.110342,-4.8219223,-17.84159,0.62728083
6.1804256,4.557868,-0.71449083,-0.08994816,9.110342,-4.8219223,-17.84159,0.62728083
6.189648,4.5573335,-0.71236026,-0.122971356,9.197694,-5.109226,-18.83758,0.40222588
6.1988416,4.5567894,-0.71236026,-0.122971356,9.197694,-5.109226,-18.83758,0.40222588
6.2081265,4.556241,-0.69851184,-0.1517335,9.24563,-5.2241483,-19.503166,0.02873042
6.217382,4.555684,-0.69851184,-0.1517335,9.24563,-5.2241483,-19.503166,0.02873042
6.2266684,4.5551295,-0.6793371,-0.17729984,9.250957,-5.185841,-20.15439,-0.4357447
6.2359347,4.554565,-0.6793371,-0.17729984,9.250957,-5.185841,-20.15439,-0.4357447
6.24519,4.554,-0.66229284,-0.19753987,9.213673,-5.0134583,-20.652384,-0.9672575
6.2544155,4.5534267,-0.66229284,-0.19753987,9.213673,-5.0134583,-20.652384,-0.9672575
6.263605,4.552847,-0.6484444,-0.20819251,9.132712,-4.8745947,-21.049822,-1.5562311
6.2727656,4.5522585,-0.6484444,-0.20819251,9.132712,-4.8745947,-21.049822,-1.5562311
6.281825,4.551656,-0.638857,-0.21032305,9.003816,-4.807557,-21.274876,-2.27928
0.0076799253,4.551044,-0.638857,-0.21032305,9.003816,-4.807557,-21.274876,-2.27928
0.016573098,4.5504093,-0.634596,-0.20393145,8.831243,-4.8745947,-21.32276,-2.930503
0.025438564,4.549766,-0.634596,-0.20393145,8.831243,-4.8745947,-21.32276,-2.930503
0.034128554,4.5490947,-0.63353074,-0.18901776,8.617125,-5.00867,-21.059399,-3.4715924
0.04279171,4.548415,-0.63353074,-0.18901776,8.617125,-5.00867,-21.059399,-3.4715924
0.05121084,4.5477095,-0.63140017,-0.1666472,8.365722,-4.975151,-20.460848,-3.9121256
0.059620634,4.5469937,-0.63140017,-0.1666472,8.365722,-4.975151,-20.460848,-3.9121256
0.06775776,4.5462556,-0.6250086,-0.1368198,8.074904,-4.8458643,-19.800049,-4.271256
0.06775776,4.5462556,-0.6250086,-0.1368198,8.074904,-4.8458643,-19.800049,-4.271256
0.08381924,4.544746,-0.6100949,-0.09420922,7.7468033,-4.5298295,-19.01475,-4.4244847
0.09183849,4.5439544,-0.6100949,-0.09420922,7.7468033,-4.5298295,-19.01475,-4.4244847
0.09902765,4.543213,-0.582398,-0.036684938,7.382483,-4.1515455,-18.05707,-4.4963107
0.10634701,4.542446,-0.582398,-0.036684938,7.382483,-4.1515455,-18.05707,-4.4963107
0.11331096,4.5416956,-0.53659165,0.038948838,6.9851394,-3.7780502,-17.099388,-4.55856
0.12027757,4.5409327,-0.53659165,0.038948838,6.9851394,-3.7780502,-17.099388,-4.55856
0.12678279,4.5402136,-0.47374105,0.12949632,6.5505114,-3.4237084,-16.136919,-4.5298295
0.13327637,4.5394845,-0.47374105,0.12949632,6.5505114,-3.4237084,-16.136919,-4.5298295
0.13929063,4.538821,-0.3938462,0.22856592,6.081795,-3.2992098,-15.270219,-4.429273
0.14531806,4.5381465,-0.3938462,0.22856592,6.081795,-3.2992098,-15.270219,-4.429273
0.15090504,4.537546,-0.29903767,0.33296183,5.5875125,-3.2130187,-14.369999,-4.3718123
0.15637745,4.536949,-0.29903767,0.33296183,5.5875125,-3.2130187,-14.369999,-4.3718123
0.16127639,4.5364523,-0.19357648,0.43948826,5.071924,-3.1842883,-13.512875,-4.237737
0.16624592,4.5359397,-0.19357648,0.43948826,5.071924,-3.1842883,-13.512875,-4.237737
0.17067601,4.5355325,-0.08278899,0.53962314,4.540357,-3.2034419,-12.684481,-3.9983168
0.17498764,4.535129,-0.08278899,0.53962314,4.540357,-3.2034419,-12.684481,-3.9983168
0.17887437,4.53482,0.027998514,0.63443166,4.003464,-3.098097,-12.042834,-3.739743
0.18285121,4.5344973,0.027998514,0.63443166,4.003464,-3.098097,-12.042834,-3.739743
0.18618092,4.534283,0.1334597,0.7207181,3.463375,-2.825158,-11.410766,-3.4332852
0.189481,4.5340652,0.1334597,0.7207181,3.463375,-2.825158,-11.410766,-3.4332852
0.19225572,4.533943,0.23146403,0.7952866,2.9286122,-2.5570073,-11.008539,-3.0933087
0.19504675,4.5338154,0.23146403,0.7952866,2.9286122,-2.5570073,-11.008539,-3.0933087
0.19730341,4.533779,0.31668517,0.8560067,2.407698,-2.504335,-10.654198,-2.7150247
0.1995594,4.53374,0.31668517,0.8560067,2.407698,-2.504335,-10.654198,-2.7150247
0.20137912,4.533801,0.38699263,0.9060741,1.9102194,-2.6431987,-10.433931,-2.2457612
0.20319468,4.5338583,0.38699263,0.9060741,1.9102194,-2.6431987,-10.433931,-2.2457612
0.20458585,4.5340815,0.44451693,0.94548887,1.4478946,-2.896984,-10.357317,-1.7429788
0.2059773,4.534302,0.44451693,0.94548887,1.4478946,-2.896984,-10.357317,-1.7429788
0.20690244,4.5346313,0.49032328,0.9721205,1.0313762,-3.145981,-10.520123,-1.0295067
0.2078276,4.5349593,0.49032328,0.9721205,1.0313762,-3.145981,-10.520123,-1.0295067
0.20836943,4.5353365,0.521216,0.98596895,0.6670558,-3.4620156,-10.955867,-0.30166942
0.20891102,4.5357127,0.521216,0.98596895,0.6670558,-3.4620156,-10.955867,-0.30166942
0.20914508,4.536118,0.5371949,0.98596895,0.36452067,-3.8546648,-11.640609,0.45968673
0.20938033,4.5365243,0.5371949,0.98596895,0.36452067,-3.8546648,-11.640609,0.45968673
0.20938057,4.536938,0.53612965,0.9721205,0.12483617,-4.390966,-12.516887,1.0055647
0.20938122,4.537353,0.53612965,0.9721205,0.12483617,-4.390966,-12.516887,1.0055647
0.20921834,4.537759,0.51588964,0.94122785,-0.0498672,-4.903325,-13.364434,1.2210429
0.20905586,4.538165,0.51588964,0.94122785,-0.0498672,-4.903325,-13.364434,1.2210429
0.20879321,4.5385456,0.4743443,0.88902986,-0.16065471,-5.1379566,-14.207192,1.2162545
0.208531,4.538926,0.4743443,0.88902986,-0.16065471,-5.1379566,-14.207192,1.2162545
0.20822687,4.539263,0.41149372,0.8155266,-0.21285266,-5.046977,-14.777013,1.091756
0.20792314,4.5395994,0.41149372,0.8155266,-0.21285266,-5.046977,-14.777013,1.091756
0.20762654,4.53988,0.33479467,0.7271097,-0.21711372,-4.831499,-15.222335,0.82360536
0.20733032,4.540161,0.33479467,0.7271097,-0.21711372,-4.831499,-15.222335,0.82360536
0.20708187,4.540377,0.24850826,0.6248443,-0.18195999,-4.5872903,-15.423448,0.61770403
0.20683363,4.5405936,0.24850826,0.6248443,-0.18195999,-4.5872903,-15.423448,0.61770403
0.20667073,4.540743,0.16115656,0.5161873,-0.1159136,-4.510676,-15.413871,0.31124622
0.20650803,4.5408926,0.16115656,0.5161873,-0.1159136,-4.510676,-15.413871,0.31124622
0.20645694,4.54098,0.08019647,0.41072613,-0.024300855,-4.4436383,-15.188815,0.047884032
0.20640604,4.5410666,0.08019647,0.41072613,-0.024300855,-4.4436383,-15.188815,0.047884032
0.20648332,4.5411015,0.012019549,0.309526,0.08435612,-4.3382936,-14.824897,-0.19632454
0.20656058,4.5411367,0.012019549,0.309526,0.08435612,-4.3382936,-14.824897,-0.19632454
0.20677108,4.541137,-0.03804788,0.21365221,0.20153521,-4.098873,-14.389153,-0.47405192
0.20698145,4.5411377,-0.03804788,0.21365221,0.20153521,-4.098873,-14.389153,-0.47405192
0.2073233,4.5411243,-0.06681002,0.12736578,0.32191008,-3.8259344,-13.982138,-0.6751649
0.20766483,4.541111,-0.06681002,0.12736578,0.32191008,-3.8259344,-13.982138,-0.6751649
0.20812881,4.541101,-0.076397404,0.053862542,0.44015446,-3.5482068,-13.613431,-0.7613561
0.20859347,4.541091,-0.076397404,0.053862542,0.44015446,-3.5482068,-13.613431,-0.7613561
0.20916627,4.5410986,-0.06894055,-0.0047270046,0.5456156,-3.3039982,-13.326127,-0.9911995
0.20972946,4.5411057,-0.06894055,-0.0047270046,0.5456156,-3.3039982,-13.326127,-0.9911995
0.21039349,4.5411425,-0.04763526,-0.047337584,0.6393589,-3.0789435,-13.115437,-1.2018893
0.21106526,4.5411797,-0.04763526,-0.047337584,0.6393589,-3.0789435,-13.115437,-1.2018893
0.21180336,4.5412498,-0.017807856,-0.07396919,0.7139274,-2.9400797,-12.842498,-1.4556746
0.21254025,4.5413203,-0.017807856,-0.07396919,0.7139274,-2.9400797,-12.842498,-1.4556746
0.21332829,4.541425,0.0141500775,-0.08888289,0.76719064,-2.8299465,-12.660539,-1.7717092
0.21411395,4.54153,0.0141500775,-0.08888289,0.76719064,-2.8299465,-12.660539,-1.7717092
0.21493179,4.541669,0.047173277,-0.095274486,0.79701805,-2.801216,-12.540829,-1.9009962
0.21574575,4.5418077,0.047173277,-0.095274486,0.79701805,-2.801216,-12.540829,-1.9009962
0.2165121,4.5419707,0.074870154,-0.09633975,0.8066054,-2.7485435,-12.53604,-2.0829554
0.21726629,4.5421305,0.074870154,-0.09633975,0.8066054,-2.7485435,-12.53604,-2.0829554
0.2180078,4.542121,0.09297965,-0.093143955,0.792757,-2.7629087,-12.5504055,-2.2409728
0.21874012,4.5421147,0.09297965,-0.093143955,0.792757,-2.7629087,-12.5504055,-2.2409728
0.21939845,4.542141,0.102567025,-0.08994816,0.7576032,-2.681506,-12.569559,-2.2601264
0.22005445,4.5421696,0.102567025,-0.08994816,0.7576032,-2.681506,-12.569559,-2.2601264
0.22062136,4.5422544,0.09937123,-0.08462184,0.70220953,-2.6623523,-12.545617,-2.1643584
0.2211974,4.5423408,0.09937123,-0.08462184,0.70220953,-2.6623523,-12.545617,-2.1643584
0.22169477,4.542436,0.087653324,-0.08036078,0.6265757,-2.6288335,-12.559982,-2.135628
0.22217286,4.5425267,0.087653324,-0.08036078,0.6265757,-2.6288335,-12.559982,-2.135628
0.22259456,4.5426483,0.06847856,-0.07396919,0.53070194,-2.6144683,-12.579136,-2.0398598
0.22300857,4.542766,0.06847856,-0.07396919,0.53070194,-2.6144683,-12.579136,-2.0398598
0.22333142,4.5428796,0.04291222,-0.064381815,0.41884917,-2.6767175,-12.516887,-2.006341
0.22333142,4.5428796,0.04291222,-0.064381815,0.41884917,-2.6767175,-12.516887,-2.006341
0.22333142,4.5428796,0.04291222,-0.064381815,0.41884917,-2.6767175,-12.516887,-2.006341
0.22402005,4.543195,0.015215342,-0.05372917,0.2952785,-2.7150247,-12.421119,-1.9536686
0.22402005,4.543195,0.015215342,-0.05372917,0.2952785,-2.7150247,-12.421119,-1.9536686
0.22414348,4.543297,-0.012481534,-0.040945996,0.16318569,-2.6862943,-12.258312,-1.9297266
0.22420408,4.5434203,-0.035917353,-0.030293351,0.021505518,-2.695871,-12.138602,-1.8483237
0.22420408,4.5434203,-0.035917353,-0.030293351,0.021505518,-2.695871,-12.138602,-1.8483237
0.2241848,4.5434947,-0.035917353,-0.030293351,0.021505518,-2.695871,-12.138602,-1.8483237
0.2241848,4.5434947,-0.035917353,-0.030293351,0.021505518,-2.695871,-12.138602,-1.8483237
0.22371906,4.543651,-0.052961584,-0.018575443,-0.1276315,-2.657564,-11.975797,-1.7956513
0.22342663,4.543702,-0.06361423,-0.0068575335,-0.28102958,-2.6719291,-11.769896,-1.7046716
0.22298574,4.5437517,-0.06787529,0.00592564,-0.4333624,-2.60968,-11.453861,-1.6041151
0.2225628,4.5437994,-0.06787529,0.00592564,-0.4333624,-2.60968,-11.453861,-1.6041151
0.22213446,4.543848,-0.06787529,0.00592564,-0.4333624,-2.60968,-11.453861,-1.6041151
0.22155711,4.543904,-0.062548965,0.021904606,-0.58462995,-2.566584,-11.233594,-1.4460979
0.2209808,4.543959,-0.062548965,0.021904606,-0.58462995,-2.566584,-11.233594,-1.4460979
0.22024417,4.544031,-0.04763526,0.040014103,-0.7305712,-2.4181437,-10.884041,-1.340753
0.2195091,4.5441027,-0.04763526,0.040014103,-0.7305712,-2.4181437,-10.884041,-1.340753
0.21863061,4.544199,-0.024199443,0.05918886,-0.8701208,-2.3223755,-10.606314,-1.1013328
0.21775883,4.544294,-0.024199443,0.05918886,-0.8701208,-2.3223755,-10.606314,-1.1013328
0.21674912,4.544422,0.00988902,0.08155942,-1.0011483,-2.1691468,-10.309433,-0.90979666
0.21573457,4.544551,0.00988902,0.08155942,-1.0011483,-2.1691468,-10.309433,-0.90979666
0.21459438,4.5447206,0.0524996,0.1060605,-1.1215233,-2.0494366,-10.084377,-0.7422025
0.21345654,4.5448904,0.0524996,0.1060605,-1.1215233,-2.0494366,-10.084377,-0.7422025
0.21221036,4.5451064,0.10150176,0.13056158,-1.2301803,-1.9919758,-9.902418,-0.7182605
0.21098304,4.5453196,0.10150176,0.13056158,-1.2301803,-1.9919758,-9.902418,-0.7182605
0.20962821,4.54559,0.15796077,0.15293214,-1.3249887,-1.8243817,-9.677363,-0.62728083
0.20824476,4.545867,0.15796077,0.15293214,-1.3249887,-1.8243817,-9.677363,-0.62728083
0.2067604,4.546205,0.21761559,0.17104164,-1.4048836,-1.7190368,-9.524135,-0.60333884
0.2053494,4.546527,0.21761559,0.17104164,-1.4048836,-1.7190368,-9.524135,-0.60333884
0.20378137,4.5469327,0.27833566,0.18275954,-1.4677342,-1.70946,-9.356541,-0.641646
0.20378137,4.5469327,0.27833566,0.18275954,-1.4677342,-1.70946,-9.356541,-0.641646
0.20076261,4.547808,0.340121,0.19234692,-1.5156711,-1.6280571,-9.088389,-0.59376204
0.1992179,4.5482564,0.340121,0.19234692,-1.5156711,-1.6280571,-9.088389,-0.59376204
0.1976452,4.5487614,0.39551476,0.1987385,-1.5423027,-1.6376339,-8.892065,-0.6703765
0.19607247,4.5492673,0.39551476,0.1987385,-1.5423027,-1.6376339,-8.892065,-0.6703765
0.19450067,4.549821,0.44558218,0.1987385,-1.5486943,-1.5897499,-8.695741,-0.5554548
0.19292706,4.550376,0.44558218,0.1987385,-1.5486943,-1.5897499,-8.695741,-0.5554548
0.19135998,4.5509768,0.49138856,0.19341218,-1.5401722,-1.5227122,-8.528147,-0.47405192
0.18979733,4.5515766,0.49138856,0.19341218,-1.5401722,-1.5227122,-8.528147,-0.47405192
0.18826143,4.5522156,0.52973807,0.18595533,-1.51141,-1.4700398,-8.408437,-0.4309563
0.18671905,4.5528574,0.52973807,0.18595533,-1.51141,-1.4700398,-8.408437,-0.4309563
0.18523917,4.5535216,0.5595655,0.17849848,-1.4645385,-1.4221559,-8.236053,-0.47405192
0.18375003,4.55419,0.5595655,0.17849848,-1.4645385,-1.4221559,-8.236053,-0.47405192
0.18231523,4.554885,0.58406657,0.1689111,-1.4070141,-1.388637,-8.09719,-0.5363012
0.18088736,4.555577,0.58406657,0.1689111,-1.4070141,-1.388637,-8.09719,-0.5363012
0.17952597,4.5562854,0.6011108,0.1571932,-1.3356414,-1.3503298,-8.010999,-0.63206923
0.17816618,4.5569944,0.6011108,0.1571932,-1.3356414,-1.3503298,-8.010999,-0.63206923
0.17686716,4.5577135,0.613894,0.14441001,-1.2525507,-1.2641385,-7.929596,-0.8331822
0.17557116,4.558432,0.613894,0.14441001,-1.2525507,-1.2641385,-7.929596,-0.8331822
0.17436565,4.5591574,0.6192203,0.12949632,-1.1598728,-1.2737153,-7.9152308,-0.8858546
0.17316563,4.5598803,0.6192203,0.12949632,-1.1598728,-1.2737153,-7.9152308,-0.8858546
0.17201136,4.560586,0.61708975,0.11245208,-1.0586727,-1.2545617,-7.9008656,-1.091756
0.17086045,4.561291,0.61708975,0.11245208,-1.0586727,-1.2545617,-7.9008656,-1.091756
0.16975875,4.561911,0.6075024,0.09327733,-0.9574725,-1.1971009,-7.8865004,-1.1971009
0.16865934,4.5625253,0.6075024,0.09327733,-0.9574725,-1.1971009,-7.8865004,-1.1971009
0.16766334,4.563112,0.59471923,0.073037304,-0.8562724,-1.1923125,-7.905654,-1.2162545
0.16666971,4.5636926,0.59471923,0.073037304,-0.8562724,-1.1923125,-7.905654,-1.2162545
0.165802,4.564225,0.57660973,0.050666746,-0.7508112,-1.1300632,-7.920019,-1.283292
0.16493763,4.564755,0.57660973,0.050666746,-0.7508112,-1.1300632,-7.920019,-1.283292
0.1641991,4.5652456,0.5553044,0.030426722,-0.64748055,-1.1109096,-7.943961,-1.3551182
0.16345565,4.56574,0.5553044,0.030426722,-0.64748055,-1.1109096,-7.943961,-1.3551182
0.16282864,4.5662,0.52973807,0.011251962,-0.5473457,-1.0534488,-7.9343843,-1.4317327
0.16219904,4.566662,0.52973807,0.011251962,-0.5473457,-1.0534488,-7.9343843,-1.4317327
0.16168638,4.567092,0.5041717,-0.0047270046,-0.45040664,-1.0630256,-7.848193,-1.5275006
0.1611947,4.5675054,0.5041717,-0.0047270046,-0.45040664,-1.0630256,-7.848193,-1.5275006
0.16080078,4.5678973,0.4786054,-0.020705972,-0.35985917,-1.091756,-7.8290396,-1.6232687
0.16040726,4.5682898,0.4786054,-0.020705972,-0.35985917,-1.091756,-7.8290396,-1.6232687
0.16009682,4.5686526,0.44984323,-0.036684938,-0.28102958,-1.043872,-7.809886,-1.7717092
0.15978603,4.569016,0.44984323,-0.036684938,-0.28102958,-1.043872,-7.809886,-1.7717092
0.15955119,4.569354,0.4210811,-0.051598642,-0.20965686,-1.0726024,-7.7667904,-1.7621324
0.15932263,4.569683,0.4210811,-0.051598642,-0.20965686,-1.0726024,-7.7667904,-1.7621324
0.15916213,4.569986,0.3912537,-0.064381815,-0.14787152,-1.1013328,-7.785944,-1.8914193
0.15900171,4.5702887,0.3912537,-0.064381815,-0.14787152,-1.1013328,-7.785944,-1.8914193
0.15889804,4.5705605,0.36036104,-0.07503446,-0.09673884,-1.115698,-7.723695,-1.9536686
0.15879464,4.5708323,0.36036104,-0.07503446,-0.09673884,-1.115698,-7.723695,-1.9536686
0.15873165,4.5710735,0.32946837,-0.08462184,-0.05519352,-1.091756,-7.728483,-1.9919758
0.15866874,4.571315,0.32946837,-0.08462184,-0.05519352,-1.091756,-7.728483,-1.9919758
0.15863349,4.571526,0.2985757,-0.091013424,-0.024300855,-1.0582372,-7.7093296,-1.9680338
0.15859833,4.5717373,0.2985757,-0.091013424,-0.024300855,-1.0582372,-7.7093296,-1.9680338
0.15857875,4.57192,0.26874828,-0.09633975,-0.0051260935,-1.0295067,-7.7907324,-1.9919758
0.15855919,4.572102,0.26874828,-0.09633975,-0.0051260935,-1.0295067,-7.7907324,-1.9919758
0.15854712,4.572254,0.23785561,-0.09953554,0.005526551,-0.9911995,-7.85777,-2.0590134
0.15853517,4.572406,0.23785561,-0.09953554,0.005526551,-0.9911995,-7.85777,-2.0590134
0.15852368,4.57253,0.20909347,-0.10166607,0.0065918155,-1.0103531,-7.920019,-2.006341
0.15851222,4.572654,0.20909347,-0.10166607,0.0065918155,-1.0103531,-7.920019,-2.006341
0.15849559,4.5727487,0.17926607,-0.10273133,0.00020022877,-1.0534488,-8.030152,-1.9632454
0.15847905,4.572843,0.17926607,-0.10273133,0.00020022877,-1.0534488,-8.030152,-1.9632454
0.15845466,4.5729074,0.14943866,-0.10273133,-0.012582945,-1.1204864,-8.12592,-1.9393034
0.1584304,4.572972,0.14943866,-0.10273133,-0.012582945,-1.1204864,-8.12592,-1.9393034
0.15838827,4.5730114,0.12387232,-0.10166607,-0.03069244,-1.1683705,-8.24563,-1.8387469
0.1583462,4.5730505,0.12387232,-0.10166607,-0.03069244,-1.1683705,-8.24563,-1.8387469
0.15828356,4.5730677,0.1004365,-0.10060081,-0.050932467,-1.1971009,-8.336611,-1.8004397
0.15822247,4.573084,0.1004365,-0.10060081,-0.050932467,-1.1971009,-8.336611,-1.8004397
0.15814194,4.5730786,0.07913121,-0.09953554,-0.07436828,-1.2545617,-8.475474,-1.7860745
0.15806104,4.573074,0.07913121,-0.09953554,-0.07436828,-1.2545617,-8.475474,-1.7860745
0.1579728,4.5730476,0.058891185,-0.09740501,-0.0978041,-1.3694834,-8.6334915,-1.8148049
0.15788373,4.573022,0.058891185,-0.09740501,-0.0978041,-1.3694834,-8.6334915,-1.8148049
0.15778115,4.572977,0.039716423,-0.09740501,-0.122305185,-1.4317327,-8.643068,-1.8483237
0.15767798,4.5729322,0.039716423,-0.09740501,-0.122305185,-1.4317327,-8.643068,-1.8483237
0.1575784,4.572873,0.023737457,-0.09953554,-0.14147994,-1.5466543,-8.676587,-1.7477672
0.15747885,4.572815,0.023737457,-0.09953554,-0.14147994,-1.5466543,-8.676587,-1.7477672
0.15736732,4.5727425,0.0077584907,-0.10273133,-0.15958944,-1.5849615,-8.7292595,-1.7621324
0.1572559,4.57267,0.0077584907,-0.10273133,-0.15958944,-1.5849615,-8.7292595,-1.7621324
0.15712689,4.572583,-0.0071552116,-0.108057655,-0.17769894,-1.6041151,-8.695741,-1.8387469
0.15699798,4.5724964,-0.0071552116,-0.108057655,-0.17769894,-1.6041151,-8.695741,-1.8387469
0.15685147,4.572396,-0.022068914,-0.11444924,-0.19261263,-1.5610195,-8.7532015,-1.7621324
0.15670493,4.572295,-0.022068914,-0.11444924,-0.19261263,-1.5610195,-8.7532015,-1.7621324
0.15654175,4.5721807,-0.035917353,-0.12084083,-0.20220003,-1.508347,-8.805874,-1.6998832
0.15637922,4.5720673,-0.035917353,-0.12084083,-0.20220003,-1.508347,-8.805874,-1.6998832
0.15619424,4.5719385,-0.050831053,-0.12723242,-0.2117874,-1.460463,-8.853758,-1.8100165
0.15600924,4.57181,-0.050831053,-0.12723242,-0.2117874,-1.460463,-8.853758,-1.8100165
0.15582196,4.5716662,-0.06681002,-0.13255873,-0.21924424,-1.4796166,-8.896853,-1.7621324
0.15563506,4.5715227,-0.06681002,-0.13255873,-0.21924424,-1.4796166,-8.896853,-1.7621324
0.15545516,4.5713654,-0.08172372,-0.13575453,-0.22137478,-1.5275006,-8.954314,-1.7525556
0.1552757,4.571209,-0.08172372,-0.13575453,-0.22137478,-1.5275006,-8.954314,-1.7525556
0.15510495,4.571039,-0.09557216,-0.13788506,-0.22457057,-1.5993267,-8.949526,-1.8052281
0.15493427,4.57087,-0.09557216,-0.13788506,-0.22457057,-1.5993267,-8.949526,-1.8052281
0.15476981,4.5706873,-0.11048587,-0.14214613,-0.22563584,-1.6136919,-9.002198,-1.7429788
0.15460593,4.5705056,-0.11048587,-0.14214613,-0.22563584,-1.6136919,-9.002198,-1.7429788
0.15444675,4.5703096,-0.124334306,-0.14640717,-0.22244005,-1.6328455,-8.973468,-1.7860745
0.15428787,4.5701146,-0.124334306,-0.14640717,-0.22244005,-1.6328455,-8.973468,-1.7860745
0.15413767,4.569909,-0.13498695,-0.14960296,-0.21604845,-1.6184803,-8.987833,-1.733402
0.15398861,4.569705,-0.13498695,-0.14960296,-0.21604845,-1.6184803,-8.987833,-1.733402
0.15384707,4.56949,-0.14457433,-0.15279876,-0.20859161,-1.6232687,-8.949526,-1.7477672
0.15370671,4.569276,-0.14457433,-0.15279876,-0.20859161,-1.6232687,-8.949526,-1.7477672
0.15358374,4.5690565,-0.15309644,-0.15386403,-0.20113476,-1.5897499,-8.920795,-1.6089035
0.1534609,4.5688367,-0.15309644,-0.15386403,-0.20113476,-1.5897499,-8.920795,-1.6089035
0.15333529,4.5686083,-0.15842277,-0.15386403,-0.19474317,-1.5801731,-8.901642,-1.6663644
0.15333529,4.5686083,-0.15842277,-0.15386403,-0.19474317,-1.5801731,-8.901642,-1.6663644
0.15310372,4.5681458,-0.16481435,-0.1517335,-0.18622105,-1.5897499,-8.868123,-1.5897499
0.15300342,4.567919,-0.16481435,-0.1517335,-0.18622105,-1.5897499,-8.868123,-1.5897499
0.15289624,4.5676813,-0.16907541,-0.14853771,-0.17982946,-1.5514427,-8.839393,-1.6089035
0.15278937,4.567443,-0.16907541,-0.14853771,-0.17982946,-1.5514427,-8.839393,-1.6089035
0.15270825,4.5672064,-0.17333646,-0.14321138,-0.17343788,-1.6184803,-8.820239,-1.5897499
0.15262789,4.56697,-0.17333646,-0.14321138,-0.17343788,-1.6184803,-8.820239,-1.5897499
0.15253775,4.5667233,-0.175467,-0.13575453,-0.16491576,-1.5753847,-8.887277,-1.6280571
0.15244834,4.566478,-0.175467,-0.13575453,-0.16491576,-1.5753847,-8.887277,-1.6280571
0.15238042,4.566234,-0.175467,-0.1251019,-0.15532838,-1.5849615,-8.844181,-1.5705963
0.15231323,4.565992,-0.175467,-0.1251019,-0.15532838,-1.5849615,-8.844181,-1.5705963
0.15223633,4.5657415,-0.175467,-0.11444924,-0.14680627,-1.5849615,-8.825027,-1.6807296
0.15215981,4.5654907,-0.175467,-0.11444924,-0.14680627,-1.5849615,-8.825027,-1.6807296
0.15207435,4.5652356,-0.175467,-0.1037966,-0.13615362,-1.5514427,-8.882488,-1.7908629
0.15198895,4.564979,-0.175467,-0.1037966,-0.13615362,-1.5514427,-8.882488,-1.7908629
0.151913,4.564724,-0.1722712,-0.09420922,-0.12550098,-1.5562311,-8.892065,-1.8004397
0.1518377,4.5644693,-0.1722712,-0.09420922,-0.12550098,-1.5562311,-8.892065,-1.8004397
0.15177092,4.564215,-0.17120594,-0.08781763,-0.11697886,-1.5610195,-8.911219,-1.8004397
0.15170419,4.5639606,-0.17120594,-0.08781763,-0.11697886,-1.5610195,-8.911219,-1.8004397
0.1516388,4.563705,-0.17014067,-0.08249131,-0.107391484,-1.5562311,-8.959103,-1.8914193
0.15157355,4.5634484,-0.17014067,-0.08249131,-0.107391484,-1.5562311,-8.959103,-1.8914193
0.15157355,4.5634484,-0.17014067,-0.08249131,-0.107391484,-1.5562311,-8.959103,-1.8914193
0.15157355,4.5634484,-0.16801015,-0.077164985,-0.09673884,-1.5275006,-8.978256,-1.7956513
0.15157355,4.5634484,-0.16481435,-0.07290393,-0.08821672,-1.5705963,-9.054871,-1.7764976
0.15145521,4.562676,-0.16481435,-0.07290393,-0.08821672,-1.5705963,-9.054871,-1.7764976
0.15138733,4.562195,-0.16055329,-0.06864287,-0.07969461,-1.5562311,-9.093178,-1.7525556
0.15135476,4.5619354,-0.16055329,-0.06864287,-0.07969461,-1.5562311,-9.093178,-1.7525556
0.15134777,4.5617013,-0.15522698,-0.06544708,-0.07010722,-1.6041151,-9.160215,-1.7190368
0.15134777,4.5617013,-0.15522698,-0.06544708,-0.07010722,-1.6041151,-9.160215,-1.7190368
0.15134777,4.5617013,-0.15522698,-0.06544708,-0.07010722,-1.6041151,-9.160215,-1.7190368
0.15132618,4.5609984,-0.14777012,-0.06118602,-0.059454583,-1.5514427,-9.203311,-1.6950948
0.15134327,4.5607767,-0.13818274,-0.059055492,-0.04773667,-1.5753847,-9.289502,-1.6472107
0.15136088,4.5605536,-0.13818274,-0.059055492,-0.04773667,-1.5753847,-9.289502,-1.6472107
0.15139548,4.5603437,-0.12859535,-0.05692496,-0.03814929,-1.5801731,-9.351752,-1.6184803
0.1514305,4.560135,-0.12859535,-0.05692496,-0.03814929,-1.5801731,-9.351752,-1.6184803
0.15150622,4.5599456,-0.120073244,-0.054794434,-0.025366118,-1.5945383,-9.471462,-1.5610195
0.15158287,4.559756,-0.120073244,-0.054794434,-0.025366118,-1.5945383,-9.471462,-1.5610195
0.15169281,4.5595965,-0.11155113,-0.05372917,-0.013648209,-1.6089035,-9.533711,-1.532289
0.15180485,4.559436,-0.11155113,-0.05372917,-0.013648209,-1.6089035,-9.533711,-1.532289
0.1519462,4.559321,-0.09983322,-0.05372917,-0.0029955646,-1.6041151,-9.662998,-1.508347
0.15208866,4.559206,-0.09983322,-0.05372917,-0.0029955646,-1.6041151,-9.662998,-1.508347
0.15223579,4.5591526,-0.089180574,-0.054794434,0.005526551,-1.661576,-9.701305,-1.4652514
0.15238318,4.5591006,-0.089180574,-0.054794434,0.005526551,-1.661576,-9.701305,-1.4652514
0.1525167,4.5590887,-0.077462666,-0.0558597,0.011918138,-1.6519991,-9.749189,-1.436521
0.15264969,4.5590773,-0.077462666,-0.0558597,0.011918138,-1.6519991,-9.749189,-1.436521
0.15278313,4.5590844,-0.06574476,-0.05692496,0.019374989,-1.6280571,-9.739613,-1.436521
0.15291566,4.5590916,-0.06574476,-0.05692496,0.019374989,-1.6280571,-9.739613,-1.436521
0.15308043,4.559079,-0.052961584,-0.057990227,0.024701312,-1.6232687,-9.739613,-1.4796166
0.1532458,4.559067,-0.052961584,-0.057990227,0.024701312,-1.6232687,-9.739613,-1.4796166
0.1533897,4.559099,-0.04017841,-0.059055492,0.02896237,-1.6041151,-9.739613,-1.4556746
0.1535331,4.5591316,-0.04017841,-0.059055492,0.02896237,-1.6041151,-9.739613,-1.4556746
0.1536897,4.5591636,-0.027395237,-0.057990227,0.02896237,-1.6041151,-9.758766,-1.4748282
0.15384594,4.559196,-0.027395237,-0.057990227,0.02896237,-1.6041151,-9.758766,-1.4748282
0.15387987,4.5592914,-0.013546798,-0.05692496,0.02683184,-1.532289,-9.782708,-1.436521
0.15391332,4.5593863,-0.013546798,-0.05692496,0.02683184,-1.532289,-9.782708,-1.436521
0.1540825,4.5593915,-0.0007636249,-0.05372917,0.021505518,-1.5753847,-9.77792,-1.508347
0.1542519,4.5593967,-0.0007636249,-0.05372917,0.021505518,-1.5753847,-9.77792,-1.508347
0.1543449,4.5595016,0.012019549,-0.048402846,0.015113931,-1.5753847,-9.787497,-1.4652514
0.1544375,4.559606,0.012019549,-0.048402846,0.015113931,-1.5753847,-9.787497,-1.4652514
0.15440753,4.559542,0.024802722,-0.043076526,0.00765708,-1.5275006,-9.830592,-1.5610195
0.1543778,4.559478,0.024802722,-0.043076526,0.00765708,-1.5275006,-9.830592,-1.5610195
0.15431164,4.559432,0.03545537,-0.035619672,-0.0019303001,-1.5131354,-9.849746,-1.5658079
0.15424584,4.5593863,0.03545537,-0.035619672,-0.0019303001,-1.5131354,-9.849746,-1.5658079
0.1542717,4.559338,0.045042746,-0.031358615,-0.013648209,-1.5753847,-9.801862,-1.5993267
0.15429752,4.55929,0.045042746,-0.031358615,-0.013648209,-1.5753847,-9.801862,-1.5993267
0.15427168,4.5592456,0.0524996,-0.02496703,-0.025366118,-1.541866,-9.80665,-1.5801731
0.1542462,4.5592017,0.0524996,-0.02496703,-0.025366118,-1.541866,-9.80665,-1.5801731
0.15427043,4.5591736,0.05995645,-0.019640706,-0.037084028,-1.5801731,-9.811439,-1.5705963
0.15429458,4.5591445,0.05995645,-0.019640706,-0.037084028,-1.5801731,-9.811439,-1.5705963
0.15433314,4.5591345,0.0674133,-0.01324912,-0.050932467,-1.5945383,-9.844957,-1.5610195
0.15437134,4.559125,0.0674133,-0.01324912,-0.050932467,-1.5945383,-9.844957,-1.5610195
0.15419573,4.5591426,0.073804885,-0.007922798,-0.064780906,-1.5131354,-9.811439,-1.532289
0.15402357,4.5591574,0.073804885,-0.007922798,-0.064780906,-1.5131354,-9.811439,-1.532289
0.15394637,4.559141,0.082327,-0.00046594674,-0.077564076,-1.541866,-9.811439,-1.5466543
0.1538716,4.5591245,0.082327,-0.00046594674,-0.077564076,-1.541866,-9.811439,-1.5466543
0.15369117,4.5591373,0.08871859,0.00592564,-0.091412514,-1.5275006,-9.782708,-1.5179238
0.15352559,4.559143,0.08871859,0.00592564,-0.091412514,-1.5275006,-9.782708,-1.5179238
0.15333092,4.559317,0.09617544,0.012317227,-0.10313042,-1.4891934,-9.739613,-1.4748282
0.15313596,4.559491,0.09617544,0.012317227,-0.10313042,-1.4891934,-9.739613,-1.4748282
0.15305015,4.559497,0.104697555,0.019774077,-0.1159136,-1.5466543,-9.768343,-1.5658079
0.15296574,4.5595026,0.104697555,0.019774077,-0.1159136,-1.5466543,-9.768343,-1.5658079
0.152947,4.5596743,0.11215441,0.026165664,-0.12656625,-1.6136919,-9.787497,-1.460463
0.15292968,4.5598445,0.11215441,0.026165664,-0.12656625,-1.6136919,-9.787497,-1.460463
0.15292497,4.559982,0.119611256,0.031491987,-0.13828415,-1.6184803,-9.773131,-1.4891934
0.15292083,4.5601172,0.119611256,0.031491987,-0.13828415,-1.6184803,-9.773131,-1.4891934
0.1528458,4.560324,0.12600285,0.035753045,-0.1489368,-1.5562311,-9.744401,-1.4556746
0.15277483,4.5605288,0.12600285,0.035753045,-0.1489368,-1.5562311,-9.744401,-1.4556746
0.15265709,4.560755,0.1334597,0.04107937,-0.15639365,-1.5658079,-9.749189,-1.3838485
0.15254119,4.56098,0.1334597,0.04107937,-0.15639365,-1.5658079,-9.749189,-1.3838485
0.15238535,4.5612187,0.14198181,0.046405688,-0.16278523,-1.5227122,-9.730036,-1.388637
0.15223137,4.561457,0.14198181,0.046405688,-0.16278523,-1.5227122,-9.730036,-1.388637
0.15208809,4.5616984,0.14730814,0.049601484,-0.17024209,-1.541866,-9.701305,-1.3599066
0.15194654,4.5619392,0.14730814,0.049601484,-0.17024209,-1.541866,-9.701305,-1.3599066
0.1517754,4.5621862,0.15156919,0.050666746,-0.17982946,-1.5179238,-9.672575,-1.3024458
0.15160549,4.562434,0.15156919,0.050666746,-0.17982946,-1.5179238,-9.672575,-1.3024458
0.15142667,4.562685,0.15476498,0.05173201,-0.18728632,-1.5035586,-9.615114,-1.3024458
0.15124896,4.562936,0.15476498,0.05173201,-0.18728632,-1.5035586,-9.615114,-1.3024458
0.15105309,4.5631905,0.15796077,0.050666746,-0.19154738,-1.4700398,-9.552865,-1.2449849
0.15085818,4.563445,0.15796077,0.050666746,-0.19154738,-1.4700398,-9.552865,-1.2449849
0.15065649,4.5637054,0.16222183,0.049601484,-0.19580843,-1.4556746,-9.504981,-1.1923125
0.15044968,4.563973,0.16222183,0.049601484,-0.19580843,-1.4556746,-9.504981,-1.1923125
0.15021703,4.564229,0.1664829,0.049601484,-0.20433055,-1.4030021,-9.437943,-1.2737153
0.1499809,4.56449,0.1664829,0.049601484,-0.20433055,-1.4030021,-9.437943,-1.2737153
0.1497569,4.5647545,0.16861342,0.049601484,-0.21072213,-1.412579,-9.375694,-1.2306197
0.14953357,4.5650196,0.16861342,0.049601484,-0.21072213,-1.412579,-9.375694,-1.2306197
0.14927964,4.5652866,0.17180921,0.050666746,-0.21391793,-1.3551182,-9.3661175,-1.2018893
0.14902718,4.5655527,0.17180921,0.050666746,-0.21391793,-1.3551182,-9.3661175,-1.2018893
0.14875703,4.56582,0.17607027,0.05173201,-0.2149832,-1.3503298,-9.308656,-1.2641385
0.14848834,4.5660872,0.17607027,0.05173201,-0.2149832,-1.3503298,-9.308656,-1.2641385
0.14824495,4.566365,0.18033133,0.049601484,-0.21817899,-1.3694834,-9.246407,-1.2354081
0.14800325,4.566642,0.18033133,0.049601484,-0.21817899,-1.3694834,-9.246407,-1.2354081
0.14777537,4.5669203,0.18033133,0.046405688,-0.22030951,-1.388637,-9.23683,-1.2976574
0.14754698,4.567204,0.18033133,0.046405688,-0.22030951,-1.388637,-9.23683,-1.2976574
0.14728095,4.5674744,0.1813966,0.043209895,-0.22030951,-1.340753,-9.208099,-1.2641385
0.14701183,4.5677495,0.1813966,0.043209895,-0.22030951,-1.340753,-9.208099,-1.2641385
0.14672889,4.5680194,0.18033133,0.040014103,-0.21817899,-1.3263878,-9.121908,-1.2737153
0.14644724,4.5682898,0.18033133,0.040014103,-0.21817899,-1.3263878,-9.121908,-1.2737153
0.14618254,4.568563,0.17926607,0.035753045,-0.21285266,-1.292869,-9.078813,-1.2066777
0.14591901,4.5688357,0.17926607,0.035753045,-0.21285266,-1.292869,-9.078813,-1.2066777
0.14566548,4.569108,0.17713554,0.030426722,-0.20646107,-1.2641385,-9.102755,-1.13964
0.14541231,4.5693803,0.17713554,0.030426722,-0.20646107,-1.2641385,-9.102755,-1.13964
0.145159,4.569648,0.175005,0.028296193,-0.1968737,-1.2354081,-9.150639,-1.1252748
0.14490554,4.5699162,0.175005,0.028296193,-0.1968737,-1.2354081,-9.150639,-1.1252748
0.1446757,4.5701838,0.17180921,0.02723093,-0.18835159,-1.2401965,-9.155427,-1.0630256
0.14444642,4.5704513,0.17180921,0.02723093,-0.18835159,-1.2401965,-9.155427,-1.0630256
0.1442051,4.570708,0.16541763,0.0251004,-0.17982946,-1.2258313,-9.208099,-1.1300632
0.14396416,4.5709643,0.16541763,0.0251004,-0.17982946,-1.2258313,-9.208099,-1.1300632
0.143742,4.5712156,0.15796077,0.021904606,-0.16811156,-1.2258313,-9.188946,-1.1061212
0.14352018,4.571467,0.15796077,0.021904606,-0.16811156,-1.2258313,-9.188946,-1.1061212
0.14330076,4.5717072,0.14943866,0.019774077,-0.15745892,-1.2114661,-9.222465,-1.115698
0.14308153,4.5719476,0.14943866,0.019774077,-0.15745892,-1.2114661,-9.222465,-1.115698
0.14281406,4.5721393,0.13985129,0.01551302,-0.145741,-1.2066777,-9.188946,-1.2449849
0.14254636,4.5723305,0.13985129,0.01551302,-0.145741,-1.2066777,-9.188946,-1.2449849
0.14230338,4.572523,0.12813337,0.009121433,-0.1340231,-1.1492168,-9.203311,-1.1923125
0.14206074,4.5727153,0.12813337,0.009121433,-0.1340231,-1.1492168,-9.203311,-1.1923125
0.14180785,4.572874,0.11641546,0.0048603755,-0.124435715,-1.1540052,-9.203311,-1.2401965
0.1415545,4.573032,0.11641546,0.0048603755,-0.124435715,-1.1540052,-9.203311,-1.2401965
0.14131105,4.5731745,0.102567025,0.0005993177,-0.11484833,-1.1252748,-9.174581,-1.2306197
0.14106718,4.573317,0.102567025,0.0005993177,-0.11484833,-1.1252748,-9.174581,-1.2306197
0.14084005,4.573456,0.08658806,-0.005792269,-0.106326215,-1.0965444,-9.165004,-1.1971009
0.14061324,4.5735946,0.08658806,-0.005792269,-0.106326215,-1.0965444,-9.165004,-1.1971009
0.14037706,4.5736713,0.07273962,-0.008988062,-0.09886937,-1.1061212,-9.131485,-1.2737153
0.1401401,4.573748,0.07273962,-0.008988062,-0.09886937,-1.1061212,-9.131485,-1.2737153
0.13992123,4.573851,0.05782592,-0.01324912,-0.093543045,-1.0869676,-9.136273,-1.2066777
0.13970229,4.5739536,0.05782592,-0.01324912,-0.093543045,-1.0869676,-9.136273,-1.2066777
0.13949212,4.574048,0.045042746,-0.015379649,-0.08821672,-1.0821792,-9.14585,-1.1971009
0.13928168,4.5741425,0.045042746,-0.015379649,-0.08821672,-1.0821792,-9.14585,-1.1971009
0.1390692,4.574216,0.033324838,-0.017510178,-0.08502093,-1.0965444,-9.126697,-1.2162545
0.13885665,4.57429,0.033324838,-0.017510178,-0.08502093,-1.0965444,-9.126697,-1.2162545
0.1386743,4.574386,0.023737457,-0.019640706,-0.0828904,-1.067814,-9.102755,-1.1252748
0.13849197,4.574482,0.023737457,-0.019640706,-0.0828904,-1.067814,-9.102755,-1.1252748
0.13831425,4.5745726,0.015215342,-0.019640706,-0.08182514,-1.1013328,-9.136273,-1.13964
0.13813661,4.5746627,0.015215342,-0.019640706,-0.08182514,-1.1013328,-9.136273,-1.13964
0.13792911,4.5747113,0.008823755,-0.019640706,-0.07969461,-1.0582372,-9.136273,-1.2066777
0.13772173,4.5747595,0.008823755,-0.019640706,-0.07969461,-1.0582372,-9.136273,-1.2066777
0.13752322,4.5748186,0.0024321685,-0.020705972,-0.08182514,-1.1061212,-9.131485,-1.1923125
0.13732475,4.574877,0.0024321685,-0.020705972,-0.08182514,-1.1061212,-9.131485,-1.1923125
0.13711326,4.574914,-0.0028941538,-0.019640706,-0.08395566,-1.0390835,-9.097966,-1.1971009
0.13690148,4.5749516,-0.0028941538,-0.019640706,-0.08395566,-1.0390835,-9.097966,-1.1971009
0.13668285,4.574974,-0.0071552116,-0.016444914,-0.08608619,-1.0582372,-9.150639,-1.2258313
0.13646543,4.574996,-0.0071552116,-0.016444914,-0.08608619,-1.0582372,-9.150639,-1.2258313
0.13624218,4.5750036,-0.008220476,-0.015379649,-0.08715145,-1.0342951,-9.193734,-1.2497733
0.13601896,4.575012,-0.008220476,-0.015379649,-0.08715145,-1.0342951,-9.193734,-1.2497733
0.13579388,4.5750284,-0.010351005,-0.01324912,-0.091412514,-1.0965444,-9.222465,-1.2449849
0.13556886,4.5750446,-0.010351005,-0.01324912,-0.091412514,-1.0965444,-9.222465,-1.2449849
0.1353565,4.575086,-0.0114162695,-0.010053327,-0.092477776,-1.1013328,-9.212888,-1.2066777
0.13514392,4.5751276,-0.0114162695,-0.010053327,-0.092477776,-1.1013328,-9.212888,-1.2066777
0.13497515,4.575201,-0.012481534,-0.008988062,-0.092477776,-1.1348516,-9.23683,-1.13964
0.13480614,4.5752745,-0.012481534,-0.008988062,-0.092477776,-1.1348516,-9.23683,-1.13964
0.13464393,4.5753493,-0.013546798,-0.008988062,-0.091412514,-1.0965444,-9.26556,-1.0821792
0.13448215,4.575424,-0.013546798,-0.008988062,-0.091412514,-1.0965444,-9.26556,-1.0821792
0.13427798,4.5755305,-0.013546798,-0.008988062,-0.08821672,-1.1300632,-9.270349,-1.0965444
0.13406537,4.575641,-0.013546798,-0.008988062,-0.08821672,-1.1300632,-9.270349,-1.0965444
0.13406537,4.575641,-0.013546798,-0.008988062,-0.08821672,-1.1300632,-9.270349,-1.0965444
0.13406537,4.575641,-0.013546798,-0.008988062,-0.08821672,-1.1300632,-9.270349,-1.0965444
0.13377005,4.5758257,-0.0114162695,-0.007922798,-0.078629345,-1.0965444,-9.251195,-1.0151415
0.1336337,4.575911,-0.0114162695,-0.007922798,-0.078629345,-1.0965444,-9.251195,-1.0151415
0.13352537,4.5760007,-0.010351005,-0.008988062,-0.07330302,-1.163582,-9.279925,-1.0295067
0.13342018,4.5760884,-0.010351005,-0.008988062,-0.07330302,-1.163582,-9.279925,-1.0295067
0.13329314,4.5761714,-0.009285741,-0.010053327,-0.06584617,-1.1300632,-9.313444,-1.0965444
0.13329314,4.5761714,-0.009285741,-0.010053327,-0.06584617,-1.1300632,-9.313444,-1.0965444
0.13307051,4.576339,-0.009285741,-0.01324912,-0.058389317,-1.1779473,-9.279925,-1.1061212
0.1329725,4.576428,-0.009285741,-0.01324912,-0.058389317,-1.1779473,-9.279925,-1.1061212
0.13288978,4.576517,-0.010351005,-0.015379649,-0.050932467,-1.1731589,-9.3421755,-1.043872
0.13280727,4.5766068,-0.010351005,-0.015379649,-0.050932467,-1.1731589,-9.3421755,-1.043872
0.1327299,4.576696,-0.010351005,-0.018575443,-0.041345086,-1.1779473,-9.409213,-1.0726024
0.13265248,4.576785,-0.010351005,-0.018575443,-0.041345086,-1.1779473,-9.409213,-1.0726024
0.13258237,4.576873,-0.0114162695,-0.02496703,-0.03282297,-1.1540052,-9.457097,-1.0247183
0.13251214,4.576961,-0.0114162695,-0.02496703,-0.03282297,-1.1540052,-9.457097,-1.0247183
0.1324453,4.577048,-0.0114162695,-0.031358615,-0.022170324,-1.1444284,-9.476251,-1.0534488
0.13237831,4.5771346,-0.0114162695,-0.031358615,-0.022170324,-1.1444284,-9.476251,-1.0534488
0.13234733,4.5772276,-0.010351005,-0.036684938,-0.01151768,-1.2018893,-9.514558,-1.0103531
0.13231649,4.57732,-0.010351005,-0.036684938,-0.01151768,-1.2018893,-9.514558,-1.0103531
0.1322803,4.5774097,-0.0114162695,-0.04201126,-0.0008650357,-1.1683705,-9.552865,-1.043872
0.1322441,4.5774994,-0.0114162695,-0.04201126,-0.0008650357,-1.1683705,-9.552865,-1.043872
0.13221264,4.5775886,-0.0114162695,-0.04627232,0.00765708,-1.1923125,-9.524135,-1.1204864
0.13218105,4.5776777,-0.0114162695,-0.04627232,0.00765708,-1.1923125,-9.524135,-1.1204864
0.13215815,4.5777707,-0.009285741,-0.050533377,0.012983402,-1.2306197,-9.5385,-1.1875241
0.13213511,4.577863,-0.009285741,-0.050533377,0.012983402,-1.2306197,-9.5385,-1.1875241
0.13213511,4.577863,-0.009285741,-0.050533377,0.012983402,-1.2306197,-9.5385,-1.1875241
0.13208917,4.5780544,-0.006089947,-0.054794434,0.019374989,-1.2258313,-9.500193,-1.1971009
0.13203552,4.5781417,-0.0028941538,-0.059055492,0.025766576,-1.2354081,-9.56723,-1.2497733
0.13198411,4.578224,-0.0028941538,-0.059055492,0.025766576,-1.2354081,-9.56723,-1.2497733
0.13194281,4.578313,-0.0007636249,-0.062251285,0.030027634,-1.2641385,-9.557653,-1.2737153
0.13189939,4.5784016,-0.0007636249,-0.062251285,0.030027634,-1.2641385,-9.557653,-1.2737153
0.13185838,4.578495,0.003497433,-0.064381815,0.032158162,-1.2449849,-9.576807,-1.2545617
0.13181643,4.5785885,0.003497433,-0.064381815,0.032158162,-1.2449849,-9.576807,-1.2545617
0.13172862,4.578564,0.008823755,-0.064381815,0.031092897,-1.2210429,-9.543288,-1.3024458
0.13164087,4.57854,0.008823755,-0.064381815,0.031092897,-1.2210429,-9.543288,-1.3024458
0.13164058,4.578465,0.0141500775,-0.062251285,0.02896237,-1.2497733,-9.586384,-1.3742718
0.13164005,4.57839,0.0141500775,-0.062251285,0.02896237,-1.2497733,-9.586384,-1.3742718
0.13170354,4.5783195,0.020541664,-0.060120758,0.02683184,-1.292869,-9.586384,-1.3311762
0.13176574,4.578249,0.020541664,-0.060120758,0.02683184,-1.292869,-9.586384,-1.3311762
0.131732,4.578374,0.027998514,-0.059055492,0.021505518,-1.292869,-9.710882,-1.3024458
0.13169253,4.578498,0.027998514,-0.059055492,0.021505518,-1.292869,-9.710882,-1.3024458
0.13173512,4.5784397,0.034390103,-0.057990227,0.01724446,-1.3120226,-9.667787,-1.4030021
0.13177747,4.5783815,0.034390103,-0.057990227,0.01724446,-1.3120226,-9.667787,-1.4030021
0.13180675,4.578329,0.040781688,-0.05692496,0.012983402,-1.3120226,-9.768343,-1.3694834
0.13183556,4.5782766,0.040781688,-0.05692496,0.012983402,-1.3120226,-9.768343,-1.3694834
0.13191096,4.578239,0.04610801,-0.057990227,0.0065918155,-1.3359646,-9.763555,-1.3599066
0.1319853,4.5782013,0.04610801,-0.057990227,0.0065918155,-1.3359646,-9.763555,-1.3599066
0.13206597,4.5781755,0.0524996,-0.059055492,-0.0008650357,-1.3742718,-9.768343,-1.3934253
0.13214633,4.5781493,0.0524996,-0.059055492,-0.0008650357,-1.3742718,-9.768343,-1.3934253
0.13223952,4.5782905,0.05782592,-0.060120758,-0.006191358,-1.3551182,-9.734824,-1.2737153
0.13233325,4.578431,0.05782592,-0.060120758,-0.006191358,-1.3551182,-9.734824,-1.2737153
0.13246585,4.578481,0.062086977,-0.064381815,-0.013648209,-1.3599066,-9.835381,-1.3311762
0.13259755,4.5785294,0.062086977,-0.064381815,-0.013648209,-1.3599066,-9.835381,-1.3311762
0.13269469,4.5786614,0.06315224,-0.06544708,-0.022170324,-1.3694834,-9.849746,-1.3024458
0.1327936,4.5787926,0.06315224,-0.06544708,-0.022170324,-1.3694834,-9.849746,-1.3024458
0.13283831,4.578954,0.06421751,-0.06757761,-0.03069244,-1.4221559,-9.92636,-1.2210429
0.13288338,4.579115,0.06421751,-0.06757761,-0.03069244,-1.4221559,-9.92636,-1.2210429
0.1329567,4.579255,0.06421751,-0.06757761,-0.039214555,-1.4508862,-9.931149,-1.2593501
0.13303053,4.5793953,0.06421751,-0.06757761,-0.039214555,-1.4508862,-9.931149,-1.2593501
0.1330892,4.57954,0.06315224,-0.06757761,-0.046671405,-1.4460979,-9.931149,-1.2497733
0.1331486,4.579684,0.06315224,-0.06757761,-0.046671405,-1.4460979,-9.931149,-1.2497733
0.1332311,4.5798,0.062086977,-0.06864287,-0.05199773,-1.436521,-9.907207,-1.2880806
0.13331401,4.5799155,0.062086977,-0.06864287,-0.05199773,-1.436521,-9.907207,-1.2880806
0.13337225,4.5800476,0.05995645,-0.06864287,-0.059454583,-1.4317327,-9.868899,-1.2593501
0.13343124,4.580179,0.05995645,-0.06864287,-0.059454583,-1.4317327,-9.868899,-1.2593501
0.13350374,4.5802126,0.05782592,-0.06864287,-0.06904196,-1.4413095,-9.825804,-1.3359646
0.133576,4.580245,0.05782592,-0.06864287,-0.06904196,-1.4413095,-9.825804,-1.3359646
0.13358027,4.5802245,0.055695392,-0.06864287,-0.078629345,-1.4317327,-9.773131,-1.4221559
0.13358457,4.580204,0.055695392,-0.06864287,-0.078629345,-1.4317327,-9.773131,-1.4221559
0.13355114,4.5801725,0.05356486,-0.066512346,-0.09034725,-1.412579,-9.68694,-1.4796166
0.133518,4.580141,0.05356486,-0.066512346,-0.09034725,-1.412579,-9.68694,-1.4796166
0.13349263,4.580115,0.0524996,-0.06544708,-0.10206516,-1.4508862,-9.710882,-1.4652514
0.13346757,4.5800886,0.0524996,-0.06544708,-0.10206516,-1.4508862,-9.710882,-1.4652514
0.13342549,4.580058,0.05036907,-0.062251285,-0.11271781,-1.4173675,-9.672575,-1.4413095
0.13338348,4.5800276,0.05036907,-0.062251285,-0.11271781,-1.4173675,-9.672575,-1.4413095
0.1332867,4.5799847,0.047173277,-0.05692496,-0.12550098,-1.3359646,-9.615114,-1.436521
0.13319054,4.5799417,0.047173277,-0.05692496,-0.12550098,-1.3359646,-9.615114,-1.436521
0.13309269,4.5798974,0.045042746,-0.051598642,-0.13615362,-1.3551182,-9.662998,-1.436521
0.1329957,4.579853,0.045042746,-0.051598642,-0.13615362,-1.3551182,-9.662998,-1.436521
0.13292538,4.579813,0.039716423,-0.04627232,-0.14680627,-1.3694834,-9.643845,-1.3694834
0.13285592,4.579774,0.039716423,-0.04627232,-0.14680627,-1.3694834,-9.643845,-1.3694834
0.13278335,4.5797343,0.03652063,-0.03988073,-0.15745892,-1.3790601,-9.624691,-1.3694834
0.13271122,4.5796947,0.03652063,-0.03988073,-0.15745892,-1.3790601,-9.624691,-1.3694834
0.13265705,4.5796676,0.033324838,-0.031358615,-0.16491576,-1.412579,-9.662998,-1.3599066
0.13260332,4.5796404,0.033324838,-0.031358615,-0.16491576,-1.412579,-9.662998,-1.3599066
0.13249393,4.5795846,0.030129045,-0.021771235,-0.17130736,-1.3311762,-9.68694,-1.3359646
0.1323874,4.57953,0.030129045,-0.021771235,-0.17130736,-1.3311762,-9.68694,-1.3359646
0.13231258,4.579486,0.025867987,-0.016444914,-0.17343788,-1.4030021,-9.725247,-1.3742718
0.13223837,4.5794425,0.025867987,-0.016444914,-0.17343788,-1.4030021,-9.725247,-1.3742718
0.13216752,4.5793962,0.018411135,-0.012183856,-0.17663367,-1.3742718,-9.811439,-1.3503298
0.13209799,4.5793505,0.018411135,-0.012183856,-0.17663367,-1.3742718,-9.811439,-1.3503298
0.13203886,4.5793085,0.010954284,-0.007922798,-0.17769894,-1.4030021,-9.801862,-1.3551182
0.13198031,4.5792665,0.010954284,-0.007922798,-0.17769894,-1.4030021,-9.801862,-1.3551182
0.13194473,4.5792727,0.005627962,-0.00366174,-0.17769894,-1.436521,-9.816227,-1.316811
0.1319091,4.5792794,0.005627962,-0.00366174,-0.17769894,-1.436521,-9.816227,-1.316811
0.13187024,4.5793066,0.00030163955,-0.0025964756,-0.17663367,-1.3982137,-9.830592,-1.3024458
0.13183142,4.5793324,0.00030163955,-0.0025964756,-0.17663367,-1.3982137,-9.830592,-1.3024458
0.13178593,4.5793715,-0.006089947,-0.0015312112,-0.17343788,-1.3934253,-9.821015,-1.2880806
0.13174076,4.57941,-0.006089947,-0.0015312112,-0.17343788,-1.3934253,-9.821015,-1.2880806
0.13167611,4.579466,-0.012481534,-0.00046594674,-0.17130736,-1.4269443,-9.873688,-1.2545617
0.13161197,4.5795207,-0.012481534,-0.00046594674,-0.17130736,-1.4269443,-9.873688,-1.2545617
0.13149825,4.579599,-0.01674259,-0.00046594674,-0.16917682,-1.3599066,-9.825804,-1.2306197
0.1313861,4.5796766,-0.01674259,-0.00046594674,-0.16917682,-1.3599066,-9.825804,-1.2306197
0.13129239,4.579745,-0.019938385,-0.0015312112,-0.16598102,-1.4317327,-9.844957,-1.1683705
0.13119932,4.579813,-0.019938385,-0.0015312112,-0.16598102,-1.4317327,-9.844957,-1.1683705
0.13108373,4.579887,-0.02313418,-0.0015312112,-0.16278523,-1.3742718,-9.844957,-1.1779473
0.1309692,4.579961,-0.02313418,-0.0015312112,-0.16278523,-1.3742718,-9.844957,-1.1779473
0.13082594,4.580036,-0.026329972,-0.00366174,-0.16278523,-1.340753,-9.825804,-1.091756
0.13068351,4.5801115,-0.026329972,-0.00366174,-0.16278523,-1.340753,-9.825804,-1.091756
0.13056174,4.580184,-0.027395237,-0.005792269,-0.16278523,-1.3838485,-9.830592,-1.1061212
0.1304413,4.5802546,-0.027395237,-0.005792269,-0.16278523,-1.3838485,-9.830592,-1.1061212
0.13028769,4.580331,-0.027395237,-0.005792269,-0.16171996,-1.3120226,-9.840169,-1.0965444
0.13013548,4.580406,-0.027395237,-0.005792269,-0.16171996,-1.3120226,-9.840169,-1.0965444
0.12997966,4.5804834,-0.026329972,-0.0068575335,-0.16171996,-1.2976574,-9.797073,-1.091756
0.12982483,4.5805597,-0.026329972,-0.0068575335,-0.16171996,-1.2976574,-9.797073,-1.091756
0.12967488,4.580637,-0.026329972,-0.010053327,-0.16491576,-1.3024458,-9.773131,-1.1540052
0.12952416,4.580715,-0.026329972,-0.010053327,-0.16491576,-1.3024458,-9.773131,-1.1540052
