Pitch,Roll,Gyro_X,Gyro_Y,Gyro_Z,Accel_X,Accel_Y,Accel_Z
0.22398531,4.836531,0.0141500775,-0.26678208,0.6148578,-2.006341,-9.825804,1.292869
0.22438847,4.83665,0.005627962,-0.29767472,0.5743778,-1.9680338,-9.811439,1.283292
0.22478592,4.8367662,0.005627962,-0.29767472,0.5743778,-1.9680338,-9.811439,1.283292
0.22514713,4.836891,-0.0028941538,-0.3285674,0.534963,-1.9201498,-9.797073,1.3215994
0.22550888,4.8370156,-0.0028941538,-0.3285674,0.534963,-1.9201498,-9.797073,1.3215994
0.22582273,4.8371277,-0.010351005,-0.35946006,0.49661347,-1.8722657,-9.854534,1.3120226
0.226137,4.8372397,-0.010351005,-0.35946006,0.49661347,-1.8722657,-9.854534,1.3120226
0.22640404,4.8373146,-0.01674259,-0.39248326,0.45932922,-1.7812861,-9.844957,1.1971009
0.22667132,4.8373895,-0.01674259,-0.39248326,0.45932922,-1.7812861,-9.844957,1.1971009
0.22690101,4.83746,-0.019938385,-0.42337593,0.42417547,-1.733402,-9.864111,1.1683705
0.2271225,4.837528,-0.019938385,-0.42337593,0.42417547,-1.733402,-9.864111,1.1683705
0.22731707,4.837603,-0.02313418,-0.45320335,0.39221755,-1.6950948,-9.878476,1.1683705
0.22751765,4.83768,-0.02313418,-0.45320335,0.39221755,-1.6950948,-9.878476,1.1683705
0.2276821,4.837753,-0.02313418,-0.48303074,0.36452067,-1.5705963,-9.892841,1.115698
0.22784582,4.837826,-0.02313418,-0.48303074,0.36452067,-1.5705963,-9.892841,1.115698
0.22798373,4.837906,-0.019938385,-0.5085971,0.34108487,-1.508347,-9.859323,1.0965444
0.22812285,4.837987,-0.019938385,-0.5085971,0.34108487,-1.508347,-9.859323,1.0965444
0.22823972,4.8380713,-0.015677327,-0.5299024,0.32084483,-1.4030021,-9.892841,1.0486604
0.22835635,4.8381557,-0.015677327,-0.5299024,0.32084483,-1.4030021,-9.892841,1.0486604
0.2284551,4.838255,-0.010351005,-0.54907715,0.3069964,-1.316811,-9.859323,1.067814
0.22855398,4.838354,-0.010351005,-0.54907715,0.3069964,-1.316811,-9.859323,1.067814
0.22863896,4.838468,-0.0039594183,-0.56399083,0.29634374,-1.2449849,-9.835381,1.091756
0.22872432,4.8385825,-0.0039594183,-0.56399083,0.29634374,-1.2449849,-9.835381,1.091756
0.22880334,4.8387074,0.003497433,-0.5746435,0.2920827,-1.1109096,-9.821015,1.0821792
0.22888228,4.838832,0.003497433,-0.5746435,0.2920827,-1.1109096,-9.821015,1.0821792
0.22895898,4.8389616,0.00988902,-0.58210033,0.2910174,-0.9672575,-9.849746,1.043872
0.22903629,4.8390923,0.00988902,-0.58210033,0.2910174,-0.9672575,-9.849746,1.043872
0.2291108,4.839237,0.017345872,-0.58529615,0.28995216,-0.8475474,-9.816227,1.0869676
0.22918518,4.8393817,0.017345872,-0.58529615,0.28995216,-0.8475474,-9.816227,1.0869676
0.22926192,4.839534,0.024802722,-0.58423084,0.2920827,-0.7134721,-9.816227,1.0726024
0.2293385,4.839686,0.024802722,-0.58423084,0.2920827,-0.7134721,-9.816227,1.0726024
0.22941646,4.8398438,0.031194309,-0.57890457,0.29314795,-0.59855044,-9.797073,1.067814
0.22949468,4.840002,0.031194309,-0.57890457,0.29314795,-0.59855044,-9.797073,1.067814
0.22957462,4.840168,0.037585896,-0.56931716,0.2942132,-0.45010993,-9.749189,1.091756
0.2296544,4.8403335,0.037585896,-0.56931716,0.2942132,-0.45010993,-9.749189,1.091756
0.22973606,4.8405056,0.043977484,-0.55333817,0.2942132,-0.33039984,-9.710882,1.1300632
0.2298175,4.8406777,0.043977484,-0.55333817,0.2942132,-0.33039984,-9.710882,1.1300632
0.22989832,4.840852,0.049303804,-0.5341634,0.2910174,-0.20590134,-9.576807,1.1204864
0.22997889,4.8410254,0.049303804,-0.5341634,0.2910174,-0.20590134,-9.576807,1.1204864
0.23005834,4.841198,0.05356486,-0.51072764,0.28675637,-0.095768064,-9.524135,1.1109096
0.23013754,4.84137,0.05356486,-0.51072764,0.28675637,-0.095768064,-9.524135,1.1109096
0.23021092,4.841541,0.055695392,-0.48303074,0.277169,-0.0047884034,-9.504981,1.1444284
0.23028421,4.841711,0.055695392,-0.48303074,0.277169,-0.0047884034,-9.504981,1.1444284
0.23035307,4.841878,0.056760654,-0.45320335,0.26864687,0.08140286,-9.385271,1.163582
0.23042178,4.842045,0.056760654,-0.45320335,0.26864687,0.08140286,-9.385271,1.163582
0.23048508,4.8422003,0.054630127,-0.4191149,0.2590595,0.18195933,-9.375694,1.1540052
0.23054871,4.8423567,0.054630127,-0.4191149,0.2590595,0.18195933,-9.375694,1.1540052
0.23060293,4.842493,0.05036907,-0.3828959,0.24521105,0.2825158,-9.385271,1.0486604
0.23065707,4.8426294,0.05036907,-0.3828959,0.24521105,0.2825158,-9.385271,1.0486604
0.2306983,4.8427534,0.045042746,-0.34454638,0.22710156,0.35434186,-9.332599,1.0821792
0.23073897,4.8428764,0.045042746,-0.34454638,0.22710156,0.35434186,-9.332599,1.0821792
0.23076634,4.842984,0.040781688,-0.30406633,0.2079268,0.40701428,-9.3421755,1.043872
0.23079497,4.8430967,0.040781688,-0.30406633,0.2079268,0.40701428,-9.3421755,1.043872
0.23080717,4.843182,0.032259572,-0.262521,0.18768677,0.4165911,-9.3421755,1.0247183
0.23081982,4.8432693,0.032259572,-0.262521,0.18768677,0.4165911,-9.3421755,1.0247183
0.23081687,4.8433394,0.024802722,-0.21991043,0.16638148,0.45010993,-9.323022,1.0247183
0.23081383,4.8434114,0.024802722,-0.21991043,0.16638148,0.45010993,-9.323022,1.0247183
0.23079358,4.8434587,0.016280606,-0.17836511,0.14294566,0.40701428,-9.356541,0.9864111
0.23077284,4.8435073,0.016280606,-0.17836511,0.14294566,0.40701428,-9.356541,0.9864111
0.23073553,4.843537,0.0077584907,-0.13575453,0.120575115,0.35913026,-9.313444,0.9911995
0.2306981,4.8435664,0.0077584907,-0.13575453,0.120575115,0.35913026,-9.313444,0.9911995
0.23064302,4.8435745,-0.0007636249,-0.095274486,0.09713929,0.37349546,-9.303867,0.93852705
0.23058777,4.8435826,-0.0007636249,-0.095274486,0.09713929,0.37349546,-9.303867,0.93852705
0.23051214,4.843569,-0.009285741,-0.05692496,0.071572945,0.29688102,-9.303867,0.89064306
0.23043726,4.8435555,-0.009285741,-0.05692496,0.071572945,0.29688102,-9.303867,0.89064306
0.2303452,4.84352,-0.018873122,-0.016444914,0.049202394,0.24899697,-9.255983,0.8523358
0.23025382,4.8434844,-0.018873122,-0.016444914,0.049202394,0.24899697,-9.255983,0.8523358
0.23014767,4.8434296,-0.027395237,0.020839343,0.02896237,0.18674773,-9.246407,0.8283938
0.2300412,4.8433743,-0.027395237,0.020839343,0.02896237,0.18674773,-9.246407,0.8283938
0.22991942,4.8433003,-0.035917353,0.0581236,0.008722344,0.08619126,-9.212888,0.8283938
0.22979796,4.843227,-0.035917353,0.0581236,0.008722344,0.08619126,-9.212888,0.8283938
0.22966127,4.843129,-0.04443947,0.09221206,-0.012582945,-0.009576807,-9.179369,0.7374141
0.22952475,4.843032,-0.04443947,0.09221206,-0.012582945,-0.009576807,-9.179369,0.7374141
0.2293753,4.8429136,-0.05402685,0.12417,-0.03069244,-0.06703765,-9.184157,0.6991069
0.229226,4.8427954,-0.05402685,0.12417,-0.03069244,-0.06703765,-9.184157,0.6991069
0.22906473,4.842663,-0.0614837,0.15506266,-0.046671405,-0.14844051,-9.14585,0.7182605
0.22890331,4.84253,-0.0614837,0.15506266,-0.046671405,-0.14844051,-9.14585,0.7182605
0.22872849,4.8423824,-0.06787529,0.1838248,-0.064780906,-0.22026655,-9.193734,0.7230489
0.2285533,4.8422356,-0.06787529,0.1838248,-0.064780906,-0.22026655,-9.193734,0.7230489
0.22836588,4.8420734,-0.07320161,0.21365221,-0.08182514,-0.320823,-9.131485,0.7182605
0.22817835,4.841912,-0.07320161,0.21365221,-0.08182514,-0.320823,-9.131485,0.7182605
0.22798315,4.841733,-0.07852793,0.24241436,-0.095673576,-0.3878607,-9.179369,0.6655881
0.22778769,4.8415537,-0.07852793,0.24241436,-0.095673576,-0.3878607,-9.179369,0.6655881
0.22757718,4.8413644,-0.08385425,0.26904595,-0.11271781,-0.45010993,-9.308656,0.7182605
0.22736762,4.841176,-0.08385425,0.26904595,-0.11271781,-0.45010993,-9.308656,0.7182605
0.22712944,4.8409653,-0.09024584,0.29461232,-0.12869677,-0.5267244,-9.337387,0.78050977
0.22690956,4.8407702,-0.09024584,0.29461232,-0.12869677,-0.5267244,-9.337387,0.78050977
0.22667411,4.840561,-0.09663743,0.31804812,-0.14680627,-0.58897364,-9.457097,0.78529817
0.2264347,4.8403487,-0.09663743,0.31804812,-0.14680627,-0.58897364,-9.457097,0.78529817
0.2264347,4.8403487,-0.09663743,0.31804812,-0.14680627,-0.58897364,-9.457097,0.78529817
0.22584136,4.839859,-0.10302901,0.34041867,-0.16917682,-0.6895301,-9.543288,0.91458505
0.2256358,4.8397007,-0.107290074,0.35959345,-0.19261263,-0.78529817,-9.643845,1.0055647
0.22533888,4.839473,-0.107290074,0.35959345,-0.19261263,-0.78529817,-9.643845,1.0055647
0.22504985,4.8392596,-0.11261639,0.37770292,-0.21604845,-0.8379706,-9.734824,1.043872
0.22475761,4.839044,-0.11261639,0.37770292,-0.21604845,-0.8379706,-9.734824,1.043872
0.22443344,4.8388147,-0.11581218,0.3936819,-0.23948428,-0.90979666,-9.797073,1.0726024
0.22410838,4.8385854,-0.11581218,0.3936819,-0.23948428,-0.90979666,-9.797073,1.0726024
0.22375761,4.838357,-0.11581218,0.4085956,-0.26398537,-0.9576807,-9.868899,1.13964
0.22340862,4.8381295,-0.11581218,0.4085956,-0.26398537,-0.9576807,-9.868899,1.13964
0.22302997,4.8378963,-0.11581218,0.42244405,-0.29168224,-1.0965444,-9.92636,1.1540052
0.22265583,4.837666,-0.11581218,0.42244405,-0.29168224,-1.0965444,-9.92636,1.1540052
0.22225352,4.837432,-0.11581218,0.43522722,-0.31831384,-1.1827357,-9.988609,1.1731589
0.22185163,4.837198,-0.11581218,0.43522722,-0.31831384,-1.1827357,-9.988609,1.1731589
0.22142757,4.8369675,-0.11368166,0.44587985,-0.34281492,-1.316811,-9.9790325,1.2018893
0.22100295,4.8367376,-0.11368166,0.44587985,-0.34281492,-1.316811,-9.9790325,1.2018893
0.2205577,4.8364944,-0.11368166,0.45440197,-0.36625075,-1.4317327,-10.065224,1.1540052
0.22011173,4.836252,-0.11368166,0.45440197,-0.36625075,-1.4317327,-10.065224,1.1540052
0.21964432,4.836027,-0.11155113,0.46185884,-0.38755605,-1.5562311,-10.0748005,1.2497733
0.21917638,4.835802,-0.11155113,0.46185884,-0.38755605,-1.5562311,-10.0748005,1.2497733
0.21869631,4.83555,-0.11048587,0.46825042,-0.40460026,-1.7142484,-10.108319,1.1492168
0.21821782,4.8352995,-0.11048587,0.46825042,-0.40460026,-1.7142484,-10.108319,1.1492168
0.21772316,4.835041,-0.108355336,0.47144622,-0.42057922,-1.8339585,-10.1226845,1.1444284
0.21723163,4.8347845,-0.108355336,0.47144622,-0.42057922,-1.8339585,-10.1226845,1.1444284
0.21673653,4.834511,-0.10515954,0.47251147,-0.4333624,-1.982399,-10.13705,1.1348516
0.21624207,4.8342385,-0.10515954,0.47251147,-0.4333624,-1.982399,-10.13705,1.1348516
0.2157585,4.833947,-0.104094274,0.474642,-0.44294977,-2.0973208,-10.108319,1.1444284
0.21527025,4.8336535,-0.104094274,0.474642,-0.44294977,-2.0973208,-10.108319,1.1444284
0.21485291,4.8333397,-0.10196375,0.47251147,-0.44934136,-2.1883004,-10.146626,1.1061212
0.2144352,4.833024,-0.10196375,0.47251147,-0.44934136,-2.1883004,-10.146626,1.1061212
0.21406597,4.832712,-0.09983322,0.46825042,-0.45253718,-2.2840683,-10.213664,1.0295067
0.21369654,4.8323984,-0.09983322,0.46825042,-0.45253718,-2.2840683,-10.213664,1.0295067
0.21337275,4.8321037,-0.09663743,0.4629241,-0.4546677,-2.384625,-10.199299,1.043872
0.21304984,4.831809,-0.09663743,0.4629241,-0.4546677,-2.384625,-10.199299,1.043872
0.21275508,4.8315372,-0.092376366,0.45546725,-0.45253718,-2.5139117,-10.208876,1.0247183
0.21246114,4.831266,-0.092376366,0.45546725,-0.45253718,-2.5139117,-10.208876,1.0247183
0.21217756,4.831003,-0.09024584,0.44587985,-0.44614556,-2.6048915,-10.28549,1.0055647
0.21189447,4.830741,-0.09024584,0.44587985,-0.44614556,-2.6048915,-10.28549,1.0055647
0.21162437,4.8304896,-0.08705004,0.43309668,-0.4365582,-2.7581203,-10.290278,0.93852705
0.2113534,4.8302374,-0.08705004,0.43309668,-0.4365582,-2.7581203,-10.290278,0.93852705
0.21109416,4.8299913,-0.08491952,0.4171177,-0.42270976,-2.873042,-10.314221,0.8714894
0.21083441,4.829745,-0.08491952,0.4171177,-0.42270976,-2.873042,-10.314221,0.8714894
0.21059975,4.8295116,-0.08172372,0.4000735,-0.40140447,-2.944868,-10.251971,0.8571242
0.21036741,4.829281,-0.08172372,0.4000735,-0.40140447,-2.944868,-10.251971,0.8571242
0.21016175,4.8290615,-0.07852793,0.381964,-0.37477285,-3.0789435,-10.242394,0.8475474
0.20995332,4.8288393,-0.07852793,0.381964,-0.37477285,-3.0789435,-10.242394,0.8475474
0.20977409,4.8286295,-0.076397404,0.35959345,-0.347076,-3.1364043,-10.28549,0.8379706
0.2095938,4.8284183,-0.076397404,0.35959345,-0.347076,-3.1364043,-10.28549,0.8379706
0.20944682,4.828222,-0.07320161,0.33828816,-0.31511804,-3.1986535,-10.34774,0.8714894
0.20929964,4.828025,-0.07320161,0.33828816,-0.31511804,-3.1986535,-10.34774,0.8714894
0.20918408,4.827836,-0.07000581,0.3159176,-0.27996433,-3.193865,-10.34774,0.8523358
0.20906784,4.8276463,-0.07000581,0.3159176,-0.27996433,-3.193865,-10.34774,0.8523358
0.20898847,4.8274717,-0.06681002,0.29141653,-0.24374533,-3.241749,-10.376471,0.89064306
0.20890838,4.827296,-0.06681002,0.29141653,-0.24374533,-3.241749,-10.376471,0.89064306
0.2088625,4.827138,-0.060418434,0.26691544,-0.20859161,-3.1651347,-10.424355,0.93373865
0.20881604,4.8269773,-0.060418434,0.26691544,-0.20859161,-3.1651347,-10.424355,0.93373865
0.20880294,4.8268313,-0.05509211,0.24347961,-0.17343788,-3.1364043,-10.457873,0.9624691
0.20878986,4.8266845,-0.05509211,0.24347961,-0.17343788,-3.1364043,-10.457873,0.9624691
0.2088142,4.8265734,-0.048700526,0.21791327,-0.14041469,-3.074155,-10.395624,1.115698
0.2088385,4.8264627,-0.048700526,0.21791327,-0.14041469,-3.074155,-10.395624,1.115698
0.20888916,4.8263807,-0.042308938,0.19341218,-0.11165254,-2.9783869,-10.395624,1.2114661
0.20894034,4.8262987,-0.042308938,0.19341218,-0.11165254,-2.9783869,-10.395624,1.2114661
0.2090079,4.8262334,-0.03804788,0.17104164,-0.091412514,-2.882619,-10.409989,1.2401965
0.20907596,4.826168,-0.03804788,0.17104164,-0.091412514,-2.882619,-10.409989,1.2401965
0.20914777,4.82614,-0.032721557,0.1476058,-0.075433545,-2.767697,-10.338163,1.3359646
0.20921959,4.826112,-0.032721557,0.1476058,-0.075433545,-2.767697,-10.338163,1.3359646
0.20927247,4.82612,-0.03059103,0.12417,-0.06691143,-2.6862943,-10.409989,1.4652514
0.20932586,4.826128,-0.03059103,0.12417,-0.06691143,-2.6862943,-10.409989,1.4652514
0.20938264,4.826142,-0.027395237,0.102864705,-0.06371564,-2.657564,-10.390836,1.4317327
0.20943968,4.826155,-0.027395237,0.102864705,-0.06371564,-2.657564,-10.390836,1.4317327
0.20943902,4.826206,-0.02313418,0.08155942,-0.064780906,-2.4947581,-10.429143,1.6089035
0.20943849,4.8262577,-0.02313418,0.08155942,-0.064780906,-2.4947581,-10.429143,1.6089035
0.20941731,4.8263187,-0.019938385,0.062384658,-0.07117249,-2.4516625,-10.424355,1.6519991
0.20939606,4.8263803,-0.019938385,0.062384658,-0.07117249,-2.4516625,-10.424355,1.6519991
0.20936906,4.826449,-0.015677327,0.043209895,-0.07969461,-2.4037786,-10.352529,1.5370775
0.20934205,4.826517,-0.015677327,0.043209895,-0.07969461,-2.4037786,-10.352529,1.5370775
0.20929824,4.8265924,-0.013546798,0.026165664,-0.09034725,-2.360683,-10.290278,1.508347
0.20925455,4.826668,-0.013546798,0.026165664,-0.09034725,-2.360683,-10.290278,1.508347
0.20919354,4.82675,-0.010351005,0.012317227,-0.09993463,-2.336741,-10.290278,1.5131354
0.20913225,4.8268323,-0.010351005,0.012317227,-0.09993463,-2.336741,-10.290278,1.5131354
0.20905407,4.8269234,-0.0050246827,-0.00046594674,-0.11058728,-2.2840683,-10.232818,1.4508862
0.20897713,4.827013,-0.0050246827,-0.00046594674,-0.11058728,-2.2840683,-10.232818,1.4508862
0.20894054,4.827093,-0.0007636249,-0.012183856,-0.120174654,-2.3558946,-10.156203,1.340753
0.20890369,4.827175,-0.0007636249,-0.012183856,-0.120174654,-2.3558946,-10.156203,1.340753
0.2088344,4.8272705,0.0024321685,-0.021771235,-0.1276315,-2.3511062,-10.132261,1.436521
0.20876548,4.8273664,0.0024321685,-0.021771235,-0.1276315,-2.3511062,-10.132261,1.436521
0.20870583,4.82746,0.005627962,-0.031358615,-0.1340231,-2.327164,-10.065224,1.3503298
0.20864622,4.8275537,0.005627962,-0.031358615,-0.1340231,-2.327164,-10.065224,1.3503298
0.20858489,4.827651,0.008823755,-0.03988073,-0.13828415,-2.3463178,-10.065224,1.3599066
0.20852381,4.8277483,0.008823755,-0.03988073,-0.13828415,-2.3463178,-10.065224,1.3599066
0.20844172,4.827857,0.010954284,-0.051598642,-0.14147994,-2.2744915,-10.012551,1.3455414
0.20836033,4.8279653,0.010954284,-0.051598642,-0.14147994,-2.2744915,-10.012551,1.3455414
0.20830502,4.8280663,0.0141500775,-0.06331655,-0.14147994,-2.2601264,-10.0029745,1.2641385
0.20825051,4.8281665,0.0141500775,-0.06331655,-0.14147994,-2.2601264,-10.0029745,1.2641385
0.20813006,4.8282957,0.017345872,-0.07396919,-0.14147994,-2.1739352,-9.9790325,1.316811
0.20801039,4.8284245,0.017345872,-0.07396919,-0.14147994,-2.1739352,-9.9790325,1.316811
0.20785832,4.8285627,0.02160693,-0.08355658,-0.14041469,-2.1308396,-10.022128,1.3503298
0.207709,4.8286986,0.02160693,-0.08355658,-0.14041469,-2.1308396,-10.022128,1.3503298
0.20752218,4.828834,0.023737457,-0.091013424,-0.14147994,-2.0638018,-9.988609,1.316811
0.20733574,4.82897,0.023737457,-0.091013424,-0.14147994,-2.0638018,-9.988609,1.316811
0.20715475,4.829114,0.026933251,-0.10060081,-0.14254521,-2.087744,-9.988609,1.2785037
0.20697565,4.829258,0.026933251,-0.10060081,-0.14254521,-2.087744,-9.988609,1.2785037
0.20675293,4.829393,0.02906378,-0.109122925,-0.14254521,-2.0494366,-9.935937,1.2306197
0.2065312,4.829529,0.02906378,-0.109122925,-0.14254521,-2.0494366,-9.935937,1.2306197
0.2063672,4.829682,0.031194309,-0.11657977,-0.14041469,-2.078167,-9.888053,1.2593501
0.2062058,4.8298345,0.031194309,-0.11657977,-0.14041469,-2.078167,-9.888053,1.2593501
0.2061131,4.8299837,0.033324838,-0.122971356,-0.13615362,-2.111686,-9.787497,1.2306197
0.20602268,4.8301315,0.033324838,-0.122971356,-0.13615362,-2.111686,-9.787497,1.2306197
0.20597328,4.8301163,0.03545537,-0.12829769,-0.12976204,-2.087744,-9.696517,1.1109096
0.20592482,4.8301024,0.03545537,-0.12829769,-0.12976204,-2.087744,-9.696517,1.1109096
0.20587423,4.830082,0.03545537,-0.13149348,-0.121239915,-2.0829554,-9.648633,1.091756
0.20582439,4.830063,0.03545537,-0.13149348,-0.121239915,-2.0829554,-9.648633,1.091756
0.20577879,4.8300395,0.034390103,-0.13468927,-0.11058728,-2.078167,-9.509769,1.043872
0.20573384,4.830017,0.034390103,-0.13468927,-0.11058728,-2.078167,-9.509769,1.043872
0.20570324,4.8299947,0.033324838,-0.13788506,-0.09673884,-2.0829554,-9.433155,1.0151415
0.20567296,4.8299727,0.033324838,-0.13788506,-0.09673884,-2.0829554,-9.433155,1.0151415
0.2056465,4.829944,0.032259572,-0.14001559,-0.07969461,-2.078167,-9.380483,0.9720459
0.20562033,4.829916,0.032259572,-0.14001559,-0.07969461,-2.078167,-9.380483,0.9720459
0.20557265,4.829872,0.027998514,-0.14108086,-0.06158511,-2.0015526,-9.313444,0.94331545
0.20552571,4.829829,0.027998514,-0.14108086,-0.06158511,-2.0015526,-9.313444,0.94331545
0.20545842,4.8297815,0.025867987,-0.14214613,-0.04241035,-1.9297266,-9.241618,0.9959879
0.20539334,4.8297353,0.025867987,-0.14214613,-0.04241035,-1.9297266,-9.241618,0.9959879
0.20535044,4.8296857,0.023737457,-0.14214613,-0.025366118,-1.9297266,-9.212888,1.0007763
0.20530751,4.829636,0.023737457,-0.14214613,-0.025366118,-1.9297266,-9.212888,1.0007763
0.20520978,4.8295975,0.02160693,-0.14214613,-0.01151768,-1.8674773,-9.232041,1.0055647
0.20511279,4.8295593,0.02160693,-0.14214613,-0.01151768,-1.8674773,-9.232041,1.0055647
0.20496702,4.829571,0.019476399,-0.14001559,0.0023307577,-1.7717092,-9.169792,1.0390835
0.20482174,4.8295813,0.019476399,-0.14001559,0.0023307577,-1.7717092,-9.169792,1.0390835
0.20468491,4.829604,0.018411135,-0.13895033,0.016179197,-1.7046716,-9.188946,1.043872
0.20454887,4.8296266,0.018411135,-0.13895033,0.016179197,-1.7046716,-9.188946,1.043872
0.2044173,4.8296757,0.016280606,-0.1368198,0.024701312,-1.6184803,-9.155427,1.0869676
0.20428663,4.829725,0.016280606,-0.1368198,0.024701312,-1.6184803,-9.155427,1.0869676
0.20416163,4.8297567,0.012019549,-0.133624,0.031092897,-1.5179238,-9.179369,1.0582372
0.20403755,4.8297877,0.012019549,-0.133624,0.031092897,-1.5179238,-9.179369,1.0582372
0.20391911,4.829843,0.0066932263,-0.13042821,0.033223428,-1.4556746,-9.169792,1.1492168
0.20380077,4.8298984,0.0066932263,-0.13042821,0.033223428,-1.4556746,-9.169792,1.1492168
0.20368484,4.8299513,0.00030163955,-0.12616715,0.033223428,-1.4173675,-9.136273,1.1683705
0.20356922,4.8300033,0.00030163955,-0.12616715,0.033223428,-1.4173675,-9.136273,1.1683705
0.20345026,4.8300495,-0.0071552116,-0.12084083,0.02896237,-1.3503298,-9.150639,1.1923125
0.2033316,4.8300953,-0.0071552116,-0.12084083,0.02896237,-1.3503298,-9.150639,1.1923125
0.20320265,4.8301315,-0.013546798,-0.11444924,0.018309724,-1.2354081,-9.11712,1.2018893
0.20307404,4.830168,-0.013546798,-0.11444924,0.018309724,-1.2354081,-9.11712,1.2018893
0.20293239,4.8301964,-0.019938385,-0.105927125,0.0044612866,-1.1587936,-9.078813,1.2162545
0.20279159,4.830225,-0.019938385,-0.105927125,0.0044612866,-1.1587936,-9.078813,1.2162545
0.20263563,4.8302474,-0.027395237,-0.09633975,-0.012582945,-1.1827357,-9.136273,1.2401965
0.20248061,4.83027,-0.027395237,-0.09633975,-0.012582945,-1.1827357,-9.136273,1.2401965
0.20248061,4.83027,-0.027395237,-0.09633975,-0.012582945,-1.1827357,-9.136273,1.2401965
0.20248061,4.83027,-0.027395237,-0.09633975,-0.012582945,-1.1827357,-9.136273,1.2401965
0.2018939,4.830343,-0.043374203,-0.07609972,-0.05199773,-1.1923125,-9.126697,1.3215994
0.2017972,4.8303504,-0.043374203,-0.07609972,-0.05199773,-1.1923125,-9.126697,1.3215994
0.20157276,4.830342,-0.05189632,-0.066512346,-0.075433545,-1.2066777,-9.155427,1.2449849
0.20109983,4.830305,-0.0614837,-0.057990227,-0.09993463,-1.1779473,-9.11712,1.2114661
0.20109983,4.830305,-0.0614837,-0.057990227,-0.09993463,-1.1779473,-9.11712,1.2114661
0.20089923,4.830283,-0.0614837,-0.057990227,-0.09993463,-1.1779473,-9.11712,1.2114661
0.20062347,4.830242,-0.06894055,-0.04946811,-0.12656625,-1.1875241,-9.141062,1.1923125
0.20035769,4.8302026,-0.06894055,-0.04946811,-0.12656625,-1.1875241,-9.141062,1.1923125
0.20007268,4.8301635,-0.076397404,-0.040945996,-0.15213259,-1.1875241,-9.069236,1.2354081
0.1997866,4.830125,-0.076397404,-0.040945996,-0.15213259,-1.1875241,-9.069236,1.2354081
0.19946383,4.8300576,-0.08598478,-0.033489145,-0.18302526,-1.2066777,-9.078813,1.1492168
0.19914109,4.8299904,-0.08598478,-0.033489145,-0.18302526,-1.2066777,-9.078813,1.1492168
0.19879062,4.8299246,-0.0945069,-0.026032293,-0.21604845,-1.1587936,-9.126697,1.2210429
0.1984403,4.8298583,-0.0945069,-0.026032293,-0.21604845,-1.1587936,-9.126697,1.2210429
0.19806224,4.829793,-0.10302901,-0.018575443,-0.2501369,-1.1923125,-9.160215,1.2880806
0.19768424,4.829728,-0.10302901,-0.018575443,-0.2501369,-1.1923125,-9.160215,1.2880806
0.19727196,4.8296475,-0.11474692,-0.012183856,-0.28742117,-1.2449849,-9.289502,1.2785037
0.19686273,4.829568,-0.11474692,-0.012183856,-0.28742117,-1.2449849,-9.289502,1.2785037
0.1964204,4.829481,-0.1275301,-0.0068575335,-0.3225749,-1.2880806,-9.399636,1.3311762
0.19597127,4.8293934,-0.1275301,-0.0068575335,-0.3225749,-1.2880806,-9.399636,1.3311762
0.19549818,4.829299,-0.139248,-0.0025964756,-0.35985917,-1.3072342,-9.461885,1.3694834
0.19502322,4.8292046,-0.139248,-0.0025964756,-0.35985917,-1.3072342,-9.461885,1.3694834
0.19453593,4.8291187,-0.14777012,-0.00046594674,-0.39394763,-1.3599066,-9.533711,1.508347
0.19404869,4.829033,-0.14777012,-0.00046594674,-0.39394763,-1.3599066,-9.533711,1.508347
0.19353448,4.8289394,-0.15629223,-0.00046594674,-0.4248403,-1.436521,-9.691729,1.4987702
0.19301783,4.828846,-0.15629223,-0.00046594674,-0.4248403,-1.436521,-9.691729,1.4987702
0.19245571,4.8287306,-0.16268381,-0.0025964756,-0.4514719,-1.4221559,-9.782708,1.3934253
0.19189416,4.8286157,-0.16268381,-0.0025964756,-0.4514719,-1.4221559,-9.782708,1.3934253
0.19130866,4.828499,-0.16374908,-0.00366174,-0.47703823,-1.4748282,-9.801862,1.3599066
0.19071968,4.828382,-0.16374908,-0.00366174,-0.47703823,-1.4748282,-9.801862,1.3599066
0.19011785,4.828272,-0.16374908,-0.00366174,-0.4994088,-1.5610195,-9.849746,1.3599066
0.18951698,4.8281627,-0.16374908,-0.00366174,-0.4994088,-1.5610195,-9.849746,1.3599066
0.18889542,4.8280478,-0.16374908,-0.0047270046,-0.5143225,-1.685518,-9.950302,1.2785037
0.18827152,4.8279333,-0.16374908,-0.0047270046,-0.5143225,-1.685518,-9.950302,1.2785037
0.1876569,4.827837,-0.16055329,-0.0068575335,-0.52604043,-1.7381904,-9.983821,1.3024458
0.18704452,4.827743,-0.16055329,-0.0068575335,-0.52604043,-1.7381904,-9.983821,1.3024458
0.18646625,4.8276725,-0.1541617,-0.010053327,-0.532432,-1.8195933,-10.031705,1.3359646
0.18588741,4.827603,-0.1541617,-0.010053327,-0.532432,-1.8195933,-10.031705,1.3359646
0.18531385,4.8275414,-0.14777012,-0.01324912,-0.532432,-1.8435353,-10.070012,1.3072342
0.18474406,4.8274813,-0.14777012,-0.01324912,-0.532432,-1.8435353,-10.070012,1.3072342
0.18418787,4.8274326,-0.13818274,-0.016444914,-0.5292362,-1.8626889,-10.117896,1.3072342
0.1836323,4.827385,-0.13818274,-0.016444914,-0.5292362,-1.8626889,-10.117896,1.3072342
0.18312107,4.827352,-0.12646483,-0.021771235,-0.5207141,-1.910573,-10.13705,1.3120226
0.1826136,4.827319,-0.12646483,-0.021771235,-0.5207141,-1.910573,-10.13705,1.3120226
0.1821095,4.8272986,-0.11474692,-0.028162822,-0.51006144,-1.8962077,-10.113108,1.412579
0.1816031,4.827279,-0.11474692,-0.028162822,-0.51006144,-1.8962077,-10.113108,1.412579
0.1811359,4.8272724,-0.10089848,-0.03455441,-0.49727827,-1.9249382,-10.103531,1.3311762
0.18067132,4.827265,-0.10089848,-0.03455441,-0.49727827,-1.9249382,-10.103531,1.3311762
0.18022385,4.8272734,-0.08705004,-0.03988073,-0.4812993,-1.9153614,-10.13705,1.3120226
0.17977318,4.827281,-0.08705004,-0.03988073,-0.4812993,-1.9153614,-10.13705,1.3120226
0.17932123,4.827307,-0.07320161,-0.047337584,-0.46425506,-1.8626889,-10.079589,1.2976574
0.17887013,4.827333,-0.07320161,-0.047337584,-0.46425506,-1.8626889,-10.079589,1.2976574
0.1784336,4.8273754,-0.058287904,-0.052663904,-0.44401506,-1.8531121,-10.04607,1.3503298
0.17800772,4.8274164,-0.058287904,-0.052663904,-0.44401506,-1.8531121,-10.04607,1.3503298
0.17759186,4.827476,-0.042308938,-0.05692496,-0.42377502,-1.8387469,-10.041282,1.292869
0.17717382,4.8275366,-0.042308938,-0.05692496,-0.42377502,-1.8387469,-10.041282,1.292869
0.17673321,4.8276076,-0.0284605,-0.060120758,-0.40246972,-1.7381904,-9.9790325,1.3359646
0.17629865,4.8276787,-0.0284605,-0.060120758,-0.40246972,-1.7381904,-9.9790325,1.3359646
0.17586763,4.827762,-0.015677327,-0.06331655,-0.38222972,-1.7286136,-9.945514,1.2785037
0.17544107,4.8278456,-0.015677327,-0.06331655,-0.38222972,-1.7286136,-9.945514,1.2785037
0.17497507,4.8279166,-0.0039594183,-0.064381815,-0.36092442,-1.6376339,-9.940725,1.2497733
0.17451324,4.8279877,-0.0039594183,-0.064381815,-0.36092442,-1.6376339,-9.940725,1.2497733
0.1740289,4.8280067,0.00988902,-0.064381815,-0.33855388,-1.5897499,-9.854534,1.1492168
0.17354693,4.8280253,0.00988902,-0.064381815,-0.33855388,-1.5897499,-9.854534,1.1492168
0.1731041,4.8281054,0.022672193,-0.062251285,-0.31831384,-1.5370775,-9.787497,1.2210429
0.17266352,4.828186,0.022672193,-0.062251285,-0.31831384,-1.5370775,-9.787497,1.2210429
0.17222497,4.82825,0.03652063,-0.060120758,-0.29807383,-1.412579,-9.739613,1.1827357
0.17178829,4.828314,0.03652063,-0.060120758,-0.29807383,-1.412579,-9.739613,1.1827357
0.17136379,4.8283787,0.049303804,-0.05372917,-0.27996433,-1.3072342,-9.677363,1.1587936
0.17094257,4.828443,0.049303804,-0.05372917,-0.27996433,-1.3072342,-9.677363,1.1587936
0.17053285,4.8285136,0.05995645,-0.044141788,-0.26611587,-1.2018893,-9.581595,1.1444284
0.1701243,4.828584,0.05995645,-0.044141788,-0.26611587,-1.2018893,-9.581595,1.1444284
0.16973129,4.828684,0.06954383,-0.03242388,-0.25865903,-1.0773908,-9.452309,1.2258313
0.16933946,4.828783,0.06954383,-0.03242388,-0.25865903,-1.0773908,-9.452309,1.2258313
0.16895185,4.8288946,0.07700068,-0.017510178,-0.25759378,-0.9959879,-9.289502,1.2545617
0.16856536,4.829006,0.07700068,-0.017510178,-0.25759378,-0.9959879,-9.289502,1.2545617
0.16816914,4.829108,0.07913121,-0.00046594674,-0.26505062,-0.90021986,-9.260772,1.2258313
0.16777408,4.8292093,0.07913121,-0.00046594674,-0.26505062,-0.90021986,-9.260772,1.2258313
0.16736723,4.8293157,0.07913121,0.019774077,-0.28102958,-0.8379706,-9.141062,1.2689269
0.16696155,4.8294215,0.07913121,0.019774077,-0.28102958,-0.8379706,-9.141062,1.2689269
0.16653597,4.8295193,0.07700068,0.038948838,-0.30233487,-0.78050977,-9.069236,1.2593501
0.16611159,4.8296175,0.07700068,0.038948838,-0.30233487,-0.78050977,-9.069236,1.2593501
0.16566212,4.8297114,0.06954383,0.057058334,-0.331097,-0.79487497,-9.006987,1.2880806
0.16521536,4.829805,0.06954383,0.057058334,-0.331097,-0.79487497,-9.006987,1.2880806
0.16473204,4.8298845,0.061021715,0.0762331,-0.36625075,-0.7661445,-9.002198,1.283292
0.16425021,4.8299646,0.061021715,0.0762331,-0.36625075,-0.7661445,-9.002198,1.283292
0.16373639,4.8300323,0.04823854,0.09434259,-0.403535,-0.79966336,-8.973468,1.2976574
0.16322424,4.8301,0.04823854,0.09434259,-0.403535,-0.79966336,-8.973468,1.2976574
0.16267963,4.8301616,0.034390103,0.11138682,-0.44401506,-0.8283938,-8.963891,1.364695
0.16213854,4.830223,0.034390103,0.11138682,-0.44401506,-0.8283938,-8.963891,1.364695
0.16153756,4.8302517,0.02160693,0.12843105,-0.48875615,-0.8619126,-8.939949,1.2306197
0.16093966,4.83028,0.02160693,0.12843105,-0.48875615,-0.8619126,-8.939949,1.2306197
0.16029732,4.8302937,0.0077584907,0.14334476,-0.5334973,-0.8619126,-8.959103,1.2449849
0.15966028,4.830308,0.0077584907,0.14334476,-0.5334973,-0.8619126,-8.959103,1.2449849
0.1589696,4.8302917,-0.006089947,0.15506266,-0.57823837,-0.89543146,-8.99741,1.1731589
0.15828463,4.8302765,-0.006089947,0.15506266,-0.57823837,-0.89543146,-8.99741,1.1731589
0.15754576,4.8302393,-0.022068914,0.16465004,-0.62511003,-0.90021986,-9.050082,1.163582
0.15680626,4.8302026,-0.022068914,0.16465004,-0.62511003,-0.90021986,-9.050082,1.163582
0.15601942,4.8301296,-0.03804788,0.16997637,-0.67198163,-0.80445176,-9.102755,1.0965444
0.15523572,4.8300576,-0.03804788,0.16997637,-0.67198163,-0.80445176,-9.102755,1.0965444
0.15440047,4.829949,-0.05402685,0.17210689,-0.7188533,-0.6799533,-9.169792,1.0055647
0.15356767,4.8298407,-0.05402685,0.17210689,-0.7188533,-0.6799533,-9.169792,1.0055647
0.15268746,4.8297133,-0.06894055,0.16784583,-0.76679015,-0.61770403,-9.169792,0.9720459
0.15180989,4.829586,-0.06894055,0.16784583,-0.76679015,-0.61770403,-9.169792,0.9720459
0.15086961,4.82945,-0.08705004,0.15932372,-0.82111865,-0.39264908,-9.188946,1.0103531
0.14993685,4.829315,-0.08705004,0.15932372,-0.82111865,-0.39264908,-9.188946,1.0103531
0.14893807,4.829159,-0.10515954,0.14867108,-0.87970823,-0.2633622,-9.227253,0.9816227
0.14794226,4.829004,-0.10515954,0.14867108,-0.87970823,-0.2633622,-9.227253,0.9816227
0.14688335,4.82884,-0.121138506,0.13695318,-0.9414936,-0.12449849,-9.26556,1.0295067
0.14582759,4.828677,-0.121138506,0.13695318,-0.9414936,-0.12449849,-9.26556,1.0295067
0.14476535,4.828513,-0.121138506,0.13695318,-0.9414936,-0.12449849,-9.26556,1.0295067
0.14364249,4.828344,-0.1360522,0.1209742,-1.00754,0.0047884034,-9.217676,1.0773908
0.14251275,4.8281736,-0.1360522,0.1209742,-1.00754,0.0047884034,-9.217676,1.0773908
0.14131767,4.8279943,-0.15096591,0.10392997,-1.0789126,0.16759412,-9.241618,1.115698
0.14011411,4.8278146,-0.15096591,0.10392997,-1.0789126,0.16759412,-9.241618,1.115698
0.13884175,4.827624,-0.16481435,0.086885735,-1.1524159,0.272939,-9.270349,1.1252748
0.137563,4.827432,-0.16481435,0.086885735,-1.1524159,0.272939,-9.270349,1.1252748
0.13621849,4.8272343,-0.17759752,0.07090677,-1.2280496,0.4309563,-9.294291,1.1731589
0.13486446,4.827036,-0.17759752,0.07090677,-1.2280496,0.4309563,-9.294291,1.1731589
0.13343553,4.8268223,-0.18825017,0.054927804,-1.3090098,0.5650316,-9.409213,1.1061212
0.1319979,4.826608,-0.18825017,0.054927804,-1.3090098,0.5650316,-9.409213,1.1061212
0.13048257,4.8263893,-0.19996808,0.038948838,-1.3921005,0.6655881,-9.504981,1.1875241
0.12896572,4.826171,-0.19996808,0.038948838,-1.3921005,0.6655881,-9.504981,1.1875241
0.12736718,4.825938,-0.20955546,0.021904606,-1.4762563,0.842759,-9.643845,1.115698
0.125759,4.8257055,-0.20955546,0.021904606,-1.4762563,0.842759,-9.643845,1.115698
0.124078244,4.825462,-0.21701232,0.0069909045,-1.5572164,1.0199299,-9.773131,1.043872
0.122387245,4.8252172,-0.21701232,0.0069909045,-1.5572164,1.0199299,-9.773131,1.043872
0.1206204,4.8249598,-0.22127336,-0.007922798,-1.6371112,1.2976574,-9.935937,0.8619126
0.11885352,4.824703,-0.22127336,-0.007922798,-1.6371112,1.2976574,-9.935937,0.8619126
0.117006816,4.824445,-0.2234039,-0.02496703,-1.7212671,1.733402,-10.108319,0.81402856
0.11514891,4.8241854,-0.2234039,-0.02496703,-1.7212671,1.733402,-10.108319,0.81402856
0.113212496,4.823927,-0.22553442,-0.044141788,-1.809684,2.2170308,-10.242394,0.7613561
0.111258544,4.823666,-0.22553442,-0.044141788,-1.809684,2.2170308,-10.242394,0.7613561
0.109218165,4.823411,-0.2265997,-0.060120758,-1.9066231,2.8634653,-10.271125,0.81881696
0.1072084,4.8231606,-0.2265997,-0.060120758,-1.9066231,2.8634653,-10.271125,0.81881696
0.10506484,4.8229094,-0.23086074,-0.07290393,-2.0163455,3.4811692,-10.228029,0.9528923
0.10288038,4.822653,-0.23086074,-0.07290393,-2.0163455,3.4811692,-10.228029,0.9528923
0.10060822,4.822405,-0.23618707,-0.079295516,-2.147373,3.8738184,-10.151415,1.2449849
0.09832234,4.822156,-0.23618707,-0.079295516,-2.147373,3.8738184,-10.151415,1.2449849
0.09589782,4.82191,-0.2383176,-0.079295516,-2.2986405,4.4340615,-10.079589,1.484405
0.09346358,4.821664,-0.2383176,-0.079295516,-2.2986405,4.4340615,-10.079589,1.484405
0.09088387,4.8214235,-0.23938286,-0.07290393,-2.4690828,4.697424,-9.9550905,1.7717092
0.08828337,4.821182,-0.23938286,-0.07290393,-2.4690828,4.697424,-9.9550905,1.7717092
0.085513316,4.820958,-0.2351218,-0.062251285,-2.6576345,4.5441947,-9.945514,2.504335
0.082746,4.8207364,-0.2351218,-0.062251285,-2.6576345,4.5441947,-9.945514,2.504335
0.07978377,4.8205237,-0.22233863,-0.052663904,-2.860035,4.7070007,-9.672575,2.408567
0.076794825,4.8203096,-0.22233863,-0.052663904,-2.860035,4.7070007,-9.672575,2.408567
0.073480636,4.8201017,-0.20209861,-0.04627232,-3.0805445,5.3678,-9.232041,2.1021092
0.068241544,4.819818,-0.18398911,-0.03988073,-3.320229,5.650316,-9.112331,2.0350714
0.068241544,4.819818,-0.18398911,-0.03988073,-3.320229,5.650316,-9.112331,2.0350714
0.06175942,4.81948,-0.1722712,-0.029228088,-3.5780232,5.889736,-8.834604,1.7860745
0.06175942,4.81948,-0.1722712,-0.029228088,-3.5780232,5.889736,-8.834604,1.7860745
0.054839864,4.819167,-0.16801015,-0.012183856,-3.854992,6.1770406,-8.537724,1.5466543
0.054839864,4.819167,-0.16801015,-0.012183856,-3.854992,6.1770406,-8.537724,1.5466543
0.054839864,4.819167,-0.16801015,-0.012183856,-3.854992,6.1770406,-8.537724,1.5466543
0.040933166,4.81855,-0.17866279,0.013382491,-4.1511354,6.3542113,-8.221688,1.1971009
0.038614366,4.8184404,-0.20742492,0.04853622,-4.463258,6.540959,-7.9248075,0.93373865
0.038614366,4.8184404,-0.20742492,0.04853622,-4.463258,6.540959,-7.9248075,0.93373865
0.026805304,4.8178415,-0.2564271,0.09647312,-4.7956204,6.655881,-7.7332716,0.6895301
0.024369117,4.817705,-0.2564271,0.09647312,-4.7956204,6.655881,-7.7332716,0.6895301
0.024369117,4.817705,-0.2564271,0.09647312,-4.7956204,6.655881,-7.7332716,0.6895301
0.013955613,4.8170204,-0.3256693,0.1571932,-5.149288,6.703765,-7.6470804,0.5315128
0.013955613,4.8170204,-0.3256693,0.1571932,-5.149288,6.703765,-7.6470804,0.5315128
0.0049814805,4.8164425,-0.3256693,0.1571932,-5.149288,6.703765,-7.6470804,0.5315128
0.0049814805,4.8164425,-0.3256693,0.1571932,-5.149288,6.703765,-7.6470804,0.5315128
0.0049814805,4.8164425,-0.3256693,0.1571932,-5.149288,6.703765,-7.6470804,0.5315128
6.2679434,4.8148355,-0.6399223,0.38729033,-6.313622,6.157887,-8.226477,0.009576807
6.2679434,4.8148355,-0.6399223,0.38729033,-6.313622,6.157887,-8.226477,0.009576807
6.25672,4.813688,-0.7656235,0.46718514,-6.72801,5.985504,-8.6574335,-0.18195933
6.2517138,4.813129,-0.7656235,0.46718514,-6.72801,5.985504,-8.6574335,-0.18195933
6.2517138,4.813129,-0.8955858,0.5385579,-7.151985,5.6646814,-9.294291,-0.41180268
6.234236,4.810993,-0.8955858,0.5385579,-7.151985,5.6646814,-9.294291,-0.41180268
6.234236,4.810993,-0.8955858,0.5385579,-7.151985,5.6646814,-9.294291,-0.41180268
6.218351,4.8089185,-1.025548,0.59608215,-7.581287,5.3342814,-10.031705,-0.6799533
6.218351,4.8089185,-1.025548,0.59608215,-7.581287,5.3342814,-10.031705,-0.6799533
6.2056065,4.8072586,-1.1501839,0.6301706,-8.010589,5.1810527,-10.788273,-0.8571242
6.2056065,4.8072586,-1.1501839,0.6301706,-8.010589,5.1810527,-10.788273,-0.8571242
6.2056065,4.8072586,-1.1501839,0.6301706,-8.010589,5.1810527,-10.788273,-0.8571242
6.178648,4.803582,-1.3728242,0.61206114,-8.88091,5.2049947,-12.411542,-1.2737153
6.17313,4.8027825,-1.3728242,0.61206114,-8.88091,5.2049947,-12.411542,-1.2737153
6.164229,4.8015018,-1.3728242,0.61206114,-8.88091,5.2049947,-12.411542,-1.2737153
6.1548896,4.8001266,-1.4740244,0.5545368,-9.3283205,5.1810527,-13.192051,-1.3024458
6.142423,4.7982626,-1.5688329,0.46825042,-9.784254,5.023035,-13.8241205,-1.1683705
6.135293,4.7972035,-1.5688329,0.46825042,-9.784254,5.023035,-13.8241205,-1.1683705
6.125495,4.7957563,-1.5688329,0.46825042,-9.784254,5.023035,-13.8241205,-1.1683705
6.115235,4.7942257,-1.6508583,0.35533237,-10.239121,4.721366,-14.350845,-0.7757214
6.104966,4.7927012,-1.6508583,0.35533237,-10.239121,4.721366,-14.350845,-0.7757214
6.094251,4.791093,-1.7169046,0.21897852,-10.69399,4.2904096,-14.978126,-0.7182605
6.08355,4.7894926,-1.7169046,0.21897852,-10.69399,4.2904096,-14.978126,-0.7182605
6.072403,4.787811,-1.7680373,0.05918886,-11.140335,3.6631286,-15.461755,-0.4261679
6.061276,4.7861357,-1.7680373,0.05918886,-11.140335,3.6631286,-15.461755,-0.4261679
6.049763,4.784397,-1.8031911,-0.12723242,-11.567507,3.083732,-15.969325,-0.31603462
6.0382614,4.782664,-1.8031911,-0.12723242,-11.567507,3.083732,-15.969325,-0.31603462
6.0263596,4.7808895,-1.8223659,-0.33922005,-11.966981,2.1499932,-16.419436,-0.05746084
6.014546,4.779133,-1.8223659,-0.33922005,-11.966981,2.1499932,-16.419436,-0.05746084
6.002349,4.777329,-1.8255616,-0.5746435,-12.32704,1.5227122,-16.682798,0.07182605
5.990142,4.775523,-1.8255616,-0.5746435,-12.32704,1.5227122,-16.682798,0.07182605
5.977599,4.7736497,-1.8159742,-0.8292417,-12.64662,1.1109096,-16.668432,-0.16759412
5.965059,4.771771,-1.8159742,-0.8292417,-12.64662,1.1109096,-16.668432,-0.16759412
5.952228,4.7698164,-1.79893,-1.1019495,-12.922523,0.79966336,-16.859968,-0.24420857
5.9393992,4.767851,-1.79893,-1.1019495,-12.922523,0.79966336,-16.859968,-0.24420857
5.926325,4.7658076,-1.7733637,-1.3821139,-13.156881,0.50278234,-16.931795,-0.038307227
5.9132648,4.7637477,-1.7733637,-1.3821139,-13.156881,0.50278234,-16.931795,-0.038307227
5.89999,4.7615924,-1.7414057,-1.6622785,-13.3464985,0.23942018,-16.759413,-0.038307227
5.886704,4.759409,-1.7414057,-1.6622785,-13.3464985,0.23942018,-16.759413,-0.038307227
5.87327,4.757123,-1.7051867,-1.9360515,-13.497766,0.02873042,-16.615759,-0.04309563
5.8598394,4.7548046,-1.7051867,-1.9360515,-13.497766,0.02873042,-16.615759,-0.04309563
5.846295,4.7523713,-1.6689677,-2.1927803,-13.604292,-0.10534488,-16.309301,-0.033518825
5.8327675,4.749899,-1.6689677,-2.1927803,-13.604292,-0.10534488,-16.309301,-0.033518825
5.81915,4.7472987,-1.6327487,-2.426073,-13.662882,-0.31124622,-16.04594,-0.1340753
5.8055644,4.7446537,-1.6327487,-2.426073,-13.662882,-0.31124622,-16.04594,-0.1340753
5.7919335,4.7418737,-1.6007909,-2.6295385,-13.679926,-0.46926352,-15.705963,-0.24420857
5.778322,4.7390385,-1.6007909,-2.6295385,-13.679926,-0.46926352,-15.705963,-0.24420857
5.7647395,4.736078,-1.5709634,-2.7999809,-13.653295,-0.44532153,-15.35641,-0.12928689
5.751164,4.7330503,-1.5709634,-2.7999809,-13.653295,-0.44532153,-15.35641,-0.12928689
5.7376537,4.729899,-1.5432665,-2.9395306,-13.591509,-0.6655881,-14.968549,-0.019153614
5.7241526,4.726672,-1.5432665,-2.9395306,-13.591509,-0.6655881,-14.968549,-0.019153614
5.710756,4.7233205,-1.5145044,-3.050318,-13.49457,-0.521936,-14.293385,-0.25378537
5.697369,4.719885,-1.5145044,-3.050318,-13.49457,-0.521936,-14.293385,-0.25378537
5.684226,4.716357,-1.4900033,-3.1334088,-13.365673,-0.62249243,-13.661315,-0.31124622
5.670988,4.712711,-1.4900033,-3.1334088,-13.365673,-0.62249243,-13.661315,-0.31124622
5.6579046,4.7089453,-1.4697633,-3.1898677,-13.209079,-0.59376204,-12.914324,-0.2825158
5.644846,4.705085,-1.4697633,-3.1898677,-13.209079,-0.59376204,-12.914324,-0.2825158
5.6320186,4.7011294,-1.4505886,-3.2260866,-13.027984,-0.6799533,-12.41633,-0.06703765
5.6191783,4.6970596,-1.4505886,-3.2260866,-13.027984,-0.6799533,-12.41633,-0.06703765
5.6065416,4.692884,-1.4271528,-3.243131,-12.825583,-0.9911995,-11.353305,-0.22505496
5.593907,4.688589,-1.4271528,-3.243131,-12.825583,-0.9911995,-11.353305,-0.22505496
5.5815215,4.684202,-1.3994559,-3.251653,-12.604009,-1.0534488,-10.702082,-0.29209262
5.5691266,4.6796846,-1.3994559,-3.251653,-12.604009,-1.0534488,-10.702082,-0.29209262
5.557045,4.6751037,-1.3685632,-3.2569795,-12.36752,-0.32561144,-10.022128,0.02873042
5.544932,4.6703744,-1.3685632,-3.2569795,-12.36752,-0.32561144,-10.022128,0.02873042
5.5330405,4.665664,-1.3184958,-3.25911,-12.136357,4.098873,-9.064447,2.3989902
5.521157,4.6608114,-1.3184958,-3.25911,-12.136357,4.098873,-9.064447,2.3989902
5.509344,4.6559286,-1.2396662,-3.2452614,-11.946741,8.379706,-7.608773,3.3039982
5.497577,4.6509104,-1.2396662,-3.2452614,-11.946741,8.379706,-7.608773,3.3039982
5.486004,4.645929,-1.1395314,-3.1941288,-11.821039,6.3206925,-6.090849,0.9528923
5.474411,4.6407747,-1.1395314,-3.1941288,-11.821039,6.3206925,-6.090849,0.9528923
5.4630694,4.635423,-1.045788,-3.1078424,-11.714513,3.4524388,-5.434838,-1.4030021
5.4517527,4.6299105,-1.045788,-3.1078424,-11.714513,3.4524388,-5.434838,-1.4030021
5.4405174,4.6243415,-0.97974163,-3.0268822,-11.589877,2.992752,-4.582502,-2.2218192
5.42933,4.6186104,-0.97974163,-3.0268822,-11.589877,2.992752,-4.582502,-2.2218192
5.418269,4.612806,-0.9477837,-2.965097,-11.453524,3.8546648,-3.8977604,-2.327164
5.407192,4.606793,-0.9477837,-2.965097,-11.453524,3.8546648,-3.8977604,-2.327164
5.3962693,4.600723,-0.9435227,-2.8915937,-11.320365,4.7548847,-3.394978,-2.15957
5.3853216,4.5944223,-0.9435227,-2.8915937,-11.320365,4.7548847,-3.394978,-2.15957
5.374476,4.5880666,-0.95311004,-2.7893283,-11.203186,5.60722,-3.1890767,-2.0494366
5.363618,4.5814714,-0.95311004,-2.7893283,-11.203186,5.60722,-3.1890767,-2.0494366
5.3520207,4.5743995,-0.96695846,-2.6572354,-11.114769,6.8569937,-2.882619,-1.5466543
5.341958,4.5680346,-0.96695846,-2.6572354,-11.114769,6.8569937,-2.882619,-1.5466543
5.331441,4.561405,-0.9765459,-2.507033,-11.065767,8.154651,-2.408567,-1.2162545
5.3208127,4.554456,-0.9765459,-2.507033,-11.065767,8.154651,-2.408567,-1.2162545
5.3101463,4.547471,-0.97974163,-2.3483088,-11.063637,8.379706,-2.135628,-1.13964
5.299467,4.5402055,-0.97974163,-2.3483088,-11.063637,8.379706,-2.135628,-1.13964
5.2887945,4.532899,-0.9786764,-2.1906497,-11.097725,7.560889,-2.0254946,-1.316811
5.278142,4.525312,-0.9786764,-2.1906497,-11.097725,7.560889,-2.0254946,-1.316811
5.267494,4.517595,-0.9754806,-2.0479043,-11.145661,6.315904,-2.2122424,-1.6567876
5.256903,4.509595,-0.9754806,-2.0479043,-11.145661,6.315904,-2.2122424,-1.6567876
5.246339,4.501419,-0.97335005,-1.933921,-11.184011,5.2528787,-2.4708161,-1.8435353
5.235784,4.492893,-0.97335005,-1.933921,-11.184011,5.2528787,-2.4708161,-1.8435353
5.225295,4.484178,-0.97441536,-1.8497651,-11.19999,4.582502,-2.882619,-1.8818425
5.2148714,4.4751267,-0.97441536,-1.8497651,-11.19999,4.582502,-2.882619,-1.8818425
5.204566,4.465876,-0.9776111,-1.7922407,-11.17975,4.209007,-3.2848446,-1.8435353
5.194287,4.456221,-0.9776111,-1.7922407,-11.17975,4.209007,-3.2848446,-1.8435353
5.1841207,4.446295,-0.9786764,-1.7496302,-11.115834,3.9552212,-3.4237084,-1.7381904
5.1739645,4.435901,-0.9786764,-1.7496302,-11.115834,3.9552212,-3.4237084,-1.7381904
5.16401,4.4252644,-0.9754806,-1.7198027,-11.015699,3.8115692,-3.6535518,-1.5897499
5.1540604,4.414104,-0.9754806,-1.7198027,-11.015699,3.8115692,-3.6535518,-1.5897499
5.1443305,4.4026694,-0.9637627,-1.7070196,-10.879346,3.9456444,-3.8977604,-1.2593501
5.1346874,4.3907547,-0.9637627,-1.7070196,-10.879346,3.9456444,-3.8977604,-1.2593501
5.125232,4.3784604,-0.9392616,-1.7112807,-10.712099,4.1946416,-4.1802764,-0.92895025
5.115832,4.3655863,-0.9392616,-1.7112807,-10.712099,4.1946416,-4.1802764,-0.92895025
5.1067057,4.3523436,-0.89878154,-1.7336512,-10.520351,4.5441947,-4.261679,-0.6655881
5.097623,4.3384385,-0.89878154,-1.7336512,-10.520351,4.5441947,-4.261679,-0.6655881
5.0888357,4.324093,-0.8423225,-1.7666744,-10.300907,4.7165775,-4.31914,-0.5410896
5.080138,4.3090835,-0.8423225,-1.7666744,-10.300907,4.7165775,-4.31914,-0.5410896
5.071752,4.293547,-0.7720151,-1.7986324,-10.059092,4.8219223,-4.3239284,-0.80924016
5.063448,4.277259,-0.7720151,-1.7986324,-10.059092,4.8219223,-4.3239284,-0.80924016
5.0555277,4.260575,-0.69212025,-1.8305902,-9.793841,4.927267,-4.31914,-0.89064306
5.0476675,4.2430186,-0.69212025,-1.8305902,-9.793841,4.927267,-4.31914,-0.89064306
5.0402117,4.225067,-0.6068991,-1.861483,-9.50622,5.0757074,-4.2664676,-1.0486604
5.032851,4.206248,-0.6068991,-1.861483,-9.50622,5.0757074,-4.2664676,-1.0486604
5.0259123,4.1871195,-0.51848215,-1.8934408,-9.193032,5.3007627,-4.285621,-0.92895025
5.0190873,4.1671104,-0.51848215,-1.8934408,-9.193032,5.3007627,-4.285621,-0.92895025
5.0127015,4.146768,-0.43219572,-1.9232683,-8.853212,5.449203,-4.012682,-1.1252748
5.006446,4.125549,-0.43219572,-1.9232683,-8.853212,5.449203,-4.012682,-1.1252748
5.000655,4.1042185,-0.3491051,-1.9456389,-8.488893,5.746084,-3.715801,-1.067814
4.994986,4.081953,-0.3491051,-1.9456389,-8.488893,5.746084,-3.715801,-1.067814
4.98977,4.059621,-0.27347133,-1.9584221,-8.09794,5.884948,-3.2848446,-1.043872
4.984724,4.036558,-0.27347133,-1.9584221,-8.09794,5.884948,-3.2848446,-1.043872
4.980118,4.013608,-0.20422913,-1.9594873,-7.67503,5.884948,-2.873042,-0.866701
4.9756784,3.9899573,-0.20422913,-1.9594873,-7.67503,5.884948,-2.873042,-0.866701
4.971685,3.9666948,-0.14244379,-1.9467041,-7.2212276,6.1004257,-2.4995465,-0.78529817
4.967847,3.9427595,-0.14244379,-1.9467041,-7.2212276,6.1004257,-2.4995465,-0.78529817
4.9644384,3.9195876,-0.08385425,-1.9190072,-6.736532,6.277597,-2.0685902,-0.56982
4.961178,3.8958132,-0.08385425,-1.9190072,-6.736532,6.277597,-2.0685902,-0.56982
4.958333,3.8730748,-0.0284605,-1.8753314,-6.22414,6.933608,-1.6711528,-0.62728083
4.9556155,3.849746,-0.0284605,-1.8753314,-6.22414,6.933608,-1.6711528,-0.62728083
4.9533234,3.8278127,0.02160693,-1.8114156,-5.688312,6.6367273,-1.5562311,-0.521936
4.9511423,3.8045876,0.06847856,-1.736847,-5.1428967,7.445967,-1.2066777,-0.5363012
4.949293,3.7832944,0.06847856,-1.736847,-5.1428967,7.445967,-1.2066777,-0.5363012
4.949293,3.7832944,0.06847856,-1.736847,-5.1428967,7.445967,-1.2066777,-0.5363012
4.946051,3.7410557,0.11321967,-1.6516259,-4.5974813,7.029376,-0.7086837,-1.2976574
4.9449215,3.7234259,0.11321967,-1.6516259,-4.5974813,7.029376,-0.7086837,-1.2976574
4.9439173,3.7050848,0.15050393,-1.5610784,-4.064849,9.23683,-1.3215994,-0.21068975
4.9431105,3.6869702,0.18885344,-1.4662699,-3.5524566,9.41879,-1.3694834,-0.49799395
4.9425907,3.674143,0.18885344,-1.4662699,-3.5524566,9.41879,-1.3694834,-0.49799395
4.941984,3.6576667,0.18885344,-1.4662699,-3.5524566,9.41879,-1.3694834,-0.49799395
4.941622,3.645008,0.23039876,-1.3416339,-3.0517824,9.572019,-1.4030021,-0.15322891
4.9412766,3.6312957,0.23039876,-1.3416339,-3.0517824,9.572019,-1.4030021,-0.15322891
4.9410686,3.6196105,0.26981354,-1.2095411,-2.574544,10.596737,-1.3120226,-0.19153613
4.9408956,3.6078753,0.26981354,-1.2095411,-2.574544,10.596737,-1.3120226,-0.19153613
4.940814,3.5981715,0.31029359,-1.0614693,-2.1228719,10.769119,-1.0534488,-0.7565677
4.940754,3.588418,0.31029359,-1.0614693,-2.1228719,10.769119,-1.0534488,-0.7565677
4.940755,3.5805955,0.34757784,-0.90913653,-1.7042229,11.425131,-1.0103531,-1.0486604
4.9407697,3.5728252,0.34757784,-0.90913653,-1.7042229,11.425131,-1.0103531,-1.0486604
4.9408174,3.5668795,0.3784705,-0.75147736,-1.3143361,11.856087,-1.0773908,-1.3934253
4.9408712,3.5610542,0.3784705,-0.75147736,-1.3143361,11.856087,-1.0773908,-1.3934253
4.940926,3.5566864,0.40190634,-0.58529615,-0.955342,12.215217,-1.0007763,-1.5753847
4.9409847,3.5524197,0.40190634,-0.58529615,-0.955342,12.215217,-1.0007763,-1.5753847
4.94102,3.5497482,0.42001584,-0.4148538,-0.62937105,12.516887,-0.9576807,-1.5658079
4.9410563,3.5470827,0.42001584,-0.4148538,-0.62937105,12.516887,-0.9576807,-1.5658079
4.9410486,3.5458856,0.43173376,-0.24015045,-0.3374886,12.62702,-0.9816227,-1.6089035
4.941041,3.5446885,0.43173376,-0.24015045,-0.3374886,12.62702,-0.9816227,-1.6089035
4.9409723,3.544811,0.44132113,-0.062251285,-0.08075987,12.808979,-0.9528923,-1.4173675
4.940903,3.5449338,0.44132113,-0.062251285,-0.08075987,12.808979,-0.9528923,-1.4173675
4.9407635,3.546288,0.44877797,0.11564788,0.148272,12.813767,-0.9720459,-1.067814
4.9406233,3.5476446,0.44877797,0.11564788,0.148272,12.813767,-0.9720459,-1.067814
4.940404,3.5501044,0.45836535,0.289286,0.34960696,12.741941,-0.9576807,-0.79008657
4.9401865,3.5525696,0.45836535,0.289286,0.34960696,12.741941,-0.9576807,-0.79008657
4.939886,3.5560026,0.47327906,0.45440197,0.5296367,12.53604,-0.7469909,-0.92895025
4.9395885,3.559442,0.47327906,0.45440197,0.5296367,12.53604,-0.7469909,-0.92895025
4.939212,3.5637546,0.4924538,0.61206114,0.6894263,12.449849,-0.48362875,-0.9576807
4.938838,3.5680778,0.4924538,0.61206114,0.6894263,12.449849,-0.48362875,-0.9576807
4.9383903,3.5731452,0.51162857,0.75800234,0.828976,12.224793,-0.20111294,-1.2018893
4.9379478,3.5782278,0.51162857,0.75800234,0.828976,12.224793,-0.20111294,-1.2018893
4.937439,3.583892,0.52760756,0.8964867,0.9514814,12.109872,0.12928689,-1.6519991
4.9369364,3.589593,0.52760756,0.8964867,0.9514814,12.109872,0.12928689,-1.6519991
4.9363756,3.5959105,0.53399915,1.0285795,1.0612036,12.095507,0.2633622,-1.7812861
4.935825,3.60226,0.53399915,1.0285795,1.0612036,12.095507,0.2633622,-1.7812861
4.935219,3.6092227,0.5350644,1.1574765,1.1602732,11.654974,0.4213795,-1.8770541
4.9346237,3.6162014,0.5350644,1.1574765,1.1602732,11.654974,0.4213795,-1.8770541
4.933982,3.6237977,0.52973807,1.2821125,1.2550818,11.161768,0.545878,-1.9153614
4.933352,3.6314313,0.52973807,1.2821125,1.2550818,11.161768,0.545878,-1.9153614
4.932683,3.639668,0.521216,1.3982263,1.3466945,10.773908,0.79008657,-1.9488802
4.93203,3.6479495,0.521216,1.3982263,1.3466945,10.773908,0.79008657,-1.9488802
4.9313498,3.6568458,0.5084328,1.5026222,1.4383073,10.290278,0.9959879,-1.9201498
4.930699,3.6656408,0.5084328,1.5026222,1.4383073,10.290278,0.9959879,-1.9201498
4.9300203,3.6752346,0.49351907,1.594235,1.5331157,9.883265,1.067814,-1.8243817
4.929348,3.6851053,0.49351907,1.594235,1.5331157,9.883265,1.067814,-1.8243817
4.928698,3.6952567,0.4754096,1.6730645,1.6247286,9.313444,1.1013328,-1.7621324
4.928079,3.7053523,0.4754096,1.6730645,1.6247286,9.313444,1.1013328,-1.7621324
4.927471,3.7161052,0.45836535,1.7348498,1.7131455,8.690952,1.2497733,-1.685518
4.926888,3.7269256,0.45836535,1.7348498,1.7131455,8.690952,1.2497733,-1.685518
4.92634,3.7382126,0.44132113,1.7742647,1.7951708,8.528147,1.3742718,-1.5753847
4.925819,3.749553,0.44132113,1.7742647,1.7951708,8.528147,1.3742718,-1.5753847
4.925354,3.7612846,0.42534214,1.7977004,1.8718699,8.226477,1.4556746,-1.5705963
4.9249177,3.7730508,0.42534214,1.7977004,1.8718699,8.226477,1.4556746,-1.5705963
4.924551,3.7851257,0.41042846,1.8104836,1.9432425,7.9104424,1.6089035,-1.6711528
4.9242144,3.7972386,0.41042846,1.8104836,1.9432425,7.9104424,1.6089035,-1.6711528
4.923959,3.8095834,0.3944495,1.8083531,2.0082238,7.5800424,1.6759412,-1.7717092
4.9237347,3.8219419,0.3944495,1.8083531,2.0082238,7.5800424,1.6759412,-1.7717092
4.9235926,3.8344715,0.37740526,1.7891784,2.065748,7.431602,1.6232687,-1.6998832
4.9234843,3.8470154,0.37740526,1.7891784,2.065748,7.431602,1.6232687,-1.6998832
4.923464,3.859642,0.35929576,1.7550899,2.1158154,7.2448545,1.541866,-1.5849615
4.923478,3.8722434,0.35929576,1.7550899,2.1158154,7.2448545,1.541866,-1.5849615
4.9235888,3.8848677,0.34438205,1.707153,2.1616218,7.1490865,1.4556746,-1.4748282
4.923733,3.8974628,0.34438205,1.707153,2.1616218,7.1490865,1.4556746,-1.4748282
4.9239845,3.9099424,0.33159888,1.6453676,2.1999714,7.177817,1.5227122,-1.5562311
4.924269,3.9223905,0.33159888,1.6453676,2.1999714,7.177817,1.5227122,-1.5562311
4.9246707,3.9346287,0.32094625,1.5750601,2.2319293,7.4124484,1.5227122,-1.8818425
4.9251046,3.9468188,0.32094625,1.5750601,2.2319293,7.4124484,1.5227122,-1.8818425
4.9256396,3.9587548,0.30496728,1.501557,2.2542999,7.4842744,1.4173675,-1.9680338
4.9262066,3.9706292,0.30496728,1.501557,2.2542999,7.4842744,1.4173675,-1.9680338
4.926857,3.9822097,0.2825967,1.4280537,2.2660177,7.6614456,1.3263878,-1.8914193
4.9275355,3.9937177,0.2825967,1.4280537,2.2660177,7.6614456,1.3263878,-1.8914193
4.9282866,4.0048895,0.25703037,1.3545505,2.267083,7.747637,0.89064306,-1.6759412
4.929064,4.015981,0.25703037,1.3545505,2.267083,7.747637,0.89064306,-1.6759412
4.929918,4.0266786,0.23146403,1.2789167,2.2638872,7.4124484,0.9624691,-1.7286136
4.9307985,4.0372934,0.23146403,1.2789167,2.2638872,7.4124484,0.9624691,-1.7286136
4.93174,4.0474944,0.20589767,1.1990218,2.2542999,7.1969705,0.63206923,-1.5275006
4.932705,4.057599,0.20589767,1.1990218,2.2542999,7.1969705,0.63206923,-1.5275006
4.933734,4.0672536,0.1813966,1.1106049,2.2415166,7.374141,0.24420857,-1.436521
4.9347863,4.076828,0.1813966,1.1106049,2.2415166,7.374141,0.24420857,-1.436521
4.935912,4.0859156,0.15902604,1.0211227,2.2319293,7.2113357,0.07182605,-1.4796166
4.9370575,4.0949116,0.15902604,1.0211227,2.2319293,7.2113357,0.07182605,-1.4796166
4.938264,4.1034584,0.13878602,0.93164045,2.223407,6.95755,-0.320823,-1.2785037
4.9394894,4.11193,0.13878602,0.93164045,2.223407,6.95755,-0.320823,-1.2785037
4.940773,4.1199913,0.12387232,0.8368319,2.2202113,6.789956,-0.5363012,-1.0869676
4.94206,4.1278973,0.12387232,0.8368319,2.2202113,6.789956,-0.5363012,-1.0869676
4.9434505,4.1353498,0.11215441,0.73989284,2.2212765,6.5696893,-0.82360536,-1.0869676
4.944854,4.1427197,0.11215441,0.73989284,2.2212765,6.5696893,-0.82360536,-1.0869676
4.9462833,4.1497455,0.106828086,0.63869274,2.2276683,6.603208,-1.0965444,-0.866701
4.947725,4.156675,0.106828086,0.63869274,2.2276683,6.603208,-1.0965444,-0.866701
4.94932,4.163987,0.10789335,0.53962314,2.239386,6.670246,-1.3694834,-0.80445176
4.9508944,4.1711226,0.10789335,0.53962314,2.239386,6.670246,-1.3694834,-0.80445176
4.9527016,4.1779423,0.120676525,0.4448146,2.2564304,6.555324,-1.6328455,-0.7613561
4.9545183,4.1846604,0.120676525,0.4448146,2.2564304,6.555324,-1.6328455,-0.7613561
4.9564085,4.1909895,0.13878602,0.34787554,2.2724092,6.612785,-1.8962077,-0.7134721
4.9583087,4.1972218,0.13878602,0.34787554,2.2724092,6.612785,-1.8962077,-0.7134721
4.96025,4.20313,0.16435237,0.25200173,2.287323,6.895301,-2.0207062,-0.60812724
4.9621983,4.208947,0.16435237,0.25200173,2.287323,6.895301,-2.0207062,-0.60812724
4.9641848,4.214429,0.19204924,0.16038899,2.3001063,7.1347213,-2.0973208,-0.49320555
4.966177,4.219826,0.19204924,0.16038899,2.3001063,7.1347213,-2.0973208,-0.49320555
4.9681993,4.2248883,0.21974611,0.07516783,2.3064978,7.417237,-2.1787236,-0.34476504
4.9702263,4.2298717,0.21974611,0.07516783,2.3064978,7.417237,-2.1787236,-0.34476504
4.972292,4.234537,0.2442472,-0.0025964756,2.3043673,7.560889,-2.2984335,-0.2681506
4.974361,4.2391295,0.2442472,-0.0025964756,2.3043673,7.560889,-2.2984335,-0.2681506
4.9764557,4.243413,0.26342195,-0.07609972,2.2979758,7.680599,-2.3415294,-0.18195933
4.978553,4.24763,0.26342195,-0.07609972,2.2979758,7.680599,-2.3415294,-0.18195933
4.9806833,4.251574,0.2804662,-0.14214613,2.2905188,7.704541,-2.4420857,-0.17717093
4.9828157,4.255457,0.2804662,-0.14214613,2.2905188,7.704541,-2.4420857,-0.17717093
4.984986,4.2590914,0.2921841,-0.2028662,2.2841272,7.6710224,-2.528277,-0.25378537
4.987158,4.2626696,0.2921841,-0.2028662,2.2841272,7.6710224,-2.528277,-0.25378537
4.989371,4.2660227,0.30283675,-0.25719467,2.2809315,7.541735,-2.7868507,-0.21068975
4.991586,4.2693253,0.30283675,-0.25719467,2.2809315,7.541735,-2.7868507,-0.21068975
4.993845,4.2724195,0.31242412,-0.30939263,2.283062,7.489063,-2.8682537,-0.33997664
4.9960623,4.2754097,0.31242412,-0.30939263,2.283062,7.489063,-2.8682537,-0.33997664
4.9984374,4.2783303,0.32307678,-0.35732955,2.295845,7.2544312,-3.0550013,-0.47405192
5.00076,4.281142,0.32307678,-0.35732955,2.295845,7.2544312,-3.0550013,-0.47405192
5.003138,4.2837887,0.3369252,-0.40526643,2.3182156,7.0485296,-3.1555579,-0.5363012
5.0055094,4.2863874,0.3369252,-0.40526643,2.3182156,7.0485296,-3.1555579,-0.5363012
5.00793,4.2888613,0.35290417,-0.4542686,2.3523042,7.038953,-3.3039982,-0.48841715
5.010359,4.2913065,0.35290417,-0.4542686,2.3523042,7.038953,-3.3039982,-0.48841715
5.012849,4.293636,0.36994842,-0.50433606,2.3970451,6.9623384,-3.3758245,-0.48362875
5.0153456,4.2959366,0.36994842,-0.50433606,2.3970451,6.9623384,-3.3758245,-0.48362875
5.0179086,4.2981505,0.3912537,-0.55333817,2.4545696,6.919243,-3.442862,-0.45010993
5.0204883,4.3003473,0.3912537,-0.55333817,2.4545696,6.919243,-3.442862,-0.45010993
5.023129,4.302462,0.41575477,-0.6012751,2.5216813,7.029376,-3.5098996,-0.46926352
5.025773,4.304549,0.41575477,-0.6012751,2.5216813,7.029376,-3.5098996,-0.46926352
5.028507,4.30661,0.4423864,-0.6460162,2.5983803,7.029376,-3.5338416,-0.40701428
5.0312405,4.308641,0.4423864,-0.6460162,2.5983803,7.029376,-3.5338416,-0.40701428
5.034074,4.3106313,0.469018,-0.68862677,2.6814709,7.177817,-3.6391866,-0.5267244
5.0369105,4.312595,0.469018,-0.68862677,2.6814709,7.177817,-3.6391866,-0.5267244
5.0398393,4.3145547,0.4956496,-0.7280416,2.7677572,7.8146744,-4.999093,-0.12928689
5.04276,4.31648,0.4956496,-0.7280416,2.7677572,7.8146744,-4.999093,-0.12928689
5.045829,4.318227,0.5350644,-0.76532584,2.8583047,6.6079965,-3.2034419,-1.1444284
5.0489063,4.319951,0.5350644,-0.76532584,2.8583047,6.6079965,-3.2034419,-1.1444284
5.0520563,4.321837,0.5734139,-0.80580586,2.9509828,8.293514,-3.5529952,-0.9576807
5.0551972,4.3236923,0.5734139,-0.80580586,2.9509828,8.293514,-3.5529952,-0.9576807
5.058525,4.3257065,0.59258866,-0.82178485,3.0553787,8.51857,-3.6008794,-0.8619126
5.061846,4.32769,0.59258866,-0.82178485,3.0553787,8.51857,-3.6008794,-0.8619126
5.065055,4.329591,0.6032413,-0.81539327,3.1725578,7.6231384,-4.2664676,-0.78050977
5.068939,4.331855,0.6032413,-0.81539327,3.1725578,7.6231384,-4.2664676,-0.78050977
5.071916,4.3336067,0.618155,-0.82178485,3.2918675,7.2304893,-4.7548847,-0.62249243
5.075389,4.3356194,0.618155,-0.82178485,3.2918675,7.2304893,-4.7548847,-0.62249243
5.0789485,4.3376412,0.64372134,-0.84628594,3.4101117,7.2592196,-5.00867,-0.7422025
5.0825124,4.3396325,0.64372134,-0.84628594,3.4101117,7.2592196,-5.00867,-0.7422025
5.0863557,4.3417077,0.67994034,-0.8803744,3.5379436,7.565677,-4.9559975,-1.0486604
5.0863557,4.3417077,0.67994034,-0.8803744,3.5379436,7.565677,-4.9559975,-1.0486604
5.0863557,4.3417077,0.67994034,-0.8803744,3.5379436,7.565677,-4.9559975,-1.0486604
5.10025,4.348933,0.7587699,-0.94322497,3.8117166,7.9870567,-5.410896,-1.2114661
5.1018887,4.349764,0.7587699,-0.94322497,3.8117166,7.9870567,-5.410896,-1.2114661
5.107746,4.3526874,0.7587699,-0.94322497,3.8117166,7.9870567,-5.410896,-1.2114661
5.11071,4.3541684,0.803511,-0.9719871,3.9459398,8.441956,-5.602432,-1.2018893
5.1147165,4.356164,0.8503827,-1.0050104,4.071641,9.050082,-5.827487,-1.2354081
5.11827,4.357908,0.8503827,-1.0050104,4.071641,9.050082,-5.827487,-1.2354081
5.122321,4.3598685,0.8503827,-1.0050104,4.071641,9.050082,-5.827487,-1.2354081
5.1272087,4.3622236,0.9025806,-1.0390987,4.181363,9.56723,-6.033388,-1.2066777
5.1314087,4.3642154,0.9025806,-1.0390987,4.181363,9.56723,-6.033388,-1.2066777
5.135941,4.3663807,0.9590396,-1.0753177,4.2751064,10.477027,-6.0477533,-1.115698
5.140199,4.3683863,0.9590396,-1.0753177,4.2751064,10.477027,-6.0477533,-1.115698
5.14474,4.3705235,1.0133681,-1.1094062,4.34861,11.147403,-6.1243677,-1.067814
5.1493015,4.37264,1.0133681,-1.1094062,4.34861,11.147403,-6.1243677,-1.067814
5.1538744,4.3747616,1.0676966,-1.1349726,4.405069,11.63582,-6.2871737,-1.0055647
5.1584897,4.3768735,1.0676966,-1.1349726,4.405069,11.63582,-6.2871737,-1.0055647
5.1631145,4.378988,1.1230904,-1.1541474,4.4434185,11.870452,-6.445191,-0.9624691
5.1677322,4.3810706,1.1230904,-1.1541474,4.4434185,11.870452,-6.445191,-0.9624691
5.1724005,4.3831773,1.1795493,-1.1701263,4.4732456,11.990162,-6.4643445,-1.0726024
5.177122,4.385281,1.1795493,-1.1701263,4.4732456,11.990162,-6.4643445,-1.0726024
5.1817055,4.387354,1.2392042,-1.1775832,4.4998775,12.20564,-6.339846,-1.2114661
5.1863685,4.389437,1.2392042,-1.1775832,4.4998775,12.20564,-6.339846,-1.2114661
5.190977,4.3915286,1.2967285,-1.176518,4.5286393,12.454638,-5.865794,-1.4317327
5.1955824,4.393586,1.2967285,-1.176518,4.5286393,12.454638,-5.865794,-1.4317327
5.200164,4.39562,1.3467959,-1.1594737,4.5648584,12.516887,-5.511452,-1.5993267
5.204747,4.397623,1.3467959,-1.1594737,4.5648584,12.516887,-5.511452,-1.5993267
5.209366,4.399737,1.3872759,-1.1253852,4.6138606,12.210428,-5.602432,-1.6328455
5.213977,4.4018135,1.3872759,-1.1253852,4.6138606,12.210428,-5.602432,-1.6328455
5.2186213,4.40392,1.4192339,-1.0774484,4.6745806,11.932701,-5.33907,-1.8148049
5.223266,4.4059997,1.4192339,-1.0774484,4.6745806,11.932701,-5.33907,-1.8148049
5.2279634,4.408213,1.4490613,-1.0252503,4.7448883,11.956643,-5.3486466,-1.8004397
5.2326565,4.4103956,1.4490613,-1.0252503,4.7448883,11.956643,-5.3486466,-1.8004397
5.237425,4.412678,1.4778235,-0.96559554,4.8279786,11.856087,-5.233725,-1.9632454
5.242189,4.414931,1.4778235,-0.96559554,4.8279786,11.856087,-5.233725,-1.9632454
5.2470164,4.417332,1.5033898,-0.8952881,4.918526,11.640609,-5.377377,-1.9680338
5.2518544,4.4197087,1.5033898,-0.8952881,4.918526,11.640609,-5.377377,-1.9680338
5.2567554,4.4222503,1.5278909,-0.8228501,5.0112042,11.544841,-5.626374,-1.9249382
5.2616825,4.4247723,1.5278909,-0.8228501,5.0112042,11.544841,-5.626374,-1.9249382
5.2666483,4.427415,1.5545225,-0.7536079,5.110274,11.267113,-6.0285997,-1.9297266
5.2716203,4.430027,1.5545225,-0.7536079,5.110274,11.267113,-6.0285997,-1.9297266
5.2766905,4.4327364,1.5843499,-0.69288784,5.2061477,11.329363,-6.1866174,-2.0398598
5.28176,4.435415,1.5843499,-0.69288784,5.2061477,11.329363,-6.1866174,-2.0398598
5.2869134,4.438197,1.6152426,-0.6396246,5.3009562,11.492168,-6.2584434,-2.1260512
5.2919493,4.440885,1.6152426,-0.6396246,5.3009562,11.492168,-6.2584434,-2.1260512
5.2971797,4.443768,1.6440047,-0.58529615,5.3989606,11.310209,-6.694188,-2.006341
5.302537,4.446685,1.6440047,-0.58529615,5.3989606,11.310209,-6.694188,-2.006341
5.3081117,4.4498215,1.673832,-0.5299024,5.4990954,10.721235,-7.1634517,-1.8722657
5.313664,4.452914,1.673832,-0.5299024,5.4990954,10.721235,-7.1634517,-1.8722657
5.319343,4.456113,1.7111163,-0.48409602,5.6077523,10.251971,-7.465121,-1.7621324
5.3250413,4.45928,1.7111163,-0.48409602,5.6077523,10.251971,-7.465121,-1.7621324
5.3308,4.4625673,1.7601185,-0.44574648,5.7259965,10.477027,-7.723695,-1.6903064
5.336563,4.4658203,1.7601185,-0.44574648,5.7259965,10.477027,-7.723695,-1.6903064
5.342474,4.469143,1.8165776,-0.40633172,5.861285,9.907207,-7.920019,-1.661576
5.348388,4.4724226,1.8165776,-0.40633172,5.861285,9.907207,-7.920019,-1.661576
5.3544364,4.4758368,1.8826239,-0.3615906,6.009357,9.993398,-8.082825,-1.6472107
5.360481,4.4792023,1.8826239,-0.3615906,6.009357,9.993398,-8.082825,-1.6472107
5.366689,4.4826813,1.9539967,-0.31152317,6.1691465,9.3182335,-8.360553,-1.6280571
5.3729024,4.486112,1.9539967,-0.31152317,6.1691465,9.3182335,-8.360553,-1.6280571
5.3792744,4.489683,2.0328262,-0.25719467,6.339589,8.944737,-8.576031,-1.6136919
5.3856516,4.493205,2.0328262,-0.25719467,6.339589,8.944737,-8.576031,-1.6136919
5.3921933,4.4969053,2.120178,-0.19860514,6.5228143,8.738836,-8.772355,-1.436521
5.3988576,4.5006204,2.120178,-0.19860514,6.5228143,8.738836,-8.772355,-1.436521
5.405468,4.504377,2.2160518,-0.1368198,6.715627,8.437167,-9.093178,-1.3215994
5.412191,4.5081425,2.2160518,-0.1368198,6.715627,8.437167,-9.093178,-1.3215994
5.4191146,4.5120945,2.3268392,-0.07396919,6.9148316,8.073248,-9.232041,-1.2354081
5.426029,4.5159845,2.3268392,-0.07396919,6.9148316,8.073248,-9.232041,-1.2354081
5.433139,4.520067,2.4461489,-0.010053327,7.1161666,7.881712,-9.332599,-1.1204864
5.440262,4.524098,2.4461489,-0.010053327,7.1161666,7.881712,-9.332599,-1.1204864
5.447555,4.5283127,2.57185,0.057058334,7.315371,7.5800424,-9.452309,-0.94331545
5.454861,4.532474,2.57185,0.057058334,7.315371,7.5800424,-9.452309,-0.94331545
5.462346,4.536825,2.7028775,0.12630053,7.5156407,7.16824,-9.648633,-0.6847417
5.469837,4.5411186,2.7028775,0.12630053,7.5156407,7.16824,-9.648633,-0.6847417
5.477537,4.5455923,2.8360357,0.19128166,7.7148457,6.6367273,-9.768343,-0.60333884
5.4852285,4.5499983,2.8360357,0.19128166,7.7148457,6.6367273,-9.768343,-0.60333884
5.4931183,4.5545797,2.970259,0.24774067,7.9161806,6.3589997,-10.093954,-0.31124622
5.5010147,4.559101,2.970259,0.24774067,7.9161806,6.3589997,-10.093954,-0.31124622
5.5091166,4.5637717,3.1055474,0.29567757,8.122842,5.7748146,-10.457873,-0.15801731
5.5172257,4.5683813,3.1055474,0.29567757,8.122842,5.7748146,-10.457873,-0.15801731
5.5255456,4.5731378,3.248293,0.33296183,8.335895,5.4204726,-10.812215,0.033518825
5.5338726,4.5778327,3.248293,0.33296183,8.335895,5.4204726,-10.812215,0.033518825
5.542425,4.5826597,3.3952994,0.3606587,8.555339,5.161899,-11.080365,-0.05746084
5.550985,4.587426,3.3952994,0.3606587,8.555339,5.161899,-11.080365,-0.05746084
5.5597773,4.5923257,3.5476322,0.38302925,8.783306,5.070919,-11.099519,-0.11492168
5.5683746,4.5970545,3.5476322,0.38302925,8.783306,5.070919,-11.099519,-0.11492168
5.57742,4.60202,3.7020955,0.40753034,9.019794,4.673482,-11.224017,-0.36391866
5.5866904,4.607041,3.7020955,0.40753034,9.019794,4.673482,-11.224017,-0.36391866
5.5959945,4.6120644,3.8533633,0.43309668,9.26374,4.132392,-11.420342,-0.59855044
5.6052594,4.617002,3.8533633,0.43309668,9.26374,4.132392,-11.420342,-0.59855044
5.6148415,4.6220803,3.9961085,0.4565325,9.518338,3.7541082,-11.48738,-0.82360536
5.6244683,4.627118,3.9961085,0.4565325,9.518338,3.7541082,-11.48738,-0.82360536
5.6343164,4.6322355,4.134593,0.47570726,9.782524,3.620033,-11.702858,-0.9864111
5.644162,4.6372886,4.134593,0.47570726,9.782524,3.620033,-11.702858,-0.9864111
5.654288,4.642453,4.270947,0.48849043,10.04884,3.9504328,-11.899182,-0.8858546
5.66442,4.647559,4.270947,0.48849043,10.04884,3.9504328,-11.899182,-0.8858546
5.67482,4.6527624,4.400909,0.4991431,10.31196,4.5202527,-12.028469,-0.7757214
5.685216,4.6579037,4.400909,0.4991431,10.31196,4.5202527,-12.028469,-0.7757214
5.6958747,4.66315,4.521284,0.51192623,10.561232,5.281609,-12.095507,-0.47405192
5.706539,4.66834,4.521284,0.51192623,10.561232,5.281609,-12.095507,-0.47405192
5.7180605,4.6739306,4.634202,0.52684,10.784938,6.1866174,-12.095507,-0.30166942
5.7291093,4.6792307,4.634202,0.52684,10.784938,6.1866174,-12.095507,-0.30166942
5.7399025,4.6844974,4.730076,0.55134106,10.969229,7.062895,-11.942278,-0.02873042
5.750575,4.6896777,4.730076,0.55134106,10.969229,7.062895,-11.942278,-0.02873042
5.76141,4.6949553,4.8078403,0.58649474,11.111974,7.8146744,-11.611878,0.320823
5.7723804,4.700246,4.8078403,0.58649474,11.111974,7.8146744,-11.611878,0.320823
5.783479,4.705586,4.8653646,0.6312359,11.213174,8.279149,-11.334151,0.7661445
5.7945647,4.7108707,4.8653646,0.6312359,11.213174,8.279149,-11.334151,0.7661445
5.805718,4.7161746,4.9026484,0.69302124,11.276025,8.63828,-10.769119,0.79966336
5.8168716,4.721434,4.9026484,0.69302124,11.276025,8.63828,-10.769119,0.79966336
5.8280535,4.726701,4.9218235,0.7654592,11.303721,8.767567,-10.242394,0.7613561
5.8392367,4.7319264,4.9218235,0.7654592,11.303721,8.767567,-10.242394,0.7613561
5.8504233,4.737148,4.9228888,0.845354,11.304787,8.762778,-9.696517,0.6703765
5.861612,4.7423306,4.9228888,0.845354,11.304787,8.762778,-9.696517,0.6703765
5.872795,4.7475014,4.90691,0.9327057,11.284547,8.710106,-9.083601,0.51235914
5.883981,4.752638,4.90691,0.9327057,11.284547,8.710106,-9.083601,0.51235914
5.8951263,4.7577405,4.876017,1.0275142,11.2493925,8.63828,-8.475474,0.34955344
5.906274,4.7628117,4.876017,1.0275142,11.2493925,8.63828,-8.475474,0.34955344
5.917389,4.7678485,4.832341,1.130845,11.19826,8.556877,-8.0924015,0.07182605
5.928484,4.7728457,4.832341,1.130845,11.19826,8.556877,-8.0924015,0.07182605
5.939548,4.777811,4.779078,1.2395018,11.135409,8.858546,-7.800309,-0.08619126
5.9506035,4.782744,4.779078,1.2395018,11.135409,8.858546,-7.800309,-0.08619126
5.9615874,4.787631,4.7162275,1.356681,11.052319,9.212888,-7.603985,-0.14844051
5.972563,4.7924876,4.7162275,1.356681,11.052319,9.212888,-7.603985,-0.14844051
5.9834466,4.7972984,4.6437893,1.4845127,10.936205,9.514558,-7.503428,-0.12449849
5.9943438,4.8020906,4.6437893,1.4845127,10.936205,9.514558,-7.503428,-0.12449849
6.0050936,4.806818,4.5585685,1.6198013,10.783873,9.615114,-7.374141,0.076614454
6.0158467,4.8115244,4.5585685,1.6198013,10.783873,9.615114,-7.374141,0.076614454
6.0264273,4.8161583,4.4616294,1.763612,10.59319,9.485827,-7.129933,0.16280572
6.0370007,4.820767,4.4616294,1.763612,10.59319,9.485827,-7.129933,0.16280572
6.047388,4.825302,4.352972,1.9106185,10.365223,9.093178,-6.7851677,0.34955344
6.057758,4.8298087,4.352972,1.9106185,10.365223,9.093178,-6.7851677,0.34955344
6.067902,4.834226,4.2336626,2.053364,10.106364,8.39886,-6.5361705,0.62249243
6.0780597,4.838629,4.2336626,2.053364,10.106364,8.39886,-6.5361705,0.62249243
6.0879536,4.8429136,4.1005044,2.1854568,9.829395,7.651869,-6.191406,0.78529817
6.0978413,4.8471766,4.1005044,2.1854568,9.829395,7.651869,-6.191406,0.78529817
6.1074734,4.8513136,3.956694,2.3058317,9.541774,6.7612257,-5.90889,0.8475474
6.11712,4.8554378,3.956694,2.3058317,9.541774,6.7612257,-5.90889,0.8475474
6.126488,4.8594093,3.7979693,2.4112928,9.252022,5.8083334,-5.6359506,0.91458505
6.135861,4.8633647,3.7979693,2.4112928,9.252022,5.8083334,-5.6359506,0.91458505
6.1449704,4.867153,3.6285925,2.500775,8.969727,4.903325,-5.439626,0.8619126
6.1540756,4.870923,3.6285925,2.500775,8.969727,4.903325,-5.439626,0.8619126
6.1629324,4.8745165,3.4506931,2.5721476,8.694889,4.1515455,-5.1571107,0.79487497
6.171802,4.878099,3.4506931,2.5721476,8.694889,4.1515455,-5.1571107,0.79487497
6.180417,4.8814845,3.2674677,2.6264763,8.433899,3.5051112,-4.9943047,0.63206923
6.1890364,4.8848557,3.2674677,2.6264763,8.433899,3.5051112,-4.9943047,0.63206923
6.1974306,4.888027,3.0885034,2.670152,8.19315,3.040636,-4.841076,0.33997664
6.20582,4.891182,3.0885034,2.670152,8.19315,3.040636,-4.841076,0.33997664
6.2140093,4.894146,2.9148653,2.706371,7.966248,2.8491,-4.7644615,0.076614454
6.2222023,4.8970985,2.9148653,2.706371,7.966248,2.8491,-4.7644615,0.076614454
6.230198,4.899872,2.7497492,2.7372637,7.7521296,2.5570073,-5.3342814,0.15801731
6.230198,4.899872,2.7497492,2.7372637,7.7521296,2.5570073,-5.3342814,0.15801731
6.230198,4.899872,2.7497492,2.7372637,7.7521296,2.5570073,-5.3342814,0.15801731
6.230198,4.899872,2.4536057,2.778809,7.334546,2.1643584,-6.0716953,0.4261679
6.2606225,4.9096937,2.4536057,2.778809,7.334546,2.1643584,-6.0716953,0.4261679
6.268682,4.912266,2.4536057,2.778809,7.334546,2.1643584,-6.0716953,0.4261679
6.27601,4.9145155,2.3193824,2.7915921,7.1257544,1.9967642,-6.2871737,0.37349546
0.0009271948,4.916991,2.3193824,2.7915921,7.1257544,1.9967642,-6.2871737,0.37349546
0.007320995,4.9188766,2.1958117,2.8033102,6.916962,1.6232687,-6.6415157,0.5410896
0.014475523,4.9209776,2.1958117,2.8033102,6.916962,1.6232687,-6.6415157,0.5410896
0.021464162,4.922953,2.0796978,2.8139627,6.711366,1.1683705,-6.895301,0.6991069
0.02849673,4.9249325,2.0796978,2.8139627,6.711366,1.1683705,-6.895301,0.6991069
0.03537025,4.926769,1.9678451,2.8203542,6.513227,0.7182605,-6.933608,0.521936
0.042257868,4.9286003,1.9678451,2.8203542,6.513227,0.7182605,-6.933608,0.521936
0.048997678,4.930295,1.8570576,2.8182237,6.326806,0.21068975,-6.95755,0.40701428
0.055729743,4.93198,1.8570576,2.8182237,6.326806,0.21068975,-6.95755,0.40701428
0.06233923,4.933537,1.7430743,2.8043754,6.1489067,-0.33518824,-6.7947445,0.30645782
0.06894711,4.9350853,1.7430743,2.8043754,6.1489067,-0.33518824,-6.7947445,0.30645782
0.07542261,4.9365067,1.6237646,2.7777438,5.977399,-0.8619126,-6.579266,0.11492168
0.0818904,4.937918,1.6237646,2.7777438,5.977399,-0.8619126,-6.579266,0.11492168
0.08823729,4.93921,1.5044551,2.7393942,5.820805,-1.292869,-6.5265937,0.08140286
0.0945832,4.9404936,1.5044551,2.7393942,5.820805,-1.292869,-6.5265937,0.08140286
0.10075994,4.9416523,1.3915371,2.6967835,5.6727333,-1.2976574,-6.7851677,-0.1340753
0.106917225,4.942799,1.3915371,2.6967835,5.6727333,-1.2976574,-6.7851677,-0.1340753
0.11292949,4.943835,1.2850106,2.6509774,5.525727,-1.1348516,-7.16824,-0.34476504
0.11894094,4.9448624,1.2850106,2.6509774,5.525727,-1.1348516,-7.16824,-0.34476504
0.12476545,4.945783,1.185941,2.6041057,5.369133,-0.8714894,-7.6470804,-0.35434186
0.13057737,4.9466953,1.185941,2.6041057,5.369133,-0.8714894,-7.6470804,-0.35434186
0.13621576,4.9475155,1.0964588,2.557234,5.1933646,-0.6799533,-8.1163435,-0.11971009
0.14184166,4.948328,1.0964588,2.557234,5.1933646,-0.6799533,-8.1163435,-0.11971009
0.14725535,4.949052,1.0133681,2.5114276,4.9952254,-0.62249243,-8.461109,0.11492168
0.15266764,4.94977,1.0133681,2.5114276,4.9952254,-0.62249243,-8.461109,0.11492168
0.15784249,4.950409,0.9398649,2.4709475,4.77365,-0.59855044,-8.66701,0.5267244
0.16300529,4.951041,0.9398649,2.4709475,4.77365,-0.59855044,-8.66701,0.5267244
0.16795588,4.9515967,0.87168795,2.4304676,4.5329003,-0.9624691,-8.848969,0.866701
0.17289409,4.952146,0.87168795,2.4304676,4.5329003,-0.9624691,-8.848969,0.866701
0.17759754,4.95262,0.80670685,2.3846612,4.2846937,-1.3551182,-8.844181,1.340753
0.18229651,4.9530888,0.80670685,2.3846612,4.2846937,-1.3551182,-8.844181,1.340753
0.18674012,4.953489,0.74385625,2.3260717,4.035422,-1.436521,-8.834604,1.460463
0.19116993,4.9538827,0.74385625,2.3260717,4.035422,-1.436521,-8.834604,1.460463
0.19538161,4.9542108,0.6820709,2.2536337,3.7808237,-1.6807296,-8.805874,1.5035586
0.19957939,4.9545326,0.6820709,2.2536337,3.7808237,-1.6807296,-8.805874,1.5035586
0.2035443,4.9547906,0.61708975,2.1673472,3.5262256,-1.9057846,-8.743625,1.661576
0.20750213,4.955043,0.61708975,2.1673472,3.5262256,-1.9057846,-8.743625,1.661576
0.2112565,4.95524,0.54571706,2.0629513,3.2726927,-2.1308396,-8.628703,1.7381904
0.21496709,4.955428,0.54571706,2.0629513,3.2726927,-2.1308396,-8.628703,1.7381904
0.2184607,4.9555664,0.4722138,1.9468374,3.024486,-2.4612393,-8.7771435,1.7381904
0.2219508,4.955698,0.4722138,1.9468374,3.024486,-2.4612393,-8.7771435,1.7381904
0.22520407,4.955781,0.39551476,1.81581,2.7933235,-2.8538885,-8.820239,1.6998832
0.22846207,4.9558587,0.39551476,1.81581,2.7933235,-2.8538885,-8.820239,1.6998832
0.2314776,4.955875,0.31668517,1.6656077,2.5781403,-3.145981,-8.935161,1.5705963
0.23453689,4.955887,0.31668517,1.6656077,2.5781403,-3.145981,-8.935161,1.5705963
0.23728801,4.955835,0.23679034,1.4951653,2.3831968,-3.1555579,-9.050082,1.436521
0.24002099,4.95578,0.23679034,1.4951653,2.3831968,-3.1555579,-9.050082,1.436521
0.24255095,4.955673,0.15796077,1.3034178,2.206363,-3.2034419,-9.112331,1.3024458
0.24508189,4.9555635,0.15796077,1.3034178,2.206363,-3.2034419,-9.112331,1.3024458
0.24741176,4.9554124,0.08126174,1.098887,2.0444427,-3.2752678,-9.093178,1.1444284
0.24973577,4.9552593,0.08126174,1.098887,2.0444427,-3.2752678,-9.093178,1.1444284
0.25183576,4.955067,0.010954284,0.88370353,1.8974363,-2.9640217,-9.107543,0.8762778
0.25393438,4.954874,0.010954284,0.88370353,1.8974363,-2.9640217,-9.107543,0.8762778
0.25582683,4.9546604,-0.052961584,0.66106325,1.7600172,-2.7389667,-9.141062,0.842759
0.25771978,4.9544454,-0.052961584,0.66106325,1.7600172,-2.7389667,-9.141062,0.842759
0.25940567,4.954222,-0.108355336,0.43416196,1.6311201,-2.3702598,-9.160215,0.78529817
0.26109216,4.953998,-0.108355336,0.43416196,1.6311201,-2.3702598,-9.160215,0.78529817
0.26255992,4.953783,-0.15522698,0.2051301,1.5086147,-1.8387469,-9.112331,0.94331545
0.26402956,4.9535685,-0.15522698,0.2051301,1.5086147,-1.8387469,-9.112331,0.94331545
0.2652879,4.9533806,-0.19144596,-0.02496703,1.3839787,-1.2641385,-9.121908,0.91937345
0.2665432,4.953194,-0.19144596,-0.02496703,1.3839787,-1.2641385,-9.121908,0.91937345
0.2675912,4.953048,-0.21914284,-0.25506416,1.2497554,-0.7374141,-9.069236,1.0486604
0.26863688,4.9529037,-0.21914284,-0.25506416,1.2497554,-0.7374141,-9.069236,1.0486604
0.2694741,4.9528008,-0.24151339,-0.48409602,1.1059448,-0.22505496,-8.99741,1.0630256
0.27031788,4.9526978,-0.24151339,-0.48409602,1.1059448,-0.22505496,-8.99741,1.0630256
0.2709765,4.952642,-0.25749236,-0.7099321,0.957873,0.33518824,-8.925584,1.1300632
0.2716086,4.952589,-0.25749236,-0.7099321,0.957873,0.33518824,-8.925584,1.1300632
0.27201936,4.9525757,-0.27347133,-0.92937654,0.8076707,0.7374141,-8.90643,1.1300632
0.27244943,4.9525633,-0.27347133,-0.92937654,0.8076707,0.7374141,-8.90643,1.1300632
0.27267578,4.9525948,-0.2862545,-1.14456,0.65320736,1.0486604,-8.853758,1.2737153
0.27290136,4.952627,-0.2862545,-1.14456,0.65320736,1.0486604,-8.853758,1.2737153
0.27293468,4.952703,-0.29584187,-1.3512213,0.50620085,1.4030021,-8.714894,1.3311762
0.27296776,4.952778,-0.29584187,-1.3512213,0.50620085,1.4030021,-8.714894,1.3311762
0.27282533,4.952894,-0.304364,-1.5461646,0.37410805,1.7956513,-8.576031,1.3694834
0.27268362,4.953009,-0.304364,-1.5461646,0.37410805,1.7956513,-8.576031,1.3694834
0.27237585,4.9531612,-0.31182083,-1.7272596,0.24947211,2.1978772,-8.465898,1.3838485
0.27206907,4.9533124,-0.31182083,-1.7272596,0.24947211,2.1978772,-8.465898,1.3838485
0.2716193,4.953495,-0.3192777,-1.8870493,0.13974987,2.6288335,-8.355764,1.4317327
0.27116734,4.9536767,-0.3192777,-1.8870493,0.13974987,2.6288335,-8.355764,1.4317327
0.2705921,4.953881,-0.32353875,-2.0159464,0.04387607,3.0885203,-8.317456,1.3359646
0.2700154,4.954084,-0.32353875,-2.0159464,0.04387607,3.0885203,-8.317456,1.3359646
0.26933792,4.9543076,-0.32034296,-2.1064937,-0.03814929,3.5338416,-8.293514,1.2641385
0.2686601,4.9545293,-0.32034296,-2.1064937,-0.03814929,3.5338416,-8.293514,1.2641385
0.2679042,4.954768,-0.31075558,-2.1544306,-0.106326215,3.7205894,-8.298303,1.2641385
0.2671479,4.955005,-0.31075558,-2.1544306,-0.106326215,3.7205894,-8.298303,1.2641385
0.26633784,4.955249,-0.30010295,-2.159757,-0.16065471,3.7924154,-8.379706,1.283292
0.26552406,4.9554915,-0.30010295,-2.159757,-0.16065471,3.7924154,-8.379706,1.283292
0.264683,4.9557343,-0.28518924,-2.1246033,-0.20113476,3.7301662,-8.556877,1.3599066
0.26383972,4.9559765,-0.28518924,-2.1246033,-0.20113476,3.7301662,-8.556877,1.3599066
0.26299018,4.956214,-0.27027553,-2.0532305,-0.22457057,3.5625722,-8.7771435,1.5466543
0.26214024,4.9564495,-0.27027553,-2.0532305,-0.22457057,3.5625722,-8.7771435,1.5466543
0.2613075,4.9566727,-0.25536183,-1.9498999,-0.23202743,3.3375173,-8.834604,1.6759412
0.26047435,4.956895,-0.25536183,-1.9498999,-0.23202743,3.3375173,-8.834604,1.6759412
0.25967172,4.957102,-0.24257866,-1.821003,-0.22030951,3.1747115,-9.093178,1.910573
0.25884175,4.9573145,-0.24257866,-1.821003,-0.22030951,3.1747115,-9.093178,1.910573
0.25815025,4.9574833,-0.2351218,-1.6676048,-0.19048211,2.9975405,-9.179369,2.1499932
0.257431,4.9576573,-0.2351218,-1.6676048,-0.19048211,2.9975405,-9.179369,2.1499932
0.25679052,4.957795,-0.23192601,-1.495032,-0.14680627,2.8060043,-9.337387,2.2457612
0.25614917,4.9579315,-0.23192601,-1.495032,-0.14680627,2.8060043,-9.337387,2.2457612
0.2556126,4.958027,-0.23192601,-1.3064802,-0.08715145,2.6767175,-9.509769,2.4372973
0.2550936,4.9581184,-0.23192601,-1.3064802,-0.08715145,2.6767175,-9.509769,2.4372973
0.2546753,4.958163,-0.23618707,-1.1019495,-0.015778739,2.4420857,-9.753978,2.5570073
0.2542414,4.958208,-0.23618707,-1.1019495,-0.015778739,2.4420857,-9.753978,2.5570073
0.2539494,4.9581966,-0.24364392,-0.8857007,0.059855036,2.2409728,-10.022128,2.7006595
0.25365865,4.958185,-0.24364392,-0.8857007,0.059855036,2.2409728,-10.022128,2.7006595
0.25349864,4.9581122,-0.25429657,-0.6630604,0.14081514,1.9297266,-10.323798,2.7868507
0.25333816,4.958039,-0.25429657,-0.6630604,0.14081514,1.9297266,-10.323798,2.7868507
0.25331718,4.9579077,-0.2649492,-0.4393549,0.22710156,1.6759412,-10.625467,2.9592333
0.2532962,4.9577765,-0.2649492,-0.4393549,0.22710156,1.6759412,-10.625467,2.9592333
0.2534119,4.957588,-0.27240607,-0.21564937,0.3123227,1.2976574,-10.94629,3.040636
0.2535279,4.9573994,-0.27240607,-0.21564937,0.3123227,1.2976574,-10.94629,3.040636
0.25378165,4.9571576,-0.27879766,0.0048603755,0.39860913,0.8714894,-11.271901,3.193865
0.25403696,4.9569144,-0.27879766,0.0048603755,0.39860913,0.8714894,-11.271901,3.193865
0.25442302,4.956621,-0.2798629,0.21897852,0.48276502,0.45968673,-11.631032,3.1890767
0.25480944,4.9563274,-0.2798629,0.21897852,0.48276502,0.45968673,-11.631032,3.1890767
0.2553222,4.9559884,-0.27666712,0.42563984,0.5658557,0.090979666,-11.956643,3.1651347
0.25583735,4.9556475,-0.27666712,0.42563984,0.5658557,0.090979666,-11.956643,3.1651347
0.2564776,4.9552727,-0.2660145,0.6216485,0.64788103,-0.24420857,-12.277467,3.2130187
0.2571197,4.9548965,-0.2660145,0.6216485,0.64788103,-0.24420857,-12.277467,3.2130187
0.25787568,4.9544983,-0.25216603,0.804874,0.7192537,-0.521936,-12.473791,3.3758245
0.2586315,4.9540997,-0.25216603,0.804874,0.7192537,-0.521936,-12.473791,3.3758245
0.2594877,4.953681,-0.24044813,0.97425103,0.77677804,-0.7422025,-12.593501,3.5769374
0.260342,4.953263,-0.24044813,0.97425103,0.77677804,-0.7422025,-12.593501,3.5769374
0.26127383,4.9528246,-0.23192601,1.1276491,0.812997,-1.0390835,-12.6461735,3.7541082
0.26220536,4.952386,-0.23192601,1.1276491,0.812997,-1.0390835,-12.6461735,3.7541082
0.26319668,4.951933,-0.22873022,1.2661335,0.82684547,-1.4748282,-12.593501,4.027047
0.2641877,4.9514785,-0.22873022,1.2661335,0.82684547,-1.4748282,-12.593501,4.027047
0.26522037,4.9510074,-0.22979549,1.3875736,0.8204539,-1.9393034,-12.559982,4.2664676
0.26625246,4.9505343,-0.22979549,1.3875736,0.8204539,-1.9393034,-12.559982,4.2664676
0.267299,4.9500356,-0.23086074,1.4887737,0.79701805,-2.2601264,-12.512098,4.232949
0.26833752,4.949538,-0.23086074,1.4887737,0.79701805,-2.2601264,-12.512098,4.232949
0.26936778,4.9490194,-0.23192601,1.5676033,0.7576032,-2.4995465,-12.5264635,4.256891
0.27039593,4.9484997,-0.23192601,1.5676033,0.7576032,-2.4995465,-12.5264635,4.256891
0.27138844,4.947959,-0.23192601,1.6240623,0.7011442,-2.657564,-12.531252,4.1515455
0.27237785,4.9474173,-0.23192601,1.6240623,0.7011442,-2.657564,-12.531252,4.1515455
0.27330852,4.946865,-0.22979549,1.6624119,0.627641,-2.9352913,-12.641385,4.0174704
0.27424157,4.946309,-0.22979549,1.6624119,0.627641,-2.9352913,-12.641385,4.0174704
0.2751098,4.945759,-0.22020811,1.6815866,0.5402893,-3.2561142,-12.694057,3.9456444
0.27597484,4.9452066,-0.22020811,1.6815866,0.5402893,-3.2561142,-12.694057,3.9456444
0.27678862,4.944668,-0.2052944,1.6837171,0.4444155,-3.6870706,-12.727576,3.8738184
0.27759072,4.944133,-0.2052944,1.6837171,0.4444155,-3.6870706,-12.727576,3.8738184
0.27834803,4.9436073,-0.18398911,1.6698687,0.34215012,-4.084508,-12.794614,3.6966474
0.2791119,4.9430747,-0.18398911,1.6698687,0.34215012,-4.084508,-12.794614,3.6966474
0.2798154,4.9425497,-0.15842277,1.6379108,0.2377542,-4.5537715,-12.722788,3.6248214
0.2798154,4.9425497,-0.15842277,1.6379108,0.2377542,-4.5537715,-12.722788,3.6248214
0.28121626,4.941489,-0.12966062,1.5857128,0.13548881,-4.9416323,-12.6222315,3.4237084
0.28184706,4.9409604,-0.12966062,1.5857128,0.13548881,-4.9416323,-12.6222315,3.4237084
0.28234124,4.940487,-0.093441635,1.5164707,0.035353955,-5.267244,-12.5025215,3.2034419
0.2829073,4.9399433,-0.093441635,1.5164707,0.035353955,-5.267244,-12.5025215,3.2034419
0.2833067,4.9395027,-0.056157377,1.429119,-0.059454583,-5.559336,-12.334928,3.1507695
0.28394523,4.9387965,-0.056157377,1.429119,-0.059454583,-5.559336,-12.334928,3.1507695
0.28402635,4.9386873,-0.018873122,1.3257883,-0.145741,-5.722142,-12.186486,2.906561
0.2843486,4.9382515,-0.018873122,1.3257883,-0.145741,-5.722142,-12.186486,2.906561
0.2845609,4.937872,0.016280606,1.2086092,-0.22563584,-5.81791,-12.066776,2.8107927
0.28470987,4.9376054,0.016280606,1.2086092,-0.22563584,-5.81791,-12.066776,2.8107927
0.28479856,4.9373245,0.049303804,1.0818428,-0.30020434,-5.8562174,-11.923124,2.695871
0.2848978,4.937009,0.049303804,1.0818428,-0.30020434,-5.8562174,-11.923124,2.695871
0.2848851,4.936822,0.07913121,0.9422931,-0.3737076,-5.7987566,-11.784261,2.6767175
0.28487042,4.9366064,0.07913121,0.9422931,-0.3737076,-5.7987566,-11.784261,2.6767175
0.28475386,4.9364514,0.10789335,0.7952866,-0.44401506,-5.6359506,-11.631032,2.5474305
0.28463745,4.9362965,0.10789335,0.7952866,-0.44401506,-5.6359506,-11.631032,2.5474305
0.28441882,4.936209,0.13452496,0.64082325,-0.51325727,-5.3821654,-11.429919,2.5234885
0.2842004,4.936122,0.13452496,0.64082325,-0.51325727,-5.3821654,-11.429919,2.5234885
0.28388113,4.9360943,0.16009131,0.4831641,-0.5803689,-4.999093,-11.286267,2.4277205
0.2835612,4.9360666,0.16009131,0.4831641,-0.5803689,-4.999093,-11.286267,2.4277205
0.28313875,4.936103,0.1845924,0.32657024,-0.6496111,-4.6016555,-11.046846,2.3942018
0.28271636,4.93614,0.1845924,0.32657024,-0.6496111,-4.6016555,-11.046846,2.3942018
0.2821951,4.936236,0.20696294,0.17743322,-0.7167227,-4.232949,-10.79785,2.3558946
0.2816738,4.936332,0.20696294,0.17743322,-0.7167227,-4.232949,-10.79785,2.3558946
0.2810516,4.93647,0.22720297,0.037883572,-0.7838344,-3.821146,-10.5440645,2.2601264
0.28042936,4.936608,0.22720297,0.037883572,-0.7838344,-3.821146,-10.5440645,2.2601264
0.27971053,4.9367914,0.24531247,-0.09207869,-0.85094607,-3.394978,-10.223241,2.2409728
0.27899164,4.9369755,0.24531247,-0.09207869,-0.85094607,-3.394978,-10.223241,2.2409728
0.27815542,4.9371667,0.25809565,-0.20819251,-0.9169925,-3.0214825,-9.940725,2.207454
0.2773216,4.93736,0.25809565,-0.20819251,-0.9169925,-3.0214825,-9.940725,2.207454
0.27620277,4.9375715,0.26768303,-0.31152317,-0.9787778,-2.6144683,-9.672575,2.054225
0.27508795,4.937781,0.26768303,-0.31152317,-0.9787778,-2.6144683,-9.672575,2.054225
0.27386826,4.938035,0.27194408,-0.39887485,-1.0394979,-2.2122424,-9.370906,1.9057846
0.27264997,4.9382877,0.27194408,-0.39887485,-1.0394979,-2.2122424,-9.370906,1.9057846
0.2713481,4.938566,0.26874828,-0.47131285,-1.0959569,-1.8579005,-9.126697,1.8195933
0.27004945,4.9388433,0.26874828,-0.47131285,-1.0959569,-1.8579005,-9.126697,1.8195933
0.26868892,4.939122,0.2591609,-0.52777183,-1.1449591,-1.5658079,-8.90643,1.6903064
0.2673287,4.9394,0.2591609,-0.52777183,-1.1449591,-1.5658079,-8.90643,1.6903064
0.2659052,4.9396706,0.2442472,-0.56718665,-1.1939613,-1.292869,-8.7053175,1.5562311
0.26448926,4.9399376,0.2442472,-0.56718665,-1.1939613,-1.292869,-8.7053175,1.5562311
0.2630226,4.940197,0.22400717,-0.5906225,-1.2387023,-1.1013328,-8.566454,1.5849615
0.2615546,4.940456,0.22400717,-0.5906225,-1.2387023,-1.1013328,-8.566454,1.5849615
0.26004627,4.940686,0.20057136,-0.59594876,-1.2781171,-0.90500826,-8.384495,1.4508862
0.25853813,4.9409146,0.20057136,-0.59594876,-1.2781171,-0.90500826,-8.384495,1.4508862
0.25699416,4.94112,0.17393975,-0.5884919,-1.3122056,-0.7565677,-8.259995,1.4891934
0.25545028,4.941325,0.17393975,-0.5884919,-1.3122056,-0.7565677,-8.259995,1.4891934
0.25388438,4.9414916,0.14624287,-0.56931716,-1.3409678,-0.6991069,-8.169016,1.4221559
0.25231856,4.941657,0.14624287,-0.56931716,-1.3409678,-0.6991069,-8.169016,1.4221559
0.25073397,4.9417925,0.119611256,-0.5416203,-1.3644035,-0.6991069,-8.111555,1.4748282
0.24914968,4.9419265,0.119611256,-0.5416203,-1.3644035,-0.6991069,-8.111555,1.4748282
0.24755403,4.942031,0.09297965,-0.50646657,-1.3814478,-0.641646,-8.001422,1.5227122
0.24595693,4.9421344,0.09297965,-0.50646657,-1.3814478,-0.641646,-8.001422,1.5227122
0.24435915,4.942196,0.06315224,-0.46598652,-1.3952962,-0.641646,-7.9487495,1.5035586
0.24275835,4.942257,0.06315224,-0.46598652,-1.3952962,-0.641646,-7.9487495,1.5035586
0.24116533,4.9422746,0.033324838,-0.42231068,-1.4016877,-0.60333884,-7.8912888,1.4652514
0.23957077,4.942292,0.033324838,-0.42231068,-1.4016877,-0.60333884,-7.8912888,1.4652514
0.2379865,4.9422655,0.0045626974,-0.3765043,-1.4038184,-0.5506664,-7.8050976,1.3934253
0.23640238,4.9422383,0.0045626974,-0.3765043,-1.4038184,-0.5506664,-7.8050976,1.3934253
0.23482929,4.942177,-0.02313418,-0.3285674,-1.4016877,-0.51714754,-7.819463,1.436521
0.2332564,4.942115,-0.02313418,-0.3285674,-1.4016877,-0.51714754,-7.819463,1.436521
0.23170619,4.942007,-0.049765788,-0.27849996,-1.394231,-0.545878,-7.824251,1.3551182
0.23015623,4.9418993,-0.049765788,-0.27849996,-1.394231,-0.545878,-7.824251,1.3551182
0.22862974,4.9417505,-0.07320161,-0.22630201,-1.3857088,-0.45489833,-7.9008656,1.2641385
0.22710352,4.941602,-0.07320161,-0.22630201,-1.3857088,-0.45489833,-7.9008656,1.2641385
0.22559842,4.9414225,-0.092376366,-0.17090826,-1.3771867,-0.51714754,-7.967903,1.2976574
0.22409055,4.9412427,-0.092376366,-0.17090826,-1.3771867,-0.51714754,-7.967903,1.2976574
0.22261275,4.941024,-0.11261639,-0.11551451,-1.3665341,-0.63206923,-8.058883,1.2689269
0.2211603,4.9408097,-0.11261639,-0.11551451,-1.3665341,-0.63206923,-8.058883,1.2689269
0.21969487,4.940569,-0.12966062,-0.060120758,-1.3526857,-0.7374141,-8.149862,1.4173675
0.21822093,4.9403267,-0.12966062,-0.060120758,-1.3526857,-0.7374141,-8.149862,1.4173675
0.21680507,4.9400587,-0.14137854,-0.005792269,-1.3377719,-0.94331545,-8.24563,1.4413095
0.21538514,4.9397902,-0.14137854,-0.005792269,-1.3377719,-0.94331545,-8.24563,1.4413095
0.21400483,4.9394975,-0.1541617,0.045340426,-1.3185972,-1.1061212,-8.341399,1.5035586
0.21261796,4.9392033,-0.1541617,0.045340426,-1.3185972,-1.1061212,-8.341399,1.5035586
0.2112759,4.9388747,-0.16694488,0.0911468,-1.2972919,-1.3215994,-8.465898,1.5227122
0.20993875,4.938547,-0.16694488,0.0911468,-1.2972919,-1.3215994,-8.465898,1.5227122
0.20864445,4.938198,-0.17653225,0.13162684,-1.2727908,-1.4221559,-8.580819,1.5466543
0.20734979,4.937849,-0.17653225,0.13162684,-1.2727908,-1.4221559,-8.580819,1.5466543
0.20610438,4.937476,-0.1871849,0.1657153,-1.2482897,-1.541866,-8.695741,1.5562311
0.2048603,4.9371033,-0.1871849,0.1657153,-1.2482897,-1.541866,-8.695741,1.5562311
0.20368502,4.9367113,-0.19464175,0.19447745,-1.2227234,-1.7238252,-8.810662,1.5370775
0.2025093,4.9363194,-0.19464175,0.19447745,-1.2227234,-1.7238252,-8.810662,1.5370775
0.20139223,4.93592,-0.19890282,0.216848,-1.192896,-1.8483237,-8.959103,1.541866
0.20027487,4.93552,-0.19890282,0.216848,-1.192896,-1.8483237,-8.959103,1.541866
0.19920163,4.935118,-0.20209861,0.23069644,-1.1630685,-1.9201498,-9.107543,1.4987702
0.19812799,4.9347157,-0.20209861,0.23069644,-1.1630685,-1.9201498,-9.107543,1.4987702
0.19709204,4.934316,-0.20103334,0.23602276,-1.1321759,-1.9728222,-9.232041,1.5227122
0.19605988,4.933918,-0.20103334,0.23602276,-1.1321759,-1.9728222,-9.232041,1.5227122
0.19505861,4.933527,-0.19677228,0.23389223,-1.1012832,-1.9967642,-9.3661175,1.5562311
0.19405793,4.933136,-0.19677228,0.23389223,-1.1012832,-1.9967642,-9.3661175,1.5562311
0.19308622,4.9327555,-0.19038069,0.22537012,-1.0703906,-2.0159178,-9.533711,1.6376339
0.19211535,4.9323754,-0.19038069,0.22537012,-1.0703906,-2.0159178,-9.533711,1.6376339
0.19116883,4.932009,-0.18079332,0.21258694,-1.0426936,-2.0254946,-9.595961,1.5945383
0.19022492,4.931644,-0.18079332,0.21258694,-1.0426936,-2.0254946,-9.595961,1.5945383
0.18930145,4.9312963,-0.16801015,0.19341218,-1.0128663,-2.0015526,-9.667787,1.6807296
0.18838084,4.9309497,-0.16801015,0.19341218,-1.0128663,-2.0015526,-9.667787,1.6807296
0.18746988,4.9306197,-0.15522698,0.17210689,-0.98303884,-1.9249382,-9.701305,1.7286136
0.18656103,4.9302907,-0.15522698,0.17210689,-0.98303884,-1.9249382,-9.701305,1.7286136
0.1856698,4.929981,-0.14031327,0.14654055,-0.95640725,-1.9201498,-9.739613,1.757344
0.18475159,4.9296627,-0.14031327,0.14654055,-0.95640725,-1.9201498,-9.739613,1.757344
0.18386935,4.929377,-0.124334306,0.11990894,-0.92977566,-1.8339585,-9.667787,1.7429788
0.1830167,4.9291,-0.124334306,0.11990894,-0.92977566,-1.8339585,-9.667787,1.7429788
0.18215604,4.9288383,-0.107290074,0.09434259,-0.90527457,-1.8052281,-9.653421,1.6567876
0.18129276,4.928576,-0.107290074,0.09434259,-0.90527457,-1.8052281,-9.653421,1.6567876
0.18043132,4.928336,-0.091311105,0.06771098,-0.88183874,-1.7142484,-9.610326,1.6663644
0.17956822,4.9280953,-0.091311105,0.06771098,-0.88183874,-1.7142484,-9.610326,1.6663644
0.17870195,4.9278784,-0.076397404,0.04427516,-0.8584029,-1.6184803,-9.557653,1.7238252
0.17784965,4.9276648,-0.076397404,0.04427516,-0.8584029,-1.6184803,-9.557653,1.7238252
0.17699319,4.92747,-0.062548965,0.021904606,-0.8339018,-1.5370775,-9.519346,1.6903064
0.17611945,4.927271,-0.062548965,0.021904606,-0.8339018,-1.5370775,-9.519346,1.6903064
0.17526768,4.927096,-0.049765788,0.003795111,-0.8115313,-1.4269443,-9.533711,1.6376339
0.1744146,4.926921,-0.049765788,0.003795111,-0.8115313,-1.4269443,-9.533711,1.6376339
0.17357776,4.926763,-0.03698262,-0.012183856,-0.79129124,-1.3934253,-9.437943,1.6184803
0.17274138,4.9266047,-0.03698262,-0.012183856,-0.79129124,-1.3934253,-9.437943,1.6184803
0.17192763,4.9264593,-0.026329972,-0.026032293,-0.7710512,-1.3694834,-9.41879,1.5562311
0.17111014,4.926313,-0.026329972,-0.026032293,-0.7710512,-1.3694834,-9.41879,1.5562311
0.17033048,4.926175,-0.017807856,-0.036684938,-0.74655014,-1.412579,-9.3421755,1.5179238
0.16955207,4.9260373,-0.017807856,-0.036684938,-0.74655014,-1.412579,-9.3421755,1.5179238
0.16881259,4.925908,-0.010351005,-0.044141788,-0.7188533,-1.4269443,-9.260772,1.436521
0.16806902,4.9257774,-0.010351005,-0.044141788,-0.7188533,-1.4269443,-9.260772,1.436521
0.16737278,4.925654,-0.0050246827,-0.050533377,-0.6911564,-1.5227122,-9.246407,1.4460979
0.16667491,4.9255295,-0.0050246827,-0.050533377,-0.6911564,-1.5227122,-9.246407,1.4460979
0.16602704,4.92541,-0.0028941538,-0.0558597,-0.6581332,-1.5897499,-9.126697,1.3120226
0.16537888,4.92529,-0.0028941538,-0.0558597,-0.6581332,-1.5897499,-9.126697,1.3120226
0.16477518,4.9251733,-0.0028941538,-0.06118602,-0.62084895,-1.6280571,-9.064447,1.2354081
0.16417052,4.9250565,-0.0028941538,-0.06118602,-0.62084895,-1.6280571,-9.064447,1.2354081
0.16361259,4.924942,-0.0039594183,-0.06757761,-0.5814342,-1.7046716,-9.054871,1.0965444
0.1630525,4.9248266,-0.0039594183,-0.06757761,-0.5814342,-1.7046716,-9.054871,1.0965444
0.16253719,4.9247146,-0.0050246827,-0.07503446,-0.5409541,-1.7286136,-8.983045,1.0582372
0.16202088,4.9246016,-0.0050246827,-0.07503446,-0.5409541,-1.7286136,-8.983045,1.0582372
0.16153981,4.9244885,-0.008220476,-0.08355658,-0.4994088,-1.6759412,-8.987833,1.115698
0.16105458,4.9243746,-0.008220476,-0.08355658,-0.4994088,-1.6759412,-8.987833,1.115698
0.16061744,4.9242625,-0.010351005,-0.09207869,-0.4546677,-1.6424223,-8.973468,1.0965444
0.16017362,4.924149,-0.010351005,-0.09207869,-0.4546677,-1.6424223,-8.973468,1.0965444
0.15977792,4.9240375,-0.012481534,-0.09953554,-0.4088613,-1.6280571,-8.963891,1.1492168
0.15937914,4.9239254,-0.012481534,-0.09953554,-0.4088613,-1.6280571,-8.963891,1.1492168
0.15903005,4.923815,-0.014612063,-0.10486186,-0.36305496,-1.6376339,-8.911219,1.1731589
0.1586793,4.923703,-0.014612063,-0.10486186,-0.36305496,-1.6376339,-8.911219,1.1731589
0.15837458,4.9235935,-0.015677327,-0.109122925,-0.31618333,-1.6041151,-8.896853,1.2641385
0.1580685,4.923484,-0.015677327,-0.109122925,-0.31618333,-1.6041151,-8.896853,1.2641385
0.15779409,4.923372,-0.017807856,-0.110188186,-0.27037695,-1.508347,-8.882488,1.2641385
0.15752013,4.92326,-0.017807856,-0.110188186,-0.27037695,-1.508347,-8.882488,1.2641385
0.15728845,4.923147,-0.021003649,-0.11125345,-0.22457057,-1.4700398,-8.815451,1.3455414
0.15705587,4.9230337,-0.021003649,-0.11125345,-0.22457057,-1.4700398,-8.815451,1.3455414
0.15686375,4.922917,-0.025264706,-0.110188186,-0.17982946,-1.4413095,-8.791509,1.2354081
0.15667102,4.9228,-0.025264706,-0.110188186,-0.17982946,-1.4413095,-8.791509,1.2354081
0.15652071,4.922679,-0.03059103,-0.106992394,-0.13508835,-1.4221559,-8.7771435,1.2737153
0.15637282,4.9225597,-0.03059103,-0.106992394,-0.13508835,-1.4221559,-8.7771435,1.2737153
0.15624964,4.922433,-0.03804788,-0.1037966,-0.09034725,-1.3120226,-8.743625,1.2737153
0.15610622,4.922284,-0.03804788,-0.1037966,-0.09034725,-1.3120226,-8.743625,1.2737153
0.15610622,4.922284,-0.03804788,-0.1037966,-0.09034725,-1.3120226,-8.743625,1.2737153
0.15610622,4.922284,-0.03804788,-0.1037966,-0.09034725,-1.3120226,-8.743625,1.2737153
0.15585366,4.921844,-0.052961584,-0.09847028,-0.013648209,-1.2737153,-8.829816,1.364695
0.15585366,4.921844,-0.052961584,-0.09847028,-0.013648209,-1.2737153,-8.829816,1.364695
0.15585366,4.921844,-0.052961584,-0.09847028,-0.013648209,-1.2737153,-8.829816,1.364695
0.15572861,4.921382,-0.06681002,-0.09847028,0.049202394,-1.2066777,-8.987833,1.4796166
0.15571994,4.921325,-0.06681002,-0.09847028,0.049202394,-1.2066777,-8.987833,1.4796166
0.15569755,4.9211783,-0.06681002,-0.09847028,0.049202394,-1.2066777,-8.987833,1.4796166
0.15567885,4.921038,-0.07000581,-0.10060081,0.07796454,-1.1683705,-9.107543,1.5945383
0.15566012,4.9208984,-0.07000581,-0.10060081,0.07796454,-1.1683705,-9.107543,1.5945383
0.1556675,4.9207573,-0.07213634,-0.10166607,0.106726676,-1.1587936,-9.165004,1.5945383
0.1556675,4.9207573,-0.07213634,-0.10166607,0.106726676,-1.1587936,-9.165004,1.5945383
0.15568505,4.9204836,-0.07213634,-0.10486186,0.13335828,-1.1587936,-9.217676,1.6567876
0.15570721,4.9203463,-0.07213634,-0.10486186,0.13335828,-1.1587936,-9.217676,1.6567876
0.15574074,4.9202213,-0.07000581,-0.110188186,0.15572885,-1.1252748,-9.260772,1.6759412
0.15577385,4.920098,-0.07000581,-0.110188186,0.15572885,-1.1252748,-9.260772,1.6759412
0.15581815,4.9199886,-0.06467949,-0.11338398,0.17916466,-1.0965444,-9.3661175,1.7238252
0.15586387,4.9198756,-0.06467949,-0.11338398,0.17916466,-1.0965444,-9.3661175,1.7238252
0.15594271,4.9197664,-0.057222642,-0.11764504,0.20046994,-1.091756,-9.3661175,1.6184803
0.1560239,4.919654,-0.057222642,-0.11764504,0.20046994,-1.091756,-9.3661175,1.6184803
0.15609422,4.919575,-0.048700526,-0.12084083,0.21964471,-1.067814,-9.3421755,1.7669208
0.15616393,4.9194975,-0.048700526,-0.12084083,0.21964471,-1.067814,-9.3421755,1.7669208
0.1562409,4.9194436,-0.04017841,-0.124036625,0.2377542,-1.0103531,-9.423578,1.8243817
0.15631786,4.9193897,-0.04017841,-0.124036625,0.2377542,-1.0103531,-9.423578,1.8243817
0.15640032,4.9193697,-0.033786822,-0.124036625,0.2526679,-0.90979666,-9.41879,1.9201498
0.15648282,4.91935,-0.033786822,-0.124036625,0.2526679,-0.90979666,-9.41879,1.9201498
0.15657507,4.9193516,-0.029525764,-0.121906094,0.26225528,-0.842759,-9.442732,2.0015526
0.15666722,4.9193535,-0.029525764,-0.121906094,0.26225528,-0.842759,-9.442732,2.0015526
0.15677086,4.919381,-0.025264706,-0.11551451,0.26651633,-0.8619126,-9.457097,2.1164744
0.15687457,4.9194083,-0.025264706,-0.11551451,0.26651633,-0.8619126,-9.457097,2.1164744
0.15698352,4.919447,-0.021003649,-0.109122925,0.26651633,-0.842759,-9.390059,2.1499932
0.157092,4.919485,-0.021003649,-0.109122925,0.26651633,-0.842759,-9.390059,2.1499932
0.15719745,4.9195256,-0.017807856,-0.09953554,0.26119003,-0.8858546,-9.390059,2.1404164
0.15730287,4.9195657,-0.017807856,-0.09953554,0.26119003,-0.8858546,-9.390059,2.1404164
0.15740688,4.9196143,-0.017807856,-0.08888289,0.25053737,-0.89064306,-9.332599,2.1883004
0.157509,4.919662,-0.017807856,-0.08888289,0.25053737,-0.89064306,-9.332599,2.1883004
0.15760227,4.91971,-0.017807856,-0.079295516,0.23668894,-0.8810662,-9.3182335,2.1978772
0.15769692,4.9197583,-0.017807856,-0.079295516,0.23668894,-0.8810662,-9.3182335,2.1978772
0.15777206,4.9197993,-0.017807856,-0.06970814,0.21964471,-0.80924016,-9.399636,2.2122424
0.15784676,4.91984,-0.017807856,-0.06970814,0.21964471,-0.80924016,-9.399636,2.2122424
0.15790598,4.9198837,-0.018873122,-0.059055492,0.1962089,-0.80924016,-9.428367,2.2697031
0.1579652,4.9199276,-0.018873122,-0.059055492,0.1962089,-0.80924016,-9.428367,2.2697031
0.15800375,4.9199705,-0.021003649,-0.047337584,0.16957727,-0.81881696,-9.466674,2.3080103
0.15804219,4.920013,-0.021003649,-0.047337584,0.16957727,-0.81881696,-9.466674,2.3080103
0.15804811,4.9200478,-0.024199443,-0.036684938,0.13548881,-0.79966336,-9.591172,2.336741
0.15805392,4.9200826,-0.024199443,-0.036684938,0.13548881,-0.79966336,-9.591172,2.336741
0.15802626,4.920115,-0.027395237,-0.027097559,0.09607403,-0.842759,-9.643845,2.3654714
0.15799859,4.920148,-0.027395237,-0.027097559,0.09607403,-0.842759,-9.643845,2.3654714
0.15792614,4.9201717,-0.029525764,-0.021771235,0.05346345,-0.8858546,-9.720459,2.3319526
0.15785058,4.9201965,-0.029525764,-0.021771235,0.05346345,-0.8858546,-9.720459,2.3319526
0.1577329,4.920214,-0.03059103,-0.019640706,0.0065918155,-0.9624691,-9.773131,2.2936451
0.15761341,4.920232,-0.03059103,-0.019640706,0.0065918155,-0.9624691,-9.773131,2.2936451
0.15745053,4.920247,-0.03059103,-0.019640706,-0.039214555,-1.0965444,-9.816227,2.2505496
0.15728487,4.9202623,-0.03059103,-0.019640706,-0.039214555,-1.0965444,-9.816227,2.2505496
0.15706448,4.920256,-0.029525764,-0.023901764,-0.08182514,-1.2593501,-9.864111,2.135628
0.15684393,4.9202495,-0.029525764,-0.023901764,-0.08182514,-1.2593501,-9.864111,2.135628
0.15658677,4.920185,-0.027395237,-0.031358615,-0.122305185,-1.4173675,-9.868899,2.030283
0.15632993,4.9201202,-0.027395237,-0.031358615,-0.122305185,-1.4173675,-9.868899,2.030283
0.15619819,4.9199963,-0.026329972,-0.04201126,-0.15639365,-1.6232687,-9.835381,1.9297266
0.15606768,4.919873,-0.026329972,-0.04201126,-0.15639365,-1.6232687,-9.835381,1.9297266
0.15597679,4.9197793,-0.024199443,-0.0558597,-0.17982946,-1.8148049,-9.849746,1.8962077
0.15588635,4.9196854,-0.024199443,-0.0558597,-0.17982946,-1.8148049,-9.849746,1.8962077
0.15577792,4.9195967,-0.022068914,-0.07290393,-0.19580843,-2.0159178,-9.835381,1.7429788
0.15566969,4.9195075,-0.022068914,-0.07290393,-0.19580843,-2.0159178,-9.835381,1.7429788
0.15555674,4.919428,-0.019938385,-0.09420922,-0.20220003,-2.1930888,-9.825804,1.6567876
0.15544413,4.9193487,-0.019938385,-0.09420922,-0.20220003,-2.1930888,-9.825804,1.6567876
0.15533859,4.919281,-0.015677327,-0.11657977,-0.19580843,-2.3319526,-9.797073,1.6136919
0.1552333,4.9192147,-0.015677327,-0.11657977,-0.19580843,-2.3319526,-9.797073,1.6136919
0.15514341,4.91916,-0.012481534,-0.14214613,-0.17982946,-2.3989902,-9.787497,1.6280571
0.15505363,4.9191055,-0.012481534,-0.14214613,-0.17982946,-2.3989902,-9.787497,1.6280571
0.15498327,4.919061,-0.010351005,-0.16877773,-0.15745892,-2.4660277,-9.797073,1.6328455
0.15491301,4.9190173,-0.010351005,-0.16877773,-0.15745892,-2.4660277,-9.797073,1.6328455
0.1548614,4.9189763,-0.0071552116,-0.19647461,-0.1276315,-2.4516625,-9.849746,1.5945383
0.15480982,4.9189353,-0.0071552116,-0.19647461,-0.1276315,-2.4516625,-9.849746,1.5945383
0.15478423,4.918898,-0.0028941538,-0.22310622,-0.08928198,-2.4181437,-9.907207,1.5562311
0.15475868,4.918861,-0.0028941538,-0.22310622,-0.08928198,-2.4181437,-9.907207,1.5562311
0.15477656,4.9188404,0.001366904,-0.25080308,-0.046671405,-2.4660277,-9.868899,1.6041151
0.15479389,4.91882,0.001366904,-0.25080308,-0.046671405,-2.4660277,-9.868899,1.6041151
0.1548377,4.918798,0.003497433,-0.27849996,-0.004060829,-2.4516625,-9.921572,1.5035586
0.15488206,4.9187756,0.003497433,-0.27849996,-0.004060829,-2.4516625,-9.921572,1.5035586
0.15495834,4.9187584,0.005627962,-0.30726212,0.039615013,-2.3175871,-10.007763,1.5753847
0.15503445,4.918741,0.005627962,-0.30726212,0.039615013,-2.3175871,-10.007763,1.5753847
0.15514524,4.9187303,0.008823755,-0.334959,0.08542138,-2.1452048,-9.959879,1.6472107
0.155256,4.9187193,0.008823755,-0.334959,0.08542138,-2.1452048,-9.959879,1.6472107
0.15540801,4.9187145,0.00988902,-0.3583948,0.13229302,-2.0446482,-9.969456,1.733402
0.1555598,4.91871,0.00988902,-0.3583948,0.13229302,-2.0446482,-9.969456,1.733402
0.15573578,4.918702,0.00988902,-0.3797001,0.17383833,-1.8674773,-9.964667,1.8100165
0.15590882,4.9186945,0.00988902,-0.3797001,0.17383833,-1.8674773,-9.964667,1.8100165
0.15605363,4.9186716,0.008823755,-0.3999401,0.20899206,-1.6376339,-9.950302,1.8674773
0.15619728,4.9186487,0.008823755,-0.3999401,0.20899206,-1.6376339,-9.950302,1.8674773
0.15625474,4.918647,0.0066932263,-0.41698435,0.23668894,-1.4173675,-9.935937,1.9201498
0.15631203,4.9186454,0.0066932263,-0.41698435,0.23668894,-1.4173675,-9.935937,1.9201498
0.15634042,4.9187016,0.0045626974,-0.42976752,0.2590595,-1.2545617,-9.878476,2.0111294
0.15636878,4.918758,0.0045626974,-0.42976752,0.2590595,-1.2545617,-9.878476,2.0111294
0.15640973,4.918813,0.0024321685,-0.4393549,0.2739732,-1.1013328,-9.787497,1.9680338
0.15645067,4.918869,0.0024321685,-0.4393549,0.2739732,-1.1013328,-9.787497,1.9680338
0.15649396,4.9189334,-0.0018288894,-0.44681177,0.28036478,-0.9816227,-9.68694,1.982399
0.15653716,4.9189987,-0.0018288894,-0.44681177,0.28036478,-0.9816227,-9.68694,1.982399
0.15657617,4.919064,-0.0071552116,-0.4510728,0.277169,-0.842759,-9.581595,1.9776106
0.156615,4.919129,-0.0071552116,-0.4510728,0.277169,-0.842759,-9.581595,1.9776106
0.15664566,4.91921,-0.0114162695,-0.45533386,0.2675816,-0.7134721,-9.514558,2.0733786
0.15667626,4.9192905,-0.0114162695,-0.45533386,0.2675816,-0.7134721,-9.514558,2.0733786
0.15668848,4.9193573,-0.017807856,-0.4574644,0.25053737,-0.5650316,-9.44752,2.0254946
0.15670064,4.919425,-0.017807856,-0.4574644,0.25053737,-0.5650316,-9.44752,2.0254946
0.15669462,4.9194856,-0.025264706,-0.45639914,0.23136261,-0.5410896,-9.437943,2.0398598
0.15668854,4.9195466,-0.025264706,-0.45639914,0.23136261,-0.5410896,-9.437943,2.0398598
0.15666091,4.919603,-0.033786822,-0.45533386,0.2079268,-0.45968673,-9.3661175,2.0685902
0.1566332,4.919659,-0.033786822,-0.45533386,0.2079268,-0.45968673,-9.3661175,2.0685902
0.15657812,4.9197087,-0.043374203,-0.45213807,0.1780994,-0.41180268,-9.361329,2.1068976
0.15652302,4.919758,-0.043374203,-0.45213807,0.1780994,-0.41180268,-9.361329,2.1068976
0.15643631,4.9197907,-0.052961584,-0.44681177,0.14614145,-0.35913026,-9.337387,2.0638018
0.15634964,4.919823,-0.052961584,-0.44681177,0.14614145,-0.35913026,-9.337387,2.0638018
0.15623705,4.9198484,-0.062548965,-0.44148543,0.11737932,-0.32561144,-9.32781,2.1021092
0.15612455,4.919874,-0.062548965,-0.44148543,0.11737932,-0.32561144,-9.32781,2.1021092
0.15598324,4.9198923,-0.07000581,-0.4329633,0.08542138,-0.32561144,-9.308656,2.1212628
0.15584388,4.91991,-0.07000581,-0.4329633,0.08542138,-0.32561144,-9.308656,2.1212628
0.15567148,4.9199147,-0.07852793,-0.42337593,0.052398186,-0.29688102,-9.32781,2.111686
0.15549143,4.91992,-0.07852793,-0.42337593,0.052398186,-0.29688102,-9.32781,2.111686
0.15529497,4.919915,-0.08811531,-0.41378856,0.019374989,-0.29688102,-9.3182335,2.1308396
0.15509422,4.91991,-0.08811531,-0.41378856,0.019374989,-0.29688102,-9.3182335,2.1308396
0.1548611,4.9198947,-0.09770269,-0.40526643,-0.014713474,-0.33997664,-9.3421755,2.1452048
0.1546269,4.919879,-0.09770269,-0.40526643,-0.014713474,-0.33997664,-9.3421755,2.1452048
0.15435785,4.9198384,-0.106224805,-0.3946138,-0.048801936,-0.34476504,-9.380483,2.0350714
0.15409051,4.919798,-0.106224805,-0.3946138,-0.048801936,-0.34476504,-9.380483,2.0350714
0.15379494,4.919748,-0.11581218,-0.38502643,-0.08182514,-0.31603462,-9.414001,2.0590134
0.15349762,4.9196973,-0.11581218,-0.38502643,-0.08182514,-0.31603462,-9.414001,2.0590134
0.15317146,4.919633,-0.12539956,-0.3765043,-0.11271781,-0.30166942,-9.428367,2.054225
0.15284562,4.9195695,-0.12539956,-0.3765043,-0.11271781,-0.30166942,-9.428367,2.054225
0.1524865,4.919492,-0.1360522,-0.37011272,-0.14467573,-0.33039984,-9.442732,2.0494366
0.15213284,4.9194155,-0.1360522,-0.37011272,-0.14467573,-0.33039984,-9.442732,2.0494366
0.15175217,4.91933,-0.1456396,-0.36265585,-0.17130736,-0.31603462,-9.528923,2.1021092
0.1513723,4.9192452,-0.1456396,-0.36265585,-0.17130736,-0.31603462,-9.528923,2.1021092
0.15096864,4.919142,-0.1541617,-0.35732955,-0.1968737,-0.29688102,-9.500193,2.0207062
0.15056257,4.919038,-0.1541617,-0.35732955,-0.1968737,-0.29688102,-9.500193,2.0207062
0.15013622,4.9189343,-0.16161856,-0.35200322,-0.22137478,-0.31603462,-9.490616,2.0973208
0.14970994,4.9188304,-0.16161856,-0.35200322,-0.22137478,-0.31603462,-9.490616,2.0973208
0.14926268,4.918705,-0.16801015,-0.3466769,-0.2416148,-0.33039984,-9.528923,1.9871874
0.14881597,4.91858,-0.16801015,-0.3466769,-0.2416148,-0.33039984,-9.528923,1.9871874
0.14835183,4.9184456,-0.175467,-0.3413506,-0.2597243,-0.29688102,-9.552865,1.9919758
0.14788817,4.9183116,-0.175467,-0.3413506,-0.2597243,-0.29688102,-9.552865,1.9919758
0.1474089,4.9181657,-0.18185858,-0.334959,-0.27676854,-0.29688102,-9.519346,1.9536686
0.1469298,4.9180202,-0.18185858,-0.334959,-0.27676854,-0.29688102,-9.519346,1.9536686
0.14643861,4.9178724,-0.18611965,-0.3285674,-0.29061696,-0.2777274,-9.557653,1.9919758
0.145948,4.917725,-0.18611965,-0.3285674,-0.29061696,-0.2777274,-9.557653,1.9919758
0.14544627,4.9175663,-0.19038069,-0.32111055,-0.30233487,-0.24899697,-9.591172,1.9488802
0.14494558,4.917407,-0.19038069,-0.32111055,-0.30233487,-0.24899697,-9.591172,1.9488802
0.1444347,4.917239,-0.19677228,-0.31258842,-0.3140528,-0.2633622,-9.639056,1.9488802
0.14392391,4.917071,-0.19677228,-0.31258842,-0.3140528,-0.2633622,-9.639056,1.9488802
0.14339973,4.916894,-0.20209861,-0.30406633,-0.32470542,-0.19632454,-9.629479,1.9393034
0.14258479,4.9166193,-0.20209861,-0.30406633,-0.32470542,-0.19632454,-9.629479,1.9393034
0.14227693,4.916511,-0.20635967,-0.29341367,-0.3321623,-0.20590134,-9.600749,1.9153614
0.14173724,4.9163227,-0.20635967,-0.29341367,-0.3321623,-0.20590134,-9.600749,1.9153614
0.1412567,4.916151,-0.20955546,-0.28489155,-0.33642334,-0.19632454,-9.595961,1.910573
0.14079355,4.915986,-0.20955546,-0.28489155,-0.33642334,-0.19632454,-9.595961,1.910573
0.14018342,4.9157577,-0.21062072,-0.2774347,-0.34068438,-0.18195933,-9.543288,1.8339585
0.1396975,4.915576,-0.21062072,-0.2774347,-0.34068438,-0.18195933,-9.543288,1.8339585
0.13916487,4.9153767,-0.21275125,-0.27210838,-0.34494546,-0.16280572,-9.500193,1.8387469
0.13866259,4.9151893,-0.21275125,-0.27210838,-0.34494546,-0.16280572,-9.500193,1.8387469
0.13812095,4.914994,-0.21381652,-0.26784733,-0.3502718,-0.095768064,-9.466674,1.8866309
0.13758256,4.914799,-0.21381652,-0.26784733,-0.3502718,-0.095768064,-9.466674,1.8866309
0.1370441,4.9146056,-0.21275125,-0.26145574,-0.35666338,-0.12449849,-9.471462,1.8770541
0.13650411,4.9144115,-0.21275125,-0.26145574,-0.35666338,-0.12449849,-9.471462,1.8770541
0.13595882,4.914211,-0.21488178,-0.25399888,-0.36092442,-0.08140286,-9.457097,1.8531121
0.1354174,4.914012,-0.21488178,-0.25399888,-0.36092442,-0.08140286,-9.457097,1.8531121
0.13487491,4.9138,-0.21807757,-0.24441151,-0.36198968,-0.110133275,-9.44752,1.7860745
0.13433404,4.9135885,-0.21807757,-0.24441151,-0.36198968,-0.110133275,-9.44752,1.7860745
0.13379285,4.913372,-0.22233863,-0.23375887,-0.36092442,-0.10055647,-9.466674,1.8052281
0.13324893,4.9131546,-0.22233863,-0.23375887,-0.36092442,-0.10055647,-9.466674,1.8052281
0.13271591,4.9129286,-0.22553442,-0.22204095,-0.35879388,-0.10534488,-9.41879,1.7429788
0.13218501,4.9127035,-0.22553442,-0.22204095,-0.35879388,-0.10534488,-9.41879,1.7429788
0.13165419,4.9124694,-0.22979549,-0.20819251,-0.35453284,-0.08619126,-9.485827,1.7477672
0.13113026,4.912238,-0.22979549,-0.20819251,-0.35453284,-0.08619126,-9.485827,1.7477672
0.13061373,4.9120016,-0.2351218,-0.19221355,-0.347076,-0.12449849,-9.500193,1.7764976
0.13009681,4.911764,-0.2351218,-0.19221355,-0.347076,-0.12449849,-9.500193,1.7764976
0.12958924,4.91153,-0.23938286,-0.17623459,-0.33961913,-0.10055647,-9.514558,1.8483237
0.12908182,4.911296,-0.23938286,-0.17623459,-0.33961913,-0.10055647,-9.514558,1.8483237
0.12858725,4.911054,-0.24364392,-0.15599456,-0.331097,-0.1436521,-9.595961,1.8579005
0.12809168,4.9108124,-0.24364392,-0.15599456,-0.331097,-0.1436521,-9.595961,1.8579005
0.12761067,4.910569,-0.24683972,-0.1368198,-0.32150963,-0.12928689,-9.619903,1.8866309
0.12712829,4.9103255,-0.24683972,-0.1368198,-0.32150963,-0.12928689,-9.619903,1.8866309
0.12665567,4.9100766,-0.2500355,-0.1187103,-0.31511804,-0.1436521,-9.615114,1.8818425
0.12618354,4.9098277,-0.2500355,-0.1187103,-0.31511804,-0.1436521,-9.615114,1.8818425
0.12572336,4.9095755,-0.25216603,-0.10060081,-0.30659592,-0.16280572,-9.624691,1.8866309
0.12526414,4.909324,-0.25216603,-0.10060081,-0.30659592,-0.16280572,-9.624691,1.8866309
0.12481406,4.9090633,-0.25110078,-0.08355658,-0.29913908,-0.20590134,-9.648633,1.8339585
0.12436483,4.908803,-0.25110078,-0.08355658,-0.29913908,-0.20590134,-9.648633,1.8339585
0.123926155,4.9085436,-0.2500355,-0.066512346,-0.29168224,-0.23942018,-9.639056,1.8435353
0.123487495,4.908284,-0.2500355,-0.066512346,-0.29168224,-0.23942018,-9.639056,1.8435353
0.12306464,4.908016,-0.2500355,-0.051598642,-0.28102958,-0.2633622,-9.672575,1.7908629
0.12263956,4.907747,-0.2500355,-0.051598642,-0.28102958,-0.2633622,-9.672575,1.7908629
0.122228734,4.9074707,-0.2500355,-0.03881547,-0.2714422,-0.29688102,-9.634268,1.7429788
0.12181789,4.9071946,-0.2500355,-0.03881547,-0.2714422,-0.29688102,-9.634268,1.7429788
0.12142413,4.906909,-0.2500355,-0.02496703,-0.2597243,-0.36391866,-9.672575,1.7046716
0.12103015,4.9066234,-0.2500355,-0.02496703,-0.2597243,-0.36391866,-9.672575,1.7046716
0.12064923,4.906336,-0.2500355,-0.012183856,-0.24907166,-0.37349546,-9.65821,1.6950948
0.12027464,4.9060526,-0.2500355,-0.012183856,-0.24907166,-0.37349546,-9.65821,1.6950948
0.11991369,4.905753,-0.25110078,-0.0025964756,-0.23735374,-0.45489833,-9.677363,1.6472107
0.11954536,4.905448,-0.25110078,-0.0025964756,-0.23735374,-0.45489833,-9.677363,1.6472107
0.11919943,4.9051466,-0.25110078,0.00592564,-0.2235053,-0.521936,-9.706094,1.6663644
0.11885511,4.904847,-0.25110078,0.00592564,-0.2235053,-0.521936,-9.706094,1.6663644
0.11853505,4.904533,-0.25110078,0.013382491,-0.20752634,-0.59376204,-9.706094,1.6136919
0.11821381,4.9042177,-0.25110078,0.013382491,-0.20752634,-0.59376204,-9.706094,1.6136919
0.117907956,4.9039097,-0.25110078,0.018708814,-0.18941684,-0.60333884,-9.701305,1.6519991
0.117602006,4.903602,-0.25110078,0.018708814,-0.18941684,-0.60333884,-9.701305,1.6519991
0.117330946,4.9032807,-0.24897024,0.022969872,-0.17024209,-0.6560113,-9.715671,1.5705963
0.11705935,4.90296,-0.24897024,0.022969872,-0.17024209,-0.6560113,-9.715671,1.5705963
0.11682241,4.9026294,-0.24790499,0.026165664,-0.1489368,-0.7565677,-9.715671,1.5562311
0.11658449,4.902299,-0.24790499,0.026165664,-0.1489368,-0.7565677,-9.715671,1.5562311
0.11638457,4.9019647,-0.24470918,0.029361458,-0.121239915,-0.8331822,-9.710882,1.5610195
0.116186,4.9016333,-0.24470918,0.029361458,-0.121239915,-0.8331822,-9.710882,1.5610195
0.11604344,4.9012947,-0.24044813,0.032557253,-0.08821672,-0.90500826,-9.710882,1.4987702
0.11590084,4.9009557,-0.24044813,0.032557253,-0.08821672,-0.90500826,-9.710882,1.4987702
0.11583296,4.9006176,-0.23618707,0.035753045,-0.053062994,-1.0486604,-9.672575,1.4556746
0.11576451,4.900276,-0.23618707,0.035753045,-0.053062994,-1.0486604,-9.672575,1.4556746
0.1157528,4.8999395,-0.23086074,0.035753045,-0.013648209,-1.1204864,-9.725247,1.412579
0.11574106,4.899603,-0.23086074,0.035753045,-0.013648209,-1.1204864,-9.725247,1.412579
0.11579663,4.899275,-0.22446916,0.03468778,0.030027634,-1.2018893,-9.65821,1.4891934
0.11585427,4.898935,-0.22446916,0.03468778,0.030027634,-1.2018893,-9.65821,1.4891934
0.115970425,4.89863,-0.21701232,0.033622514,0.075834006,-1.283292,-9.662998,1.4652514
0.11609078,4.8983145,-0.21701232,0.033622514,0.075834006,-1.283292,-9.662998,1.4652514
0.11628074,4.898013,-0.21062072,0.030426722,0.12590143,-1.3455414,-9.710882,1.5275006
0.116470695,4.897711,-0.21062072,0.030426722,0.12590143,-1.3455414,-9.710882,1.5275006
0.11673869,4.89743,-0.20209861,0.026165664,0.18129519,-1.3982137,-9.734824,1.5945383
0.11700666,4.897149,-0.20209861,0.026165664,0.18129519,-1.3982137,-9.734824,1.5945383
0.11733248,4.896882,-0.19038069,0.021904606,0.23988473,-1.4030021,-9.720459,1.5897499
0.1176582,4.8966155,-0.19038069,0.021904606,0.23988473,-1.4030021,-9.720459,1.5897499
0.11806087,4.8963733,-0.17866279,0.017643549,0.30167007,-1.4508862,-9.744401,1.6280571
0.11846349,4.896131,-0.17866279,0.017643549,0.30167007,-1.4508862,-9.744401,1.6280571
0.11893601,4.8959103,-0.16587962,0.01551302,0.36452067,-1.4748282,-9.706094,1.6376339
0.11940839,4.89569,-0.16587962,0.01551302,0.36452067,-1.4748282,-9.706094,1.6376339
0.119945146,4.895485,-0.15203118,0.014447756,0.43056706,-1.4939818,-9.715671,1.6280571
0.120481096,4.895279,-0.15203118,0.014447756,0.43056706,-1.4939818,-9.715671,1.6280571
0.12109684,4.8950987,-0.14031327,0.013382491,0.49980927,-1.484405,-9.730036,1.6807296
0.12171185,4.8949175,-0.14031327,0.013382491,0.49980927,-1.484405,-9.730036,1.6807296
0.12238448,4.8947425,-0.12539956,0.014447756,0.5679862,-1.532289,-9.749189,1.6232687
0.12305731,4.894567,-0.12539956,0.014447756,0.5679862,-1.532289,-9.749189,1.6232687
0.123797044,4.894411,-0.11155113,0.017643549,0.6340326,-1.4652514,-9.821015,1.6950948
0.12454127,4.894254,-0.11155113,0.017643549,0.6340326,-1.4652514,-9.821015,1.6950948
0.12532236,4.894092,-0.09557216,0.022969872,0.70220953,-1.4317327,-9.864111,1.6472107
0.12608674,4.8939323,-0.09557216,0.022969872,0.70220953,-1.4317327,-9.864111,1.6472107
0.12689239,4.8937707,-0.0795932,0.029361458,0.7682559,-1.3551182,-9.950302,1.6567876
0.12770464,4.893606,-0.0795932,0.029361458,0.7682559,-1.3551182,-9.950302,1.6567876
0.12849595,4.8934608,-0.0614837,0.038948838,0.8300412,-1.2737153,-10.0269165,1.7286136
0.1292829,4.893316,-0.0614837,0.038948838,0.8300412,-1.2737153,-10.0269165,1.7286136
0.13002607,4.8933,-0.042308938,0.04853622,0.8875655,-1.1348516,-10.089166,1.8626889
0.13076779,4.8932843,-0.042308938,0.04853622,0.8875655,-1.1348516,-10.089166,1.8626889
0.13156989,4.89331,-0.02313418,0.0581236,0.9355024,-1.0103531,-10.108319,1.9393034
0.13237543,4.8933353,-0.02313418,0.0581236,0.9355024,-1.0103531,-10.108319,1.9393034
0.1332322,4.8934026,-0.0039594183,0.06771098,0.9717214,-0.8762778,-10.141838,2.1068976
0.13408907,4.8934693,-0.0039594183,0.06771098,0.9717214,-0.8762778,-10.141838,2.1068976
0.1350044,4.893562,0.015215342,0.07729836,0.99941826,-0.6991069,-10.170568,2.255338
0.13587299,4.893649,0.015215342,0.07729836,0.99941826,-0.6991069,-10.170568,2.255338
0.13675117,4.8937464,0.030129045,0.08475521,1.0153973,-0.51714754,-10.175357,2.3175871
0.1376506,4.8938456,0.030129045,0.08475521,1.0153973,-0.51714754,-10.175357,2.3175871
0.1385555,4.8939567,0.04291222,0.09327733,1.0175278,-0.35913026,-10.160992,2.3942018
0.13945733,4.894067,0.04291222,0.09327733,1.0175278,-0.35913026,-10.160992,2.3942018
0.14035793,4.8941903,0.054630127,0.100734174,1.0068752,-0.24899697,-10.103531,2.4756045
0.14125544,4.894313,0.054630127,0.100734174,1.0068752,-0.24899697,-10.103531,2.4756045
0.14213233,4.8944445,0.06421751,0.10925629,0.9834393,-0.16759412,-10.0748005,2.528277
0.14300631,4.894575,0.06421751,0.10925629,0.9834393,-0.16759412,-10.0748005,2.528277
0.143859,4.8947167,0.07273962,0.118843675,0.95041615,-0.12449849,-10.0748005,2.633622
0.14470628,4.8948574,0.07273962,0.118843675,0.95041615,-0.12449849,-10.0748005,2.633622
0.14551017,4.894997,0.08019647,0.12736578,0.9088708,-0.10055647,-10.0508585,2.5234885
0.146317,4.895138,0.08019647,0.12736578,0.9088708,-0.10055647,-10.0508585,2.5234885
0.14707613,4.8952785,0.08552279,0.1358879,0.8641297,-0.02873042,-10.04607,2.5330653
0.14783888,4.89542,0.08552279,0.1358879,0.8641297,-0.02873042,-10.04607,2.5330653
0.14854765,4.8955636,0.091914386,0.14441001,0.81512755,-0.02873042,-10.007763,2.528277
0.14926192,4.8957086,0.091914386,0.14441001,0.81512755,-0.02873042,-10.007763,2.528277
0.14992258,4.895855,0.09617544,0.15186687,0.7618643,-0.062249243,-10.0748005,2.552219
0.150589,4.896003,0.09617544,0.15186687,0.7618643,-0.062249243,-10.0748005,2.552219
0.1511998,4.8961554,0.10150176,0.15932372,0.70434004,-0.090979666,-10.0508585,2.585738
0.15183307,4.8963127,0.10150176,0.15932372,0.70434004,-0.090979666,-10.0508585,2.585738
0.15237117,4.8964605,0.105762824,0.16784583,0.64788103,-0.18195933,-10.0748005,2.5330653
0.15292026,4.8966107,0.105762824,0.16784583,0.64788103,-0.18195933,-10.0748005,2.5330653
0.1534204,4.896769,0.11108914,0.17317216,0.58929145,-0.24899697,-10.089166,2.5761611
0.15391879,4.896927,0.11108914,0.17317216,0.58929145,-0.24899697,-10.089166,2.5761611
0.15436484,4.89709,0.11748073,0.17636795,0.5317672,-0.2777274,-10.070012,2.5809495
0.1548124,4.897254,0.11748073,0.17636795,0.5317672,-0.2777274,-10.070012,2.5809495
