Pitch,Roll,Gyro_X,Gyro_Y,Gyro_Z,Accel_X,Accel_Y,Accel_Z
0.023983613,4.5322313,-0.0018288894,0.032557253,0.09820456,0.33039984,-9.509769,-1.6663644
0.02389117,4.532238,-0.0028941538,0.033622514,0.102465615,0.29688102,-9.528923,-1.7429788
0.023846218,4.5322323,-0.0028941538,0.033622514,0.102465615,0.29688102,-9.528923,-1.7429788
0.023805562,4.532221,-0.0039594183,0.032557253,0.106726676,0.31124622,-9.485827,-1.7525556
0.023764875,4.5322094,-0.0039594183,0.032557253,0.106726676,0.31124622,-9.485827,-1.7525556
0.02372735,4.5322037,-0.0050246827,0.032557253,0.10992247,0.33997664,-9.557653,-1.7381904
0.023689738,4.532198,-0.0050246827,0.032557253,0.10992247,0.33997664,-9.557653,-1.7381904
0.023656957,4.532173,-0.006089947,0.031491987,0.11311826,0.35434186,-9.481039,-1.8004397
0.023624325,4.5321493,-0.006089947,0.031491987,0.11311826,0.35434186,-9.481039,-1.8004397
0.023592053,4.532137,-0.0071552116,0.031491987,0.11524879,0.31124622,-9.514558,-1.7477672
0.023559779,4.5321255,-0.0071552116,0.031491987,0.11524879,0.31124622,-9.514558,-1.7477672
0.023531673,4.5321198,-0.0071552116,0.031491987,0.119509846,0.33997664,-9.500193,-1.7190368
0.023504006,4.5321145,-0.0071552116,0.031491987,0.119509846,0.33997664,-9.500193,-1.7190368
0.023478057,4.532106,-0.0071552116,0.031491987,0.12164038,0.30645782,-9.490616,-1.7286136
0.023452183,4.5320983,-0.0071552116,0.031491987,0.12164038,0.30645782,-9.490616,-1.7286136
0.023426339,4.5320826,-0.006089947,0.032557253,0.12164038,0.31124622,-9.514558,-1.7669208
0.023400456,4.532067,-0.006089947,0.032557253,0.12164038,0.31124622,-9.514558,-1.7669208
0.0233767,4.532078,-0.0039594183,0.032557253,0.12164038,0.29688102,-9.56723,-1.6807296
0.023352886,4.532089,-0.0039594183,0.032557253,0.12164038,0.29688102,-9.56723,-1.6807296
0.023327343,4.532094,-0.0018288894,0.033622514,0.12164038,0.32561144,-9.586384,-1.7142484
0.023301741,4.5320992,-0.0018288894,0.033622514,0.12164038,0.32561144,-9.586384,-1.7142484
0.0232763,4.5320916,-0.0007636249,0.033622514,0.12270564,0.2873042,-9.581595,-1.7669208
0.023251342,4.5320845,-0.0007636249,0.033622514,0.12270564,0.2873042,-9.581595,-1.7669208
0.023226684,4.532087,0.00030163955,0.031491987,0.12270564,0.30166942,-9.557653,-1.7286136
0.023201898,4.532089,0.00030163955,0.031491987,0.12270564,0.30166942,-9.557653,-1.7286136
0.023175519,4.532089,0.0024321685,0.030426722,0.12164038,0.31603462,-9.605537,-1.757344
0.023150377,4.5320888,0.0024321685,0.030426722,0.12164038,0.31603462,-9.605537,-1.757344
0.0231222,4.5320973,0.0024321685,0.030426722,0.118444584,0.320823,-9.595961,-1.7190368
0.023093851,4.5321064,0.0024321685,0.030426722,0.118444584,0.320823,-9.595961,-1.7190368
0.023063201,4.532111,0.003497433,0.029361458,0.11631405,0.34476504,-9.600749,-1.7381904
0.023032596,4.5321164,0.003497433,0.029361458,0.11631405,0.34476504,-9.600749,-1.7381904
0.022999356,4.5321255,0.0045626974,0.026165664,0.11311826,0.37828386,-9.586384,-1.7238252
0.022966648,4.532134,0.0045626974,0.026165664,0.11311826,0.37828386,-9.586384,-1.7238252
0.02293092,4.532145,0.0045626974,0.0251004,0.10992247,0.34955344,-9.624691,-1.7238252
0.022895288,4.532156,0.0045626974,0.0251004,0.10992247,0.34955344,-9.624691,-1.7238252
0.022859026,4.5321794,0.0066932263,0.022969872,0.106726676,0.3878607,-9.595961,-1.6663644
0.022822859,4.532203,0.0066932263,0.022969872,0.106726676,0.3878607,-9.595961,-1.6663644
0.022785466,4.532236,0.008823755,0.020839343,0.102465615,0.40701428,-9.5385,-1.6184803
0.022747934,4.5322695,0.008823755,0.020839343,0.102465615,0.40701428,-9.5385,-1.6184803
0.022701474,4.532296,0.010954284,0.019774077,0.09607403,0.4357447,-9.56723,-1.661576
0.022655096,4.532323,0.010954284,0.019774077,0.09607403,0.4357447,-9.56723,-1.661576
0.02260281,4.5323505,0.0141500775,0.017643549,0.09074771,0.44532153,-9.514558,-1.661576
0.022551466,4.532378,0.0141500775,0.017643549,0.09074771,0.44532153,-9.514558,-1.661576
0.022495473,4.532413,0.018411135,0.01551302,0.08542138,0.4261679,-9.500193,-1.6472107
0.022439575,4.532448,0.018411135,0.01551302,0.08542138,0.4261679,-9.500193,-1.6472107
0.022380775,4.5324917,0.02160693,0.013382491,0.08009506,0.46926352,-9.471462,-1.6041151
0.022321915,4.532536,0.02160693,0.013382491,0.08009506,0.46926352,-9.471462,-1.6041151
0.022260575,4.532588,0.025867987,0.011251962,0.075834006,0.4357447,-9.509769,-1.5993267
0.02219911,4.5326395,0.025867987,0.011251962,0.075834006,0.4357447,-9.509769,-1.5993267
0.022134902,4.532695,0.031194309,0.008056169,0.07263821,0.47884035,-9.528923,-1.5993267
0.022070365,4.532751,0.031194309,0.008056169,0.07263821,0.47884035,-9.528923,-1.5993267
0.022005694,4.532822,0.037585896,0.00592564,0.06837715,0.48362875,-9.457097,-1.5370775
0.02194181,4.5328918,0.037585896,0.00592564,0.06837715,0.48362875,-9.457097,-1.5370775
0.021860965,4.5329747,0.041846953,0.0027298466,0.06624663,0.5363012,-9.442732,-1.5514427
0.021860965,4.5329747,0.041846953,0.0027298466,0.06624663,0.5363012,-9.442732,-1.5514427
0.02180166,4.5330353,0.041846953,0.0027298466,0.06624663,0.5363012,-9.442732,-1.5514427
0.021671467,4.5331798,0.047173277,-0.00046594674,0.06518136,0.49799395,-9.44752,-1.5562311
0.021599425,4.5332637,0.051434334,-0.00366174,0.06624663,0.50757074,-9.428367,-1.5514427
0.021599425,4.5332637,0.051434334,-0.00366174,0.06624663,0.50757074,-9.428367,-1.5514427
0.02146271,4.5334187,0.056760654,-0.005792269,0.06731189,0.5267244,-9.380483,-1.5993267
0.02146271,4.5334187,0.056760654,-0.005792269,0.06731189,0.5267244,-9.380483,-1.5993267
0.02132748,4.5335727,0.062086977,-0.007922798,0.06944242,0.5793968,-9.41879,-1.5945383
0.021261439,4.5336523,0.062086977,-0.007922798,0.06944242,0.5793968,-9.41879,-1.5945383
0.021261439,4.5336523,0.062086977,-0.007922798,0.06944242,0.5793968,-9.41879,-1.5945383
0.021261439,4.5336523,0.062086977,-0.007922798,0.06944242,0.5793968,-9.41879,-1.5945383
0.021075102,4.533928,0.073804885,-0.012183856,0.07689927,0.48362875,-9.380483,-1.6184803
0.021060618,4.5339494,0.073804885,-0.012183856,0.07689927,0.48362875,-9.380483,-1.6184803
0.020966059,4.5341225,0.07700068,-0.014314385,0.08542138,0.49320555,-9.404425,-1.5275006
0.020921763,4.5342293,0.07700068,-0.014314385,0.08542138,0.49320555,-9.404425,-1.5275006
0.020889498,4.5343456,0.08126174,-0.018575443,0.09500877,0.49799395,-9.380483,-1.4939818
0.020856222,4.5344653,0.08126174,-0.018575443,0.09500877,0.49799395,-9.380483,-1.4939818
0.020834342,4.5345826,0.08445753,-0.023901764,0.104596145,0.45968673,-9.394848,-1.508347
0.020811893,4.5347013,0.08445753,-0.023901764,0.104596145,0.45968673,-9.394848,-1.508347
0.020802915,4.534825,0.087653324,-0.027097559,0.11737932,0.45010993,-9.409213,-1.508347
0.020793868,4.534948,0.087653324,-0.027097559,0.11737932,0.45010993,-9.409213,-1.508347
0.020795314,4.535071,0.09084912,-0.030293351,0.12909722,0.51714754,-9.409213,-1.508347
0.020796645,4.535194,0.09084912,-0.030293351,0.12909722,0.51714754,-9.409213,-1.508347
0.02080754,4.5353174,0.09617544,-0.033489145,0.14081514,0.46447513,-9.428367,-1.5514427
0.020818384,4.5354404,0.09617544,-0.033489145,0.14081514,0.46447513,-9.428367,-1.5514427
0.02084303,4.535572,0.1004365,-0.036684938,0.15253304,0.46926352,-9.44752,-1.532289
0.020867508,4.5357027,0.1004365,-0.036684938,0.15253304,0.46926352,-9.44752,-1.532289
0.020906921,4.5358424,0.10363229,-0.03988073,0.16425095,0.49320555,-9.490616,-1.5035586
0.020946147,4.5359817,0.10363229,-0.03988073,0.16425095,0.49320555,-9.490616,-1.5035586
0.020993661,4.5361156,0.106828086,-0.045207053,0.17596887,0.45968673,-9.485827,-1.5514427
0.021041198,4.53625,0.106828086,-0.045207053,0.17596887,0.45968673,-9.485827,-1.5514427
0.02110321,4.536394,0.11002388,-0.048402846,0.1866215,0.4357447,-9.500193,-1.5227122
0.021164851,4.536538,0.11002388,-0.048402846,0.1866215,0.4357447,-9.500193,-1.5227122
0.021228537,4.536668,0.11321967,-0.051598642,0.19514363,0.44532153,-9.495404,-1.6089035
0.021290082,4.5367937,0.11321967,-0.051598642,0.19514363,0.44532153,-9.495404,-1.6089035
0.021365764,4.536925,0.1153502,-0.0558597,0.20579627,0.47884035,-9.457097,-1.6136919
0.021438068,4.53705,0.1153502,-0.0558597,0.20579627,0.47884035,-9.457097,-1.6136919
0.021518866,4.53718,0.11748073,-0.059055492,0.21218786,0.45010993,-9.466674,-1.6184803
0.021602752,4.537315,0.11748073,-0.059055492,0.21218786,0.45010993,-9.466674,-1.6184803
0.021688486,4.537431,0.11748073,-0.064381815,0.21751417,0.47405192,-9.442732,-1.6807296
0.02177375,4.5375466,0.11748073,-0.064381815,0.21751417,0.47405192,-9.442732,-1.6807296
0.021861883,4.537658,0.118545994,-0.06757761,0.21964471,0.48362875,-9.476251,-1.70946
0.02194977,4.53777,0.118545994,-0.06757761,0.21964471,0.48362875,-9.476251,-1.70946
0.022041226,4.5378766,0.118545994,-0.0707734,0.22177523,0.49320555,-9.428367,-1.7286136
0.022132725,4.5379825,0.118545994,-0.0707734,0.22177523,0.49320555,-9.428367,-1.7286136
0.022227501,4.5380793,0.11748073,-0.07396919,0.2228405,0.45010993,-9.404425,-1.7621324
0.022322489,4.5381756,0.11748073,-0.07396919,0.2228405,0.45010993,-9.404425,-1.7621324
0.0224181,4.5382695,0.118545994,-0.077164985,0.22177523,0.49320555,-9.323022,-1.7764976
0.02251377,4.538363,0.118545994,-0.077164985,0.22177523,0.49320555,-9.323022,-1.7764976
0.022609662,4.5384493,0.118545994,-0.08036078,0.21857944,0.49799395,-9.275137,-1.8100165
0.02270563,4.5385356,0.118545994,-0.08036078,0.21857944,0.49799395,-9.275137,-1.8100165
0.022794632,4.538638,0.119611256,-0.08142605,0.21644892,0.50278234,-9.323022,-1.733402
0.022883594,4.53874,0.119611256,-0.08142605,0.21644892,0.50278234,-9.323022,-1.733402
0.022969672,4.538841,0.12174179,-0.08249131,0.21218786,0.48841715,-9.251195,-1.7381904
0.023055708,4.5389414,0.12174179,-0.08249131,0.21218786,0.48841715,-9.251195,-1.7381904
0.023137769,4.539052,0.12493758,-0.08142605,0.21005733,0.44532153,-9.313444,-1.7046716
0.02322098,4.5391645,0.12493758,-0.08142605,0.21005733,0.44532153,-9.313444,-1.7046716
0.023299027,4.539285,0.12919864,-0.08142605,0.2079268,0.38307226,-9.404425,-1.6807296
0.023378124,4.539407,0.12919864,-0.08142605,0.2079268,0.38307226,-9.404425,-1.6807296
0.023456182,4.539538,0.13239443,-0.08249131,0.20686153,0.32561144,-9.44752,-1.661576
0.023534173,4.539668,0.13239443,-0.08249131,0.20686153,0.32561144,-9.44752,-1.661576
0.02361346,4.53981,0.13772075,-0.08249131,0.2079268,0.30166942,-9.533711,-1.6519991
0.023692528,4.5399513,0.13772075,-0.08249131,0.2079268,0.30166942,-9.533711,-1.6519991
0.023775546,4.5401,0.14198181,-0.08462184,0.21112259,0.33039984,-9.562442,-1.6424223
0.023858873,4.5402493,0.14198181,-0.08462184,0.21112259,0.33039984,-9.562442,-1.6424223
0.023946468,4.540385,0.14624287,-0.0856871,0.21538365,0.272939,-9.581595,-1.70946
0.024034113,4.5405197,0.14624287,-0.0856871,0.21538365,0.272939,-9.581595,-1.70946
0.024123536,4.5406713,0.15050393,-0.08888289,0.21751417,0.2873042,-9.600749,-1.6663644
0.024213327,4.540823,0.15050393,-0.08888289,0.21751417,0.2873042,-9.600749,-1.6663644
0.024308933,4.540974,0.15369973,-0.093143955,0.2228405,0.272939,-9.576807,-1.6759412
0.0244043,4.541124,0.15369973,-0.093143955,0.2228405,0.272939,-9.576807,-1.6759412
0.024505548,4.541278,0.15796077,-0.09633975,0.22816682,0.32561144,-9.572019,-1.6759412
0.02460699,4.541432,0.15796077,-0.09633975,0.22816682,0.32561144,-9.572019,-1.6759412
0.024716849,4.541572,0.16115656,-0.09953554,0.23349315,0.32561144,-9.524135,-1.7381904
0.024826815,4.541712,0.16115656,-0.09953554,0.23349315,0.32561144,-9.524135,-1.7381904
0.024951452,4.5418353,0.1664829,-0.10166607,0.2377542,0.25378537,-9.490616,-1.8100165
0.025076453,4.5419593,0.1664829,-0.10166607,0.2377542,0.25378537,-9.490616,-1.8100165
0.025201092,4.542093,0.16967869,-0.105927125,0.24094999,0.2681506,-9.461885,-1.7764976
0.02532588,4.542227,0.16967869,-0.105927125,0.24094999,0.2681506,-9.461885,-1.7764976
0.025460703,4.542351,0.17074396,-0.106992394,0.2441458,0.22984336,-9.44752,-1.8100165
0.025595361,4.5424747,0.17074396,-0.106992394,0.2441458,0.22984336,-9.44752,-1.8100165
0.025732605,4.5426016,0.17180921,-0.109122925,0.24734159,0.29209262,-9.41879,-1.8195933
0.025869759,4.542728,0.17180921,-0.109122925,0.24734159,0.29209262,-9.41879,-1.8195933
0.026006056,4.542864,0.17287448,-0.110188186,0.25160265,0.2681506,-9.428367,-1.7717092
0.026142849,4.5429993,0.17287448,-0.110188186,0.25160265,0.2681506,-9.428367,-1.7717092
0.02627798,4.5431447,0.175005,-0.11125345,0.25373316,0.29209262,-9.437943,-1.7429788
0.026413158,4.54329,0.175005,-0.11125345,0.25373316,0.29209262,-9.437943,-1.7429788
0.026542485,4.5434566,0.17607027,-0.11338398,0.25373316,0.24420857,-9.481039,-1.6567876
0.026672656,4.5436244,0.17607027,-0.11338398,0.25373316,0.24420857,-9.481039,-1.6567876
0.02680375,4.5437827,0.17820081,-0.11338398,0.2526679,0.2777274,-9.471462,-1.6998832
0.026934626,4.5439405,0.17820081,-0.11338398,0.2526679,0.2777274,-9.471462,-1.6998832
0.02706773,4.5440965,0.18033133,-0.11231872,0.25373316,0.30645782,-9.461885,-1.7190368
0.027200943,4.5442524,0.18033133,-0.11231872,0.25373316,0.30645782,-9.461885,-1.7190368
0.027328437,4.5444293,0.1845924,-0.11338398,0.25160265,0.21068975,-9.509769,-1.6472107
0.02745594,4.5446057,0.1845924,-0.11338398,0.25160265,0.21068975,-9.509769,-1.6472107
0.027581057,4.5447984,0.18885344,-0.11444924,0.24947211,0.23942018,-9.509769,-1.6041151
0.02770572,4.5449896,0.18885344,-0.11444924,0.24947211,0.23942018,-9.509769,-1.6041151
0.027829634,4.5451922,0.1931145,-0.11657977,0.24734159,0.22505496,-9.5385,-1.5849615
0.027953466,4.545394,0.1931145,-0.11657977,0.24734159,0.22505496,-9.5385,-1.5849615
0.028077656,4.545617,0.19950609,-0.11764504,0.2441458,0.23463176,-9.562442,-1.532289
0.028201416,4.5458393,0.19950609,-0.11764504,0.2441458,0.23463176,-9.562442,-1.532289
0.028319107,4.546042,0.20483242,-0.12084083,0.24094999,0.24899697,-9.5385,-1.6184803
0.02843669,4.5462446,0.20483242,-0.12084083,0.24094999,0.24899697,-9.5385,-1.6184803
0.028551627,4.546462,0.21335453,-0.122971356,0.2377542,0.2633622,-9.581595,-1.5993267
0.028666642,4.5466795,0.21335453,-0.122971356,0.2377542,0.2633622,-9.581595,-1.5993267
0.028776739,4.546913,0.22081138,-0.12723242,0.23136261,0.22026655,-9.557653,-1.5610195
0.028886847,4.547146,0.22081138,-0.12723242,0.23136261,0.22026655,-9.557653,-1.5610195
0.02899136,4.5473866,0.22933349,-0.13255873,0.22497103,0.22026655,-9.576807,-1.5658079
0.029095707,4.5476265,0.22933349,-0.13255873,0.22497103,0.22026655,-9.576807,-1.5658079
0.029196484,4.5478535,0.23998614,-0.1368198,0.21964471,0.18674773,-9.572019,-1.6472107
0.029196484,4.5478535,0.23998614,-0.1368198,0.21964471,0.18674773,-9.572019,-1.6472107
0.029400624,4.5483522,0.24957353,-0.14108086,0.21431838,0.20590134,-9.595961,-1.5705963
0.029491019,4.5485983,0.24957353,-0.14108086,0.21431838,0.20590134,-9.595961,-1.5705963
0.029580198,4.548857,0.26129144,-0.14640717,0.21005733,0.22984336,-9.600749,-1.5849615
0.029670948,4.549121,0.26129144,-0.14640717,0.21005733,0.22984336,-9.600749,-1.5849615
0.029758334,4.5493917,0.27300933,-0.15386403,0.20579627,0.22026655,-9.629479,-1.5993267
0.029846396,4.549664,0.27300933,-0.15386403,0.20579627,0.22026655,-9.629479,-1.5993267
0.029934872,4.5499287,0.28472725,-0.16132088,0.20153521,0.23942018,-9.634268,-1.6759412
0.030023426,4.550192,0.28472725,-0.16132088,0.20153521,0.23942018,-9.634268,-1.6759412
0.030106772,4.5504804,0.29751042,-0.16877773,0.19727415,0.35913026,-9.557653,-1.6328455
0.030189622,4.5507665,0.29751042,-0.16877773,0.19727415,0.35913026,-9.557653,-1.6328455
0.030268598,4.5510597,0.31242412,-0.17729984,0.18981731,0.30166942,-9.56723,-1.661576
0.030347718,4.5513525,0.31242412,-0.17729984,0.18981731,0.30166942,-9.56723,-1.661576
0.030424997,4.5516524,0.32627258,-0.18582197,0.18342571,0.15801731,-9.56723,-1.661576
0.030502375,4.5519514,0.32627258,-0.18582197,0.18342571,0.15801731,-9.56723,-1.661576
0.030574013,4.552269,0.34225154,-0.19753987,0.17703412,0.15322891,-9.543288,-1.6424223
0.030646166,4.552587,0.34225154,-0.19753987,0.17703412,0.15322891,-9.543288,-1.6424223
0.03071086,4.552943,0.35929576,-0.2113883,0.17277306,0.11492168,-9.581595,-1.5705963
0.030775439,4.553298,0.35929576,-0.2113883,0.17277306,0.11492168,-9.581595,-1.5705963
0.030839182,4.5536976,0.3784705,-0.22417149,0.16851202,0.17717093,-9.586384,-1.4891934
0.030899858,4.554078,0.3784705,-0.22417149,0.16851202,0.17717093,-9.586384,-1.4891934
0.030962668,4.5544796,0.3997758,-0.23695466,0.16744675,0.25378537,-9.528923,-1.541866
0.031028047,4.5548964,0.3997758,-0.23695466,0.16744675,0.25378537,-9.528923,-1.541866
0.031091945,4.5553055,0.42214635,-0.25080308,0.16425095,0.36870706,-9.44752,-1.5993267
0.031155555,4.5557117,0.42214635,-0.25080308,0.16425095,0.36870706,-9.44752,-1.5993267
0.031222185,4.556131,0.44451693,-0.26358625,0.16105516,0.37349546,-9.356541,-1.6424223
0.03128929,4.5565515,0.44451693,-0.26358625,0.16105516,0.37349546,-9.356541,-1.6424223
0.031353075,4.556999,0.469018,-0.27530417,0.15785937,0.34476504,-9.289502,-1.5993267
0.031416982,4.5574455,0.469018,-0.27530417,0.15785937,0.34476504,-9.289502,-1.5993267
0.031494357,4.5578957,0.49458435,-0.28915262,0.15466358,0.31603462,-9.299079,-1.7286136
0.031571813,4.5583434,0.49458435,-0.28915262,0.15466358,0.31603462,-9.299079,-1.7286136
0.031641245,4.558829,0.521216,-0.30406633,0.15146779,0.31124622,-9.423578,-1.6807296
0.031711016,4.559314,0.521216,-0.30406633,0.15146779,0.31124622,-9.423578,-1.6807296
0.031782784,4.5598264,0.5489128,-0.3221758,0.15040252,0.30166942,-9.5385,-1.6950948
0.0318549,4.560338,0.5489128,-0.3221758,0.15040252,0.30166942,-9.5385,-1.6950948
0.031927217,4.560884,0.57874024,-0.3413506,0.15040252,0.31124622,-9.65821,-1.6903064
0.03199989,4.5614285,0.57874024,-0.3413506,0.15040252,0.31124622,-9.65821,-1.6903064
0.032071743,4.5620117,0.6096329,-0.36372113,0.14933725,0.16759412,-9.773131,-1.6280571
0.03214391,4.562593,0.6096329,-0.36372113,0.14933725,0.16759412,-9.773131,-1.6280571
0.03214391,4.562593,0.6426561,-0.38928747,0.15040252,0.18195933,-9.844957,-1.7286136
0.03225186,4.5633163,0.6426561,-0.38928747,0.15040252,0.18195933,-9.844957,-1.7286136
0.032331537,4.5638447,0.67780983,-0.4180496,0.15572885,0.20590134,-9.883265,-1.5993267
0.032411322,4.5644903,0.67780983,-0.4180496,0.15572885,0.20590134,-9.883265,-1.5993267
0.032411322,4.5644903,0.67780983,-0.4180496,0.15572885,-0.062249243,-10.084377,-1.5131354
0.03266409,4.566623,0.7129636,-0.44681177,0.16105516,-0.062249243,-10.084377,-1.5131354
0.032853775,4.5674996,0.7534436,-0.4787697,0.16744675,-0.23463176,-10.25676,-1.3072342
0.032853775,4.5674996,0.7534436,-0.4787697,0.16744675,-0.23463176,-10.25676,-1.3072342
0.033215325,4.5692325,0.79498893,-0.51285815,0.17596887,-0.22984336,-10.34774,-1.340753
0.03339007,4.570107,0.79498893,-0.51285815,0.17596887,-0.22984336,-10.34774,-1.340753
0.033599924,4.571054,0.8375995,-0.54588133,0.1866215,-0.22984336,-10.429143,-1.2785037
0.03380564,4.5719967,0.8375995,-0.54588133,0.1866215,-0.22984336,-10.429143,-1.2785037
0.034083154,4.5729976,0.8802101,-0.57783926,0.19940469,-0.35434186,-10.510546,-1.2306197
0.034357496,4.573993,0.8802101,-0.57783926,0.19940469,-0.35434186,-10.510546,-1.2306197
0.034716707,4.5750127,0.91962487,-0.6087319,0.20899206,-0.5363012,-10.649409,-1.2785037
0.035080243,4.576041,0.91962487,-0.6087319,0.20899206,-0.5363012,-10.649409,-1.2785037
0.035471782,4.577102,0.95584387,-0.63855934,0.21964471,-0.6607997,-10.807426,-1.2258313
0.03585887,4.578148,0.95584387,-0.63855934,0.21964471,-0.6607997,-10.807426,-1.2258313
0.03625687,4.5792365,0.9878018,-0.6673215,0.23029736,-0.8331822,-11.008539,-1.0582372
0.036655627,4.580326,0.9878018,-0.6673215,0.23029736,-0.8331822,-11.008539,-1.0582372
0.037082873,4.581437,1.0154986,-0.6939531,0.23988473,-0.9864111,-11.219229,-1.0821792
0.03750933,4.582544,1.0154986,-0.6939531,0.23988473,-0.9864111,-11.219229,-1.0821792
0.037945997,4.583674,1.0378692,-0.7184542,0.24734159,-1.1061212,-11.429919,-1.0295067
0.038382977,4.5848036,1.0378692,-0.7184542,0.24734159,-1.1061212,-11.429919,-1.0295067
0.038834006,4.5859437,1.0527829,-0.7365637,0.25373316,-1.2641385,-11.678916,-1.0247183
0.03928616,4.5870857,1.0527829,-0.7365637,0.25373316,-1.2641385,-11.678916,-1.0247183
0.0397485,4.588229,1.061305,-0.7536079,0.25799423,-1.3934253,-11.827356,-1.0342951
0.040214203,4.5893807,1.061305,-0.7536079,0.25799423,-1.3934253,-11.827356,-1.0342951
0.040693928,4.5905094,1.061305,-0.7685216,0.25373316,-1.508347,-12.004527,-1.2401965
0.041167777,4.591624,1.061305,-0.7685216,0.25373316,-1.508347,-12.004527,-1.2401965
0.04164124,4.5927277,1.0549134,-0.78237003,0.2441458,-1.5753847,-12.124237,-1.3359646
0.042115714,4.593834,1.0549134,-0.78237003,0.2441458,-1.5753847,-12.124237,-1.3359646
0.042560916,4.59486,1.0389345,-0.798349,0.22497103,-1.3982137,-12.124237,-1.70946
0.043004844,4.595886,1.0389345,-0.798349,0.22497103,-1.3982137,-12.124237,-1.70946
0.043381657,4.596856,1.0154986,-0.81006694,0.19514363,-1.1444284,-12.196063,-1.9728222
0.04375575,4.597825,1.0154986,-0.81006694,0.19514363,-1.1444284,-12.196063,-1.9728222
0.044074833,4.5987544,0.9814102,-0.8175238,0.15466358,-1.0965444,-12.291832,-2.087744
0.044391546,4.599683,0.9814102,-0.8175238,0.15466358,-1.0965444,-12.291832,-2.087744
0.04467418,4.600584,0.94199544,-0.8175238,0.09713929,-1.4652514,-12.440272,-2.1452048
0.044955023,4.6014843,0.94199544,-0.8175238,0.09713929,-1.4652514,-12.440272,-2.1452048
0.045181904,4.602354,0.8983196,-0.8132627,0.02683184,-1.757344,-12.612655,-2.1021092
0.045407295,4.6032233,0.8983196,-0.8132627,0.02683184,-1.757344,-12.612655,-2.1021092
0.04555973,4.6040506,0.8503827,-0.80580586,-0.050932467,-1.7717092,-12.823344,-2.0207062
0.045710716,4.6048775,0.8503827,-0.80580586,-0.050932467,-1.7717092,-12.823344,-2.0207062
0.04578333,4.6056643,0.79925,-0.7887616,-0.1372189,-1.8100165,-13.086706,-1.8866309
0.0458547,4.6064506,0.79925,-0.7887616,-0.1372189,-1.8100165,-13.086706,-1.8866309
0.04583494,4.607189,0.7449215,-0.7568037,-0.22989689,-1.8148049,-13.354857,-1.8100165
0.045814164,4.607927,0.7449215,-0.7568037,-0.22989689,-1.8148049,-13.354857,-1.8100165
0.045684017,4.6086,0.690593,-0.7099321,-0.3289665,-1.9440918,-13.55597,-1.9680338
0.045552928,4.609273,0.690593,-0.7099321,-0.3289665,-1.9440918,-13.55597,-1.9680338
0.04531366,4.609885,0.6320035,-0.6460162,-0.43229714,-2.6431987,-13.776237,-2.255338
0.04507362,4.6104965,0.6320035,-0.6460162,-0.43229714,-2.6431987,-13.776237,-2.255338
0.04472223,4.611041,0.56595707,-0.5650561,-0.5388236,-3.5913026,-14.068329,-2.5713725
0.04437043,4.6115856,0.56595707,-0.5650561,-0.5388236,-3.5913026,-14.068329,-2.5713725
0.043906003,4.6120496,0.49458435,-0.47450864,-0.6400237,-4.4723687,-14.350845,-3.1268275
0.04345715,4.612497,0.49458435,-0.47450864,-0.6400237,-4.4723687,-14.350845,-3.1268275
0.04288815,4.612875,0.4146895,-0.38609168,-0.7348322,-5.080496,-14.748282,-3.514688
0.042299103,4.613265,0.4146895,-0.38609168,-0.7348322,-5.080496,-14.748282,-3.514688
0.041627422,4.6135473,0.32946837,-0.29874,-0.8243145,-5.3582234,-15.088259,-4.0078936
0.040959027,4.6138277,0.32946837,-0.29874,-0.8243145,-5.3582234,-15.088259,-4.0078936
0.040189523,4.6140122,0.23785561,-0.21032305,-0.91166615,-5.463568,-15.547946,-4.2425256
0.040189523,4.6140122,0.23785561,-0.21032305,-0.91166615,-5.463568,-15.547946,-4.2425256
0.038523175,4.614302,0.14198181,-0.122971356,-1.0032789,-5.4922986,-15.998055,-4.2999864
0.037667733,4.6143856,0.14198181,-0.122971356,-1.0032789,-5.4922986,-15.998055,-4.2999864
0.03671324,4.614371,0.04291222,-0.031358615,-1.1002179,-5.592855,-16.414646,-4.256891
0.03574141,4.614356,0.04291222,-0.031358615,-1.1002179,-5.592855,-16.414646,-4.256891
0.034661766,4.614248,-0.052961584,0.06664571,-1.2046139,-5.7748146,-16.821661,-4.0557775
0.033577986,4.614139,-0.052961584,0.06664571,-1.2046139,-5.7748146,-16.821661,-4.0557775
0.032383446,4.613948,-0.14244379,0.1689111,-1.3185972,-6.191406,-17.027563,-3.7780502
0.031181885,4.6137557,-0.14244379,0.1689111,-1.3185972,-6.191406,-17.027563,-3.7780502
0.029849907,4.6134853,-0.22553442,0.27224174,-1.4453636,-6.5984197,-17.233463,-3.5769374
0.028517956,4.613215,-0.22553442,0.27224174,-1.4453636,-6.5984197,-17.233463,-3.5769374
0.027047599,4.612881,-0.2979724,0.37237662,-1.5806522,-6.95755,-17.281347,-3.1890767
0.02557136,4.612546,-0.2979724,0.37237662,-1.5806522,-6.95755,-17.281347,-3.1890767
0.023949295,4.6121597,-0.35869247,0.4661199,-1.7223324,-7.1155677,-17.377115,-2.743755
0.022327105,4.6117735,-0.35869247,0.4661199,-1.7223324,-7.1155677,-17.377115,-2.743755
0.020545041,4.61135,-0.40662938,0.5492105,-1.8746653,-7.297527,-17.51119,-2.2361844
0.018760964,4.6109266,-0.40662938,0.5492105,-1.8746653,-7.297527,-17.51119,-2.2361844
0.016810397,4.610485,-0.4417831,0.62590957,-2.0387158,-7.517793,-17.736246,-1.4700398
0.014842005,4.6100407,-0.4417831,0.62590957,-2.0387158,-7.517793,-17.736246,-1.4700398
0.012715636,4.609585,-0.46415368,0.6940865,-2.2134192,-7.302315,-17.932571,-1.2162545
0.012715636,4.609585,-0.46415368,0.6940865,-2.2134192,-7.302315,-17.932571,-1.2162545
0.008263931,4.608657,-0.48226315,0.76013285,-2.3987753,-6.7372837,-17.942148,-0.9720459
0.0059239008,4.6081877,-0.48226315,0.76013285,-2.3987753,-6.7372837,-17.942148,-0.9720459
0.0033898985,4.607706,-0.50250316,0.8283098,-2.599045,-6.7085533,-18.143261,-0.7661445
0.0008504649,4.607225,-0.50250316,0.8283098,-2.599045,-6.7085533,-18.143261,-0.7661445
0.0008504649,4.607225,-0.50250316,0.8283098,-2.599045,-6.7085533,-18.143261,-0.7661445
6.278537,4.606233,-0.5291348,0.9007478,-2.8131633,-7.0820484,-18.459295,-0.30645782
6.27552,4.6057057,-0.5642885,0.9710552,-3.0389993,-7.6231384,-18.92377,0.2633622
6.272517,4.605183,-0.5642885,0.9710552,-3.0389993,-7.6231384,-18.92377,0.2633622
6.269286,4.604622,-0.60902965,1.0360364,-3.2690964,-8.221688,-19.31642,0.5793968
6.2660384,4.604059,-0.60902965,1.0360364,-3.2690964,-8.221688,-19.31642,0.5793968
6.262522,4.6034393,-0.6633581,1.0956912,-3.5002587,-8.892065,-19.756952,0.7182605
6.2590613,4.6028314,-0.6633581,1.0956912,-3.5002587,-8.892065,-19.756952,0.7182605
6.255348,4.602161,-0.72620875,1.1414975,-3.730356,-9.251195,-20.082563,0.8571242
6.2516346,4.6014934,-0.72620875,1.1414975,-3.730356,-9.251195,-20.082563,0.8571242
6.2476873,4.600757,-0.7986467,1.1617376,-3.9615183,-9.337387,-20.379444,1.0103531
6.2437396,4.6000233,-0.7986467,1.1617376,-3.9615183,-9.337387,-20.379444,1.0103531
6.239551,4.5992107,-0.8796068,1.1564113,-4.1990724,-9.193734,-20.518309,1.0821792
6.2353578,4.598399,-0.8796068,1.1564113,-4.1990724,-9.193734,-20.518309,1.0821792
6.2309294,4.5975046,-0.96695846,1.1329755,-4.4451485,-8.944737,-20.293253,1.2354081
6.2264915,4.59661,-0.96695846,1.1329755,-4.4451485,-8.944737,-20.293253,1.2354081
6.2217674,4.5956163,-1.0596365,1.0978217,-4.700812,-9.074024,-19.977219,1.541866
6.2171183,4.5946407,-1.0596365,1.0978217,-4.700812,-9.074024,-19.977219,1.541866
6.2121696,4.593568,-1.1501839,1.0530806,-4.9703236,-8.858546,-19.512743,1.9536686
6.207221,4.592497,-1.1501839,1.0530806,-4.9703236,-8.858546,-19.512743,1.9536686
6.2019815,4.591342,-1.2322093,1.0019479,-5.252619,-8.274361,-19.01475,2.5091233
6.1967363,4.590187,-1.2322093,1.0019479,-5.252619,-8.274361,-19.01475,2.5091233
6.191216,4.5889654,-1.3003863,0.9550763,-5.5455666,-7.9726915,-18.55985,3.1028855
6.18569,4.5877433,-1.3003863,0.9550763,-5.5455666,-7.9726915,-18.55985,3.1028855
6.1798606,4.5864606,-1.3568453,0.91353095,-5.8512974,-7.819463,-18.215086,3.6535518
6.174037,4.5851793,-1.3568453,0.91353095,-5.8512974,-7.819463,-18.215086,3.6535518
6.167845,4.583839,-1.3951948,0.87518144,-6.1634197,-7.762002,-17.942148,3.9983168
6.161751,4.5825186,-1.3951948,0.87518144,-6.1634197,-7.762002,-17.942148,3.9983168
6.1553073,4.5811553,-1.4207611,0.8368319,-6.4829993,-7.603985,-17.697939,4.0414124
6.1488576,4.5797887,-1.4207611,0.8368319,-6.4829993,-7.603985,-17.697939,4.0414124
6.1421022,4.578396,-1.4346095,0.79209083,-6.805774,-7.2544312,-17.252617,3.7349546
6.1353335,4.5769973,-1.4346095,0.79209083,-6.805774,-7.2544312,-17.252617,3.7349546
6.1282587,4.5755796,-1.4378054,0.7366971,-7.13068,-6.603208,-16.625336,3.2848446
6.1211843,4.5741587,-1.4378054,0.7366971,-7.13068,-6.603208,-16.625336,3.2848446
6.113797,4.572714,-1.4378054,0.66745484,-7.4587817,-5.793968,-15.734694,2.6719291
6.1064115,4.5712643,-1.4378054,0.66745484,-7.4587817,-5.793968,-15.734694,2.6719291
6.098646,4.569775,-1.4356749,0.5822337,-7.7858176,-4.7884035,-14.690822,2.1308396
6.0910206,4.5683055,-1.4356749,0.5822337,-7.7858176,-4.7884035,-14.690822,2.1308396
6.0830097,4.5667953,-1.432479,0.48209885,-8.117115,-3.4237084,-13.450625,1.8770541
6.0749836,4.565273,-1.432479,0.48209885,-8.117115,-3.4237084,-13.450625,1.8770541
6.0666604,4.5637217,-1.428218,0.3787682,-8.445216,-2.3654714,-12.224793,1.7525556
6.0583467,4.5621614,-1.428218,0.3787682,-8.445216,-2.3654714,-12.224793,1.7525556
6.049727,4.5605664,-1.4196959,0.27756807,-8.760534,-1.5562311,-10.807426,1.484405
6.0411005,4.5589566,-1.4196959,0.27756807,-8.760534,-1.5562311,-10.807426,1.484405
6.032186,4.5573196,-1.4069127,0.17317216,-9.064135,-0.30166942,-9.279925,1.2593501
6.023284,4.555669,-1.4069127,0.17317216,-9.064135,-0.30166942,-9.279925,1.2593501
6.0139866,4.5539737,-1.3898685,0.071972035,-9.34856,0.90500826,-7.728483,1.1013328
6.004869,4.552293,-1.3898685,0.071972035,-9.34856,0.90500826,-7.728483,1.1013328
5.995379,4.5505595,-1.3738896,-0.019640706,-9.601028,2.0829554,-6.3111157,0.89543146
5.985771,4.5487833,-1.3738896,-0.019640706,-9.601028,2.0829554,-6.3111157,0.89543146
5.976027,4.5469623,-1.35578,-0.10166607,-9.8236685,3.394978,-4.879383,0.48841715
5.9662776,4.5451164,-1.35578,-0.10166607,-9.8236685,3.394978,-4.879383,0.48841715
5.9563217,4.543191,-1.3376706,-0.17090826,-10.011155,4.620809,-3.4524388,0.18674773
5.946379,4.5412407,-1.3376706,-0.17090826,-10.011155,4.620809,-3.4524388,0.18674773
5.936295,4.53923,-1.3280832,-0.22417149,-10.159226,5.60722,-2.3223755,0.16759412
5.926204,4.537187,-1.3280832,-0.22417149,-10.159226,5.60722,-2.3223755,0.16759412
5.926204,4.537187,-1.323822,-0.26145574,-10.267884,6.50744,-1.3599066,-0.08140286
5.9058557,4.532955,-1.323822,-0.26145574,-10.267884,6.50744,-1.3599066,-0.08140286
5.8956313,4.5307617,-1.3291484,-0.28489155,-10.3317995,7.1490865,-0.45489833,-0.35913026
5.8854113,4.528534,-1.3291484,-0.28489155,-10.3317995,7.1490865,-0.45489833,-0.35913026
5.8751745,4.5262427,-1.3408663,-0.29874,-10.355235,7.5704656,-0.02873042,-0.7374141
5.864943,4.5239153,-1.3408663,-0.29874,-10.355235,7.5704656,-0.02873042,-0.7374141
5.854732,4.521526,-1.3579105,-0.30300105,-10.339256,8.058883,0.17717093,-1.091756
5.844516,4.5190945,-1.3579105,-0.30300105,-10.339256,8.058883,0.17717093,-1.091756
5.844516,4.5190945,-1.3579105,-0.30300105,-10.339256,8.058883,0.17717093,-1.091756
5.844516,4.5190945,-1.3579105,-0.30300105,-10.339256,8.058883,0.17717093,-1.091756
5.844516,4.5190945,-1.4186306,-0.29021788,-10.182663,8.820239,0.80924016,-1.958457
5.844516,4.5190945,-1.4186306,-0.29021788,-10.182663,8.820239,0.80924016,-1.958457
5.844516,4.5190945,-1.4186306,-0.29021788,-10.182663,9.078813,1.1587936,-2.2026656
5.844516,4.5190945,-1.4559149,-0.27956524,-10.045243,9.078813,1.1587936,-2.2026656
5.7748895,4.500295,-1.4921339,-0.2593252,-9.871606,9.179369,1.5227122,-2.1691468
5.7748895,4.500295,-1.4921339,-0.2593252,-9.871606,9.179369,1.5227122,-2.1691468
5.7555943,4.494528,-1.5240918,-0.23056307,-9.659617,8.848969,1.8722657,-2.2218192
5.746435,4.4916964,-1.5240918,-0.23056307,-9.659617,8.848969,1.8722657,-2.2218192
5.746435,4.4916964,-1.5475277,-0.19647461,-9.40715,8.528147,2.1930888,-2.3654714
5.728008,4.4857607,-1.5475277,-0.19647461,-9.40715,8.528147,2.1930888,-2.3654714
5.728008,4.4857607,-1.5475277,-0.19647461,-9.40715,8.528147,2.1930888,-2.3654714
5.7179313,4.4823837,-1.5613761,-0.16238615,-9.119529,8.360553,2.4947581,-2.3750482
5.701412,4.476689,-1.5624413,-0.13149348,-8.80208,8.446744,2.815581,-2.3798366
5.6928463,4.473645,-1.5624413,-0.13149348,-8.80208,8.446744,2.815581,-2.3798366
5.684566,4.4706335,-1.5475277,-0.09953554,-8.454803,8.413225,3.083732,-2.1883004
5.6762753,4.467572,-1.5475277,-0.09953554,-8.454803,8.413225,3.083732,-2.1883004
5.668361,4.4645977,-1.5145044,-0.06757761,-8.090484,8.523358,3.2130187,-1.9488802
5.6603975,4.461561,-1.5145044,-0.06757761,-8.090484,8.523358,3.2130187,-1.9488802
5.652841,4.458636,-1.4612412,-0.045207053,-7.7112494,8.561666,3.1890767,-1.9297266
5.6452894,4.4556704,-1.4612412,-0.045207053,-7.7112494,8.561666,3.1890767,-1.9297266
5.638137,4.452827,-1.3941295,-0.031358615,-7.323493,8.475474,3.1890767,-1.8387469
5.6309466,4.4499288,-1.3941295,-0.031358615,-7.323493,8.475474,3.1890767,-1.8387469
5.624167,4.4471664,-1.3174305,-0.023901764,-6.929345,8.767567,3.098097,-1.8914193
5.617379,4.444363,-1.3174305,-0.023901764,-6.929345,8.767567,3.098097,-1.8914193
5.6109514,4.441681,-1.2364703,-0.019640706,-6.5320015,8.844181,2.9496565,-1.9776106
5.604573,4.4389853,-1.2364703,-0.019640706,-6.5320015,8.844181,2.9496565,-1.9776106
5.5985603,4.4364185,-1.1565756,-0.008988062,-6.126136,8.6813755,2.7246015,-2.2601264
5.59257,4.4338293,-1.1565756,-0.008988062,-6.126136,8.6813755,2.7246015,-2.2601264
5.5869584,4.4313755,-1.0852028,0.0069909045,-5.7192044,8.537724,2.695871,-2.60968
5.5813446,4.428892,-1.0852028,0.0069909045,-5.7192044,8.537724,2.695871,-2.60968
5.576125,4.426552,-1.021287,0.022969872,-5.314404,8.389283,2.7102363,-2.9017725
5.570888,4.4241776,-1.021287,0.022969872,-5.314404,8.389283,2.7102363,-2.9017725
5.5660744,4.421953,-0.9701543,0.037883572,-4.9096036,8.24563,2.8060043,-3.1842883
5.5612535,4.4197025,-0.9701543,0.037883572,-4.9096036,8.24563,2.8060043,-3.1842883
5.5568104,4.417581,-0.9307395,0.052797277,-4.5101295,8.087613,2.8682537,-3.2513258
5.5523696,4.4154406,-0.9307395,0.052797277,-4.5101295,8.087613,2.8682537,-3.2513258
5.548298,4.413428,-0.8977163,0.06771098,-4.122373,7.905654,2.873042,-3.2704794
5.544229,4.4113994,-0.8977163,0.06771098,-4.122373,7.905654,2.873042,-3.2704794
5.540516,4.409501,-0.86575836,0.08155942,-3.7474,7.6853876,2.834735,-3.1747115
5.536805,4.4075885,-0.86575836,0.08155942,-3.7474,7.6853876,2.834735,-3.1747115
5.533432,4.4058084,-0.8316699,0.09753838,-3.3905365,7.5082164,2.753332,-3.1747115
5.530054,4.4040136,-0.8316699,0.09753838,-3.3905365,7.5082164,2.753332,-3.1747115
5.526999,4.4023647,-0.7922551,0.11564788,-3.0560434,7.445967,2.4899697,-3.0550013
5.5239487,4.400707,-0.7922551,0.11564788,-3.0560434,7.445967,2.4899697,-3.0550013
5.5211754,4.3991933,-0.7453835,0.13695318,-2.7492473,7.422025,2.3942018,-2.944868
5.518406,4.397673,-0.7453835,0.13695318,-2.7492473,7.422025,2.3942018,-2.944868
5.5158815,4.3963,-0.6889245,0.15825845,-2.4765396,7.431602,2.1930888,-2.8395233
5.5133457,4.394913,-0.6889245,0.15825845,-2.4765396,7.431602,2.1930888,-2.8395233
5.5110703,4.393704,-0.6218128,0.18169427,-2.2347245,7.321469,1.9632454,-2.72939
5.508777,4.39248,-0.6218128,0.18169427,-2.2347245,7.321469,1.9632454,-2.72939
5.506673,4.3914204,-0.54511374,0.20726062,-2.0291286,7.120356,1.7381904,-2.4612393
5.504567,4.3903556,-0.54511374,0.20726062,-2.0291286,7.120356,1.7381904,-2.4612393
5.502611,4.3894544,-0.45776206,0.2349575,-1.8586862,6.9048777,1.5466543,-2.3080103
5.50066,4.3885517,-0.45776206,0.2349575,-1.8586862,6.9048777,1.5466543,-2.3080103
5.498839,4.38782,-0.3618883,0.2647849,-1.7148756,6.6846113,1.4077905,-2.1260512
5.497007,4.3870807,-0.3618883,0.2647849,-1.7148756,6.6846113,1.4077905,-2.1260512
5.49528,4.3865128,-0.25536183,0.29141653,-1.5998269,6.6271505,1.1923125,-2.0111294
5.4935513,4.3859425,-0.25536183,0.29141653,-1.5998269,6.6271505,1.1923125,-2.0111294
5.491897,4.3855405,-0.14137854,0.3159176,-1.5135405,6.5122285,0.9959879,-1.8435353
5.4902434,4.385137,-0.14137854,0.3159176,-1.5135405,6.5122285,0.9959879,-1.8435353
5.488642,4.384899,-0.022068914,0.33828816,-1.4538858,6.555324,0.78050977,-1.6759412
5.4870253,4.3846583,-0.022068914,0.33828816,-1.4538858,6.555324,0.78050977,-1.6759412
5.48545,4.38457,0.1004365,0.35852817,-1.4176668,6.4882865,0.63206923,-1.7238252
5.4838715,4.3844805,0.1004365,0.35852817,-1.4176668,6.4882865,0.63206923,-1.7238252
5.482303,4.384526,0.21974611,0.37663767,-1.4006225,6.301539,0.5554548,-1.8531121
5.480735,4.38457,0.21974611,0.37663767,-1.4006225,6.301539,0.5554548,-1.8531121
5.479162,4.3847446,0.33585995,0.39155138,-1.4006225,6.1866174,0.59855044,-1.8387469
5.4775925,4.3849187,0.33585995,0.39155138,-1.4006225,6.1866174,0.59855044,-1.8387469
5.476009,4.385201,0.44558218,0.4032693,-1.4144709,6.009446,0.6655881,-1.9680338
5.4744205,4.3854847,0.44558218,0.4032693,-1.4144709,6.009446,0.6655881,-1.9680338
5.472811,4.385861,0.54571706,0.40753034,-1.4379067,5.813122,0.8619126,-2.0015526
5.4711957,4.3862386,0.54571706,0.40753034,-1.4379067,5.813122,0.8619126,-2.0015526
5.469562,4.386695,0.63519925,0.4053998,-1.4656037,5.6407394,1.1587936,-1.934515
5.4679317,4.38715,0.63519925,0.4053998,-1.4656037,5.6407394,1.1587936,-1.934515
5.4662704,4.3876834,0.7172246,0.402204,-1.4954311,5.592855,1.484405,-1.7669208
5.4646087,4.388217,0.7172246,0.402204,-1.4954311,5.592855,1.484405,-1.7669208
5.4629216,4.3888106,0.7896626,0.3936819,-1.5263238,5.650316,1.8195933,-1.6280571
5.4612346,4.3894053,0.7896626,0.3936819,-1.5263238,5.650316,1.8195933,-1.6280571
5.4595256,4.390051,0.85357845,0.381964,-1.5550859,5.851429,2.1308396,-1.4556746
5.4578156,4.3906965,0.85357845,0.381964,-1.5550859,5.851429,2.1308396,-1.4556746
5.456087,4.391383,0.90790695,0.36918083,-1.5827827,6.1195793,2.4612393,-1.2785037
5.4543533,4.3920712,0.90790695,0.36918083,-1.5827827,6.1195793,2.4612393,-1.2785037
5.452606,4.392787,0.95051754,0.35639766,-1.6072838,6.5601125,2.3223755,-1.0965444
5.4508533,4.3935046,0.95051754,0.35639766,-1.6072838,6.5601125,2.3223755,-1.0965444
5.4490886,4.394231,0.9792797,0.34467974,-1.6264586,6.71813,2.552219,-1.1827357
5.447323,4.3949566,0.9792797,0.34467974,-1.6264586,6.71813,2.552219,-1.1827357
5.445545,4.395681,0.9909976,0.33615762,-1.6424376,6.7851677,2.5905263,-1.1875241
5.4437666,4.3964057,0.9909976,0.33615762,-1.6424376,6.7851677,2.5905263,-1.1875241
5.4419785,4.397107,0.98247546,0.32337445,-1.656286,7.1059904,2.4372973,-1.1300632
5.4401894,4.397809,0.98247546,0.32337445,-1.656286,7.1059904,2.4372973,-1.1300632
5.4384036,4.398465,0.95584387,0.3159176,-1.656286,6.9527617,2.8203697,-1.4987702
5.436616,4.399122,0.95584387,0.3159176,-1.656286,6.9527617,2.8203697,-1.4987702
5.4348454,4.3997283,0.912168,0.3073955,-1.6466986,6.9958572,2.8682537,-1.4891934
5.433069,4.4003363,0.912168,0.3073955,-1.6466986,6.9958572,2.8682537,-1.4891934
5.4313188,4.4008746,0.85464376,0.289286,-1.6275239,7.2113357,3.0310593,-1.5035586
5.4295683,4.4014125,0.85464376,0.289286,-1.6275239,7.2113357,3.0310593,-1.5035586
5.4278574,4.401866,0.78646684,0.2679807,-1.5934354,7.0724716,3.2800562,-1.6424223
5.4261465,4.4023204,0.78646684,0.2679807,-1.5934354,7.0724716,3.2800562,-1.6424223
5.424492,4.40269,0.70976776,0.24134909,-1.5444332,6.9479733,3.4859576,-1.4556746
5.4228373,4.403059,0.70976776,0.24134909,-1.5444332,6.9479733,3.4859576,-1.4556746
5.4212513,4.4033313,0.6298729,0.2051301,-1.4847784,6.95755,3.6966474,-1.3599066
5.4196615,4.4036036,0.6298729,0.2051301,-1.4847784,6.95755,3.6966474,-1.3599066
5.4181647,4.403777,0.5467823,0.16358478,-1.4080794,7.1395097,3.8833952,-1.2066777
5.4166665,4.4039497,0.5467823,0.16358478,-1.4080794,7.1395097,3.8833952,-1.2066777
5.4152637,4.4040275,0.46262643,0.1209742,-1.3207277,7.4746976,4.050989,-1.0199299
5.4138584,4.4041038,0.46262643,0.1209742,-1.3207277,7.4746976,4.050989,-1.0199299
5.412559,4.4040866,0.3784705,0.08049415,-1.2248539,7.8146744,4.132392,-0.94810385
5.411259,4.404068,0.3784705,0.08049415,-1.2248539,7.8146744,4.132392,-0.94810385
5.4100714,4.403966,0.29431462,0.04427516,-1.1183275,8.145074,4.0701427,-0.79487497
5.4100714,4.403966,0.29431462,0.04427516,-1.1183275,8.145074,4.0701427,-0.79487497
5.407754,4.403695,0.21228927,0.014447756,-1.0043441,8.42759,3.9504328,-0.7182605
5.407754,4.403695,0.21228927,0.014447756,-1.0043441,8.42759,3.9504328,-0.7182605
5.4066844,4.4035187,0.13132916,-0.01324912,-0.8860998,8.643068,3.6248214,-0.6512229
5.404807,4.4030337,0.13132916,-0.01324912,-0.8860998,8.643068,3.6248214,-0.6512229
5.4039836,4.4027286,0.0524996,-0.037750203,-0.76039857,8.7053175,3.2561142,-0.60333884
5.4031587,4.402422,0.0524996,-0.037750203,-0.76039857,8.7053175,3.2561142,-0.60333884
5.4024663,4.4020743,-0.022068914,-0.054794434,-0.62724054,8.585608,2.825158,-0.48362875
5.4017715,4.401724,-0.022068914,-0.054794434,-0.62724054,8.585608,2.825158,-0.48362875
5.4012203,4.401348,-0.0945069,-0.066512346,-0.48236457,8.322245,2.2649148,-0.320823
5.40067,4.4009733,-0.0945069,-0.066512346,-0.48236457,8.322245,2.2649148,-0.320823
5.4002705,4.400588,-0.16161856,-0.07183866,-0.32150963,8.12592,1.5610195,-0.20590134
5.3998713,4.400203,-0.16161856,-0.07183866,-0.32150963,8.12592,1.5610195,-0.20590134
5.3996363,4.3998284,-0.22233863,-0.07396919,-0.1489368,7.9631147,0.6943185,-0.12449849
5.3994007,4.3994536,-0.22233863,-0.07396919,-0.1489368,7.9631147,0.6943185,-0.12449849
5.399341,4.3991065,-0.27879766,-0.07290393,0.03641922,7.8050976,-0.29209262,-0.0047884034
5.399281,4.3987603,-0.27879766,-0.07290393,0.03641922,7.8050976,-0.29209262,-0.0047884034
5.3994055,4.398449,-0.3341914,-0.0707734,0.23029736,7.6710224,-1.292869,-0.009576807
5.3995304,4.398137,-0.3341914,-0.0707734,0.23029736,7.6710224,-1.292869,-0.009576807
5.399838,4.397854,-0.39065042,-0.06331655,0.43163234,7.479486,-2.0829554,-0.38307226
5.4001474,4.3975697,-0.39065042,-0.06331655,0.43163234,7.479486,-2.0829554,-0.38307226
5.4006453,4.3973107,-0.45137048,-0.04946811,0.64148945,7.2831616,-2.5905263,-0.7517793
5.401147,4.397049,-0.45137048,-0.04946811,0.64148945,7.2831616,-2.5905263,-0.7517793
5.4018407,4.396781,-0.51848215,-0.030293351,0.85134655,7.2209125,-2.9592333,-1.2976574
5.4025297,4.396515,-0.51848215,-0.030293351,0.85134655,7.2209125,-2.9592333,-1.2976574
5.4033937,4.3962483,-0.5877243,-0.007922798,1.0569426,7.335834,-3.1890767,-1.7286136
5.4042683,4.3959785,-0.5877243,-0.007922798,1.0569426,7.335834,-3.1890767,-1.7286136
5.4053364,4.3957005,-0.6580318,0.013382491,1.2529513,7.603985,-3.3375173,-2.183512
5.4064054,4.395421,-0.6580318,0.013382491,1.2529513,7.603985,-3.3375173,-2.183512
5.407619,4.3951497,-0.7294045,0.033622514,1.4287199,7.867347,-3.4620156,-2.4660277
5.408848,4.3948746,-0.7294045,0.033622514,1.4287199,7.867347,-3.4620156,-2.4660277
5.4102206,4.3946004,-0.79758143,0.054927804,1.5767916,8.020576,-3.6343982,-2.6527755
5.4115896,4.3943257,-0.79758143,0.054927804,1.5767916,8.020576,-3.6343982,-2.6527755
5.413073,4.3940563,-0.8583015,0.0762331,1.6992971,8.322245,-3.7588966,-2.7868507
5.4145594,4.393786,-0.8583015,0.0762331,1.6992971,8.322245,-3.7588966,-2.7868507
5.4161196,4.39352,-0.9115647,0.09647312,1.7941055,8.494628,-4.0078936,-2.834735
5.41769,4.39325,-0.9115647,0.09647312,1.7941055,8.494628,-4.0078936,-2.834735
5.419294,4.392994,-0.95630586,0.117778406,1.8590868,8.738836,-4.271256,-2.7485435
5.4209013,4.3927355,-0.95630586,0.117778406,1.8590868,8.738836,-4.271256,-2.7485435
5.422893,4.3924294,-0.98932904,0.14227949,1.8985015,8.820239,-4.7022123,-2.7341783
5.422893,4.3924294,-0.98932904,0.14227949,1.8985015,8.820239,-4.7022123,-2.7341783
5.424405,4.392195,-0.98932904,0.14227949,1.8985015,8.820239,-4.7022123,-2.7341783
5.424405,4.392195,-0.98932904,0.14227949,1.8985015,8.820239,-4.7022123,-2.7341783
5.4291143,4.3915443,-1.0159607,0.19128166,1.9080889,8.949526,-5.506664,-2.528277
5.430774,4.3913274,-1.0159607,0.19128166,1.9080889,8.949526,-5.506664,-2.528277
5.432377,4.391145,-1.0085038,0.21045642,1.8835878,9.097966,-5.9663506,-2.4708161
5.4339805,4.390961,-1.0085038,0.21045642,1.8835878,9.097966,-5.9663506,-2.4708161
5.4339805,4.390961,-1.0085038,0.21045642,1.8835878,9.097966,-5.9663506,-2.4708161
5.436984,4.390698,-0.9882638,0.22537012,1.844173,9.169792,-6.4020953,-2.3702598
5.4385166,4.3906045,-0.9541753,0.23282696,1.791975,9.160215,-6.8905125,-2.3319526
5.4399977,4.390526,-0.9541753,0.23282696,1.791975,9.160215,-6.8905125,-2.3319526
5.4399977,4.390526,-0.9541753,0.23282696,1.791975,9.160215,-6.8905125,-2.3319526
5.4399977,4.390526,-0.9541753,0.23282696,1.791975,9.160215,-6.8905125,-2.3319526
5.4399977,4.390526,-0.9541753,0.23282696,1.791975,9.160215,-6.8905125,-2.3319526
5.4399977,4.390526,-0.9541753,0.23282696,1.791975,9.160215,-6.8905125,-2.3319526
5.4399977,4.390526,-0.9541753,0.23282696,1.791975,9.160215,-6.8905125,-2.3319526
5.448468,4.3906546,-0.9094342,0.2349575,1.7312549,9.203311,-7.302315,-2.231396
5.45007,4.3908334,-0.7176866,0.21258694,1.5118105,9.184157,-8.264784,-2.0446482
5.4514837,4.391017,-0.7176866,0.21258694,1.5118105,9.184157,-8.264784,-2.0446482
5.4529076,4.3912106,-0.63779175,0.19660798,1.4351114,9.102755,-8.48984,-2.0015526
5.454242,4.39142,-0.63779175,0.19660798,1.4351114,9.102755,-8.48984,-2.0015526
5.4555073,4.3916664,-0.55470115,0.17849848,1.3616081,9.217676,-8.542512,-2.054225
5.456782,4.391913,-0.55470115,0.17849848,1.3616081,9.217676,-8.542512,-2.054225
5.4579806,4.392197,-0.46841472,0.15825845,1.2944965,9.279925,-8.604761,-2.054225
5.4591804,4.39248,-0.46841472,0.15825845,1.2944965,9.279925,-8.604761,-2.054225
5.460305,4.3928027,-0.38106304,0.1390837,1.231646,9.370906,-8.623915,-2.0159178
5.4614463,4.3931293,-0.38106304,0.1390837,1.231646,9.370906,-8.623915,-2.0159178
5.462519,4.3934975,-0.29371136,0.11990894,1.1687953,9.428367,-8.619126,-2.0207062
5.4635954,4.393865,-0.29371136,0.11990894,1.1687953,9.428367,-8.619126,-2.0207062
5.4646244,4.3942823,-0.2052944,0.102864705,1.111271,9.375694,-8.6334915,-2.006341
5.465653,4.394699,-0.2052944,0.102864705,1.111271,9.375694,-8.6334915,-2.006341
5.4666452,4.3951693,-0.11900798,0.087951005,1.0601383,9.279925,-8.6095495,-2.0254946
5.4676313,4.3956356,-0.11900798,0.087951005,1.0601383,9.279925,-8.6095495,-2.0254946
5.468578,4.3961554,-0.034852087,0.071972035,1.0164626,9.251195,-8.561666,-1.9153614
5.469522,4.3966722,-0.034852087,0.071972035,1.0164626,9.251195,-8.561666,-1.9153614
5.4704485,4.397242,0.045042746,0.05599307,0.9834393,9.112331,-8.571242,-1.8387469
5.471374,4.39781,0.045042746,0.05599307,0.9834393,9.112331,-8.571242,-1.8387469
5.472277,4.398428,0.12387232,0.03681831,0.95680773,9.016563,-8.451532,-1.8243817
5.473178,4.3990426,0.12387232,0.03681831,0.95680773,9.016563,-8.451532,-1.8243817
5.474071,4.39971,0.20057136,0.018708814,0.93869823,8.738836,-8.226477,-1.8195933
5.4749637,4.4003763,0.20057136,0.018708814,0.93869823,8.738836,-8.226477,-1.8195933
5.4758525,4.4010935,0.27300933,0.0016645822,0.93230665,8.389283,-7.872135,-1.8195933
5.4767447,4.4018126,0.27300933,0.0016645822,0.93230665,8.389283,-7.872135,-1.8195933
5.4776015,4.402566,0.3433168,-0.017510178,0.93869823,8.441956,-7.560889,-1.8339585
5.478463,4.403322,0.3433168,-0.017510178,0.93869823,8.441956,-7.560889,-1.8339585
5.4792824,4.404078,0.40829793,-0.033489145,0.95680773,8.552089,-7.129933,-1.934515
5.4800997,4.4048295,0.40829793,-0.033489145,0.95680773,8.552089,-7.129933,-1.934515
5.480928,4.4055967,0.469018,-0.04201126,0.98876566,8.561666,-6.7324953,-1.9871874
5.4817553,4.4063606,0.469018,-0.04201126,0.98876566,8.561666,-6.7324953,-1.9871874
5.482615,4.40716,0.525477,-0.044141788,1.0281805,8.714894,-6.244078,-1.9967642
5.4834723,4.407954,0.525477,-0.044141788,1.0281805,8.714894,-6.244078,-1.9967642
5.4843764,4.4087934,0.57447916,-0.040945996,1.0739868,8.882488,-5.765238,-2.0925324
5.485279,4.409629,0.57447916,-0.040945996,1.0739868,8.882488,-5.765238,-2.0925324
5.486223,4.4105062,0.6160245,-0.03455441,1.1240542,9.083601,-5.3007627,-2.1930888
5.4871716,4.411386,0.6160245,-0.03455441,1.1240542,9.083601,-5.3007627,-2.1930888
5.4881716,4.412309,0.64372134,-0.02496703,1.179448,9.222465,-4.745308,-2.255338
5.4891706,4.41323,0.64372134,-0.02496703,1.179448,9.222465,-4.745308,-2.255338
5.490223,4.4141884,0.66183084,-0.014314385,1.2369722,9.279925,-4.3143516,-2.3223755
5.4912796,4.415149,0.66183084,-0.014314385,1.2369722,9.279925,-4.3143516,-2.3223755
5.492387,4.416139,0.66928774,-0.0025964756,1.296627,9.32781,-3.7684734,-2.3175871
5.492387,4.416139,0.66928774,-0.0025964756,1.296627,9.32781,-3.7684734,-2.3175871
5.492387,4.416139,0.66928774,-0.0025964756,1.296627,9.32781,-3.7684734,-2.3175871
5.4958243,4.4191732,0.6682224,0.010186698,1.3637388,9.356541,-3.2561142,-2.3175871
5.4970307,4.4201846,0.66183084,0.0251004,1.4383073,9.284714,-2.6192567,-2.327164
5.4982495,4.4212036,0.66183084,0.0251004,1.4383073,9.284714,-2.6192567,-2.327164
5.4995623,4.422265,0.6522435,0.04107937,1.5192673,9.222465,-2.030283,-2.2984335
5.5008755,4.423324,0.6522435,0.04107937,1.5192673,9.222465,-2.030283,-2.2984335
5.5022707,4.4244137,0.6426561,0.05918886,1.606619,9.188946,-1.4700398,-2.2936451
5.503666,4.4254994,0.6426561,0.05918886,1.606619,9.188946,-1.4700398,-2.2936451
5.5051517,4.4266176,0.634134,0.07516783,1.7035581,9.255983,-0.91458505,-2.255338
5.5066366,4.427732,0.634134,0.07516783,1.7035581,9.255983,-0.91458505,-2.255338
5.5082207,4.4288826,0.6256119,0.09221206,1.8090193,9.284714,-0.521936,-2.1883004
5.5098057,4.43003,0.6256119,0.09221206,1.8090193,9.284714,-0.521936,-2.1883004
5.5114923,4.4312067,0.61708975,0.10819103,1.9208721,9.303867,-0.04309563,-2.207454
5.5131865,4.432385,0.61708975,0.10819103,1.9208721,9.303867,-0.04309563,-2.207454
5.5149884,4.433604,0.61282873,0.12736578,2.0401816,9.3182335,0.29688102,-2.1499932
5.5167947,4.43482,0.61282873,0.12736578,2.0401816,9.3182335,0.29688102,-2.1499932
5.5187197,4.4360785,0.60856766,0.14441001,2.1680133,9.433155,0.7134721,-2.0925324
5.520636,4.4373255,0.60856766,0.14441001,2.1680133,9.433155,0.7134721,-2.0925324
5.522687,4.438613,0.6032413,0.15612793,2.299041,9.519346,1.0869676,-2.1212628
5.5247374,4.4398937,0.6032413,0.15612793,2.299041,9.519346,1.0869676,-2.1212628
5.526921,4.4412107,0.5957845,0.16784583,2.43646,9.734824,1.412579,-2.054225
5.5290995,4.442518,0.5957845,0.16784583,2.43646,9.734824,1.412579,-2.054225
5.5314174,4.443855,0.5851318,0.17849848,2.5824013,9.892841,1.7477672,-2.1021092
5.53375,4.4451923,0.5851318,0.17849848,2.5824013,9.892841,1.7477672,-2.1021092
5.5362186,4.4465475,0.56915283,0.19128166,2.7357993,9.849746,2.1021092,-2.207454
5.53869,4.447897,0.56915283,0.19128166,2.7357993,9.849746,2.1021092,-2.207454
5.541313,4.449261,0.5435865,0.2051301,2.8934586,9.787497,2.4899697,-2.336741
5.5439377,4.450618,0.5435865,0.2051301,2.8934586,9.787497,2.4899697,-2.336741
5.5467215,4.4519796,0.5084328,0.2200438,3.0596397,9.615114,2.8682537,-2.528277
5.549506,4.453333,0.5084328,0.2200438,3.0596397,9.615114,2.8682537,-2.528277
5.552463,4.4546885,0.46582222,0.23602276,3.238604,9.533711,3.2992098,-2.6001031
5.555422,4.456036,0.46582222,0.23602276,3.238604,9.533711,3.2992098,-2.6001031
5.5585566,4.4573793,0.41362426,0.25732806,3.427156,9.519346,3.667917,-2.7102363
5.5616965,4.4587154,0.41362426,0.25732806,3.427156,9.519346,3.667917,-2.7102363
5.565027,4.4600425,0.34970838,0.28182915,3.6274257,9.490616,4.0462008,-2.719813
5.568362,4.46136,0.34970838,0.28182915,3.6274257,9.490616,4.0462008,-2.719813
5.571883,4.462666,0.28153145,0.31378707,3.8383482,9.490616,4.3766007,-2.7485435
5.575427,4.4639683,0.28153145,0.31378707,3.8383482,9.490616,4.3766007,-2.7485435
5.5791655,4.465264,0.20909347,0.35213658,4.0567274,9.375694,4.6160207,-2.528277
5.582902,4.466545,0.20909347,0.35213658,4.0567274,9.375694,4.6160207,-2.528277
5.586858,4.467828,0.13452496,0.39474717,4.282563,9.136273,4.6926355,-2.1978772
5.590852,4.4691076,0.13452496,0.39474717,4.282563,9.136273,4.6926355,-2.1978772
5.595071,4.4703894,0.06421751,0.438423,4.5169215,8.872911,4.644751,-1.9728222
5.5991755,4.471621,0.06421751,0.438423,4.5169215,8.872911,4.644751,-1.9728222
5.6035624,4.4728703,-0.0018288894,0.47890306,4.759802,8.772355,4.525041,-1.7286136
5.607973,4.4741106,-0.0018288894,0.47890306,4.759802,8.772355,4.525041,-1.7286136
5.612605,4.475354,-0.060418434,0.51725256,5.0080085,8.619126,4.3766007,-1.340753
5.6172533,4.4765844,-0.060418434,0.51725256,5.0080085,8.619126,4.3766007,-1.340753
5.6221404,4.477822,-0.11261639,0.5524063,5.263672,8.274361,4.1371803,-1.0007763
5.62704,4.479044,-0.11261639,0.5524063,5.263672,8.274361,4.1371803,-1.0007763
5.6321707,4.4802756,-0.1541617,0.58756006,5.5278573,7.776367,3.7972038,-0.81881696
5.637298,4.4814863,-0.1541617,0.58756006,5.5278573,7.776367,3.7972038,-0.81881696
5.642714,4.482726,-0.18398911,0.6216485,5.8026958,7.2448545,3.4380736,-0.7278373
5.6481276,4.483944,-0.18398911,0.6216485,5.8026958,7.2448545,3.4380736,-0.7278373
5.653795,4.485182,-0.20422913,0.6482801,6.084991,6.7851677,3.1411927,-0.7326257
5.6594815,4.4864,-0.20422913,0.6482801,6.084991,6.7851677,3.1411927,-0.7326257
5.6654463,4.4876404,-0.21594705,0.66745484,6.372612,6.3206925,2.858677,-0.8475474
5.6714077,4.4888563,-0.21594705,0.66745484,6.372612,6.3206925,2.858677,-0.8475474
5.6776366,4.490091,-0.22127336,0.67917275,6.6676903,5.884948,2.5091233,-0.89064306
5.6839,4.4913063,-0.22127336,0.67917275,6.6676903,5.884948,2.5091233,-0.89064306
5.6904507,4.492541,-0.2234039,0.67704225,6.9659643,5.3821654,2.0350714,-0.62728083
5.6969852,4.493746,-0.2234039,0.67704225,6.9659643,5.3821654,2.0350714,-0.62728083
5.7038364,4.4949856,-0.22020811,0.6663896,7.2653036,5.0613422,1.1444284,0.009576807
5.710684,4.4961967,-0.22020811,0.6663896,7.2653036,5.0613422,1.1444284,0.009576807
5.7178583,4.4974575,-0.21381652,0.6514759,7.5689044,3.86903,-0.1436521,0.842759
5.7249928,4.4986815,-0.21381652,0.6514759,7.5689044,3.86903,-0.1436521,0.842759
5.732559,4.499982,-0.19996808,0.63443166,7.8810267,2.9735985,-1.7238252,1.8243817
5.7400236,4.501234,-0.19996808,0.63443166,7.8810267,2.9735985,-1.7238252,1.8243817
5.7479362,4.5025344,-0.18398911,0.6173874,8.201672,1.9776106,-3.6296098,2.4612393
5.7558117,4.5037975,-0.18398911,0.6173874,8.201672,1.9776106,-3.6296098,2.4612393
5.7640862,4.5050774,-0.17120594,0.6131264,8.535099,0.51235914,-5.473145,2.552219
5.7723637,4.5063257,-0.17120594,0.6131264,8.535099,0.51235914,-5.473145,2.552219
5.781008,4.507577,-0.16587962,0.62271374,8.887702,-0.9576807,-7.3406224,2.3127987
5.7896547,4.5087953,-0.16587962,0.62271374,8.887702,-0.9576807,-7.3406224,2.3127987
5.7986507,4.5100064,-0.16801015,0.63443166,9.250957,-1.934515,-9.169792,1.5849615
5.807695,4.5111895,-0.16801015,0.63443166,9.250957,-1.934515,-9.169792,1.5849615
5.817084,4.512354,-0.17653225,0.64721483,9.614212,-2.753332,-10.850522,0.5650316
5.8264856,4.5134845,-0.17653225,0.64721483,9.614212,-2.753332,-10.850522,0.5650316
5.8362684,4.5145884,-0.19251123,0.6578675,9.968945,-3.3758245,-12.277467,-0.7086837
5.846025,4.5156517,-0.19251123,0.6578675,9.968945,-3.3758245,-12.277467,-0.7086837
5.856126,4.516669,-0.21701232,0.65467167,10.298112,-3.9695864,-13.704411,-1.9153614
5.866239,4.5176497,-0.21701232,0.65467167,10.298112,-3.9695864,-13.704411,-1.9153614
5.876629,4.518566,-0.24577445,0.63230115,10.588929,-4.357447,-14.896723,-2.9592333
5.8870316,4.5194473,-0.24577445,0.63230115,10.588929,-4.357447,-14.896723,-2.9592333
5.8977003,4.520254,-0.27240607,0.5854295,10.835005,-4.6495395,-15.787366,-4.0078936
5.9083605,4.5210238,-0.27240607,0.5854295,10.835005,-4.6495395,-15.787366,-4.0078936
5.919215,4.5217156,-0.29584187,0.5204484,11.028883,-4.7309427,-16.31409,-4.630386
5.930061,4.5223722,-0.29584187,0.5204484,11.028883,-4.7309427,-16.31409,-4.630386
5.930061,4.5223722,-0.29584187,0.5204484,11.028883,-4.7309427,-16.31409,-4.630386
5.9526987,4.5235453,-0.31075558,0.44694513,11.163107,-4.4675803,-16.476896,-4.7309427
5.9635434,4.5240335,-0.30862504,0.36918083,11.231283,-4.1946416,-16.261417,-4.6782703
5.9635434,4.5240335,-0.30862504,0.36918083,11.231283,-4.1946416,-16.261417,-4.6782703
5.9635434,4.5240335,-0.30862504,0.36918083,11.231283,-4.1946416,-16.261417,-4.6782703
5.9635434,4.5240335,-0.30862504,0.36918083,11.231283,-4.1946416,-16.261417,-4.6782703
6.0071936,4.5256996,-0.23618707,0.2349575,11.160976,-3.5194764,-15.08347,-4.0701427
6.0071936,4.5256996,-0.23618707,0.2349575,11.160976,-3.5194764,-15.08347,-4.0701427
6.029007,4.5264196,-0.23618707,0.2349575,11.160976,-3.5194764,-15.08347,-4.0701427
6.040659,4.526823,-0.16374908,0.18915112,11.017165,-3.145981,-14.393941,-3.7301662
6.040659,4.526823,-0.16374908,0.18915112,11.017165,-3.145981,-14.393941,-3.7301662
6.061697,4.5276575,-0.06467949,0.15932372,10.804112,-2.944868,-13.728353,-3.3279405
6.0728683,4.5280867,0.05356486,0.14121422,10.525013,-2.6001031,-13.259089,-3.0502129
6.084542,4.528608,0.05356486,0.14121422,10.525013,-2.6001031,-13.259089,-3.0502129
6.093692,4.5291095,0.18672292,0.13162684,10.1788025,-2.2457612,-12.603078,-3.0933087
6.1035824,4.5296316,0.18672292,0.13162684,10.1788025,-2.2457612,-12.603078,-3.0933087
6.1132646,4.530265,0.33053362,0.12203947,9.768675,-1.7669208,-12.23437,-3.107674
6.122977,4.530879,0.33053362,0.12203947,9.768675,-1.7669208,-12.23437,-3.107674
6.1322455,4.531594,0.4775401,0.104995236,9.298894,-1.0726024,-11.803414,-3.1316159
6.1414957,4.5322886,0.4775401,0.104995236,9.298894,-1.0726024,-11.803414,-3.1316159
6.1502066,4.5330725,0.62348133,0.08049415,8.770522,-0.49320555,-11.291056,-3.289633
6.1589427,4.5338416,0.62348133,0.08049415,8.770522,-0.49320555,-11.291056,-3.289633
6.1670895,4.5347037,0.7577047,0.046405688,8.187823,0.11492168,-10.912771,-2.9831753
6.1752496,4.5355515,0.7577047,0.046405688,8.187823,0.11492168,-10.912771,-2.9831753
6.182726,4.5364747,0.88127536,0.0027298466,7.561447,0.7326257,-10.520123,-2.633622
6.1902156,4.537388,0.88127536,0.0027298466,7.561447,0.7326257,-10.520123,-2.633622
6.1970077,4.5383825,0.9931281,-0.050533377,6.899918,1.0199299,-10.0748005,-2.2840683
6.203794,4.5393715,0.9931281,-0.050533377,6.899918,1.0199299,-10.0748005,-2.2840683
6.209788,4.540539,1.0953935,-0.11231872,6.2128224,1.1683705,-9.399636,-1.6424223
6.215789,4.5416975,1.0953935,-0.11231872,6.2128224,1.1683705,-9.399636,-1.6424223
6.2211843,4.543015,1.1870062,-0.18582197,5.51827,1.0965444,-8.796297,-0.9672575
6.226575,4.544324,1.1870062,-0.18582197,5.51827,1.0965444,-8.796297,-0.9672575
6.231402,4.545719,1.2669011,-0.26678208,4.833305,0.44532153,-8.6095495,0.21068975
6.236198,4.5471025,1.2669011,-0.26678208,4.833305,0.44532153,-8.6095495,0.21068975
6.240405,4.548544,1.3372085,-0.35093796,4.180298,-0.40222588,-9.006987,1.3311762
6.244616,4.5499854,1.3372085,-0.35093796,4.180298,-0.40222588,-9.006987,1.3311762
6.2482586,4.551471,1.3979286,-0.4329633,3.584815,-1.4508862,-9.983821,2.4133554
6.251977,4.552987,1.3979286,-0.4329633,3.584815,-1.4508862,-9.983821,2.4133554
6.255123,4.5545044,1.447996,-0.50114024,3.0734882,-2.906561,-11.664551,3.1411927
6.258263,4.556018,1.447996,-0.50114024,3.0734882,-2.906561,-11.664551,3.1411927
6.2610407,4.5575705,1.4852803,-0.55333817,2.6601655,-4.6160207,-13.661315,3.2704794
6.263823,4.559126,1.4852803,-0.55333817,2.6601655,-4.6160207,-13.661315,3.2704794
6.266314,4.5606866,1.5055203,-0.592753,2.3533695,-6.2584434,-15.71554,2.7102363
6.268807,4.562249,1.5055203,-0.592753,2.3533695,-6.2584434,-15.71554,2.7102363
6.271125,4.563806,1.5065856,-0.6311025,2.154165,-7.374141,-17.592594,1.8052281
6.2734447,4.565365,1.5065856,-0.6311025,2.154165,-7.374141,-17.592594,1.8052281
6.275682,4.566901,1.4916719,-0.67690885,2.049769,-7.795521,-19.000385,0.62249243
6.277921,4.5684395,1.4916719,-0.67690885,2.049769,-7.795521,-19.000385,0.62249243
6.280134,4.5699325,1.4618444,-0.7301721,2.017811,-7.6710224,-19.752165,-0.3878607
6.2823553,4.571432,1.4618444,-0.7301721,2.017811,-7.6710224,-19.752165,-0.3878607
0.0014160965,4.5728855,1.4213644,-0.7898269,2.0348554,-6.933608,-20.09693,-0.9672575
0.0036640174,4.574341,1.4213644,-0.7898269,2.0348554,-6.933608,-20.09693,-0.9672575
0.005972002,4.575742,1.3776885,-0.8452207,2.081727,-7.5465236,-20.001162,-1.5993267
0.008279522,4.577143,1.3776885,-0.8452207,2.081727,-7.5465236,-20.001162,-1.5993267
0.010645625,4.578517,1.3467959,-0.89635336,2.1349902,-7.0581064,-19.771318,-1.5514427
0.013013571,4.579893,1.3467959,-0.89635336,2.1349902,-7.0581064,-19.771318,-1.5514427
0.015414029,4.581281,1.3414696,-0.9464208,2.1690786,-5.4922986,-19.88145,-1.1061212
0.017806644,4.582667,1.3414696,-0.9464208,2.1690786,-5.4922986,-19.88145,-1.1061212
0.02022845,4.5840874,1.375558,-0.9538776,2.1850576,-5.4779334,-18.722658,-1.2306197
0.022639895,4.585504,1.375558,-0.9538776,2.1850576,-5.4779334,-18.722658,-1.2306197
0.025058813,4.586978,1.443735,-0.9176586,2.1871881,-6.0860605,-17.415422,-1.5849615
0.027476996,4.588453,1.443735,-0.9176586,2.1871881,-6.0860605,-17.415422,-1.5849615
0.02988162,4.590009,1.5332172,-0.87611336,2.174405,-6.1530986,-16.347609,-1.8531121
0.032280583,4.5915637,1.5332172,-0.87611336,2.174405,-6.1530986,-16.347609,-1.8531121
0.03463576,4.593225,1.6365478,-0.84202486,2.1328597,-5.583278,-16.026787,-1.7477672
0.036990166,4.594887,1.6365478,-0.84202486,2.1328597,-5.583278,-16.026787,-1.7477672
0.0392606,4.596674,1.7526617,-0.8132627,2.0540302,-4.606444,-15.98369,-1.508347
0.04153035,4.598462,1.7526617,-0.8132627,2.0540302,-4.606444,-15.98369,-1.508347
0.043681495,4.600385,1.8772976,-0.7749132,1.9347205,-4.0892963,-15.921441,-1.3934253
0.045819096,4.602298,1.8772976,-0.7749132,1.9347205,-4.0892963,-15.921441,-1.3934253
0.047802962,4.604332,2.0008683,-0.7237805,1.7781266,-3.8786068,-15.614984,-1.5179238
0.049786076,4.606366,2.0008683,-0.7237805,1.7781266,-3.8786068,-15.614984,-1.5179238
0.051574178,4.608507,2.1116557,-0.665191,1.586379,-3.6822822,-15.294161,-1.5897499
0.053357814,4.6106434,2.1116557,-0.665191,1.586379,-3.6822822,-15.294161,-1.5897499
0.05492579,4.6128597,2.196877,-0.59701407,1.3754567,-3.9264908,-15.016433,-1.6472107
0.056494374,4.615078,2.196877,-0.59701407,1.3754567,-3.9264908,-15.016433,-1.6472107
0.057835836,4.6173477,2.249075,-0.52457607,1.1570774,-4.0174704,-15.040375,-1.5370775
0.059179112,4.619621,2.249075,-0.52457607,1.1570774,-4.0174704,-15.040375,-1.5370775
0.0602881,4.621912,2.2671845,-0.4542686,0.9355024,-4.060566,-15.260642,-1.2689269
0.06139763,4.6242046,2.2671845,-0.4542686,0.9355024,-4.060566,-15.260642,-1.2689269
0.062286943,4.6264977,2.2544012,-0.38502643,0.72244954,-4.2042184,-15.571888,-0.9768343
0.06317598,4.62879,2.2544012,-0.38502643,0.72244954,-4.2042184,-15.571888,-0.9768343
0.06385257,4.6310444,2.221378,-0.31898,0.51791877,-4.3382936,-15.658079,-0.8762778
0.06452905,4.6332974,2.221378,-0.31898,0.51791877,-4.3382936,-15.658079,-0.8762778
0.06499955,4.635505,2.1691802,-0.26039046,0.3187143,-4.271256,-15.59583,-0.6607997
0.065470554,4.6377144,2.1691802,-0.26039046,0.3187143,-4.271256,-15.59583,-0.6607997
0.06574457,4.639859,2.1031337,-0.20925778,0.13016249,-3.9504328,-15.466543,-0.45968673
0.06601947,4.642007,2.1031337,-0.20925778,0.13016249,-3.9504328,-15.466543,-0.45968673
0.066109106,4.644087,2.0275,-0.16238615,-0.046671405,-3.9552212,-15.222335,-0.19153613
0.06619878,4.6461577,2.0275,-0.16238615,-0.046671405,-3.9552212,-15.222335,-0.19153613
0.06611561,4.6481543,1.947605,-0.121906094,-0.2149832,-3.53863,-14.853627,-0.15801731
0.06603305,4.65015,1.947605,-0.121906094,-0.2149832,-3.53863,-14.853627,-0.15801731
0.06578348,4.6520705,1.866645,-0.08888289,-0.37477285,-2.944868,-14.374787,-0.11492168
0.06553483,4.65399,1.866645,-0.08888289,-0.37477285,-2.944868,-14.374787,-0.11492168
0.065128505,4.655837,1.7867501,-0.059055492,-0.52604043,-2.542642,-13.852851,-0.10055647
0.06472538,4.657673,1.7867501,-0.059055492,-0.52604043,-2.542642,-13.852851,-0.10055647
0.064167105,4.659442,1.70579,-0.029228088,-0.6709164,-2.1499932,-13.354857,-0.07182605
0.06361094,4.661207,1.70579,-0.029228088,-0.6709164,-2.1499932,-13.354857,-0.07182605
0.06291704,4.662892,1.6226994,-0.0047270046,-0.8040744,-1.9057846,-12.861651,-0.07182605
0.062225614,4.6645727,1.6226994,-0.0047270046,-0.8040744,-1.9057846,-12.861651,-0.07182605
0.06138282,4.6661882,1.536413,0.014447756,-0.9287104,-1.5131354,-12.492945,0.04309563
0.06054163,4.667804,1.536413,0.014447756,-0.9287104,-1.5131354,-12.492945,0.04309563
0.059540275,4.669342,1.447996,0.031491987,-1.0448242,-1.067814,-12.100295,0.20111294
0.058539294,4.6708837,1.447996,0.031491987,-1.0448242,-1.067814,-12.100295,0.20111294
0.057394676,4.672333,1.3531874,0.046405688,-1.1481549,-0.7134721,-11.693281,0.37349546
0.056249376,4.6737843,1.3531874,0.046405688,-1.1481549,-0.7134721,-11.693281,0.37349546
0.054994777,4.675131,1.2509221,0.061319392,-1.2365718,-0.47884035,-11.444284,0.51235914
0.053738803,4.6764803,1.2509221,0.061319392,-1.2365718,-0.47884035,-11.444284,0.51235914
0.052405316,4.6777153,1.145461,0.07516783,-1.3068793,-0.2681506,-11.128249,0.6799533
0.05106743,4.678955,1.145461,0.07516783,-1.3068793,-0.2681506,-11.128249,0.6799533
0.049661938,4.68008,1.0357387,0.087951005,-1.3590772,-0.033518825,-10.864887,0.7086837
0.04824597,4.681214,1.0357387,0.087951005,-1.3590772,-0.033518825,-10.864887,0.7086837
0.046764538,4.6822386,0.91962487,0.09647312,-1.3931657,0.21547815,-10.58716,0.78050977
0.045328736,4.683232,0.91962487,0.09647312,-1.3931657,0.21547815,-10.58716,0.78050977
0.043864314,4.6840944,0.79711944,0.10392997,-1.4102099,0.5410896,-10.342952,0.81881696
0.042382464,4.684968,0.79711944,0.10392997,-1.4102099,0.5410896,-10.342952,0.81881696
0.040888112,4.685709,0.670353,0.10819103,-1.4091446,0.8571242,-10.093954,0.8523358
0.039392464,4.686451,0.670353,0.10819103,-1.4091446,0.8571242,-10.093954,0.8523358
0.037900705,4.6870556,0.5393255,0.11245208,-1.394231,1.1204864,-9.844957,0.8379706
0.036413595,4.6876593,0.5393255,0.11245208,-1.394231,1.1204864,-9.844957,0.8379706
0.034941107,4.688123,0.40510213,0.117778406,-1.3644035,1.2545617,-9.572019,0.7182605
0.03347616,4.6885853,0.40510213,0.117778406,-1.3644035,1.2545617,-9.572019,0.7182605
0.032042414,4.6889086,0.27087882,0.12417,-1.3207277,1.4796166,-9.385271,0.6847417
0.030608859,4.6892323,0.27087882,0.12417,-1.3207277,1.4796166,-9.385271,0.6847417
0.029227026,4.6894174,0.13878602,0.13056158,-1.2642686,1.6184803,-9.232041,0.59855044
0.027841184,4.689603,0.13878602,0.13056158,-1.2642686,1.6184803,-9.232041,0.59855044
0.026525045,4.6896586,0.0141500775,0.1390837,-1.197157,1.7190368,-9.059659,0.5315128
0.02520638,4.6897144,0.0141500775,0.1390837,-1.197157,1.7190368,-9.059659,0.5315128
0.023966694,4.689656,-0.10302901,0.14654055,-1.1215233,1.7286136,-8.930372,0.58897364
0.022727234,4.689597,-0.10302901,0.14654055,-1.1215233,1.7286136,-8.930372,0.58897364
0.021566879,4.6894207,-0.21381652,0.1508016,-1.0352368,1.8339585,-8.7532015,0.46926352
0.020405497,4.6892443,-0.21381652,0.1508016,-1.0352368,1.8339585,-8.7532015,0.46926352
0.019336982,4.6889663,-0.31395137,0.15186687,-0.94042826,1.9297266,-8.690952,0.46447513
0.018272927,4.6886897,-0.31395137,0.15186687,-0.94042826,1.9297266,-8.690952,0.46447513
0.017302405,4.6883125,-0.40662938,0.1539974,-0.8402934,2.0733786,-8.475474,0.36391866
0.016332926,4.6879363,-0.40662938,0.1539974,-0.8402934,2.0733786,-8.475474,0.36391866
0.015461849,4.6874704,-0.48972002,0.15506266,-0.7369628,2.2218192,-8.418014,0.2777274
0.014592554,4.687006,-0.48972002,0.15506266,-0.7369628,2.2218192,-8.418014,0.2777274
0.013821335,4.686458,-0.56641906,0.15612793,-0.6346974,2.4133554,-8.274361,0.19153613
0.013051633,4.6859117,-0.56641906,0.15612793,-0.6346974,2.4133554,-8.274361,0.19153613
0.012377618,4.6852903,-0.63566124,0.15932372,-0.53669304,2.4995465,-8.111555,0.090979666
0.011701545,4.6846676,-0.63566124,0.15932372,-0.53669304,2.4995465,-8.111555,0.090979666
0.011123282,4.683979,-0.6974466,0.16465004,-0.43868873,2.5761611,-7.943961,-0.023942016
0.010543254,4.683289,-0.6974466,0.16465004,-0.43868873,2.5761611,-7.943961,-0.023942016
0.010058173,4.6825423,-0.75284034,0.16997637,-0.34388018,2.60968,-7.843405,-0.08140286
0.009591471,4.6818237,-0.75284034,0.16997637,-0.34388018,2.60968,-7.843405,-0.08140286
0.009196732,4.681033,-0.80290776,0.17636795,-0.25546324,2.6527755,-7.795521,0.033518825
0.00878654,4.6802125,-0.80290776,0.17636795,-0.25546324,2.6527755,-7.795521,0.033518825
0.008475578,4.6793776,-0.84551835,0.18275954,-0.17024209,2.5953147,-7.8146744,0.11971009
0.008170769,4.6785593,-0.84551835,0.18275954,-0.17024209,2.5953147,-7.8146744,0.11971009
0.008170769,4.6785593,-0.84551835,0.18275954,-0.17024209,2.5953147,-7.8146744,0.11971009
0.0074055092,4.6751056,-0.9009121,0.19660798,-0.014713474,2.3654714,-8.145074,0.30166942
0.0074055092,4.6751056,-0.9009121,0.19660798,-0.014713474,2.3654714,-8.145074,0.30166942
0.0074055092,4.6751056,-0.9009121,0.19660798,-0.014713474,2.3654714,-8.145074,0.30166942
0.0073251314,4.6742086,-0.9158258,0.1987385,0.054528717,2.2649148,-8.403648,0.2777274
0.0073251314,4.6742086,-0.9158258,0.1987385,0.054528717,2.2649148,-8.403648,0.2777274
0.0073251314,4.6742086,-0.9158258,0.1987385,0.054528717,2.2649148,-8.403648,0.2777274
0.0071451277,4.6715603,-0.9254132,0.19980377,0.119509846,2.1452048,-8.628703,0.30645782
0.0071934476,4.670677,-0.92860895,0.19447745,0.17703412,1.9871874,-8.896853,0.35434186
0.0072449422,4.6697392,-0.92860895,0.19447745,0.17703412,1.9871874,-8.896853,0.35434186
0.0072449422,4.6697392,-0.92860895,0.18595533,0.22710156,1.6807296,-9.165004,0.31124622
0.00744578,4.6679974,-0.92860895,0.18595533,0.22710156,1.6807296,-9.165004,0.31124622
0.0075945277,4.6671534,-0.9254132,0.17104164,0.27290794,1.4891934,-9.41879,0.33997664
0.0075945277,4.6671534,-0.9254132,0.17104164,0.27290794,1.4891934,-9.41879,0.33997664
0.0075945277,4.6671534,-0.9254132,0.17104164,0.27290794,1.4891934,-9.41879,0.33997664
0.008095873,4.664542,-0.92008686,0.1539974,0.31125745,1.3742718,-9.615114,0.34476504
0.008320146,4.6636887,-0.91049945,0.13269211,0.34108487,1.3120226,-9.744401,0.24899697
0.008545161,4.662833,-0.91049945,0.13269211,0.34108487,1.3120226,-9.744401,0.24899697
0.008791551,4.6619883,-0.89878154,0.11138682,0.36132488,1.2497733,-9.797073,0.20590134
0.009037723,4.661145,-0.89878154,0.11138682,0.36132488,1.2497733,-9.797073,0.20590134
0.009293386,4.660317,-0.88386786,0.0911468,0.37091225,1.163582,-9.821015,0.1388637
0.009549106,4.6594896,-0.88386786,0.0911468,0.37091225,1.163582,-9.821015,0.1388637
0.009799731,4.6586747,-0.86788887,0.069841504,0.3666512,1.1252748,-9.80665,0.076614454
0.010050432,4.6578608,-0.86788887,0.069841504,0.3666512,1.1252748,-9.80665,0.076614454
0.010282465,4.657065,-0.8487141,0.050666746,0.3517375,1.1204864,-9.696517,0.009576807
0.010515638,4.656267,-0.8487141,0.050666746,0.3517375,1.1204864,-9.696517,0.009576807
0.010710974,4.655484,-0.8231478,0.031491987,0.32191008,1.1587936,-9.662998,-0.12928689
0.010906699,4.6547017,-0.8231478,0.031491987,0.32191008,1.1587936,-9.662998,-0.12928689
0.011055659,4.6539407,-0.7965162,0.013382491,0.27823424,1.2258313,-9.562442,-0.18674773
0.01120517,4.653179,-0.7965162,0.013382491,0.27823424,1.2258313,-9.562442,-0.18674773
0.011295866,4.65244,-0.767754,-0.0047270046,0.22177523,1.2545617,-9.423578,-0.25378537
0.011384077,4.651724,-0.767754,-0.0047270046,0.22177523,1.2545617,-9.423578,-0.25378537
0.011404291,4.6510057,-0.73473084,-0.018575443,0.15572885,1.316811,-9.303867,-0.39264908
0.011425414,4.6502666,-0.73473084,-0.018575443,0.15572885,1.316811,-9.303867,-0.39264908
0.011371181,4.649578,-0.69851184,-0.031358615,0.08222559,1.2785037,-9.160215,-0.47884035
0.011317412,4.6488934,-0.69851184,-0.031358615,0.08222559,1.2785037,-9.160215,-0.47884035
0.011184257,4.6482363,-0.6590971,-0.044141788,0.0033960221,1.3551182,-9.040505,-0.5602432
0.0110503705,4.647576,-0.6590971,-0.044141788,0.0033960221,1.3551182,-9.040505,-0.5602432
0.010835764,4.6469507,-0.61755174,-0.054794434,-0.078629345,1.3742718,-8.920795,-0.6655881
0.010621446,4.6463265,-0.61755174,-0.054794434,-0.078629345,1.3742718,-8.920795,-0.6655881
0.010324581,4.6457434,-0.57707167,-0.06331655,-0.16171996,1.3790601,-8.8777,-0.6607997
0.010027727,4.6451607,-0.57707167,-0.06331655,-0.16171996,1.3790601,-8.8777,-0.6607997
0.009654938,4.644617,-0.53659165,-0.0707734,-0.23841901,1.3838485,-8.815451,-0.6751649
0.009282087,4.6440744,-0.53659165,-0.0707734,-0.23841901,1.3838485,-8.815451,-0.6751649
0.008843914,4.64357,-0.49504632,-0.07609972,-0.3044654,1.364695,-8.829816,-0.7086837
0.008405824,4.6430664,-0.49504632,-0.07609972,-0.3044654,1.364695,-8.829816,-0.7086837
0.007911742,4.642601,-0.45563155,-0.079295516,-0.36092442,1.2976574,-8.882488,-0.7182605
0.0074175787,4.6421366,-0.45563155,-0.079295516,-0.36092442,1.2976574,-8.882488,-0.7182605
0.0068769935,4.6417103,-0.41621676,-0.08142605,-0.40779606,1.3215994,-8.901642,-0.7326257
0.006336437,4.6412845,-0.41621676,-0.08142605,-0.40779606,1.3215994,-8.901642,-0.7326257
0.005763811,4.640902,-0.3757367,-0.08036078,-0.43975398,1.2258313,-8.954314,-0.7086837
0.0051912037,4.6405196,-0.3757367,-0.08036078,-0.43975398,1.2258313,-8.954314,-0.7086837
0.0046022064,4.6401644,-0.33525667,-0.08142605,-0.45786348,1.2066777,-9.006987,-0.8331822
0.0046022064,4.6401644,-0.33525667,-0.08142605,-0.45786348,1.2066777,-9.006987,-0.8331822
0.003903688,4.639744,-0.29584187,-0.08142605,-0.46212456,1.2210429,-9.112331,-0.81881696
0.0028158692,4.639171,-0.29584187,-0.08142605,-0.46212456,1.2210429,-9.112331,-0.81881696
0.0022450343,4.638891,-0.25749236,-0.08142605,-0.45040664,1.1827357,-9.198523,-0.91458505
0.0016672075,4.638608,-0.25749236,-0.08142605,-0.45040664,1.1827357,-9.198523,-0.91458505
0.0011085919,4.6383686,-0.21914284,-0.0856871,-0.4280361,1.2306197,-9.208099,-0.866701
0.00054715277,4.638128,-0.21914284,-0.0856871,-0.4280361,1.2306197,-9.208099,-0.866701
2.4347006e-05,4.637925,-0.18185858,-0.08994816,-0.3950129,1.1827357,-9.208099,-0.8762778
6.2826753,4.6377172,-0.18185858,-0.08994816,-0.3950129,1.1827357,-9.208099,-0.8762778
6.2821894,4.637545,-0.14457433,-0.09633975,-0.35453284,1.2210429,-9.198523,-0.92416185
6.2817154,4.6373773,-0.14457433,-0.09633975,-0.35453284,1.2210429,-9.198523,-0.92416185
6.281283,4.637249,-0.106224805,-0.10486186,-0.30553067,1.2114661,-9.227253,-0.8858546
6.280848,4.6371202,-0.106224805,-0.10486186,-0.30553067,1.2114661,-9.227253,-0.8858546
6.280467,4.6370373,-0.06787529,-0.11231872,-0.2512022,1.2401965,-9.232041,-0.8283938
6.280087,4.6369543,-0.06787529,-0.11231872,-0.2512022,1.2401965,-9.232041,-0.8283938
6.2797666,4.6369,-0.0284605,-0.121906094,-0.1936779,1.2258313,-9.203311,-0.91937345
6.2794447,4.6368456,-0.0284605,-0.121906094,-0.1936779,1.2258313,-9.203311,-0.91937345
6.2791834,4.6368294,0.008823755,-0.13149348,-0.13508835,1.2545617,-9.150639,-0.90979666
6.2789326,4.636814,0.008823755,-0.13149348,-0.13508835,1.2545617,-9.150639,-0.90979666
6.278727,4.6368403,0.045042746,-0.14108086,-0.077564076,1.2880806,-9.174581,-0.8571242
6.2785134,4.636868,0.045042746,-0.14108086,-0.077564076,1.2880806,-9.174581,-0.8571242
6.2783704,4.6369195,0.07913121,-0.14960296,-0.017909266,1.283292,-9.23683,-0.94331545
6.2782283,4.6369705,0.07913121,-0.14960296,-0.017909266,1.283292,-9.23683,-0.94331545
6.2781415,4.6370554,0.11002388,-0.15599456,0.03854975,1.316811,-9.212888,-0.92416185
6.2780538,4.6371408,0.11002388,-0.15599456,0.03854975,1.316811,-9.212888,-0.92416185
6.278024,4.637247,0.1366555,-0.16132088,0.0939435,1.340753,-9.222465,-0.9768343
6.277994,4.637354,0.1366555,-0.16132088,0.0939435,1.340753,-9.222465,-0.9768343
6.278016,4.6374774,0.16115656,-0.16451667,0.14294566,1.3359646,-9.251195,-1.0486604
6.278038,4.6376014,0.16115656,-0.16451667,0.14294566,1.3359646,-9.251195,-1.0486604
6.2781005,4.637748,0.18033133,-0.16771246,0.18449098,1.2066777,-9.165004,-0.9720459
6.278163,4.6378946,0.18033133,-0.16771246,0.18449098,1.2066777,-9.165004,-0.9720459
6.2782664,4.638044,0.19524503,-0.16984299,0.21857944,1.043872,-9.179369,-1.0390835
6.27837,4.638193,0.19524503,-0.16984299,0.21857944,1.043872,-9.179369,-1.0390835
6.278501,4.638359,0.20909347,-0.17410405,0.24840684,1.0821792,-9.208099,-1.0247183
6.278632,4.638525,0.20909347,-0.17410405,0.24840684,1.0821792,-9.208099,-1.0247183
6.2787814,4.6387095,0.22187665,-0.18049563,0.26864687,1.1348516,-9.141062,-0.9816227
6.2789326,4.638896,0.22187665,-0.18049563,0.26864687,1.1348516,-9.141062,-0.9816227
6.2790923,4.639097,0.23146403,-0.18582197,0.28249532,1.1971009,-9.141062,-0.92416185
6.2792506,4.6392965,0.23146403,-0.18582197,0.28249532,1.1971009,-9.141062,-0.92416185
6.279419,4.639507,0.24318193,-0.18795249,0.28995216,1.1827357,-9.136273,-0.94331545
6.2795873,4.639717,0.24318193,-0.18795249,0.28995216,1.1827357,-9.136273,-0.94331545
6.279753,4.6399417,0.25170404,-0.19008303,0.28995216,1.2210429,-9.131485,-0.89543146
6.27992,4.640166,0.25170404,-0.19008303,0.28995216,1.2210429,-9.131485,-0.89543146
6.280079,4.6403975,0.26022616,-0.19327882,0.28143004,1.2354081,-9.165004,-0.91458505
6.2802377,4.640629,0.26022616,-0.19327882,0.28143004,1.2354081,-9.165004,-0.91458505
6.280382,4.640871,0.26981354,-0.19647461,0.2675816,1.1875241,-9.193734,-0.89064306
6.280527,4.6411133,0.26981354,-0.19647461,0.2675816,1.1875241,-9.193734,-0.89064306
6.280653,4.6413713,0.27940091,-0.19860514,0.24947211,1.1923125,-9.14585,-0.842759
6.280778,4.6416264,0.27940091,-0.19860514,0.24947211,1.1923125,-9.14585,-0.842759
6.280883,4.641899,0.2889883,-0.1996704,0.23029736,1.115698,-9.227253,-0.78050977
6.2809877,4.6421714,0.2889883,-0.1996704,0.23029736,1.115698,-9.227253,-0.78050977
6.2810707,4.642457,0.29644516,-0.20073566,0.20899206,1.115698,-9.275137,-0.7326257
6.2811537,4.6427426,0.29644516,-0.20073566,0.20899206,1.115698,-9.275137,-0.7326257
6.2812138,4.64304,0.303902,-0.2028662,0.1866215,1.043872,-9.380483,-0.6943185
6.2812743,4.643338,0.303902,-0.2028662,0.1866215,1.043872,-9.380483,-0.6943185
6.2813163,4.6436353,0.31242412,-0.20393145,0.16744675,1.0151415,-9.390059,-0.7613561
6.2813587,4.643932,0.31242412,-0.20393145,0.16744675,1.0151415,-9.390059,-0.7613561
6.281384,4.64423,0.31988096,-0.20393145,0.14933725,0.9720459,-9.452309,-0.79966336
6.2814083,4.644515,0.31988096,-0.20393145,0.14933725,0.9720459,-9.452309,-0.79966336
6.281434,4.644812,0.31988096,-0.20393145,0.14933725,0.9720459,-9.452309,-0.79966336
6.281445,4.6451354,0.32627258,-0.20393145,0.13655408,0.9720459,-9.528923,-0.7469909
6.281444,4.6454544,0.33053362,-0.2028662,0.12483617,0.9528923,-9.557653,-0.7182605
6.2814426,4.645773,0.33053362,-0.2028662,0.12483617,0.9528923,-9.557653,-0.7182605
6.281432,4.6461,0.33159888,-0.2028662,0.11631405,0.94331545,-9.648633,-0.6607997
6.2814217,4.64643,0.33159888,-0.2028662,0.11631405,0.94331545,-9.648633,-0.6607997
6.2814093,4.646761,0.33159888,-0.20180093,0.11418352,0.90021986,-9.619903,-0.6368576
6.2813964,4.6470914,0.33159888,-0.20180093,0.11418352,0.90021986,-9.619903,-0.6368576
6.281384,4.6474094,0.33159888,-0.20180093,0.11418352,0.90021986,-9.619903,-0.6368576
6.2813687,4.647745,0.33266416,-0.1996704,0.112053,0.92416185,-9.639056,-0.6847417
6.281354,4.648082,0.33159888,-0.19860514,0.112053,0.94331545,-9.643845,-0.58418524
6.281339,4.648419,0.33159888,-0.19860514,0.112053,0.94331545,-9.643845,-0.58418524
6.281325,4.64875,0.33053362,-0.19753987,0.11311826,0.9576807,-9.648633,-0.61291564
6.2813106,4.64908,0.33053362,-0.19753987,0.11311826,0.9576807,-9.648633,-0.61291564
6.2812963,4.6494026,0.33053362,-0.19753987,0.11311826,0.9720459,-9.581595,-0.6560113
6.2812815,4.649726,0.33053362,-0.19753987,0.11311826,0.9720459,-9.581595,-0.6560113
6.2812657,4.6500463,0.32946837,-0.19540934,0.112053,1.0055647,-9.504981,-0.6560113
6.28125,4.650367,0.32946837,-0.19540934,0.112053,1.0055647,-9.504981,-0.6560113
6.281236,4.650692,0.3284031,-0.19221355,0.11418352,0.94810385,-9.533711,-0.63206923
6.281222,4.6510105,0.3284031,-0.19221355,0.11418352,0.94810385,-9.533711,-0.63206923
6.28121,4.651337,0.3252073,-0.18901776,0.11631405,0.9864111,-9.581595,-0.5746084
6.281198,4.651664,0.3252073,-0.18901776,0.11631405,0.9864111,-9.581595,-0.5746084
6.2811885,4.6519966,0.32307678,-0.18369143,0.118444584,0.91458505,-9.600749,-0.51714754
6.2811794,4.6523294,0.32307678,-0.18369143,0.118444584,0.91458505,-9.600749,-0.51714754
6.281174,4.6526766,0.32094625,-0.1815609,0.11737932,0.866701,-9.677363,-0.41180268
6.2811685,4.653023,0.32094625,-0.1815609,0.11737932,0.866701,-9.677363,-0.41180268
6.281164,4.6533675,0.31668517,-0.17729984,0.118444584,0.842759,-9.792285,-0.40701428
6.28116,4.653712,0.31668517,-0.17729984,0.118444584,0.842759,-9.792285,-0.40701428
6.281161,4.6540604,0.31242412,-0.1730388,0.120575115,0.80445176,-9.854534,-0.36870706
6.281162,4.654405,0.31242412,-0.1730388,0.120575115,0.80445176,-9.854534,-0.36870706
6.2811675,4.6547523,0.30816308,-0.16877773,0.12270564,0.7757214,-9.974244,-0.33997664
6.281173,4.6551,0.30816308,-0.16877773,0.12270564,0.7757214,-9.974244,-0.33997664
6.2811794,4.6554394,0.30283675,-0.1666472,0.12483617,0.7565677,-10.0508585,-0.35913026
6.281185,4.655779,0.30283675,-0.1666472,0.12483617,0.7565677,-10.0508585,-0.35913026
6.2811904,4.6561127,0.29751042,-0.16451667,0.12483617,0.770933,-10.089166,-0.36391866
6.2811947,4.6564445,0.29751042,-0.16451667,0.12483617,0.770933,-10.089166,-0.36391866
6.281204,4.6567783,0.29111883,-0.16558194,0.12483617,0.7422025,-10.093954,-0.320823
6.281213,4.65711,0.29111883,-0.16558194,0.12483617,0.7422025,-10.093954,-0.320823
6.281213,4.65711,0.283662,-0.1666472,0.12590143,0.7661445,-10.065224,-0.34476504
6.28122,4.657475,0.283662,-0.1666472,0.12590143,0.7661445,-10.065224,-0.34476504
6.2812257,4.6577697,0.283662,-0.1666472,0.12590143,0.7661445,-10.065224,-0.34476504
6.28123,4.658406,0.27833566,-0.16877773,0.120575115,0.7757214,-9.983821,-0.31603462
6.28123,4.658406,0.27194408,-0.1730388,0.112053,0.8331822,-9.9790325,-0.320823
6.2812138,4.65901,0.27194408,-0.1730388,0.112053,0.8331822,-9.9790325,-0.320823
6.2812138,4.65901,0.27194408,-0.1730388,0.112053,0.8331822,-9.9790325,-0.320823
6.281167,4.659706,0.26448724,-0.17516932,0.103530884,0.866701,-9.883265,-0.33997664
6.281167,4.659706,0.26448724,-0.17516932,0.103530884,0.866701,-9.883265,-0.33997664
6.281114,4.660163,0.2591609,-0.17623459,0.09074771,0.93373865,-9.821015,-0.33039984
6.2810645,4.660437,0.25383458,-0.17623459,0.07476874,0.9959879,-9.734824,-0.33039984
6.2810135,4.660717,0.25383458,-0.17623459,0.07476874,0.9959879,-9.734824,-0.33039984
6.2809415,4.660987,0.24637774,-0.17623459,0.055593982,1.0103531,-9.68694,-0.34955344
6.2808714,4.6612506,0.24637774,-0.17623459,0.055593982,1.0103531,-9.68694,-0.34955344
6.280781,4.661505,0.23998614,-0.17410405,0.03641922,1.0534488,-9.615114,-0.35913026
6.2806892,4.6617627,0.23998614,-0.17410405,0.03641922,1.0534488,-9.615114,-0.35913026
6.280581,4.662011,0.2325293,-0.17410405,0.019374989,1.0247183,-9.576807,-0.35913026
6.2804723,4.6622605,0.2325293,-0.17410405,0.019374989,1.0247183,-9.576807,-0.35913026
6.2803454,4.662501,0.2229419,-0.17090826,0.0012654932,1.067814,-9.610326,-0.34476504
6.280219,4.6627407,0.2229419,-0.17090826,0.0012654932,1.067814,-9.610326,-0.34476504
6.2800775,4.6629725,0.21335453,-0.1666472,-0.013648209,1.0103531,-9.615114,-0.33997664
6.2799354,4.663205,0.21335453,-0.1666472,-0.013648209,1.0103531,-9.615114,-0.33997664
6.279783,4.6634207,0.20057136,-0.16132088,-0.024300855,0.9959879,-9.648633,-0.35913026
6.279629,4.663637,0.20057136,-0.16132088,-0.024300855,0.9959879,-9.648633,-0.35913026
6.2794685,4.6638384,0.18778819,-0.15386403,-0.03069244,0.92416185,-9.667787,-0.37828386
6.279308,4.6640396,0.18778819,-0.15386403,-0.03069244,0.92416185,-9.667787,-0.37828386
6.279144,4.664217,0.17287448,-0.14747244,-0.031757705,0.90979666,-9.720459,-0.4357447
6.2789793,4.6643953,0.17287448,-0.14747244,-0.031757705,0.90979666,-9.720459,-0.4357447
6.2788177,4.6645584,0.15689552,-0.13895033,-0.029627176,0.9720459,-9.734824,-0.4213795
6.2786555,4.664721,0.15689552,-0.13895033,-0.029627176,0.9720459,-9.734824,-0.4213795
6.2784953,4.6648493,0.13772075,-0.13042821,-0.026431382,0.9959879,-9.710882,-0.5267244
6.278336,4.664976,0.13772075,-0.13042821,-0.026431382,0.9959879,-9.710882,-0.5267244
6.2781844,4.6650743,0.11748073,-0.122971356,-0.018974531,1.0390835,-9.768343,-0.59855044
6.2780333,4.6651726,0.11748073,-0.122971356,-0.018974531,1.0390835,-9.768343,-0.59855044
6.277889,4.665242,0.09297965,-0.11551451,-0.012582945,1.0295067,-9.720459,-0.62249243
6.2777443,4.6653113,0.09297965,-0.11551451,-0.012582945,1.0295067,-9.720459,-0.62249243
6.2776103,4.665362,0.07060909,-0.105927125,-0.0008650357,1.1300632,-9.696517,-0.61291564
6.2774763,4.665412,0.07060909,-0.105927125,-0.0008650357,1.1300632,-9.696517,-0.61291564
6.2773423,4.6654615,0.07060909,-0.105927125,-0.0008650357,1.1300632,-9.696517,-0.61291564
6.2772226,4.665478,0.04610801,-0.09633975,0.010852873,1.0773908,-9.682152,-0.6751649
6.277103,4.6654944,0.04610801,-0.09633975,0.010852873,1.0773908,-9.682152,-0.6751649
6.2769938,4.6654897,0.022672193,-0.08888289,0.022570781,1.1252748,-9.677363,-0.6655881
6.276884,4.6654844,0.022672193,-0.08888289,0.022570781,1.1252748,-9.677363,-0.6655881
6.276786,4.6654515,-0.0007636249,-0.08036078,0.032158162,1.1061212,-9.619903,-0.6991069
6.2766876,4.6654186,-0.0007636249,-0.08036078,0.032158162,1.1061212,-9.619903,-0.6991069
6.2766004,4.6653576,-0.024199443,-0.06970814,0.041745543,1.1827357,-9.615114,-0.7613561
6.2765126,4.6652966,-0.024199443,-0.06970814,0.041745543,1.1827357,-9.615114,-0.7613561
6.27643,4.665224,-0.043374203,-0.059055492,0.05026766,1.1827357,-9.543288,-0.6847417
6.2763476,4.665152,-0.043374203,-0.059055492,0.05026766,1.1827357,-9.543288,-0.6847417
6.276272,4.6650596,-0.06361423,-0.048402846,0.05772451,1.2497733,-9.509769,-0.6991069
6.276196,4.664967,-0.06361423,-0.048402846,0.05772451,1.2497733,-9.509769,-0.6991069
6.276123,4.6648636,-0.08278899,-0.037750203,0.06305083,1.2737153,-9.500193,-0.63206923
6.2760496,4.66476,-0.08278899,-0.037750203,0.06305083,1.2737153,-9.500193,-0.63206923
6.275982,4.6646338,-0.09983322,-0.029228088,0.06731189,1.3024458,-9.504981,-0.6895301
6.2759137,4.664508,-0.09983322,-0.029228088,0.06731189,1.3024458,-9.504981,-0.6895301
6.275847,4.664371,-0.11687745,-0.019640706,0.07050768,1.316811,-9.490616,-0.6368576
6.27578,4.6642337,-0.11687745,-0.019640706,0.07050768,1.316811,-9.490616,-0.6368576
6.275716,4.6640806,-0.13072589,-0.010053327,0.07263821,1.292869,-9.576807,-0.6607997
6.275651,4.663927,-0.13072589,-0.010053327,0.07263821,1.292869,-9.576807,-0.6607997
6.2755885,4.6637673,-0.14244379,-0.0025964756,0.075834006,1.292869,-9.504981,-0.61770403
6.2755256,4.663607,-0.14244379,-0.0025964756,0.075834006,1.292869,-9.504981,-0.61770403
6.2754645,4.663446,-0.15522698,0.0048603755,0.0790298,1.2641385,-9.528923,-0.51714754
6.2754035,4.6632853,-0.15522698,0.0048603755,0.0790298,1.2641385,-9.528923,-0.51714754
6.2753506,4.6630926,-0.16481435,0.009121433,0.08435612,1.5131354,-9.476251,-0.7517793
6.2752976,4.6629004,-0.16481435,0.009121433,0.08435612,1.5131354,-9.476251,-0.7517793
6.2752457,4.6627073,-0.175467,0.01551302,0.087551914,1.6663644,-9.543288,-0.6799533
6.2751937,4.662514,-0.175467,0.01551302,0.087551914,1.6663644,-9.543288,-0.6799533
6.275141,4.6623373,-0.18398911,0.0251004,0.087551914,1.0965444,-9.672575,-0.4357447
6.275088,4.6621604,-0.18398911,0.0251004,0.087551914,1.0965444,-9.672575,-0.4357447
6.2750382,4.661974,-0.1871849,0.029361458,0.09181297,0.8762778,-9.801862,-0.48841715
6.2749887,4.661788,-0.1871849,0.029361458,0.09181297,0.8762778,-9.801862,-0.48841715
6.274948,4.6616073,-0.18611965,0.026165664,0.10033509,1.0630256,-9.773131,-0.45968673
6.2749076,4.6614265,-0.18611965,0.026165664,0.10033509,1.0630256,-9.773131,-0.45968673
6.27488,4.661256,-0.18292385,0.016578285,0.11098773,1.3263878,-9.734824,-0.3878607
6.274852,4.6610856,-0.18292385,0.016578285,0.11098773,1.3263878,-9.734824,-0.3878607
6.2748337,4.6609144,-0.17653225,0.010186698,0.12164038,1.3599066,-9.730036,-0.45010993
6.2748156,4.6607437,-0.17653225,0.010186698,0.12164038,1.3599066,-9.730036,-0.45010993
6.2748027,4.6605754,-0.17120594,0.00592564,0.1269667,1.2114661,-9.734824,-0.48362875
6.27479,4.660406,-0.17120594,0.00592564,0.1269667,1.2114661,-9.734824,-0.48362875
6.274783,4.660254,-0.16268381,0.0005993177,0.13229302,1.1731589,-9.792285,-0.4309563
6.274777,4.660105,-0.16268381,0.0005993177,0.13229302,1.1731589,-9.792285,-0.4309563
6.274777,4.6599574,-0.1541617,-0.0047270046,0.1386846,1.1875241,-9.792285,-0.46447513
6.2747765,4.6598053,-0.1541617,-0.0047270046,0.1386846,1.1875241,-9.792285,-0.46447513
6.2747865,4.659664,-0.14457433,-0.011118591,0.14933725,1.2306197,-9.859323,-0.48841715
6.274797,4.659525,-0.14457433,-0.011118591,0.14933725,1.2306197,-9.859323,-0.48841715
6.274815,4.6593947,-0.13392168,-0.018575443,0.1567941,1.2401965,-9.883265,-0.48841715
6.274833,4.6592646,-0.13392168,-0.018575443,0.1567941,1.2401965,-9.883265,-0.48841715
6.2748566,4.6591387,-0.124334306,-0.0228365,0.16212043,1.1540052,-9.92636,-0.5315128
6.27488,4.6590147,-0.124334306,-0.0228365,0.16212043,1.1540052,-9.92636,-0.5315128
6.2749085,4.6588964,-0.11581218,-0.026032293,0.16744675,1.1540052,-9.864111,-0.545878
6.2749376,4.658778,-0.11581218,-0.026032293,0.16744675,1.1540052,-9.864111,-0.545878
6.274974,4.658665,-0.107290074,-0.031358615,0.1749036,1.13964,-9.849746,-0.5650316
6.2750106,4.6585536,-0.107290074,-0.031358615,0.1749036,1.13964,-9.849746,-0.5650316
6.2750516,4.6584454,-0.09876795,-0.035619672,0.17916466,1.1779473,-9.797073,-0.59855044
6.2750926,4.6583376,-0.09876795,-0.035619672,0.17916466,1.1779473,-9.797073,-0.59855044
6.275139,4.658242,-0.092376366,-0.037750203,0.18449098,1.2258313,-9.763555,-0.5506664
6.2751856,4.658147,-0.092376366,-0.037750203,0.18449098,1.2258313,-9.763555,-0.5506664
6.275234,4.65806,-0.08491952,-0.03988073,0.1866215,1.2162545,-9.734824,-0.5410896
6.275283,4.6579742,-0.08491952,-0.03988073,0.1866215,1.2162545,-9.734824,-0.5410896
6.275332,4.657882,-0.0795932,-0.040945996,0.1866215,1.2737153,-9.677363,-0.62728083
6.275381,4.657791,-0.0795932,-0.040945996,0.1866215,1.2737153,-9.677363,-0.62728083
6.275429,4.657712,-0.07320161,-0.040945996,0.18555625,1.2497733,-9.672575,-0.5746084
6.2754765,4.6576333,-0.07320161,-0.040945996,0.18555625,1.2497733,-9.672575,-0.5746084
6.27552,4.6575603,-0.06467949,-0.040945996,0.18129519,1.2545617,-9.667787,-0.59855044
6.2755637,4.657486,-0.06467949,-0.040945996,0.18129519,1.2545617,-9.667787,-0.59855044
6.2756004,4.65742,-0.058287904,-0.03988073,0.1749036,1.2306197,-9.730036,-0.60333884
6.2756376,4.6573534,-0.058287904,-0.03988073,0.1749036,1.2306197,-9.730036,-0.60333884
6.2756686,4.6572866,-0.05509211,-0.037750203,0.16851202,1.2258313,-9.725247,-0.63206923
6.275699,4.65722,-0.05509211,-0.037750203,0.16851202,1.2258313,-9.725247,-0.63206923
6.275724,4.6571474,-0.052961584,-0.036684938,0.16105516,1.3120226,-9.648633,-0.7038953
6.2757483,4.657076,-0.052961584,-0.036684938,0.16105516,1.3120226,-9.648633,-0.7038953
6.2757664,4.6570153,-0.05189632,-0.03455441,0.15572885,1.163582,-9.739613,-0.59855044
6.275784,4.6569552,-0.05189632,-0.03455441,0.15572885,1.163582,-9.739613,-0.59855044
6.275797,4.656888,-0.05189632,-0.030293351,0.15040252,1.043872,-9.844957,-0.6560113
6.27581,4.6568213,-0.05189632,-0.030293351,0.15040252,1.043872,-9.844957,-0.6560113
6.275819,4.65675,-0.052961584,-0.028162822,0.14614145,1.1492168,-9.830592,-0.6847417
6.2758274,4.65668,-0.052961584,-0.028162822,0.14614145,1.1492168,-9.830592,-0.6847417
6.2758355,4.656604,-0.05402685,-0.027097559,0.14401093,1.1731589,-9.811439,-0.7230489
6.2758427,4.6565275,-0.05402685,-0.027097559,0.14401093,1.1731589,-9.811439,-0.7230489
6.275849,4.656451,-0.057222642,-0.02496703,0.14294566,1.1923125,-9.864111,-0.7038953
6.2758546,4.6563754,-0.057222642,-0.02496703,0.14294566,1.1923125,-9.864111,-0.7038953
6.2758574,4.656298,-0.0614837,-0.0228365,0.14081514,1.1971009,-9.878476,-0.6799533
6.2758603,4.6562214,-0.0614837,-0.0228365,0.14081514,1.1971009,-9.878476,-0.6799533
6.2758617,4.656134,-0.06574476,-0.017510178,0.1386846,1.1779473,-9.935937,-0.7278373
6.2758636,4.656048,-0.06574476,-0.017510178,0.1386846,1.1779473,-9.935937,-0.7278373
6.2758646,4.655951,-0.07213634,-0.012183856,0.13761935,0.9672575,-9.92636,-0.7182605
6.275866,4.6558547,-0.07213634,-0.012183856,0.13761935,0.9672575,-9.92636,-0.7182605
6.2758636,4.655761,-0.076397404,-0.008988062,0.13548881,0.89543146,-10.04607,-0.6751649
6.275861,4.6556664,-0.076397404,-0.008988062,0.13548881,0.89543146,-10.04607,-0.6751649
6.275858,4.655569,-0.08065846,-0.005792269,0.13548881,0.94810385,-10.089166,-0.6751649
6.2758546,4.6554728,-0.08065846,-0.005792269,0.13548881,0.94810385,-10.089166,-0.6751649
6.2758527,4.655403,-0.08172372,-0.00366174,0.13655408,0.8762778,-10.223241,-0.51235914
6.2758512,4.6553335,-0.08172372,-0.00366174,0.13655408,0.8762778,-10.223241,-0.51235914
6.2758474,4.655252,-0.0795932,-0.0015312112,0.13655408,0.866701,-10.204087,-0.59376204
6.275844,4.655171,-0.0795932,-0.0015312112,0.13655408,0.866701,-10.204087,-0.59376204
6.2758403,4.6550875,-0.076397404,0.0005993177,0.13655408,0.92416185,-10.251971,-0.63206923
6.275837,4.6550035,-0.076397404,0.0005993177,0.13655408,0.92416185,-10.251971,-0.63206923
6.275831,4.654926,-0.07320161,0.0016645822,0.13442355,0.8858546,-10.295067,-0.61770403
6.2758255,4.6548486,-0.07320161,0.0016645822,0.13442355,0.8858546,-10.295067,-0.61770403
6.2758155,4.6547694,-0.07000581,0.0027298466,0.13016249,0.93852705,-10.28549,-0.6464345
6.2758055,4.654691,-0.07000581,0.0027298466,0.13016249,0.93852705,-10.28549,-0.6464345
6.275789,4.654608,-0.06574476,0.0027298466,0.12270564,0.8475474,-10.261548,-0.6799533
6.2757726,4.654528,-0.06574476,0.0027298466,0.12270564,0.8475474,-10.261548,-0.6799533
6.275747,4.654459,-0.060418434,0.0027298466,0.11418352,0.93373865,-10.218452,-0.6464345
6.2757206,4.65439,-0.060418434,0.0027298466,0.11418352,0.93373865,-10.218452,-0.6464345
6.275684,4.65432,-0.05509211,0.0005993177,0.103530884,0.93852705,-10.184934,-0.6751649
6.275649,4.654253,-0.05509211,0.0005993177,0.103530884,0.93852705,-10.184934,-0.6751649
6.2756014,4.6541862,-0.050831053,-0.00046594674,0.09074771,0.9768343,-10.151415,-0.6943185
6.2755527,4.6541195,-0.050831053,-0.00046594674,0.09074771,0.9768343,-10.151415,-0.6943185
6.275489,4.6540623,-0.04763526,-0.00046594674,0.075834006,0.9816227,-10.0987425,-0.6512229
6.275395,4.653996,-0.04443947,0.0016645822,0.0609203,0.9959879,-10.036493,-0.6607997
6.27533,4.65395,-0.04443947,0.0016645822,0.0609203,0.9959879,-10.036493,-0.6607997
6.275251,4.6538944,-0.04443947,0.0016645822,0.0609203,0.9959879,-10.036493,-0.6607997
6.2750874,4.6537952,-0.042308938,0.0016645822,0.0460066,1.0103531,-10.065224,-0.6847417
6.2750874,4.6537952,-0.042308938,0.0016645822,0.0460066,1.0103531,-10.065224,-0.6847417
6.2750564,4.653776,-0.042308938,0.0016645822,0.0460066,1.0103531,-10.065224,-0.6847417
6.274932,4.6537147,-0.043374203,0.003795111,0.02896237,1.0295067,-9.988609,-0.6655881
6.2748313,4.6536646,-0.043374203,0.003795111,0.02896237,1.0295067,-9.988609,-0.6655881
6.274594,4.6535444,-0.045504734,0.00592564,0.010852873,1.0055647,-9.940725,-0.7134721
6.274594,4.6535444,-0.045504734,0.00592564,0.010852873,1.0055647,-9.940725,-0.7134721
6.274306,4.6534176,-0.046569996,0.0069909045,-0.0051260935,1.0582372,-9.921572,-0.7038953
6.274146,4.6533537,-0.04763526,0.010186698,-0.020039797,1.0486604,-9.916783,-0.6991069
6.274146,4.6533537,-0.04763526,0.010186698,-0.020039797,1.0486604,-9.916783,-0.6991069
6.273816,4.653224,-0.049765788,0.013382491,-0.031757705,1.0342951,-9.921572,-0.6943185
6.273645,4.6531587,-0.049765788,0.013382491,-0.031757705,1.0342951,-9.921572,-0.6943185
6.273465,4.6530933,-0.052961584,0.014447756,-0.04027982,1.0534488,-9.911995,-0.6751649
6.273285,4.653028,-0.052961584,0.014447756,-0.04027982,1.0534488,-9.911995,-0.6751649
6.2730966,4.652966,-0.052961584,0.01551302,-0.04773667,1.0486604,-9.888053,-0.6512229
6.272908,4.6529036,-0.052961584,0.01551302,-0.04773667,1.0486604,-9.888053,-0.6512229
6.2727156,4.6528425,-0.052961584,0.016578285,-0.05199773,1.1109096,-9.835381,-0.6464345
6.272523,4.6527815,-0.052961584,0.016578285,-0.05199773,1.1109096,-9.835381,-0.6464345
6.2723274,4.6527295,-0.052961584,0.016578285,-0.05519352,1.0582372,-9.821015,-0.5793968
6.2721314,4.6526775,-0.052961584,0.016578285,-0.05519352,1.0582372,-9.821015,-0.5793968
6.271934,4.6526227,-0.050831053,0.016578285,-0.056258786,1.1348516,-9.710882,-0.61291564
6.271737,4.6525674,-0.050831053,0.016578285,-0.056258786,1.1348516,-9.710882,-0.61291564
6.271544,4.6525073,-0.048700526,0.01551302,-0.053062994,1.1444284,-9.682152,-0.6655881
6.2713504,4.652447,-0.048700526,0.01551302,-0.053062994,1.1444284,-9.682152,-0.6655881
6.2711635,4.6523924,-0.04763526,0.014447756,-0.046671405,1.1683705,-9.624691,-0.63206923
6.270976,4.652338,-0.04763526,0.014447756,-0.046671405,1.1683705,-9.624691,-0.63206923
6.2707925,4.6522985,-0.04443947,0.012317227,-0.043475613,1.1779473,-9.548077,-0.5363012
6.2706094,4.6522593,-0.04443947,0.012317227,-0.043475613,1.1779473,-9.548077,-0.5363012
6.270431,4.6522217,-0.041243672,0.010186698,-0.03814929,1.2689269,-9.481039,-0.5410896
6.2702527,4.652184,-0.041243672,0.010186698,-0.03814929,1.2689269,-9.481039,-0.5410896
6.2700853,4.65216,-0.03698262,0.0069909045,-0.029627176,1.2162545,-9.409213,-0.46447513
6.2699175,4.6521363,-0.03698262,0.0069909045,-0.029627176,1.2162545,-9.409213,-0.46447513
6.2697563,4.6521144,-0.034852087,0.0027298466,-0.02323559,1.2162545,-9.385271,-0.46447513
6.2695956,4.6520925,-0.034852087,0.0027298466,-0.02323559,1.2162545,-9.385271,-0.46447513
6.2694454,4.652074,-0.032721557,-0.00046594674,-0.012582945,1.2497733,-9.323022,-0.44532153
6.2692957,4.6520557,-0.032721557,-0.00046594674,-0.012582945,1.2497733,-9.323022,-0.44532153
6.269161,4.652044,-0.029525764,-0.0047270046,0.0012654932,1.2497733,-9.32781,-0.4165911
6.2690263,4.6520324,-0.029525764,-0.0047270046,0.0012654932,1.2497733,-9.32781,-0.4165911
6.268905,4.652026,-0.0284605,-0.008988062,0.012983402,1.2785037,-9.246407,-0.36870706
6.268784,4.6520195,-0.0284605,-0.008988062,0.012983402,1.2785037,-9.246407,-0.36870706
6.268674,4.6520066,-0.029525764,-0.01324912,0.025766576,1.2880806,-9.270349,-0.4165911
6.268564,4.651994,-0.029525764,-0.01324912,0.025766576,1.2880806,-9.270349,-0.4165911
6.2684717,4.6519866,-0.0284605,-0.018575443,0.041745543,1.2785037,-9.246407,-0.37828386
6.2683797,4.6519794,-0.0284605,-0.018575443,0.041745543,1.2785037,-9.246407,-0.37828386
6.2683034,4.65197,-0.029525764,-0.023901764,0.05772451,1.3120226,-9.198523,-0.37828386
6.268227,4.6519604,-0.029525764,-0.023901764,0.05772451,1.3120226,-9.198523,-0.37828386
6.2681627,4.6519413,-0.03059103,-0.029228088,0.071572945,1.3120226,-9.11712,-0.45010993
6.268098,4.651922,-0.03059103,-0.029228088,0.071572945,1.3120226,-9.11712,-0.45010993
6.268047,4.651908,-0.034852087,-0.03455441,0.08222559,1.3311762,-9.088389,-0.36870706
6.267996,4.651893,-0.034852087,-0.03455441,0.08222559,1.3311762,-9.088389,-0.36870706
6.267954,4.651864,-0.041243672,-0.036684938,0.0939435,1.292869,-9.131485,-0.44532153
6.2679124,4.651835,-0.041243672,-0.036684938,0.0939435,1.292869,-9.131485,-0.44532153
6.2678814,4.6518044,-0.045504734,-0.03988073,0.103530884,1.3024458,-9.136273,-0.4213795
6.2678504,4.6517744,-0.045504734,-0.03988073,0.103530884,1.3024458,-9.136273,-0.4213795
6.2678323,4.6517406,-0.049765788,-0.04201126,0.11631405,1.292869,-9.198523,-0.4165911
6.2678146,4.651707,-0.049765788,-0.04201126,0.11631405,1.292869,-9.198523,-0.4165911
6.2678065,4.6516647,-0.05509211,-0.044141788,0.1269667,1.2306197,-9.160215,-0.45010993
6.2677984,4.651623,-0.05509211,-0.044141788,0.1269667,1.2306197,-9.160215,-0.45010993
6.267802,4.65158,-0.058287904,-0.045207053,0.13761935,1.2258313,-9.23683,-0.4357447
6.2678046,4.651536,-0.058287904,-0.045207053,0.13761935,1.2258313,-9.23683,-0.4357447
6.2678165,4.651486,-0.06361423,-0.045207053,0.14720672,1.2210429,-9.251195,-0.45968673
6.267829,4.651435,-0.06361423,-0.045207053,0.14720672,1.2210429,-9.251195,-0.45968673
6.26785,4.651389,-0.06681002,-0.047337584,0.15359831,1.1827357,-9.289502,-0.40222588
6.267871,4.6513433,-0.06681002,-0.047337584,0.15359831,1.1827357,-9.289502,-0.40222588
6.267893,4.651285,-0.06681002,-0.04946811,0.15785937,1.1683705,-9.303867,-0.49799395
6.2679152,4.6512275,-0.06681002,-0.04946811,0.15785937,1.1683705,-9.303867,-0.49799395
6.267944,4.6511745,-0.06681002,-0.052663904,0.16318569,1.1587936,-9.289502,-0.45968673
6.2679725,4.651122,-0.06681002,-0.052663904,0.16318569,1.1587936,-9.289502,-0.45968673
6.268001,4.651059,-0.06361423,-0.05372917,0.16531622,1.163582,-9.313444,-0.5602432
6.2680297,4.6509967,-0.06361423,-0.05372917,0.16531622,1.163582,-9.313444,-0.5602432
6.268063,4.6509542,-0.05935317,-0.05372917,0.16638148,1.1444284,-9.289502,-0.4405331
6.2680955,4.6509123,-0.05935317,-0.05372917,0.16638148,1.1444284,-9.289502,-0.4405331
6.2681255,4.6508665,-0.056157377,-0.05372917,0.16531622,1.1061212,-9.390059,-0.50278234
6.2681556,4.6508203,-0.056157377,-0.05372917,0.16531622,1.1061212,-9.390059,-0.50278234
6.268187,4.6507874,-0.049765788,-0.05372917,0.16531622,1.0534488,-9.414001,-0.46447513
6.268219,4.6507545,-0.049765788,-0.05372917,0.16531622,1.0534488,-9.414001,-0.46447513
6.268247,4.6507177,-0.04443947,-0.051598642,0.16425095,1.0199299,-9.485827,-0.5315128
6.2682757,4.650681,-0.04443947,-0.051598642,0.16425095,1.0199299,-9.485827,-0.5315128
6.268301,4.65064,-0.04017841,-0.050533377,0.16212043,1.0247183,-9.5385,-0.58897364
6.268326,4.6506,-0.04017841,-0.050533377,0.16212043,1.0247183,-9.5385,-0.58897364
6.2683496,4.6505604,-0.035917353,-0.04946811,0.16105516,1.0151415,-9.586384,-0.61291564
6.2683735,4.6505203,-0.035917353,-0.04946811,0.16105516,1.0151415,-9.586384,-0.61291564
6.2683973,4.6504846,-0.032721557,-0.048402846,0.16105516,0.9816227,-9.634268,-0.61291564
6.2684207,4.650449,-0.032721557,-0.048402846,0.16105516,0.9816227,-9.634268,-0.61291564
6.268446,4.65042,-0.03059103,-0.048402846,0.16212043,0.9864111,-9.65821,-0.58418524
6.2684712,4.650391,-0.03059103,-0.048402846,0.16212043,0.9864111,-9.65821,-0.58418524
6.268495,4.6503596,-0.029525764,-0.048402846,0.16105516,0.94331545,-9.720459,-0.61291564
6.268519,4.6503277,-0.029525764,-0.048402846,0.16105516,0.94331545,-9.720459,-0.61291564
6.268543,4.6503,-0.027395237,-0.048402846,0.16105516,0.91458505,-9.734824,-0.60333884
6.2685666,4.6502724,-0.027395237,-0.048402846,0.16105516,0.91458505,-9.734824,-0.60333884
6.268592,4.6502557,-0.027395237,-0.047337584,0.16105516,0.8714894,-9.792285,-0.5506664
6.268617,4.650239,-0.027395237,-0.047337584,0.16105516,0.8714894,-9.792285,-0.5506664
6.2686415,4.6502275,-0.025264706,-0.04627232,0.1599899,0.8571242,-9.758766,-0.5315128
6.2686663,4.6502166,-0.025264706,-0.04627232,0.1599899,0.8571242,-9.758766,-0.5315128
6.2686863,4.6502,-0.024199443,-0.044141788,0.1567941,0.8762778,-9.782708,-0.5650316
6.268707,4.6501837,-0.024199443,-0.044141788,0.1567941,0.8762778,-9.782708,-0.5650316
6.268724,4.6501703,-0.022068914,-0.043076526,0.15359831,0.8283938,-9.811439,-0.5650316
6.2687407,4.6501575,-0.022068914,-0.043076526,0.15359831,0.8283938,-9.811439,-0.5650316
6.268753,4.650144,-0.018873122,-0.040945996,0.14933725,0.89064306,-9.840169,-0.5793968
6.2687654,4.650131,-0.018873122,-0.040945996,0.14933725,0.89064306,-9.840169,-0.5793968
6.268772,4.6501203,-0.01674259,-0.03988073,0.14401093,0.8523358,-9.864111,-0.58418524
6.268779,4.650109,-0.01674259,-0.03988073,0.14401093,0.8523358,-9.864111,-0.58418524
6.2687793,4.6501017,-0.013546798,-0.03881547,0.13761935,0.81402856,-9.916783,-0.58418524
6.2687798,4.650095,-0.013546798,-0.03881547,0.13761935,0.81402856,-9.916783,-0.58418524
6.2687755,4.650093,-0.0114162695,-0.035619672,0.13229302,0.79966336,-9.950302,-0.5746084
6.2687707,4.650091,-0.0114162695,-0.035619672,0.13229302,0.79966336,-9.950302,-0.5746084
6.2687597,4.650076,-0.010351005,-0.03455441,0.1269667,0.81881696,-9.969456,-0.641646
6.2687488,4.650061,-0.010351005,-0.03455441,0.1269667,0.81881696,-9.969456,-0.641646
6.268733,4.650031,-0.0114162695,-0.033489145,0.120575115,0.82360536,-10.04607,-0.7182605
6.2687173,4.6500006,-0.0114162695,-0.033489145,0.120575115,0.82360536,-10.04607,-0.7182605
6.2686944,4.6499724,-0.012481534,-0.03242388,0.11418352,0.81402856,-10.012551,-0.6991069
6.2686715,4.6499443,-0.012481534,-0.03242388,0.11418352,0.81402856,-10.012551,-0.6991069
6.268645,4.6499023,-0.01674259,-0.030293351,0.10779194,0.81881696,-9.993398,-0.7469909
6.2686176,4.6498604,-0.01674259,-0.030293351,0.10779194,0.81881696,-9.993398,-0.7469909
6.268585,4.6498113,-0.022068914,-0.028162822,0.10140035,0.8283938,-9.9790325,-0.7613561
6.2685523,4.6497617,-0.022068914,-0.028162822,0.10140035,0.8283938,-9.9790325,-0.7613561
6.26851,4.6497154,-0.027395237,-0.027097559,0.0939435,0.8379706,-9.9550905,-0.7182605
6.268467,4.649669,-0.027395237,-0.027097559,0.0939435,0.8379706,-9.9550905,-0.7182605
6.2684207,4.6496096,-0.031656295,-0.023901764,0.087551914,0.866701,-9.921572,-0.770933
6.268374,4.6495495,-0.031656295,-0.023901764,0.087551914,0.866701,-9.921572,-0.770933
6.268319,4.649485,-0.03698262,-0.019640706,0.08009506,0.8810662,-9.92636,-0.770933
6.268265,4.649421,-0.03698262,-0.019640706,0.08009506,0.8810662,-9.92636,-0.770933
6.268204,4.6493464,-0.043374203,-0.015379649,0.07263821,0.89064306,-9.888053,-0.79966336
6.268144,4.649271,-0.043374203,-0.015379649,0.07263821,0.89064306,-9.888053,-0.79966336
6.2680717,4.6491933,-0.050831053,-0.010053327,0.06305083,0.90500826,-9.89763,-0.7757214
6.2679996,4.6491156,-0.050831053,-0.010053327,0.06305083,0.90500826,-9.89763,-0.7757214
6.2679157,4.649036,-0.057222642,-0.00366174,0.05346345,0.8810662,-9.89763,-0.7469909
6.2678323,4.6489563,-0.057222642,-0.00366174,0.05346345,0.8810662,-9.89763,-0.7469909
6.267742,4.6488643,-0.060418434,-0.00046594674,0.04387607,0.91458505,-9.921572,-0.80924016
6.2676516,4.6487727,-0.060418434,-0.00046594674,0.04387607,0.91458505,-9.921572,-0.80924016
6.267553,4.6486807,-0.0614837,0.0048603755,0.03641922,0.8858546,-9.873688,-0.79487497
6.267455,4.648589,-0.0614837,0.0048603755,0.03641922,0.8858546,-9.873688,-0.79487497
6.267346,4.648507,-0.0614837,0.011251962,0.02896237,0.92416185,-9.945514,-0.7517793
6.267236,4.648425,-0.0614837,0.011251962,0.02896237,0.92416185,-9.945514,-0.7517793
6.2671194,4.6483417,-0.062548965,0.01551302,0.021505518,0.94810385,-9.883265,-0.7565677
6.267002,4.648258,-0.062548965,0.01551302,0.021505518,0.94810385,-9.883265,-0.7565677
6.2668815,4.648171,-0.06361423,0.017643549,0.01724446,0.9624691,-9.801862,-0.770933
6.266761,4.6480837,-0.06361423,0.017643549,0.01724446,0.9624691,-9.801862,-0.770933
6.266637,4.647989,-0.06467949,0.020839343,0.011918138,0.9624691,-9.811439,-0.81402856
6.266513,4.647894,-0.06467949,0.020839343,0.011918138,0.9624691,-9.811439,-0.81402856
6.266384,4.6477995,-0.062548965,0.024035135,0.0065918155,1.0007763,-9.811439,-0.8331822
6.2662544,4.6477056,-0.062548965,0.024035135,0.0065918155,1.0007763,-9.811439,-0.8331822
6.266118,4.64762,-0.060418434,0.026165664,0.0012654932,1.0151415,-9.744401,-0.79008657
6.2659817,4.647535,-0.060418434,0.026165664,0.0012654932,1.0151415,-9.744401,-0.79008657
6.2658424,4.6474495,-0.060418434,0.02723093,-0.0008650357,1.0582372,-9.653421,-0.79487497
6.2657037,4.6473637,-0.060418434,0.02723093,-0.0008650357,1.0582372,-9.653421,-0.79487497
6.265562,4.647279,-0.060418434,0.028296193,-0.0029955646,1.1013328,-9.586384,-0.79487497
6.2653904,4.6471825,-0.05935317,0.028296193,-0.004060829,1.1061212,-9.548077,-0.770933
6.265269,4.6471143,-0.05935317,0.028296193,-0.004060829,1.1061212,-9.548077,-0.770933
6.2651277,4.647035,-0.05935317,0.028296193,-0.004060829,1.1061212,-9.548077,-0.770933
6.2649436,4.646943,-0.05935317,0.030426722,-0.0051260935,1.1492168,-9.500193,-0.7230489
6.2648363,4.6468897,-0.05935317,0.030426722,-0.0051260935,1.1492168,-9.500193,-0.7230489
6.2648363,4.6468897,-0.05935317,0.030426722,-0.0051260935,1.1492168,-9.500193,-0.7230489
6.2648363,4.6468897,-0.05935317,0.030426722,-0.0051260935,1.1492168,-9.500193,-0.7230489
6.2643995,4.6466994,-0.058287904,0.03468778,-0.0029955646,1.1779473,-9.409213,-0.6464345
6.2642546,4.646638,-0.058287904,0.03468778,-0.0029955646,1.1779473,-9.409213,-0.6464345
6.2641125,4.646574,-0.05509211,0.03681831,0.00020022877,1.2449849,-9.409213,-0.6943185
6.2639704,4.646509,-0.05509211,0.03681831,0.00020022877,1.2449849,-9.409213,-0.6943185
6.2639704,4.646509,-0.05509211,0.03681831,0.00020022877,1.2449849,-9.409213,-0.6943185
6.263695,4.6464176,-0.049765788,0.03681831,0.0033960221,1.2497733,-9.346964,-0.59376204
6.2635536,4.646372,-0.04443947,0.035753045,0.005526551,1.2976574,-9.284714,-0.61770403
6.263419,4.646329,-0.04443947,0.035753045,0.005526551,1.2976574,-9.284714,-0.61770403
6.2632866,4.646286,-0.039113145,0.03468778,0.008722344,1.2976574,-9.198523,-0.641646
6.263153,4.646244,-0.039113145,0.03468778,0.008722344,1.2976574,-9.198523,-0.641646
6.2630243,4.6462107,-0.033786822,0.031491987,0.012983402,1.3551182,-9.270349,-0.61291564
6.2628956,4.6461782,-0.033786822,0.031491987,0.012983402,1.3551182,-9.270349,-0.61291564
6.2627726,4.6461368,-0.029525764,0.02723093,0.018309724,1.364695,-9.203311,-0.7134721
6.2626495,4.6460953,-0.029525764,0.02723093,0.018309724,1.364695,-9.203311,-0.7134721
6.262534,4.6460676,-0.025264706,0.020839343,0.025766576,1.3982137,-9.150639,-0.6368576
6.2624187,4.646039,-0.025264706,0.020839343,0.025766576,1.3982137,-9.150639,-0.6368576
6.262311,4.6460114,-0.022068914,0.016578285,0.033223428,1.4173675,-9.093178,-0.6560113
6.2622027,4.645984,-0.022068914,0.016578285,0.033223428,1.4173675,-9.093178,-0.6560113
6.262105,4.6459637,-0.018873122,0.011251962,0.042810805,1.4269443,-9.102755,-0.62249243
6.262007,4.645943,-0.018873122,0.011251962,0.042810805,1.4269443,-9.102755,-0.62249243
6.2619205,4.6459236,-0.01674259,0.0048603755,0.05346345,1.412579,-9.074024,-0.62728083
6.2618337,4.6459045,-0.01674259,0.0048603755,0.05346345,1.412579,-9.074024,-0.62728083
6.261756,4.6458845,-0.015677327,-0.00046594674,0.061985567,1.4413095,-9.050082,-0.6464345
6.261678,4.6458635,-0.015677327,-0.00046594674,0.061985567,1.4413095,-9.050082,-0.6464345
6.261611,4.6458507,-0.013546798,-0.0025964756,0.07263821,1.4891934,-9.045294,-0.59855044
6.261544,4.645838,-0.013546798,-0.0025964756,0.07263821,1.4891934,-9.045294,-0.59855044
6.2614913,4.6458263,-0.0114162695,-0.0047270046,0.08648665,1.4652514,-9.074024,-0.60333884
6.2614384,4.645816,-0.0114162695,-0.0047270046,0.08648665,1.4652514,-9.074024,-0.60333884
6.2613983,4.645802,-0.008220476,-0.007922798,0.09926982,1.4700398,-9.030929,-0.6512229
6.261358,4.645788,-0.008220476,-0.007922798,0.09926982,1.4700398,-9.030929,-0.6512229
6.2613297,4.64578,-0.006089947,-0.012183856,0.11098773,1.4460979,-9.035717,-0.62249243
6.2613015,4.6457715,-0.006089947,-0.012183856,0.11098773,1.4460979,-9.035717,-0.62249243
6.2612877,4.6457715,-0.0018288894,-0.015379649,0.12483617,1.484405,-9.078813,-0.58897364
6.261274,4.6457715,-0.0018288894,-0.015379649,0.12483617,1.484405,-9.078813,-0.58897364
6.261276,4.645774,0.0024321685,-0.017510178,0.14081514,1.4652514,-9.078813,-0.60333884
6.2612777,4.6457763,0.0024321685,-0.017510178,0.14081514,1.4652514,-9.078813,-0.60333884
6.261296,4.645789,0.005627962,-0.019640706,0.15572885,1.4652514,-9.112331,-0.5410896
6.261296,4.645789,0.005627962,-0.019640706,0.15572885,1.4652514,-9.112331,-0.5410896
6.2613544,4.6458173,0.012019549,-0.021771235,0.16744675,1.4508862,-9.131485,-0.58897364
6.2613835,4.645831,0.012019549,-0.021771235,0.16744675,1.4508862,-9.131485,-0.58897364
6.261426,4.6458473,0.016280606,-0.0228365,0.18129519,1.4221559,-9.14585,-0.60812724
6.261469,4.6458635,0.016280606,-0.0228365,0.18129519,1.4221559,-9.14585,-0.60812724
6.2615247,4.6458874,0.019476399,-0.02496703,0.19407836,1.412579,-9.184157,-0.5746084
6.261581,4.6459103,0.019476399,-0.02496703,0.19407836,1.412579,-9.184157,-0.5746084
6.2616496,4.645943,0.024802722,-0.028162822,0.20579627,1.388637,-9.217676,-0.545878
6.2617183,4.645975,0.024802722,-0.028162822,0.20579627,1.388637,-9.217676,-0.545878
6.261794,4.646002,0.030129045,-0.031358615,0.21431838,1.3359646,-9.289502,-0.6464345
6.26187,4.6460276,0.030129045,-0.031358615,0.21431838,1.3359646,-9.289502,-0.6464345
6.2619596,4.6460714,0.03545537,-0.033489145,0.2260363,1.316811,-9.356541,-0.5554548
6.2620482,4.6461143,0.03545537,-0.033489145,0.2260363,1.316811,-9.356541,-0.5554548
6.262146,4.6461573,0.040781688,-0.035619672,0.23562367,1.3215994,-9.41879,-0.60333884
6.262244,4.6462,0.040781688,-0.035619672,0.23562367,1.3215994,-9.41879,-0.60333884
6.2623515,4.646241,0.047173277,-0.037750203,0.24521105,1.3024458,-9.414001,-0.6703765
6.262459,4.646282,0.047173277,-0.037750203,0.24521105,1.3024458,-9.414001,-0.6703765
6.262576,4.64633,0.051434334,-0.04201126,0.25479844,1.2354081,-9.509769,-0.6512229
6.2626934,4.646378,0.051434334,-0.04201126,0.25479844,1.2354081,-9.509769,-0.6512229
6.262818,4.6464405,0.055695392,-0.045207053,0.26119003,1.1971009,-9.586384,-0.5793968
6.2629423,4.6465034,0.055695392,-0.045207053,0.26119003,1.1971009,-9.586384,-0.5793968
6.2630715,4.646565,0.058891185,-0.047337584,0.26545107,1.1492168,-9.619903,-0.61291564
6.2631993,4.646626,0.058891185,-0.047337584,0.26545107,1.1492168,-9.619903,-0.61291564
6.263335,4.646697,0.06315224,-0.050533377,0.27184266,1.1204864,-9.68694,-0.58418524
6.2634706,4.646767,0.06315224,-0.050533377,0.27184266,1.1204864,-9.68694,-0.58418524
6.263614,4.646857,0.06634804,-0.051598642,0.27503845,1.0247183,-9.792285,-0.49799395
6.2637568,4.6469455,0.06634804,-0.051598642,0.27503845,1.0247183,-9.792285,-0.49799395
6.2639008,4.6470356,0.07060909,-0.050533377,0.277169,0.9624691,-9.844957,-0.5315128
6.2640443,4.6471252,0.07060909,-0.050533377,0.277169,0.9624691,-9.844957,-0.5315128
6.264187,4.6472044,0.07167436,-0.048402846,0.27929953,0.90500826,-9.959879,-0.60812724
6.26433,4.647284,0.07167436,-0.048402846,0.27929953,0.90500826,-9.959879,-0.60812724
6.2644787,4.647381,0.07273962,-0.047337584,0.28036478,0.8762778,-10.041282,-0.5315128
6.264626,4.6474767,0.07273962,-0.047337584,0.28036478,0.8762778,-10.041282,-0.5315128
6.2647686,4.6475573,0.073804885,-0.045207053,0.27929953,0.89064306,-10.060435,-0.61770403
6.2649107,4.6476374,0.073804885,-0.045207053,0.27929953,0.89064306,-10.060435,-0.61770403
6.265051,4.6477256,0.074870154,-0.044141788,0.27610373,0.8762778,-10.084377,-0.58418524
6.265191,4.6478133,0.074870154,-0.044141788,0.27610373,0.8762778,-10.084377,-0.58418524
6.2653246,4.6478844,0.075935416,-0.044141788,0.2707774,0.8619126,-10.079589,-0.6751649
6.2654576,4.6479545,0.075935416,-0.044141788,0.2707774,0.8619126,-10.079589,-0.6751649
6.265582,4.648038,0.074870154,-0.044141788,0.26119003,0.8762778,-10.089166,-0.60812724
6.2657065,4.6481204,0.074870154,-0.044141788,0.26119003,0.8762778,-10.089166,-0.60812724
6.2658176,4.6482005,0.073804885,-0.04201126,0.24734159,0.8523358,-10.065224,-0.61770403
6.265927,4.648279,0.073804885,-0.04201126,0.24734159,0.8523358,-10.065224,-0.61770403
6.2660217,4.6483555,0.07167436,-0.04201126,0.23242788,0.8571242,-10.060435,-0.62249243
6.2661166,4.648431,0.07167436,-0.04201126,0.23242788,0.8571242,-10.060435,-0.62249243
6.2661963,4.648506,0.0674133,-0.04201126,0.21644892,0.8331822,-10.022128,-0.60333884
6.266276,4.648581,0.0674133,-0.04201126,0.21644892,0.8331822,-10.022128,-0.60333884
6.266336,4.648653,0.06421751,-0.037750203,0.19727415,0.8619126,-10.0269165,-0.59855044
6.266396,4.648725,0.06421751,-0.037750203,0.19727415,0.8619126,-10.0269165,-0.59855044
6.2664375,4.6488013,0.05995645,-0.033489145,0.17703412,0.8475474,-9.988609,-0.5554548
6.266479,4.648877,0.05995645,-0.033489145,0.17703412,0.8475474,-9.988609,-0.5554548
6.2665043,4.6489553,0.05356486,-0.029228088,0.15785937,0.89543146,-10.012551,-0.49799395
6.2665296,4.649034,0.05356486,-0.029228088,0.15785937,0.89543146,-10.012551,-0.49799395
6.266536,4.649108,0.04610801,-0.02496703,0.1386846,0.866701,-9.964667,-0.48362875
6.2665434,4.649183,0.04610801,-0.02496703,0.1386846,0.866701,-9.964667,-0.48362875
6.2665367,4.6492586,0.03865116,-0.017510178,0.120575115,0.8571242,-9.935937,-0.4261679
6.26653,4.6493344,0.03865116,-0.017510178,0.120575115,0.8571242,-9.935937,-0.4261679
6.2665076,4.649404,0.030129045,-0.010053327,0.103530884,0.8283938,-9.9790325,-0.4213795
6.266485,4.649474,0.030129045,-0.010053327,0.103530884,0.8283938,-9.9790325,-0.4213795
6.266441,4.6495275,0.022672193,-0.00366174,0.087551914,0.8714894,-10.007763,-0.46447513
6.266441,4.6495275,0.022672193,-0.00366174,0.087551914,0.8714894,-10.007763,-0.46447513
6.2663374,4.6496277,0.0141500775,0.0016645822,0.07476874,0.866701,-10.0269165,-0.46926352
6.266282,4.6496706,0.0141500775,0.0016645822,0.07476874,0.866701,-10.0269165,-0.46926352
6.266282,4.6496706,0.0077584907,0.00592564,0.06518136,0.80445176,-10.070012,-0.47405192
6.2661495,4.649752,0.0077584907,0.00592564,0.06518136,0.80445176,-10.070012,-0.47405192
6.266073,4.649784,0.001366904,0.010186698,0.056659244,0.80445176,-10.093954,-0.48841715
6.2659974,4.6498156,0.001366904,0.010186698,0.056659244,0.80445176,-10.093954,-0.48841715
6.2659087,4.6498294,-0.0050246827,0.014447756,0.049202394,0.81881696,-10.070012,-0.5410896
6.26582,4.649844,-0.0050246827,0.014447756,0.049202394,0.81881696,-10.070012,-0.5410896
6.2657247,4.649841,-0.012481534,0.017643549,0.0460066,0.80924016,-10.079589,-0.58897364
6.2656317,4.649838,-0.012481534,0.017643549,0.0460066,0.80924016,-10.079589,-0.58897364
6.265534,4.649822,-0.019938385,0.020839343,0.04387607,0.8331822,-10.0508585,-0.61291564
6.2654376,4.6498065,-0.019938385,0.020839343,0.04387607,0.8331822,-10.0508585,-0.61291564
6.2653403,4.649774,-0.027395237,0.021904606,0.04387607,0.842759,-9.974244,-0.6512229
6.2652426,4.6497416,-0.027395237,0.021904606,0.04387607,0.842759,-9.974244,-0.6512229
6.2651443,4.649698,-0.034852087,0.024035135,0.042810805,0.8331822,-9.9790325,-0.6703765
6.265046,4.649654,-0.034852087,0.024035135,0.042810805,0.8331822,-9.9790325,-0.6703765
6.264948,4.6496015,-0.042308938,0.0251004,0.042810805,0.8571242,-9.92636,-0.6751649
6.2648497,4.6495495,-0.042308938,0.0251004,0.042810805,0.8571242,-9.92636,-0.6751649
6.264753,4.649504,-0.050831053,0.028296193,0.044941336,0.90979666,-9.892841,-0.59376204
6.2646565,4.64946,-0.050831053,0.028296193,0.044941336,0.90979666,-9.892841,-0.59376204
6.264559,4.6494074,-0.058287904,0.032557253,0.044941336,0.94331545,-9.830592,-0.58897364
6.264463,4.6493554,-0.058287904,0.032557253,0.044941336,0.94331545,-9.830592,-0.58897364
6.2643642,4.6492825,-0.06574476,0.035753045,0.042810805,0.9959879,-9.797073,-0.6655881
6.2642646,4.6492095,-0.06574476,0.035753045,0.042810805,0.9959879,-9.797073,-0.6655881
6.2641654,4.6491246,-0.075332135,0.040014103,0.042810805,1.0055647,-9.730036,-0.6751649
6.2640657,4.64904,-0.075332135,0.040014103,0.042810805,1.0055647,-9.730036,-0.6751649
6.263964,4.6489487,-0.08278899,0.04427516,0.040680278,1.0390835,-9.68694,-0.6751649
6.263862,4.6488566,-0.08278899,0.04427516,0.040680278,1.0390835,-9.68694,-0.6751649
6.2637568,4.648761,-0.089180574,0.049601484,0.037484486,1.0630256,-9.667787,-0.6655881
6.263651,4.6486645,-0.089180574,0.049601484,0.037484486,1.0630256,-9.667787,-0.6655881
6.2635417,4.648556,-0.09557216,0.052797277,0.033223428,1.1061212,-9.653421,-0.7038953
6.263432,4.648449,-0.09557216,0.052797277,0.033223428,1.1061212,-9.653421,-0.7038953
6.2633166,4.648343,-0.10089848,0.05599307,0.027897105,1.1492168,-9.629479,-0.6560113
6.2632027,4.6482396,-0.10089848,0.05599307,0.027897105,1.1492168,-9.629479,-0.6560113
6.263085,4.6481333,-0.10302901,0.0581236,0.025766576,1.1348516,-9.629479,-0.6512229
6.2629647,4.6480246,-0.10302901,0.0581236,0.025766576,1.1348516,-9.629479,-0.6512229
6.2628417,4.647917,-0.10302901,0.060254127,0.020440254,1.1013328,-9.672575,-0.6607997
6.2627187,4.64781,-0.10302901,0.060254127,0.020440254,1.1013328,-9.672575,-0.6607997
6.2625904,4.6477056,-0.10302901,0.061319392,0.016179197,1.115698,-9.677363,-0.641646
6.262463,4.647602,-0.10302901,0.061319392,0.016179197,1.115698,-9.677363,-0.641646
6.262332,4.647492,-0.10302901,0.062384658,0.012983402,1.1252748,-9.667787,-0.6799533
6.2622004,4.6473823,-0.10302901,0.062384658,0.012983402,1.1252748,-9.667787,-0.6799533
6.2620687,4.6472783,-0.10196375,0.062384658,0.011918138,1.1252748,-9.672575,-0.6512229
6.261937,4.647175,-0.10196375,0.062384658,0.011918138,1.1252748,-9.672575,-0.6512229
6.261806,4.647066,-0.09876795,0.062384658,0.012983402,1.0869676,-9.710882,-0.7038953
6.261806,4.647066,-0.09876795,0.062384658,0.012983402,1.0869676,-9.710882,-0.7038953
6.2612596,4.6466303,-0.092376366,0.061319392,0.016179197,1.1827357,-9.691729,-0.6751649
6.2612596,4.6466303,-0.092376366,0.061319392,0.016179197,1.1827357,-9.691729,-0.6751649
6.2612596,4.6466303,-0.092376366,0.061319392,0.016179197,1.1827357,-9.691729,-0.6751649
