Pitch,Roll,Gyro_X,Gyro_Y,Gyro_Z,Accel_X,Accel_Y,Accel_Z
0.4293329,4.7765317,-0.05402685,-0.048402846,0.0460066,-3.8402996,-8.863335,0.45968673
0.42923635,4.776477,-0.05402685,-0.048402846,0.049202394,-3.8498764,-8.853758,0.5410896
0.42914903,4.7764273,-0.05402685,-0.048402846,0.049202394,-3.8498764,-8.853758,0.5410896
0.42905736,4.7763815,-0.052961584,-0.04627232,0.05026766,-3.7732618,-8.858546,0.5410896
0.4289655,4.7763357,-0.052961584,-0.04627232,0.05026766,-3.7732618,-8.858546,0.5410896
0.42887792,4.776285,-0.05189632,-0.04201126,0.05346345,-3.7110126,-8.901642,0.5267244
0.42879018,4.776234,-0.05189632,-0.04201126,0.05346345,-3.7110126,-8.901642,0.5267244
0.42870232,4.776201,-0.05189632,-0.037750203,0.054528717,-3.6774938,-8.935161,0.56982
0.42860276,4.7761626,-0.05189632,-0.037750203,0.054528717,-3.6774938,-8.935161,0.56982
0.4285315,4.7760983,-0.05189632,-0.03242388,0.052398186,-3.7349546,-8.968679,0.48362875
0.42844948,4.7760243,-0.05189632,-0.03242388,0.052398186,-3.7349546,-8.968679,0.48362875
0.42836237,4.7759585,-0.049765788,-0.027097559,0.05026766,-3.7541082,-8.978256,0.50757074
0.42827496,4.7758927,-0.049765788,-0.027097559,0.05026766,-3.7541082,-8.978256,0.50757074
0.42818105,4.7758327,-0.04763526,-0.0228365,0.044941336,-3.739743,-9.050082,0.51714754
0.42808712,4.7757726,-0.04763526,-0.0228365,0.044941336,-3.739743,-9.050082,0.51714754
0.42799038,4.7757015,-0.046569996,-0.020705972,0.03854975,-3.7014358,-9.097966,0.47884035
0.42789346,4.775631,-0.046569996,-0.020705972,0.03854975,-3.7014358,-9.097966,0.47884035
0.4277981,4.7755423,-0.04443947,-0.021771235,0.02896237,-3.7445314,-9.078813,0.4261679
0.42770243,4.7754536,-0.04443947,-0.021771235,0.02896237,-3.7445314,-9.078813,0.4261679
0.42758742,4.775393,-0.04017841,-0.026032293,0.021505518,-3.6774938,-9.093178,0.47884035
0.4274724,4.7753325,-0.04017841,-0.026032293,0.021505518,-3.6774938,-9.093178,0.47884035
0.42735735,4.7752614,-0.03698262,-0.031358615,0.014048667,-3.7110126,-9.088389,0.4357447
0.42724183,4.775191,-0.03698262,-0.031358615,0.014048667,-3.7110126,-9.088389,0.4357447
0.42710823,4.77516,-0.032721557,-0.035619672,0.00765708,-3.7014358,-9.078813,0.5315128
0.4269743,4.7751284,-0.032721557,-0.035619672,0.00765708,-3.7014358,-9.078813,0.5315128
0.4268428,4.775085,-0.0284605,-0.03988073,0.005526551,-3.691859,-9.088389,0.47884035
0.42671126,4.7750416,-0.0284605,-0.03988073,0.005526551,-3.691859,-9.088389,0.47884035
0.4265829,4.774994,-0.024199443,-0.043076526,0.0044612866,-3.6822822,-9.069236,0.44532153
0.42645454,4.7749457,-0.024199443,-0.043076526,0.0044612866,-3.6822822,-9.069236,0.44532153
0.42631665,4.7749376,-0.021003649,-0.040945996,0.0044612866,-3.667917,-9.021352,0.5506664
0.42617875,4.77493,-0.021003649,-0.040945996,0.0044612866,-3.667917,-9.021352,0.5506664
0.42605433,4.774881,-0.017807856,-0.037750203,0.005526551,-3.6248214,-9.002198,0.4165911
0.4259301,4.774832,-0.017807856,-0.037750203,0.005526551,-3.6248214,-9.002198,0.4165911
0.42580935,4.774783,-0.013546798,-0.031358615,0.00765708,-3.6248214,-8.939949,0.4165911
0.4256884,4.774734,-0.013546798,-0.031358615,0.00765708,-3.6248214,-8.939949,0.4165911
0.4255624,4.7746944,-0.0114162695,-0.023901764,0.00765708,-3.6583402,-8.949526,0.45968673
0.42543638,4.7746553,-0.0114162695,-0.023901764,0.00765708,-3.6583402,-8.949526,0.45968673
0.42531747,4.7746,-0.008220476,-0.014314385,0.010852873,-3.691859,-8.896853,0.4357447
0.42520657,4.7745485,-0.008220476,-0.014314385,0.010852873,-3.691859,-8.896853,0.4357447
0.42511442,4.774468,-0.006089947,-0.0025964756,0.010852873,-3.787627,-8.901642,0.40222588
0.42502224,4.7743874,-0.006089947,-0.0025964756,0.010852873,-3.787627,-8.901642,0.40222588
0.42491642,4.774317,-0.0050246827,0.00592564,0.009787609,-3.7924154,-8.815451,0.45489833
0.42478976,4.7742314,-0.0050246827,0.00592564,0.009787609,-3.7924154,-8.815451,0.45489833
0.42470255,4.7741666,-0.0050246827,0.013382491,0.010852873,-3.8115692,-8.8777,0.45010993
0.42458498,4.7740793,-0.0050246827,0.013382491,0.010852873,-3.8115692,-8.8777,0.45010993
0.42451236,4.7739744,-0.0050246827,0.019774077,0.009787609,-3.8786068,-8.868123,0.4261679
0.42445543,4.773893,-0.0050246827,0.019774077,0.009787609,-3.8786068,-8.868123,0.4261679
0.42438304,4.7737846,-0.0071552116,0.024035135,0.008722344,-3.8977604,-8.872911,0.4405331
0.4243116,4.773679,-0.0071552116,0.024035135,0.008722344,-3.8977604,-8.872911,0.4405331
0.42425933,4.7735615,-0.0071552116,0.024035135,0.0065918155,-3.9217024,-8.844181,0.4357447
0.42420688,4.7734447,-0.0071552116,0.024035135,0.0065918155,-3.9217024,-8.844181,0.4357447
0.42419264,4.7733192,-0.0071552116,0.022969872,0.0033960221,-3.9600096,-8.805874,0.4357447
0.42417848,4.7731934,-0.0071552116,0.022969872,0.0033960221,-3.9600096,-8.805874,0.4357447
0.42417496,4.7730675,-0.008220476,0.019774077,0.0033960221,-3.9552212,-8.772355,0.4165911
0.4241715,4.7729416,-0.008220476,0.019774077,0.0033960221,-3.9552212,-8.772355,0.4165911
0.42429772,4.772871,-0.009285741,0.016578285,0.0044612866,-4.0318356,-8.748413,0.50278234
0.42442387,4.7728014,-0.009285741,0.016578285,0.0044612866,-4.0318356,-8.748413,0.50278234
0.42442864,4.7726746,-0.0114162695,0.014447756,0.0065918155,-3.9743748,-8.78672,0.46926352
0.42443335,4.7725477,-0.0114162695,0.014447756,0.0065918155,-3.9743748,-8.78672,0.46926352
0.42448255,4.7724247,-0.013546798,0.013382491,0.009787609,-3.9839516,-8.734048,0.45489833
0.42448255,4.7724247,-0.013546798,0.013382491,0.009787609,-3.9839516,-8.734048,0.45489833
0.4245903,4.7721577,-0.014612063,0.013382491,0.014048667,-3.964798,-8.700529,0.46447513
0.42463833,4.7720485,-0.014612063,0.013382491,0.014048667,-3.964798,-8.700529,0.46447513
0.4247581,4.771949,-0.015677327,0.016578285,0.022570781,-4.027047,-8.748413,0.47884035
0.42487493,4.771852,-0.015677327,0.016578285,0.022570781,-4.027047,-8.748413,0.47884035
0.42503288,4.771785,-0.01674259,0.020839343,0.02896237,-3.9983168,-8.700529,0.50278234
0.4251915,4.771717,-0.01674259,0.020839343,0.02896237,-3.9983168,-8.700529,0.50278234
0.4252688,4.7715845,-0.019938385,0.0251004,0.031092897,-3.9935284,-8.7532015,0.47405192
0.4253459,4.7714515,-0.019938385,0.0251004,0.031092897,-3.9935284,-8.7532015,0.47405192
0.42540938,4.7713094,-0.02313418,0.029361458,0.033223428,-4.0222588,-8.796297,0.4165911
0.42547253,4.7711673,-0.02313418,0.029361458,0.033223428,-4.0222588,-8.796297,0.4165911
0.42564714,4.771148,-0.027395237,0.033622514,0.035353955,-4.060566,-8.815451,0.5267244
0.42582124,4.77113,-0.027395237,0.033622514,0.035353955,-4.060566,-8.815451,0.5267244
0.42599192,4.7710547,-0.0284605,0.035753045,0.035353955,-4.084508,-8.848969,0.50757074
0.42616293,4.7709794,-0.0284605,0.035753045,0.035353955,-4.084508,-8.848969,0.50757074
0.4263373,4.7709236,-0.03059103,0.035753045,0.033223428,-4.1419687,-8.90643,0.51714754
0.42651227,4.770869,-0.03059103,0.035753045,0.033223428,-4.1419687,-8.90643,0.51714754
0.42666152,4.770761,-0.031656295,0.03468778,0.033223428,-4.1515455,-8.930372,0.48362875
0.42681146,4.770653,-0.031656295,0.03468778,0.033223428,-4.1515455,-8.930372,0.48362875
0.42695475,4.770542,-0.031656295,0.031491987,0.031092897,-4.185065,-8.987833,0.47884035
0.42709836,4.7704315,-0.031656295,0.031491987,0.031092897,-4.185065,-8.987833,0.47884035
0.42725995,4.7704287,-0.03059103,0.0251004,0.02896237,-4.1611223,-9.016563,0.5363012
0.42742154,4.7704277,-0.03059103,0.0251004,0.02896237,-4.1611223,-9.016563,0.5363012
0.42758453,4.770363,-0.0284605,0.017643549,0.027897105,-4.185065,-8.959103,0.50278234
0.42774755,4.770298,-0.0284605,0.017643549,0.027897105,-4.185065,-8.959103,0.50278234
0.4279018,4.770318,-0.026329972,0.009121433,0.027897105,-4.19943,-9.054871,0.545878
0.42805532,4.7703385,-0.026329972,0.009121433,0.027897105,-4.19943,-9.054871,0.545878
0.4282246,4.7702994,-0.025264706,0.0016645822,0.031092897,-4.185065,-9.011775,0.51714754
0.4283945,4.7702603,-0.025264706,0.0016645822,0.031092897,-4.185065,-9.011775,0.51714754
0.42853308,4.7703195,-0.019938385,-0.00366174,0.037484486,-4.1611223,-9.011775,0.545878
0.42867082,4.770379,-0.019938385,-0.00366174,0.037484486,-4.1611223,-9.011775,0.545878
0.4288468,4.770402,-0.01674259,-0.007922798,0.042810805,-4.1706996,-9.045294,0.5315128
0.42902195,4.7704253,-0.01674259,-0.007922798,0.042810805,-4.1706996,-9.045294,0.5315128
0.42918795,4.77036,-0.013546798,-0.011118591,0.049202394,-4.1419687,-8.968679,0.50757074
0.42935285,4.770294,-0.013546798,-0.011118591,0.049202394,-4.1419687,-8.968679,0.50757074
0.42944232,4.7701864,-0.009285741,-0.01324912,0.058789775,-4.1132383,-8.930372,0.46447513
0.4295307,4.7700787,-0.009285741,-0.01324912,0.058789775,-4.1132383,-8.930372,0.46447513
0.4295227,4.769986,-0.0071552116,-0.014314385,0.06624663,-4.0318356,-8.925584,0.45010993
0.42951402,4.7698936,-0.0071552116,-0.014314385,0.06624663,-4.0318356,-8.925584,0.45010993
0.4295577,4.76979,-0.0039594183,-0.014314385,0.07050768,-4.0557775,-8.882488,0.45010993
0.4296002,4.7696877,-0.0039594183,-0.014314385,0.07050768,-4.0557775,-8.882488,0.45010993
0.42965555,4.7695837,-0.0018288894,-0.010053327,0.07476874,-4.0653543,-8.887277,0.45489833
0.42970964,4.7694798,-0.0018288894,-0.010053327,0.07476874,-4.0653543,-8.887277,0.45489833
0.42967248,4.7694206,0.00030163955,-0.007922798,0.07689927,-4.0222588,-8.930372,0.47405192
0.42963496,4.769361,0.00030163955,-0.007922798,0.07689927,-4.0222588,-8.930372,0.47405192
0.4296731,4.769263,0.001366904,-0.007922798,0.07689927,-4.036624,-8.896853,0.40701428
0.42971066,4.769164,0.001366904,-0.007922798,0.07689927,-4.036624,-8.896853,0.40701428
0.42965004,4.769138,0.001366904,-0.011118591,0.073703475,-3.98874,-8.939949,0.48362875
0.42958936,4.7691116,0.001366904,-0.011118591,0.073703475,-3.98874,-8.939949,0.48362875
0.42961147,4.7690206,0.0024321685,-0.016444914,0.07050768,-4.0414124,-8.920795,0.4165911
0.42963317,4.7689285,0.0024321685,-0.016444914,0.07050768,-4.0414124,-8.920795,0.4165911
0.42958274,4.768882,0.0045626974,-0.0228365,0.06624663,-4.0174704,-8.896853,0.47405192
0.42953217,4.768835,0.0045626974,-0.0228365,0.06624663,-4.0174704,-8.896853,0.47405192
0.42951944,4.7687607,0.0045626974,-0.031358615,0.061985567,-4.012682,-8.872911,0.4405331
0.42950675,4.7686872,0.0045626974,-0.031358615,0.061985567,-4.012682,-8.872911,0.4405331
0.429429,4.768681,0.0077584907,-0.036684938,0.058789775,-3.9552212,-8.825027,0.47884035
0.42935145,4.768675,0.0077584907,-0.036684938,0.058789775,-3.9552212,-8.825027,0.47884035
0.42926678,4.7687044,0.0077584907,-0.044141788,0.05772451,-3.9217024,-8.834604,0.49799395
0.42918202,4.768734,0.0077584907,-0.044141788,0.05772451,-3.9217024,-8.834604,0.49799395
0.42910245,4.7687993,0.0077584907,-0.04946811,0.055593982,-3.8738184,-8.7771435,0.5267244
0.42902294,4.768864,0.0077584907,-0.04946811,0.055593982,-3.8738184,-8.7771435,0.5267244
0.42894506,4.768855,0.008823755,-0.054794434,0.054528717,-3.8402996,-8.710106,0.45010993
0.42886746,4.768846,0.008823755,-0.054794434,0.054528717,-3.8402996,-8.710106,0.45010993
0.4287819,4.768879,0.008823755,-0.05692496,0.05772451,-3.7828386,-8.7292595,0.48841715
0.42869622,4.768911,0.008823755,-0.05692496,0.05772451,-3.7828386,-8.7292595,0.48841715
0.4286118,4.768944,0.0077584907,-0.05692496,0.058789775,-3.7541082,-8.686164,0.48841715
0.42852727,4.7689767,0.0077584907,-0.05692496,0.058789775,-3.7541082,-8.686164,0.48841715
0.42844322,4.7690063,0.0066932263,-0.051598642,0.058789775,-3.6727054,-8.6813755,0.48841715
0.42835882,4.7690363,0.0066932263,-0.051598642,0.058789775,-3.6727054,-8.6813755,0.48841715
0.42827854,4.7690325,0.0045626974,-0.04627232,0.05772451,-3.6822822,-8.623915,0.4405331
0.42819583,4.7690296,0.0045626974,-0.04627232,0.05772451,-3.6822822,-8.623915,0.4405331
0.42811188,4.7690635,0.001366904,-0.040945996,0.054528717,-3.667917,-8.686164,0.51714754
0.42802557,4.7690983,0.001366904,-0.040945996,0.054528717,-3.667917,-8.686164,0.51714754
0.4279375,4.7690835,-0.0018288894,-0.035619672,0.049202394,-3.691859,-8.719683,0.4405331
0.42784938,4.7690682,-0.0018288894,-0.035619672,0.049202394,-3.691859,-8.719683,0.4405331
0.4277541,4.7690916,-0.0050246827,-0.029228088,0.044941336,-3.6535518,-8.719683,0.521936
0.4276576,4.769115,-0.0050246827,-0.029228088,0.044941336,-3.6535518,-8.719683,0.521936
0.4275441,4.769123,-0.006089947,-0.021771235,0.037484486,-3.6966474,-8.772355,0.50278234
0.4275441,4.769123,-0.006089947,-0.021771235,0.037484486,-3.6966474,-8.772355,0.50278234
0.4275441,4.769123,-0.006089947,-0.021771235,0.037484486,-3.6966474,-8.772355,0.50278234
0.42717388,4.769147,-0.008220476,-0.015379649,0.02896237,-3.739743,-8.781932,0.49799395
0.42710122,4.7691383,-0.0114162695,-0.010053327,0.019374989,-3.7541082,-8.781932,0.48841715
0.42700583,4.769128,-0.0114162695,-0.010053327,0.019374989,-3.7541082,-8.781932,0.48841715
0.42687646,4.769111,-0.014612063,-0.00366174,0.012983402,-3.821146,-8.853758,0.49799395
0.4267311,4.7690926,-0.014612063,-0.00366174,0.012983402,-3.821146,-8.853758,0.49799395
0.42660245,4.7690725,-0.01674259,0.0016645822,0.0065918155,-3.7732618,-8.858546,0.49799395
0.42643464,4.7690473,-0.01674259,0.0016645822,0.0065918155,-3.7732618,-8.858546,0.49799395
0.42636165,4.7690563,-0.018873122,0.0069909045,0.00020022877,-3.8163576,-8.858546,0.5554548
0.4262333,4.7690725,-0.021003649,0.009121433,-0.004060829,-3.8067808,-8.901642,0.49799395
0.42608637,4.769042,-0.021003649,0.009121433,-0.004060829,-3.8067808,-8.901642,0.49799395
0.42594698,4.7690125,-0.021003649,0.009121433,-0.004060829,-3.8067808,-8.901642,0.49799395
0.42580014,4.7689905,-0.021003649,0.012317227,-0.0072566224,-3.8115692,-8.916007,0.51235914
0.42565393,4.7689686,-0.021003649,0.012317227,-0.0072566224,-3.8115692,-8.916007,0.51235914
0.42550775,4.7689147,-0.021003649,0.014447756,-0.010452416,-3.8259344,-8.930372,0.46926352
0.42536148,4.768861,-0.021003649,0.014447756,-0.010452416,-3.8259344,-8.930372,0.46926352
0.42522165,4.7688684,-0.021003649,0.017643549,-0.010452416,-3.8307228,-8.949526,0.5602432
0.42508182,4.768876,-0.021003649,0.017643549,-0.010452416,-3.8307228,-8.949526,0.5602432
0.42493197,4.768836,-0.022068914,0.020839343,-0.01151768,-3.8833952,-8.973468,0.49799395
0.4247818,4.768796,-0.022068914,0.020839343,-0.01151768,-3.8833952,-8.973468,0.49799395
0.42463502,4.7687373,-0.022068914,0.024035135,-0.01151768,-3.9121256,-8.935161,0.48362875
0.42448813,4.768679,-0.022068914,0.024035135,-0.01151768,-3.9121256,-8.935161,0.48362875
0.42433977,4.768634,-0.022068914,0.02723093,-0.010452416,-3.86903,-8.973468,0.49320555
0.4241915,4.7685885,-0.022068914,0.02723093,-0.010452416,-3.86903,-8.973468,0.49320555
0.42404482,4.768565,-0.021003649,0.031491987,-0.009387151,-3.8786068,-8.963891,0.51714754
0.42389846,4.7685423,-0.021003649,0.031491987,-0.009387151,-3.8786068,-8.963891,0.51714754
0.42375544,4.7685156,-0.017807856,0.033622514,-0.006191358,-3.9360676,-8.954314,0.50757074
0.423611,4.7684894,-0.017807856,0.033622514,-0.006191358,-3.9360676,-8.954314,0.50757074
0.42348695,4.7684035,-0.015677327,0.03681831,-0.0029955646,-3.98874,-8.949526,0.48362875
0.42336276,4.768319,-0.015677327,0.03681831,-0.0029955646,-3.98874,-8.949526,0.48362875
0.42328864,4.7681956,-0.013546798,0.038948838,0.0012654932,-4.003105,-8.992621,0.45010993
0.42321432,4.768073,-0.013546798,0.038948838,0.0012654932,-4.003105,-8.992621,0.45010993
0.42329985,4.768133,-0.0114162695,0.04107937,0.0033960221,-4.0701427,-8.968679,0.521936
0.42338517,4.768194,-0.0114162695,0.04107937,0.0033960221,-4.0701427,-8.968679,0.521936
0.4235001,4.7680945,-0.0114162695,0.043209895,0.005526551,-4.0940847,-8.978256,0.47884035
0.42361504,4.767996,-0.0114162695,0.043209895,0.005526551,-4.0940847,-8.978256,0.47884035
0.42367905,4.767866,-0.009285741,0.043209895,0.009787609,-4.0797195,-8.992621,0.46926352
0.4237428,4.7677374,-0.009285741,0.043209895,0.009787609,-4.0797195,-8.992621,0.46926352
0.42387322,4.767776,-0.0071552116,0.04427516,0.015113931,-4.122815,-8.992621,0.5267244
0.42400774,4.767816,-0.0071552116,0.04427516,0.015113931,-4.122815,-8.992621,0.5267244
0.42416593,4.7678084,-0.0039594183,0.04214463,0.018309724,-4.0653543,-8.925584,0.49799395
0.42432234,4.7678027,-0.0039594183,0.04214463,0.018309724,-4.0653543,-8.925584,0.49799395
0.42429188,4.7678847,0.00030163955,0.040014103,0.021505518,-4.0222588,-8.920795,0.51714754
0.42426088,4.7679667,0.00030163955,0.040014103,0.021505518,-4.0222588,-8.920795,0.51714754
0.4243728,4.767871,0.003497433,0.03681831,0.022570781,-4.027047,-8.896853,0.49320555
0.42447954,4.767771,0.003497433,0.03681831,0.022570781,-4.027047,-8.896853,0.49320555
0.4244536,4.767661,0.0066932263,0.033622514,0.025766576,-3.98874,-8.872911,0.45010993
0.4244271,4.767553,0.0066932263,0.033622514,0.025766576,-3.98874,-8.872911,0.45010993
0.42436248,4.767627,0.008823755,0.031491987,0.027897105,-3.964798,-8.887277,0.5315128
0.42429763,4.767701,0.008823755,0.031491987,0.027897105,-3.964798,-8.887277,0.5315128
0.4241898,4.7676773,0.010954284,0.029361458,0.027897105,-3.9935284,-8.882488,0.48841715
0.4240816,4.7676535,0.010954284,0.029361458,0.027897105,-3.9935284,-8.882488,0.48841715
0.4241247,4.7677617,0.012019549,0.028296193,0.025766576,-3.9983168,-8.829816,0.51714754
0.4241669,4.7678695,0.012019549,0.028296193,0.025766576,-3.9983168,-8.829816,0.51714754
0.4242508,4.7679715,0.0141500775,0.026165664,0.022570781,-4.012682,-8.853758,0.50278234
0.4243333,4.768074,0.0141500775,0.026165664,0.022570781,-4.012682,-8.853758,0.50278234
0.4244736,4.768138,0.017345872,0.024035135,0.019374989,-4.0174704,-8.853758,0.49799395
0.4246143,4.7682037,0.017345872,0.024035135,0.019374989,-4.0174704,-8.853758,0.49799395
0.42475367,4.768162,0.018411135,0.021904606,0.015113931,-4.036624,-8.801085,0.47405192
0.42489284,4.76812,0.018411135,0.021904606,0.015113931,-4.036624,-8.801085,0.47405192
0.42500594,4.768207,0.019476399,0.017643549,0.010852873,-4.036624,-8.7292595,0.5363012
0.42511982,4.768295,0.019476399,0.017643549,0.010852873,-4.036624,-8.7292595,0.5363012
0.42525813,4.768351,0.023737457,0.011251962,0.005526551,-3.9935284,-8.7053175,0.49799395
0.42539668,4.7684064,0.023737457,0.011251962,0.005526551,-3.9935284,-8.7053175,0.49799395
0.42550868,4.768365,0.025867987,0.0027298466,0.0023307577,-3.98874,-8.724471,0.47405192
0.4256203,4.7683225,0.025867987,0.0027298466,0.0023307577,-3.98874,-8.724471,0.47405192
0.4256116,4.768244,0.026933251,-0.0068575335,-0.0008650357,-3.9264908,-8.652645,0.46447513
0.425603,4.768165,0.026933251,-0.0068575335,-0.0008650357,-3.9264908,-8.652645,0.46447513
0.42548344,4.7681327,0.025867987,-0.014314385,-0.0051260935,-3.8977604,-8.619126,0.47405192
0.42536452,4.7680984,0.025867987,-0.014314385,-0.0051260935,-3.8977604,-8.619126,0.47405192
0.4253207,4.7682385,0.025867987,-0.021771235,-0.008321887,-3.8833952,-8.571242,0.49320555
0.42527694,4.7683783,0.025867987,-0.021771235,-0.008321887,-3.8833952,-8.571242,0.49320555
0.42519796,4.7685113,0.025867987,-0.028162822,-0.010452416,-3.8259344,-8.523358,0.5267244
0.42511857,4.7686443,0.025867987,-0.028162822,-0.010452416,-3.8259344,-8.523358,0.5267244
0.42505535,4.768782,0.022672193,-0.031358615,-0.015778739,-3.8307228,-8.523358,0.545878
0.42499128,4.768922,0.022672193,-0.031358615,-0.015778739,-3.8307228,-8.523358,0.545878
0.42497054,4.769064,0.019476399,-0.033489145,-0.024300855,-3.86903,-8.523358,0.545878
0.4249502,4.769206,0.019476399,-0.033489145,-0.024300855,-3.86903,-8.523358,0.545878
0.42492566,4.7693467,0.016280606,-0.036684938,-0.029627176,-3.8642416,-8.508993,0.5554548
0.4249016,4.7694874,0.016280606,-0.036684938,-0.029627176,-3.8642416,-8.508993,0.5554548
0.4249529,4.7696033,0.012019549,-0.037750203,-0.03069244,-3.9360676,-8.48984,0.5602432
0.4250046,4.769719,0.012019549,-0.037750203,-0.03069244,-3.9360676,-8.48984,0.5602432
0.42507058,4.7698197,0.008823755,-0.03881547,-0.033888236,-3.9600096,-8.485051,0.5554548
0.42513686,4.7699203,0.008823755,-0.03881547,-0.033888236,-3.9600096,-8.485051,0.5554548
0.4252025,4.7700167,0.0045626974,-0.03988073,-0.034953497,-3.9743748,-8.480263,0.5650316
0.42526826,4.770113,0.0045626974,-0.03988073,-0.034953497,-3.9743748,-8.480263,0.5650316
0.4253578,4.7701845,0.00030163955,-0.043076526,-0.031757705,-3.9695864,-8.441956,0.5363012
0.42544726,4.770255,0.00030163955,-0.043076526,-0.031757705,-3.9695864,-8.441956,0.5363012
0.42555475,4.770287,-0.0050246827,-0.043076526,-0.028561912,-3.9600096,-8.384495,0.50278234
0.42566162,4.770319,-0.0050246827,-0.043076526,-0.028561912,-3.9600096,-8.384495,0.50278234
0.42577115,4.7703414,-0.009285741,-0.040945996,-0.027496647,-4.0174704,-8.360553,0.50278234
0.4258805,4.7703633,-0.009285741,-0.040945996,-0.027496647,-4.0174704,-8.360553,0.50278234
0.42597827,4.770414,-0.013546798,-0.036684938,-0.026431382,-4.084508,-8.355764,0.5746084
0.42607597,4.770464,-0.013546798,-0.036684938,-0.026431382,-4.084508,-8.355764,0.5746084
0.42618012,4.770498,-0.021003649,-0.033489145,-0.024300855,-4.0940847,-8.374918,0.5602432
0.42628396,4.7705317,-0.021003649,-0.033489145,-0.024300855,-4.0940847,-8.374918,0.5602432
0.4263936,4.7705474,-0.0284605,-0.031358615,-0.02323559,-4.1419687,-8.336611,0.5506664
0.4265028,4.770563,-0.0284605,-0.031358615,-0.02323559,-4.1419687,-8.336611,0.5506664
0.4266193,4.7705626,-0.035917353,-0.027097559,-0.018974531,-4.237737,-8.322245,0.5506664
0.42673516,4.770563,-0.035917353,-0.027097559,-0.018974531,-4.237737,-8.322245,0.5506664
0.4268544,4.770562,-0.042308938,-0.02496703,-0.013648209,-4.247314,-8.350976,0.56982
0.42697367,4.7705617,-0.042308938,-0.02496703,-0.013648209,-4.247314,-8.350976,0.56982
0.4270949,4.770561,-0.049765788,-0.023901764,-0.008321887,-4.3478703,-8.37013,0.61770403
0.42721698,4.770561,-0.049765788,-0.023901764,-0.008321887,-4.3478703,-8.37013,0.61770403
0.42734218,4.770553,-0.057222642,-0.02496703,-0.004060829,-4.4101195,-8.437167,0.62728083
0.42746764,4.770546,-0.057222642,-0.02496703,-0.004060829,-4.4101195,-8.437167,0.62728083
0.42759886,4.7705417,-0.062548965,-0.028162822,0.0033960221,-4.4340615,-8.480263,0.6607997
0.427724,4.770538,-0.062548965,-0.028162822,0.0033960221,-4.4340615,-8.480263,0.6607997
0.42786404,4.770526,-0.06574476,-0.036684938,0.010852873,-4.5633483,-8.51857,0.6512229
0.4280038,4.7705145,-0.06574476,-0.036684938,0.010852873,-4.5633483,-8.51857,0.6512229
0.42814788,4.77051,-0.07000581,-0.04627232,0.019374989,-4.5920787,-8.552089,0.6943185
0.42829186,4.770507,-0.07000581,-0.04627232,0.019374989,-4.5920787,-8.552089,0.6943185
0.42844382,4.77051,-0.07320161,-0.057990227,0.031092897,-4.5872903,-8.561666,0.7182605
0.42859566,4.7705135,-0.07320161,-0.057990227,0.031092897,-4.5872903,-8.561666,0.7182605
0.42875615,4.7705274,-0.075332135,-0.06970814,0.044941336,-4.620809,-8.614338,0.7613561
0.42891642,4.770541,-0.075332135,-0.06970814,0.044941336,-4.620809,-8.614338,0.7613561
0.42909214,4.7705593,-0.076397404,-0.08462184,0.059855036,-4.572925,-8.619126,0.7326257
0.4292678,4.770578,-0.076397404,-0.08462184,0.059855036,-4.572925,-8.619126,0.7326257
0.42945632,4.7706113,-0.076397404,-0.10166607,0.0790298,-4.548983,-8.614338,0.7613561
0.42964482,4.7706447,-0.076397404,-0.10166607,0.0790298,-4.548983,-8.614338,0.7613561
0.42985594,4.77068,-0.076397404,-0.1187103,0.09713929,-4.43885,-8.590396,0.6847417
0.43006694,4.770715,-0.076397404,-0.1187103,0.09713929,-4.43885,-8.590396,0.6847417
0.43027055,4.770784,-0.076397404,-0.13575453,0.11631405,-4.3047748,-8.599973,0.7422025
0.43047383,4.7708526,-0.076397404,-0.13575453,0.11631405,-4.3047748,-8.599973,0.7422025
0.43066913,4.7709427,-0.077462666,-0.1517335,0.13335828,-4.1946416,-8.614338,0.7517793
0.43086338,4.7710323,-0.077462666,-0.1517335,0.13335828,-4.1946416,-8.614338,0.7517793
0.4310481,4.7711368,-0.07852793,-0.16558194,0.148272,-4.10845,-8.566454,0.79008657
0.43123275,4.771241,-0.07852793,-0.16558194,0.148272,-4.10845,-8.566454,0.79008657
0.43138158,4.7713594,-0.077462666,-0.17943038,0.15892464,-3.9504328,-8.556877,0.6895301
0.43152893,4.7714767,-0.077462666,-0.17943038,0.15892464,-3.9504328,-8.556877,0.6895301
0.43162405,4.771588,-0.076397404,-0.18901776,0.16851202,-3.7972038,-8.532935,0.6895301
0.4317189,4.7717,-0.076397404,-0.18901776,0.16851202,-3.7972038,-8.532935,0.6895301
0.4318038,4.7718067,-0.077462666,-0.19753987,0.1749036,-3.7205894,-8.461109,0.6799533
0.43188798,4.7719135,-0.077462666,-0.19753987,0.1749036,-3.7205894,-8.461109,0.6799533
0.4319571,4.7720094,-0.08065846,-0.2028662,0.1749036,-3.6583402,-8.494628,0.6943185
0.4320259,4.7721057,-0.08065846,-0.2028662,0.1749036,-3.6583402,-8.494628,0.6943185
0.43207043,4.7721834,-0.08385425,-0.20712726,0.17064254,-3.643975,-8.504205,0.6368576
0.43211463,4.7722607,-0.08385425,-0.20712726,0.17064254,-3.643975,-8.504205,0.6368576
0.43216607,4.7723475,-0.08598478,-0.20819251,0.16638148,-3.643975,-8.552089,0.6943185
0.4322173,4.7724338,-0.08598478,-0.20819251,0.16638148,-3.643975,-8.552089,0.6943185
0.43228626,4.772533,-0.08811531,-0.20925778,0.16318569,-3.7014358,-8.566454,0.7469909
0.43235475,4.7726316,-0.08811531,-0.20925778,0.16318569,-3.7014358,-8.566454,0.7469909
0.43240553,4.772717,-0.091311105,-0.21032305,0.16212043,-3.5913026,-8.643068,0.78050977
0.4324563,4.7728014,-0.091311105,-0.21032305,0.16212043,-3.5913026,-8.643068,0.78050977
0.43249366,4.772877,-0.092376366,-0.2145841,0.1599899,-3.53863,-8.714894,0.770933
0.432531,4.772953,-0.092376366,-0.2145841,0.1599899,-3.53863,-8.714894,0.770933
0.43256256,4.773028,-0.091311105,-0.21884516,0.15785937,-3.4572272,-8.686164,0.78050977
0.43260345,4.7731256,-0.091311105,-0.21884516,0.15785937,-3.4572272,-8.686164,0.78050977
0.4326223,4.773176,-0.091311105,-0.22097568,0.1567941,-3.4620156,-8.647857,0.7469909
0.43265072,4.7732525,-0.091311105,-0.22097568,0.1567941,-3.4620156,-8.647857,0.7469909
0.43267953,4.7733297,-0.091311105,-0.21991043,0.15892464,-3.5051112,-8.6813755,0.7134721
0.4327006,4.773387,-0.091311105,-0.21991043,0.15892464,-3.5051112,-8.6813755,0.7134721
0.4327006,4.773387,-0.091311105,-0.21991043,0.15892464,-3.5051112,-8.6813755,0.7134721
0.4327006,4.773387,-0.091311105,-0.21991043,0.15892464,-3.5051112,-8.6813755,0.7134721
0.43292198,4.7737203,-0.089180574,-0.20925778,0.16744675,-3.5625722,-8.772355,0.8714894
0.43295127,4.7737646,-0.089180574,-0.20925778,0.16744675,-3.5625722,-8.772355,0.8714894
0.4329814,4.773806,-0.09024584,-0.1996704,0.1749036,-3.5338416,-8.796297,0.7613561
0.4330272,4.77387,-0.09024584,-0.1996704,0.1749036,-3.5338416,-8.796297,0.7613561
0.43309313,4.773938,-0.089180574,-0.18795249,0.1866215,-3.5051112,-8.767567,0.81881696
0.43315896,4.774006,-0.089180574,-0.18795249,0.1866215,-3.5051112,-8.767567,0.81881696
0.43322608,4.7740507,-0.09024584,-0.17410405,0.20046994,-3.514688,-8.781932,0.7278373
0.4332929,4.7740955,-0.09024584,-0.17410405,0.20046994,-3.514688,-8.781932,0.7278373
0.43337584,4.7741423,-0.09024584,-0.16132088,0.21005733,-3.5242648,-8.820239,0.770933
0.433458,4.774189,-0.09024584,-0.16132088,0.21005733,-3.5242648,-8.820239,0.770933
0.43356323,4.7742405,-0.09024584,-0.14747244,0.22070996,-3.6296098,-8.815451,0.79008657
0.43366793,4.774293,-0.09024584,-0.14747244,0.22070996,-3.6296098,-8.815451,0.79008657
0.43378174,4.774337,-0.08811531,-0.13255873,0.23242788,-3.6583402,-8.882488,0.7757214
0.43389463,4.7743797,-0.08811531,-0.13255873,0.23242788,-3.6583402,-8.882488,0.7757214
0.43404728,4.77444,-0.08705004,-0.11977556,0.24521105,-3.7732618,-8.825027,0.81881696
0.4341988,4.7744994,-0.08705004,-0.11977556,0.24521105,-3.7732618,-8.825027,0.81881696
0.43437815,4.774564,-0.08598478,-0.109122925,0.25692895,-3.8786068,-8.801085,0.78050977
0.43455583,4.774627,-0.08598478,-0.109122925,0.25692895,-3.8786068,-8.801085,0.78050977
0.43474928,4.774688,-0.08598478,-0.09847028,0.26971215,-3.9264908,-8.820239,0.7469909
0.4349414,4.7747474,-0.08598478,-0.09847028,0.26971215,-3.9264908,-8.820239,0.7469909
0.43516785,4.774812,-0.08491952,-0.08888289,0.28462583,-3.98874,-8.839393,0.7613561
0.4353943,4.7748766,-0.08491952,-0.08888289,0.28462583,-3.98874,-8.839393,0.7613561
0.43561003,4.7749324,-0.08172372,-0.08355658,0.297409,-3.9312792,-8.90643,0.78050977
0.43582568,4.7749877,-0.08172372,-0.08355658,0.297409,-3.9312792,-8.90643,0.78050977
0.43610802,4.7750635,-0.07852793,-0.08249131,0.3101922,-4.1036615,-8.896853,0.78050977
0.436389,4.7751393,-0.07852793,-0.08249131,0.3101922,-4.1036615,-8.896853,0.78050977
0.4366646,4.7752123,-0.076397404,-0.08142605,0.3272364,-4.012682,-8.882488,0.81881696
0.43693843,4.775285,-0.076397404,-0.08142605,0.3272364,-4.012682,-8.882488,0.81881696
0.43720978,4.7753553,-0.07213634,-0.08036078,0.34215012,-4.0078936,-8.810662,0.6991069
0.43747905,4.7754254,-0.07213634,-0.08036078,0.34215012,-4.0078936,-8.810662,0.6991069
0.4378058,4.7755136,-0.06787529,-0.08249131,0.35599855,-4.084508,-8.796297,0.7086837
0.438129,4.7756014,-0.06787529,-0.08249131,0.35599855,-4.084508,-8.796297,0.7086837
0.43845356,4.7756934,-0.062548965,-0.08462184,0.369847,-4.0557775,-8.825027,0.7565677
0.4387774,4.775785,-0.062548965,-0.08462184,0.369847,-4.0557775,-8.825027,0.7565677
0.43907538,4.7758675,-0.058287904,-0.08781763,0.3847607,-4.012682,-8.844181,0.6991069
0.43937293,4.7759495,-0.058287904,-0.08781763,0.3847607,-4.012682,-8.844181,0.6991069
0.43970773,4.776049,-0.05509211,-0.09207869,0.39434808,-4.0222588,-8.8777,0.81881696
0.44003966,4.776148,-0.05509211,-0.09207869,0.39434808,-4.0222588,-8.8777,0.81881696
0.44038948,4.7762556,-0.05189632,-0.09740501,0.40393546,-4.0222588,-8.844181,0.8379706
0.44073707,4.7763624,-0.05189632,-0.09740501,0.40393546,-4.0222588,-8.844181,0.8379706
0.44106314,4.7764654,-0.048700526,-0.106992394,0.41352284,-4.0462008,-8.872911,0.7086837
0.44138935,4.7765675,-0.048700526,-0.106992394,0.41352284,-4.0462008,-8.872911,0.7086837
0.44174156,4.7766857,-0.04443947,-0.11231872,0.42204496,-4.0557775,-8.911219,0.79008657
0.44209158,4.776803,-0.04443947,-0.11231872,0.42204496,-4.0557775,-8.911219,0.79008657
0.44247144,4.776933,-0.039113145,-0.11444924,0.43482813,-4.1276035,-8.973468,0.78529817
0.4428388,4.7770596,-0.039113145,-0.11444924,0.43482813,-4.1276035,-8.973468,0.78529817
0.44325802,4.7772017,-0.034852087,-0.11764504,0.44974184,-4.209007,-8.978256,0.8331822
0.44367343,4.777343,-0.034852087,-0.11764504,0.44974184,-4.209007,-8.978256,0.8331822
0.44410902,4.7774906,-0.031656295,-0.121906094,0.4657208,-4.271256,-9.107543,0.91458505
0.44454587,4.7776394,-0.031656295,-0.121906094,0.4657208,-4.271256,-9.107543,0.91458505
0.44500604,4.7777987,-0.025264706,-0.124036625,0.4859608,-4.280833,-9.165004,0.94331545
0.44544557,4.7779503,-0.025264706,-0.124036625,0.4859608,-4.280833,-9.165004,0.94331545
0.44591326,4.7781134,-0.017807856,-0.12616715,0.50833136,-4.3047748,-9.232041,0.9768343
0.44637954,4.778277,-0.017807856,-0.12616715,0.50833136,-4.3047748,-9.232041,0.9768343
0.4468847,4.7784553,-0.008220476,-0.12936294,0.53283244,-4.3957543,-9.294291,0.94810385
0.44744244,4.778653,-0.008220476,-0.12936294,0.53283244,-4.3957543,-9.294291,0.94810385
0.44791833,4.778824,0.001366904,-0.13255873,0.56052935,-4.381389,-9.270349,0.9816227
0.44844306,4.779013,0.001366904,-0.13255873,0.56052935,-4.381389,-9.270349,0.9816227
0.4490098,4.7792172,0.012019549,-0.1368198,0.59355253,-4.429273,-9.289502,0.9911995
0.44957826,4.7794228,0.012019549,-0.1368198,0.59355253,-4.429273,-9.289502,0.9911995
0.45019832,4.779646,0.025867987,-0.14214613,0.62551045,-4.525041,-9.26556,0.9816227
0.450821,4.7798705,0.025867987,-0.14214613,0.62551045,-4.525041,-9.26556,0.9816227
0.45147055,4.7801113,0.040781688,-0.14427665,0.66385996,-4.4580035,-9.174581,0.81402856
0.45212373,4.7803555,0.040781688,-0.14427665,0.66385996,-4.4580035,-9.174581,0.81402856
0.4528182,4.780612,0.05356486,-0.14640717,0.7054053,-4.453215,-9.121908,0.8523358
0.4535102,4.7808695,0.05356486,-0.14640717,0.7054053,-4.453215,-9.121908,0.8523358
0.45426005,4.7811394,0.06528277,-0.14427665,0.7469506,-4.477157,-9.069236,0.8571242
0.455009,4.7814107,0.06528277,-0.14427665,0.7469506,-4.477157,-9.069236,0.8571242
0.4558077,4.7816877,0.073804885,-0.14108086,0.7884959,-4.4963107,-9.021352,0.8571242
0.4566063,4.7819667,0.073804885,-0.14108086,0.7884959,-4.4963107,-9.021352,0.8571242
0.4574675,4.7822485,0.08339227,-0.13788506,0.82684547,-4.582502,-8.949526,0.90979666
0.45833588,4.7825346,0.08339227,-0.13788506,0.82684547,-4.582502,-8.949526,0.90979666
0.45927784,4.7828093,0.091914386,-0.13149348,0.86945605,-4.7261543,-8.868123,0.90021986
0.46021467,4.7830844,0.091914386,-0.13149348,0.86945605,-4.7261543,-8.868123,0.90021986
0.46121126,4.7833586,0.1004365,-0.12723242,0.9120666,-4.8602295,-8.820239,0.92895025
0.4622169,4.7836366,0.1004365,-0.12723242,0.9120666,-4.8602295,-8.820239,0.92895025
0.46328396,4.783897,0.11002388,-0.124036625,0.96106875,-5.032612,-8.848969,0.8523358
0.46435606,4.784159,0.11002388,-0.124036625,0.96106875,-5.032612,-8.848969,0.8523358
0.46548477,4.7844234,0.120676525,-0.121906094,1.0153973,-5.2624555,-8.882488,0.8714894
0.46661893,4.78469,0.120676525,-0.121906094,1.0153973,-5.2624555,-8.882488,0.8714894
0.4678119,4.784966,0.13132916,-0.11977556,1.0771827,-5.391742,-8.815451,0.90500826
0.46900123,4.785242,0.13132916,-0.11977556,1.0771827,-5.391742,-8.815451,0.90500826
0.470261,4.785532,0.14198181,-0.124036625,1.1442943,-5.5497594,-8.863335,0.91937345
0.471522,4.785822,0.14198181,-0.124036625,1.1442943,-5.5497594,-8.863335,0.91937345
0.4728573,4.7861233,0.15263446,-0.12936294,1.2177975,-5.5497594,-8.810662,0.8810662
0.47419116,4.7864246,0.15263446,-0.12936294,1.2177975,-5.5497594,-8.810662,0.8810662
0.475607,4.7867537,0.16435237,-0.13575453,1.2987576,-5.511452,-8.7053175,0.92895025
0.47702107,4.7870827,0.16435237,-0.13575453,1.2987576,-5.511452,-8.7053175,0.92895025
0.4785191,4.7874255,0.17607027,-0.14321138,1.3818482,-5.521029,-8.537724,0.89543146
0.48001546,4.7877684,0.17607027,-0.14321138,1.3818482,-5.521029,-8.537724,0.89543146
0.48159814,4.788127,0.18778819,-0.1517335,1.4670694,-5.4539914,-8.394072,0.8523358
0.48318383,4.7884874,0.18778819,-0.1517335,1.4670694,-5.4539914,-8.394072,0.8523358
0.48485732,4.7888546,0.19524503,-0.15705982,1.5544211,-5.5018754,-8.360553,0.80924016
0.4865291,4.789222,0.19524503,-0.15705982,1.5544211,-5.5018754,-8.360553,0.80924016
0.48829886,4.789604,0.19737557,-0.15705982,1.6407075,-5.659893,-8.274361,0.8714894
0.4900475,4.7899823,0.19737557,-0.15705982,1.6407075,-5.659893,-8.274361,0.8714894
0.4919257,4.7903643,0.1963103,-0.15386403,1.7280592,-5.841852,-8.384495,0.8523358
0.49374086,4.7907352,0.1963103,-0.15386403,1.7280592,-5.841852,-8.384495,0.8523358
0.49568102,4.791108,0.18991871,-0.14640717,1.8218025,-5.971139,-8.552089,0.8810662
0.49762106,4.7914824,0.18991871,-0.14640717,1.8218025,-5.971139,-8.552089,0.8810662
0.49965388,4.7918587,0.18246186,-0.13788506,1.9176762,-6.129156,-8.743625,0.9816227
0.5016844,4.792236,0.18246186,-0.13788506,1.9176762,-6.129156,-8.743625,0.9816227
0.5038157,4.792616,0.17713554,-0.1251019,2.0199416,-6.3111157,-8.949526,1.0869676
0.5059489,4.7929974,0.17713554,-0.1251019,2.0199416,-6.3111157,-8.949526,1.0869676
0.5081787,4.7933865,0.17287448,-0.11551451,2.1285987,-6.5457473,-9.198523,1.2641385
0.51041,4.7937784,0.17287448,-0.11551451,2.1285987,-6.5457473,-9.198523,1.2641385
0.5127526,4.7941775,0.17393975,-0.11125345,2.2415166,-6.7612257,-9.399636,1.3359646
0.515097,4.794579,0.17393975,-0.11125345,2.2415166,-6.7612257,-9.399636,1.3359646
0.51755077,4.795003,0.17820081,-0.11338398,2.3629568,-6.9240313,-9.624691,1.5035586
0.5200087,4.79543,0.17820081,-0.11338398,2.3629568,-6.9240313,-9.624691,1.5035586
0.5225843,4.7958837,0.18672292,-0.124036625,2.4950495,-7.0341644,-9.830592,1.5849615
0.5251694,4.7963414,0.18672292,-0.124036625,2.4950495,-7.0341644,-9.830592,1.5849615
0.52786446,4.796829,0.19950609,-0.14214613,2.633534,-7.129933,-9.969456,1.6232687
0.53057444,4.7973228,0.19950609,-0.14214613,2.633534,-7.129933,-9.969456,1.6232687
0.53341293,4.797867,0.21548507,-0.1666472,2.7794752,-7.0724716,-10.113108,1.7429788
0.5362494,4.798414,0.21548507,-0.1666472,2.7794752,-7.0724716,-10.113108,1.7429788
0.5392408,4.799011,0.23465982,-0.19221355,2.9328732,-7.1347213,-10.156203,1.8195933
0.54221207,4.799608,0.23465982,-0.19221355,2.9328732,-7.1347213,-10.156203,1.8195933
0.5453347,4.800259,0.2559651,-0.21671464,3.0915978,-7.2065473,-10.151415,2.0398598
0.54845834,4.8009143,0.2559651,-0.21671464,3.0915978,-7.2065473,-10.151415,2.0398598
0.55175054,4.801616,0.2772704,-0.23801991,3.257779,-7.393295,-10.127473,2.1643584
0.55511266,4.8023386,0.2772704,-0.23801991,3.257779,-7.393295,-10.127473,2.1643584
0.5584908,4.803067,0.29751042,-0.25293362,3.4292865,-7.6231384,-10.117896,2.231396
0.56195664,4.803821,0.29751042,-0.25293362,3.4292865,-7.6231384,-10.117896,2.231396
0.5656037,4.804611,0.31561992,-0.26465154,3.605055,-7.9487495,-10.079589,2.336741
0.56924117,4.8054056,0.31561992,-0.26465154,3.605055,-7.9487495,-10.079589,2.336741
0.573069,4.8062387,0.33479467,-0.27530417,3.7904112,-8.269572,-9.940725,2.4420857
0.57689464,4.807078,0.33479467,-0.27530417,3.7904112,-8.269572,-9.940725,2.4420857
0.58092046,4.8079534,0.34970838,-0.28595683,3.9874852,-8.643068,-9.931149,2.5474305
0.5849523,4.8088384,0.34970838,-0.28595683,3.9874852,-8.643068,-9.931149,2.5474305
0.5891823,4.8097625,0.36249155,-0.3019358,4.194146,-9.002198,-9.964667,2.6719291
0.59341055,4.8106947,0.36249155,-0.3019358,4.194146,-9.002198,-9.964667,2.6719291
0.5978501,4.811672,0.37420946,-0.3221758,4.4125257,-9.380483,-10.103531,2.8107927
0.6022875,4.8126593,0.37420946,-0.3221758,4.4125257,-9.380483,-10.103531,2.8107927
0.6069623,4.813702,0.3880579,-0.35093796,4.6458187,-9.734824,-10.127473,2.858677
0.6116394,4.814757,0.3880579,-0.35093796,4.6458187,-9.734824,-10.127473,2.858677
0.6165514,4.8158736,0.40190634,-0.38396114,4.8897643,-10.0508585,-10.213664,2.9640217
0.6214608,4.8170023,0.40190634,-0.38396114,4.8897643,-10.0508585,-10.213664,2.9640217
0.62662137,4.818201,0.41682005,-0.42231068,5.143297,-10.405201,-10.299856,2.9879637
0.63177395,4.819412,0.41682005,-0.42231068,5.143297,-10.405201,-10.299856,2.9879637
0.63719606,4.8207064,0.43492955,-0.46279073,5.4074826,-10.769119,-10.491392,3.0502129
0.6426099,4.822015,0.43492955,-0.46279073,5.4074826,-10.769119,-10.491392,3.0502129
0.6482961,4.8234005,0.45303902,-0.50114024,5.685517,-11.137826,-10.601525,2.9400797
0.65474737,4.8249955,0.45303902,-0.50114024,5.685517,-11.137826,-10.601525,2.9400797
0.6604291,4.8264112,0.4722138,-0.5341634,5.9720726,-11.75553,-10.869676,2.9257145
0.6662397,4.827878,0.4722138,-0.5341634,5.9720726,-11.75553,-10.869676,2.9257145
0.67767644,4.8307896,0.48925802,-0.56399083,6.2746077,-12.368446,-11.228806,2.8395233
0.6790242,4.831138,0.48925802,-0.56399083,6.2746077,-12.368446,-11.228806,2.8395233
0.6851587,4.8327174,0.5073675,-0.5906225,6.593122,-13.043611,-11.650186,2.7629087
0.6919947,4.834505,0.5073675,-0.5906225,6.593122,-13.043611,-11.650186,2.7629087
0.6919947,4.834505,0.5073675,-0.5906225,6.593122,-13.043611,-11.650186,2.7629087
0.7099461,4.8392777,0.5308033,-0.6161888,6.9329414,-13.699622,-12.071565,2.6384103
0.71171653,4.839753,0.557435,-0.6428204,7.298327,-14.168885,-12.449849,2.3942018
0.7220958,4.8425817,0.557435,-0.6428204,7.298327,-14.168885,-12.449849,2.3942018
0.73099774,4.845066,0.557435,-0.6428204,7.298327,-14.168885,-12.449849,2.3942018
0.7385516,4.847174,0.5893929,-0.67051727,7.680757,-14.542381,-12.607866,1.9680338
0.7465157,4.849389,0.6245466,-0.6982142,8.077035,-14.647726,-12.492945,1.3694834
0.7506324,4.85055,0.6245466,-0.6982142,8.077035,-14.647726,-12.492945,1.3694834
0.758817,4.852859,0.6575698,-0.72484577,8.481835,-14.662091,-12.210428,0.7517793
0.76721317,4.8552723,0.6575698,-0.72484577,8.481835,-14.662091,-12.210428,0.7517793
0.7760016,4.85783,0.68739724,-0.74721634,8.883441,-14.417883,-11.750742,0.2633622
0.78478,4.86044,0.68739724,-0.74721634,8.883441,-14.417883,-11.750742,0.2633622
0.7939186,4.8631907,0.70763725,-0.76213,9.264805,-14.020445,-11.219229,-0.062249243
0.8030554,4.866005,0.70763725,-0.76213,9.264805,-14.020445,-11.219229,-0.062249243
0.812513,4.8689437,0.71615934,-0.7642606,9.614212,-13.570335,-10.644621,-0.4213795
0.82159036,4.871834,0.71615934,-0.7642606,9.614212,-13.570335,-10.644621,-0.4213795
0.83133435,4.8749475,0.710833,-0.7504121,9.922073,-13.378799,-9.964667,-0.89064306
0.8414744,4.878277,0.710833,-0.7504121,9.922073,-13.378799,-9.964667,-0.89064306
0.8514467,4.8815594,0.68952775,-0.72910684,10.180933,-13.115437,-9.260772,-1.3311762
0.8613769,4.884921,0.68952775,-0.72910684,10.180933,-13.115437,-9.260772,-1.3311762
0.8715515,4.8883743,0.65117824,-0.7078015,10.3886595,-12.981361,-8.528147,-1.6472107
0.8817543,4.8919415,0.65117824,-0.7078015,10.3886595,-12.981361,-8.528147,-1.6472107
0.8920862,4.8955727,0.6000455,-0.689692,10.548449,-13.125013,-7.953538,-1.7669208
0.9023738,4.8993034,0.6000455,-0.689692,10.548449,-13.125013,-7.953538,-1.7669208
0.91280055,4.9031243,0.53399915,-0.68436575,10.666694,-13.709199,-7.5321584,-1.7908629
0.92322403,4.9070716,0.53399915,-0.68436575,10.666694,-13.709199,-7.5321584,-1.7908629
0.93372256,4.9111147,0.44877797,-0.7003447,10.759371,-14.446613,-7.4603324,-1.5897499
0.9442481,4.915311,0.44877797,-0.7003447,10.759371,-14.446613,-7.4603324,-1.5897499
0.954833,4.9196453,0.35183892,-0.7440205,10.846723,-15.298949,-7.6231384,-1.3694834
0.9653591,4.924115,0.35183892,-0.7440205,10.846723,-15.298949,-7.6231384,-1.3694834
0.9759507,4.9287815,0.25063878,-0.8175238,10.947923,-15.950171,-8.039729,-1.3311762
0.9864807,4.9336023,0.25063878,-0.8175238,10.947923,-15.950171,-8.039729,-1.3311762
0.99710536,4.93871,0.15263446,-0.92085445,11.071494,-16.328455,-8.437167,-1.3982137
1.007761,4.944046,0.15263446,-0.92085445,11.071494,-16.328455,-8.437167,-1.3982137
1.0184814,4.9497385,0.05995645,-1.0454904,11.224892,-16.381128,-8.896853,-1.5705963
1.0291759,4.955667,0.05995645,-1.0454904,11.224892,-16.381128,-8.896853,-1.5705963
1.0399683,4.962056,-0.025264706,-1.18504,11.410248,-16.4338,-9.332599,-1.8052281
1.0507412,4.968733,-0.025264706,-1.18504,11.410248,-16.4338,-9.332599,-1.8052281
1.0616432,4.9759874,-0.10089848,-1.3352423,11.627562,-16.093824,-9.619903,-2.078167
1.0725095,4.983578,-0.10089848,-1.3352423,11.627562,-16.093824,-9.619903,-2.078167
1.0835015,4.9918556,-0.17014067,-1.4939667,11.865116,-15.303738,-9.801862,-2.4037786
1.0944719,5.000557,-0.17014067,-1.4939667,11.865116,-15.303738,-9.801862,-2.4037786
1.105562,5.0100594,-0.23618707,-1.6537564,12.109061,-14.073117,-9.749189,-2.5187001
1.1165996,5.020053,-0.23618707,-1.6537564,12.109061,-14.073117,-9.749189,-2.5187001
1.1277455,5.030965,-0.3011682,-1.8071544,12.341289,-12.6222315,-9.528923,-2.6910827
1.1388056,5.042446,-0.3011682,-1.8071544,12.341289,-12.6222315,-9.528923,-2.6910827
1.1499867,5.054988,-0.3672146,-1.9445735,12.54795,-11.195287,-9.160215,-3.0023289
1.1610669,5.068221,-0.3672146,-1.9445735,12.54795,-11.195287,-9.160215,-3.0023289
1.1721689,5.0825415,-0.44071785,-2.059622,12.710936,-9.940725,-8.911219,-3.1890767
1.1831516,5.0976896,-0.44071785,-2.059622,12.710936,-9.940725,-8.911219,-3.1890767
1.1941452,5.1140676,-0.52061266,-2.1523001,12.8238535,-9.188946,-8.255207,-3.1651347
1.2049978,5.131436,-0.52061266,-2.1523001,12.8238535,-9.188946,-8.255207,-3.1651347
1.2157243,5.150079,-0.60902965,-2.2236729,12.8899,-6.813898,-8.556877,-2.4995465
1.2263077,5.1699257,-0.60902965,-2.2236729,12.8899,-6.813898,-8.556877,-2.4995465
1.2367511,5.191091,-0.6995771,-2.2471087,12.923988,-7.383718,-9.054871,-2.2936451
1.2470217,5.213666,-0.6995771,-2.2471087,12.923988,-7.383718,-9.054871,-2.2936451
1.2570908,5.2376523,-0.77521086,-2.2577612,12.923988,-9.255983,-9.313444,-2.6719291
1.2669241,5.2631903,-0.77521086,-2.2577612,12.923988,-9.255983,-9.313444,-2.6719291
1.2765024,5.290702,-0.8284741,-2.3301992,12.874987,-7.690176,-9.217676,-2.791639
1.2858913,5.320311,-0.8284741,-2.3301992,12.874987,-7.690176,-9.217676,-2.791639
1.2947991,5.3518057,-0.8710847,-2.4409869,12.796157,-6.397307,-8.887277,-3.1651347
1.3033551,5.3852506,-0.8710847,-2.4409869,12.796157,-6.397307,-8.887277,-3.1651347
1.3114822,5.4211764,-0.9136953,-2.5453827,12.691761,-4.984728,-8.604761,-3.2848446
1.3192284,5.4593906,-0.9136953,-2.5453827,12.691761,-4.984728,-8.604761,-3.2848446
1.3264049,5.499911,-0.9595016,-2.6401913,12.557538,-3.5242648,-8.197746,-3.1411927
1.3331242,5.542772,-0.9595016,-2.6401913,12.557538,-3.5242648,-8.197746,-3.1411927
1.3391795,5.5876713,-1.0085038,-2.7190208,12.388161,-2.1883004,-7.809886,-2.7485435
1.3447275,5.6349754,-1.0085038,-2.7190208,12.388161,-2.1883004,-7.809886,-2.7485435
1.3495559,5.6840267,-1.0553755,-2.780806,12.1857605,-1.1204864,-7.335834,-2.231396
1.353802,5.735123,-1.0553755,-2.780806,12.1857605,-1.1204864,-7.335834,-2.231396
1.3572607,5.7872076,-1.097986,-2.8362,11.947141,0.15322891,-6.8043213,-1.5801731
1.360236,5.843881,-1.097986,-2.8362,11.947141,0.15322891,-6.8043213,-1.5801731
1.3621497,5.895193,-1.129944,-2.884137,11.671238,1.163582,-6.3446345,-0.7661445
1.3635383,5.9500914,-1.129944,-2.884137,11.671238,1.163582,-6.3446345,-0.7661445
1.3641391,6.0040383,-1.1512493,-2.925682,11.364442,1.7764976,-5.861006,-0.17238252
1.364112,6.0585213,-1.1512493,-2.925682,11.364442,1.7764976,-5.861006,-0.17238252
1.3633554,6.1112504,-1.1565756,-2.9587054,11.033144,2.4516625,-5.3821654,0.40701428
1.3620064,6.1633873,-1.1565756,-2.9587054,11.033144,2.4516625,-5.3821654,0.40701428
1.3600197,6.213367,-1.1491187,-2.9800107,10.691195,3.0023289,-4.8937483,0.7134721
1.3575101,6.26203,-1.1491187,-2.9800107,10.691195,3.0023289,-4.8937483,0.7134721
1.3544955,0.024788078,-1.129944,-2.973619,10.346048,3.5290532,-4.271256,0.9768343
1.3510189,0.06934696,-1.129944,-2.973619,10.346048,3.5290532,-4.271256,0.9768343
1.3471693,0.11110328,-1.1043776,-2.9278126,9.997707,3.892972,-3.4093432,1.0965444
1.3429365,0.15126629,-1.1043776,-2.9278126,9.997707,3.892972,-3.4093432,1.0965444
1.3384846,0.18849595,-1.0766808,-2.840461,9.638713,4.237737,-2.4708161,1.3311762
1.3336983,0.22431266,-1.0766808,-2.840461,9.638713,4.237737,-2.4708161,1.3311762
1.3288298,0.25730765,-1.0511143,-2.7104988,9.262674,4.510676,-1.5227122,1.5897499
1.323684,0.28899413,-1.0511143,-2.7104988,9.262674,4.510676,-1.5227122,1.5897499
1.3185737,0.31807697,-1.0340701,-2.5411217,8.858939,4.7070007,-0.58897364,1.8435353
1.3132466,0.34594733,-1.0340701,-2.5411217,8.858939,4.7070007,-0.58897364,1.8435353
1.3080597,0.37140676,-1.025548,-2.3419173,8.422181,4.7740383,0.18195933,2.2218192
1.3026857,0.39587986,-1.025548,-2.3419173,8.422181,4.7740383,0.18195933,2.2218192
1.2975416,0.4180939,-1.0234175,-2.127799,7.951334,4.6495395,0.6607997,2.6384103
1.2922461,0.4394873,-1.0234175,-2.127799,7.951334,4.6495395,0.6607997,2.6384103
1.2872405,0.45880067,-1.0223522,-1.9126157,7.4495945,4.414908,1.067814,2.9640217
1.282109,0.47746408,-1.0223522,-1.9126157,7.4495945,4.414908,1.067814,2.9640217
1.2773023,0.49421915,-1.0148954,-1.7091501,6.923354,3.8977604,1.1923125,3.107674
1.2724932,0.5101345,-1.0148954,-1.7091501,6.923354,3.8977604,1.1923125,3.107674
1.2679495,0.52457,-0.99785113,-1.5291204,6.387526,3.3566709,1.2880806,3.2752678
1.2627044,0.5404223,-0.99785113,-1.5291204,6.387526,3.3566709,1.2880806,3.2752678
1.2587194,0.5519246,-0.9701543,-1.3789182,5.848502,2.6767175,1.2689269,3.596091
1.2543713,0.56398296,-0.9701543,-1.3789182,5.848502,2.6767175,1.2689269,3.596091
1.2507186,0.57363003,-0.93287003,-1.261739,5.3148046,2.1643584,1.1492168,3.8546648
1.2465312,0.5843028,-0.93287003,-1.261739,5.3148046,2.1643584,1.1492168,3.8546648
1.242872,0.59310055,-0.88599837,-1.1722568,4.792825,1.6136919,0.9911995,4.1515455
1.2391467,0.6017749,-0.88599837,-1.1722568,4.792825,1.6136919,0.9911995,4.1515455
1.2357373,0.60920286,-0.8284741,-1.1051452,4.2878895,0.9576807,0.7469909,4.4340615
1.2322927,0.6164971,-0.8284741,-1.1051452,4.2878895,0.9576807,0.7469909,4.4340615
1.2291696,0.62265354,-0.7624277,-1.0454904,3.8074553,0.16759412,0.545878,4.462792
1.2260189,0.6287119,-0.7624277,-1.0454904,3.8074553,0.16759412,0.545878,4.462792
1.223177,0.63377666,-0.691055,-0.98583555,3.3579137,-0.8714894,0.19153613,4.5154643
1.2203279,0.6387462,-0.691055,-0.98583555,3.3579137,-0.8714894,0.19153613,4.5154643
1.2177757,0.6428739,-0.6164865,-0.92085445,2.9509828,-2.1260512,-0.21547815,4.3143516
1.2152023,0.64696044,-0.6164865,-0.92085445,2.9509828,-2.1260512,-0.21547815,4.3143516
1.2129127,0.65036213,-0.5408527,-0.84841645,2.5919886,-3.2082303,-0.59376204,4.2425256
1.2106205,0.6537117,-0.5408527,-0.84841645,2.5919886,-3.2082303,-0.59376204,4.2425256
1.2085901,0.6565368,-0.46095788,-0.7717174,2.287323,-4.295198,-0.92895025,3.9743748
1.2065375,0.65935063,-0.46095788,-0.7717174,2.287323,-4.295198,-0.92895025,3.9743748
1.2047398,0.66176534,-0.3789325,-0.69075733,2.0369859,-5.267244,-1.0965444,3.787627
1.202866,0.6642513,-0.3789325,-0.69075733,2.0369859,-5.267244,-1.0965444,3.787627
1.2013198,0.6663432,-0.29371136,-0.60553616,1.8388467,-6.019023,-1.067814,3.514688
1.199715,0.66848963,-0.29371136,-0.60553616,1.8388467,-6.019023,-1.067814,3.514688
1.1982865,0.6705168,-0.20955546,-0.51924974,1.6843834,-6.7085533,-0.9624691,3.3614593
1.1968541,0.6725286,-0.20955546,-0.51924974,1.6843834,-6.7085533,-0.9624691,3.3614593
1.1955754,0.6745054,-0.12966062,-0.43083277,1.5672042,-7.2831616,-0.7230489,3.1986535
1.194296,0.6764653,-0.12966062,-0.43083277,1.5672042,-7.2831616,-0.7230489,3.1986535
1.1931502,0.67844653,-0.056157377,-0.3413506,1.477722,-7.8529816,-0.4165911,3.1603463
1.1919959,0.68042666,-0.056157377,-0.3413506,1.477722,-7.8529816,-0.4165911,3.1603463
1.1909585,0.6824477,0.008823755,-0.2561294,1.4074146,-8.259995,-0.08619126,3.1603463
1.189922,0.68445367,0.008823755,-0.2561294,1.4074146,-8.259995,-0.08619126,3.1603463
1.1889905,0.68653554,0.0674133,-0.17410405,1.3509556,-8.676587,0.31603462,3.0550013
1.18806,0.6886038,0.0674133,-0.17410405,1.3509556,-8.676587,0.31603462,3.0550013
1.1872252,0.69075286,0.119611256,-0.10060081,1.3062145,-9.11712,0.79008657,2.9735985
1.186389,0.69289273,0.119611256,-0.10060081,1.3062145,-9.11712,0.79008657,2.9735985
1.1856413,0.69512296,0.1664829,-0.033489145,1.2657344,-9.471462,1.1109096,2.9161377
1.1848923,0.69733953,0.1664829,-0.033489145,1.2657344,-9.471462,1.1109096,2.9161377
1.1842222,0.6996398,0.20802821,0.022969872,1.2295154,-9.878476,1.5179238,2.9113493
1.1835473,0.70194113,0.20802821,0.022969872,1.2295154,-9.878476,1.5179238,2.9113493
1.1829435,0.7043533,0.2442472,0.069841504,1.1975574,-10.271125,1.8100165,2.8491
1.1823366,0.706758,0.2442472,0.069841504,1.1975574,-10.271125,1.8100165,2.8491
1.1817756,0.7092949,0.27620512,0.10392997,1.1719911,-10.673351,2.0733786,2.7341783
1.1812115,0.7118291,0.27620512,0.10392997,1.1719911,-10.673351,2.0733786,2.7341783
1.1806728,0.7144457,0.30496728,0.12843105,1.1528164,-11.03727,2.2936451,2.6910827
1.1800592,0.71740425,0.30496728,0.12843105,1.1528164,-11.03727,2.2936451,2.6910827
1.1800592,0.71740425,0.30496728,0.12843105,1.1528164,-11.03727,2.2936451,2.6910827
1.1800592,0.71740425,0.30496728,0.12843105,1.1528164,-11.03727,2.2936451,2.6910827
1.1781517,0.7269373,0.3550347,0.14654055,1.143229,-11.654974,2.815581,2.360683
1.1778859,0.728262,0.3550347,0.14654055,1.143229,-11.654974,2.815581,2.360683
1.1773432,0.7309051,0.37634,0.1390837,1.1549469,-11.841722,3.0693667,2.1883004
1.1767638,0.7337054,0.37634,0.1390837,1.1549469,-11.841722,3.0693667,2.1883004
1.1761129,0.73670304,0.39551476,0.12310473,1.1762522,-11.851298,3.3566709,2.0590134
1.1755288,0.73937356,0.39551476,0.12310473,1.1762522,-11.851298,3.3566709,2.0590134
1.1748594,0.74226147,0.40829793,0.100734174,1.2018186,-11.750742,3.5913026,1.9201498
1.1741818,0.7451616,0.40829793,0.100734174,1.2018186,-11.750742,3.5913026,1.9201498
1.1734496,0.7480909,0.41255897,0.07516783,1.2295154,-11.535264,3.821146,1.958457
1.1727148,0.7510119,0.41255897,0.07516783,1.2295154,-11.535264,3.821146,1.958457
1.1719213,0.75395304,0.41042846,0.04853622,1.2572123,-11.27669,4.050989,2.0398598
1.1711276,0.7568727,0.41042846,0.04853622,1.2572123,-11.27669,4.050989,2.0398598
1.170281,0.759802,0.4029716,0.021904606,1.2817134,-11.051635,4.189853,1.958457
1.1694374,0.76270133,0.4029716,0.021904606,1.2817134,-11.051635,4.189853,1.958457
1.168532,0.7656244,0.39231896,-0.0025964756,1.2998228,-10.764331,4.4340615,1.958457
1.1676416,0.7684802,0.39231896,-0.0025964756,1.2998228,-10.764331,4.4340615,1.958457
1.1667062,0.7713321,0.37740526,-0.026032293,1.3115407,-10.630256,4.5298295,1.9249382
1.1657753,0.7741514,0.37740526,-0.026032293,1.3115407,-10.630256,4.5298295,1.9249382
1.1648114,0.7769399,0.36036104,-0.04627232,1.3179324,-10.405201,4.6399627,1.8387469
1.1629128,0.7822808,0.34118626,-0.064381815,1.3179324,-10.232818,4.697424,1.7908629
1.1629128,0.7822808,0.34118626,-0.064381815,1.3179324,-10.232818,4.697424,1.7908629
1.1618761,0.7851197,0.34118626,-0.064381815,1.3179324,-10.232818,4.697424,1.7908629
1.1608739,0.7877542,0.32094625,-0.08036078,1.3158019,-10.0987425,4.8458643,1.757344
1.1598747,0.7903629,0.32094625,-0.08036078,1.3158019,-10.0987425,4.8458643,1.757344
1.1588562,0.7929286,0.3007062,-0.09420922,1.3104755,-9.892841,4.855441,1.7477672
1.1578321,0.7954889,0.3007062,-0.09420922,1.3104755,-9.892841,4.855441,1.7477672
1.1567984,0.7979636,0.2772704,-0.106992394,1.3008882,-9.572019,4.8985367,1.8483237
1.155755,0.8004435,0.2772704,-0.106992394,1.3008882,-9.572019,4.8985367,1.8483237
1.1547136,0.802825,0.25276932,-0.11764504,1.2849091,-9.26556,4.8985367,1.8770541
1.1536646,0.8052099,0.25276932,-0.11764504,1.2849091,-9.26556,4.8985367,1.8770541
1.1526164,0.807508,0.22826824,-0.122971356,1.2625386,-8.930372,4.9416323,1.9249382
1.151566,0.8097975,0.22826824,-0.122971356,1.2625386,-8.930372,4.9416323,1.9249382
1.1505213,0.8119896,0.20376715,-0.124036625,1.2305807,-8.580819,4.984728,2.0590134
1.1494756,0.81416905,0.20376715,-0.124036625,1.2305807,-8.580819,4.984728,2.0590134
1.1484623,0.81625247,0.18033133,-0.11764504,1.183709,-8.389283,4.927267,2.078167
1.1474473,0.8183265,0.18033133,-0.11764504,1.183709,-8.389283,4.927267,2.078167
1.1464655,0.8202935,0.15689552,-0.106992394,1.1325763,-8.101978,4.88896,2.183512
1.1454802,0.82225555,0.15689552,-0.106992394,1.1325763,-8.101978,4.88896,2.183512
1.1445477,0.8241125,0.1334597,-0.09420922,1.0729215,-8.054094,4.831499,2.183512
1.1436126,0.8259637,0.1334597,-0.09420922,1.0729215,-8.054094,4.831499,2.183512
1.1427319,0.8277088,0.11002388,-0.077164985,1.0079404,-7.8865004,4.7070007,2.2170308
1.1418483,0.8294481,0.11002388,-0.077164985,1.0079404,-7.8865004,4.7070007,2.2170308
1.1410177,0.8310642,0.08871859,-0.060120758,0.9397635,-7.776367,4.5633483,2.3798366
1.1401842,0.8326773,0.08871859,-0.060120758,0.9397635,-7.776367,4.5633483,2.3798366
1.1394093,0.83417666,0.06847856,-0.043076526,0.8705213,-7.747637,4.4244847,2.456451
1.1386323,0.83567166,0.06847856,-0.043076526,0.8705213,-7.747637,4.4244847,2.456451
1.1379128,0.8370618,0.051434334,-0.026032293,0.80340964,-7.714118,4.2521024,2.5139117
1.1371908,0.83845013,0.051434334,-0.026032293,0.80340964,-7.714118,4.2521024,2.5139117
1.1365199,0.8397186,0.03865116,-0.007922798,0.7373632,-7.6710224,4.0174704,2.657564
1.1358491,0.840982,0.03865116,-0.007922798,0.7373632,-7.6710224,4.0174704,2.657564
1.1352283,0.8421278,0.027998514,0.012317227,0.6787737,-7.5800424,3.8402996,2.801216
1.134607,0.8432703,0.027998514,0.012317227,0.6787737,-7.5800424,3.8402996,2.801216
1.1340415,0.84433913,0.02160693,0.033622514,0.6212494,-7.513005,3.7062242,2.791639
1.1331156,0.8460817,0.02160693,0.033622514,0.6212494,-7.513005,3.7062242,2.791639
1.1329029,0.84648365,0.017345872,0.057058334,0.56692094,-7.3789296,3.4811692,2.8538885
1.1323695,0.84748864,0.017345872,0.057058334,0.56692094,-7.3789296,3.4811692,2.8538885
1.1318787,0.8484815,0.017345872,0.08368994,0.51259243,-7.1155677,3.41892,2.834735
1.1314973,0.84925133,0.017345872,0.08368994,0.51259243,-7.1155677,3.41892,2.834735
1.1311238,0.8500947,0.018411135,0.117778406,0.45613343,-6.7947445,3.371036,2.8443117
1.1307402,0.85095763,0.018411135,0.117778406,0.45613343,-6.7947445,3.371036,2.8443117
1.1304307,0.85178417,0.020541664,0.1571932,0.39221755,-6.3829417,3.3135753,2.873042
1.1301198,0.85261106,0.020541664,0.1571932,0.39221755,-6.3829417,3.3135753,2.873042
1.1299002,0.8533792,0.025867987,0.1987385,0.313388,-5.9902925,3.2992098,2.9592333
1.1296796,0.8541473,0.025867987,0.1987385,0.313388,-5.9902925,3.2992098,2.9592333
1.1295702,0.8548301,0.031194309,0.2466754,0.21644892,-5.707777,3.1555579,3.1028855
1.1294606,0.8555119,0.031194309,0.2466754,0.21644892,-5.707777,3.1555579,3.1028855
1.1294696,0.8561106,0.039716423,0.29354703,0.103530884,-5.4922986,3.0454245,3.1028855
1.1294786,0.856709,0.039716423,0.29354703,0.103530884,-5.4922986,3.0454245,3.1028855
1.1296189,0.8571853,0.047173277,0.33722287,-0.027496647,-5.482722,2.9352913,3.1651347
1.1297598,0.8576634,0.047173277,0.33722287,-0.027496647,-5.482722,2.9352913,3.1651347
1.1300372,0.858016,0.058891185,0.3787682,-0.17130736,-5.5497594,2.8874073,3.122039
1.1303138,0.8583678,0.058891185,0.3787682,-0.17130736,-5.5497594,2.8874073,3.122039
1.1307367,0.85856086,0.075935416,0.41605246,-0.31937912,-5.8945246,2.719813,3.169923
1.1311595,0.85875404,0.075935416,0.41605246,-0.31937912,-5.8945246,2.719813,3.169923
1.1317326,0.85876334,0.09404491,0.44801039,-0.46851614,-6.3063273,2.4756045,3.217807
1.1323063,0.8587731,0.09404491,0.44801039,-0.46851614,-6.3063273,2.4756045,3.217807
1.1330292,0.8585957,0.11321967,0.47357672,-0.61232686,-6.8091097,2.2888567,3.016694
1.1337512,0.8584181,0.11321967,0.47357672,-0.61232686,-6.8091097,2.2888567,3.016694
1.1346254,0.85806274,0.13239443,0.49488202,-0.7422891,-7.297527,2.0638018,2.9879637
1.1354988,0.85770655,0.13239443,0.49488202,-0.7422891,-7.297527,2.0638018,2.9879637
1.136513,0.8572184,0.15263446,0.51192623,-0.8520113,-7.819463,1.8483237,2.920926
1.1375245,0.85672885,0.15263446,0.51192623,-0.8520113,-7.819463,1.8483237,2.920926
1.1386468,0.8561572,0.175005,0.52364415,-0.9425588,-8.269572,1.6328455,2.8538885
1.1397688,0.85558224,0.175005,0.52364415,-0.9425588,-8.269572,1.6328455,2.8538885
1.1409655,0.8549555,0.19950609,0.5321663,-1.0128663,-8.619126,1.4413095,2.8203697
1.1421618,0.85432446,0.19950609,0.5321663,-1.0128663,-8.619126,1.4413095,2.8203697
1.1434131,0.8536726,0.2229419,0.5385579,-1.0618684,-8.863335,1.3215994,2.7006595
1.1446638,0.8530156,0.2229419,0.5385579,-1.0618684,-8.863335,1.3215994,2.7006595
1.1459533,0.8523642,0.24744299,0.5449495,-1.0938264,-9.035717,1.2737153,2.5713725
1.1472425,0.85170776,0.24744299,0.5449495,-1.0938264,-9.035717,1.2737153,2.5713725
1.1485529,0.8510481,0.26981354,0.55134106,-1.1161969,-9.054871,1.2689269,2.5570073
1.1498768,0.8503749,0.26981354,0.55134106,-1.1161969,-9.054871,1.2689269,2.5570073
1.1511918,0.8497233,0.2921841,0.5545368,-1.1332412,-8.944737,1.292869,2.456451
1.152522,0.8490573,0.2921841,0.5545368,-1.1332412,-8.944737,1.292869,2.456451
1.1538626,0.8483967,0.31348938,0.55986315,-1.1502854,-8.868123,1.3982137,2.4277205
1.1551968,0.84773225,0.31348938,0.55986315,-1.1502854,-8.868123,1.3982137,2.4277205
1.156568,0.8470723,0.33266416,0.56732,-1.1747864,-8.815451,1.5227122,2.3319526
1.1579521,0.8463985,0.33266416,0.56732,-1.1747864,-8.815451,1.5227122,2.3319526
1.1593409,0.84567106,0.35290417,0.5726463,-1.2078097,-8.7053175,1.6519991,2.4660277
1.160721,0.8449411,0.35290417,0.5726463,-1.2078097,-8.7053175,1.6519991,2.4660277
1.1621363,0.84413904,0.37101367,0.57797265,-1.2514855,-8.762778,1.7764976,2.5761611
1.1635581,0.84332514,0.37101367,0.57797265,-1.2514855,-8.762778,1.7764976,2.5761611
1.1650224,0.8424723,0.3880579,0.5822337,-1.3047488,-8.90643,1.8914193,2.5139117
1.1664851,0.84160984,0.3880579,0.5822337,-1.3047488,-8.90643,1.8914193,2.5139117
1.1680021,0.84066653,0.4029716,0.58436424,-1.3675994,-9.006987,2.0015526,2.5091233
1.1695167,0.839713,0.4029716,0.58436424,-1.3675994,-9.006987,2.0015526,2.5091233
1.171078,0.83864194,0.41895056,0.5822337,-1.4368415,-9.074024,2.1308396,2.5570073
1.1726346,0.8375601,0.41895056,0.5822337,-1.4368415,-9.074024,2.1308396,2.5570073
1.1742427,0.8363576,0.43386427,0.57584214,-1.5092795,-9.14585,2.2026656,2.5617957
1.1758487,0.8351402,0.43386427,0.57584214,-1.5092795,-9.14585,2.2026656,2.5617957
1.1774929,0.8337547,0.44771272,0.5641242,-1.588109,-9.203311,2.2505496,2.6288335
1.1791348,0.83235294,0.44771272,0.5641242,-1.588109,-9.203311,2.2505496,2.6288335
1.1808224,0.8307854,0.4604959,0.54814523,-1.6690692,-9.260772,2.207454,2.6527755
1.1825066,0.8291989,0.4604959,0.54814523,-1.6690692,-9.260772,2.207454,2.6527755
1.1842492,0.8274604,0.47327906,0.5279052,-1.7500293,-9.409213,2.2026656,2.6144683
1.185987,0.8257024,0.47327906,0.5279052,-1.7500293,-9.409213,2.2026656,2.6144683
1.18778,0.8237755,0.48499697,0.5044694,-1.8331199,-9.500193,2.2122424,2.5761611
1.1895698,0.8218245,0.48499697,0.5044694,-1.8331199,-9.500193,2.2122424,2.5761611
1.1913868,0.8196628,0.4967149,0.4810336,-1.9108843,-9.572019,2.2505496,2.6479871
1.1931998,0.81747395,0.4967149,0.4810336,-1.9108843,-9.572019,2.2505496,2.6479871
1.1950523,0.8151138,0.50949806,0.45759776,-1.9833221,-9.68694,2.2888567,2.6479871
1.1969004,0.8127234,0.50949806,0.45759776,-1.9833221,-9.68694,2.2888567,2.6479871
1.1987743,0.8101492,0.525477,0.43309668,-2.0514991,-9.634268,2.4037786,2.6288335
1.2006412,0.8075398,0.525477,0.43309668,-2.0514991,-9.634268,2.4037786,2.6288335
1.2024701,0.80472744,0.54465175,0.40646508,-2.1186109,-9.581595,2.4995465,2.7102363
1.204287,0.80188537,0.54465175,0.40646508,-2.1186109,-9.581595,2.4995465,2.7102363
1.2060663,0.79893535,0.56276125,0.37663767,-2.1867876,-9.437943,2.566584,2.7341783
1.207834,0.7959703,0.56276125,0.37663767,-2.1867876,-9.437943,2.566584,2.7341783
1.2096053,0.7928557,0.58087075,0.345745,-2.2538993,-9.308656,2.5713725,2.7629087
1.2113678,0.7897213,0.58087075,0.345745,-2.2538993,-9.308656,2.5713725,2.7629087
1.2131239,0.78650016,0.59684974,0.31165653,-2.3231416,-9.222465,2.6767175,2.705448
1.2148736,0.78325576,0.59684974,0.31165653,-2.3231416,-9.222465,2.6767175,2.705448
1.2166424,0.7797703,0.60856766,0.27437228,-2.393449,-9.088389,2.6671407,2.7389667
1.2184049,0.7762561,0.60856766,0.27437228,-2.393449,-9.088389,2.6671407,2.7389667
1.2201763,0.7725307,0.61708975,0.23602276,-2.4616258,-8.920795,2.6192567,2.6719291
1.2219409,0.7687725,0.61708975,0.23602276,-2.4616258,-8.920795,2.6192567,2.6719291
1.2237314,0.76471424,0.6245466,0.2019343,-2.526607,-8.78672,2.5091233,2.705448
1.2255229,0.7605993,0.6245466,0.2019343,-2.526607,-8.78672,2.5091233,2.705448
1.2273265,0.7562388,0.63306874,0.17210689,-2.5915883,-8.537724,2.3894134,2.695871
1.229113,0.7518606,0.63306874,0.17210689,-2.5915883,-8.537724,2.3894134,2.695871
1.2309406,0.7471633,0.6394603,0.14867108,-2.6565692,-8.288726,2.2026656,2.7581203
1.2327652,0.74240017,0.6394603,0.14867108,-2.6565692,-8.288726,2.2026656,2.7581203
1.23462,0.73738587,0.6458519,0.13269211,-2.7226157,-7.881712,1.9919758,2.8107927
1.2364606,0.73232263,0.6458519,0.13269211,-2.7226157,-7.881712,1.9919758,2.8107927
1.2383444,0.72699314,0.65330875,0.12310473,-2.7939885,-7.4124484,1.7190368,3.0023289
1.2402165,0.7215955,0.65330875,0.12310473,-2.7939885,-7.4124484,1.7190368,3.0023289
1.2421339,0.7159467,0.67780983,0.12523526,-2.9644308,-6.445191,1.364695,3.1890767
1.2421339,0.7159467,0.67780983,0.12523526,-2.9644308,-6.445191,1.364695,3.1890767
1.2421339,0.7159467,0.67780983,0.12523526,-2.9644308,-6.445191,1.364695,3.1890767
1.2484634,0.6965515,0.67780983,0.12523526,-2.9644308,-6.445191,1.364695,3.1890767
1.2500206,0.6916157,0.69591933,0.1358879,-3.0666962,-5.947197,1.2737153,3.169923
1.2527022,0.6829251,0.69591933,0.1358879,-3.0666962,-5.947197,1.2737153,3.169923
1.2540518,0.6784986,0.71402884,0.15186687,-3.1817448,-5.4061074,1.2210429,3.1747115
1.2540518,0.6784986,0.71402884,0.15186687,-3.1817448,-5.4061074,1.2210429,3.1747115
1.2594844,0.6600325,0.7353341,0.17317216,-3.3127723,-4.8985367,1.2306197,3.2273839
1.2599759,0.65832305,0.7353341,0.17317216,-3.3127723,-4.8985367,1.2306197,3.2273839
1.2637877,0.6449318,0.7587699,0.19767325,-3.4597788,-4.3957543,1.2018893,3.289633
1.264303,0.64308,0.7587699,0.19767325,-3.4597788,-4.3957543,1.2018893,3.289633
1.2666802,0.6344936,0.7811405,0.22643538,-3.622764,-3.9360676,1.2258313,3.2513258
1.2689109,0.6262167,0.7811405,0.22643538,-3.622764,-3.9360676,1.2258313,3.2513258
1.2712481,0.61745995,0.8045763,0.26371965,-3.799598,-3.572149,1.2785037,3.241749
1.2735605,0.60855025,0.8045763,0.26371965,-3.799598,-3.572149,1.2785037,3.241749
1.2771926,0.5943111,0.82694685,0.31059128,-3.9913456,-3.3614593,1.2689269,3.0933087
1.2784047,0.5894158,0.82694685,0.31059128,-3.9913456,-3.3614593,1.2689269,3.0933087
1.280915,0.57926553,0.84505635,0.36918083,-4.1905503,-3.169923,1.2641385,3.0885203
1.2834111,0.5688468,0.84505635,0.36918083,-4.1905503,-3.169923,1.2641385,3.0885203
1.2860379,0.5577827,0.86103535,0.43735775,-4.3961463,-3.1316159,1.2449849,3.0071173
1.2886232,0.5465164,0.86103535,0.43735775,-4.3961463,-3.1316159,1.2449849,3.0071173
1.2913445,0.53454196,0.8738185,0.51512206,-4.608134,-3.1028855,1.2497733,2.9352913
1.294024,0.52231187,0.8738185,0.51512206,-4.608134,-3.1028855,1.2497733,2.9352913
1.2968348,0.50934494,0.8844711,0.60247374,-4.823317,-3.0310593,1.2449849,2.858677
1.2995942,0.49610066,0.8844711,0.60247374,-4.823317,-3.0310593,1.2449849,2.858677
1.3024812,0.48205614,0.891928,0.696217,-5.042762,-2.906561,1.2306197,2.705448
1.3053141,0.46766886,0.891928,0.696217,-5.042762,-2.906561,1.2306197,2.705448
1.3082747,0.45239815,0.8983196,0.7984824,-5.2685976,-2.8060043,1.1923125,2.5809495
1.3111677,0.43677106,0.8983196,0.7984824,-5.2685976,-2.8060043,1.1923125,2.5809495
1.3141809,0.4201408,0.9025806,0.9039436,-5.502956,-2.7246015,1.1540052,2.4420857
1.3171129,0.40312502,0.9025806,0.9039436,-5.502956,-2.7246015,1.1540052,2.4420857
1.3201616,0.3849352,0.9025806,1.0136658,-5.747967,-2.6862943,0.9864111,2.3702598
1.3231195,0.366291,0.9025806,1.0136658,-5.747967,-2.6862943,0.9864111,2.3702598
1.326169,0.34636104,0.9004501,1.1212575,-6.002565,-2.7150247,0.8379706,2.1739352
1.3291135,0.32592392,0.9004501,1.1212575,-6.002565,-2.7150247,0.8379706,2.1739352
1.3321269,0.3040097,0.89618903,1.2256534,-6.267816,-2.8874073,0.59376204,2.0829554
1.3350155,0.2815349,0.89618903,1.2256534,-6.267816,-2.8874073,0.59376204,2.0829554
1.3379421,0.25744444,0.88766694,1.3279189,-6.5351973,-3.265691,0.33997664,1.8722657
1.3407214,0.23274697,0.88766694,1.3279189,-6.5351973,-3.265691,0.33997664,1.8722657
1.3435037,0.20628911,0.875949,1.4248579,-6.797252,-3.7062242,0.062249243,1.6998832
1.3461123,0.1791922,0.875949,1.4248579,-6.797252,-3.7062242,0.062249243,1.6998832
1.3486935,0.15017457,0.86103535,1.5175359,-7.050785,-4.209007,-0.22984336,1.4796166
1.3510715,0.120505124,0.86103535,1.5175359,-7.050785,-4.209007,-0.22984336,1.4796166
1.3533962,0.08887786,0.84505635,1.6048876,-7.291535,-4.6399627,-0.6464345,1.3263878
1.3554872,0.056595467,0.84505635,1.6048876,-7.291535,-4.6399627,-0.6464345,1.3263878
1.357469,0.022567784,0.8258816,1.6858476,-7.516306,-4.984728,-1.0151415,1.13964
1.3591877,6.2711196,0.8258816,1.6858476,-7.516306,-4.984728,-1.0151415,1.13964
1.3607354,6.2349358,0.8077721,1.7625468,-7.7250977,-5.3438582,-1.4460979,0.90500826
1.3619928,6.1982565,0.8077721,1.7625468,-7.7250977,-5.3438582,-1.4460979,0.90500826
1.3630133,6.1602135,0.78859735,1.8339194,-7.9179106,-5.5976434,-1.9393034,0.7565677
1.3637183,6.121848,0.78859735,1.8339194,-7.9179106,-5.5976434,-1.9393034,0.7565677
1.3641431,6.0823693,0.76835734,1.9031616,-8.093679,-5.7365074,-2.3894134,0.61291564
1.3642335,6.042791,0.76835734,1.9031616,-8.093679,-5.7365074,-2.3894134,0.61291564
1.3640101,6.002388,0.74811727,1.9713385,-8.255599,-5.8226986,-2.906561,0.5267244
1.3634379,5.9621434,0.74811727,1.9713385,-8.255599,-5.8226986,-2.906561,0.5267244
1.3625327,5.9213915,0.72787726,2.0427113,-8.4047365,-5.851429,-3.442862,0.45489833
1.361275,5.881067,0.72787726,2.0427113,-8.4047365,-5.851429,-3.442862,0.45489833
1.3596767,5.8405395,0.70976776,2.1162145,-8.545351,-5.899313,-3.8546648,0.33997664
1.3577259,5.8006988,0.70976776,2.1162145,-8.545351,-5.899313,-3.8546648,0.33997664
1.3554312,5.760935,0.69165826,2.1918483,-8.679575,-6.0381765,-4.390966,0.2681506
1.3527913,5.722087,0.69165826,2.1918483,-8.679575,-6.0381765,-4.390966,0.2681506
1.3498119,5.6835566,0.674614,2.2685473,-8.808472,-6.205771,-4.8362875,0.17238252
1.3465029,5.646126,0.674614,2.2685473,-8.808472,-6.205771,-4.8362875,0.17238252
1.3428671,5.6091647,0.6586351,2.3473768,-8.930977,-6.8186865,-5.3438582,-0.11492168
1.3389288,5.573504,0.6586351,2.3473768,-8.930977,-6.8186865,-5.3438582,-0.11492168
1.3346907,5.539067,0.6586351,2.3473768,-8.930977,-6.8186865,-5.3438582,-0.11492168
1.330095,5.50509,0.64372134,2.4240758,-9.049221,-6.229713,-5.841852,0.090979666
1.3252417,5.472577,0.64372134,2.4240758,-9.049221,-6.229713,-5.841852,0.090979666
1.320114,5.440999,0.6277424,2.5039709,-9.158943,-5.6790466,-6.5026517,0.24420857
1.314743,5.4107723,0.6277424,2.5039709,-9.158943,-5.6790466,-6.5026517,0.24420857
1.3091455,5.3812156,0.61282873,2.6264763,-9.24523,-7.9487495,-7.431602,0.18674773
1.3033202,5.352949,0.61282873,2.6264763,-9.24523,-7.9487495,-7.431602,0.18674773
1.2972866,5.3254333,0.61069816,2.7351332,-9.3240595,-9.533711,-7.97748,-0.062249243
1.2910465,5.299154,0.61069816,2.7351332,-9.3240595,-9.533711,-7.97748,-0.062249243
1.2845913,5.273795,0.62348133,2.7862659,-9.401824,-10.481815,-8.0924015,-0.4405331
1.277945,5.2495766,0.62348133,2.7862659,-9.401824,-10.481815,-8.0924015,-0.4405331
1.2710813,5.2263603,0.6405256,2.787331,-9.471066,-11.334151,-8.034941,-0.93373865
1.2640555,5.2042265,0.6405256,2.787331,-9.471066,-11.334151,-8.034941,-0.93373865
1.2568108,5.18313,0.65330875,2.7521775,-9.527525,-11.066,-7.675811,-1.0773908
1.2494396,5.163065,0.65330875,2.7521775,-9.527525,-11.066,-7.675811,-1.0773908
1.2418724,5.143984,0.654374,2.7074363,-9.572267,-10.582372,-7.321469,-1.115698
1.2342006,5.1258335,0.654374,2.7074363,-9.572267,-10.582372,-7.321469,-1.115698
1.2263643,5.1085415,0.64478666,2.6786742,-9.60742,-10.726024,-7.1969705,-0.9720459
1.2184076,5.0920215,0.64478666,2.6786742,-9.60742,-10.726024,-7.1969705,-0.9720459
1.2103422,5.076275,0.6320035,2.6626952,-9.635117,-11.013328,-6.967127,-1.2162545
1.2021859,5.0612516,0.6320035,2.6626952,-9.635117,-11.013328,-6.967127,-1.2162545
1.1939349,5.0469046,0.61708975,2.649912,-9.657487,-11.051635,-6.5218053,-1.460463
1.1856054,5.0332046,0.61708975,2.649912,-9.657487,-11.051635,-6.5218053,-1.460463
1.1771922,5.0201225,0.59684974,2.6318026,-9.677728,-11.176133,-6.167464,-1.6759412
1.168719,5.0076323,0.59684974,2.6318026,-9.677728,-11.176133,-6.167464,-1.6759412
1.1601639,4.9956927,0.56915283,2.6073015,-9.696902,-11.377247,-5.803545,-1.9009962
1.1515415,4.9842596,0.56915283,2.6073015,-9.696902,-11.377247,-5.803545,-1.9009962
1.1428564,4.9733467,0.53399915,2.5785394,-9.717142,-11.616667,-5.5401826,-1.9488802
1.1341201,4.9628973,0.53399915,2.5785394,-9.717142,-11.616667,-5.5401826,-1.9488802
1.1253263,4.9529066,0.48925802,2.5465813,-9.734186,-12.152967,-5.281609,-1.9153614
1.1164887,4.943331,0.48925802,2.5465813,-9.734186,-12.152967,-5.281609,-1.9153614
1.1076062,4.934172,0.43706006,2.5103624,-9.741643,-12.694057,-5.118803,-1.8818425
1.0986764,4.925377,0.43706006,2.5103624,-9.741643,-12.694057,-5.118803,-1.8818425
1.0897378,4.916977,0.37527472,2.4698822,-9.734186,-13.417107,-5.0996494,-1.8004397
1.0807481,4.9088936,0.37527472,2.4698822,-9.734186,-13.417107,-5.0996494,-1.8004397
1.071775,4.901172,0.3070978,2.4262066,-9.704359,-14.030022,-5.0757074,-1.685518
1.0627642,4.8937407,0.3070978,2.4262066,-9.704359,-14.030022,-5.0757074,-1.685518
1.0537791,4.88663,0.23359455,2.3772044,-9.648965,-14.551958,-5.12838,-1.4796166
1.0447696,4.879784,0.23359455,2.3772044,-9.648965,-14.551958,-5.12838,-1.4796166
1.035812,4.873235,0.16115656,2.323941,-9.565875,-15.102624,-5.2145715,-1.4796166
1.02686,4.8669395,0.16115656,2.323941,-9.565875,-15.102624,-5.2145715,-1.4796166
1.0179491,4.8608856,0.089783855,2.2706778,-9.452956,-15.47612,-5.195418,-1.4317327
1.0089654,4.855007,0.089783855,2.2706778,-9.452956,-15.47612,-5.195418,-1.4317327
0.99981606,4.8492107,0.018411135,2.2120883,-9.312342,-16.026787,-5.1762643,-1.4556746
0.99131864,4.8440166,0.018411135,2.2120883,-9.312342,-16.026787,-5.1762643,-1.4556746
0.9826988,4.8389,-0.050831053,2.1471071,-9.154682,-16.270994,-5.243302,-1.340753
0.97401184,4.833915,-0.050831053,2.1471071,-9.154682,-16.270994,-5.243302,-1.340753
0.9654733,4.8291593,-0.121138506,2.0725386,-8.984241,-16.242264,-5.0374002,-1.2354081
0.9568956,4.8245335,-0.121138506,2.0725386,-8.984241,-16.242264,-5.0374002,-1.2354081
0.94851077,4.820141,-0.19251123,1.9894481,-8.804211,-16.136919,-5.0421886,-1.0582372
0.94009686,4.8158665,-0.19251123,1.9894481,-8.804211,-16.136919,-5.0421886,-1.0582372
0.931844,4.8117995,-0.26068816,1.89677,-8.623116,-16.136919,-5.104438,-0.89543146
0.92358065,4.807844,-0.26068816,1.89677,-8.623116,-16.136919,-5.104438,-0.89543146
0.9154823,4.8040953,-0.32673454,1.7881131,-8.437759,-17.051504,-5.391742,-0.89064306
0.90737474,4.800444,-0.32673454,1.7881131,-8.437759,-17.051504,-5.391742,-0.89064306
0.89943343,4.7970295,-0.38319355,1.6453676,-8.250273,-16.658855,-5.070919,-0.93373865
0.89148456,4.7936993,-0.38319355,1.6453676,-8.250273,-16.658855,-5.070919,-0.93373865
0.88370144,4.790637,-0.44071785,1.4632074,-8.062786,-15.528792,-5.118803,-0.6560113
0.8759043,4.7876434,-0.44071785,1.4632074,-8.062786,-15.528792,-5.118803,-0.6560113
0.8683048,4.7848997,-0.5035685,1.279982,-7.8614516,-15.126566,-5.377377,-0.4357447
0.8606928,4.7822137,-0.5035685,1.279982,-7.8614516,-15.126566,-5.377377,-0.4357447
0.8532752,4.779756,-0.5674843,1.0978217,-7.650529,-15.547946,-5.861006,-0.11971009
0.8458531,4.777349,-0.5674843,1.0978217,-7.650529,-15.547946,-5.861006,-0.11971009
0.83862364,4.775191,-0.6250086,0.8826383,-7.440672,-14.901511,-6.114791,0.06703765
0.8313911,4.773073,-0.6250086,0.8826383,-7.440672,-14.901511,-6.114791,0.06703765
0.8243575,4.7712193,-0.675076,0.6418885,-7.2244234,-13.488933,-6.2249246,0.12449849
0.81732196,4.7693963,-0.675076,0.6418885,-7.2244234,-13.488933,-6.2249246,0.12449849
0.81048566,4.7678137,-0.71875185,0.40753034,-6.9964566,-12.301409,-6.4978633,0.12449849
0.80390036,4.766312,-0.71875185,0.40753034,-6.9964566,-12.301409,-6.4978633,0.12449849
0.79730535,4.7649827,-0.7624277,0.19234692,-6.761033,-11.382035,-6.8426285,0.37828386
0.79046535,4.7636213,-0.7624277,0.19234692,-6.761033,-11.382035,-6.8426285,0.37828386
0.78409123,4.7625103,-0.8018425,-0.00366174,-6.5202837,-10.386047,-7.28795,0.56982
0.7777487,4.761415,-0.8018425,-0.00366174,-6.5202837,-10.386047,-7.28795,0.56982
0.7716042,4.7605047,-0.8316699,-0.18369143,-6.276338,-9.375694,-7.675811,0.6512229
0.7654292,4.7595954,-0.8316699,-0.18369143,-6.276338,-9.375694,-7.675811,0.6512229
0.7594404,4.7589264,-0.85723627,-0.34454638,-6.0313272,-8.001422,-8.034941,0.7517793
0.75345916,4.758254,-0.85723627,-0.34454638,-6.0313272,-8.001422,-8.034941,0.7517793
0.7475501,4.757655,-0.876411,-0.47983494,-5.7873816,-6.823475,-8.408437,0.78050977
0.74163294,4.7570605,-0.876411,-0.47983494,-5.7873816,-6.823475,-8.408437,0.78050977
0.7359387,4.7565155,-0.89025944,-0.58423084,-5.5487623,-5.645528,-8.652645,0.7469909
0.730234,4.75597,-0.89025944,-0.58423084,-5.5487623,-5.645528,-8.652645,0.7469909
0.7247575,4.755476,-0.90197736,-0.6556036,-5.321861,-4.5298295,-8.992621,0.8475474
0.7192816,4.754981,-0.90197736,-0.6556036,-5.321861,-4.5298295,-8.992621,0.8475474
0.7140263,4.754508,-0.91263,-0.68330044,-5.1024165,-3.6870706,-9.346964,1.0534488
0.7087717,4.7540326,-0.91263,-0.68330044,-5.1024165,-3.6870706,-9.346964,1.0534488
0.6979689,4.752992,-0.9190216,-0.67051727,-4.8968205,-3.0933087,-9.710882,1.2737153
0.6979689,4.752992,-0.9190216,-0.67051727,-4.8968205,-3.0933087,-9.710882,1.2737153
0.6899843,4.752135,-0.9190216,-0.6247109,-4.7082686,-2.6431987,-9.969456,1.3790601
0.68878067,4.7520056,-0.9190216,-0.6247109,-4.7082686,-2.6431987,-9.969456,1.3790601
0.68406606,4.7514205,-0.9136953,-0.54907715,-4.5325003,-2.4851813,-10.1226845,1.2354081
0.679333,4.750833,-0.9136953,-0.54907715,-4.5325003,-2.4851813,-10.1226845,1.2354081
0.674924,4.7502,-0.90410787,-0.44574648,-4.37271,-2.504335,-10.242394,1.2689269
0.67037106,4.7495456,-0.90410787,-0.44574648,-4.37271,-2.504335,-10.242394,1.2689269
0.6661714,4.7488375,-0.8913247,-0.3168495,-4.2246385,-2.5953147,-10.405201,1.1683705
0.66181904,4.748105,-0.8913247,-0.3168495,-4.2246385,-2.5953147,-10.405201,1.1683705
0.6576251,4.747274,-0.876411,-0.16132088,-4.078697,-3.0310593,-10.6158905,1.0965444
0.6534104,4.746441,-0.876411,-0.16132088,-4.078697,-3.0310593,-10.6158905,1.0965444
0.6493485,4.745491,-0.8625626,0.018708814,-3.9306257,-3.6774938,-10.91756,1.0199299
0.6452906,4.7445464,-0.8625626,0.018708814,-3.9306257,-3.6774938,-10.91756,1.0199299
0.64140713,4.74348,-0.84764886,0.21578273,-3.7729664,-4.453215,-11.305421,0.94810385
0.6375003,4.7424135,-0.84764886,0.21578273,-3.7729664,-4.453215,-11.305421,0.94810385
0.6337661,4.7412233,-0.82953936,0.4203135,-3.6089158,-5.3438582,-11.731588,0.8523358
0.6300429,4.7400446,-0.82953936,0.4203135,-3.6089158,-5.3438582,-11.731588,0.8523358
0.6265043,4.738747,-0.8050383,0.6216485,-3.4342124,-6.8186865,-11.587936,0.48362875
0.62294406,4.737451,-0.8050383,0.6216485,-3.4342124,-6.8186865,-11.587936,0.48362875
0.6195849,4.736078,-0.77947193,0.8112656,-3.252052,-6.679823,-12.038046,0.7469909
0.6162225,4.7347136,-0.77947193,0.8112656,-3.252052,-6.679823,-12.038046,0.7469909
0.6130878,4.733291,-0.7496445,0.99768686,-3.0571089,-7.809886,-12.612655,0.81881696
0.6099491,4.731878,-0.7496445,0.99768686,-3.0571089,-7.809886,-12.612655,0.81881696
0.6072309,4.730386,-0.70809925,1.167064,-2.856839,-9.710882,-12.852075,0.5267244
0.60451126,4.7289004,-0.70809925,1.167064,-2.856839,-9.710882,-12.852075,0.5267244
0.6019993,4.7273602,-0.65164024,1.2725251,-2.6704178,-10.242394,-12.861651,0.32561144
0.599485,4.72583,-0.65164024,1.2725251,-2.6704178,-10.242394,-12.861651,0.32561144
0.5971427,4.724311,-0.5898549,1.3193967,-2.4967797,-10.649409,-12.717999,0.10534488
0.59480083,4.722802,-0.5898549,1.3193967,-2.4967797,-10.649409,-12.717999,0.10534488
0.5926198,4.7213554,-0.5323306,1.324723,-2.333794,-10.94629,-12.559982,0.06703765
0.59043896,4.719918,-0.5323306,1.324723,-2.333794,-10.94629,-12.559982,0.06703765
0.5883992,4.718581,-0.47587156,1.2938304,-2.1867876,-10.807426,-12.53604,0.2681506
0.5863575,4.717251,-0.47587156,1.2938304,-2.1867876,-10.807426,-12.53604,0.2681506
0.58444744,4.7160244,-0.41621676,1.2395018,-2.0525644,-11.209652,-12.5504055,0.30645782
0.58253556,4.7148037,-0.41621676,1.2395018,-2.0525644,-11.209652,-12.5504055,0.30645782
0.58074725,4.7136984,-0.35230088,1.1638681,-1.9279284,-11.659762,-12.449849,0.29209262
0.57895744,4.7125983,-0.35230088,1.1638681,-1.9279284,-11.659762,-12.449849,0.29209262
0.57728493,4.711632,-0.28412396,1.0562764,-1.8107493,-11.865664,-12.349293,0.12928689
0.57561135,4.7106695,-0.28412396,1.0562764,-1.8107493,-11.865664,-12.349293,0.12928689
0.57404983,4.7098613,-0.21488178,0.91992253,-1.6988965,-12.047623,-12.224793,-0.019153614
0.5724858,4.7090554,-0.21488178,0.91992253,-1.6988965,-12.047623,-12.224793,-0.019153614
0.57103354,4.708411,-0.14883539,0.75800234,-1.5891744,-11.990162,-12.0332575,-0.272939
0.5695806,4.7077703,-0.14883539,0.75800234,-1.5891744,-11.990162,-12.0332575,-0.272939
0.56823015,4.707305,-0.08598478,0.5726463,-1.4869089,-11.573571,-11.87524,-0.41180268
0.56687677,4.706841,-0.08598478,0.5726463,-1.4869089,-11.573571,-11.87524,-0.41180268
0.56562513,4.706553,-0.025264706,0.381964,-1.3889046,-10.97502,-11.674128,-0.521936
0.56437343,4.7062664,-0.025264706,0.381964,-1.3889046,-10.97502,-11.674128,-0.521936
0.56320703,4.7061486,0.032259572,0.19341218,-1.3015529,-10.314221,-11.425131,-0.60333884
0.5620417,4.706032,0.032259572,0.19341218,-1.3015529,-10.314221,-11.425131,-0.60333884
0.5609517,4.7060733,0.08552279,0.013382491,-1.2227234,-9.500193,-11.180922,-0.59855044
0.55986285,4.7061152,0.08552279,0.013382491,-1.2227234,-9.500193,-11.180922,-0.59855044
0.55882716,4.7063,0.13239443,-0.15279876,-1.1588075,-8.63828,-10.970232,-0.5506664
0.55779964,4.706483,0.13239443,-0.15279876,-1.1588075,-8.63828,-10.970232,-0.5506664
0.5568063,4.706772,0.17393975,-0.30406633,-1.1119359,-7.929596,-10.773908,-0.6655881
0.5558049,4.7070637,0.17393975,-0.30406633,-1.1119359,-7.929596,-10.773908,-0.6655881
0.5548024,4.7074585,0.21228927,-0.44148543,-1.0810432,-7.3645644,-10.548853,-0.7469909
0.55380636,4.707851,0.21228927,-0.44148543,-1.0810432,-7.3645644,-10.548853,-0.7469909
0.55277824,4.708344,0.24637774,-0.56718665,-1.0650642,-6.9000893,-10.405201,-0.8523358
0.5517662,4.7088294,0.24637774,-0.56718665,-1.0650642,-6.9000893,-10.405201,-0.8523358
0.55074203,4.7094116,0.2772704,-0.68862677,-1.0586727,-6.5505357,-10.228029,-0.89543146
0.5497154,4.7099943,0.2772704,-0.68862677,-1.0586727,-6.5505357,-10.228029,-0.89543146
0.548663,4.710672,0.303902,-0.8026101,-1.0565422,-6.133945,-9.993398,-0.7038953
0.5476086,4.7113504,0.303902,-0.8026101,-1.0565422,-6.133945,-9.993398,-0.7038953
0.54649514,4.712129,0.32946837,-0.90913653,-1.0501505,-5.616797,-9.854534,-0.46926352
0.54538256,4.712906,0.32946837,-0.90913653,-1.0501505,-5.616797,-9.854534,-0.46926352
0.5442389,4.713785,0.35077363,-1.0028799,-1.0373673,-5.2289367,-9.691729,-0.34955344
0.54309654,4.7146606,0.35077363,-1.0028799,-1.0373673,-5.2289367,-9.691729,-0.34955344
0.54194933,4.7156286,0.36994842,-1.0795789,-1.0171273,-4.9224787,-9.548077,-0.22505496
0.54080105,4.716593,0.36994842,-1.0795789,-1.0171273,-4.9224787,-9.548077,-0.22505496
0.539682,4.717616,0.3880579,-1.1466905,-0.9872999,-4.6016555,-9.385271,-0.23463176
0.5385572,4.7186403,0.3880579,-1.1466905,-0.9872999,-4.6016555,-9.385271,-0.23463176
0.53746605,4.71972,0.4029716,-1.2020843,-0.94788516,-4.280833,-9.14585,-0.18674773
0.53637767,4.720793,0.4029716,-1.2020843,-0.94788516,-4.280833,-9.14585,-0.18674773
0.53533626,4.721895,0.41682005,-1.2468253,-0.90207875,-3.8786068,-8.916007,-0.30645782
0.53428996,4.722999,0.41682005,-1.2468253,-0.90207875,-3.8786068,-8.916007,-0.30645782
0.5332951,4.724133,0.4242769,-1.2766528,-0.846685,-3.5338416,-8.695741,-0.25378537
0.53229916,4.725264,0.4242769,-1.2766528,-0.846685,-3.5338416,-8.695741,-0.25378537
0.53135926,4.7264175,0.42960322,-1.2926317,-0.7838344,-3.1794999,-8.532935,-0.22984336
0.5304322,4.7275505,0.42960322,-1.2926317,-0.7838344,-3.1794999,-8.532935,-0.22984336
0.5295565,4.7287035,0.43173376,-1.293697,-0.7188533,-2.944868,-8.446744,-0.18674773
0.5286692,4.729867,0.43173376,-1.293697,-0.7188533,-2.944868,-8.446744,-0.18674773
0.5278578,4.7310123,0.42960322,-1.2809138,-0.65067637,-2.705448,-8.307879,-0.12928689
0.5270479,4.732151,0.42960322,-1.2809138,-0.65067637,-2.705448,-8.307879,-0.12928689
0.5263022,4.733279,0.42321163,-1.2564127,-0.5803689,-2.5139117,-8.226477,-0.08140286
0.5255532,4.734408,0.42321163,-1.2564127,-0.5803689,-2.5139117,-8.226477,-0.08140286
0.524876,4.735507,0.41682005,-1.2201937,-0.51006144,-2.3894134,-8.135497,-0.062249243
0.5241991,4.7366014,0.41682005,-1.2201937,-0.51006144,-2.3894134,-8.135497,-0.062249243
0.5235935,4.7376666,0.41149372,-1.1743873,-0.43762347,-2.3080103,-8.001422,-0.033518825
0.5229866,4.73873,0.41149372,-1.1743873,-0.43762347,-2.3080103,-8.001422,-0.033518825
0.5224559,4.739753,0.40510213,-1.1232547,-0.36305496,-2.2026656,-7.881712,-0.06703765
0.5219219,4.7407775,0.40510213,-1.1232547,-0.36305496,-2.2026656,-7.881712,-0.06703765
0.5214666,4.741759,0.3976453,-1.067861,-0.2863559,-2.0159178,-7.714118,-0.11492168
0.5210108,4.7427373,0.3976453,-1.067861,-0.2863559,-2.0159178,-7.714118,-0.11492168
0.52062994,4.743677,0.3848621,-1.0103366,-0.21072213,-1.8483237,-7.599196,-0.062249243
0.52024895,4.744614,0.3848621,-1.0103366,-0.21072213,-1.8483237,-7.599196,-0.062249243
0.5199404,4.7454987,0.36888313,-0.95068187,-0.13934942,-1.5849615,-7.5225816,-0.1340753
0.519631,4.746383,0.36888313,-0.95068187,-0.13934942,-1.5849615,-7.5225816,-0.1340753
0.5193877,4.747217,0.34864312,-0.8878312,-0.07436828,-1.484405,-7.455544,-0.04309563
0.51914304,4.748052,0.34864312,-0.8878312,-0.07436828,-1.484405,-7.455544,-0.04309563
0.51895595,4.748828,0.32414204,-0.82391536,-0.017909266,-1.4269443,-7.4028716,-0.07182605
0.5187703,4.7495947,0.32414204,-0.82391536,-0.017909266,-1.4269443,-7.4028716,-0.07182605
0.5186351,4.750312,0.3007062,-0.75786895,0.032158162,-1.3790601,-7.2544312,0.019153614
0.51849943,4.751028,0.3007062,-0.75786895,0.032158162,-1.3790601,-7.2544312,0.019153614
0.5184106,4.751678,0.2740746,-0.69288784,0.07689927,-1.4173675,-7.16824,-0.023942016
0.51832134,4.752328,0.2740746,-0.69288784,0.07689927,-1.4173675,-7.16824,-0.023942016
0.518277,4.7529125,0.24637774,-0.63003725,0.119509846,-1.5370775,-7.1107793,-0.02873042
0.5182321,4.753498,0.24637774,-0.63003725,0.119509846,-1.5370775,-7.1107793,-0.02873042
0.5182312,4.7540197,0.21868086,-0.5703824,0.16105516,-1.6136919,-7.019799,-0.05267244
0.5182302,4.7545395,0.21868086,-0.5703824,0.16105516,-1.6136919,-7.019799,-0.05267244
0.51827,4.7550077,0.18991871,-0.5181845,0.20046994,-1.661576,-6.991069,0.0047884034
0.5183096,4.7554746,0.18991871,-0.5181845,0.20046994,-1.661576,-6.991069,0.0047884034
0.51839155,4.7558775,0.16009131,-0.4691823,0.23988473,-1.6998832,-6.933608,-0.076614454
0.51847327,4.75628,0.16009131,-0.4691823,0.23988473,-1.6998832,-6.933608,-0.076614454
0.5185937,4.7566314,0.13026391,-0.42337593,0.277169,-1.6567876,-6.8809357,-0.038307227
0.51871365,4.756982,0.13026391,-0.42337593,0.277169,-1.6567876,-6.8809357,-0.038307227
0.5188693,4.757286,0.102567025,-0.3765043,0.31125745,-1.5658079,-6.9144545,0.033518825
0.51901734,4.757576,0.102567025,-0.3765043,0.31125745,-1.5658079,-6.9144545,0.033518825
0.51920253,4.7578244,0.074870154,-0.32750213,0.33895433,-1.5227122,-6.95755,0.019153614
0.51939654,4.758085,0.074870154,-0.32750213,0.33895433,-1.5227122,-6.95755,0.019153614
0.5196034,4.758273,0.047173277,-0.27530417,0.35812908,-1.5705963,-7.015011,-0.019153614
0.5198094,4.758461,0.047173277,-0.27530417,0.35812908,-1.5705963,-7.015011,-0.019153614
0.52002895,4.758598,0.020541664,-0.21884516,0.36878175,-1.5801731,-7.1107793,0.08140286
0.52024895,4.7587357,0.020541664,-0.21884516,0.36878175,-1.5801731,-7.1107793,0.08140286
0.5204703,4.758813,-0.0039594183,-0.15919036,0.36771646,-1.5945383,-7.2304893,0.062249243
0.5206917,4.75889,-0.0039594183,-0.15919036,0.36771646,-1.5945383,-7.2304893,0.062249243
0.520903,4.7589016,-0.029525764,-0.09740501,0.3549333,-1.7621324,-7.3549876,0.023942016
0.52111465,4.758914,-0.029525764,-0.09740501,0.3549333,-1.7621324,-7.3549876,0.023942016
0.5213048,4.7588754,-0.050831053,-0.035619672,0.33149746,-1.8100165,-7.4986396,0.11971009
0.52149564,4.7588367,-0.050831053,-0.035619672,0.33149746,-1.8100165,-7.4986396,0.11971009
0.52165765,4.758736,-0.06894055,0.021904606,0.29953954,-2.0925324,-7.6231384,0.01436521
0.5218197,4.7586355,-0.06894055,0.021904606,0.29953954,-2.0925324,-7.6231384,0.01436521
0.5219431,4.7584953,-0.08598478,0.07516783,0.2590595,-2.1308396,-7.9008656,0.1340753
0.52206635,4.758355,-0.08598478,0.07516783,0.2590595,-2.1308396,-7.9008656,0.1340753
0.5221439,4.758173,-0.09770269,0.12310473,0.21112259,-2.2936451,-8.159439,0.12449849
0.5222215,4.757991,-0.09770269,0.12310473,0.21112259,-2.2936451,-8.159439,0.12449849
0.5222492,4.7577705,-0.106224805,0.16465004,0.15892464,-2.5330653,-8.389283,0.08619126
0.522277,4.7575502,-0.106224805,0.16465004,0.15892464,-2.5330653,-8.389283,0.08619126
0.52224755,4.757306,-0.11048587,0.19447745,0.10033509,-2.7006595,-8.532935,0.095768064
0.52221805,4.757063,-0.11048587,0.19447745,0.10033509,-2.7006595,-8.532935,0.095768064
0.5221272,4.7568083,-0.11155113,0.21365221,0.03854975,-2.8682537,-8.7053175,0.15322891
0.5220363,4.7565556,-0.11155113,0.21365221,0.03854975,-2.8682537,-8.7053175,0.15322891
0.5218881,4.756298,-0.11048587,0.22430485,-0.018974531,-3.0310593,-8.916007,0.19632454
0.52173984,4.7560406,-0.11048587,0.22430485,-0.018974531,-3.0310593,-8.916007,0.19632454
0.5215368,4.7557797,-0.10515954,0.22963117,-0.07436828,-3.2225955,-8.949526,0.16280572
0.52133363,4.75552,-0.10515954,0.22963117,-0.07436828,-3.2225955,-8.949526,0.16280572
0.5210796,4.755265,-0.09663743,0.23282696,-0.12550098,-3.4859576,-9.097966,0.19153613
0.52082545,4.7550106,-0.09663743,0.23282696,-0.12550098,-3.4859576,-9.097966,0.19153613
0.52052873,4.754778,-0.08598478,0.23389223,-0.1670463,-3.667917,-9.14585,0.31603462
0.520232,4.7545457,-0.08598478,0.23389223,-0.1670463,-3.667917,-9.14585,0.31603462
0.51956403,4.7541,-0.07320161,0.23708802,-0.19793896,-3.8594532,-9.232041,0.34955344
0.51956403,4.7541,-0.07320161,0.23708802,-0.19793896,-3.8594532,-9.232041,0.34955344
0.5192171,4.753903,-0.060418434,0.24561015,-0.2149832,-4.0797195,-9.23683,0.45968673
0.5186181,4.753564,-0.060418434,0.24561015,-0.2149832,-4.0797195,-9.23683,0.45968673
0.51853603,4.7535176,-0.04763526,0.25626278,-0.21924424,-4.295198,-9.275137,0.40222588
0.51803654,4.7532363,-0.032721557,0.26904595,-0.21604845,-4.453215,-9.279925,0.36870706
0.51784474,4.753129,-0.032721557,0.26904595,-0.21604845,-4.453215,-9.279925,0.36870706
0.5171546,4.752762,-0.019938385,0.28395966,-0.20326528,-4.5441947,-9.284714,0.45968673
0.5171546,4.752762,-0.019938385,0.28395966,-0.20326528,-4.5441947,-9.284714,0.45968673
0.5168377,4.752602,-0.019938385,0.28395966,-0.20326528,-4.5441947,-9.284714,0.45968673
0.5165307,4.7524242,-0.006089947,0.2978081,-0.18302526,-4.5777135,-9.217676,0.36870706
0.51623017,4.7522507,-0.006089947,0.2978081,-0.18302526,-4.5777135,-9.217676,0.36870706
0.5159265,4.752058,0.0077584907,0.31378707,-0.16171996,-4.7309427,-9.222465,0.33997664
0.51565605,4.7518864,0.0077584907,0.31378707,-0.16171996,-4.7309427,-9.222465,0.33997664
0.51539457,4.7517247,0.02160693,0.32870078,-0.13508835,-4.9416323,-9.212888,0.37349546
0.5151071,4.751549,0.02160693,0.32870078,-0.13508835,-4.9416323,-9.212888,0.37349546
0.5150549,4.751302,0.033324838,0.34361446,-0.107391484,-5.2002063,-9.131485,0.29209262
0.51499903,4.75103,0.033324838,0.34361446,-0.107391484,-5.2002063,-9.131485,0.29209262
0.51505655,4.7508173,0.043977484,0.35426712,-0.078629345,-5.434838,-9.131485,0.2633622
0.51511455,4.7506056,0.043977484,0.35426712,-0.078629345,-5.434838,-9.131485,0.2633622
0.51520896,4.750406,0.05356486,0.36278924,-0.046671405,-5.60722,-9.150639,0.22984336
0.5153038,4.750206,0.05356486,0.36278924,-0.046671405,-5.60722,-9.150639,0.22984336
0.51542896,4.750017,0.05995645,0.36598504,-0.018974531,-5.717354,-9.165004,0.22026655
0.5155543,4.7498283,0.05995645,0.36598504,-0.018974531,-5.717354,-9.165004,0.22026655
0.5157243,4.749638,0.06634804,0.36278924,0.0065918155,-5.7365074,-9.088389,0.22984336
0.5158917,4.749451,0.06634804,0.36278924,0.0065918155,-5.7365074,-9.088389,0.22984336
0.5160447,4.7493405,0.07273962,0.35320187,0.027897105,-5.7843914,-9.050082,0.320823
0.51621974,4.7492137,0.07273962,0.35320187,0.027897105,-5.7843914,-9.050082,0.320823
0.5164157,4.7491045,0.08126174,0.3393534,0.04387607,-5.78918,-9.035717,0.33518824
0.5166118,4.748995,0.08126174,0.3393534,0.04387607,-5.78918,-9.035717,0.33518824
0.51681626,4.7489243,0.087653324,0.3191134,0.055593982,-5.81791,-8.959103,0.4165911
0.51702034,4.748854,0.087653324,0.3191134,0.055593982,-5.81791,-8.959103,0.4165911
0.5172379,4.7487917,0.09617544,0.29461232,0.06731189,-5.884948,-8.930372,0.35913026
0.51745737,4.7487297,0.09617544,0.29461232,0.06731189,-5.884948,-8.930372,0.35913026
0.5176797,4.7486978,0.10363229,0.26585016,0.075834006,-5.9567738,-8.872911,0.39264908
0.51790345,4.7486663,0.10363229,0.26585016,0.075834006,-5.9567738,-8.872911,0.39264908
0.5181347,4.7486544,0.11108914,0.2349575,0.08329086,-6.0046577,-8.7771435,0.36870706
0.51836544,4.748643,0.11108914,0.2349575,0.08329086,-6.0046577,-8.7771435,0.36870706
0.5186032,4.748664,0.118545994,0.2019343,0.09181297,-5.9902925,-8.78672,0.40222588
0.51884055,4.748685,0.118545994,0.2019343,0.09181297,-5.9902925,-8.78672,0.40222588
0.519089,4.7487335,0.122807056,0.16997637,0.104596145,-6.019023,-8.714894,0.4357447
0.51933646,4.7487826,0.122807056,0.16997637,0.104596145,-6.019023,-8.714894,0.4357447
0.51959497,4.7488585,0.12813337,0.1390837,0.11737932,-5.9759274,-8.695741,0.45489833
0.51984674,4.748933,0.12813337,0.1390837,0.11737932,-5.9759274,-8.695741,0.45489833
0.5201172,4.749039,0.13239443,0.10819103,0.13335828,-5.947197,-8.6334915,0.50278234
0.5203953,4.7491484,0.13239443,0.10819103,0.13335828,-5.947197,-8.6334915,0.50278234
0.5206805,4.749279,0.13452496,0.08049415,0.15146779,-5.8466406,-8.576031,0.521936
0.5209644,4.7494087,0.13452496,0.08049415,0.15146779,-5.8466406,-8.576031,0.521936
0.5212705,4.7495527,0.1366555,0.054927804,0.17170781,-5.770026,-8.508993,0.49320555
0.52157813,4.7496977,0.1366555,0.054927804,0.17170781,-5.770026,-8.508993,0.49320555
0.5218976,4.7498746,0.13772075,0.028296193,0.19407836,-5.6790466,-8.485051,0.5602432
0.52221733,4.750051,0.13772075,0.028296193,0.19407836,-5.6790466,-8.485051,0.5602432
0.522556,4.750252,0.13985129,0.003795111,0.21964471,-5.57849,-8.451532,0.5793968
0.52289486,4.750453,0.13985129,0.003795111,0.21964471,-5.57849,-8.451532,0.5793968
0.5232607,4.750668,0.14198181,-0.020705972,0.24521105,-5.4539914,-8.379706,0.5315128
0.5236267,4.750883,0.14198181,-0.020705972,0.24521105,-5.4539914,-8.379706,0.5315128
0.52401227,4.7511253,0.14304708,-0.043076526,0.27184266,-5.33907,-8.327033,0.5506664
0.5243957,4.7513657,0.14304708,-0.043076526,0.27184266,-5.33907,-8.327033,0.5506664
0.52480626,4.751608,0.14198181,-0.06118602,0.29634374,-5.2145715,-8.255207,0.48362875
0.5252195,4.7518516,0.14198181,-0.06118602,0.29634374,-5.2145715,-8.255207,0.48362875
0.5256387,4.752124,0.13985129,-0.07609972,0.32191008,-5.1235914,-8.159439,0.5554548
0.52605575,4.752395,0.13985129,-0.07609972,0.32191008,-5.1235914,-8.159439,0.5554548
0.5265029,4.7526665,0.1366555,-0.08781763,0.3453459,-5.00867,-8.1163435,0.47884035
0.52694964,4.7529373,0.1366555,-0.08781763,0.3453459,-5.00867,-8.1163435,0.47884035
0.5273936,4.7532268,0.13239443,-0.09633975,0.36558592,-4.9320555,-8.1402855,0.48841715
0.52783674,4.753517,0.13239443,-0.09633975,0.36558592,-4.9320555,-8.1402855,0.48841715
0.52827334,4.753815,0.12600285,-0.10060081,0.38263017,-4.88896,-8.130709,0.521936
0.5287086,4.754114,0.12600285,-0.10060081,0.38263017,-4.88896,-8.130709,0.521936
0.5291408,4.754412,0.119611256,-0.10166607,0.3964786,-4.8602295,-8.121132,0.5554548
0.5295718,4.754711,0.119611256,-0.10166607,0.3964786,-4.8602295,-8.121132,0.5554548
0.53001046,4.755004,0.11321967,-0.10060081,0.406066,-4.8602295,-8.135497,0.5410896
0.5304476,4.755297,0.11321967,-0.10060081,0.406066,-4.8602295,-8.135497,0.5410896
0.5308824,4.755586,0.10789335,-0.09847028,0.41352284,-4.879383,-8.145074,0.6464345
0.5313152,4.7558746,0.10789335,-0.09847028,0.41352284,-4.879383,-8.145074,0.6464345
0.5317671,4.756156,0.10150176,-0.09847028,0.42097968,-4.879383,-8.159439,0.5315128
0.5322168,4.756438,0.10150176,-0.09847028,0.42097968,-4.879383,-8.159439,0.5315128
0.5326793,4.756716,0.09830597,-0.09847028,0.4295018,-4.9320555,-8.178593,0.58897364
0.5331403,4.7569942,0.09830597,-0.09847028,0.4295018,-4.9320555,-8.178593,0.58897364
0.5336461,4.7572603,0.09404491,-0.10273133,0.43695867,-5.0134583,-8.197746,0.5363012
0.5341475,4.7575254,0.09404491,-0.10273133,0.43695867,-5.0134583,-8.197746,0.5363012
0.5346236,4.757805,0.09297965,-0.109122925,0.44335026,-4.9464207,-8.202535,0.5506664
0.53509736,4.7580853,0.09297965,-0.109122925,0.44335026,-4.9464207,-8.202535,0.5506664
0.53554404,4.7583737,0.09297965,-0.11657977,0.4508071,-4.8698063,-8.1881695,0.58418524
0.5359887,4.758662,0.09297965,-0.11657977,0.4508071,-4.8698063,-8.1881695,0.58418524
0.53639495,4.758948,0.09084912,-0.1251019,0.45826393,-4.7548847,-8.159439,0.5554548
0.53679883,4.759233,0.09084912,-0.1251019,0.45826393,-4.7548847,-8.159439,0.5554548
0.5371867,4.759516,0.089783855,-0.13575453,0.462525,-4.6782703,-8.1163435,0.5554548
0.53756714,4.7597933,0.089783855,-0.13575453,0.462525,-4.6782703,-8.1163435,0.5554548
0.5379464,4.7600737,0.089783855,-0.14321138,0.4678513,-4.5777135,-8.0684595,0.58897364
0.5383314,4.7603583,0.089783855,-0.14321138,0.4678513,-4.5777135,-8.0684595,0.58897364
0.53867674,4.760609,0.08871859,-0.14853771,0.46998185,-4.5537715,-8.025364,0.47884035
0.53901863,4.760858,0.08871859,-0.14853771,0.46998185,-4.5537715,-8.025364,0.47884035
0.53936946,4.761118,0.08658806,-0.15279876,0.4689166,-4.462792,-8.034941,0.5506664
0.5397201,4.7613773,0.08658806,-0.15279876,0.4689166,-4.462792,-8.034941,0.5506664
0.54006803,4.7616315,0.08339227,-0.1549293,0.46998185,-4.4196963,-7.9870567,0.545878
0.5404146,4.7618837,0.08339227,-0.1549293,0.46998185,-4.4196963,-7.9870567,0.545878
0.54076135,4.762135,0.08126174,-0.15386403,0.4689166,-4.3766007,-8.020576,0.5793968
0.5411075,4.762385,0.08126174,-0.15386403,0.4689166,-4.3766007,-8.020576,0.5793968
0.5414377,4.7626123,0.07913121,-0.14960296,0.4657208,-4.309563,-8.00621,0.5315128
0.54176784,4.762839,0.07913121,-0.14960296,0.4657208,-4.309563,-8.00621,0.5315128
0.5420825,4.7630343,0.07806595,-0.14108086,0.45932922,-4.1802764,-8.015787,0.46926352
0.54239666,4.763229,0.07806595,-0.14108086,0.45932922,-4.1802764,-8.015787,0.46926352
0.5426974,4.7634144,0.07700068,-0.12936294,0.44548076,-4.185065,-8.0445175,0.46926352
0.5429981,4.7635994,0.07700068,-0.12936294,0.44548076,-4.185065,-8.0445175,0.46926352
0.54328156,4.76377,0.074870154,-0.11657977,0.42843655,-4.146757,-8.0684595,0.45968673
0.5435647,4.76394,0.074870154,-0.11657977,0.42843655,-4.146757,-8.0684595,0.45968673
0.543826,4.764099,0.07167436,-0.10060081,0.40393546,-4.223372,-8.130709,0.46926352
0.54408836,4.7642584,0.07167436,-0.10060081,0.40393546,-4.223372,-8.130709,0.46926352
0.54433274,4.7644315,0.06954383,-0.08675237,0.37730384,-4.2904096,-8.130709,0.5554548
0.5445716,4.7646,0.06954383,-0.08675237,0.37730384,-4.2904096,-8.130709,0.5554548
0.5447743,4.7647285,0.07060909,-0.077164985,0.34960696,-4.31914,-8.197746,0.4357447
0.5449804,4.764859,0.07060909,-0.077164985,0.34960696,-4.31914,-8.197746,0.4357447
0.5451548,4.764992,0.07273962,-0.07183866,0.31764904,-4.367024,-8.236053,0.45489833
0.5453286,4.7651253,0.07273962,-0.07183866,0.31764904,-4.367024,-8.236053,0.45489833
0.5454722,4.7652454,0.074870154,-0.07396919,0.28782162,-4.381389,-8.264784,0.40701428
0.5456158,4.765365,0.074870154,-0.07396919,0.28782162,-4.381389,-8.264784,0.40701428
0.5457306,4.7655015,0.07806595,-0.079295516,0.2590595,-4.3526587,-8.259995,0.44532153
0.5458453,4.7656374,0.07806595,-0.079295516,0.2590595,-4.3526587,-8.259995,0.44532153
0.54593295,4.7657757,0.082327,-0.0856871,0.23242788,-4.309563,-8.24563,0.4261679
0.5460206,4.765914,0.082327,-0.0856871,0.23242788,-4.309563,-8.24563,0.4261679
0.54608047,4.7660575,0.08658806,-0.09207869,0.204731,-4.271256,-8.183381,0.4165911
0.54613996,4.7662,0.08658806,-0.09207869,0.204731,-4.271256,-8.183381,0.4165911
0.5461777,4.7663574,0.087653324,-0.09420922,0.18236046,-4.31914,-8.12592,0.45968673
0.5462155,4.7665143,0.087653324,-0.09420922,0.18236046,-4.31914,-8.12592,0.45968673
0.5462303,4.766656,0.08871859,-0.093143955,0.1599899,-4.333505,-7.9966335,0.40701428
0.54624534,4.766796,0.08871859,-0.093143955,0.1599899,-4.333505,-7.9966335,0.40701428
0.54624254,4.766923,0.087653324,-0.091013424,0.14081514,-4.3382936,-7.953538,0.37828386
0.54623973,4.76705,0.087653324,-0.091013424,0.14081514,-4.3382936,-7.953538,0.37828386
0.5462192,4.7671776,0.08552279,-0.08781763,0.12377091,-4.429273,-7.905654,0.40222588
0.54619884,4.767305,0.08552279,-0.08781763,0.12377091,-4.429273,-7.905654,0.40222588
0.54617566,4.7673907,0.082327,-0.08142605,0.10992247,-4.4484267,-7.843405,0.33997664
0.5461527,4.767476,0.082327,-0.08142605,0.10992247,-4.4484267,-7.843405,0.33997664
0.5461208,4.7675514,0.075935416,-0.07609972,0.10033509,-4.5298295,-7.795521,0.36870706
0.54608923,4.7676263,0.075935416,-0.07609972,0.10033509,-4.5298295,-7.795521,0.36870706
0.5460962,4.767646,0.06847856,-0.0707734,0.0939435,-4.596867,-7.7811556,0.31603462
0.5461032,4.7676644,0.06847856,-0.0707734,0.0939435,-4.596867,-7.7811556,0.31603462
0.5460578,4.7677298,0.05995645,-0.06544708,0.09181297,-4.6351743,-7.824251,0.40701428
0.54601157,4.7677956,0.05995645,-0.06544708,0.09181297,-4.6351743,-7.824251,0.40701428
0.54597664,4.767829,0.0524996,-0.060120758,0.09074771,-4.6399627,-7.7572136,0.40222588
0.5459422,4.7678614,0.0524996,-0.060120758,0.09074771,-4.6399627,-7.7572136,0.40222588
0.54589397,4.767915,0.043977484,-0.0558597,0.09181297,-4.5920787,-7.7667904,0.41180268
0.5458457,4.767968,0.043977484,-0.0558597,0.09181297,-4.5920787,-7.7667904,0.41180268
0.54580605,4.768068,0.033324838,-0.048402846,0.09607403,-4.572925,-7.7907324,0.46447513
0.5457662,4.7681665,0.033324838,-0.048402846,0.09607403,-4.572925,-7.7907324,0.46447513
0.5457271,4.768249,0.024802722,-0.04201126,0.09820456,-4.4963107,-7.833828,0.47884035
0.5456878,4.7683306,0.024802722,-0.04201126,0.09820456,-4.4963107,-7.833828,0.47884035
0.54564863,4.768388,0.016280606,-0.03455441,0.10033509,-4.4963107,-7.8050976,0.45968673
0.5456091,4.768445,0.016280606,-0.03455441,0.10033509,-4.4963107,-7.8050976,0.45968673
0.545569,4.7684884,0.008823755,-0.02496703,0.09926982,-4.429273,-7.848193,0.46926352
0.54552853,4.768532,0.008823755,-0.02496703,0.09926982,-4.429273,-7.848193,0.46926352
0.5454745,4.7685356,-0.0007636249,-0.015379649,0.09500877,-4.486734,-7.9104424,0.4309563
0.54543227,4.768539,-0.0007636249,-0.015379649,0.09500877,-4.486734,-7.9104424,0.4309563
0.5453749,4.7685347,-0.0114162695,-0.007922798,0.08648665,-4.4101195,-7.929596,0.44532153
0.5453299,4.768532,-0.0114162695,-0.007922798,0.08648665,-4.4101195,-7.929596,0.44532153
0.5452558,4.768512,-0.019938385,-0.0025964756,0.07689927,-4.4580035,-7.9631147,0.44532153
0.54519784,4.7684965,-0.019938385,-0.0025964756,0.07689927,-4.4580035,-7.9631147,0.44532153
0.54511017,4.768464,-0.026329972,0.0016645822,0.06837715,-4.4915223,-7.9726915,0.44532153
0.54505867,4.768446,-0.026329972,0.0016645822,0.06837715,-4.4915223,-7.9726915,0.44532153
0.5449768,4.768426,-0.032721557,0.003795111,0.0609203,-4.5441947,-7.967903,0.46926352
0.54490507,4.768408,-0.032721557,0.003795111,0.0609203,-4.5441947,-7.967903,0.46926352
0.54479194,4.7683845,-0.03698262,0.0048603755,0.054528717,-4.5298295,-7.9870567,0.48362875
0.54474264,4.7683744,-0.03698262,0.0048603755,0.054528717,-4.5298295,-7.9870567,0.48362875
0.5446557,4.768355,-0.04017841,0.00592564,0.049202394,-4.501099,-7.9008656,0.47884035
0.5445674,4.768336,-0.04017841,0.00592564,0.049202394,-4.501099,-7.9008656,0.47884035
0.54448664,4.768331,-0.04443947,0.0069909045,0.047071867,-4.4915223,-7.881712,0.51235914
0.5444056,4.7683268,-0.04443947,0.0069909045,0.047071867,-4.4915223,-7.881712,0.51235914
0.54431343,4.768258,-0.049765788,0.010186698,0.047071867,-4.4580035,-7.809886,0.4165911
0.5442177,4.768187,-0.049765788,0.010186698,0.047071867,-4.4580035,-7.809886,0.4165911
0.5441302,4.7681313,-0.05509211,0.014447756,0.047071867,-4.4436383,-7.785944,0.4405331
0.5440384,4.768073,-0.05509211,0.014447756,0.047071867,-4.4436383,-7.785944,0.4405331
0.5439621,4.7680445,-0.062548965,0.021904606,0.049202394,-4.414908,-7.795521,0.51714754
0.5438857,4.768017,-0.062548965,0.021904606,0.049202394,-4.414908,-7.795521,0.51714754
0.5438016,4.767955,-0.07000581,0.029361458,0.05026766,-4.453215,-7.833828,0.47405192
0.5437175,4.7678933,-0.07000581,0.029361458,0.05026766,-4.453215,-7.833828,0.47405192
0.543635,4.767815,-0.076397404,0.037883572,0.052398186,-4.3957543,-7.8146744,0.46926352
0.54355216,4.7677374,-0.076397404,0.037883572,0.052398186,-4.3957543,-7.8146744,0.46926352
0.5434754,4.7676506,-0.08491952,0.046405688,0.055593982,-4.343082,-7.867347,0.48841715
0.5433974,4.7675633,-0.08491952,0.046405688,0.055593982,-4.343082,-7.867347,0.48841715
0.54331607,4.7674565,-0.093441635,0.053862542,0.05346345,-4.4005427,-7.867347,0.46926352
0.54323745,4.767354,-0.093441635,0.053862542,0.05346345,-4.4005427,-7.867347,0.46926352
0.5431522,4.767221,-0.09983322,0.061319392,0.05133292,-4.429273,-7.9391727,0.4405331
0.5430646,4.7670846,-0.09983322,0.061319392,0.05133292,-4.429273,-7.9391727,0.4405331
0.54298997,4.7669797,-0.10515954,0.06877624,0.05133292,-4.4340615,-8.010999,0.5315128
0.5429164,4.766876,-0.10515954,0.06877624,0.05133292,-4.4340615,-8.010999,0.5315128
0.54283136,4.76672,-0.11048587,0.07516783,0.05133292,-4.4436383,-8.0445175,0.4357447
0.5427464,4.766564,-0.11048587,0.07516783,0.05133292,-4.4436383,-8.0445175,0.4357447
0.5426634,4.7664194,-0.11474692,0.08155942,0.05026766,-4.4436383,-8.121132,0.48362875
0.5425806,4.7662754,-0.11474692,0.08155942,0.05026766,-4.4436383,-8.121132,0.48362875
0.54249746,4.76612,-0.11794271,0.087951005,0.05026766,-4.43885,-8.1881695,0.47884035
0.54241407,4.7659655,-0.11794271,0.087951005,0.05026766,-4.43885,-8.1881695,0.47884035
0.5423289,4.765792,-0.121138506,0.09540785,0.049202394,-4.405331,-8.183381,0.45010993
0.54224366,4.7656193,-0.121138506,0.09540785,0.049202394,-4.405331,-8.183381,0.45010993
0.54215646,4.7654343,-0.12326904,0.1060605,0.047071867,-4.4196963,-8.264784,0.4405331
0.5420693,4.7652493,-0.12326904,0.1060605,0.047071867,-4.4196963,-8.264784,0.4405331
0.54197854,4.765047,-0.124334306,0.117778406,0.042810805,-4.486734,-8.288726,0.4165911
0.5418877,4.764846,-0.124334306,0.117778406,0.042810805,-4.486734,-8.288726,0.4165911
0.5417959,4.7646265,-0.12646483,0.13162684,0.040680278,-4.5202527,-8.322245,0.39743748
0.54170406,4.764408,-0.12646483,0.13162684,0.040680278,-4.5202527,-8.322245,0.39743748
0.54160607,4.7641826,-0.12859535,0.14441001,0.03428869,-4.5633483,-8.341399,0.40701428
0.54150814,4.7639575,-0.12859535,0.14441001,0.03428869,-4.5633483,-8.341399,0.40701428
0.54140496,4.7637467,-0.12966062,0.16038899,0.02683184,-4.663905,-8.465898,0.46926352
0.54130185,4.763536,-0.12966062,0.16038899,0.02683184,-4.663905,-8.465898,0.46926352
0.5411917,4.763312,-0.12859535,0.17317216,0.020440254,-4.7261543,-8.422802,0.44532153
0.5410818,4.7630887,-0.12859535,0.17317216,0.020440254,-4.7261543,-8.422802,0.44532153
0.5409743,4.762804,-0.12859535,0.1838248,0.012983402,-4.817134,-8.48984,0.35434186
0.5408665,4.76252,-0.12859535,0.1838248,0.012983402,-4.817134,-8.48984,0.35434186
0.5407444,4.762249,-0.12646483,0.19234692,0.005526551,-4.879383,-8.475474,0.39264908
0.5406219,4.7619796,-0.12646483,0.19234692,0.005526551,-4.879383,-8.475474,0.39264908
0.5404938,4.7616982,-0.12326904,0.1987385,0.0023307577,-4.9081135,-8.537724,0.3878607
0.5403744,4.7614384,-0.12326904,0.1987385,0.0023307577,-4.9081135,-8.537724,0.3878607
0.5403091,4.761098,-0.120073244,0.2019343,-0.0029955646,-5.0182467,-8.508993,0.32561144
0.5402424,4.7607574,-0.120073244,0.2019343,-0.0029955646,-5.0182467,-8.508993,0.32561144
0.5401019,4.760518,-0.11794271,0.20299956,-0.009387151,-5.0421886,-8.494628,0.41180268
0.5399631,4.7602873,-0.11794271,0.20299956,-0.009387151,-5.0421886,-8.494628,0.41180268
0.54005855,4.7599745,-0.11368166,0.20086904,-0.015778739,-5.142745,-8.475474,0.37349546
0.54015636,4.7596664,-0.11368166,0.20086904,-0.015778739,-5.142745,-8.475474,0.37349546
0.54027104,4.759384,-0.11155113,0.19554271,-0.018974531,-5.1810527,-8.461109,0.36870706
0.5403869,4.759106,-0.11155113,0.19554271,-0.018974531,-5.1810527,-8.461109,0.36870706
0.5404981,4.758937,-0.108355336,0.1870206,-0.02323559,-5.2002063,-8.394072,0.4405331
0.54060805,4.7587695,-0.108355336,0.1870206,-0.02323559,-5.2002063,-8.394072,0.4405331
0.5407076,4.7584977,-0.10515954,0.17849848,-0.028561912,-5.2385135,-8.384495,0.31603462
0.5408077,4.758227,-0.10515954,0.17849848,-0.028561912,-5.2385135,-8.384495,0.31603462
0.5409258,4.75803,-0.10196375,0.1689111,-0.029627176,-5.243302,-8.413225,0.39264908
0.5410435,4.7578344,-0.10196375,0.1689111,-0.029627176,-5.243302,-8.413225,0.39264908
0.54115975,4.757644,-0.09983322,0.15612793,-0.03069244,-5.291186,-8.418014,0.3878607
0.5412762,4.7574553,-0.09983322,0.15612793,-0.03069244,-5.291186,-8.418014,0.3878607
0.5413905,4.757291,-0.09663743,0.14121422,-0.03069244,-5.3007627,-8.379706,0.40222588
0.5415026,4.75713,-0.09663743,0.14121422,-0.03069244,-5.3007627,-8.379706,0.40222588
0.54161876,4.7569838,-0.0945069,0.12736578,-0.026431382,-5.33907,-8.360553,0.4165911
0.5417365,4.7568364,-0.0945069,0.12736578,-0.026431382,-5.33907,-8.360553,0.4165911
0.54184306,4.7567353,-0.093441635,0.11245208,-0.017909266,-5.329493,-8.307879,0.48841715
0.5419497,4.756634,-0.093441635,0.11245208,-0.017909266,-5.329493,-8.307879,0.48841715
0.54208165,4.7565165,-0.091311105,0.09753838,-0.0072566224,-5.281609,-8.293514,0.4165911
0.54221284,4.756399,-0.091311105,0.09753838,-0.0072566224,-5.281609,-8.293514,0.4165911
0.5423525,4.7563004,-0.091311105,0.08368994,0.005526551,-5.329493,-8.288726,0.44532153
0.54249156,4.7562027,-0.091311105,0.08368994,0.005526551,-5.329493,-8.288726,0.44532153
0.54265153,4.756085,-0.091311105,0.071972035,0.018309724,-5.2863975,-8.279149,0.3878607
0.54281163,4.7559676,-0.091311105,0.071972035,0.018309724,-5.2863975,-8.279149,0.3878607
0.5429729,4.75589,-0.091311105,0.062384658,0.032158162,-5.281609,-8.331821,0.4357447
0.5431342,4.7558126,-0.091311105,0.062384658,0.032158162,-5.281609,-8.331821,0.4357447
0.54332423,4.7556963,-0.091311105,0.054927804,0.04813713,-5.3342814,-8.384495,0.37349546
0.54351443,4.75558,-0.091311105,0.054927804,0.04813713,-5.3342814,-8.384495,0.37349546
0.5437107,4.755508,-0.091311105,0.050666746,0.06624663,-5.315128,-8.446744,0.4213795
0.54390657,4.7554364,-0.091311105,0.050666746,0.06624663,-5.315128,-8.446744,0.4213795
0.54412353,4.7553587,-0.092376366,0.049601484,0.08435612,-5.386954,-8.418014,0.4309563
0.54434067,4.755281,-0.092376366,0.049601484,0.08435612,-5.386954,-8.418014,0.4309563
0.54458684,4.7551594,-0.091311105,0.04853622,0.104596145,-5.401319,-8.48984,0.35913026
0.5448335,4.7550383,-0.091311105,0.04853622,0.104596145,-5.401319,-8.48984,0.35913026
0.54509425,4.754902,-0.089180574,0.046405688,0.12164038,-5.391742,-8.504205,0.33518824
0.5453547,4.754766,-0.089180574,0.046405688,0.12164038,-5.391742,-8.504205,0.33518824
0.54563785,4.754628,-0.08811531,0.045340426,0.1386846,-5.391742,-8.528147,0.33518824
0.54591,4.754496,-0.08811531,0.045340426,0.1386846,-5.391742,-8.528147,0.33518824
0.5462039,4.754403,-0.08598478,0.046405688,0.15359831,-5.391742,-8.532935,0.37828386
0.54649764,4.7543116,-0.08598478,0.046405688,0.15359831,-5.391742,-8.532935,0.37828386
0.5468078,4.754196,-0.08385425,0.04427516,0.16957727,-5.3821654,-8.6095495,0.35434186
0.54711884,4.7540817,-0.08385425,0.04427516,0.16957727,-5.3821654,-8.6095495,0.35434186
0.54740477,4.7539034,-0.08065846,0.040014103,0.18129519,-5.3582234,-8.580819,0.2873042
0.54769003,4.7537255,-0.08065846,0.040014103,0.18129519,-5.3582234,-8.580819,0.2873042
0.5479733,4.75354,-0.07852793,0.035753045,0.19407836,-5.3486466,-8.604761,0.2825158
0.5482554,4.753354,-0.07852793,0.035753045,0.19407836,-5.3486466,-8.604761,0.2825158
0.5485139,4.7531595,-0.075332135,0.028296193,0.20579627,-5.3199162,-8.623915,0.2777274
0.54877174,4.7529635,-0.075332135,0.028296193,0.20579627,-5.3199162,-8.623915,0.2777274
0.54905134,4.7527823,-0.07213634,0.018708814,0.21538365,-5.3103395,-8.63828,0.320823
0.5493254,4.7525997,-0.07213634,0.018708814,0.21538365,-5.3103395,-8.63828,0.320823
0.5496719,4.752472,-0.07000581,0.010186698,0.22497103,-5.3103395,-8.576031,0.32561144
0.5500182,4.7523427,-0.07000581,0.010186698,0.22497103,-5.3103395,-8.576031,0.32561144
0.5503158,4.752181,-0.06681002,-0.0015312112,0.23242788,-5.3199162,-8.552089,0.25857377
0.55061126,4.752019,-0.06681002,-0.0015312112,0.23242788,-5.3199162,-8.552089,0.25857377
0.55092484,4.751869,-0.06361423,-0.01324912,0.24308053,-5.315128,-8.485051,0.22984336
0.5512385,4.7517185,-0.06361423,-0.01324912,0.24308053,-5.315128,-8.485051,0.22984336
0.55146044,4.751564,-0.0614837,-0.023901764,0.25479844,-5.243302,-8.590396,0.23463176
0.55167955,4.7514095,-0.0614837,-0.023901764,0.25479844,-5.243302,-8.590396,0.23463176
0.55184907,4.7512894,-0.05935317,-0.033489145,0.26438582,-5.243302,-8.556877,0.31603462
0.55201185,4.7511744,-0.05935317,-0.033489145,0.26438582,-5.243302,-8.556877,0.31603462
0.5522507,4.7510366,-0.056157377,-0.040945996,0.2739732,-5.1906295,-8.470686,0.25857377
0.5524854,4.7508993,-0.056157377,-0.040945996,0.2739732,-5.1906295,-8.470686,0.25857377
0.5527407,4.750767,-0.052961584,-0.047337584,0.28356057,-5.161899,-8.437167,0.19632454
0.5529938,4.7506356,-0.052961584,-0.047337584,0.28356057,-5.161899,-8.437167,0.19632454
0.55317163,4.7505484,-0.05189632,-0.052663904,0.2888869,-5.133168,-8.499416,0.2681506
0.55334765,4.7504625,-0.05189632,-0.052663904,0.2888869,-5.133168,-8.499416,0.2681506
0.5535604,4.7503533,-0.052961584,-0.057990227,0.2910174,-5.161899,-8.461109,0.25857377
0.5537714,4.7502446,-0.052961584,-0.057990227,0.2910174,-5.161899,-8.461109,0.25857377
0.5539876,4.7501373,-0.052961584,-0.064381815,0.2910174,-5.1523223,-8.475474,0.22984336
0.5542019,4.750031,-0.052961584,-0.064381815,0.2910174,-5.1523223,-8.475474,0.22984336
0.5543901,4.749945,-0.052961584,-0.0707734,0.2910174,-5.104438,-8.456321,0.23942018
0.55457705,4.749861,-0.052961584,-0.0707734,0.2910174,-5.104438,-8.456321,0.23942018
0.5547318,4.7498155,-0.05402685,-0.077164985,0.28782162,-5.070919,-8.465898,0.272939
0.5548862,4.7497716,-0.05402685,-0.077164985,0.28782162,-5.070919,-8.465898,0.272939
0.5550528,4.749709,-0.052961584,-0.0856871,0.28462583,-5.0278234,-8.528147,0.20590134
0.55523837,4.7496405,-0.052961584,-0.0856871,0.28462583,-5.0278234,-8.528147,0.20590134
0.555361,4.749628,-0.05189632,-0.09207869,0.27929953,-4.9895163,-8.51857,0.2777274
0.5554991,4.7496147,-0.05189632,-0.09207869,0.27929953,-4.9895163,-8.51857,0.2777274
0.55562705,4.7496014,-0.05402685,-0.09953554,0.26864687,-4.9320555,-8.576031,0.2633622
0.55575454,4.7495885,-0.05402685,-0.09953554,0.26864687,-4.9320555,-8.576031,0.2633622
0.55586904,4.7496133,-0.05402685,-0.106992394,0.25799423,-4.831499,-8.566454,0.33518824
0.55598336,4.749638,-0.05402685,-0.106992394,0.25799423,-4.831499,-8.566454,0.33518824
0.5560883,4.7496767,-0.052961584,-0.11231872,0.24734159,-4.841076,-8.604761,0.36391866
0.5561934,4.749715,-0.052961584,-0.11231872,0.24734159,-4.841076,-8.604761,0.36391866
0.5562825,4.7497454,-0.052961584,-0.11764504,0.23349315,-4.807557,-8.6095495,0.33518824
0.5563718,4.749776,-0.052961584,-0.11764504,0.23349315,-4.807557,-8.6095495,0.33518824
0.5563718,4.749776,-0.052961584,-0.11764504,0.23349315,-4.807557,-8.6095495,0.33518824
0.5563718,4.749776,-0.052961584,-0.11764504,0.23349315,-4.807557,-8.6095495,0.33518824
0.5563718,4.749776,-0.052961584,-0.11764504,0.23349315,-4.807557,-8.6095495,0.33518824
0.55673563,4.7500234,-0.046569996,-0.13042821,0.18981731,-4.7884035,-8.695741,0.32561144
0.55677253,4.750055,-0.046569996,-0.13042821,0.18981731,-4.7884035,-8.695741,0.32561144
0.5568,4.750078,-0.046569996,-0.13042821,0.18981731,-4.7884035,-8.695741,0.32561144
0.5568283,4.750112,-0.04443947,-0.133624,0.1749036,-4.6926355,-8.6813755,0.30166942
0.5568581,4.750148,-0.04443947,-0.133624,0.1749036,-4.6926355,-8.6813755,0.30166942
0.5568581,4.750148,-0.04443947,-0.133624,0.1749036,-4.6926355,-8.6813755,0.30166942
0.5568914,4.750244,-0.042308938,-0.1368198,0.1599899,-4.620809,-8.662222,0.31124622
0.55688965,4.7502813,-0.041243672,-0.13788506,0.14294566,-4.5872903,-8.66701,0.320823
0.5568874,4.750326,-0.041243672,-0.13788506,0.14294566,-4.5872903,-8.66701,0.320823
0.5568673,4.75037,-0.041243672,-0.13788506,0.12483617,-4.55856,-8.623915,0.31603462
0.5568467,4.7504153,-0.041243672,-0.13788506,0.12483617,-4.55856,-8.623915,0.31603462
0.5568121,4.7504683,-0.039113145,-0.13788506,0.1088572,-4.510676,-8.580819,0.34955344
0.55677664,4.750522,-0.039113145,-0.13788506,0.1088572,-4.510676,-8.580819,0.34955344
0.5567221,4.750568,-0.03698262,-0.13468927,0.09074771,-4.4723687,-8.571242,0.31124622
0.5566693,4.750612,-0.03698262,-0.13468927,0.09074771,-4.4723687,-8.571242,0.31124622
0.5565957,4.750657,-0.034852087,-0.13042821,0.07263821,-4.510676,-8.537724,0.31124622
0.5565227,4.750702,-0.034852087,-0.13042821,0.07263821,-4.510676,-8.537724,0.31124622
0.5564366,4.7507625,-0.033786822,-0.1251019,0.056659244,-4.486734,-8.528147,0.39264908
0.556352,4.750822,-0.033786822,-0.1251019,0.056659244,-4.486734,-8.528147,0.39264908
0.55624837,4.7508726,-0.035917353,-0.11657977,0.040680278,-4.4723687,-8.456321,0.37828386
0.556147,4.7509227,-0.035917353,-0.11657977,0.040680278,-4.4723687,-8.456321,0.37828386
0.5560293,4.750951,-0.03698262,-0.108057655,0.025766576,-4.5298295,-8.461109,0.31603462
0.5559112,4.7509785,-0.03698262,-0.108057655,0.025766576,-4.5298295,-8.461109,0.31603462
0.55578184,4.750991,-0.03804788,-0.09740501,0.014048667,-4.5441947,-8.39886,0.2873042
0.5556523,4.7510033,-0.03804788,-0.09740501,0.014048667,-4.5441947,-8.39886,0.2873042
0.5555155,4.7510014,-0.039113145,-0.08675237,0.005526551,-4.6112323,-8.374918,0.272939
0.55537844,4.7509995,-0.039113145,-0.08675237,0.005526551,-4.6112323,-8.374918,0.272939
0.5552401,4.75104,-0.04017841,-0.07503446,-0.0029955646,-4.654328,-8.350976,0.4213795
0.55510175,4.75108,-0.04017841,-0.07503446,-0.0029955646,-4.654328,-8.350976,0.4213795
0.554951,4.7511015,-0.04017841,-0.06544708,-0.01151768,-4.6591167,-8.39886,0.3878607
0.5548003,4.751123,-0.04017841,-0.06544708,-0.01151768,-4.6591167,-8.39886,0.3878607
0.5546465,4.7511353,-0.041243672,-0.054794434,-0.014713474,-4.673482,-8.360553,0.37828386
0.5544927,4.7511477,-0.041243672,-0.054794434,-0.014713474,-4.673482,-8.360553,0.37828386
0.55433476,4.751141,-0.043374203,-0.04627232,-0.016844003,-4.6782703,-8.341399,0.34476504
0.55417424,4.7511344,-0.043374203,-0.04627232,-0.016844003,-4.6782703,-8.341399,0.34476504
0.554017,4.75112,-0.043374203,-0.035619672,-0.018974531,-4.687847,-8.317456,0.33997664
0.55385745,4.751106,-0.043374203,-0.035619672,-0.018974531,-4.687847,-8.317456,0.33997664
0.5536949,4.7510586,-0.043374203,-0.021771235,-0.02110506,-4.7405195,-8.288726,0.2873042
0.55353534,4.751012,-0.043374203,-0.021771235,-0.02110506,-4.7405195,-8.288726,0.2873042
0.5533784,4.7509356,-0.045504734,-0.0068575335,-0.022170324,-4.759673,-8.274361,0.25378537
0.5532213,4.7508593,-0.045504734,-0.0068575335,-0.022170324,-4.759673,-8.274361,0.25378537
0.553067,4.75076,-0.046569996,0.0069909045,-0.025366118,-4.7644615,-8.283937,0.22505496
0.5529126,4.750662,-0.046569996,0.0069909045,-0.025366118,-4.7644615,-8.283937,0.22505496
0.55274975,4.7505608,-0.048700526,0.019774077,-0.03069244,-4.7309427,-8.283937,0.23463176
0.5525869,4.7504597,-0.048700526,0.019774077,-0.03069244,-4.7309427,-8.283937,0.23463176
0.55241954,4.750343,-0.05189632,0.031491987,-0.03814929,-4.7884035,-8.250419,0.23942018
0.55225205,4.7502265,-0.05189632,0.031491987,-0.03814929,-4.7884035,-8.250419,0.23942018
0.55207366,4.750168,-0.05509211,0.040014103,-0.043475613,-4.7979803,-8.322245,0.35434186
0.55189484,4.7501097,-0.05509211,0.040014103,-0.043475613,-4.7979803,-8.322245,0.35434186
0.5517103,4.749995,-0.057222642,0.04427516,-0.0498672,-4.8602295,-8.336611,0.272939
0.5515257,4.7498817,-0.057222642,0.04427516,-0.0498672,-4.8602295,-8.336611,0.272939
0.55133474,4.749759,-0.058287904,0.045340426,-0.058389317,-4.912902,-8.312668,0.272939
0.5511416,4.7496357,-0.058287904,0.045340426,-0.058389317,-4.912902,-8.312668,0.272939
0.5509504,4.7494993,-0.05935317,0.043209895,-0.06691143,-4.8841715,-8.322245,0.24420857
0.5507573,4.749363,-0.05935317,0.043209895,-0.06691143,-4.8841715,-8.322245,0.24420857
0.5505445,4.7492723,-0.05935317,0.040014103,-0.07436828,-4.8745947,-8.312668,0.30166942
0.5503317,4.7491827,-0.05935317,0.040014103,-0.07436828,-4.8745947,-8.312668,0.30166942
0.55012876,4.7490454,-0.060418434,0.035753045,-0.078629345,-4.865018,-8.269572,0.23942018
0.54992616,4.7489085,-0.060418434,0.035753045,-0.078629345,-4.865018,-8.269572,0.23942018
0.5497139,4.748781,-0.060418434,0.031491987,-0.0828904,-4.807557,-8.274361,0.23463176
0.549502,4.748655,-0.060418434,0.031491987,-0.0828904,-4.807557,-8.274361,0.23463176
0.54928386,4.748542,-0.0614837,0.028296193,-0.08395566,-4.793192,-8.264784,0.25378537
0.54906535,4.7484303,-0.0614837,0.028296193,-0.08395566,-4.793192,-8.264784,0.25378537
0.54885817,4.7482915,-0.06361423,0.029361458,-0.08395566,-4.735731,-8.24563,0.19632454
0.54865074,4.7481527,-0.06361423,0.029361458,-0.08395566,-4.735731,-8.24563,0.19632454
0.5484473,4.748,-0.06681002,0.031491987,-0.08608619,-4.7740383,-8.212111,0.19632454
