Pitch,Roll,Gyro_X,Gyro_Y,Gyro_Z,Accel_X,Accel_Y,Accel_Z
0.021115078,4.509742,-0.006089947,0.061319392,0.05346345,-0.22505496,-9.44752,-1.8914193
0.021296663,4.509735,-0.0039594183,0.057058334,0.05026766,-0.22984336,-9.414001,-1.934515
0.02147051,4.509729,-0.0039594183,0.057058334,0.05026766,-0.22984336,-9.414001,-1.934515
0.021567201,4.509813,-0.0050246827,0.053862542,0.05026766,-0.22026655,-9.466674,-1.9249382
0.021662636,4.509898,-0.0050246827,0.053862542,0.05026766,-0.22026655,-9.466674,-1.9249382
0.02171203,4.509992,-0.0039594183,0.050666746,0.04813713,-0.21547815,-9.404425,-1.8674773
0.021760892,4.5100865,-0.0039594183,0.050666746,0.04813713,-0.21547815,-9.404425,-1.8674773
0.021870386,4.5101647,-0.0039594183,0.04853622,0.04387607,-0.23942018,-9.390059,-1.8914193
0.021979166,4.5102434,-0.0039594183,0.04853622,0.04387607,-0.23942018,-9.390059,-1.8914193
0.021955615,4.5103307,-0.0050246827,0.047470953,0.03641922,-0.18674773,-9.437943,-1.8866309
0.021931654,4.510418,-0.0050246827,0.047470953,0.03641922,-0.18674773,-9.437943,-1.8866309
0.021935247,4.510511,-0.0050246827,0.045340426,0.031092897,-0.20111294,-9.390059,-1.8722657
0.021938372,4.510604,-0.0050246827,0.045340426,0.031092897,-0.20111294,-9.390059,-1.8722657
0.021946056,4.510696,-0.006089947,0.04427516,0.025766576,-0.19632454,-9.461885,-1.7621324
0.021953736,4.510788,-0.006089947,0.04427516,0.025766576,-0.19632454,-9.461885,-1.7621324
0.021935964,4.5108786,-0.006089947,0.04427516,0.021505518,-0.17238252,-9.433155,-1.8004397
0.021918137,4.5109687,-0.006089947,0.04427516,0.021505518,-0.17238252,-9.433155,-1.8004397
0.021895971,4.511059,-0.006089947,0.04427516,0.01724446,-0.17717093,-9.457097,-1.8195933
0.021873718,4.5111494,-0.006089947,0.04427516,0.01724446,-0.17717093,-9.457097,-1.8195933
0.02178566,4.511219,-0.0071552116,0.043209895,0.008722344,-0.16759412,-9.437943,-1.8866309
0.02169769,4.5112886,-0.0071552116,0.043209895,0.008722344,-0.16759412,-9.437943,-1.8866309
0.021580257,4.51134,-0.008220476,0.04427516,0.0023307577,-0.16280572,-9.428367,-1.8962077
0.021463152,4.5113926,-0.008220476,0.04427516,0.0023307577,-0.16280572,-9.428367,-1.8962077
0.021410082,4.511478,-0.009285741,0.04427516,-0.0029955646,-0.18195933,-9.423578,-1.8626889
0.021357452,4.5115633,-0.009285741,0.04427516,-0.0029955646,-0.18195933,-9.423578,-1.8626889
0.021263545,4.5116367,-0.009285741,0.04427516,-0.009387151,-0.14844051,-9.390059,-1.8483237
0.021169815,4.511711,-0.009285741,0.04427516,-0.009387151,-0.14844051,-9.390059,-1.8483237
0.021011934,4.5117292,-0.008220476,0.04427516,-0.014713474,-0.18674773,-9.385271,-1.9057846
0.020854447,4.511749,-0.008220476,0.04427516,-0.014713474,-0.18674773,-9.385271,-1.9057846
0.020745113,4.5118227,-0.0071552116,0.04427516,-0.020039797,-0.16759412,-9.41879,-1.8818425
0.02063639,4.511896,-0.0071552116,0.04427516,-0.020039797,-0.16759412,-9.41879,-1.8818425
0.02051817,4.511966,-0.006089947,0.046405688,-0.020039797,-0.16759412,-9.390059,-1.8818425
0.020400627,4.512037,-0.006089947,0.046405688,-0.020039797,-0.16759412,-9.390059,-1.8818425
0.020247148,4.51208,-0.0028941538,0.046405688,-0.02110506,-0.15801731,-9.385271,-1.8914193
0.020093989,4.512124,-0.0028941538,0.046405688,-0.02110506,-0.15801731,-9.385271,-1.8914193
0.019993465,4.51221,-0.0007636249,0.046405688,-0.024300855,-0.15322891,-9.356541,-1.8483237
0.019893678,4.512296,-0.0007636249,0.046405688,-0.024300855,-0.15322891,-9.356541,-1.8483237
0.019719841,4.5122914,0.003497433,0.045340426,-0.025366118,-0.16280572,-9.3661175,-1.9009962
0.01954637,4.5122867,0.003497433,0.045340426,-0.025366118,-0.16280572,-9.3661175,-1.9009962
0.019400923,4.512232,0.0077584907,0.046405688,-0.026431382,-0.17238252,-9.356541,-1.9057846
0.019256964,4.5121765,0.0077584907,0.046405688,-0.026431382,-0.17238252,-9.356541,-1.9057846
0.019091116,4.5121527,0.012019549,0.045340426,-0.026431382,-0.16759412,-9.323022,-1.8962077
0.018926024,4.512127,0.012019549,0.045340426,-0.026431382,-0.16759412,-9.323022,-1.8962077
0.018846264,4.5120482,0.016280606,0.04427516,-0.024300855,-0.14844051,-9.32781,-1.958457
0.018766696,4.5119696,0.016280606,0.04427516,-0.024300855,-0.14844051,-9.32781,-1.958457
0.018599711,4.5120106,0.018411135,0.04214463,-0.02323559,-0.10534488,-9.279925,-1.8722657
0.018432677,4.512052,0.018411135,0.04214463,-0.02323559,-0.10534488,-9.279925,-1.8722657
0.01827439,4.5121064,0.019476399,0.04107937,-0.020039797,-0.14844051,-9.303867,-1.8818425
0.018115675,4.512161,0.019476399,0.04107937,-0.020039797,-0.14844051,-9.303867,-1.8818425
0.017957065,4.512151,0.019476399,0.040014103,-0.016844003,-0.10055647,-9.313444,-1.9057846
0.017798614,4.5121403,0.019476399,0.040014103,-0.016844003,-0.10055647,-9.313444,-1.9057846
0.017643757,4.5121317,0.019476399,0.040014103,-0.012582945,-0.08619126,-9.303867,-1.9057846
0.017488971,4.512122,0.019476399,0.040014103,-0.012582945,-0.08619126,-9.303867,-1.9057846
0.017356565,4.5120854,0.019476399,0.040014103,-0.0072566224,-0.076614454,-9.337387,-1.9393034
0.017225979,4.5120487,0.019476399,0.040014103,-0.0072566224,-0.076614454,-9.337387,-1.9393034
0.017075347,4.512072,0.018411135,0.040014103,-0.0029955646,-0.05746084,-9.289502,-1.8818425
0.016924316,4.5120955,0.018411135,0.040014103,-0.0029955646,-0.05746084,-9.289502,-1.8818425
0.016790183,4.51207,0.016280606,0.040014103,0.0033960221,-0.076614454,-9.323022,-1.9201498
0.016655648,4.512045,0.016280606,0.040014103,0.0033960221,-0.076614454,-9.323022,-1.9201498
0.016540509,4.512004,0.012019549,0.040014103,0.008722344,-0.08619126,-9.294291,-1.9201498
0.016423019,4.511962,0.012019549,0.040014103,0.008722344,-0.08619126,-9.294291,-1.9201498
0.016306905,4.511923,0.008823755,0.038948838,0.015113931,-0.08619126,-9.361329,-1.9297266
0.016190678,4.5118833,0.008823755,0.038948838,0.015113931,-0.08619126,-9.361329,-1.9297266
0.016158292,4.511792,0.0045626974,0.038948838,0.020440254,-0.11971009,-9.375694,-1.982399
0.016125724,4.511701,0.0045626974,0.038948838,0.020440254,-0.11971009,-9.375694,-1.982399
0.016016224,4.5116596,0.001366904,0.038948838,0.025766576,-0.12449849,-9.3661175,-1.9153614
0.015906688,4.5116186,0.001366904,0.038948838,0.025766576,-0.12449849,-9.3661175,-1.9153614
0.015878662,4.5115204,-0.0039594183,0.037883572,0.030027634,-0.1388637,-9.399636,-1.9393034
0.015849803,4.511422,-0.0039594183,0.037883572,0.030027634,-0.1388637,-9.399636,-1.9393034
0.015799265,4.5113297,-0.009285741,0.03468778,0.035353955,-0.095768064,-9.428367,-1.982399
0.015748363,4.5112367,-0.009285741,0.03468778,0.035353955,-0.095768064,-9.428367,-1.982399
0.015702257,4.5113053,-0.013546798,0.03468778,0.039615013,-0.10055647,-9.428367,-1.8674773
0.015655976,4.5113735,-0.013546798,0.03468778,0.039615013,-0.10055647,-9.428367,-1.8674773
0.0156248035,4.511444,-0.01674259,0.032557253,0.042810805,-0.10534488,-9.466674,-1.8674773
0.015593334,4.5115147,-0.01674259,0.032557253,0.042810805,-0.10534488,-9.466674,-1.8674773
0.0156156365,4.511594,-0.018873122,0.03468778,0.04813713,-0.1340753,-9.452309,-1.8339585
0.015637588,4.511673,-0.018873122,0.03468778,0.04813713,-0.1340753,-9.452309,-1.8339585
0.015682444,4.51175,-0.022068914,0.035753045,0.05133292,-0.15322891,-9.481039,-1.7908629
0.015727008,4.5118265,-0.022068914,0.035753045,0.05133292,-0.15322891,-9.481039,-1.7908629
0.015749011,4.511903,-0.022068914,0.03681831,0.052398186,-0.1340753,-9.461885,-1.8435353
0.015770597,4.511978,-0.022068914,0.03681831,0.052398186,-0.1340753,-9.461885,-1.8435353
0.015812406,4.512055,-0.022068914,0.037883572,0.05346345,-0.14844051,-9.514558,-1.7908629
0.015853921,4.5121317,-0.022068914,0.037883572,0.05346345,-0.14844051,-9.514558,-1.7908629
0.015797181,4.512175,-0.02313418,0.038948838,0.055593982,-0.11971009,-9.500193,-1.9057846
0.015740355,4.5122185,-0.02313418,0.038948838,0.055593982,-0.11971009,-9.500193,-1.9057846
0.01578552,4.512294,-0.024199443,0.04107937,0.054528717,-0.15322891,-9.552865,-1.8914193
0.015829684,4.512368,-0.024199443,0.04107937,0.054528717,-0.15322891,-9.552865,-1.8914193
0.015872872,4.5124435,-0.024199443,0.04107937,0.054528717,-0.15322891,-9.552865,-1.8914193
0.01591739,4.5125184,-0.024199443,0.04107937,0.054528717,-0.15322891,-9.485827,-1.8866309
0.015960583,4.5125933,-0.024199443,0.04107937,0.054528717,-0.15322891,-9.485827,-1.8866309
0.015937768,4.512657,-0.024199443,0.04214463,0.05133292,-0.1436521,-9.485827,-1.9057846
0.015913898,4.51272,-0.024199443,0.04214463,0.05133292,-0.1436521,-9.485827,-1.9057846
0.01588962,4.512783,-0.025264706,0.04214463,0.049202394,-0.11971009,-9.490616,-1.8722657
0.01586499,4.5128455,-0.025264706,0.04214463,0.049202394,-0.11971009,-9.490616,-1.8722657
0.01576826,4.512788,-0.025264706,0.04107937,0.044941336,-0.10055647,-9.524135,-1.9393034
0.015671154,4.5127306,-0.025264706,0.04107937,0.044941336,-0.10055647,-9.524135,-1.9393034
0.015649626,4.512798,-0.024199443,0.04107937,0.039615013,-0.12928689,-9.528923,-1.8866309
0.015627775,4.512866,-0.024199443,0.04107937,0.039615013,-0.12928689,-9.528923,-1.8866309
0.015532513,4.512892,-0.024199443,0.043209895,0.03428869,-0.10055647,-9.485827,-1.8962077
0.015437447,4.5129185,-0.024199443,0.043209895,0.03428869,-0.10055647,-9.485827,-1.8962077
0.015385583,4.512981,-0.02313418,0.04427516,0.02683184,-0.095768064,-9.504981,-1.8531121
0.015333694,4.513044,-0.02313418,0.04427516,0.02683184,-0.095768064,-9.504981,-1.8531121
0.015232972,4.5129604,-0.022068914,0.046405688,0.020440254,-0.110133275,-9.471462,-1.934515
0.015131614,4.512878,-0.022068914,0.046405688,0.020440254,-0.110133275,-9.471462,-1.934515
0.015103335,4.5129547,-0.018873122,0.04853622,0.015113931,-0.090979666,-9.495404,-1.757344
0.01507511,4.5130315,-0.018873122,0.04853622,0.015113931,-0.090979666,-9.495404,-1.757344
0.014992294,4.5130987,-0.013546798,0.050666746,0.008722344,-0.076614454,-9.471462,-1.8435353
0.014909594,4.5131655,-0.013546798,0.050666746,0.008722344,-0.076614454,-9.471462,-1.8435353
0.014866914,4.513254,-0.0071552116,0.052797277,0.0044612866,-0.110133275,-9.457097,-1.8195933
0.014824407,4.513342,-0.0071552116,0.052797277,0.0044612866,-0.110133275,-9.457097,-1.8195933
0.014777148,4.513438,0.00030163955,0.053862542,-0.0008650357,-0.08619126,-9.457097,-1.7525556
0.014730095,4.5135336,0.00030163955,0.053862542,-0.0008650357,-0.08619126,-9.457097,-1.7525556
0.014722601,4.5136423,0.00988902,0.054927804,-0.0051260935,-0.15801731,-9.500193,-1.7238252
0.014715222,4.5137506,0.00988902,0.054927804,-0.0051260935,-0.15801731,-9.500193,-1.7238252
0.014676222,4.5138655,0.017345872,0.054927804,-0.009387151,-0.110133275,-9.500193,-1.7429788
0.014637371,4.513981,0.017345872,0.054927804,-0.009387151,-0.110133275,-9.500193,-1.7429788
0.014558286,4.5140967,0.024802722,0.053862542,-0.014713474,-0.076614454,-9.490616,-1.7956513
0.01447941,4.5142126,0.024802722,0.053862542,-0.014713474,-0.076614454,-9.490616,-1.7956513
0.014415298,4.5143414,0.033324838,0.05173201,-0.016844003,-0.08140286,-9.457097,-1.7477672
0.0143513065,4.5144696,0.033324838,0.05173201,-0.016844003,-0.08140286,-9.457097,-1.7477672
0.014293278,4.5146074,0.040781688,0.04853622,-0.02110506,-0.095768064,-9.471462,-1.7477672
0.014235333,4.514745,0.040781688,0.04853622,-0.02110506,-0.095768064,-9.471462,-1.7477672
0.014108943,4.514868,0.04823854,0.04427516,-0.025366118,-0.06703765,-9.495404,-1.8435353
0.013982532,4.51499,0.04823854,0.04427516,-0.025366118,-0.06703765,-9.495404,-1.8435353
0.013847422,4.5151114,0.05356486,0.040014103,-0.025366118,-0.05746084,-9.481039,-1.8435353
0.013715019,4.515229,0.05356486,0.040014103,-0.025366118,-0.05746084,-9.481039,-1.8435353
0.013622639,4.5153756,0.056760654,0.03681831,-0.024300855,-0.08619126,-9.504981,-1.8291701
0.013528304,4.5155244,0.056760654,0.03681831,-0.024300855,-0.08619126,-9.504981,-1.8291701
0.013518981,4.5156846,0.061021715,0.032557253,-0.02323559,-0.1340753,-9.509769,-1.8818425
0.013512591,4.515844,0.061021715,0.032557253,-0.02323559,-0.1340753,-9.509769,-1.8818425
0.013424614,4.515816,0.062086977,0.029361458,-0.020039797,-0.10055647,-9.471462,-1.9297266
0.013299556,4.516016,0.06315224,0.0251004,-0.016844003,-0.090979666,-9.495404,-1.8435353
0.013299556,4.516016,0.06315224,0.0251004,-0.016844003,-0.090979666,-9.495404,-1.8435353
0.013138339,4.5162706,0.06315224,0.0251004,-0.016844003,-0.090979666,-9.495404,-1.8435353
0.013040663,4.516249,0.06421751,0.021904606,-0.01151768,-0.08140286,-9.500193,-1.9393034
0.012959522,4.516231,0.06421751,0.021904606,-0.01151768,-0.08140286,-9.500193,-1.9393034
0.012959522,4.516231,0.06421751,0.021904606,-0.01151768,-0.08140286,-9.500193,-1.9393034
0.012959522,4.516231,0.06421751,0.021904606,-0.01151768,-0.08140286,-9.500193,-1.9393034
0.012959522,4.516231,0.06421751,0.021904606,-0.01151768,-0.08140286,-9.500193,-1.9393034
0.012685389,4.516115,0.06315224,0.021904606,-0.0051260935,-0.07182605,-9.471462,-1.9680338
0.012672076,4.5160766,0.061021715,0.019774077,0.005526551,-0.10534488,-9.466674,-2.0015526
0.01266019,4.516041,0.061021715,0.019774077,0.005526551,-0.10534488,-9.466674,-2.0015526
0.012618986,4.5160055,0.058891185,0.019774077,0.009787609,-0.076614454,-9.490616,-1.982399
0.012578072,4.5159698,0.058891185,0.019774077,0.009787609,-0.076614454,-9.490616,-1.982399
0.0125884125,4.5159245,0.055695392,0.021904606,0.016179197,-0.11971009,-9.485827,-2.087744
0.012598724,4.5158796,0.055695392,0.021904606,0.016179197,-0.11971009,-9.485827,-2.087744
0.012618669,4.51583,0.051434334,0.022969872,0.020440254,-0.12928689,-9.509769,-2.0494366
0.0126385605,4.5157804,0.051434334,0.022969872,0.020440254,-0.12928689,-9.509769,-2.0494366
0.0126580605,4.515728,0.04823854,0.024035135,0.023636047,-0.12449849,-9.500193,-2.0685902
0.012677313,4.5156755,0.04823854,0.024035135,0.023636047,-0.12449849,-9.500193,-2.0685902
0.012690906,4.5156207,0.04610801,0.026165664,0.02683184,-0.110133275,-9.485827,-2.0638018
0.012704379,4.5155663,0.04610801,0.026165664,0.02683184,-0.110133275,-9.485827,-2.0638018
0.012697763,4.5155125,0.045042746,0.02723093,0.02896237,-0.07182605,-9.500193,-2.0685902
0.012691171,4.515459,0.045042746,0.02723093,0.02896237,-0.07182605,-9.500193,-2.0685902
0.012709468,4.515403,0.045042746,0.029361458,0.031092897,-0.110133275,-9.466674,-2.0925324
0.012727647,4.5153475,0.045042746,0.029361458,0.031092897,-0.110133275,-9.466674,-2.0925324
0.012716371,4.5152917,0.04291222,0.031491987,0.02896237,-0.047884032,-9.433155,-2.1068976
0.012716371,4.5152917,0.04291222,0.031491987,0.02896237,-0.047884032,-9.433155,-2.1068976
0.012694594,4.515181,0.045042746,0.03468778,0.025766576,-0.062249243,-9.423578,-2.0973208
0.012684929,4.515128,0.045042746,0.03468778,0.025766576,-0.062249243,-9.423578,-2.0973208
0.012698518,4.5150723,0.045042746,0.037883572,0.020440254,-0.12449849,-9.423578,-2.0925324
0.012712046,4.5150166,0.045042746,0.037883572,0.020440254,-0.12449849,-9.423578,-2.0925324
0.012704512,4.5149617,0.04610801,0.04107937,0.015113931,-0.095768064,-9.380483,-2.0638018
0.012696995,4.5149074,0.04610801,0.04107937,0.015113931,-0.095768064,-9.380483,-2.0638018
0.012665833,4.5148563,0.047173277,0.04214463,0.009787609,-0.07182605,-9.3182335,-2.0159178
0.012634946,4.5148053,0.047173277,0.04214463,0.009787609,-0.07182605,-9.3182335,-2.0159178
0.012608134,4.514755,0.049303804,0.043209895,0.005526551,-0.08619126,-9.332599,-2.0159178
0.012581604,4.5147047,0.049303804,0.043209895,0.005526551,-0.08619126,-9.332599,-2.0159178
0.0125775635,4.514657,0.0524996,0.043209895,-0.0008650357,-0.12449849,-9.289502,-1.958457
0.0125736175,4.514609,0.0524996,0.043209895,-0.0008650357,-0.12449849,-9.289502,-1.958457
0.012519314,4.5145664,0.054630127,0.043209895,-0.0072566224,-0.08619126,-9.260772,-1.9393034
0.012465629,4.5145245,0.054630127,0.043209895,-0.0072566224,-0.08619126,-9.260772,-1.9393034
0.012430906,4.5144815,0.05782592,0.045340426,-0.014713474,-0.110133275,-9.255983,-1.9249382
0.012396566,4.514439,0.05782592,0.045340426,-0.014713474,-0.110133275,-9.255983,-1.9249382
0.012357253,4.514401,0.062086977,0.046405688,-0.022170324,-0.11492168,-9.212888,-1.8674773
0.012319795,4.5143623,0.062086977,0.046405688,-0.022170324,-0.11492168,-9.212888,-1.8674773
0.012314958,4.514331,0.06634804,0.047470953,-0.027496647,-0.11971009,-9.193734,-1.8579005
0.0123111475,4.5142994,0.06634804,0.047470953,-0.027496647,-0.11971009,-9.193734,-1.8579005
0.012229439,4.5142736,0.07060909,0.047470953,-0.03282297,-0.095768064,-9.184157,-1.8914193
0.012149063,4.5142474,0.07060909,0.047470953,-0.03282297,-0.095768064,-9.184157,-1.8914193
0.012094002,4.5144234,0.075935416,0.049601484,-0.037084028,-0.110133275,-9.23683,-1.8052281
0.012040264,4.514598,0.075935416,0.049601484,-0.037084028,-0.110133275,-9.23683,-1.8052281
0.012121715,4.5147123,0.082327,0.052797277,-0.041345086,-0.12449849,-9.212888,-1.8435353
0.012207252,4.514816,0.082327,0.052797277,-0.041345086,-0.12449849,-9.212888,-1.8435353
0.012293349,4.514917,0.08871859,0.052797277,-0.043475613,-0.1340753,-9.289502,-1.8579005
0.0123798605,4.5150104,0.08871859,0.052797277,-0.043475613,-0.1340753,-9.289502,-1.8579005
0.012419182,4.5150256,0.09297965,0.052797277,-0.04027982,-0.1388637,-9.26556,-1.8722657
0.012457161,4.51504,0.09297965,0.052797277,-0.04027982,-0.1388637,-9.26556,-1.8722657
0.012395806,4.515037,0.0972407,0.054927804,-0.037084028,-0.110133275,-9.356541,-1.934515
0.012335426,4.515034,0.0972407,0.054927804,-0.037084028,-0.110133275,-9.356541,-1.934515
0.0122537855,4.5150385,0.10150176,0.053862542,-0.033888236,-0.110133275,-9.380483,-1.8962077
0.012175676,4.515043,0.10150176,0.053862542,-0.033888236,-0.110133275,-9.380483,-1.8962077
0.012054058,4.5150657,0.104697555,0.053862542,-0.03069244,-0.095768064,-9.399636,-1.9009962
0.011935554,4.515086,0.104697555,0.053862542,-0.03069244,-0.095768064,-9.399636,-1.9009962
0.011900558,4.5150914,0.105762824,0.053862542,-0.025366118,-0.11492168,-9.428367,-1.910573
0.011866858,4.5150967,0.105762824,0.053862542,-0.025366118,-0.11492168,-9.428367,-1.910573
0.011754756,4.5151205,0.104697555,0.053862542,-0.017909266,-0.076614454,-9.423578,-1.9201498
0.011644508,4.5151434,0.104697555,0.053862542,-0.017909266,-0.076614454,-9.423578,-1.9201498
0.011549649,4.515163,0.10363229,0.053862542,-0.008321887,-0.090979666,-9.485827,-1.9201498
0.011457647,4.5151806,0.10363229,0.053862542,-0.008321887,-0.090979666,-9.485827,-1.9201498
0.011311425,4.515256,0.10150176,0.05599307,0.00020022877,-0.095768064,-9.452309,-1.8914193
0.011169223,4.5153227,0.10150176,0.05599307,0.00020022877,-0.095768064,-9.452309,-1.8914193
0.011140296,4.5153227,0.09830597,0.057058334,0.010852873,-0.08619126,-9.471462,-1.9680338
0.011111723,4.5153217,0.09830597,0.057058334,0.010852873,-0.08619126,-9.471462,-1.9680338
0.011128996,4.515315,0.09404491,0.05918886,0.019374989,-0.110133275,-9.481039,-1.9201498
0.0111456495,4.515309,0.09404491,0.05918886,0.019374989,-0.110133275,-9.481039,-1.9201498
0.011123804,4.5153003,0.08871859,0.06344992,0.027897105,-0.095768064,-9.562442,-1.9440918
0.011102377,4.5152917,0.08871859,0.06344992,0.027897105,-0.095768064,-9.562442,-1.9440918
0.0111327525,4.515272,0.08126174,0.06558045,0.03641922,-0.11492168,-9.543288,-1.9967642
0.01116274,4.515252,0.08126174,0.06558045,0.03641922,-0.11492168,-9.543288,-1.9967642
0.01125906,4.515239,0.075935416,0.06664571,0.04387607,-0.1436521,-9.595961,-1.9632454
0.011353856,4.5152254,0.075935416,0.06664571,0.04387607,-0.1436521,-9.595961,-1.9632454
0.011438133,4.5153885,0.07060909,0.06771098,0.05133292,-0.1340753,-9.648633,-1.8818425
0.011522476,4.5155525,0.07060909,0.06771098,0.05133292,-0.1340753,-9.648633,-1.8818425
0.011584344,4.515716,0.06528277,0.069841504,0.05772451,-0.11971009,-9.672575,-1.8962077
0.011645212,4.515879,0.06528277,0.069841504,0.05772451,-0.11971009,-9.672575,-1.8962077
0.011689929,4.5160394,0.061021715,0.07090677,0.059855036,-0.11492168,-9.696517,-1.8770541
0.011733674,4.5161986,0.061021715,0.07090677,0.059855036,-0.11492168,-9.696517,-1.8770541
0.011791854,4.5163536,0.056760654,0.073037304,0.059855036,-0.12928689,-9.768343,-1.8483237
0.011849595,4.516509,0.056760654,0.073037304,0.059855036,-0.12928689,-9.768343,-1.8483237
0.011903865,4.5166597,0.0524996,0.07516783,0.058789775,-0.12449849,-9.763555,-1.8770541
0.011957548,4.516811,0.0524996,0.07516783,0.058789775,-0.12449849,-9.763555,-1.8770541
0.0120291,4.5169544,0.047173277,0.07836362,0.058789775,-0.12928689,-9.792285,-1.9057846
0.012099861,4.5170984,0.047173277,0.07836362,0.058789775,-0.12928689,-9.792285,-1.9057846
0.012239058,4.5170736,0.043977484,0.07942889,0.052398186,-0.1340753,-9.782708,-1.9440918
0.012374253,4.5170455,0.043977484,0.07942889,0.052398186,-0.1340753,-9.782708,-1.9440918
0.012369514,4.5171804,0.037585896,0.08049415,0.044941336,-0.110133275,-9.811439,-1.9009962
0.012363908,4.517313,0.037585896,0.08049415,0.044941336,-0.110133275,-9.811439,-1.9009962
0.012299792,4.517263,0.031194309,0.08049415,0.035353955,-0.10534488,-9.797073,-1.9536686
0.012235979,4.5172124,0.031194309,0.08049415,0.035353955,-0.10534488,-9.797073,-1.9536686
0.012206366,4.51714,0.025867987,0.07942889,0.021505518,-0.07182605,-9.773131,-2.0733786
0.012176756,4.517068,0.025867987,0.07942889,0.021505518,-0.07182605,-9.773131,-2.0733786
0.012110998,4.516996,0.02160693,0.07836362,0.0033960221,-0.06703765,-9.801862,-2.0350714
0.0120452745,4.516924,0.02160693,0.07836362,0.0033960221,-0.06703765,-9.801862,-2.0350714
0.012004148,4.5168386,0.015215342,0.07516783,-0.015778739,-0.110133275,-9.749189,-2.0207062
0.011963427,4.516753,0.015215342,0.07516783,-0.015778739,-0.110133275,-9.749189,-2.0207062
0.011854854,4.516671,0.010954284,0.073037304,-0.039214555,-0.047884032,-9.782708,-2.0590134
0.011746783,4.516589,0.010954284,0.073037304,-0.039214555,-0.047884032,-9.782708,-2.0590134
0.011583455,4.5165167,0.0066932263,0.07090677,-0.06371564,-0.062249243,-9.787497,-1.9919758
0.011421026,4.516444,0.0066932263,0.07090677,-0.06371564,-0.062249243,-9.787497,-1.9919758
0.011189908,4.5164127,0.005627962,0.06877624,-0.08928198,-0.062249243,-9.792285,-1.958457
0.010958739,4.5163803,0.005627962,0.06877624,-0.08928198,-0.062249243,-9.792285,-1.958457
0.010743732,4.516464,0.0066932263,0.06877624,-0.11697886,-0.038307227,-9.677363,-1.8579005
0.010529216,4.516549,0.0066932263,0.06877624,-0.11697886,-0.038307227,-9.677363,-1.8579005
0.010308871,4.516651,0.00988902,0.06771098,-0.14680627,-0.02873042,-9.667787,-1.8004397
0.010098328,4.5167494,0.00988902,0.06771098,-0.14680627,-0.02873042,-9.667787,-1.8004397
0.009858585,4.516854,0.0141500775,0.06558045,-0.17450315,0.0047884034,-9.65821,-1.7429788
0.009619436,4.516959,0.0141500775,0.06558045,-0.17450315,0.0047884034,-9.65821,-1.7429788
0.009389058,4.5170774,0.020541664,0.06451519,-0.20539582,-0.04309563,-9.629479,-1.5993267
0.009159101,4.517196,0.020541664,0.06451519,-0.20539582,-0.04309563,-9.629479,-1.5993267
0.008899431,4.5173206,0.025867987,0.062384658,-0.23841901,-0.047884032,-9.634268,-1.5945383
0.008640986,4.5174446,0.025867987,0.062384658,-0.23841901,-0.047884032,-9.634268,-1.5945383
0.0083416635,4.5175753,0.032259572,0.062384658,-0.27037695,-0.038307227,-9.624691,-1.6903064
0.008043618,4.5177054,0.032259572,0.062384658,-0.27037695,-0.038307227,-9.624691,-1.6903064
0.0076912707,4.5178385,0.03865116,0.06344992,-0.30233487,0.009576807,-9.662998,-1.70946
0.0073401467,4.5179715,0.03865116,0.06344992,-0.30233487,0.009576807,-9.662998,-1.70946
0.0069255084,4.518101,0.04291222,0.062384658,-0.33322755,0.05267244,-9.696517,-1.757344
0.0063729426,4.518228,0.04610801,0.0581236,-0.36518547,0.110133275,-9.792285,-1.8195933
0.0058718845,4.518344,0.04610801,0.0581236,-0.36518547,0.110133275,-9.792285,-1.8195933
0.005499116,4.5184307,0.04610801,0.0581236,-0.36518547,0.110133275,-9.792285,-1.8195933
0.0049610506,4.518502,0.049303804,0.052797277,-0.40033922,0.22984336,-9.844957,-1.8866309
0.004421926,4.5185738,0.049303804,0.052797277,-0.40033922,0.22984336,-9.844957,-1.8866309
0.003843929,4.5186377,0.051434334,0.045340426,-0.43868873,0.23463176,-9.911995,-1.9201498
0.0032659536,4.5187016,0.051434334,0.045340426,-0.43868873,0.23463176,-9.911995,-1.9201498
0.0026589797,4.5187845,0.055695392,0.03468778,-0.47490773,0.2825158,-10.022128,-1.9009962
0.0020521104,4.5188675,0.055695392,0.03468778,-0.47490773,0.2825158,-10.022128,-1.9009962
0.0014151301,4.518965,0.061021715,0.024035135,-0.51219195,0.33518824,-10.070012,-1.8722657
0.0007782303,4.519062,0.061021715,0.024035135,-0.51219195,0.33518824,-10.070012,-1.8722657
0.0001321519,4.5191965,0.06954383,0.013382491,-0.54841095,0.33997664,-10.132261,-1.7669208
6.282672,4.5193305,0.06954383,0.013382491,-0.54841095,0.33997664,-10.132261,-1.7669208
6.2820163,4.5194907,0.08019647,0.0027298466,-0.5835647,0.31603462,-10.271125,-1.6998832
6.281363,4.5196505,0.08019647,0.0027298466,-0.5835647,0.31603462,-10.271125,-1.6998832
6.280715,4.5198374,0.09297965,-0.005792269,-0.61871845,0.22505496,-10.362105,-1.5466543
6.2800684,4.520024,0.09297965,-0.005792269,-0.61871845,0.22505496,-10.362105,-1.5466543
6.2794127,4.5202265,0.105762824,-0.012183856,-0.65387213,0.1388637,-10.453085,-1.4077905
6.278757,4.5204296,0.105762824,-0.012183856,-0.65387213,0.1388637,-10.453085,-1.4077905
6.27808,4.520645,0.118545994,-0.016444914,-0.6879606,0.08140286,-10.534488,-1.292869
6.2774043,4.5208607,0.118545994,-0.016444914,-0.6879606,0.08140286,-10.534488,-1.292869
6.276709,4.5210896,0.13239443,-0.018575443,-0.7167227,0.019153614,-10.649409,-1.1444284
6.2760143,4.5213184,0.13239443,-0.018575443,-0.7167227,0.019153614,-10.649409,-1.1444284
6.275293,4.521559,0.15263446,-0.0228365,-0.76785547,0.1388637,-10.951078,-1.1875241
6.2729583,4.5223265,0.15263446,-0.0228365,-0.76785547,0.1388637,-10.951078,-1.1875241
6.2729583,4.5223265,0.15263446,-0.0228365,-0.76785547,0.1388637,-10.951078,-1.1875241
6.2729583,4.5223265,0.15263446,-0.0228365,-0.76785547,0.1388637,-10.951078,-1.1875241
6.272226,4.522555,0.15369973,-0.02496703,-0.7998134,0.2633622,-11.099519,-1.3215994
6.2713766,4.5228195,0.15369973,-0.02496703,-0.7998134,0.2633622,-11.099519,-1.3215994
6.2713766,4.5228195,0.15369973,-0.02496703,-0.7998134,0.2633622,-11.099519,-1.3215994
6.269521,4.523355,0.15050393,-0.028162822,-0.8339018,0.35913026,-11.295844,-1.4556746
6.2688665,4.5235233,0.14091654,-0.031358615,-0.8743819,0.44532153,-11.45865,-1.5897499
6.2679687,4.523754,0.14091654,-0.031358615,-0.8743819,0.44532153,-11.45865,-1.5897499
6.267029,4.523968,0.122807056,-0.037750203,-0.9233841,0.36391866,-11.621455,-1.7812861
6.2660904,4.5241823,0.122807056,-0.037750203,-0.9233841,0.36391866,-11.621455,-1.7812861
6.2651567,4.524374,0.0972407,-0.04627232,-0.97451675,0.14844051,-11.669339,-1.8674773
6.2642236,4.5245657,0.0972407,-0.04627232,-0.97451675,0.14844051,-11.669339,-1.8674773
6.263316,4.5246944,0.06315224,-0.059055492,-1.0331063,-0.12449849,-11.659762,-1.9632454
6.262412,4.5248213,0.06315224,-0.059055492,-1.0331063,-0.12449849,-11.659762,-1.9632454
6.2614737,4.524883,0.02160693,-0.077164985,-1.0948917,-0.6799533,-11.765107,-1.8770541
6.260538,4.5249434,0.02160693,-0.077164985,-1.0948917,-0.6799533,-11.765107,-1.8770541
6.2595563,4.5248938,-0.025264706,-0.10166607,-1.156677,-0.2873042,-11.650186,-2.27928
6.2585773,4.524844,-0.025264706,-0.10166607,-1.156677,-0.2873042,-11.650186,-2.27928
6.2574725,4.5246687,-0.08065846,-0.12616715,-1.2205929,0.08140286,-11.554418,-2.4420857
6.256377,4.524495,-0.08065846,-0.12616715,-1.2205929,0.08140286,-11.554418,-2.4420857
6.255159,4.5242443,-0.14031327,-0.14640717,-1.2930309,0.19153613,-11.444284,-2.6384103
6.2539487,4.523995,-0.14031327,-0.14640717,-1.2930309,0.19153613,-11.444284,-2.6384103
6.252662,4.5236826,-0.20209861,-0.16025561,-1.3750561,0.16759412,-11.319786,-2.60968
6.251384,4.5233707,-0.20209861,-0.16025561,-1.3750561,0.16759412,-11.319786,-2.60968
6.2500267,4.5229964,-0.2660145,-0.1730388,-1.4698647,0.090979666,-11.291056,-2.6384103
6.2486806,4.522625,-0.2660145,-0.1730388,-1.4698647,0.090979666,-11.291056,-2.6384103
6.2472286,4.5221863,-0.32993034,-0.18369143,-1.5742606,0.076614454,-11.21444,-2.6623523
6.2457795,4.521748,-0.32993034,-0.18369143,-1.5742606,0.076614454,-11.21444,-2.6623523
6.244195,4.521238,-0.39171568,-0.19434407,-1.6861134,0.20590134,-11.195287,-2.8299465
6.2426133,4.5207276,-0.39171568,-0.19434407,-1.6861134,0.20590134,-11.195287,-2.8299465
6.2408957,4.520155,-0.44923997,-0.2028662,-1.805423,0.38307226,-11.305421,-2.7629087
6.2391825,4.519582,-0.44923997,-0.2028662,-1.805423,0.38307226,-11.305421,-2.7629087
6.2373295,4.518952,-0.50250316,-0.21245357,-1.93432,0.49320555,-11.415554,-2.7629087
6.2354813,4.518321,-0.50250316,-0.21245357,-1.93432,0.49320555,-11.415554,-2.7629087
6.2334676,4.517641,-0.5504401,-0.22417149,-2.0728045,0.6464345,-11.573571,-2.6240451
6.2314606,4.5169587,-0.5504401,-0.22417149,-2.0728045,0.6464345,-11.573571,-2.6240451
6.229302,4.516234,-0.59092015,-0.23588939,-2.2187457,0.6895301,-11.736377,-2.5617957
6.227149,4.5155053,-0.59092015,-0.23588939,-2.2187457,0.6895301,-11.736377,-2.5617957
6.224919,4.5147448,-0.62607384,-0.25080308,-2.3742743,0.62249243,-11.932701,-2.5139117
6.2227054,4.5139875,-0.62607384,-0.25080308,-2.3742743,0.62249243,-11.932701,-2.5139117
6.2204013,4.513238,-0.6580318,-0.26678208,-2.5319333,0.50757074,-12.095507,-2.5187001
6.2181025,4.512494,-0.6580318,-0.26678208,-2.5319333,0.50757074,-12.095507,-2.5187001
6.215658,4.511731,-0.6846634,-0.28276104,-2.6906579,0.18674773,-12.291832,-2.6048915
6.2132154,4.510969,-0.6846634,-0.28276104,-2.6906579,0.18674773,-12.291832,-2.6048915
6.210622,4.510174,-0.711295,-0.29767472,-2.848317,-0.04309563,-12.430696,-2.695871
6.2080293,4.509378,-0.711295,-0.29767472,-2.848317,-0.04309563,-12.430696,-2.695871
6.205294,4.5085487,-0.7389919,-0.31152317,-2.997454,-0.15322891,-12.5982895,-2.7629087
6.2025604,4.5077186,-0.7389919,-0.31152317,-2.997454,-0.15322891,-12.5982895,-2.7629087
6.1996884,4.5068464,-0.7656235,-0.32643688,-3.1401994,-0.17717093,-12.698846,-2.8874073
6.1968174,4.505974,-0.7656235,-0.32643688,-3.1401994,-0.17717093,-12.698846,-2.8874073
6.1938124,4.5050592,-0.7901246,-0.3402853,-3.2776184,-0.15322891,-12.727576,-3.016694
6.1908083,4.504143,-0.7901246,-0.3402853,-3.2776184,-0.15322891,-12.727576,-3.016694
6.1876755,4.5032,-0.81142986,-0.35413375,-3.4139724,0.047884032,-12.722788,-2.9783869
6.1845446,4.502255,-0.81142986,-0.35413375,-3.4139724,0.047884032,-12.722788,-2.9783869
6.181255,4.50125,-0.8263436,-0.36372113,-3.550326,0.19153613,-12.4785795,-3.371036
6.1779685,4.5002427,-0.8263436,-0.36372113,-3.550326,0.19153613,-12.4785795,-3.371036
6.1745305,4.4992065,-0.83380044,-0.37011272,-3.6898758,0.14844051,-12.143391,-3.6822822
6.1710963,4.498167,-0.83380044,-0.37011272,-3.6898758,0.14844051,-12.143391,-3.6822822
6.1675105,4.4971123,-0.8327352,-0.37011272,-3.8326213,0.11971009,-11.81778,-3.9839516
6.163928,4.4960537,-0.8327352,-0.37011272,-3.8326213,0.11971009,-11.81778,-3.9839516
6.160197,4.4949923,-0.8231478,-0.36265585,-3.976432,0.033518825,-11.434708,-4.271256
6.1564693,4.493927,-0.8231478,-0.36265585,-3.976432,0.033518825,-11.434708,-4.271256
6.1525946,4.49287,-0.803973,-0.34454638,-4.118112,-0.076614454,-10.994174,-4.55856
6.148723,4.491808,-0.803973,-0.34454638,-4.118112,-0.076614454,-10.994174,-4.55856
6.1447144,4.4907618,-0.7805372,-0.3221758,-4.2555313,-0.22984336,-10.673351,-4.7309427
6.1407084,4.4897103,-0.7805372,-0.3221758,-4.2555313,-0.22984336,-10.673351,-4.7309427
6.1365685,4.4886847,-0.7496445,-0.29447892,-4.389755,-0.31603462,-10.491392,-4.76925
6.132432,4.487653,-0.7496445,-0.29447892,-4.389755,-0.31603462,-10.491392,-4.76925
6.128168,4.4866548,-0.7134255,-0.26358625,-4.5197167,-0.30645782,-10.328587,-4.5154643
6.1239076,4.4856515,-0.7134255,-0.26358625,-4.5197167,-0.30645782,-10.328587,-4.5154643
6.1195197,4.484688,-0.670815,-0.22843254,-4.6475487,-0.2633622,-10.19451,-4.309563
6.1151347,4.4837184,-0.670815,-0.22843254,-4.6475487,-0.2633622,-10.19451,-4.309563
6.1106296,4.4827952,-0.6250086,-0.19221355,-4.7721844,-0.17238252,-10.113108,-3.964798
6.106127,4.481867,-0.6250086,-0.19221355,-4.7721844,-0.17238252,-10.113108,-3.964798
6.1014485,4.4809775,-0.5760064,-0.15599456,-4.8914943,-0.02873042,-10.093954,-3.6391866
6.096658,4.4800606,-0.5760064,-0.15599456,-4.8914943,-0.02873042,-10.093954,-3.6391866
6.0920444,4.4792495,-0.52487373,-0.11977556,-5.0097384,0.095768064,-10.0987425,-3.442862
6.0874043,4.478428,-0.52487373,-0.11977556,-5.0097384,0.095768064,-10.0987425,-3.442862
6.082567,4.477643,-0.4748063,-0.091013424,-5.1301136,0.23942018,-10.13705,-3.2561142
6.077732,4.476851,-0.4748063,-0.091013424,-5.1301136,0.23942018,-10.13705,-3.2561142
6.072761,4.476104,-0.4268694,-0.06757761,-5.2504883,0.29209262,-10.208876,-3.1364043
6.0678167,4.475354,-0.4268694,-0.06757761,-5.2504883,0.29209262,-10.208876,-3.1364043
6.0627317,4.474639,-0.38638934,-0.04946811,-5.3644714,0.40701428,-10.28549,-3.0119057
6.057684,4.4739223,-0.38638934,-0.04946811,-5.3644714,0.40701428,-10.28549,-3.0119057
6.0524936,4.4732356,-0.35123563,-0.03881547,-5.47739,0.48362875,-10.477027,-2.882619
6.0472984,4.4725413,-0.35123563,-0.03881547,-5.47739,0.48362875,-10.477027,-2.882619
6.0420356,4.471879,-0.32460403,-0.03455441,-5.587112,0.51714754,-10.740389,-2.7581203
6.0367737,4.471208,-0.32460403,-0.03455441,-5.587112,0.51714754,-10.740389,-2.7581203
6.0313826,4.470557,-0.30862504,-0.03455441,-5.691508,0.47405192,-11.099519,-2.504335
6.0260134,4.4698997,-0.30862504,-0.03455441,-5.691508,0.47405192,-11.099519,-2.504335
6.0205164,4.4692545,-0.30542925,-0.040945996,-5.789512,0.47884035,-11.525687,-1.9967642
6.015048,4.468603,-0.30542925,-0.040945996,-5.789512,0.47884035,-11.525687,-1.9967642
6.009446,4.46794,-0.31075558,-0.050533377,-5.881125,0.49320555,-12.018892,-1.5562311
6.003879,4.4672704,-0.31075558,-0.050533377,-5.881125,0.49320555,-12.018892,-1.5562311
5.998193,4.4665694,-0.32673454,-0.06544708,-5.96315,0.50757074,-12.5025215,-1.1779473
5.9925246,4.465859,-0.32673454,-0.06544708,-5.96315,0.50757074,-12.5025215,-1.1779473
5.986783,4.465113,-0.34697458,-0.08355658,-6.0355883,0.49320555,-13.010092,-0.79008657
5.9810605,4.464358,-0.34697458,-0.08355658,-6.0355883,0.49320555,-13.010092,-0.79008657
5.9752398,4.463553,-0.37254092,-0.1037966,-6.1005692,0.41180268,-13.560759,-0.3878607
5.969456,4.462741,-0.37254092,-0.1037966,-6.1005692,0.41180268,-13.560759,-0.3878607
5.9635835,4.4618707,-0.40236834,-0.12616715,-6.161289,0.40222588,-13.962984,-0.21068975
5.95773,4.4609904,-0.40236834,-0.12616715,-6.161289,0.40222588,-13.962984,-0.21068975
5.9518323,4.4600515,-0.43432626,-0.15279876,-6.2156177,0.31603462,-14.298173,-0.10534488
5.9459543,4.4591026,-0.43432626,-0.15279876,-6.2156177,0.31603462,-14.298173,-0.10534488
5.939998,4.458083,-0.46841472,-0.1847567,-6.26462,0.2825158,-14.494497,-0.10534488
5.9340744,4.457054,-0.46841472,-0.1847567,-6.26462,0.2825158,-14.494497,-0.10534488
5.928108,4.455958,-0.5035685,-0.21884516,-6.313622,0.21068975,-14.595054,-0.07182605
5.9221444,4.454846,-0.5035685,-0.21884516,-6.313622,0.21068975,-14.595054,-0.07182605
5.9161487,4.4536695,-0.53659165,-0.25506416,-6.357298,0.21547815,-14.580688,0.047884032
5.9101553,4.4524775,-0.53659165,-0.25506416,-6.357298,0.21547815,-14.580688,0.047884032
5.904152,4.4512258,-0.5653538,-0.28915262,-6.3999085,0.24420857,-14.4370365,-0.05746084
5.8981156,4.4499497,-0.5653538,-0.28915262,-6.3999085,0.24420857,-14.4370365,-0.05746084
5.892063,4.4486227,-0.5877243,-0.31791475,-6.4446497,0.2681506,-14.092271,-0.0047884034
5.8860135,4.447278,-0.5877243,-0.31791475,-6.4446497,0.2681506,-14.092271,-0.0047884034
5.8799467,4.445889,-0.6037033,-0.34241584,-6.4915214,0.4357447,-13.618219,-0.05746084
5.873846,4.4444737,-0.6037033,-0.34241584,-6.4915214,0.4357447,-13.618219,-0.05746084
5.867741,4.443026,-0.6143559,-0.36052534,-6.5394583,0.62728083,-12.909535,0.023942016
5.8616033,4.4415503,-0.6143559,-0.36052534,-6.5394583,0.62728083,-12.909535,0.023942016
5.8554564,4.4400496,-0.61968225,-0.3733085,-6.590591,0.9911995,-12.272678,-0.023942016
5.8492765,4.4385195,-0.61968225,-0.3733085,-6.590591,0.9911995,-12.272678,-0.023942016
5.84306,4.4369683,-0.618617,-0.37756956,-6.6491804,1.3599066,-11.48738,-0.05267244
5.836847,4.435396,-0.618617,-0.37756956,-6.6491804,1.3599066,-11.48738,-0.05267244
5.8305197,4.433797,-0.61116016,-0.37011272,-6.718423,1.7717092,-10.673351,-0.110133275
5.824279,4.4321966,-0.61116016,-0.37011272,-6.718423,1.7717092,-10.673351,-0.110133275
5.81793,4.4305816,-0.59944224,-0.34880742,-6.791926,2.1547816,-9.921572,-0.29688102
5.8115797,4.4289412,-0.59944224,-0.34880742,-6.791926,2.1547816,-9.921572,-0.29688102
5.805159,4.4273033,-0.5834633,-0.31578422,-6.872886,2.360683,-9.203311,-0.50757074
5.798711,4.4256334,-0.5834633,-0.31578422,-6.872886,2.360683,-9.203311,-0.50757074
5.792202,4.423973,-0.5653538,-0.27530417,-6.9570417,2.6001031,-8.48984,-0.80924016
5.7856917,4.4222856,-0.5653538,-0.27530417,-6.9570417,2.6001031,-8.48984,-0.80924016
5.7790947,4.42061,-0.5440485,-0.22630201,-7.038002,2.801216,-7.795521,-1.0247183
5.772503,4.418908,-0.5440485,-0.22630201,-7.038002,2.801216,-7.795521,-1.0247183
5.765835,4.4172187,-0.5227432,-0.17197353,-7.1189623,3.0119057,-7.0820484,-1.3263878
5.7591596,4.4154983,-0.5227432,-0.17197353,-7.1189623,3.0119057,-7.0820484,-1.3263878
5.7524114,4.4137993,-0.4961116,-0.11338398,-7.194596,3.289633,-6.3589997,-1.5897499
5.7456713,4.4120703,-0.4961116,-0.11338398,-7.194596,3.289633,-6.3589997,-1.5897499
5.7387166,4.4101686,-0.46734947,-0.05372917,-7.2649035,3.620033,-5.693412,-1.8483237
5.7317843,4.408222,-0.46734947,-0.05372917,-7.2649035,3.620033,-5.693412,-1.8483237
5.724693,4.4063315,-0.43752205,0.003795111,-7.33095,3.9839516,-5.0421886,-2.0159178
5.717595,4.4044037,-0.43752205,0.003795111,-7.33095,3.9839516,-5.0421886,-2.0159178
5.7104545,4.4025106,-0.40449885,0.060254127,-7.3863435,4.2185836,-4.381389,-2.1499932
5.703277,4.4005733,-0.40449885,0.060254127,-7.3863435,4.2185836,-4.381389,-2.1499932
5.696101,4.3986626,-0.3672146,0.118843675,-7.43215,4.2999864,-3.6870706,-2.5713725
5.6891613,4.3967824,-0.3672146,0.118843675,-7.43215,4.2999864,-3.6870706,-2.5713725
5.6817174,4.3948135,-0.32886508,0.17956375,-7.4694343,4.486734,-3.2513258,-2.8395233
5.6743956,4.39284,-0.32886508,0.17956375,-7.4694343,4.486734,-3.2513258,-2.8395233
5.667101,4.3909698,-0.28731975,0.2466754,-7.4960656,4.9559975,-2.8060043,-2.3654714
5.659811,4.389065,-0.28731975,0.2466754,-7.4960656,4.9559975,-2.8060043,-2.3654714
5.6524734,4.387226,-0.24044813,0.3191134,-7.520567,5.185841,-2.030283,-2.2697031
5.6449714,4.3853087,-0.24044813,0.3191134,-7.520567,5.185841,-2.030283,-2.2697031
5.637638,4.38352,-0.17972806,0.3936819,-7.5386763,5.3678,-1.3503298,-2.303222
5.630287,4.3816915,-0.17972806,0.3936819,-7.5386763,5.3678,-1.3503298,-2.303222
5.6220107,4.3797436,-0.107290074,0.47038093,-7.5471983,5.746084,-0.7422025,-2.3894134
5.6220107,4.3797436,-0.107290074,0.47038093,-7.5471983,5.746084,-0.7422025,-2.3894134
5.606049,4.37586,-0.107290074,0.47038093,-7.5471983,5.746084,-0.7422025,-2.3894134
5.600536,4.374592,-0.027395237,0.55134106,-7.5429373,6.1770406,-0.29209262,-2.4468741
5.592861,4.3729606,0.061021715,0.63443166,-7.5269585,6.631939,-0.04309563,-2.585738
5.5855613,4.371374,0.061021715,0.63443166,-7.5269585,6.631939,-0.04309563,-2.585738
5.5781183,4.369897,0.15156919,0.71965283,-7.5003266,7.07726,-0.15322891,-2.4756045
5.570937,4.368439,0.15156919,0.71965283,-7.5003266,7.07726,-0.15322891,-2.4756045
5.563572,4.3670874,0.2410514,0.804874,-7.4619775,7.517793,-0.25857377,-2.3558946
5.556142,4.3656893,0.2410514,0.804874,-7.4619775,7.517793,-0.25857377,-2.3558946
5.5487523,4.364436,0.3284031,0.88370353,-7.4076486,7.795521,-0.5363012,-2.3127987
5.5487523,4.364436,0.3284031,0.88370353,-7.4076486,7.795521,-0.5363012,-2.3127987
5.5340114,4.361926,0.41255897,0.954011,-7.3416023,7.690176,-0.6512229,-2.7389667
5.5266895,4.3607306,0.41255897,0.954011,-7.3416023,7.690176,-0.6512229,-2.7389667
5.517534,4.3594527,0.49032328,1.014731,-7.2595773,8.724471,-1.6424223,-1.4796166
5.5120606,4.358667,0.49032328,1.014731,-7.2595773,8.724471,-1.6424223,-1.4796166
5.5044637,4.3577046,0.56382656,1.0711901,-7.159442,8.566454,-2.2170308,-1.5801731
5.497359,4.356776,0.56382656,1.0711901,-7.159442,8.566454,-2.2170308,-1.5801731
5.490448,4.3560095,0.6383951,1.1244533,-7.045459,8.42759,-2.954445,-1.4508862
5.4833674,4.3551974,0.6383951,1.1244533,-7.045459,8.42759,-2.954445,-1.4508862
5.4763665,4.354533,0.70763725,1.1649333,-6.91017,8.207323,-3.7588966,-1.3455414
5.4693594,4.353845,0.70763725,1.1649333,-6.91017,8.207323,-3.7588966,-1.3455414
5.46249,4.3533025,0.7736836,1.1883692,-6.7535763,8.130709,-4.357447,-1.2737153
5.4555187,4.35273,0.7736836,1.1883692,-6.7535763,8.130709,-4.357447,-1.2737153
5.4468837,4.352181,0.83120793,1.2000871,-6.5810037,7.929596,-5.0757074,-1.3742718
5.4420853,4.351863,0.83120793,1.2000871,-6.5810037,7.929596,-5.0757074,-1.3742718
5.435733,4.351557,0.88127536,1.2043482,-6.393517,7.8865004,-5.4922986,-1.5227122
5.4292393,4.3512287,0.88127536,1.2043482,-6.393517,7.8865004,-5.4922986,-1.5227122
5.422961,4.3510275,0.92388594,1.2000871,-6.1889863,7.762002,-5.8322754,-1.7525556
5.416651,4.3508134,0.92388594,1.2000871,-6.1889863,7.762002,-5.8322754,-1.7525556
5.4106007,4.3507333,0.9633007,1.1904997,-5.9706073,7.723695,-6.0621185,-1.9728222
5.404549,4.3506474,0.9633007,1.1904997,-5.9706073,7.723695,-6.0621185,-1.9728222
5.398867,4.3506494,1.000585,1.1745207,-5.74051,7.714118,-6.1770406,-2.2170308
5.393198,4.3506155,1.000585,1.1745207,-5.74051,7.714118,-6.1770406,-2.2170308
5.3877606,4.3505106,1.041065,1.1564113,-5.502956,7.7093296,-6.172252,-2.4660277
5.3823166,4.350401,1.041065,1.1564113,-5.502956,7.7093296,-6.172252,-2.4660277
5.3770714,4.35035,1.0794145,1.1446934,-5.261141,7.795521,-6.019023,-2.6048915
5.371808,4.3502946,1.0794145,1.1446934,-5.261141,7.795521,-6.019023,-2.6048915
5.366802,4.3503504,1.1188294,1.1372365,-5.01613,7.7189064,-5.8322754,-2.6862943
5.361768,4.350402,1.1188294,1.1372365,-5.01613,7.7189064,-5.8322754,-2.6862943
5.3569655,4.3505883,1.1571789,1.1329755,-4.771119,7.5225816,-5.6407394,-2.7006595
5.3521767,4.35077,1.1571789,1.1329755,-4.771119,7.5225816,-5.6407394,-2.7006595
5.347622,4.3511057,1.1955284,1.1319102,-4.5229125,7.3310456,-5.497087,-2.60968
5.342971,4.3514476,1.1955284,1.1319102,-4.5229125,7.3310456,-5.497087,-2.60968
5.3387423,4.351915,1.2296169,1.1319102,-4.27151,7.393295,-5.4061074,-2.5809495
5.334405,4.352395,1.2296169,1.1319102,-4.27151,7.393295,-5.4061074,-2.5809495
5.3303347,4.3530083,1.2541178,1.130845,-4.0201077,7.5225816,-5.3486466,-2.5091233
5.3262515,4.3536263,1.2541178,1.130845,-4.0201077,7.5225816,-5.3486466,-2.5091233
5.3224034,4.354377,1.2711622,1.1244533,-3.7708359,7.666234,-5.3438582,-2.4229321
5.3185434,4.3551354,1.2711622,1.1244533,-3.7708359,7.666234,-5.3438582,-2.4229321
5.314893,4.35598,1.2775537,1.1159312,-3.5247598,7.9726915,-5.2480903,-2.4133554
5.3112483,4.3568316,1.2775537,1.1159312,-3.5247598,7.9726915,-5.2480903,-2.4133554
5.3078246,4.3577814,1.2700969,1.1063439,-3.279749,8.0684595,-5.2002063,-2.4277205
5.304406,4.358737,1.2700969,1.1063439,-3.279749,8.0684595,-5.2002063,-2.4277205
5.301214,4.3597813,1.2530526,1.0978217,-3.0453908,8.015787,-5.094861,-2.4372973
5.2981577,4.360789,1.2530526,1.0978217,-3.0453908,8.015787,-5.094861,-2.4372973
5.29516,4.361932,1.226421,1.0903648,-2.816359,7.8769236,-4.960786,-2.4660277
5.2920346,4.363133,1.226421,1.0903648,-2.816359,7.8769236,-4.960786,-2.4660277
5.2892814,4.364341,1.1933979,1.082908,-2.5937188,7.699753,-4.7548847,-2.4181437
5.2865148,4.3655634,1.1933979,1.082908,-2.5937188,7.699753,-4.7548847,-2.4181437
5.283929,4.3668456,1.1582441,1.0701249,-2.3785353,7.5800424,-4.5058875,-2.3702598
5.281341,4.3681383,1.1582441,1.0701249,-2.3785353,7.5800424,-4.5058875,-2.3702598
5.278943,4.3694744,1.1198946,1.0552112,-2.167613,7.513005,-4.2185836,-2.3511062
5.2765427,4.3708196,1.1198946,1.0552112,-2.167613,7.513005,-4.2185836,-2.3511062
5.2743125,4.3722086,1.0826104,1.0381669,-1.9652127,7.5944076,-3.9983168,-2.1883004
5.272072,4.3736124,1.0826104,1.0381669,-1.9652127,7.5944076,-3.9983168,-2.1883004
5.269989,4.375075,1.0495871,1.022188,-1.773465,7.762002,-3.8163576,-2.054225
5.267899,4.3765507,1.0495871,1.022188,-1.773465,7.762002,-3.8163576,-2.054225
5.2659664,4.3780875,1.0197598,1.0072743,-1.5976964,7.9822683,-3.739743,-1.934515
5.2640305,4.379633,1.0197598,1.0072743,-1.5976964,7.9822683,-3.739743,-1.934515
5.262232,4.381262,0.9941934,0.9955563,-1.438972,8.178593,-3.7014358,-1.757344
5.260422,4.3829064,0.9941934,0.9955563,-1.438972,8.178593,-3.7014358,-1.757344
5.2587442,4.384631,0.9760839,0.98596895,-1.2972919,8.312668,-3.6870706,-1.6328455
5.2570624,4.3863654,0.9760839,0.98596895,-1.2972919,8.312668,-3.6870706,-1.6328455
5.255513,4.388154,0.9611702,0.97957736,-1.1747864,8.327033,-3.691859,-1.5227122
5.2539506,4.389963,0.9611702,0.97957736,-1.1747864,8.327033,-3.691859,-1.5227122
5.2524996,4.3917856,0.948387,0.97638154,-1.0703906,8.226477,-3.6631286,-1.5801731
5.251045,4.393619,0.948387,0.97638154,-1.0703906,8.226477,-3.6631286,-1.5801731
5.249673,4.3955035,0.9398649,0.9731858,-0.9851694,8.082825,-3.643975,-1.484405
5.248301,4.397393,0.9398649,0.9731858,-0.9851694,8.082825,-3.643975,-1.484405
5.247018,4.3992653,0.93240803,0.9667942,-0.91166615,7.920019,-3.6152446,-1.5658079
5.2457275,4.4011564,0.93240803,0.9667942,-0.91166615,7.920019,-3.6152446,-1.5658079
5.244524,4.4030237,0.9270817,0.95827204,-0.85094607,7.7667904,-3.514688,-1.661576
5.2433214,4.4048963,0.9270817,0.95827204,-0.85094607,7.7667904,-3.514688,-1.661576
5.242159,4.406785,0.9228207,0.9422931,-0.8051397,7.7189064,-3.514688,-1.5705963
5.2409897,4.408692,0.9228207,0.9422931,-0.8051397,7.7189064,-3.514688,-1.5705963
5.239876,4.410573,0.91962487,0.92311835,-0.76679015,7.7189064,-3.4763808,-1.4891934
5.2387533,4.4124756,0.91962487,0.92311835,-0.76679015,7.7189064,-3.4763808,-1.4891934
5.237667,4.4143553,0.91642904,0.90181303,-0.74015856,7.7189064,-3.6056678,-1.4508862
5.2365775,4.4162483,0.91642904,0.90181303,-0.74015856,7.7189064,-3.6056678,-1.4508862
5.2355037,4.4181366,0.912168,0.881573,-0.7241796,7.728483,-3.5625722,-1.3742718
5.2344317,4.4200263,0.912168,0.881573,-0.7241796,7.728483,-3.5625722,-1.3742718
5.2334137,4.4218245,0.90790695,0.86239827,-0.71352696,7.699753,-3.5098996,-1.364695
5.2323246,4.423756,0.90790695,0.86239827,-0.71352696,7.699753,-3.5098996,-1.364695
5.2312946,4.4255633,0.9004501,0.8432235,-0.71033114,7.627927,-3.41892,-1.4221559
5.230317,4.4272842,0.9004501,0.8432235,-0.71033114,7.627927,-3.41892,-1.4221559
5.2292647,4.429109,0.88979745,0.82404876,-0.7124617,7.5704656,-3.2944214,-1.5514427
5.2282686,4.4308424,0.88979745,0.82404876,-0.7124617,7.5704656,-3.2944214,-1.5514427
5.227268,4.432544,0.8770143,0.8038087,-0.7188533,7.5848308,-3.122039,-1.6950948
5.226255,4.434274,0.8770143,0.8038087,-0.7188533,7.5848308,-3.122039,-1.6950948
5.225248,4.4359293,0.86103535,0.7825034,-0.7305712,7.6231384,-2.9257145,-1.757344
5.224242,4.437588,0.86103535,0.7825034,-0.7305712,7.6231384,-2.9257145,-1.757344
5.2232246,4.4391937,0.84505635,0.7590676,-0.74441963,7.642292,-2.753332,-1.7381904
5.2222066,4.4408083,0.84505635,0.7590676,-0.74441963,7.642292,-2.753332,-1.7381904
5.2211666,4.4423704,0.82694685,0.732436,-0.76252913,7.632715,-2.5617957,-1.8004397
5.220146,4.4439087,0.82694685,0.732436,-0.76252913,7.632715,-2.5617957,-1.8004397
5.219098,4.4454007,0.8099026,0.7058044,-0.7838344,7.714118,-2.360683,-1.6663644
5.218046,4.4469037,0.8099026,0.7058044,-0.7838344,7.714118,-2.360683,-1.6663644
5.216982,4.4483414,0.7928584,0.6813033,-0.8040744,7.752425,-2.2122424,-1.6663644
5.2159147,4.449789,0.7928584,0.6813033,-0.8040744,7.752425,-2.2122424,-1.6663644
5.2148304,4.451185,0.7758142,0.655737,-0.8232492,7.809886,-2.0925324,-1.5658079
5.213747,4.452583,0.7758142,0.655737,-0.8232492,7.809886,-2.0925324,-1.5658079
5.2126465,4.4539437,0.76090044,0.6333664,-0.84135866,7.85777,-1.9393034,-1.3838485
5.2115426,4.4553137,0.76090044,0.6333664,-0.84135866,7.85777,-1.9393034,-1.3838485
5.2104287,4.456644,0.74811727,0.61206114,-0.8562724,7.9248075,-1.8291701,-1.2689269
5.2093153,4.457978,0.74811727,0.61206114,-0.8562724,7.9248075,-1.8291701,-1.2689269
5.208199,4.459269,0.73639935,0.5950169,-0.86585975,7.9487495,-1.6903064,-1.2593501
5.207078,4.46057,0.73639935,0.5950169,-0.86585975,7.9487495,-1.6903064,-1.2593501
5.2059584,4.4618387,0.72787726,0.5790379,-0.87225133,7.9583263,-1.5466543,-1.1875241
5.204838,4.4631114,0.72787726,0.5790379,-0.87225133,7.9583263,-1.5466543,-1.1875241
5.203721,4.464361,0.7225509,0.5651895,-0.8743819,7.9583263,-1.4413095,-1.1300632
5.2025995,4.4656196,0.7225509,0.5651895,-0.8743819,7.9583263,-1.4413095,-1.1300632
5.2011123,4.4672747,0.71935517,0.55134106,-0.86905557,7.9726915,-1.316811,-1.1252748
5.200256,4.4682302,0.71935517,0.55134106,-0.86905557,7.9726915,-1.316811,-1.1252748
5.199257,4.4693384,0.71935517,0.53749263,-0.85733765,7.929596,-1.1252748,-1.2066777
5.1981893,4.4705257,0.71935517,0.53749263,-0.85733765,7.929596,-1.1252748,-1.2066777
5.197124,4.4717135,0.7172246,0.5225789,-0.83922815,7.824251,-1.0199299,-1.2306197
5.196058,4.472905,0.7172246,0.5225789,-0.83922815,7.824251,-1.0199299,-1.2306197
5.19502,4.474075,0.7129636,0.50553465,-0.8115313,7.8290396,-0.81881696,-1.316811
5.193983,4.4752474,0.7129636,0.50553465,-0.8115313,7.8290396,-0.81881696,-1.316811
5.1929893,4.476393,0.706572,0.48742518,-0.7731818,7.8386164,-0.6655881,-1.4077905
5.191995,4.4775414,0.706572,0.48742518,-0.7731818,7.8386164,-0.6655881,-1.4077905
5.1910515,4.478657,0.6948541,0.46718514,-0.72844064,7.809886,-0.5506664,-1.4939818
5.1901083,4.4797735,0.6948541,0.46718514,-0.72844064,7.809886,-0.5506664,-1.4939818
5.189224,4.480848,0.67354876,0.4448146,-0.67517745,7.8625584,-0.45968673,-1.5993267
5.1883397,4.481924,0.67354876,0.4448146,-0.67517745,7.8625584,-0.45968673,-1.5993267
5.187524,4.482942,0.64372134,0.4203135,-0.61445737,7.920019,-0.41180268,-1.7477672
5.1867065,4.483964,0.64372134,0.4203135,-0.61445737,7.920019,-0.41180268,-1.7477672
5.185962,4.4849253,0.6075024,0.39474717,-0.54841095,7.9104424,-0.50278234,-1.8195933
5.1852193,4.4858875,0.6075024,0.39474717,-0.54841095,7.9104424,-0.50278234,-1.8195933
5.184557,4.4867826,0.56276125,0.3670503,-0.47384244,7.881712,-0.545878,-1.8435353
5.1838937,4.487681,0.56276125,0.3670503,-0.47384244,7.881712,-0.545878,-1.8435353
5.183321,4.488494,0.5084328,0.33828816,-0.39288235,7.7572136,-0.62249243,-1.9536686
5.182749,4.489308,0.5084328,0.33828816,-0.39288235,7.7572136,-0.62249243,-1.9536686
5.1822667,4.490039,0.44451693,0.31059128,-0.30872646,7.819463,-0.7182605,-1.9919758
5.181785,4.4907703,0.44451693,0.31059128,-0.30872646,7.819463,-0.7182605,-1.9919758
5.1813993,4.491412,0.3731442,0.28076386,-0.21817899,7.843405,-0.842759,-1.982399
5.1809034,4.492238,0.3731442,0.28076386,-0.21817899,7.843405,-0.842759,-1.982399
5.1809034,4.492238,0.3731442,0.28076386,-0.21817899,7.843405,-0.842759,-1.982399
5.1809034,4.492238,0.3731442,0.28076386,-0.21817899,7.843405,-0.842759,-1.982399
5.180254,4.4934998,0.21015874,0.22217433,-0.024300855,7.929596,-1.2162545,-1.9057846
5.180007,4.494113,0.21015874,0.22217433,-0.024300855,7.929596,-1.2162545,-1.9057846
5.179922,4.4944983,0.12387232,0.20086904,0.073703475,7.9631147,-1.436521,-1.8291701
5.1798453,4.494847,0.12387232,0.20086904,0.073703475,7.9631147,-1.436521,-1.8291701
5.1798725,4.4951944,0.03652063,0.18275954,0.17170781,7.953538,-1.7238252,-1.7621324
5.179889,4.4953995,0.03652063,0.18275954,0.17170781,7.953538,-1.7238252,-1.7621324
5.1800117,4.4956,-0.052961584,0.1689111,0.2675816,7.9822683,-1.958457,-1.7477672
5.180135,4.4958,-0.052961584,0.1689111,0.2675816,7.9822683,-1.958457,-1.7477672
5.180354,4.495925,-0.14031327,0.15825845,0.35919434,7.9583263,-2.2361844,-1.70946
5.1805754,4.4960494,-0.14031327,0.15825845,0.35919434,7.9583263,-2.2361844,-1.70946
5.1808896,4.496106,-0.22446916,0.14867108,0.4444155,7.9248075,-2.542642,-1.5849615
5.1811953,4.496161,-0.22446916,0.14867108,0.4444155,7.9248075,-2.542642,-1.5849615
5.1815886,4.496146,-0.30223346,0.13801843,0.52431035,7.9343843,-2.777274,-1.5370775
5.181984,4.496131,-0.30223346,0.13801843,0.52431035,7.9343843,-2.777274,-1.5370775
5.182465,4.4960475,-0.37467146,0.12523526,0.5978136,8.00621,-3.064578,-1.436521
5.1829324,4.495965,-0.37467146,0.12523526,0.5978136,8.00621,-3.064578,-1.436521
5.183492,4.4958057,-0.44071785,0.11138682,0.66172945,8.010999,-3.2848446,-1.3838485
5.1840267,4.495654,-0.44071785,0.11138682,0.66172945,8.010999,-3.2848446,-1.3838485
5.1846375,4.495428,-0.50037265,0.09753838,0.7139274,8.101978,-3.5338416,-1.316811
5.1852465,4.495203,-0.50037265,0.09753838,0.7139274,8.101978,-3.5338416,-1.316811
5.185903,4.4949164,-0.5557664,0.085820474,0.7554727,8.169016,-3.691859,-1.2449849
5.1865587,4.494631,-0.5557664,0.085820474,0.7554727,8.169016,-3.691859,-1.2449849
5.187247,4.494288,-0.60263807,0.073037304,0.78743064,8.288726,-3.8163576,-1.2066777
5.187933,4.493946,-0.60263807,0.073037304,0.78743064,8.288726,-3.8163576,-1.2066777
5.188647,4.4935474,-0.6452486,0.060254127,0.8119317,8.350976,-3.8786068,-1.1971009
5.1893578,4.493151,-0.6452486,0.060254127,0.8119317,8.350976,-3.8786068,-1.1971009
5.190064,4.492719,-0.6814676,0.050666746,0.82151914,8.42759,-3.9791632,-1.1013328
5.1907663,4.4922905,-0.6814676,0.050666746,0.82151914,8.42759,-3.9791632,-1.1013328
5.191444,4.4918556,-0.71236026,0.04427516,0.8204539,8.494628,-4.012682,-1.043872
5.1921196,4.4914246,-0.71236026,0.04427516,0.8204539,8.494628,-4.012682,-1.043872
5.1927915,4.490951,-0.7379266,0.04107937,0.8119317,8.523358,-4.074931,-1.0486604
5.1934605,4.4904833,-0.7379266,0.04107937,0.8119317,8.523358,-4.074931,-1.0486604
5.194101,4.490014,-0.7602972,0.037883572,0.79488754,8.571242,-4.0940847,-1.0199299
5.194739,4.4895496,-0.7602972,0.037883572,0.79488754,8.571242,-4.0940847,-1.0199299
5.195344,4.489109,-0.7762762,0.035753045,0.76932114,8.614338,-4.132392,-0.9816227
5.1959476,4.4886723,-0.7762762,0.035753045,0.76932114,8.614338,-4.132392,-0.9816227
5.1965294,4.488307,-0.78479826,0.033622514,0.7373632,8.647857,-4.1371803,-0.89543146
5.1971116,4.487942,-0.78479826,0.033622514,0.7373632,8.647857,-4.1371803,-0.89543146
5.1977015,4.487659,-0.78905934,0.033622514,0.70220953,8.690952,-4.237737,-0.770933
5.1982923,4.4873743,-0.78905934,0.033622514,0.70220953,8.690952,-4.237737,-0.770933
5.1988497,4.4870872,-0.78905934,0.035753045,0.6606642,8.7532015,-4.232949,-0.6751649
5.199406,4.4867992,-0.78905934,0.035753045,0.6606642,8.7532015,-4.232949,-0.6751649
5.1999383,4.4865255,-0.78266776,0.040014103,0.6201841,8.7532015,-4.256891,-0.5602432
5.200469,4.4862504,-0.78266776,0.040014103,0.6201841,8.7532015,-4.256891,-0.5602432
5.200968,4.4859896,-0.77308035,0.047470953,0.57863885,8.7771435,-4.2904096,-0.45489833
5.2014656,4.4857287,-0.77308035,0.047470953,0.57863885,8.7771435,-4.2904096,-0.45489833
5.2019196,4.4854803,-0.7581667,0.057058334,0.534963,8.848969,-4.2904096,-0.36391866
5.202373,4.485231,-0.7581667,0.057058334,0.534963,8.848969,-4.2904096,-0.36391866
5.2027855,4.4850073,-0.7357961,0.06771098,0.4955482,8.853758,-4.285621,-0.33518824
5.203198,4.4847827,-0.7357961,0.06771098,0.4955482,8.853758,-4.285621,-0.33518824
5.203573,4.4845915,-0.7091645,0.07942889,0.45932922,8.834604,-4.271256,-0.2873042
5.2039485,4.4844,-0.7091645,0.07942889,0.45932922,8.834604,-4.271256,-0.2873042
5.2042923,4.4842463,-0.6772066,0.090081535,0.42843655,8.815451,-4.247314,-0.22026655
5.204635,4.4840927,-0.6772066,0.090081535,0.42843655,8.815451,-4.247314,-0.22026655
5.2049456,4.483978,-0.6420528,0.100734174,0.40073967,8.710106,-4.1802764,-0.2777274
5.205255,4.4838624,-0.6420528,0.100734174,0.40073967,8.710106,-4.1802764,-0.2777274
5.2055473,4.483793,-0.6037033,0.10712577,0.37943438,8.590396,-4.189853,-0.29209262
5.20584,4.4837227,-0.6037033,0.10712577,0.37943438,8.590396,-4.189853,-0.29209262
5.2061224,4.4836965,-0.5642885,0.11138682,0.36558592,8.566454,-4.189853,-0.18674773
5.2064047,4.4836698,-0.5642885,0.11138682,0.36558592,8.566454,-4.189853,-0.18674773
5.2066765,4.4836802,-0.5227432,0.11245208,0.35706383,8.623915,-4.1659107,-0.11492168
5.2069483,4.4836907,-0.5227432,0.11245208,0.35706383,8.623915,-4.1659107,-0.11492168
5.2072234,4.483746,-0.48226315,0.11351735,0.35812908,8.690952,-4.232949,-0.10534488
5.2074986,4.483801,-0.48226315,0.11351735,0.35812908,8.690952,-4.232949,-0.10534488
5.2077775,4.483895,-0.4417831,0.11351735,0.36771646,8.748413,-4.1946416,-0.090979666
5.2080564,4.4839883,-0.4417831,0.11351735,0.36771646,8.748413,-4.1946416,-0.090979666
5.2083464,4.484125,-0.40130305,0.11351735,0.38369542,8.767567,-4.1802764,-0.17238252
5.2086353,4.4842606,-0.40130305,0.11351735,0.38369542,8.767567,-4.1802764,-0.17238252
5.208941,4.4844465,-0.35975775,0.11564788,0.40393546,8.801085,-4.1659107,-0.18674773
5.2092466,4.484632,-0.35975775,0.11564788,0.40393546,8.801085,-4.1659107,-0.18674773
5.209571,4.484873,-0.3192777,0.1209742,0.4295018,8.748413,-4.098873,-0.19632454
5.209895,4.4851127,-0.3192777,0.1209742,0.4295018,8.748413,-4.098873,-0.19632454
5.2103653,4.4855175,-0.27879766,0.12736578,0.46039447,8.652645,-4.0892963,-0.29209262
5.210601,4.4857197,-0.27879766,0.12736578,0.46039447,8.652645,-4.0892963,-0.29209262
5.2109823,4.486077,-0.23725234,0.13162684,0.49767873,8.628703,-3.9983168,-0.3878607
5.2113442,4.4864144,-0.23725234,0.13162684,0.49767873,8.628703,-3.9983168,-0.3878607
5.211759,4.48684,-0.19357648,0.1390837,0.5413546,8.566454,-4.027047,-0.34955344
5.212178,4.487268,-0.19357648,0.1390837,0.5413546,8.566454,-4.027047,-0.34955344
5.212642,4.487767,-0.14883539,0.14334476,0.5882262,8.599973,-4.0462008,-0.36391866
5.2131047,4.488263,-0.14883539,0.14334476,0.5882262,8.599973,-4.0462008,-0.36391866
5.2136316,4.4888453,-0.10302901,0.14547528,0.6393589,8.6095495,-4.189853,-0.34955344
5.214157,4.489424,-0.10302901,0.14547528,0.6393589,8.6095495,-4.189853,-0.34955344
5.2147365,4.4900646,-0.058287904,0.14334476,0.69475263,8.700529,-4.237737,-0.35434186
5.2153172,4.4907045,-0.058287904,0.14334476,0.69475263,8.700529,-4.237737,-0.35434186
5.2159653,4.4914184,-0.015677327,0.14334476,0.75121164,8.7771435,-4.3957543,-0.320823
5.216613,4.49213,-0.015677327,0.14334476,0.75121164,8.7771435,-4.3957543,-0.320823
5.217328,4.4929137,0.022672193,0.14547528,0.8098012,8.75799,-4.501099,-0.33997664
5.218042,4.4936934,0.022672193,0.14547528,0.8098012,8.75799,-4.501099,-0.33997664
5.2188177,4.494533,0.055695392,0.14654055,0.8673255,8.834604,-4.606444,-0.37349546
5.219593,4.495369,0.055695392,0.14654055,0.8673255,8.834604,-4.606444,-0.37349546
5.220447,4.496266,0.08552279,0.14654055,0.92591506,8.781932,-4.759673,-0.32561144
5.2213,4.4971595,0.08552279,0.14654055,0.92591506,8.781932,-4.759673,-0.32561144
5.2222233,4.4981,0.10895862,0.14654055,0.98556983,8.7771435,-4.8698063,-0.31603462
5.223146,4.499037,0.10895862,0.14654055,0.98556983,8.7771435,-4.8698063,-0.31603462
5.224142,4.5000114,0.12493758,0.14547528,1.0452247,8.7532015,-4.960786,-0.44532153
5.2251368,4.5009813,0.12493758,0.14547528,1.0452247,8.7532015,-4.960786,-0.44532153
5.226202,4.501976,0.13559023,0.14334476,1.1006184,8.671799,-5.046977,-0.4165911
5.2272663,4.502968,0.13559023,0.14334476,1.1006184,8.671799,-5.046977,-0.4165911
5.2283797,4.503977,0.14411235,0.14014897,1.1549469,8.6813755,-5.0661306,-0.320823
5.229492,4.504982,0.14411235,0.14014897,1.1549469,8.6813755,-5.0661306,-0.320823
5.2306633,4.5060015,0.14943866,0.13695318,1.2060796,8.647857,-5.12838,-0.31603462
5.231834,4.5070167,0.14943866,0.13695318,1.2060796,8.647857,-5.12838,-0.31603462
5.2330484,4.5080495,0.15263446,0.13801843,1.2540165,8.590396,-5.085284,-0.29209262
5.234261,4.5090775,0.15263446,0.13801843,1.2540165,8.590396,-5.085284,-0.29209262
5.2355137,4.5101347,0.15583025,0.14654055,1.2987576,8.48984,-5.032612,-0.22026655
5.236765,4.511186,0.15583025,0.14654055,1.2987576,8.48984,-5.032612,-0.22026655
5.238045,4.5122743,0.16009131,0.16038899,1.340303,8.470686,-4.9224787,-0.32561144
5.239324,4.513357,0.16009131,0.16038899,1.340303,8.470686,-4.9224787,-0.32561144
5.2406287,4.514481,0.16541763,0.17743322,1.3797177,8.341399,-4.7788267,-0.45010993
5.241931,4.5155983,0.16541763,0.17743322,1.3797177,8.341399,-4.7788267,-0.45010993
5.2432218,4.51674,0.17287448,0.19767325,1.4148715,8.269572,-4.5872903,-0.62728083
5.244512,4.5178757,0.17287448,0.19767325,1.4148715,8.269572,-4.5872903,-0.62728083
5.245781,4.518988,0.18033133,0.216848,1.44896,8.169016,-4.4580035,-0.7661445
5.2470474,4.5200887,0.18033133,0.216848,1.44896,8.169016,-4.4580035,-0.7661445
5.248319,4.521097,0.18991871,0.23708802,1.4819831,8.1163435,-4.295198,-0.90500826
5.249592,4.522099,0.18991871,0.23708802,1.4819831,8.1163435,-4.295198,-0.90500826
5.2509103,4.5230722,0.19844083,0.25519753,1.5118105,8.034941,-4.0940847,-1.0534488
5.252228,4.524041,0.19844083,0.25519753,1.5118105,8.034941,-4.0940847,-1.0534488
5.2535777,4.525031,0.20696294,0.2711765,1.5384421,8.0445175,-3.9264908,-1.1683705
5.254927,4.526017,0.20696294,0.2711765,1.5384421,8.0445175,-3.9264908,-1.1683705
5.2562943,4.527046,0.21228927,0.28395966,1.5650737,7.991845,-3.7828386,-1.1348516
5.257662,4.5280714,0.21228927,0.28395966,1.5650737,7.991845,-3.7828386,-1.1348516
5.2590513,4.5291243,0.21548507,0.29567757,1.5917053,8.034941,-3.6583402,-1.1540052
5.26044,4.5301733,0.21548507,0.29567757,1.5917053,8.034941,-3.6583402,-1.1540052
5.261847,4.531272,0.21761559,0.3063302,1.6183369,8.058883,-3.53863,-1.043872
5.263252,4.532364,0.21761559,0.3063302,1.6183369,8.058883,-3.53863,-1.043872
5.2646794,4.5335183,0.21761559,0.31698287,1.647099,8.159439,-3.4715924,-0.8619126
5.2661057,4.534665,0.21761559,0.31698287,1.647099,8.159439,-3.4715924,-0.8619126
5.267562,4.535866,0.21761559,0.32870078,1.6769265,8.274361,-3.4811692,-0.7182605
5.2690177,4.5370584,0.21761559,0.32870078,1.6769265,8.274361,-3.4811692,-0.7182605
5.270505,4.538303,0.2144198,0.33722287,1.7046233,8.432379,-3.5673606,-0.50757074
5.2719927,4.5395403,0.2144198,0.33722287,1.7046233,8.432379,-3.5673606,-0.50757074
5.2735186,4.5408196,0.21015874,0.345745,1.7365813,8.451532,-3.739743,-0.35913026
5.2750454,4.5420914,0.21015874,0.345745,1.7365813,8.451532,-3.739743,-0.35913026
5.276615,4.543395,0.20163663,0.35107133,1.7685392,8.432379,-3.964798,-0.22984336
5.278186,4.5446916,0.20163663,0.35107133,1.7685392,8.432379,-3.964798,-0.22984336
5.2798004,4.546004,0.18885344,0.35533237,1.8026277,8.2169,-4.0653543,-0.15322891
5.281415,4.547308,0.18885344,0.35533237,1.8026277,8.2169,-4.0653543,-0.15322891
5.283085,4.548624,0.17180921,0.35639766,1.8399119,8.001422,-4.1802764,-0.038307227
5.2847543,4.5499315,0.17180921,0.35639766,1.8399119,8.001422,-4.1802764,-0.038307227
5.2864733,4.5512276,0.15156919,0.35533237,1.8835878,7.747637,-4.185065,-0.06703765
5.2881894,4.5525126,0.15156919,0.35533237,1.8835878,7.747637,-4.185065,-0.06703765
5.2899895,4.5537972,0.13026391,0.35107133,1.9357858,7.608773,-4.146757,-0.07182605
5.2917347,4.5550337,0.13026391,0.35107133,1.9357858,7.608773,-4.146757,-0.07182605
5.2935524,4.5562496,0.11108914,0.34467974,1.99331,7.6231384,-4.0557775,-0.1388637
5.295369,4.5574565,0.11108914,0.34467974,1.99331,7.6231384,-4.0557775,-0.1388637
5.2972403,4.5586267,0.09511018,0.33615762,2.0540302,7.7189064,-3.9073372,-0.110133275
5.2996054,4.560093,0.09511018,0.33615762,2.0540302,7.7189064,-3.9073372,-0.110133275
5.301115,4.560975,0.08445753,0.32870078,2.1115544,7.8386164,-3.7588966,-0.17238252
5.304988,4.563188,0.08019647,0.3212439,2.1690786,7.9487495,-3.5913026,-0.009576807
5.304988,4.563188,0.08019647,0.3212439,2.1690786,7.9487495,-3.5913026,-0.009576807
5.306934,4.564269,0.08019647,0.3212439,2.1690786,7.9487495,-3.5913026,-0.009576807
5.3090434,4.5654087,0.082327,0.3191134,2.2255378,7.9391727,-3.4476504,0.04309563
5.3090434,4.5654087,0.082327,0.3191134,2.2255378,7.9391727,-3.4476504,0.04309563
5.313673,4.567877,0.09084912,0.3212439,2.2809315,7.867347,-3.3423057,0.07182605
5.31509,4.5686197,0.09084912,0.3212439,2.2809315,7.867347,-3.3423057,0.07182605
5.317244,4.569752,0.105762824,0.32870078,2.3373904,7.8529816,-3.169923,0.20111294
5.319396,4.5708747,0.105762824,0.32870078,2.3373904,7.8529816,-3.169923,0.20111294
5.3216014,4.572035,0.1270681,0.3425492,2.3970451,7.819463,-2.9735985,0.22026655
5.3238096,4.5731874,0.1270681,0.3425492,2.3970451,7.819463,-2.9735985,0.22026655
5.3260803,4.5743876,0.15050393,0.35959345,2.4588306,7.8290396,-2.8395233,0.22026655
5.328345,4.5755754,0.15050393,0.35959345,2.4588306,7.8290396,-2.8395233,0.22026655
5.330669,4.5768094,0.17393975,0.37770292,2.5206158,7.8146744,-2.7389667,0.18674773
5.332987,4.57803,0.17393975,0.37770292,2.5206158,7.8146744,-2.7389667,0.18674773
5.3353753,4.579293,0.19737557,0.39581242,2.5866623,7.8290396,-2.5905263,0.033518825
5.337762,4.5805435,0.19737557,0.39581242,2.5866623,7.8290396,-2.5905263,0.033518825
5.3402076,4.5818286,0.21974611,0.41392192,2.658035,7.6231384,-2.4037786,-0.08619126
5.342664,4.583108,0.21974611,0.41392192,2.658035,7.6231384,-2.4037786,-0.08619126
5.3451886,4.584417,0.2410514,0.43416196,2.7357993,7.4842744,-2.2744915,-0.31603462
5.34771,4.5857134,0.2410514,0.43416196,2.7357993,7.4842744,-2.2744915,-0.31603462
5.3503194,4.5870543,0.2591609,0.45546725,2.8220859,7.3166804,-2.1068976,-0.3878607
5.3529243,4.588382,0.2591609,0.45546725,2.8220859,7.3166804,-2.1068976,-0.3878607
5.3529243,4.588382,0.2740746,0.47677252,2.915829,7.335834,-1.8770541,-0.49320555
5.358426,4.5911546,0.2740746,0.47677252,2.915829,7.335834,-1.8770541,-0.49320555
5.3611803,4.5925183,0.28792304,0.49488202,3.0138333,7.40766,-1.6567876,-0.6560113
5.3639326,4.5938687,0.28792304,0.49488202,3.0138333,7.40766,-1.6567876,-0.6560113
5.366809,4.5952635,0.3007062,0.5023389,3.1129029,7.3885064,-1.5131354,-0.56982
5.369695,4.5966506,0.3007062,0.5023389,3.1129029,7.3885064,-1.5131354,-0.56982
5.3726916,4.598039,0.31455466,0.4927515,3.2130377,7.2544312,-1.3599066,-0.6607997
5.375692,4.5994167,0.31455466,0.4927515,3.2130377,7.2544312,-1.3599066,-0.6607997
5.3787985,4.60078,0.3284031,0.46931568,3.3153033,7.062895,-1.3120226,-0.6607997
5.3819056,4.602131,0.3284031,0.46931568,3.3153033,7.062895,-1.3120226,-0.6607997
5.385124,4.6034446,0.33905575,0.43203142,3.4218297,6.83784,-1.1827357,-0.6991069
5.3883433,4.604746,0.33905575,0.43203142,3.4218297,6.83784,-1.1827357,-0.6991069
5.391685,4.605995,0.34970838,0.381964,3.5347476,6.6989765,-1.0247183,-0.770933
5.395021,4.607231,0.34970838,0.381964,3.5347476,6.6989765,-1.0247183,-0.770933
5.3984866,4.608395,0.35290417,0.3223092,3.6540573,6.588843,-0.7374141,-0.90021986
5.4019537,4.6095486,0.35290417,0.3223092,3.6540573,6.588843,-0.7374141,-0.90021986
5.405555,4.6106095,0.34864312,0.2615891,3.7797585,6.4787097,-0.4357447,-1.2737153
5.4091606,4.6116614,0.34864312,0.2615891,3.7797585,6.4787097,-0.4357447,-1.2737153
5.412911,4.6126227,0.33585995,0.20406483,3.9193082,6.220136,-0.062249243,-1.6136919
5.4166617,4.6135745,0.33585995,0.20406483,3.9193082,6.220136,-0.062249243,-1.6136919
5.420569,4.6144347,0.31348938,0.1508016,4.0663147,5.7508726,0.35913026,-1.9201498
5.424476,4.6152873,0.31348938,0.1508016,4.0663147,5.7508726,0.35913026,-1.9201498
5.4285393,4.616043,0.2804662,0.09966891,4.220778,5.2768207,0.81402856,-2.2266076
5.4326186,4.616794,0.2804662,0.09966891,4.220778,5.2768207,0.81402856,-2.2266076
5.43686,4.6174455,0.23892088,0.045340426,4.3880243,4.817134,1.2258313,-2.3511062
5.4411106,4.618092,0.23892088,0.045340426,4.3880243,4.817134,1.2258313,-2.3511062
5.445548,4.6186304,0.19204924,-0.015379649,4.57125,4.55856,1.5801731,-2.5474305
5.449981,4.619163,0.19204924,-0.015379649,4.57125,4.55856,1.5801731,-2.5474305
5.454617,4.6195903,0.13878602,-0.079295516,4.764063,4.390966,1.8962077,-2.5091233
5.459253,4.620013,0.13878602,-0.079295516,4.764063,4.390966,1.8962077,-2.5091233
5.4641004,4.620321,0.07913121,-0.14747244,4.9643326,4.343082,2.15957,-2.5474305
5.4689426,4.620624,0.07913121,-0.14747244,4.9643326,4.343082,2.15957,-2.5474305
5.473995,4.620804,0.010954284,-0.21777989,5.1731243,4.3047748,2.3750482,-2.5617957
5.479053,4.6209807,0.010954284,-0.21777989,5.1731243,4.3047748,2.3750482,-2.5617957
5.4843307,4.621031,-0.06467949,-0.28595683,5.387243,4.223372,2.4037786,-2.5187001
5.4896083,4.621079,-0.06467949,-0.28595683,5.387243,4.223372,2.4037786,-2.5187001
5.495106,4.621002,-0.14883539,-0.34880742,5.6034913,4.1515455,2.336741,-2.3463178
5.500604,4.620925,-0.14883539,-0.34880742,5.6034913,4.1515455,2.336741,-2.3463178
5.506328,4.620719,-0.24683972,-0.40739697,5.828262,4.1180267,1.934515,-1.958457
5.512052,4.620514,-0.24683972,-0.40739697,5.828262,4.1180267,1.934515,-1.958457
5.518001,4.6201777,-0.35656196,-0.45959494,6.0551634,3.9839516,1.115698,-1.4556746
5.523956,4.6198425,-0.35656196,-0.45959494,6.0551634,3.9839516,1.115698,-1.4556746
5.5301313,4.619384,-0.47906736,-0.50966233,6.286326,3.787627,-0.07182605,-0.7517793
5.536307,4.6189275,-0.47906736,-0.50966233,6.286326,3.787627,-0.07182605,-0.7517793
5.5427203,4.618395,-0.61968225,-0.5544035,6.520684,3.466804,-1.6184803,0.1340753
5.54914,4.6178637,-0.61968225,-0.5544035,6.520684,3.466804,-1.6184803,0.1340753
5.5559278,4.617255,-0.7773414,-0.592753,6.7561073,2.8299465,-3.3327289,0.81881696
5.56272,4.616648,-0.7773414,-0.592753,6.7561073,2.8299465,-3.3327289,0.81881696
5.569809,4.615841,-0.9541753,-0.6247109,6.996857,2.2361844,-5.0038815,1.364695
5.5768967,4.6150374,-0.9541753,-0.6247109,6.996857,2.2361844,-5.0038815,1.364695
5.584256,4.6140184,-1.1480534,-0.65666884,7.2439985,1.6089035,-6.6271505,1.5610195
5.5916076,4.6130066,-1.1480534,-0.65666884,7.2439985,1.6089035,-6.6271505,1.5610195
5.599229,4.6117716,-1.3493885,-0.6971489,7.49114,1.0869676,-8.030152,1.4987702
5.606849,4.6105433,-1.3493885,-0.6971489,7.49114,1.0869676,-8.030152,1.4987702
5.6147237,4.609091,-1.5507234,-0.7450858,7.732955,0.7565677,-9.217676,1.2497733
5.6226063,4.607646,-1.5507234,-0.7450858,7.732955,0.7565677,-9.217676,1.2497733
5.6307144,4.6059866,-1.7446015,-0.7994143,7.9577255,0.6655881,-10.386047,1.0486604
5.638815,4.604339,-1.7446015,-0.7994143,7.9577255,0.6655881,-10.386047,1.0486604
5.647145,4.602484,-1.9225007,-0.86439544,8.162256,0.62249243,-11.520899,0.90021986
5.6554575,4.600644,-1.9225007,-0.86439544,8.162256,0.62249243,-11.520899,0.90021986
5.663974,4.5986156,-2.0780294,-0.9368334,8.340156,0.5602432,-12.77546,0.8475474
5.672481,4.596602,-2.0780294,-0.9368334,8.340156,0.5602432,-12.77546,0.8475474
5.6811457,4.5944242,-2.210122,-1.0135324,8.488228,0.37349546,-14.092271,0.79487497
5.6898007,4.5922623,-2.210122,-1.0135324,8.488228,0.37349546,-14.092271,0.79487497
5.698591,4.589958,-2.3230402,-1.0881009,8.606472,0.33039984,-15.294161,0.78529817
5.707391,4.5876656,-2.3230402,-1.0881009,8.606472,0.33039984,-15.294161,0.78529817
5.7162786,4.5852523,-2.4189138,-1.1594737,8.693824,0.33039984,-16.43859,0.58897364
5.7251663,4.5828533,-2.4189138,-1.1594737,8.693824,0.33039984,-16.43859,0.58897364
5.7341166,4.58035,-2.5020046,-1.2244548,8.755609,0.49320555,-17.324444,0.33039984
5.7430754,4.5778604,-2.5020046,-1.2244548,8.755609,0.49320555,-17.324444,0.33039984
5.7520714,4.5752816,-2.572312,-1.2798486,8.783306,0.7374141,-18.042704,0.062249243
5.761067,4.572718,-2.572312,-1.2798486,8.783306,0.7374141,-18.042704,0.062249243
5.7700663,4.5700855,-2.6277058,-1.3224591,8.777979,1.0055647,-18.55985,-0.33997664
5.779065,4.5674677,-2.6277058,-1.3224591,8.777979,1.0055647,-18.55985,-0.33997664
5.788036,4.564798,-2.6681857,-1.3544171,8.740695,1.115698,-18.794483,-0.79487497
5.7970057,4.5621424,-2.6681857,-1.3544171,8.740695,1.115698,-18.794483,-0.79487497
5.8059096,4.5594563,-2.6905563,-1.3725265,8.668257,1.091756,-18.86152,-1.2162545
5.8148227,4.5567822,-2.6905563,-1.3725265,8.668257,1.091756,-18.86152,-1.2162545
5.8236327,4.5540957,-2.6948175,-1.3778529,8.567057,0.7565677,-18.392258,-1.8722657
5.8324423,4.5514226,-2.6948175,-1.3778529,8.567057,0.7565677,-18.392258,-1.8722657
5.8411174,4.548757,-2.68523,-1.3757224,8.437095,1.2785037,-18.181568,-2.2840683
5.8498006,4.546101,-2.68523,-1.3757224,8.437095,1.2785037,-18.181568,-2.2840683
5.858343,4.543455,-2.660729,-1.3576128,8.284761,0.47405192,-17.262194,-3.0071173
5.866876,4.5408225,-2.660729,-1.3576128,8.284761,0.47405192,-17.262194,-3.0071173
5.875231,4.538226,-2.620249,-1.3395034,8.105798,0.79487497,-16.654066,-3.2513258
5.8835855,4.535639,-2.620249,-1.3395034,8.105798,0.79487497,-16.654066,-3.2513258
5.891731,4.5330997,-2.5680509,-1.325655,7.8959403,1.4796166,-15.993267,-3.2082303
5.8998675,4.530571,-2.5680509,-1.325655,7.8959403,1.4796166,-15.993267,-3.2082303
5.907788,4.528092,-2.5009394,-1.2905012,7.667974,1.8339585,-14.72434,-3.41892
5.915692,4.525625,-2.5009394,-1.2905012,7.667974,1.8339585,-14.72434,-3.41892
5.9233737,4.52322,-2.4242404,-1.2297812,7.4197674,1.9488802,-13.589489,-3.4763808
5.9310017,4.520837,-2.4242404,-1.2297812,7.4197674,1.9488802,-13.589489,-3.4763808
5.9383655,4.5185328,-2.3454106,-1.1541474,7.145994,2.4133554,-12.880805,-3.2513258
5.9457283,4.5162334,-2.3454106,-1.1541474,7.145994,2.4133554,-12.880805,-3.2513258
5.9527807,4.5140224,-2.2644506,-1.0625346,6.8530464,2.327164,-12.0332575,-3.1555579
5.959832,4.5118136,-2.2644506,-1.0625346,6.8530464,2.327164,-12.0332575,-3.1555579
5.966541,4.5096836,-2.18136,-0.96346503,6.5419893,2.5139117,-11.152191,-3.083732
5.973247,4.507555,-2.18136,-0.96346503,6.5419893,2.5139117,-11.152191,-3.083732
5.9795675,4.5055013,-2.0982692,-0.8622649,6.2138877,2.8395233,-10.290278,-2.858677
5.985894,4.503443,-2.0982692,-0.8622649,6.2138877,2.8395233,-10.290278,-2.858677
5.9918823,4.5014434,-2.0141134,-0.75147736,5.8783293,3.0071173,-9.452309,-2.6862943
5.997706,4.4994955,-2.0141134,-0.75147736,5.8783293,3.0071173,-9.452309,-2.6862943
6.003329,4.497585,-1.9320881,-0.6311025,5.540641,2.8443117,-8.595184,-2.5761611
6.008738,4.4957447,-1.9320881,-0.6311025,5.540641,2.8443117,-8.595184,-2.5761611
6.013924,4.493964,-1.8479322,-0.5085971,5.2050824,2.3223755,-7.651869,-2.6527755
6.0190988,4.492184,-1.8479322,-0.5085971,5.2050824,2.3223755,-7.651869,-2.6527755
6.023964,4.490499,-1.762711,-0.39354852,4.882307,1.685518,-6.7612257,-2.8874073
6.028835,4.488809,-1.762711,-0.39354852,4.882307,1.685518,-6.7612257,-2.8874073
6.033385,4.487217,-1.6753594,-0.29980525,4.5819025,1.1731589,-5.8945246,-3.083732
6.037959,4.4856133,-1.6753594,-0.29980525,4.5819025,1.1731589,-5.8945246,-3.083732
6.042223,4.4841013,-1.5880077,-0.23162833,4.30813,0.9959879,-5.0757074,-3.1316159
6.046501,4.482581,-1.5880077,-0.23162833,4.30813,0.9959879,-5.0757074,-3.1316159
6.050502,4.4811454,-1.500656,-0.18582197,4.0652494,1.1061212,-4.3478703,-3.0789435
6.0545044,4.4797063,-1.500656,-0.18582197,4.0652494,1.1061212,-4.3478703,-3.0789435
6.0582676,4.478352,-1.4111738,-0.15599456,3.8553922,1.3024458,-3.7780502,-2.9161377
6.062047,4.4769893,-1.4111738,-0.15599456,3.8553922,1.3024458,-3.7780502,-2.9161377
6.0656176,4.4757195,-1.3216915,-0.13149348,3.6849499,1.4269443,-3.3279405,-2.5570073
6.0692,4.4744425,-1.3216915,-0.13149348,3.6849499,1.4269443,-3.3279405,-2.5570073
6.0726204,4.473261,-1.2311441,-0.110188186,3.551792,1.4556746,-3.0071173,-2.15957
6.0760484,4.4720736,-1.2311441,-0.110188186,3.551792,1.4556746,-3.0071173,-2.15957
6.0793686,4.4709864,-1.1374007,-0.08888289,3.463375,1.2545617,-2.8921957,-1.7525556
6.08265,4.46991,-1.1374007,-0.08888289,3.463375,1.2545617,-2.8921957,-1.7525556
6.0859284,4.468919,-1.0404618,-0.06544708,3.4165034,0.9816227,-2.8874073,-1.3742718
6.0892534,4.4679117,-1.0404618,-0.06544708,3.4165034,0.9816227,-2.8874073,-1.3742718
6.092606,4.467021,-0.9435227,-0.044141788,3.4175687,0.5410896,-3.122039,-1.1013328
6.092606,4.467021,-0.9435227,-0.044141788,3.4175687,0.5410896,-3.122039,-1.1013328
6.092606,4.467021,-0.9435227,-0.044141788,3.4175687,0.5410896,-3.122039,-1.1013328
6.092606,4.467021,-0.9435227,-0.044141788,3.4175687,0.5410896,-3.122039,-1.1013328
6.107299,4.464866,-0.7443182,-0.015379649,3.5741625,-0.545878,-4.4723687,-0.21547815
6.110644,4.4643703,-0.7443182,-0.015379649,3.5741625,-0.545878,-4.4723687,-0.21547815
6.1142898,4.4639564,-0.6484444,-0.010053327,3.7243648,-0.82360536,-5.899313,0.4261679
6.117946,4.4635386,-0.6484444,-0.010053327,3.7243648,-0.82360536,-5.899313,0.4261679
6.121646,4.46323,-0.5589622,-0.011118591,3.9214387,-0.7469909,-7.9008656,0.90979666
6.1254954,4.4629064,-0.5589622,-0.011118591,3.9214387,-0.7469909,-7.9008656,0.90979666
6.1295686,4.462664,-0.4843937,-0.017510178,4.151536,-0.5554548,-10.295067,1.2497733
6.1336403,4.4624176,-0.4843937,-0.017510178,4.151536,-0.5554548,-10.295067,1.2497733
6.1379633,4.462225,-0.433261,-0.03455441,4.405069,-0.7326257,-12.856863,1.388637
6.1423025,4.4620266,-0.433261,-0.03455441,4.405069,-0.7326257,-12.856863,1.388637
6.1468897,4.461847,-0.41408622,-0.06757761,4.6745806,-1.388637,-15.279796,1.2162545
6.1514897,4.4616613,-0.41408622,-0.06757761,4.6745806,-1.388637,-15.279796,1.2162545
6.1564007,4.461454,-0.4300652,-0.121906094,4.949419,-1.8722657,-17.310078,0.8523358
6.161262,4.461243,-0.4300652,-0.121906094,4.949419,-1.8722657,-17.310078,0.8523358
6.166433,4.4609785,-0.47587156,-0.19860514,5.2231917,-1.9632454,-18.828003,0.14844051
6.1716175,4.4607077,-0.47587156,-0.19860514,5.2231917,-1.9632454,-18.828003,0.14844051
6.177122,4.4603586,-0.54298323,-0.29341367,5.4863124,-1.70946,-19.82399,-0.5793968
6.182532,4.4600105,-0.54298323,-0.29341367,5.4863124,-1.70946,-19.82399,-0.5793968
6.1882267,4.45957,-0.6239433,-0.3978096,5.7228007,-1.4221559,-20.432117,-1.3311762
6.1939363,4.4591227,-0.6239433,-0.3978096,5.7228007,-1.4221559,-20.432117,-1.3311762
6.199871,4.4585795,-0.70703393,-0.50114024,5.922005,-1.3311762,-20.776882,-2.054225
6.2058034,4.458032,-0.70703393,-0.50114024,5.922005,-1.3311762,-20.776882,-2.054225
6.211919,4.457393,-0.78479826,-0.60020983,6.0764685,-1.3599066,-20.944477,-2.7006595
6.2180314,4.45675,-0.78479826,-0.60020983,6.0764685,-1.3599066,-20.944477,-2.7006595
6.2242775,4.4560246,-0.8487141,-0.689692,6.1766033,-1.484405,-20.93011,-3.3758245
6.23042,4.455308,-0.8487141,-0.689692,6.1766033,-1.484405,-20.93011,-3.3758245
6.236745,4.454516,-0.89238995,-0.76745635,6.2266707,-1.733402,-20.700268,-3.845088
6.2431746,4.4537077,-0.89238995,-0.76745635,6.2266707,-1.733402,-20.700268,-3.845088
6.249547,4.4528666,-0.91263,-0.83350277,6.2319975,-1.9440918,-20.369867,-4.3622355
6.25586,4.45203,-0.91263,-0.83350277,6.2319975,-1.9440918,-20.369867,-4.3622355
6.2622056,4.451174,-0.9051731,-0.8835702,6.1968436,-2.030283,-19.962854,-4.6782703
6.2685814,4.450311,-0.9051731,-0.8835702,6.1968436,-2.030283,-19.962854,-4.6782703
6.2748666,4.449462,-0.87001944,-0.9133976,6.1201444,-1.9440918,-19.426552,-5.0038815
6.2811513,4.4486094,-0.87001944,-0.9133976,6.1201444,-1.9440918,-19.426552,-5.0038815
0.0041419147,4.447798,-0.8050383,-0.9219197,6.0040307,-1.7286136,-18.851944,-5.171476
0.010317714,4.4469824,-0.8050383,-0.9219197,6.0040307,-1.7286136,-18.851944,-5.171476
0.016343787,4.4462643,-0.71022975,-0.9176586,5.8506327,-1.3215994,-18.104954,-4.912902
0.022369277,4.4455447,-0.71022975,-0.9176586,5.8506327,-1.3215994,-18.104954,-4.912902
0.02814922,4.4448657,-0.582398,-0.8974186,5.6610155,-1.4508862,-17.132908,-5.674258
0.033929422,4.44418,-0.582398,-0.8974186,5.6610155,-1.4508862,-17.132908,-5.674258
0.039494697,4.4436398,-0.43219572,-0.8441554,5.4468975,-1.6567876,-16.500837,-5.6359506
0.04504933,4.4430943,-0.43219572,-0.8441554,5.4468975,-1.6567876,-16.500837,-5.6359506
0.050361387,4.4427104,-0.26921028,-0.7642606,5.212539,-1.6376339,-15.859192,-5.2863975
0.05566239,4.4423203,-0.26921028,-0.7642606,5.212539,-1.6376339,-15.859192,-5.2863975
0.060710404,4.4421077,-0.093441635,-0.6673215,4.9590063,-1.6711528,-15.093047,-4.8937483
0.06575262,4.441888,-0.093441635,-0.6673215,4.9590063,-1.6711528,-15.093047,-4.8937483
0.07051056,4.4418554,0.09084912,-0.5597298,4.679907,-1.6759412,-14.269443,-4.4963107
0.07526265,4.4418163,0.09084912,-0.5597298,4.679907,-1.6759412,-14.269443,-4.4963107
0.079715915,4.4419785,0.27940091,-0.44681177,4.377372,-1.6089035,-13.484144,-4.0318356
0.08416392,4.4421325,0.27940091,-0.44681177,4.377372,-1.6089035,-13.484144,-4.0318356
0.08829044,4.442501,0.46475694,-0.33602425,4.0535316,-1.3694834,-12.770672,-3.596091
0.09242039,4.442857,0.46475694,-0.33602425,4.0535316,-1.3694834,-12.770672,-3.596091
0.095917866,4.443434,0.6405256,-0.23056307,3.709451,-1.0486604,-12.018892,-3.3135753
0.0994155,4.443999,0.6405256,-0.23056307,3.709451,-1.0486604,-12.018892,-3.3135753
0.10253854,4.4447284,0.80031526,-0.13255873,3.3472612,-0.8571242,-11.314998,-3.098097
0.105662055,4.4454517,0.80031526,-0.13255873,3.3472612,-0.8571242,-11.314998,-3.098097
0.10841312,4.446265,0.9366691,-0.040945996,2.9712229,-0.9576807,-10.726024,-3.0119057
0.1111643,4.4470778,0.9366691,-0.040945996,2.9712229,-0.9576807,-10.726024,-3.0119057
0.1136056,4.4479475,1.0463914,0.040014103,2.5887928,-1.1492168,-10.208876,-2.8443117
0.116026595,4.4488235,1.0463914,0.040014103,2.5887928,-1.1492168,-10.208876,-2.8443117
0.11824326,4.4498096,1.1273514,0.10819103,2.206363,-1.436521,-9.710882,-2.7629087
0.120453544,4.4507885,1.1273514,0.10819103,2.206363,-1.436521,-9.710882,-2.7629087
0.12232331,4.4518843,1.1806147,0.16465004,1.8345857,-1.6376339,-9.279925,-2.5091233
0.12419357,4.452976,1.1806147,0.16465004,1.8345857,-1.6376339,-9.279925,-2.5091233
0.12570807,4.454163,1.2093768,0.20619535,1.4819831,-1.8148049,-8.987833,-2.15957
0.12723008,4.455353,1.2093768,0.20619535,1.4819831,-1.8148049,-8.987833,-2.15957
0.12841402,4.456572,1.2189642,0.2349575,1.1528164,-1.9440918,-8.762778,-1.9297266
0.12954068,4.4577303,1.2189642,0.2349575,1.1528164,-1.9440918,-8.762778,-1.9297266
0.13039868,4.4589353,1.2136378,0.2498712,0.8524118,-2.0254946,-8.628703,-1.70946
0.1312803,4.460171,1.2136378,0.2498712,0.8524118,-2.0254946,-8.628703,-1.70946
0.13189034,4.461378,1.1976589,0.24774067,0.58716094,-2.078167,-8.451532,-1.6089035
0.13249837,4.462579,1.1976589,0.24774067,0.58716094,-2.078167,-8.451532,-1.6089035
0.13288982,4.463786,1.1742231,0.2349575,0.35599855,-2.1499932,-8.288726,-1.4556746
0.13332042,4.46511,1.1742231,0.2349575,0.35599855,-2.1499932,-8.288726,-1.4556746
0.13350968,4.466177,1.1465262,0.20939115,0.16105516,-2.1930888,-8.111555,-1.3982137
0.13371561,4.4673324,1.1465262,0.20939115,0.16105516,-2.1930888,-8.111555,-1.3982137
0.13378617,4.468479,1.113503,0.17210689,0.0033960221,-2.1930888,-7.872135,-1.388637
0.13385753,4.469625,1.113503,0.17210689,0.0033960221,-2.1930888,-7.872135,-1.388637
0.13382111,4.470747,1.0783492,0.12630053,-0.11271781,-2.1164744,-7.7093296,-1.2737153
0.13378535,4.4718723,1.0783492,0.12630053,-0.11271781,-2.1164744,-7.7093296,-1.2737153
0.1336757,4.472984,1.0463914,0.0762331,-0.19154738,-1.9153614,-7.465121,-1.1779473
0.13356684,4.474094,1.0463914,0.0762331,-0.19154738,-1.9153614,-7.465121,-1.1779473
0.1334305,4.475177,1.0154986,0.0251004,-0.23735374,-1.7669208,-7.120356,-1.2114661
0.13329457,4.4762607,1.0154986,0.0251004,-0.23735374,-1.7669208,-7.120356,-1.2114661
0.13315313,4.477331,0.9909976,-0.02496703,-0.2501369,-1.5705963,-6.871359,-1.1971009
0.1330124,4.4784007,0.9909976,-0.02496703,-0.2501369,-1.5705963,-6.871359,-1.1971009
0.1329001,4.479457,0.9728881,-0.07183866,-0.23202743,-1.4891934,-6.603208,-1.1540052
0.1327883,4.4805145,0.9728881,-0.07183866,-0.23202743,-1.4891934,-6.603208,-1.1540052
0.13272323,4.4815702,0.9633007,-0.11551451,-0.18728632,-1.4796166,-6.493075,-1.0534488
0.13265885,4.482624,0.9633007,-0.11551451,-0.18728632,-1.4796166,-6.493075,-1.0534488
0.13265303,4.483693,0.96223545,-0.15812509,-0.1159136,-1.4556746,-6.5505357,-0.8619126
0.13264748,4.4847617,0.96223545,-0.15812509,-0.1159136,-1.4556746,-6.5505357,-0.8619126
0.13272516,4.48584,0.9654312,-0.19434407,-0.02110506,-1.4748282,-6.8091097,-0.6560113
0.13280311,4.4869204,0.9654312,-0.19434407,-0.02110506,-1.4748282,-6.8091097,-0.6560113
0.13299163,4.4880133,0.9728881,-0.22523674,0.09713929,-1.4891934,-7.1490865,-0.49320555
0.13317907,4.4890995,0.9728881,-0.22523674,0.09713929,-1.4891934,-7.1490865,-0.49320555
0.13349117,4.4901958,0.9782144,-0.25080308,0.2345584,-1.4317327,-7.7332716,-0.39264908
0.13380294,4.4912925,0.9782144,-0.25080308,0.2345584,-1.4317327,-7.7332716,-0.39264908
0.13425717,4.492389,0.9771491,-0.27210838,0.3879565,-1.3599066,-8.360553,-0.3878607
0.13471103,4.4934855,0.9771491,-0.27210838,0.3879565,-1.3599066,-8.360553,-0.3878607
0.1353195,4.49457,0.9654312,-0.2923484,0.55307245,-1.2976574,-9.088389,-0.5410896
0.13592741,4.495654,0.9654312,-0.2923484,0.55307245,-1.2976574,-9.088389,-0.5410896
0.13670665,4.4967055,0.93560386,-0.31045792,0.7256453,-1.3838485,-9.706094,-0.7613561
0.13748758,4.497761,0.93560386,-0.31045792,0.7256453,-1.3838485,-9.706094,-0.7613561
0.13845056,4.498765,0.8887322,-0.33069792,0.8992834,-1.5945383,-10.34774,-1.1252748
0.13941185,4.4997687,0.8887322,-0.33069792,0.8992834,-1.5945383,-10.34774,-1.1252748
0.1405618,4.500705,0.8216205,-0.35306847,1.0739868,-1.7860745,-10.91756,-1.3790601
0.14170845,4.5016394,0.8216205,-0.35306847,1.0739868,-1.7860745,-10.91756,-1.3790601
0.14302222,4.502489,0.7353341,-0.3797001,1.2444291,-1.7621324,-11.343728,-1.6950948
0.14433388,4.503339,0.7353341,-0.3797001,1.2444291,-1.7621324,-11.343728,-1.6950948
0.14578348,4.5040894,0.63519925,-0.40739697,1.405284,-1.6711528,-11.678916,-1.9728222
0.1472294,4.504841,0.63519925,-0.40739697,1.405284,-1.6711528,-11.678916,-1.9728222
0.14876886,4.505467,0.5222812,-0.43509385,1.5522906,-1.6136919,-11.951855,-2.2744915
0.15030132,4.5060906,0.5222812,-0.43509385,1.5522906,-1.6136919,-11.951855,-2.2744915
0.15189643,4.50651,0.40190634,-0.4606602,1.6779917,-1.5993267,-12.20564,-2.552219
0.15349482,4.506927,0.40190634,-0.4606602,1.6779917,-1.5993267,-12.20564,-2.552219
0.15522745,4.5071588,0.28153145,-0.48303074,1.7759961,-1.6089035,-12.392388,-2.8107927
0.15695792,4.507393,0.28153145,-0.48303074,1.7759961,-1.6089035,-12.392388,-2.8107927
0.15879601,4.5074887,0.16435237,-0.50327075,1.8463036,-1.685518,-12.516887,-3.0262709
0.16063069,4.507586,0.16435237,-0.50327075,1.8463036,-1.685518,-12.516887,-3.0262709
0.16253595,4.5075645,0.054630127,-0.5181845,1.8857183,-1.8195933,-12.641385,-3.2321723
0.16443771,4.507544,0.054630127,-0.5181845,1.8857183,-1.8195933,-12.641385,-3.2321723
0.16636288,4.5074267,-0.041243672,-0.53096765,1.8974363,-1.8818425,-12.717999,-3.3614593
0.1682848,4.5073104,-0.041243672,-0.53096765,1.8974363,-1.8818425,-12.717999,-3.3614593
0.17018743,4.5071173,-0.121138506,-0.53735924,1.8793267,-1.8483237,-12.751518,-3.4620156
0.17209102,4.5069237,-0.121138506,-0.53735924,1.8793267,-1.8483237,-12.751518,-3.4620156
0.17393932,4.506669,-0.18505438,-0.53735924,1.8303245,-1.8100165,-12.794614,-3.6296098
0.175789,4.506415,-0.18505438,-0.53735924,1.8303245,-1.8100165,-12.794614,-3.6296098
0.17755939,4.506119,-0.22873022,-0.5320329,1.7504297,-1.7477672,-12.823344,-3.7780502
0.17932616,4.505824,-0.22873022,-0.5320329,1.7504297,-1.7477672,-12.823344,-3.7780502
0.18098348,4.5055017,-0.25855762,-0.52244556,1.6417727,-1.70946,-12.842498,-3.9264908
0.18264093,4.5051794,-0.25855762,-0.52244556,1.6417727,-1.70946,-12.842498,-3.9264908
0.18416525,4.5048456,-0.27240607,-0.51072764,1.5054189,-1.7046716,-12.794614,-4.036624
0.18568829,4.504513,-0.27240607,-0.51072764,1.5054189,-1.7046716,-12.794614,-4.036624
0.18704705,4.504182,-0.27453658,-0.4968792,1.3424335,-1.6519991,-12.674904,-4.0462008
0.18840443,4.5038514,-0.27453658,-0.4968792,1.3424335,-1.6519991,-12.674904,-4.0462008
0.1895751,4.503535,-0.2660145,-0.4787697,1.1570774,-1.6376339,-12.555194,-3.98874
0.19074489,4.503218,-0.2660145,-0.4787697,1.1570774,-1.6376339,-12.555194,-3.98874
0.19172332,4.50292,-0.24897024,-0.4574644,0.95680773,-1.7190368,-12.258312,-3.9839516
0.19270194,4.5026217,-0.24897024,-0.4574644,0.95680773,-1.7190368,-12.258312,-3.9839516
0.19346131,4.502351,-0.22766495,-0.4329633,0.74055904,-1.7142484,-11.9614315,-3.8163576
0.1942209,4.5020795,-0.22766495,-0.4329633,0.74055904,-1.7142484,-11.9614315,-3.8163576
0.19475569,4.5018377,-0.20103334,-0.4010054,0.5157882,-1.757344,-11.645397,-3.6104562
0.19528992,4.5015965,-0.20103334,-0.4010054,0.5157882,-1.757344,-11.645397,-3.6104562
0.19559456,4.501384,-0.17440173,-0.3615906,0.28782162,-1.7764976,-11.314998,-3.4237084
0.19589905,4.5011706,-0.17440173,-0.3615906,0.28782162,-1.7764976,-11.314998,-3.4237084
0.19596423,4.5009885,-0.1456396,-0.3136537,0.056659244,-1.7381904,-10.979809,-3.2369606
0.19596423,4.5009885,-0.1456396,-0.3136537,0.056659244,-1.7381904,-10.979809,-3.2369606
0.19596423,4.5009885,-0.11474692,-0.25825995,-0.17024209,-1.8387469,-10.649409,-3.0789435
0.19548269,4.5005054,-0.11474692,-0.25825995,-0.17024209,-1.8387469,-10.649409,-3.0789435
0.19548269,4.5005054,-0.11474692,-0.25825995,-0.17024209,-1.8387469,-10.649409,-3.0789435
0.19471575,4.500241,-0.08278899,-0.19434407,-0.39394763,-1.8818425,-10.323798,-2.9735985
0.1942578,4.500143,-0.048700526,-0.12616715,-0.6059353,-1.9297266,-9.993398,-2.801216
0.19368216,4.500042,-0.048700526,-0.12616715,-0.6059353,-1.9297266,-9.993398,-2.801216
0.19292347,4.4999685,-0.013546798,-0.05692496,-0.8019439,-2.0590134,-9.753978,-2.7246015
0.19216542,4.4998956,-0.013546798,-0.05692496,-0.8019439,-2.0590134,-9.753978,-2.7246015
0.19123559,4.499856,0.024802722,0.012317227,-0.98303884,-2.1212628,-9.471462,-2.6719291
0.19030803,4.4998174,0.024802722,0.012317227,-0.98303884,-2.1212628,-9.471462,-2.6719291
0.18922886,4.4998217,0.0674133,0.074102566,-1.1438938,-2.207454,-9.255983,-2.5761611
0.18815869,4.4998255,0.0674133,0.074102566,-1.1438938,-2.207454,-9.255983,-2.5761611
0.18694855,4.499875,0.11428493,0.12736578,-1.2823782,-2.2457612,-9.074024,-2.5474305
0.1857397,4.4999256,0.11428493,0.12736578,-1.2823782,-2.2457612,-9.074024,-2.5474305
0.18443885,4.500038,0.16435237,0.17210689,-1.3963615,-2.3080103,-8.8777,-2.3511062
0.18314025,4.5001507,0.16435237,0.17210689,-1.3963615,-2.3080103,-8.8777,-2.3511062
0.1817579,4.5003223,0.21548507,0.2051301,-1.4847784,-2.3319526,-8.652645,-2.2457612
0.18037762,4.500494,0.21548507,0.2051301,-1.4847784,-2.3319526,-8.652645,-2.2457612
0.17893724,4.5007224,0.26661775,0.22963117,-1.547629,-2.2457612,-8.480263,-2.1260512
0.17749876,4.5009513,0.26661775,0.22963117,-1.547629,-2.2457612,-8.480263,-2.1260512
0.17601769,4.5012293,0.31668517,0.24347961,-1.5870438,-2.087744,-8.331821,-2.0350714
0.17453702,4.501508,0.31668517,0.24347961,-1.5870438,-2.087744,-8.331821,-2.0350714
0.17305088,4.5018644,0.36568734,0.2498712,-1.6030228,-1.9057846,-8.111555,-1.8195933
0.1715633,4.5022206,0.36568734,0.2498712,-1.6030228,-1.9057846,-8.111555,-1.8195933
0.16956717,4.5028324,0.41042846,0.25200173,-1.5976964,-1.8100165,-7.991845,-1.6184803
0.16856399,4.5031376,0.41042846,0.25200173,-1.5976964,-1.8100165,-7.991845,-1.6184803
0.16710037,4.503652,0.44877797,0.2498712,-1.5721301,-1.6807296,-7.9152308,-1.5275006
0.16564342,4.5041623,0.44877797,0.2498712,-1.5721301,-1.6807296,-7.9152308,-1.5275006
0.16422518,4.5047092,0.4807359,0.24454488,-1.5263238,-1.685518,-7.7093296,-1.4221559
0.16279317,4.5052595,0.4807359,0.24454488,-1.5263238,-1.685518,-7.7093296,-1.4221559
0.16141638,4.5058413,0.5041717,0.23602276,-1.4613426,-1.6136919,-7.627927,-1.3838485
0.16004187,4.50642,0.5041717,0.23602276,-1.4613426,-1.6136919,-7.627927,-1.3838485
0.15874282,4.5070133,0.5169549,0.22750065,-1.3814478,-1.5179238,-7.517793,-1.388637
0.15745021,4.507603,0.5169549,0.22750065,-1.3814478,-1.5179238,-7.517793,-1.388637
0.15625352,4.508195,0.5233465,0.21471748,-1.2877045,-1.5466543,-7.40766,-1.340753
0.15505876,4.5087852,0.5233465,0.21471748,-1.2877045,-1.5466543,-7.40766,-1.340753
0.15395224,4.509383,0.5190854,0.2019343,-1.1833086,-1.4891934,-7.321469,-1.2641385
0.15284896,4.5099783,0.5190854,0.2019343,-1.1833086,-1.4891934,-7.321469,-1.2641385
0.15187408,4.510552,0.50949806,0.18915112,-1.0671947,-1.5370775,-7.2592196,-1.2689269
0.15090075,4.511124,0.50949806,0.18915112,-1.0671947,-1.5370775,-7.2592196,-1.2689269
0.15005882,4.511675,0.49778014,0.17530268,-0.9436241,-1.5035586,-7.16824,-1.292869
0.14921811,4.512224,0.49778014,0.17530268,-0.9436241,-1.5035586,-7.16824,-1.292869
0.14852175,4.512736,0.48180118,0.15825845,-0.8136618,-1.4987702,-7.2113357,-1.3742718
0.14782473,4.5132475,0.48180118,0.15825845,-0.8136618,-1.4987702,-7.2113357,-1.3742718
0.14726794,4.5137115,0.46475694,0.14121422,-0.6826343,-1.5562311,-7.192182,-1.4508862
0.14671007,4.5141754,0.46475694,0.14121422,-0.6826343,-1.5562311,-7.192182,-1.4508862
0.14628303,4.514633,0.44771272,0.12310473,-0.5516068,-1.5275006,-7.28795,-1.4269443
0.14585628,4.5150895,0.44771272,0.12310473,-0.5516068,-1.5275006,-7.28795,-1.4269443
0.14556365,4.515508,0.42960322,0.10179944,-0.42057922,-1.5035586,-7.374141,-1.4987702
0.145271,4.5159254,0.42960322,0.10179944,-0.42057922,-1.5035586,-7.374141,-1.4987702
0.14510533,4.5163116,0.41255897,0.08155942,-0.2927475,-1.4748282,-7.445967,-1.541866
0.14493945,4.516697,0.41255897,0.08155942,-0.2927475,-1.4748282,-7.445967,-1.541866
0.14488745,4.517045,0.39658,0.061319392,-0.17130736,-1.4796166,-7.5465236,-1.6184803
0.14483503,4.5173926,0.39658,0.061319392,-0.17130736,-1.4796166,-7.5465236,-1.6184803
0.14488867,4.5177116,0.38060105,0.04214463,-0.05732405,-1.388637,-7.666234,-1.6328455
0.14494146,4.5180297,0.38060105,0.04214463,-0.05732405,-1.388637,-7.666234,-1.6328455
0.14509211,4.5183234,0.3646221,0.0251004,0.047071867,-1.4173675,-7.73806,-1.6807296
0.14524193,4.5186167,0.3646221,0.0251004,0.047071867,-1.4173675,-7.73806,-1.6807296
0.14546093,4.5188746,0.34864312,0.008056169,0.14188041,-1.4891934,-7.809886,-1.8626889
0.14567925,4.5191326,0.34864312,0.008056169,0.14188041,-1.4891934,-7.809886,-1.8626889
0.14597058,4.519371,0.33372942,-0.007922798,0.22390577,-1.4939818,-7.9248075,-1.934515
0.14626123,4.519609,0.33372942,-0.007922798,0.22390577,-1.4939818,-7.9248075,-1.934515
0.14661734,4.5198264,0.31668517,-0.023901764,0.29634374,-1.4891934,-8.015787,-1.9871874
0.14697273,4.5200443,0.31668517,-0.023901764,0.29634374,-1.4891934,-8.015787,-1.9871874
0.14737763,4.5202413,0.2985757,-0.03881547,0.35599855,-1.4700398,-8.12592,-2.0494366
0.14778182,4.5204372,0.2985757,-0.03881547,0.35599855,-1.4700398,-8.12592,-2.0494366
0.14822116,4.5206146,0.2804662,-0.052663904,0.3996744,-1.4269443,-8.207323,-2.0494366
0.14865969,4.5207915,0.2804662,-0.052663904,0.3996744,-1.4269443,-8.207323,-2.0494366
0.14913721,4.5209513,0.26129144,-0.06544708,0.43163234,-1.4700398,-8.37013,-2.054225
0.1496137,4.521111,0.26129144,-0.06544708,0.43163234,-1.4700398,-8.37013,-2.054225
0.15010992,4.5212502,0.23998614,-0.078230254,0.45293763,-1.4508862,-8.523358,-2.006341
0.15060484,4.5213895,0.23998614,-0.078230254,0.45293763,-1.4508862,-8.523358,-2.006341
0.15109402,4.521507,0.21868086,-0.08888289,0.46039447,-1.4269443,-8.643068,-2.0685902
0.15158199,4.521623,0.21868086,-0.08888289,0.46039447,-1.4269443,-8.643068,-2.0685902
0.15206173,4.5217204,0.19737557,-0.09740501,0.45613343,-1.4317327,-8.805874,-2.0829554
0.15254027,4.5218167,0.19737557,-0.09740501,0.45613343,-1.4317327,-8.805874,-2.0829554
0.15301175,4.5218935,0.175005,-0.105927125,0.44228497,-1.4652514,-8.973468,-2.0350714
0.15348166,4.52197,0.175005,-0.105927125,0.44228497,-1.4652514,-8.973468,-2.0350714
0.15392254,4.5220265,0.15369973,-0.11231872,0.41884917,-1.4748282,-9.155427,-2.0446482
0.15436281,4.5220833,0.15369973,-0.11231872,0.41884917,-1.4748282,-9.155427,-2.0446482
0.1547517,4.5221186,0.13026391,-0.11764504,0.390087,-1.4413095,-9.3421755,-2.0925324
0.15513934,4.522155,0.13026391,-0.11764504,0.390087,-1.4413095,-9.3421755,-2.0925324
0.1554936,4.522171,0.10895862,-0.122971356,0.35280275,-1.4796166,-9.524135,-2.135628
0.15584666,4.522187,0.10895862,-0.122971356,0.35280275,-1.4796166,-9.524135,-2.135628
0.15616158,4.5221834,0.08658806,-0.12723242,0.3101922,-1.508347,-9.65821,-2.207454
0.15647553,4.5221786,0.08658806,-0.12723242,0.3101922,-1.508347,-9.65821,-2.207454
0.1567408,4.522152,0.062086977,-0.13042821,0.26332054,-1.5035586,-9.739613,-2.2888567
0.15700541,4.5221252,0.062086977,-0.13042821,0.26332054,-1.5035586,-9.739613,-2.2888567
0.15722862,4.522073,0.03545537,-0.13255873,0.21218786,-1.5610195,-9.878476,-2.3511062
0.15745132,4.5220203,0.03545537,-0.13255873,0.21218786,-1.5610195,-9.878476,-2.3511062
0.15763488,4.5219398,0.005627962,-0.1368198,0.15892464,-1.6328455,-9.9550905,-2.4181437
0.15781803,4.5218596,0.005627962,-0.1368198,0.15892464,-1.6328455,-9.9550905,-2.4181437
0.157951,4.5217514,-0.024199443,-0.14001559,0.104596145,-1.6663644,-10.0508585,-2.4995465
0.15808369,4.521643,-0.024199443,-0.14001559,0.104596145,-1.6663644,-10.0508585,-2.4995465
0.15816009,4.521506,-0.05509211,-0.14214613,0.05026766,-1.6519991,-10.070012,-2.4995465
0.15823628,4.521369,-0.05509211,-0.14214613,0.05026766,-1.6519991,-10.070012,-2.4995465
0.1582561,4.521203,-0.08598478,-0.14427665,-0.006191358,-1.6519991,-10.113108,-2.4947581
0.15827581,4.521037,-0.08598478,-0.14427665,-0.006191358,-1.6519991,-10.113108,-2.4947581
0.15823062,4.5208416,-0.11794271,-0.14321138,-0.06371564,-1.6089035,-10.089166,-2.4229321
0.15818553,4.520646,-0.11794271,-0.14321138,-0.06371564,-1.6089035,-10.089166,-2.4229321
0.15807538,4.520419,-0.15096591,-0.1368198,-0.11910939,-1.5705963,-10.0508585,-2.336741
0.15796538,4.520192,-0.15096591,-0.1368198,-0.11910939,-1.5705963,-10.0508585,-2.336741
0.15782513,4.5199337,-0.18079332,-0.1251019,-0.17130736,-1.6519991,-10.036493,-2.2888567
0.15768532,4.5196757,-0.18079332,-0.1251019,-0.17130736,-1.6519991,-10.036493,-2.2888567
0.15748788,4.519389,-0.2084902,-0.109122925,-0.22244005,-1.6280571,-9.998186,-2.231396
0.15729117,4.519102,-0.2084902,-0.109122925,-0.22244005,-1.6280571,-9.998186,-2.231396
0.15706526,4.518791,-0.23192601,-0.08781763,-0.26931167,-1.661576,-9.883265,-2.1978772
0.15684049,4.5184803,-0.23192601,-0.08781763,-0.26931167,-1.661576,-9.883265,-2.1978772
0.1565717,4.5181484,-0.2500355,-0.062251285,-0.31192225,-1.6472107,-9.787497,-2.1691468
0.15630434,4.5178175,-0.2500355,-0.062251285,-0.31192225,-1.6472107,-9.787497,-2.1691468
0.15600179,4.51747,-0.26388395,-0.035619672,-0.35133705,-1.6759412,-9.696517,-2.2170308
0.15570064,4.5171237,-0.26388395,-0.035619672,-0.35133705,-1.6759412,-9.696517,-2.2170308
0.15535861,4.516762,-0.27453658,-0.005792269,-0.3854255,-1.6663644,-9.65821,-2.2266076
0.15501791,4.5164003,-0.27453658,-0.005792269,-0.3854255,-1.6663644,-9.65821,-2.2266076
0.15464956,4.516033,-0.27879766,0.021904606,-0.41525292,-1.6998832,-9.610326,-2.2649148
0.1542826,4.515666,-0.27879766,0.021904606,-0.41525292,-1.6998832,-9.610326,-2.2649148
0.15389858,4.515298,-0.2798629,0.047470953,-0.44081926,-1.7381904,-9.562442,-2.2505496
0.15351607,4.5149302,-0.2798629,0.047470953,-0.44081926,-1.7381904,-9.562442,-2.2505496
0.15312652,4.514569,-0.27773237,0.071972035,-0.46212456,-1.7764976,-9.471462,-2.1978772
0.15273885,4.514209,-0.27773237,0.071972035,-0.46212456,-1.7764976,-9.471462,-2.1978772
0.15234755,4.513859,-0.27240607,0.09434259,-0.47703823,-1.8004397,-9.361329,-2.135628
0.15195918,4.5135117,-0.27240607,0.09434259,-0.47703823,-1.8004397,-9.361329,-2.135628
0.15156858,4.513175,-0.26707974,0.11351735,-0.48662564,-1.8483237,-9.26556,-2.1068976
0.15117973,4.5128403,-0.26707974,0.11351735,-0.48662564,-1.8483237,-9.26556,-2.1068976
0.15079007,4.5125184,-0.25855762,0.13056158,-0.48982143,-1.8243817,-9.188946,-2.0398598
0.15039967,4.5121965,-0.25855762,0.13056158,-0.48982143,-1.8243817,-9.188946,-2.0398598
0.1500174,4.5118904,-0.24790499,0.14441001,-0.48875615,-1.8387469,-9.121908,-2.0446482
0.14963377,4.5115843,-0.24790499,0.14441001,-0.48875615,-1.8387469,-9.121908,-2.0446482
0.14926532,4.5113006,-0.23725234,0.15506266,-0.47916877,-1.8195933,-9.011775,-1.958457
0.14889689,4.511018,-0.23725234,0.15506266,-0.47916877,-1.8195933,-9.011775,-1.958457
0.14854477,4.5107512,-0.2265997,0.16251951,-0.46425506,-1.8339585,-8.925584,-1.9249382
0.14819294,4.5104856,-0.2265997,0.16251951,-0.46425506,-1.8339585,-8.925584,-1.9249382
0.14785942,4.510249,-0.21594705,0.16997637,-0.4482761,-1.7764976,-8.944737,-1.8579005
0.14752623,4.5100136,-0.21594705,0.16997637,-0.4482761,-1.7764976,-8.944737,-1.8579005
0.14720504,4.509822,-0.20422913,0.17423743,-0.4280361,-1.8052281,-8.896853,-1.7381904
0.14688428,4.509631,-0.20422913,0.17423743,-0.4280361,-1.8052281,-8.896853,-1.7381904
0.14657246,4.5094457,-0.19357648,0.17849848,-0.403535,-1.757344,-8.887277,-1.733402
0.14628592,4.5092754,-0.19357648,0.17849848,-0.403535,-1.757344,-8.887277,-1.733402
0.14599797,4.509136,-0.17972806,0.17849848,-0.3737076,-1.7764976,-8.858546,-1.6089035
0.14571007,4.5089965,-0.17972806,0.17849848,-0.3737076,-1.7764976,-8.858546,-1.6089035
0.14545472,4.50887,-0.16374908,0.17849848,-0.34281492,-1.733402,-8.825027,-1.6328455
0.14519933,4.508743,-0.16374908,0.17849848,-0.34281492,-1.733402,-8.825027,-1.6328455
0.14495862,4.5086474,-0.14883539,0.17636795,-0.30872646,-1.733402,-8.896853,-1.541866
0.14471756,4.5085516,-0.14883539,0.17636795,-0.30872646,-1.733402,-8.896853,-1.541866
0.1444999,4.508479,-0.13072589,0.17423743,-0.27676854,-1.7381904,-8.8777,-1.4748282
0.1442824,4.5084066,-0.13072589,0.17423743,-0.27676854,-1.7381904,-8.8777,-1.4748282
0.14409861,4.508354,-0.11155113,0.1689111,-0.2416148,-1.6711528,-8.8777,-1.5179238
0.1439146,4.5083017,-0.11155113,0.1689111,-0.2416148,-1.6711528,-8.8777,-1.5179238
0.14375725,4.5082717,-0.092376366,0.16358478,-0.20859161,-1.6328455,-8.887277,-1.5131354
0.14375725,4.5082717,-0.092376366,0.16358478,-0.20859161,-1.6328455,-8.887277,-1.5131354
0.14375725,4.5082717,-0.07320161,0.15506266,-0.17663367,-1.6184803,-8.920795,-1.5035586
0.14335589,4.5082493,-0.07320161,0.15506266,-0.17663367,-1.6184803,-8.920795,-1.5035586
0.14326592,4.508262,-0.052961584,0.14441001,-0.14361048,-1.5897499,-8.896853,-1.5179238
0.14316711,4.508277,-0.052961584,0.14441001,-0.14361048,-1.5897499,-8.896853,-1.5179238
0.14316711,4.508277,-0.052961584,0.14441001,-0.14361048,-1.5897499,-8.896853,-1.5179238
0.14303434,4.508346,-0.034852087,0.13056158,-0.11271781,-1.5466543,-8.973468,-1.5658079
0.14298466,4.508405,-0.01674259,0.117778406,-0.08395566,-1.5275006,-8.983045,-1.508347
0.14293423,4.508465,-0.01674259,0.117778406,-0.08395566,-1.5275006,-8.983045,-1.508347
0.14290988,4.508544,0.00030163955,0.102864705,-0.05732405,-1.4891934,-8.992621,-1.5514427
0.14288583,4.5086226,0.00030163955,0.102864705,-0.05732405,-1.4891934,-8.992621,-1.5514427
0.142919,4.508708,0.018411135,0.087951005,-0.033888236,-1.5179238,-8.99741,-1.6711528
0.14295235,4.5087934,0.018411135,0.087951005,-0.033888236,-1.5179238,-8.99741,-1.6711528
0.1430276,4.508887,0.034390103,0.073037304,-0.009387151,-1.4700398,-8.949526,-1.7381904
0.14310329,4.50898,0.034390103,0.073037304,-0.009387151,-1.4700398,-8.949526,-1.7381904
0.14318535,4.5091004,0.05036907,0.05918886,0.010852873,-1.4652514,-8.987833,-1.7142484
0.1432676,4.5092216,0.05036907,0.05918886,0.010852873,-1.4652514,-8.987833,-1.7142484
0.1433811,4.509356,0.06847856,0.04427516,0.02896237,-1.4796166,-9.021352,-1.7381904
0.1434942,4.50949,0.06847856,0.04427516,0.02896237,-1.4796166,-9.021352,-1.7381904
0.14365992,4.509611,0.08658806,0.029361458,0.0460066,-1.4508862,-9.011775,-1.8148049
0.1438261,4.5097327,0.08658806,0.029361458,0.0460066,-1.4508862,-9.011775,-1.8148049
0.14394107,4.5099235,0.104697555,0.01551302,0.059855036,-1.4173675,-9.050082,-1.733402
0.14405571,4.5101147,0.104697555,0.01551302,0.059855036,-1.4173675,-9.050082,-1.733402
0.14417252,4.5103273,0.12174179,0.0027298466,0.07050768,-1.4173675,-9.054871,-1.6998832
0.14428936,4.51054,0.12174179,0.0027298466,0.07050768,-1.4173675,-9.054871,-1.6998832
0.14435825,4.5107794,0.13985129,-0.008988062,0.08009506,-1.3359646,-9.11712,-1.7525556
0.14442623,4.5110188,0.13985129,-0.008988062,0.08009506,-1.3359646,-9.11712,-1.7525556
0.14447626,4.511273,0.15583025,-0.019640706,0.08435612,-1.2976574,-9.26556,-1.6998832
0.14452545,4.5115256,0.15583025,-0.019640706,0.08435612,-1.2976574,-9.26556,-1.6998832
0.14457312,4.511795,0.17180921,-0.028162822,0.08648665,-1.2689269,-9.255983,-1.661576
0.14462005,4.5120645,0.17180921,-0.028162822,0.08648665,-1.2689269,-9.255983,-1.661576
0.14465657,4.5123425,0.1845924,-0.035619672,0.089682445,-1.2354081,-9.404425,-1.6663644
0.14469245,4.5126214,0.1845924,-0.035619672,0.089682445,-1.2354081,-9.404425,-1.6663644
0.14475065,4.5129175,0.19524503,-0.040945996,0.088617176,-1.3024458,-9.423578,-1.6663644
0.14480816,4.5132127,0.19524503,-0.040945996,0.088617176,-1.3024458,-9.423578,-1.6663644
0.14484373,4.5135126,0.20376715,-0.044141788,0.087551914,-1.2785037,-9.409213,-1.7190368
0.14487827,4.513811,0.20376715,-0.044141788,0.087551914,-1.2785037,-9.409213,-1.7190368
0.14487381,4.5141,0.211224,-0.048402846,0.08542138,-1.2976574,-9.476251,-1.8243817
0.1448677,4.5143824,0.211224,-0.048402846,0.08542138,-1.2976574,-9.476251,-1.8243817
0.14487913,4.5146866,0.2144198,-0.051598642,0.08116033,-1.3024458,-9.514558,-1.7908629
0.14488927,4.5149956,0.2144198,-0.051598642,0.08116033,-1.3024458,-9.514558,-1.7908629
0.14485353,4.5152698,0.21548507,-0.054794434,0.07476874,-1.3120226,-9.519346,-1.8579005
0.14481592,4.515542,0.21548507,-0.054794434,0.07476874,-1.3120226,-9.519346,-1.8579005
0.14481373,4.515848,0.21548507,-0.059055492,0.06731189,-1.2976574,-9.572019,-1.7812861
0.14481021,4.516153,0.21548507,-0.059055492,0.06731189,-1.2976574,-9.572019,-1.7812861
0.14481461,4.516464,0.2144198,-0.062251285,0.058789775,-1.3455414,-9.619903,-1.8004397
0.14481753,4.516776,0.2144198,-0.062251285,0.058789775,-1.3455414,-9.619903,-1.8004397
0.1448112,4.517082,0.21015874,-0.06331655,0.05026766,-1.3120226,-9.586384,-1.757344
0.14480376,4.5173874,0.21015874,-0.06331655,0.05026766,-1.3120226,-9.586384,-1.757344
0.14473423,4.517653,0.20696294,-0.062251285,0.041745543,-1.2689269,-9.576807,-1.8291701
0.14466362,4.517916,0.20696294,-0.062251285,0.041745543,-1.2689269,-9.576807,-1.8291701
0.14457373,4.5181603,0.20376715,-0.059055492,0.032158162,-1.3072342,-9.576807,-1.8579005
0.14448266,4.5184026,0.20376715,-0.059055492,0.032158162,-1.3072342,-9.576807,-1.8579005
0.14440657,4.5186763,0.20163663,-0.054794434,0.022570781,-1.3359646,-9.504981,-1.8243817
0.1443282,4.5189476,0.20163663,-0.054794434,0.022570781,-1.3359646,-9.504981,-1.8243817
0.14421079,4.519155,0.19844083,-0.051598642,0.012983402,-1.2497733,-9.519346,-1.8626889
0.1440934,4.5193605,0.19844083,-0.051598642,0.012983402,-1.2497733,-9.519346,-1.8626889
0.14398193,4.519516,0.19737557,-0.047337584,0.0012654932,-1.3120226,-9.471462,-1.8866309
0.14387192,4.51967,0.19737557,-0.047337584,0.0012654932,-1.3120226,-9.471462,-1.8866309
0.14373702,4.519842,0.1963103,-0.04201126,-0.010452416,-1.3263878,-9.461885,-1.8626889
0.14360483,4.520009,0.1963103,-0.04201126,-0.010452416,-1.3263878,-9.461885,-1.8626889
0.14348961,4.5201406,0.19524503,-0.035619672,-0.022170324,-1.3072342,-9.466674,-1.9057846
0.14337549,4.5202713,0.19524503,-0.035619672,-0.022170324,-1.3072342,-9.466674,-1.9057846
0.14328903,4.5203795,0.19417977,-0.029228088,-0.033888236,-1.3072342,-9.41879,-1.958457
0.14320178,4.520489,0.19417977,-0.029228088,-0.033888236,-1.3072342,-9.41879,-1.958457
0.14311221,4.52059,0.19204924,-0.021771235,-0.04454088,-1.3263878,-9.461885,-1.958457
0.14302184,4.5206923,0.19204924,-0.021771235,-0.04454088,-1.3263878,-9.461885,-1.958457
0.1429216,4.520792,0.18991871,-0.01324912,-0.05199773,-1.3215994,-9.423578,-1.9440918
0.14282243,4.5208917,0.18991871,-0.01324912,-0.05199773,-1.3215994,-9.423578,-1.9440918
0.14273827,4.5209804,0.18565765,-0.00366174,-0.06158511,-1.3551182,-9.452309,-1.9680338
0.14265503,4.5210686,0.18565765,-0.00366174,-0.06158511,-1.3551182,-9.452309,-1.9680338
0.14262024,4.52115,0.17926607,0.003795111,-0.07010722,-1.4269443,-9.466674,-1.9440918
0.14258541,4.5212326,0.17926607,0.003795111,-0.07010722,-1.4269443,-9.466674,-1.9440918
0.14259422,4.5213237,0.17287448,0.012317227,-0.075433545,-1.5275006,-9.41879,-1.9632454
0.14260264,4.5214148,0.17287448,0.012317227,-0.075433545,-1.5275006,-9.41879,-1.9632454
0.14260736,4.5215,0.1664829,0.017643549,-0.07969461,-1.5897499,-9.409213,-2.0159178
0.14261194,4.5215855,0.1664829,0.017643549,-0.07969461,-1.5897499,-9.409213,-2.0159178
0.14261664,4.5216646,0.15902604,0.020839343,-0.08182514,-1.6089035,-9.394848,-2.0207062
0.14262111,4.5217404,0.15902604,0.020839343,-0.08182514,-1.6089035,-9.394848,-2.0207062
0.14260508,4.521799,0.15050393,0.022969872,-0.08075987,-1.5610195,-9.370906,-2.054225
0.1425888,4.521858,0.15050393,0.022969872,-0.08075987,-1.5610195,-9.370906,-2.054225
0.14259858,4.521921,0.14198181,0.024035135,-0.07969461,-1.5466543,-9.394848,-1.9536686
0.1426081,4.521984,0.14198181,0.024035135,-0.07969461,-1.5466543,-9.394848,-1.9536686
0.14263536,4.52205,0.13452496,0.0251004,-0.076498814,-1.5131354,-9.346964,-1.8914193
0.14266208,4.5221157,0.13452496,0.0251004,-0.076498814,-1.5131354,-9.346964,-1.8914193
0.14270139,4.5221825,0.1270681,0.0251004,-0.07330302,-1.532289,-9.3421755,-1.8818425
0.14274031,4.5222487,0.1270681,0.0251004,-0.07330302,-1.532289,-9.3421755,-1.8818425
0.14279751,4.5223317,0.120676525,0.026165664,-0.07117249,-1.5275006,-9.294291,-1.8339585
0.1428544,4.5224137,0.120676525,0.026165664,-0.07117249,-1.5275006,-9.294291,-1.8339585
0.14292087,4.52254,0.11641546,0.02723093,-0.0679767,-1.5897499,-9.246407,-1.757344
0.14298749,4.5226665,0.11641546,0.02723093,-0.0679767,-1.5897499,-9.246407,-1.757344
0.14304775,4.522814,0.11108914,0.030426722,-0.062650375,-1.5897499,-9.251195,-1.7046716
0.14310825,4.522961,0.11108914,0.030426722,-0.062650375,-1.5897499,-9.251195,-1.7046716
0.1431806,4.5230927,0.10895862,0.030426722,-0.05732405,-1.5562311,-9.284714,-1.7429788
0.14325319,4.523224,0.10895862,0.030426722,-0.05732405,-1.5562311,-9.284714,-1.7429788
0.14332996,4.5233536,0.105762824,0.031491987,-0.05199773,-1.5466543,-9.275137,-1.7381904
0.14340694,4.523483,0.105762824,0.031491987,-0.05199773,-1.5466543,-9.275137,-1.7381904
0.14348741,4.523607,0.102567025,0.033622514,-0.048801936,-1.5753847,-9.270349,-1.733402
0.14356808,4.52373,0.102567025,0.033622514,-0.048801936,-1.5753847,-9.270349,-1.733402
0.14365649,4.5238414,0.1004365,0.035753045,-0.043475613,-1.5753847,-9.275137,-1.7477672
0.14374492,4.5239525,0.1004365,0.035753045,-0.043475613,-1.5753847,-9.275137,-1.7477672
0.14382447,4.524094,0.09830597,0.035753045,-0.036018763,-1.5753847,-9.32781,-1.6998832
0.1439043,4.5242352,0.09830597,0.035753045,-0.036018763,-1.5753847,-9.32781,-1.6998832
0.14397374,4.524388,0.09511018,0.03468778,-0.03282297,-1.5897499,-9.3421755,-1.6567876
0.14404365,4.52454,0.09511018,0.03468778,-0.03282297,-1.5897499,-9.3421755,-1.6567876
0.14413424,4.524668,0.09297965,0.035753045,-0.03069244,-1.5610195,-9.380483,-1.7286136
0.1442254,4.5247955,0.09297965,0.035753045,-0.03069244,-1.5610195,-9.380483,-1.7286136
0.1443257,4.524911,0.089783855,0.03468778,-0.026431382,-1.5370775,-9.404425,-1.7525556
0.14442642,4.525025,0.089783855,0.03468778,-0.026431382,-1.5370775,-9.404425,-1.7525556
0.14449976,4.5251765,0.087653324,0.035753045,-0.020039797,-1.5562311,-9.44752,-1.6807296
0.14457357,4.525328,0.087653324,0.035753045,-0.020039797,-1.5562311,-9.44752,-1.6807296
0.14465469,4.525472,0.08445753,0.03681831,-0.017909266,-1.5801731,-9.461885,-1.6807296
0.14473586,4.5256157,0.08445753,0.03681831,-0.017909266,-1.5801731,-9.461885,-1.6807296
0.14480998,4.525764,0.08126174,0.035753045,-0.014713474,-1.5801731,-9.5385,-1.6759412
0.14488457,4.5259123,0.08126174,0.035753045,-0.014713474,-1.5801731,-9.5385,-1.6759412
0.14498264,4.5260434,0.08019647,0.037883572,-0.009387151,-1.5897499,-9.595961,-1.7286136
0.14508091,4.526174,0.08019647,0.037883572,-0.009387151,-1.5897499,-9.595961,-1.7286136
0.14517868,4.5263047,0.07700068,0.03681831,-0.0072566224,-1.5705963,-9.619903,-1.7381904
0.14527705,4.5264344,0.07700068,0.03681831,-0.0072566224,-1.5705963,-9.619903,-1.7381904
0.14539804,4.5265303,0.075935416,0.035753045,-0.0072566224,-1.6041151,-9.65821,-1.7860745
0.14551903,4.526626,0.075935416,0.035753045,-0.0072566224,-1.6041151,-9.65821,-1.7860745
0.14560708,4.5267634,0.074870154,0.03681831,-0.006191358,-1.5705963,-9.667787,-1.7286136
0.14569557,4.5269012,0.074870154,0.03681831,-0.006191358,-1.5705963,-9.667787,-1.7286136
0.14576066,4.527051,0.07273962,0.03681831,-0.0051260935,-1.5945383,-9.706094,-1.661576
0.14582619,4.527201,0.07273962,0.03681831,-0.0051260935,-1.5945383,-9.706094,-1.661576
0.14593014,4.5273237,0.07167436,0.035753045,-0.004060829,-1.5610195,-9.662998,-1.7525556
0.14603458,4.527446,0.07167436,0.035753045,-0.004060829,-1.5610195,-9.662998,-1.7525556
0.1461317,4.52757,0.07060909,0.035753045,-0.008321887,-1.5897499,-9.706094,-1.7429788
0.14622906,4.5276937,0.07060909,0.035753045,-0.008321887,-1.5897499,-9.706094,-1.7429788
0.14630736,4.527829,0.06954383,0.03468778,-0.013648209,-1.5753847,-9.701305,-1.7238252
0.14638598,4.5279636,0.06954383,0.03468778,-0.013648209,-1.5753847,-9.701305,-1.7238252
0.1464672,4.5280924,0.07060909,0.032557253,-0.02110506,-1.5514427,-9.662998,-1.7429788
0.14654906,4.5282207,0.07060909,0.032557253,-0.02110506,-1.5514427,-9.662998,-1.7429788
0.14661694,4.528358,0.07273962,0.030426722,-0.027496647,-1.5562311,-9.667787,-1.7286136
0.1466855,4.5284953,0.07273962,0.030426722,-0.027496647,-1.5562311,-9.667787,-1.7286136
0.14676207,4.528619,0.074870154,0.028296193,-0.037084028,-1.5227122,-9.591172,-1.7477672
0.1468394,4.528742,0.074870154,0.028296193,-0.037084028,-1.5227122,-9.591172,-1.7477672
0.1469101,4.528862,0.07700068,0.026165664,-0.048801936,-1.5466543,-9.610326,-1.7477672
0.14698164,4.5289807,0.07700068,0.026165664,-0.048801936,-1.5466543,-9.610326,-1.7477672
0.14705695,4.529068,0.07806595,0.021904606,-0.060519844,-1.5275006,-9.610326,-1.7764976
0.14713259,4.529154,0.07806595,0.021904606,-0.060519844,-1.5275006,-9.610326,-1.7764976
0.14719565,4.529247,0.08126174,0.018708814,-0.07330302,-1.532289,-9.552865,-1.7621324
0.14725876,4.529338,0.08126174,0.018708814,-0.07330302,-1.532289,-9.552865,-1.7621324
0.14729209,4.529372,0.08445753,0.016578285,-0.08821672,-1.5179238,-9.524135,-1.7956513
0.14732431,4.529405,0.08445753,0.016578285,-0.08821672,-1.5179238,-9.524135,-1.7956513
0.14730263,4.5294113,0.087653324,0.014447756,-0.104195684,-1.4796166,-9.461885,-1.8004397
0.14728065,4.5294175,0.087653324,0.014447756,-0.104195684,-1.4796166,-9.461885,-1.8004397
0.14714645,4.529409,0.089783855,0.010186698,-0.1159136,-1.4221559,-9.471462,-1.7956513
0.14701587,4.5294003,0.089783855,0.010186698,-0.1159136,-1.4221559,-9.471462,-1.7956513
0.1468566,4.5293984,0.09404491,0.00592564,-0.12976204,-1.3982137,-9.399636,-1.8004397
0.1468566,4.5293984,0.09404491,0.00592564,-0.12976204,-1.3982137,-9.399636,-1.8004397
0.1468566,4.5293984,0.0972407,0.0048603755,-0.14361048,-1.4030021,-9.356541,-1.7764976
0.1463779,4.529399,0.0972407,0.0048603755,-0.14361048,-1.4030021,-9.356541,-1.7764976
0.14611518,4.5294514,0.1004365,0.0027298466,-0.15852417,-1.3503298,-9.375694,-1.757344
0.14580262,4.5295115,0.1004365,0.0027298466,-0.15852417,-1.3503298,-9.375694,-1.757344
0.1456503,4.529698,0.105762824,-0.00046594674,-0.17237261,-1.3838485,-9.279925,-1.6807296
0.14548942,4.5299006,0.105762824,-0.00046594674,-0.17237261,-1.3838485,-9.279925,-1.6807296
0.14533448,4.530115,0.11215441,-0.0015312112,-0.18409052,-1.3934253,-9.241618,-1.6328455
0.14518079,4.530331,0.11215441,-0.0015312112,-0.18409052,-1.3934253,-9.241618,-1.6328455
0.14507358,4.5305347,0.118545994,-0.0015312112,-0.1936779,-1.412579,-9.193734,-1.6472107
0.14496936,4.5307364,0.118545994,-0.0015312112,-0.1936779,-1.412579,-9.193734,-1.6472107
0.14489673,4.5308204,0.12493758,-0.0025964756,-0.20113476,-1.3934253,-9.160215,-1.6950948
0.14482343,4.530902,0.12493758,-0.0025964756,-0.20113476,-1.3934253,-9.160215,-1.6950948
0.14465873,4.5311356,0.13132916,-0.0015312112,-0.20646107,-1.3838485,-9.14585,-1.6041151
0.14449741,4.5313673,0.13132916,-0.0015312112,-0.20646107,-1.3838485,-9.14585,-1.6041151
0.14433534,4.5316067,0.13878602,0.0016645822,-0.20859161,-1.3694834,-9.131485,-1.6280571
0.14417844,4.531844,0.13878602,0.0016645822,-0.20859161,-1.3694834,-9.131485,-1.6280571
0.14397739,4.532096,0.14624287,0.0048603755,-0.20965686,-1.3455414,-9.093178,-1.5658079
0.14377898,4.5323467,0.14624287,0.0048603755,-0.20965686,-1.3455414,-9.093178,-1.5658079
0.14355695,4.5326033,0.15263446,0.009121433,-0.20433055,-1.3215994,-9.093178,-1.5801731
0.14333709,4.5328603,0.15263446,0.009121433,-0.20433055,-1.3215994,-9.093178,-1.5801731
0.14303194,4.5330896,0.15902604,0.014447756,-0.20006949,-1.3024458,-9.11712,-1.6328455
0.14272606,4.533318,0.15902604,0.014447756,-0.20006949,-1.3024458,-9.11712,-1.6328455
0.1426281,4.533557,0.16541763,0.019774077,-0.19474317,-1.3503298,-9.121908,-1.6376339
0.1425407,4.5337873,0.16541763,0.019774077,-0.19474317,-1.3503298,-9.121908,-1.6376339
0.14242771,4.5340457,0.17074396,0.022969872,-0.18728632,-1.3599066,-9.107543,-1.6089035
0.14231917,4.534304,0.17074396,0.022969872,-0.18728632,-1.3599066,-9.107543,-1.6089035
0.14217792,4.53438,0.175005,0.022969872,-0.17769894,-1.3503298,-9.126697,-1.6998832
0.14203657,4.5344577,0.175005,0.022969872,-0.17769894,-1.3503298,-9.126697,-1.6998832
0.14178848,4.5345554,0.17820081,0.022969872,-0.16598102,-1.292869,-9.040505,-1.6472107
0.14154926,4.534649,0.17820081,0.022969872,-0.16598102,-1.292869,-9.040505,-1.6472107
0.14142123,4.5347314,0.1813966,0.021904606,-0.15426312,-1.3359646,-9.069236,-1.7046716
0.14129427,4.5348144,0.1813966,0.021904606,-0.15426312,-1.3359646,-9.069236,-1.7046716
0.14126787,4.5350547,0.1845924,0.020839343,-0.14147994,-1.340753,-9.030929,-1.6041151
0.14124657,4.535287,0.1845924,0.020839343,-0.14147994,-1.340753,-9.030929,-1.6041151
0.14111212,4.5353727,0.18565765,0.018708814,-0.12656625,-1.3024458,-9.02614,-1.6519991
0.14098151,4.5354576,0.18565765,0.018708814,-0.12656625,-1.3024458,-9.02614,-1.6519991
0.14080785,4.535738,0.18885344,0.018708814,-0.11058728,-1.2976574,-9.016563,-1.6089035
0.14062236,4.5360084,0.18885344,0.018708814,-0.11058728,-1.2976574,-9.016563,-1.6089035
0.14041181,4.5361423,0.19098398,0.018708814,-0.09460831,-1.283292,-9.016563,-1.6136919
0.1402125,4.5362654,0.19098398,0.018708814,-0.09460831,-1.283292,-9.016563,-1.6136919
0.14012398,4.536357,0.1931145,0.019774077,-0.077564076,-1.2880806,-9.021352,-1.6903064
0.14003724,4.536448,0.1931145,0.019774077,-0.077564076,-1.2880806,-9.021352,-1.6903064
0.13996366,4.536539,0.1931145,0.020839343,-0.062650375,-1.2976574,-9.078813,-1.6519991
0.13989162,4.5366306,0.1931145,0.020839343,-0.062650375,-1.2976574,-9.078813,-1.6519991
0.13972731,4.5367656,0.1931145,0.020839343,-0.046671405,-1.2641385,-9.131485,-1.6424223
0.13956672,4.5368967,0.1931145,0.020839343,-0.046671405,-1.2641385,-9.131485,-1.6424223
0.13940307,4.5371256,0.19204924,0.021904606,-0.03069244,-1.283292,-9.169792,-1.6184803
0.13923487,4.5373464,0.19204924,0.021904606,-0.03069244,-1.283292,-9.169792,-1.6184803
0.13911404,4.537464,0.18885344,0.022969872,-0.015778739,-1.3072342,-9.198523,-1.6280571
0.13906407,4.537552,0.18885344,0.022969872,-0.015778739,-1.3072342,-9.198523,-1.6280571
0.13907516,4.537633,0.1845924,0.024035135,-0.004060829,-1.3311762,-9.279925,-1.6950948
0.13908583,4.5377145,0.1845924,0.024035135,-0.004060829,-1.3311762,-9.279925,-1.6950948
0.13918807,4.537821,0.1813966,0.024035135,0.0065918155,-1.3599066,-9.279925,-1.6663644
0.13928738,4.5379243,0.1813966,0.024035135,0.0065918155,-1.3599066,-9.279925,-1.6663644
0.13943917,4.5381184,0.17713554,0.0251004,0.019374989,-1.3790601,-9.260772,-1.6232687
0.139591,4.5383077,0.17713554,0.0251004,0.019374989,-1.3790601,-9.260772,-1.6232687
0.1397083,4.5383987,0.17287448,0.0251004,0.030027634,-1.4221559,-9.308656,-1.7142484
0.13982442,4.5384893,0.17287448,0.0251004,0.030027634,-1.4221559,-9.308656,-1.7142484
0.13994329,4.538573,0.16861342,0.0251004,0.037484486,-1.4221559,-9.308656,-1.7190368
0.14006114,4.5386558,0.16861342,0.0251004,0.037484486,-1.4221559,-9.308656,-1.7190368
0.14024006,4.538798,0.16541763,0.026165664,0.0460066,-1.4460979,-9.299079,-1.6472107
0.14041816,4.538938,0.16541763,0.026165664,0.0460066,-1.4460979,-9.299079,-1.6472107
0.14058772,4.5390453,0.1632871,0.026165664,0.052398186,-1.4556746,-9.313444,-1.6807296
0.14075604,4.5391517,0.1632871,0.026165664,0.052398186,-1.4556746,-9.313444,-1.6807296
0.14093058,4.5392575,0.16115656,0.022969872,0.056659244,-1.4796166,-9.303867,-1.685518
0.14110424,4.5393624,0.16115656,0.022969872,0.056659244,-1.4796166,-9.303867,-1.685518
0.14124347,4.5394344,0.15902604,0.020839343,0.059855036,-1.4652514,-9.275137,-1.7429788
