Pitch,Roll,Gyro_X,Gyro_Y,Gyro_Z,Accel_X,Accel_Y,Accel_Z
6.27217,4.61388,-0.034852087,0.04214463,0.16851202,0.23463176,-10.0029745,-0.8762778
6.272244,4.6139216,-0.034852087,0.04214463,0.16851202,0.23463176,-10.0029745,-0.8762778
6.2722807,4.613933,-0.039113145,0.043209895,0.16212043,0.25857377,-9.983821,-0.92416185
6.272317,4.6139445,-0.039113145,0.043209895,0.16212043,0.25857377,-9.983821,-0.92416185
6.2723665,4.61397,-0.043374203,0.04427516,0.15572885,0.30645782,-9.974244,-0.8523358
6.2724156,4.6139946,-0.043374203,0.04427516,0.15572885,0.30645782,-9.974244,-0.8523358
6.2724514,4.614014,-0.046569996,0.045340426,0.1450762,0.31603462,-9.92636,-0.8475474
6.272487,4.614033,-0.046569996,0.045340426,0.1450762,0.31603462,-9.92636,-0.8475474
6.2724905,4.6140265,-0.049765788,0.045340426,0.13442355,0.33997664,-9.964667,-0.90500826
6.272494,4.6140194,-0.049765788,0.045340426,0.13442355,0.33997664,-9.964667,-0.90500826
6.272471,4.613976,-0.050831053,0.045340426,0.12164038,0.36391866,-9.921572,-0.9672575
6.272448,4.6139326,-0.050831053,0.045340426,0.12164038,0.36391866,-9.921572,-0.9672575
6.2724314,4.6139317,-0.050831053,0.04427516,0.1088572,0.34955344,-9.931149,-0.8810662
6.2724147,4.6139307,-0.050831053,0.04427516,0.1088572,0.34955344,-9.931149,-0.8810662
6.2723784,4.613921,-0.049765788,0.043209895,0.09607403,0.37349546,-9.854534,-0.89064306
6.272342,4.6139116,-0.049765788,0.043209895,0.09607403,0.37349546,-9.854534,-0.89064306
6.272285,4.6138887,-0.048700526,0.04107937,0.08222559,0.39743748,-9.859323,-0.91937345
6.272228,4.613866,-0.048700526,0.04107937,0.08222559,0.39743748,-9.859323,-0.91937345
6.2721667,4.6138616,-0.046569996,0.040014103,0.06944242,0.40701428,-9.816227,-0.8714894
6.2721057,4.613857,-0.046569996,0.040014103,0.06944242,0.40701428,-9.816227,-0.8714894
6.2720246,4.613836,-0.04443947,0.037883572,0.058789775,0.41180268,-9.811439,-0.91937345
6.2719436,4.6138144,-0.04443947,0.037883572,0.058789775,0.41180268,-9.811439,-0.91937345
6.271857,4.613805,-0.041243672,0.035753045,0.049202394,0.45489833,-9.782708,-0.8858546
6.27177,4.6137953,-0.041243672,0.035753045,0.049202394,0.45489833,-9.782708,-0.8858546
6.2716694,4.613756,-0.039113145,0.032557253,0.042810805,0.46926352,-9.734824,-0.9624691
6.271569,4.613718,-0.039113145,0.032557253,0.042810805,0.46926352,-9.734824,-0.9624691
6.271463,4.613698,-0.034852087,0.030426722,0.035353955,0.521936,-9.710882,-0.91937345
6.2713566,4.613678,-0.034852087,0.030426722,0.035353955,0.521936,-9.710882,-0.91937345
6.2712455,4.6136556,-0.031656295,0.030426722,0.031092897,0.50757074,-9.691729,-0.93373865
6.2711344,4.6136336,-0.031656295,0.030426722,0.031092897,0.50757074,-9.691729,-0.93373865
6.2710166,4.6136003,-0.0284605,0.029361458,0.02683184,0.5554548,-9.648633,-0.9720459
6.270902,4.613568,-0.0284605,0.029361458,0.02683184,0.5554548,-9.648633,-0.9720459
6.2707844,4.6135345,-0.024199443,0.028296193,0.024701312,0.5793968,-9.581595,-0.9816227
6.2706666,4.613501,-0.024199443,0.028296193,0.024701312,0.5793968,-9.581595,-0.9816227
6.270548,4.613491,-0.019938385,0.0251004,0.022570781,0.641646,-9.557653,-0.90979666
6.270429,4.613482,-0.019938385,0.0251004,0.022570781,0.641646,-9.557653,-0.90979666
6.270307,4.613468,-0.014612063,0.022969872,0.020440254,0.6512229,-9.524135,-0.94331545
6.2701855,4.6134543,-0.014612063,0.022969872,0.020440254,0.6512229,-9.524135,-0.94331545
6.2700634,4.6134396,-0.012481534,0.020839343,0.020440254,0.63206923,-9.452309,-0.94810385
6.269942,4.6134243,-0.012481534,0.020839343,0.020440254,0.63206923,-9.452309,-0.94810385
6.2698216,4.613413,-0.009285741,0.017643549,0.021505518,0.6368576,-9.437943,-0.94810385
6.269701,4.6134005,-0.009285741,0.017643549,0.021505518,0.6368576,-9.437943,-0.94810385
6.269587,4.613406,-0.0071552116,0.01551302,0.025766576,0.6895301,-9.423578,-0.8858546
6.2694726,4.6134114,-0.0071552116,0.01551302,0.025766576,0.6895301,-9.423578,-0.8858546
6.269362,4.6134167,-0.0039594183,0.014447756,0.030027634,0.7086837,-9.437943,-0.90021986
6.2692513,4.6134214,-0.0039594183,0.014447756,0.030027634,0.7086837,-9.437943,-0.90021986
6.2691507,4.6134477,-0.0018288894,0.012317227,0.03428869,0.7278373,-9.452309,-0.81402856
6.2690506,4.6134734,-0.0018288894,0.012317227,0.03428869,0.7278373,-9.452309,-0.81402856
6.268955,4.613499,0.001366904,0.010186698,0.040680278,0.63206923,-9.390059,-0.842759
6.2688594,4.6135244,0.001366904,0.010186698,0.040680278,0.63206923,-9.390059,-0.842759
6.268764,4.613549,0.0045626974,0.008056169,0.05026766,0.60812724,-9.399636,-0.8714894
6.2686806,4.61357,0.0045626974,0.008056169,0.05026766,0.60812724,-9.399636,-0.8714894
6.2686043,4.613598,0.008823755,0.00592564,0.061985567,0.6464345,-9.442732,-0.866701
6.2685313,4.6136246,0.008823755,0.00592564,0.061985567,0.6464345,-9.442732,-0.866701
6.2684727,4.6136684,0.013084813,0.003795111,0.073703475,0.6751649,-9.390059,-0.80445176
6.268414,4.6137123,0.013084813,0.003795111,0.073703475,0.6751649,-9.390059,-0.80445176
6.2683663,4.613758,0.018411135,-0.00046594674,0.08648665,0.6895301,-9.3661175,-0.81402856
6.2683187,4.6138043,0.018411135,-0.00046594674,0.08648665,0.6895301,-9.3661175,-0.81402856
6.2682815,4.613856,0.023737457,-0.0047270046,0.09607403,0.6943185,-9.404425,-0.81402856
6.268244,4.613908,0.023737457,-0.0047270046,0.09607403,0.6943185,-9.404425,-0.81402856
6.268217,4.613964,0.02906378,-0.007922798,0.106726676,0.6464345,-9.394848,-0.82360536
6.268191,4.614021,0.02906378,-0.007922798,0.106726676,0.6464345,-9.394848,-0.82360536
6.268173,4.6140766,0.033324838,-0.011118591,0.11737932,0.6991069,-9.3661175,-0.8283938
6.268156,4.614133,0.033324838,-0.011118591,0.11737932,0.6991069,-9.3661175,-0.8283938
6.268156,4.6142087,0.037585896,-0.016444914,0.1269667,0.6464345,-9.361329,-0.770933
6.268156,4.6142845,0.037585896,-0.016444914,0.1269667,0.6464345,-9.361329,-0.770933
6.268171,4.614368,0.04291222,-0.0228365,0.13974987,0.58418524,-9.380483,-0.78050977
6.2681856,4.614451,0.04291222,-0.0228365,0.13974987,0.58418524,-9.380483,-0.78050977
6.268202,4.6145234,0.04823854,-0.026032293,0.14933725,0.6607997,-9.394848,-0.8283938
6.2682185,4.6145964,0.04823854,-0.026032293,0.14933725,0.6607997,-9.394848,-0.8283938
6.268255,4.614689,0.051434334,-0.030293351,0.1599899,0.6607997,-9.361329,-0.7422025
6.268292,4.6147823,0.051434334,-0.030293351,0.1599899,0.6607997,-9.361329,-0.7422025
6.268338,4.6148787,0.05356486,-0.03242388,0.16851202,0.63206923,-9.3661175,-0.7469909
6.268384,4.6149745,0.05356486,-0.03242388,0.16851202,0.63206923,-9.3661175,-0.7469909
6.2684407,4.615073,0.05356486,-0.035619672,0.17703412,0.59376204,-9.323022,-0.7422025
6.2684975,4.615172,0.05356486,-0.035619672,0.17703412,0.59376204,-9.323022,-0.7422025
6.2685523,4.615257,0.054630127,-0.03881547,0.18449098,0.5746084,-9.299079,-0.80445176
6.2686076,4.615342,0.054630127,-0.03881547,0.18449098,0.5746084,-9.299079,-0.80445176
6.268675,4.6154356,0.05356486,-0.040945996,0.19088256,0.5315128,-9.337387,-0.78050977
6.268743,4.615531,0.05356486,-0.040945996,0.19088256,0.5315128,-9.337387,-0.78050977
6.268808,4.6156015,0.051434334,-0.043076526,0.19833942,0.5746084,-9.356541,-0.842759
6.2688727,4.615673,0.051434334,-0.043076526,0.19833942,0.5746084,-9.356541,-0.842759
6.268943,4.615735,0.04823854,-0.043076526,0.204731,0.5746084,-9.404425,-0.866701
6.2690125,4.615797,0.04823854,-0.043076526,0.204731,0.5746084,-9.404425,-0.866701
6.269085,4.61584,0.04610801,-0.045207053,0.20899206,0.5602432,-9.385271,-0.91937345
6.269158,4.615883,0.04610801,-0.045207053,0.20899206,0.5602432,-9.385271,-0.91937345
6.26924,4.6159196,0.041846953,-0.044141788,0.21644892,0.50757074,-9.442732,-0.92895025
6.2693157,4.615954,0.041846953,-0.044141788,0.21644892,0.50757074,-9.442732,-0.92895025
6.2694116,4.6160235,0.037585896,-0.045207053,0.22177523,0.4309563,-9.514558,-0.8523358
6.269503,4.61609,0.037585896,-0.045207053,0.22177523,0.4309563,-9.514558,-0.8523358
6.2696023,4.6161556,0.032259572,-0.045207053,0.22816682,0.4165911,-9.524135,-0.842759
6.2697034,4.616223,0.032259572,-0.045207053,0.22816682,0.4165911,-9.524135,-0.842759
6.2697997,4.6162667,0.027998514,-0.04201126,0.23136261,0.41180268,-9.576807,-0.89064306
6.2698965,4.6163106,0.027998514,-0.04201126,0.23136261,0.41180268,-9.576807,-0.89064306
6.2700253,4.616398,0.023737457,-0.03988073,0.23242788,0.37828386,-9.715671,-0.78529817
6.270155,4.6164846,0.023737457,-0.03988073,0.23242788,0.37828386,-9.715671,-0.78529817
6.2703004,4.6165786,0.019476399,-0.037750203,0.23349315,0.34955344,-9.730036,-0.7517793
6.2704453,4.6166725,0.019476399,-0.037750203,0.23349315,0.34955344,-9.730036,-0.7517793
6.2706056,4.6167717,0.016280606,-0.037750203,0.23242788,0.25857377,-9.710882,-0.78050977
6.270768,4.6168723,0.016280606,-0.037750203,0.23242788,0.25857377,-9.710882,-0.78050977
6.270887,4.616942,0.013084813,-0.03881547,0.23136261,0.272939,-9.65821,-0.8475474
6.271007,4.6170115,0.013084813,-0.03881547,0.23136261,0.272939,-9.65821,-0.8475474
6.271135,4.6170835,0.008823755,-0.03988073,0.23242788,0.25378537,-9.600749,-0.8379706
6.2712617,4.617154,0.008823755,-0.03988073,0.23242788,0.25378537,-9.600749,-0.8379706
6.2713685,4.617119,0.0066932263,-0.03988073,0.23136261,0.31603462,-9.572019,-0.9816227
6.271476,4.6170835,0.0066932263,-0.03988073,0.23136261,0.31603462,-9.572019,-0.9816227
6.2715673,4.617081,0.0045626974,-0.037750203,0.22923209,0.36391866,-9.595961,-0.92895025
6.27166,4.617079,0.0045626974,-0.037750203,0.22923209,0.36391866,-9.595961,-0.92895025
6.271757,4.617048,0.001366904,-0.03455441,0.22816682,0.39264908,-9.701305,-0.9959879
6.2718554,4.617017,0.001366904,-0.03455441,0.22816682,0.39264908,-9.701305,-0.9959879
6.2719526,4.616975,-0.0018288894,-0.028162822,0.22497103,0.33518824,-9.720459,-1.0007763
6.272051,4.616933,-0.0018288894,-0.028162822,0.22497103,0.33518824,-9.720459,-1.0007763
6.272141,4.6169634,-0.0071552116,-0.020705972,0.21857944,0.320823,-9.792285,-0.8762778
6.272231,4.616993,-0.0071552116,-0.020705972,0.21857944,0.320823,-9.792285,-0.8762778
6.272305,4.616987,-0.0114162695,-0.014314385,0.21325313,0.24420857,-9.811439,-0.93373865
6.272379,4.6169806,-0.0114162695,-0.014314385,0.21325313,0.24420857,-9.811439,-0.93373865
6.2725096,4.617046,-0.01674259,-0.010053327,0.20899206,0.18674773,-9.835381,-0.8571242
6.2726393,4.6171103,-0.01674259,-0.010053327,0.20899206,0.18674773,-9.835381,-0.8571242
6.272803,4.6171846,-0.021003649,-0.0068575335,0.20260048,0.1388637,-9.864111,-0.8571242
6.2729664,4.6172595,-0.021003649,-0.0068575335,0.20260048,0.1388637,-9.864111,-0.8571242
6.2731023,4.617321,-0.026329972,-0.0047270046,0.20046994,0.1388637,-9.931149,-0.89543146
6.2732377,4.6173825,-0.026329972,-0.0047270046,0.20046994,0.1388637,-9.931149,-0.89543146
6.273414,4.617451,-0.029525764,-0.0047270046,0.1962089,0.11492168,-9.959879,-0.866701
6.2735887,4.6175194,-0.029525764,-0.0047270046,0.1962089,0.11492168,-9.959879,-0.866701
6.2736936,4.6175637,-0.033786822,-0.0047270046,0.19088256,0.15801731,-10.007763,-0.89543146
6.273798,4.617608,-0.033786822,-0.0047270046,0.19088256,0.15801731,-10.007763,-0.89543146
6.2739744,4.61767,-0.03698262,-0.0047270046,0.18875204,0.10534488,-10.0269165,-0.8619126
6.274149,4.6177316,-0.03698262,-0.0047270046,0.18875204,0.10534488,-10.0269165,-0.8619126
6.274196,4.6176767,-0.03804788,-0.005792269,0.18555625,0.12449849,-9.993398,-0.9528923
6.2742434,4.6176243,-0.03804788,-0.005792269,0.18555625,0.12449849,-9.993398,-0.9528923
6.274284,4.6175838,-0.04017841,-0.0068575335,0.18129519,0.14844051,-10.022128,-0.9528923
6.2743254,4.6175437,-0.04017841,-0.0068575335,0.18129519,0.14844051,-10.022128,-0.9528923
6.274415,4.617423,-0.042308938,-0.008988062,0.17596887,0.1436521,-9.993398,-1.0007763
6.274503,4.6173034,-0.042308938,-0.008988062,0.17596887,0.1436521,-9.993398,-1.0007763
6.2745385,4.6172924,-0.043374203,-0.010053327,0.16957727,0.1340753,-9.959879,-0.93852705
6.2745757,4.617281,-0.043374203,-0.010053327,0.16957727,0.1340753,-9.959879,-0.93852705
6.2746134,4.6171966,-0.042308938,-0.012183856,0.16425095,0.17717093,-9.969456,-0.9816227
6.274651,4.617112,-0.042308938,-0.012183856,0.16425095,0.17717093,-9.969456,-0.9816227
6.274678,4.617043,-0.03804788,-0.014314385,0.1599899,0.2777274,-9.945514,-0.9959879
6.274707,4.6169705,-0.03804788,-0.014314385,0.1599899,0.2777274,-9.945514,-0.9959879
6.27474,4.616887,-0.032721557,-0.015379649,0.15146779,0.31124622,-9.921572,-1.0582372
6.274784,4.616778,-0.032721557,-0.015379649,0.15146779,0.31124622,-9.921572,-1.0582372
6.2748036,4.6167097,-0.0284605,-0.014314385,0.14188041,0.2777274,-9.873688,-1.0342951
6.274827,4.6166286,-0.0284605,-0.014314385,0.14188041,0.2777274,-9.873688,-1.0342951
6.274827,4.6166286,-0.0284605,-0.014314385,0.14188041,0.2777274,-9.873688,-1.0342951
6.274827,4.6166286,-0.0284605,-0.014314385,0.14188041,0.2777274,-9.873688,-1.0342951
6.274821,4.616428,-0.01674259,-0.014314385,0.12164038,0.2777274,-9.811439,-1.0151415
6.2748184,4.616379,-0.01674259,-0.014314385,0.12164038,0.2777274,-9.811439,-1.0151415
6.274804,4.6163297,-0.010351005,-0.014314385,0.11524879,0.2777274,-9.80665,-1.0007763
6.2747893,4.6162815,-0.010351005,-0.014314385,0.11524879,0.2777274,-9.80665,-1.0007763
6.274768,4.616245,-0.0050246827,-0.015379649,0.1088572,0.30645782,-9.840169,-1.0055647
6.274768,4.616245,-0.0050246827,-0.015379649,0.1088572,0.30645782,-9.840169,-1.0055647
6.2747173,4.6161766,0.00030163955,-0.01324912,0.102465615,0.2681506,-9.849746,-0.9768343
6.274669,4.6161494,0.00030163955,-0.01324912,0.102465615,0.2681506,-9.849746,-0.9768343
6.274636,4.616131,0.003497433,-0.012183856,0.09607403,0.22505496,-9.849746,-0.9768343
6.274607,4.6161156,0.003497433,-0.012183856,0.09607403,0.22505496,-9.849746,-0.9768343
6.274621,4.616041,0.0077584907,-0.010053327,0.09287824,0.25857377,-9.821015,-1.1300632
6.274635,4.615967,0.0077584907,-0.010053327,0.09287824,0.25857377,-9.821015,-1.1300632
6.274669,4.6158867,0.010954284,-0.008988062,0.09181297,0.23463176,-9.816227,-1.1875241
6.2747035,4.615806,0.010954284,-0.008988062,0.09181297,0.23463176,-9.816227,-1.1875241
6.2747145,4.6157336,0.0141500775,-0.005792269,0.09074771,0.29688102,-9.801862,-1.1683705
6.274724,4.6156697,0.0141500775,-0.005792269,0.09074771,0.29688102,-9.801862,-1.1683705
6.2747235,4.615611,0.017345872,-0.0015312112,0.09074771,0.35913026,-9.797073,-1.1827357
6.2747226,4.615552,0.017345872,-0.0015312112,0.09074771,0.35913026,-9.797073,-1.1827357
6.274715,4.615497,0.018411135,0.0016645822,0.089682445,0.39264908,-9.797073,-1.1875241
6.274708,4.6154423,0.018411135,0.0016645822,0.089682445,0.39264908,-9.797073,-1.1875241
6.2746906,4.6153955,0.020541664,0.0048603755,0.088617176,0.4165911,-9.749189,-1.163582
6.274674,4.615349,0.020541664,0.0048603755,0.088617176,0.4165911,-9.749189,-1.163582
6.274637,4.6153245,0.022672193,0.008056169,0.088617176,0.45489833,-9.744401,-1.091756
6.2746005,4.6152997,0.022672193,0.008056169,0.088617176,0.45489833,-9.744401,-1.091756
6.2745504,4.6153045,0.025867987,0.012317227,0.088617176,0.46926352,-9.706094,-1.0055647
6.2745004,4.615309,0.025867987,0.012317227,0.088617176,0.46926352,-9.706094,-1.0055647
6.2744503,4.6153173,0.030129045,0.016578285,0.088617176,0.39264908,-9.715671,-0.9959879
6.2743998,4.6153255,0.030129045,0.016578285,0.088617176,0.39264908,-9.715671,-0.9959879
6.274347,4.615352,0.034390103,0.016578285,0.088617176,0.4213795,-9.691729,-0.9624691
6.2742934,4.6153793,0.034390103,0.016578285,0.088617176,0.4213795,-9.691729,-0.9624691
6.2742414,4.6153994,0.03865116,0.016578285,0.087551914,0.48362875,-9.639056,-0.9911995
6.2741885,4.61542,0.03865116,0.016578285,0.087551914,0.48362875,-9.639056,-0.9911995
6.2741356,4.6154375,0.041846953,0.016578285,0.087551914,0.59376204,-9.600749,-1.0295067
6.2740874,4.615453,0.041846953,0.016578285,0.087551914,0.59376204,-9.600749,-1.0295067
6.2740397,4.6154604,0.043977484,0.01551302,0.08542138,0.6799533,-9.557653,-1.0965444
6.273992,4.6154675,0.043977484,0.01551302,0.08542138,0.6799533,-9.557653,-1.0965444
6.273942,4.615474,0.045042746,0.016578285,0.08222559,0.6751649,-9.572019,-1.1061212
6.273892,4.6154804,0.045042746,0.016578285,0.08222559,0.6751649,-9.572019,-1.1061212
6.2738414,4.6154814,0.04610801,0.018708814,0.07796454,0.8619126,-9.44752,-1.1971009
6.273791,4.6154823,0.04610801,0.018708814,0.07796454,0.8619126,-9.44752,-1.1971009
6.2737246,4.615507,0.04610801,0.021904606,0.073703475,0.80924016,-9.452309,-1.0342951
6.2736583,4.615532,0.04610801,0.021904606,0.073703475,0.80924016,-9.452309,-1.0342951
6.273587,4.61559,0.04610801,0.0251004,0.07050768,0.48841715,-9.485827,-0.8858546
6.2735167,4.6156487,0.04610801,0.0251004,0.07050768,0.48841715,-9.485827,-0.8858546
6.27346,4.615744,0.05036907,0.0251004,0.07050768,0.39743748,-9.461885,-0.80924016
6.273403,4.6158385,0.05036907,0.0251004,0.07050768,0.39743748,-9.461885,-0.80924016
6.2733455,4.6159296,0.055695392,0.020839343,0.07476874,0.545878,-9.423578,-0.79008657
6.2732882,4.61602,0.055695392,0.020839343,0.07476874,0.545878,-9.423578,-0.79008657
6.2732306,4.6161075,0.06528277,0.014447756,0.08009506,0.7134721,-9.442732,-0.81402856
6.273173,4.6161947,0.06528277,0.014447756,0.08009506,0.7134721,-9.442732,-0.81402856
6.273118,4.6162696,0.073804885,0.008056169,0.08648665,0.8762778,-9.3661175,-0.90021986
6.2730637,4.6163435,0.073804885,0.008056169,0.08648665,0.8762778,-9.3661175,-0.90021986
6.2730145,4.61643,0.08339227,0.0027298466,0.09074771,0.91458505,-9.380483,-0.8858546
6.272965,4.616516,0.08339227,0.0027298466,0.09074771,0.91458505,-9.380483,-0.8858546
6.272921,4.616597,0.09084912,-0.00046594674,0.09607403,0.8810662,-9.279925,-0.94810385
6.272877,4.616678,0.09084912,-0.00046594674,0.09607403,0.8810662,-9.279925,-0.94810385
6.2728395,4.6167765,0.09830597,-0.0025964756,0.102465615,0.80924016,-9.270349,-0.89064306
6.272802,4.6168747,0.09830597,-0.0025964756,0.102465615,0.80924016,-9.270349,-0.89064306
6.272775,4.6169605,0.10363229,-0.00366174,0.112053,0.7661445,-9.246407,-0.9720459
6.272749,4.6170464,0.10363229,-0.00366174,0.112053,0.7661445,-9.246407,-0.9720459
6.2727323,4.617141,0.10789335,-0.0047270046,0.12270564,0.8331822,-9.246407,-0.9576807
6.272716,4.6172347,0.10789335,-0.0047270046,0.12270564,0.8331822,-9.246407,-0.9576807
6.2727137,4.6173215,0.10895862,-0.0047270046,0.13548881,0.8379706,-9.251195,-1.0007763
6.2727118,4.6174088,0.10895862,-0.0047270046,0.13548881,0.8379706,-9.251195,-1.0007763
6.2727222,4.617517,0.10895862,-0.0047270046,0.15040252,0.89064306,-9.193734,-0.8810662
6.2727323,4.6176243,0.10895862,-0.0047270046,0.15040252,0.89064306,-9.193734,-0.8810662
6.2727566,4.6177263,0.10895862,-0.0025964756,0.16425095,0.9672575,-9.188946,-0.91937345
6.2727804,4.6178284,0.10895862,-0.0025964756,0.16425095,0.9672575,-9.188946,-0.91937345
6.272819,4.6179266,0.10895862,0.0005993177,0.17916466,0.93852705,-9.169792,-0.93373865
6.2728577,4.618025,0.10895862,0.0005993177,0.17916466,0.93852705,-9.169792,-0.93373865
6.2729106,4.618125,0.10789335,0.00592564,0.19407836,0.842759,-9.174581,-0.91458505
6.2729635,4.618224,0.10789335,0.00592564,0.19407836,0.842759,-9.174581,-0.91458505
6.2730336,4.6183195,0.10895862,0.012317227,0.21112259,0.91937345,-9.198523,-0.9528923
6.2731037,4.618414,0.10895862,0.012317227,0.21112259,0.91937345,-9.198523,-0.9528923
6.2731924,4.6185,0.11002388,0.018708814,0.22816682,1.0869676,-9.212888,-1.0486604
6.2732806,4.6185856,0.11002388,0.018708814,0.22816682,1.0869676,-9.212888,-1.0486604
6.2733817,4.6186814,0.10895862,0.030426722,0.2441458,0.92416185,-9.198523,-0.94810385
6.273482,4.6187754,0.10895862,0.030426722,0.2441458,0.92416185,-9.198523,-0.94810385
6.2735925,4.61888,0.106828086,0.04214463,0.2558637,0.61770403,-9.294291,-0.8858546
6.273705,4.6189847,0.106828086,0.04214463,0.2558637,0.61770403,-9.294291,-0.8858546
6.2738314,4.6190944,0.106828086,0.050666746,0.27184266,0.46926352,-9.361329,-0.8714894
6.2739563,4.619203,0.106828086,0.050666746,0.27184266,0.46926352,-9.361329,-0.8714894
6.2741027,4.619317,0.10789335,0.05599307,0.2920827,0.56982,-9.356541,-0.8571242
6.2742486,4.61943,0.10789335,0.05599307,0.2920827,0.56982,-9.356541,-0.8571242
6.274415,4.6195326,0.10895862,0.05918886,0.3123227,0.7278373,-9.370906,-0.90979666
6.274581,4.6196346,0.10895862,0.05918886,0.3123227,0.7278373,-9.370906,-0.90979666
6.274768,4.619729,0.11215441,0.06451519,0.33256274,0.7326257,-9.3661175,-0.9576807
6.274959,4.619826,0.11215441,0.06451519,0.33256274,0.7326257,-9.3661175,-0.9576807
6.2751627,4.6199083,0.11215441,0.071972035,0.3485417,0.7134721,-9.437943,-1.0151415
6.2753663,4.6199913,0.11215441,0.071972035,0.3485417,0.7134721,-9.437943,-1.0151415
6.275587,4.6200714,0.11428493,0.07942889,0.36239013,0.63206923,-9.423578,-1.0199299
6.2758093,4.6201525,0.11428493,0.07942889,0.36239013,0.63206923,-9.423578,-1.0199299
6.2760453,4.620231,0.1153502,0.085820474,0.37730384,0.59855044,-9.399636,-1.0199299
6.2762814,4.62031,0.1153502,0.085820474,0.37730384,0.59855044,-9.399636,-1.0199299
6.2765374,4.620381,0.11641546,0.09221206,0.3911523,0.5793968,-9.485827,-1.067814
6.2767935,4.6204515,0.11641546,0.09221206,0.3911523,0.5793968,-9.485827,-1.067814
6.277063,4.6205244,0.119611256,0.09860365,0.40500072,0.6607997,-9.572019,-1.1109096
6.2773323,4.620598,0.119611256,0.09860365,0.40500072,0.6607997,-9.572019,-1.1109096
6.2776127,4.6206775,0.12600285,0.104995236,0.4177839,0.8714894,-9.744401,-1.2018893
6.277894,4.620758,0.12600285,0.104995236,0.4177839,0.8714894,-9.744401,-1.2018893
6.2781763,4.62086,0.13452496,0.11351735,0.42843655,1.0630256,-9.825804,-1.1540052
6.278459,4.620962,0.13452496,0.11351735,0.42843655,1.0630256,-9.825804,-1.1540052
6.278746,4.6210794,0.1451776,0.12736578,0.4358934,0.9528923,-9.873688,-1.0965444
6.2790327,4.6211963,0.1451776,0.12736578,0.4358934,0.9528923,-9.873688,-1.0965444
6.279326,4.6213245,0.15902604,0.14121422,0.44121972,0.6560113,-10.055647,-1.067814
6.27962,4.6214523,0.15902604,0.14121422,0.44121972,0.6560113,-10.055647,-1.067814
6.27962,4.6214523,0.17713554,0.15186687,0.44335026,0.51235914,-10.232818,-0.9911995
6.280207,4.6217785,0.17713554,0.15186687,0.44335026,0.51235914,-10.232818,-0.9911995
6.280491,4.6219864,0.20057136,0.15293214,0.44654605,0.44532153,-10.304645,-0.89543146
6.2807817,4.622199,0.20057136,0.15293214,0.44654605,0.44532153,-10.304645,-0.89543146
6.28108,4.6224384,0.22720297,0.14654055,0.45187235,0.37828386,-10.295067,-0.90021986
6.281378,4.6226773,0.22720297,0.14654055,0.45187235,0.37828386,-10.295067,-0.90021986
6.2816935,4.6229687,0.25703037,0.13801843,0.46039447,0.34955344,-10.323798,-0.842759
6.2820077,4.623258,0.25703037,0.13801843,0.46039447,0.34955344,-10.323798,-0.842759
6.282348,4.623603,0.29005358,0.12843105,0.46998185,0.2633622,-10.366894,-0.80924016
6.282687,4.623945,0.29005358,0.12843105,0.46998185,0.2633622,-10.366894,-0.80924016
6.283031,4.6243086,0.32414204,0.1209742,0.4838303,0.22026655,-10.395624,-0.8619126
0.00018415786,4.624665,0.32414204,0.1209742,0.4838303,0.22026655,-10.395624,-0.8619126
0.00053722516,4.6250505,0.3582305,0.11032156,0.49874398,0.20111294,-10.496181,-0.8810662
0.00088917767,4.625433,0.3582305,0.11032156,0.49874398,0.20111294,-10.496181,-0.8810662
0.0012536816,4.625839,0.39338422,0.09860365,0.5136577,0.21068975,-10.55843,-0.90021986
0.0016177073,4.626242,0.39338422,0.09860365,0.5136577,0.21068975,-10.55843,-0.90021986
0.0019979908,4.6266747,0.42960322,0.087951005,0.5296367,0.19153613,-10.6398325,-0.91458505
0.0023782086,4.627104,0.42960322,0.087951005,0.5296367,0.19153613,-10.6398325,-0.91458505
0.0028184182,4.6274967,0.46688747,0.07516783,0.5434851,0.14844051,-10.682928,-1.0486604
0.0032583978,4.6278887,0.46688747,0.07516783,0.5434851,0.14844051,-10.682928,-1.0486604
0.0036890004,4.628345,0.5020412,0.060254127,0.5562683,0.090979666,-10.70687,-0.9576807
0.004114894,4.6287923,0.5020412,0.060254127,0.5562683,0.090979666,-10.70687,-0.9576807
0.004666374,4.6292286,0.53612965,0.04427516,0.5679862,-0.02873042,-10.740389,-1.043872
0.0052148122,4.629666,0.53612965,0.04427516,0.5679862,-0.02873042,-10.740389,-1.043872
0.005806067,4.630137,0.57021815,0.0251004,0.5765083,-0.08140286,-10.759542,-1.0199299
0.0063924985,4.6306076,0.57021815,0.0251004,0.5765083,-0.08140286,-10.759542,-1.0199299
0.0069982777,4.631117,0.6032413,0.003795111,0.5882262,-0.095768064,-10.749966,-1.0821792
0.007595738,4.631622,0.6032413,0.003795111,0.5882262,-0.095768064,-10.749966,-1.0821792
0.0081999395,4.632148,0.63306874,-0.015379649,0.5978136,-0.12449849,-10.759542,-1.13964
0.008808822,4.6326804,0.63306874,-0.015379649,0.5978136,-0.12449849,-10.759542,-1.13964
0.009426991,4.6332455,0.6607656,-0.03455441,0.60313994,-0.12928689,-10.6877165,-1.2258313
0.010033459,4.6338015,0.6607656,-0.03455441,0.60313994,-0.12928689,-10.6877165,-1.2258313
0.010653015,4.634388,0.6863319,-0.04946811,0.6095315,-0.1388637,-10.658986,-1.2306197
0.011270763,4.6349745,0.6863319,-0.04946811,0.6095315,-0.1388637,-10.658986,-1.2306197
0.011893593,4.6355863,0.71189827,-0.06331655,0.61166203,-0.15801731,-10.6158905,-1.2880806
0.0125148995,4.636198,0.71189827,-0.06331655,0.61166203,-0.15801731,-10.6158905,-1.2880806
0.013125167,4.636834,0.7332036,-0.077164985,0.6105968,-0.090979666,-10.524911,-1.3694834
0.013731929,4.6374683,0.7332036,-0.077164985,0.6105968,-0.090979666,-10.524911,-1.3694834
0.014327102,4.6381187,0.75237834,-0.08994816,0.6042052,-0.07182605,-10.462662,-1.3838485
0.014327102,4.6381187,0.75237834,-0.08994816,0.6042052,-0.07182605,-10.462662,-1.3838485
0.01576016,4.6397805,0.7694226,-0.10166607,0.5946178,-0.009576807,-10.390836,-1.4077905
0.016077882,4.6401505,0.7694226,-0.10166607,0.5946178,-0.009576807,-10.390836,-1.4077905
0.016637182,4.6408305,0.78433627,-0.11125345,0.5797041,-0.0047884034,-10.295067,-1.4700398
0.017208843,4.641526,0.78433627,-0.11125345,0.5797041,-0.0047884034,-10.295067,-1.4700398
0.017741939,4.6422157,0.7981847,-0.1187103,0.5615946,0.023942016,-10.223241,-1.4748282
0.018296747,4.6429334,0.7981847,-0.1187103,0.5615946,0.023942016,-10.223241,-1.4748282
0.018820137,4.6436377,0.8099026,-0.122971356,0.5434851,-0.01436521,-10.113108,-1.4891934
0.019349894,4.6443515,0.8099026,-0.122971356,0.5434851,-0.01436521,-10.113108,-1.4891934
0.019836117,4.645047,0.81735945,-0.12616715,0.52217984,0.023942016,-10.0269165,-1.5035586
0.020336019,4.6457634,0.81735945,-0.12616715,0.52217984,0.023942016,-10.0269165,-1.5035586
0.020816222,4.6464915,0.8226858,-0.12723242,0.49767873,0.04309563,-9.969456,-1.5753847
0.021308469,4.647239,0.8226858,-0.12723242,0.49767873,0.04309563,-9.969456,-1.5753847
0.02175048,4.6479416,0.82907736,-0.1251019,0.47424293,0.0047884034,-9.931149,-1.6567876
0.022207372,4.6486683,0.82907736,-0.1251019,0.47424293,0.0047884034,-9.931149,-1.6567876
0.022645673,4.649399,0.8301427,-0.11977556,0.45293763,-0.0047884034,-9.883265,-1.6807296
0.023086712,4.6501346,0.8301427,-0.11977556,0.45293763,-0.0047884034,-9.883265,-1.6807296
0.023502221,4.6508684,0.8301427,-0.11125345,0.43163234,0.009576807,-9.911995,-1.6519991
0.023914538,4.651597,0.8301427,-0.11125345,0.43163234,0.009576807,-9.911995,-1.6519991
0.024303356,4.6523237,0.82481635,-0.10166607,0.41032705,0.02873042,-9.89763,-1.5993267
0.024691552,4.6530495,0.82481635,-0.10166607,0.41032705,0.02873042,-9.89763,-1.5993267
0.025064556,4.6537695,0.81949,-0.091013424,0.3932828,-0.019153614,-9.959879,-1.5227122
0.025436489,4.6544886,0.81949,-0.091013424,0.3932828,-0.019153614,-9.959879,-1.5227122
0.025791062,4.655203,0.81309843,-0.08036078,0.37943438,0,-9.959879,-1.4700398
0.02614578,4.655918,0.81309843,-0.08036078,0.37943438,0,-9.959879,-1.4700398
0.02648967,4.6566257,0.8056416,-0.06970814,0.3666512,-0.062249243,-10.0269165,-1.3359646
0.026833324,4.657333,0.8056416,-0.06970814,0.3666512,-0.062249243,-10.0269165,-1.3359646
0.02716953,4.658034,0.79925,-0.057990227,0.35812908,-0.10534488,-10.108319,-1.2354081
0.027505487,4.6587353,0.79925,-0.057990227,0.35812908,-0.10534488,-10.108319,-1.2354081
0.027842468,4.6594253,0.7896626,-0.04627232,0.35067225,-0.18674773,-10.1226845,-1.13964
0.028180394,4.660118,0.7896626,-0.04627232,0.35067225,-0.18674773,-10.1226845,-1.13964
0.02853472,4.660797,0.7811405,-0.03455441,0.3453459,-0.33518824,-10.175357,-1.0534488
0.028889628,4.661478,0.7811405,-0.03455441,0.3453459,-0.33518824,-10.175357,-1.0534488
0.029257378,4.6621485,0.7694226,-0.026032293,0.34747645,-0.3878607,-10.199299,-0.9911995
0.029623717,4.662818,0.7694226,-0.026032293,0.34747645,-0.3878607,-10.199299,-0.9911995
0.030009018,4.663478,0.7566394,-0.018575443,0.3517375,-0.4309563,-10.237606,-0.8858546
0.030392757,4.6641374,0.7566394,-0.018575443,0.3517375,-0.4309563,-10.237606,-0.8858546
0.03079661,4.664785,0.7417257,-0.014314385,0.3549333,-0.51714754,-10.271125,-0.89064306
0.03119847,4.665431,0.7417257,-0.014314385,0.3549333,-0.51714754,-10.271125,-0.89064306
0.031612277,4.666065,0.726812,-0.011118591,0.35919434,-0.5363012,-10.213664,-0.8475474
0.032026023,4.6667013,0.726812,-0.011118591,0.35919434,-0.5363012,-10.213664,-0.8475474
0.032449916,4.667321,0.710833,-0.010053327,0.36239013,-0.5650316,-10.170568,-0.80924016
0.032871984,4.6679397,0.710833,-0.010053327,0.36239013,-0.5650316,-10.170568,-0.80924016
0.03329331,4.6685405,0.6937888,-0.010053327,0.3666512,-0.59855044,-10.089166,-0.90021986
0.03371324,4.669141,0.6937888,-0.010053327,0.3666512,-0.59855044,-10.089166,-0.90021986
0.03412986,4.6697245,0.67780983,-0.008988062,0.36771646,-0.61770403,-10.0508585,-0.9720459
0.034545366,4.6703067,0.67780983,-0.008988062,0.36771646,-0.61770403,-10.0508585,-0.9720459
0.034950897,4.670873,0.6639614,-0.005792269,0.36771646,-0.5746084,-9.9790325,-1.0055647
0.035355464,4.671439,0.6639614,-0.005792269,0.36771646,-0.5746084,-9.9790325,-1.0055647
0.035740566,4.6719904,0.65117824,-0.00046594674,0.36239013,-0.51235914,-9.911995,-1.1013328
0.03611956,4.6725335,0.65117824,-0.00046594674,0.36239013,-0.51235914,-9.911995,-1.1013328
0.036488246,4.6730704,0.6383951,0.0069909045,0.35706383,-0.45489833,-9.892841,-1.1875241
0.036862303,4.6736155,0.6383951,0.0069909045,0.35706383,-0.45489833,-9.892841,-1.1875241
0.037219334,4.674138,0.6245466,0.017643549,0.34747645,-0.45489833,-9.797073,-1.2641385
0.03757413,4.6746573,0.6245466,0.017643549,0.34747645,-0.45489833,-9.797073,-1.2641385
0.037907716,4.675167,0.61282873,0.031491987,0.333628,-0.38307226,-9.816227,-1.283292
0.03824262,4.675679,0.61282873,0.031491987,0.333628,-0.38307226,-9.816227,-1.283292
0.038557243,4.676175,0.6000455,0.04853622,0.31658378,-0.37349546,-9.706094,-1.2114661
0.038871318,4.676671,0.6000455,0.04853622,0.31658378,-0.37349546,-9.706094,-1.2114661
0.03916813,4.677153,0.5861971,0.06771098,0.29634374,-0.40701428,-9.787497,-1.1731589
0.039464287,4.6776342,0.5861971,0.06771098,0.29634374,-0.40701428,-9.787497,-1.1731589
0.039804194,4.6781983,0.5734139,0.090081535,0.27503845,-0.46447513,-9.797073,-1.0534488
0.039804194,4.6781983,0.5734139,0.090081535,0.27503845,-0.46447513,-9.797073,-1.0534488
0.040312726,4.679047,0.5595655,0.11245208,0.25373316,-0.5267244,-9.821015,-1.0342951
0.040575817,4.679493,0.5595655,0.11245208,0.25373316,-0.5267244,-9.821015,-1.0342951
0.04083052,4.679934,0.54571706,0.13375737,0.22923209,-0.58418524,-9.854534,-0.91937345
0.041084714,4.680375,0.54571706,0.13375737,0.22923209,-0.58418524,-9.854534,-0.91937345
0.041340232,4.680808,0.5329339,0.15506266,0.20686153,-0.7134721,-9.883265,-0.8475474
0.04159508,4.6812406,0.5329339,0.15506266,0.20686153,-0.7134721,-9.883265,-0.8475474
0.041841973,4.6816626,0.5169549,0.17530268,0.18449098,-0.7422025,-9.916783,-0.7374141
0.04208809,4.682083,0.5169549,0.17530268,0.18449098,-0.7422025,-9.916783,-0.7374141
0.042352445,4.6825275,0.4988454,0.19234692,0.16212043,-0.81402856,-9.940725,-0.6464345
0.042579774,4.682911,0.4988454,0.19234692,0.16212043,-0.81402856,-9.940725,-0.6464345
0.042825304,4.683319,0.48180118,0.20619535,0.14188041,-0.89543146,-9.911995,-0.5602432
0.04307171,4.68373,0.48180118,0.20619535,0.14188041,-0.89543146,-9.911995,-0.5602432
0.043308027,4.6841307,0.46369168,0.21578273,0.12270564,-0.90979666,-9.916783,-0.48362875
0.043570288,4.6845746,0.46369168,0.21578273,0.12270564,-0.90979666,-9.916783,-0.48362875
0.0437696,4.6849213,0.4423864,0.22110906,0.104596145,-0.90979666,-9.940725,-0.48362875
0.043984957,4.685295,0.4423864,0.22110906,0.104596145,-0.90979666,-9.940725,-0.48362875
0.04420283,4.68571,0.42214635,0.22430485,0.08435612,-0.93852705,-9.907207,-0.25857377
0.044421118,4.686124,0.42214635,0.22430485,0.08435612,-0.93852705,-9.907207,-0.25857377
0.04460492,4.6865587,0.4008411,0.22430485,0.06731189,-0.94810385,-9.892841,-0.07182605
0.044790853,4.6869965,0.4008411,0.22430485,0.06731189,-0.94810385,-9.892841,-0.07182605
0.044943817,4.6874294,0.3816663,0.22430485,0.05026766,-0.9816227,-9.849746,0.05267244
0.045096498,4.687859,0.3816663,0.22430485,0.05026766,-0.9816227,-9.849746,0.05267244
0.045217115,4.688285,0.3646221,0.22323959,0.032158162,-1.0199299,-9.835381,0.19632454
0.045338072,4.688711,0.3646221,0.22323959,0.032158162,-1.0199299,-9.835381,0.19632454
0.045433104,4.689127,0.34970838,0.22217433,0.016179197,-1.043872,-9.849746,0.31124622
0.04552845,4.689543,0.34970838,0.22217433,0.016179197,-1.043872,-9.849746,0.31124622
0.04560296,4.689951,0.33905575,0.21897852,-0.0008650357,-1.0869676,-9.868899,0.39743748
0.045677695,4.690358,0.33905575,0.21897852,-0.0008650357,-1.0869676,-9.868899,0.39743748
0.045738056,4.690759,0.33159888,0.21471748,-0.013648209,-1.13964,-9.945514,0.46926352
0.045798782,4.69116,0.33159888,0.21471748,-0.013648209,-1.13964,-9.945514,0.46926352
0.045845777,4.691559,0.32733783,0.20939115,-0.025366118,-1.1875241,-9.940725,0.5506664
0.04589292,4.6919556,0.32733783,0.20939115,-0.025366118,-1.1875241,-9.940725,0.5506664
0.045928527,4.692351,0.32627258,0.19980377,-0.04027982,-1.2162545,-9.993398,0.5363012
0.04596446,4.692746,0.32627258,0.19980377,-0.04027982,-1.2162545,-9.993398,0.5363012
0.045978785,4.6931458,0.32733783,0.18915112,-0.056258786,-1.1731589,-10.022128,0.5793968
0.045993447,4.6935453,0.32733783,0.18915112,-0.056258786,-1.1731589,-10.022128,0.5793968
0.045992136,4.6939483,0.3284031,0.17636795,-0.06904196,-1.1300632,-10.0748005,0.58418524
0.04599113,4.694351,0.3284031,0.17636795,-0.06904196,-1.1300632,-10.0748005,0.58418524
0.04597128,4.694757,0.32946837,0.15932372,-0.08502093,-1.1300632,-10.079589,0.6368576
0.045951515,4.6951694,0.32946837,0.15932372,-0.08502093,-1.1300632,-10.079589,0.6368576
0.04591345,4.6955733,0.33159888,0.14014897,-0.10526095,-1.0390835,-10.0748005,0.521936
0.045875542,4.695981,0.33159888,0.14014897,-0.10526095,-1.0390835,-10.0748005,0.521936
0.04580284,4.6963954,0.33266416,0.118843675,-0.1276315,-0.9816227,-10.041282,0.641646
0.045730338,4.696811,0.33266416,0.118843675,-0.1276315,-0.9816227,-10.041282,0.641646
0.04562925,4.6972284,0.33266416,0.09647312,-0.15213259,-0.92416185,-9.9790325,0.641646
0.045528404,4.697646,0.33266416,0.09647312,-0.15213259,-0.92416185,-9.9790325,0.641646
0.045398448,4.6980653,0.33266416,0.074102566,-0.18089473,-0.90979666,-9.974244,0.6368576
0.04526892,4.6984844,0.33266416,0.074102566,-0.18089473,-0.90979666,-9.974244,0.6368576
0.04511201,4.698904,0.33372942,0.05599307,-0.2117874,-0.9528923,-9.921572,0.6607997
0.044955693,4.699323,0.33372942,0.05599307,-0.2117874,-0.9528923,-9.921572,0.6607997
0.044779126,4.6997414,0.33266416,0.038948838,-0.24587587,-1.0055647,-9.825804,0.521936
0.044606265,4.7001514,0.33266416,0.038948838,-0.24587587,-1.0055647,-9.825804,0.521936
0.044405375,4.7005615,0.33159888,0.021904606,-0.27889907,-1.091756,-9.749189,0.545878
0.044205178,4.7009716,0.33159888,0.021904606,-0.27889907,-1.091756,-9.749189,0.545878
0.04397504,4.70138,0.33159888,0.003795111,-0.3140528,-1.0726024,-9.68694,0.47405192
0.043745708,4.701788,0.33159888,0.003795111,-0.3140528,-1.0726024,-9.68694,0.47405192
0.043481994,4.702196,0.33053362,-0.015379649,-0.347076,-1.043872,-9.730036,0.46926352
0.043218847,4.7026043,0.33053362,-0.015379649,-0.347076,-1.043872,-9.730036,0.46926352
0.042924717,4.7030125,0.3284031,-0.033489145,-0.37690338,-0.9959879,-9.744401,0.44532153
0.04263124,4.7034197,0.3284031,-0.033489145,-0.37690338,-0.9959879,-9.744401,0.44532153
0.042304024,4.7038307,0.32627258,-0.052663904,-0.40460026,-0.9864111,-9.844957,0.47884035
0.04198198,4.7042356,0.32627258,-0.052663904,-0.40460026,-0.9864111,-9.844957,0.47884035
0.041635018,4.7046375,0.3220115,-0.06970814,-0.4312319,-0.91458505,-10.0029745,0.37828386
0.041288167,4.70504,0.3220115,-0.06970814,-0.4312319,-0.91458505,-10.0029745,0.37828386
0.040903978,4.7054443,0.31775045,-0.08675237,-0.45786348,-0.8810662,-10.079589,0.45010993
0.04052065,4.7058477,0.31775045,-0.08675237,-0.45786348,-0.8810662,-10.079589,0.45010993
0.0401151,4.7062464,0.31348938,-0.10166607,-0.48236457,-0.9576807,-10.16578,0.51235914
0.039710674,4.7066445,0.31348938,-0.10166607,-0.48236457,-0.9576807,-10.16578,0.51235914
0.039273933,4.7070475,0.31242412,-0.11338398,-0.5026046,-0.8331822,-10.208876,0.49799395
0.038838927,4.7074494,0.31242412,-0.11338398,-0.5026046,-0.8331822,-10.208876,0.49799395
0.03836698,4.707862,0.31455466,-0.122971356,-0.51964885,-0.81881696,-10.342952,0.6943185
0.03790184,4.708269,0.31455466,-0.122971356,-0.51964885,-0.81881696,-10.342952,0.6943185
0.03742554,4.708683,0.32094625,-0.12829769,-0.5334973,-0.8858546,-10.529699,0.7134721
0.03694992,4.709097,0.32094625,-0.12829769,-0.5334973,-0.8858546,-10.529699,0.7134721
0.03647333,4.7095137,0.3284031,-0.133624,-0.54628044,-1.0773908,-10.668563,0.78529817
0.03599732,4.70993,0.3284031,-0.133624,-0.54628044,-1.0773908,-10.668563,0.78529817
0.035525177,4.710345,0.33479467,-0.14001559,-0.55799836,-1.3694834,-10.893618,0.8283938
0.035053484,4.710759,0.33479467,-0.14001559,-0.55799836,-1.3694834,-10.893618,0.8283938
0.034585528,4.7111692,0.33799046,-0.14534192,-0.5654552,-1.6807296,-11.204864,0.8762778
0.034116935,4.71158,0.33799046,-0.14534192,-0.5654552,-1.6807296,-11.204864,0.8762778
0.03365172,4.7119875,0.33585995,-0.14960296,-0.5622594,-2.0207062,-11.544841,1.0295067
0.03319329,4.712389,0.33585995,-0.14960296,-0.5622594,-2.0207062,-11.544841,1.0295067
0.03275364,4.712778,0.32733783,-0.14960296,-0.54841095,-2.4372973,-11.9374895,1.0534488
0.03231421,4.713166,0.32733783,-0.14960296,-0.54841095,-2.4372973,-11.9374895,1.0534488
0.031910203,4.713526,0.31029359,-0.14214613,-0.5228446,-2.9400797,-12.425907,0.9816227
0.031505875,4.7138863,0.31029359,-0.14214613,-0.5228446,-2.9400797,-12.425907,0.9816227
0.031139765,4.7142143,0.2857925,-0.12829769,-0.48875615,-3.5338416,-12.876017,0.9911995
0.030658184,4.7146463,0.2857925,-0.12829769,-0.48875615,-3.5338416,-12.876017,0.9911995
0.030429468,4.71485,0.25170404,-0.108057655,-0.44721085,-4.1276035,-13.374011,0.89543146
0.030429468,4.71485,0.25170404,-0.108057655,-0.44721085,-4.1276035,-13.374011,0.89543146
0.030429468,4.71485,0.25170404,-0.108057655,-0.44721085,-4.1276035,-13.374011,0.89543146
0.030429468,4.71485,0.25170404,-0.108057655,-0.44721085,-4.1276035,-13.374011,0.89543146
0.02905412,4.716069,0.15476498,-0.060120758,-0.35346758,-5.315128,-14.45619,0.6464345
0.028879946,4.716206,0.15476498,-0.060120758,-0.35346758,-5.315128,-14.45619,0.6464345
0.028721096,4.716302,0.09511018,-0.036684938,-0.3140528,-5.923255,-15.059528,0.5363012
0.028554954,4.7164016,0.09511018,-0.036684938,-0.3140528,-5.923255,-15.059528,0.5363012
0.028410615,4.716438,0.02906378,-0.010053327,-0.28422537,-6.6271505,-15.811308,0.40222588
0.028262237,4.7164745,0.02906378,-0.010053327,-0.28422537,-6.6271505,-15.811308,0.40222588
0.028135004,4.7164364,-0.04443947,0.026165664,-0.26292008,-7.4842744,-16.539145,0.45489833
0.02800725,4.7163987,-0.04443947,0.026165664,-0.26292008,-7.4842744,-16.539145,0.45489833
0.02788643,4.716273,-0.12646483,0.07516783,-0.254398,-8.6334915,-17.57344,0.37828386
0.02776682,4.7161484,-0.12646483,0.07516783,-0.254398,-8.6334915,-17.57344,0.37828386
0.027647486,4.715926,-0.22127336,0.14441001,-0.25759378,-10.084377,-18.626888,0.076614454
0.02752811,4.7157035,-0.22127336,0.14441001,-0.25759378,-10.084377,-18.626888,0.076614454
0.02739986,4.7153563,-0.33525667,0.2349575,-0.26611587,-11.597513,-19.685127,-0.45489833
0.027271496,4.7150087,-0.33525667,0.2349575,-0.26611587,-11.597513,-19.685127,-0.45489833
0.027131623,4.7145157,-0.47054526,0.345745,-0.2778338,-12.933477,-20.39381,-1.1013328
0.02699164,4.714024,-0.47054526,0.345745,-0.2778338,-12.933477,-20.39381,-1.1013328
0.026835293,4.7133613,-0.6303349,0.47677252,-0.29381275,-14.834474,-21.246145,-1.9728222
0.02667894,4.712701,-0.6303349,0.47677252,-0.29381275,-14.834474,-21.246145,-1.9728222
0.02649292,4.711849,-0.8124951,0.619518,-0.3225749,-16.52478,-22.151154,-2.7341783
0.0263069,4.7110004,-0.8124951,0.619518,-0.3225749,-16.52478,-22.151154,-2.7341783
0.026075196,4.7099404,-1.0074385,0.77185076,-0.36518547,-17.18558,-22.591688,-3.289633
0.02584314,4.7088833,-1.0074385,0.77185076,-0.36518547,-17.18558,-22.591688,-3.289633
0.025545066,4.707636,-1.1991861,0.94122785,-0.4312319,-17.295713,-22.524649,-3.6631286
0.025244342,4.7063823,-1.1991861,0.94122785,-0.4312319,-17.295713,-22.524649,-3.6631286
0.024833525,4.704951,-1.3738896,1.1287143,-0.5388236,-17.535133,-21.772871,-3.8546648
0.02442109,4.7035193,-1.3738896,1.1287143,-0.5388236,-17.535133,-21.772871,-3.8546648
0.023844026,4.7019362,-1.5219612,1.3279189,-0.69967854,-17.439365,-21.102493,-3.8738184
0.023266073,4.7003574,-1.5219612,1.3279189,-0.69967854,-17.439365,-21.102493,-3.8738184
0.022468226,4.6986527,-1.6359446,1.5249927,-0.9127314,-16.180016,-20.211851,-3.9983168
0.021669365,4.696953,-1.6359446,1.5249927,-0.9127314,-16.180016,-20.211851,-3.9983168
0.020575073,4.6951685,-1.7158394,1.7199361,-1.2024833,-14.777013,-19.024326,-3.9600096
0.019465702,4.693367,-1.7158394,1.7199361,-1.2024833,-14.777013,-19.024326,-3.9600096
0.017990291,4.691541,-1.7669721,1.9170101,-1.5827827,-13.306973,-17.942148,-3.8115692
0.016502557,4.6897078,-1.7669721,1.9170101,-1.5827827,-13.306973,-17.942148,-3.8115692
0.014531088,4.6878395,-1.7957343,2.109823,-2.054695,-11.654974,-16.711529,-3.6487634
0.012557851,4.685978,-1.7957343,2.109823,-2.054695,-11.654974,-16.711529,-3.6487634
0.010020321,4.684103,-1.8138437,2.2919831,-2.6171546,-9.773131,-15.605407,-3.3997664
0.0074685346,4.682227,-1.8138437,2.2919831,-2.6171546,-9.773131,-15.605407,-3.3997664
0.004276503,4.6803427,-1.8362143,2.468817,-3.2605743,-7.824251,-14.78659,-2.743755
0.0010610269,4.6784554,-1.8362143,2.468817,-3.2605743,-7.824251,-14.78659,-2.743755
6.2803135,4.676557,-1.8745638,2.6403246,-3.980693,-6.229713,-14.192827,-1.6424223
6.2763367,4.6746507,-1.8745638,2.6403246,-3.980693,-6.229713,-14.192827,-1.6424223
6.271642,4.6727524,-1.9384797,2.8128974,-4.7594013,-5.4204726,-13.905523,-0.4261679
6.266914,4.670855,-1.9384797,2.8128974,-4.7594013,-5.4204726,-13.905523,-0.4261679
6.2613363,4.668902,-2.027962,2.9822745,-5.5711327,-5.2720323,-13.814544,0.5793968
6.255776,4.666972,-2.027962,2.9822745,-5.5711327,-5.2720323,-13.814544,0.5793968
6.2493644,4.6649604,-2.1387494,3.137803,-6.3881907,-5.363012,-13.857639,1.3790601
6.24296,4.662971,-2.1387494,3.137803,-6.3881907,-5.363012,-13.857639,1.3790601
6.235725,4.6608768,-2.2655158,3.2603085,-7.1807475,-5.568913,-14.077906,1.9440918
6.228484,4.658803,-2.2655158,3.2603085,-7.1807475,-5.568913,-14.077906,1.9440918
6.2204976,4.656629,-2.3997393,3.3370075,-7.924302,-5.353435,-14.302961,2.4708161
6.2124414,4.6544595,-2.3997393,3.3370075,-7.924302,-5.353435,-14.302961,2.4708161
6.203807,4.6522236,-2.520114,3.3615086,-8.59968,-5.104438,-14.537593,2.7006595
6.1951056,4.6499944,-2.520114,3.3615086,-8.59968,-5.104438,-14.537593,2.7006595
6.1858068,4.647694,-2.6159878,3.3338118,-9.197293,-4.5202527,-14.954184,2.8778305
6.1765113,4.6454186,-2.6159878,3.3338118,-9.197293,-4.5202527,-14.954184,2.8778305
6.166646,4.6431165,-2.672447,3.2517865,-9.722468,-1.661576,-14.45619,3.5673606
6.156786,4.640839,-2.672447,3.2517865,-9.722468,-1.661576,-14.45619,3.5673606
6.146428,4.6385612,-2.6830995,3.1463253,-10.163488,0.6943185,-13.412318,3.7924154
6.136078,4.6363077,-2.6830995,3.1463253,-10.163488,0.6943185,-13.412318,3.7924154
6.125363,4.6340904,-2.6490111,3.0312767,-10.535265,1.1683705,-12.794614,3.763685
6.114549,4.631874,-2.6490111,3.0312767,-10.535265,1.1683705,-12.794614,3.763685
6.103586,4.629751,-2.579769,2.8895965,-10.839931,2.054225,-12.152967,3.8163576
6.0925436,4.6276317,-2.579769,2.8895965,-10.839931,2.054225,-12.152967,3.8163576
6.081259,4.6255903,-2.4806993,2.7212846,-11.071094,3.3423057,-11.626244,3.9360676
6.0699844,4.6235676,-2.4806993,2.7212846,-11.071094,3.3423057,-11.626244,3.9360676
6.0585093,4.6216316,-2.3539329,2.5348635,-11.226622,4.855441,-10.960655,3.8115692
6.047056,4.619713,-2.3539329,2.5348635,-11.226622,4.855441,-10.960655,3.8115692
6.0355444,4.617901,-2.2090569,2.3463116,-11.315039,6.1866174,-10.055647,3.6056678
6.0239735,4.6160917,-2.2090569,2.3463116,-11.315039,6.1866174,-10.055647,3.6056678
6.0124435,4.614397,-2.052463,2.1556294,-11.3352785,7.101202,-8.992621,3.3662477
6.000786,4.6126924,-2.052463,2.1556294,-11.3352785,7.101202,-8.992621,3.3662477
5.9893174,4.611111,-1.891608,1.9638817,-11.291603,7.896077,-7.7572136,3.169923
5.9778366,4.6095347,-1.891608,1.9638817,-11.291603,7.896077,-7.7572136,3.169923
5.966433,4.6080513,-1.7350142,1.7721341,-11.193599,8.169016,-6.7851677,3.0023289
5.954961,4.6065617,-1.7350142,1.7721341,-11.193599,8.169016,-6.7851677,3.0023289
5.9437447,4.6051674,-1.5858772,1.5750601,-11.044461,8.623915,-6.105214,2.9496565
5.932551,4.603777,-1.5858772,1.5750601,-11.044461,8.623915,-6.105214,2.9496565
5.921519,4.6024504,-1.4452622,1.3801168,-10.842061,8.66701,-5.602432,2.5905263
5.9104867,4.601122,-1.4452622,1.3801168,-10.842061,8.66701,-5.602432,2.5905263
5.899765,4.5998554,-1.3153,1.191565,-10.587463,8.6813755,-5.142745,2.0685902
5.8889365,4.598572,-1.3153,1.191565,-10.587463,8.6813755,-5.142745,2.0685902
5.878533,4.5973377,-1.2002515,1.0083395,-10.289189,8.734048,-4.6399627,1.3455414
5.868067,4.596089,-1.2002515,1.0083395,-10.289189,8.734048,-4.6399627,1.3455414
5.857981,4.5948668,-1.097986,0.8293751,-9.952565,8.652645,-4.189853,0.79008657
5.8478956,4.5936356,-1.097986,0.8293751,-9.952565,8.652645,-4.189853,0.79008657
5.8381963,4.5924196,-1.0074385,0.659998,-9.580789,8.623915,-3.7732618,0.47405192
5.828478,4.5911903,-1.0074385,0.659998,-9.580789,8.623915,-3.7732618,0.47405192
5.8191814,4.5899725,-0.9232826,0.49701256,-9.183445,8.714894,-3.4572272,0.24899697
5.809896,4.588744,-0.9232826,0.49701256,-9.183445,8.714894,-3.4572272,0.24899697
5.8010235,4.5875235,-0.8423225,0.34361446,-8.765861,8.523358,-3.122039,-0.0047884034
5.792108,4.586282,-0.8423225,0.34361446,-8.765861,8.523358,-3.122039,-0.0047884034
5.7837267,4.585078,-0.7581667,0.20619535,-8.333364,8.207323,-2.719813,-0.023942016
5.775321,4.583855,-0.7581667,0.20619535,-8.333364,8.207323,-2.719813,-0.023942016
5.7673774,4.582668,-0.6686844,0.08475521,-7.8827567,7.8050976,-2.327164,-0.17717093
5.7594347,4.581465,-0.6686844,0.08475521,-7.8827567,7.8050976,-2.327164,-0.17717093
5.7519464,4.580313,-0.5717454,-0.01324912,-7.4214973,7.4268136,-1.8387469,-0.41180268
5.7444816,4.5791497,-0.5717454,-0.01324912,-7.4214973,7.4268136,-1.8387469,-0.41180268
5.7374687,4.578054,-0.46947998,-0.091013424,-6.946389,7.1347213,-1.5227122,-0.62249243
5.730471,4.576946,-0.46947998,-0.091013424,-6.946389,7.1347213,-1.5227122,-0.62249243
5.723965,4.5759306,-0.360823,-0.14960296,-6.4712815,6.885724,-1.292869,-0.842759
5.717395,4.574891,-0.360823,-0.14960296,-6.4712815,6.885724,-1.292869,-0.842759
5.7113757,4.5739594,-0.25110078,-0.19540934,-5.998304,6.6606693,-1.0486604,-1.2354081
5.7053514,4.5730143,-0.25110078,-0.19540934,-5.998304,6.6606693,-1.0486604,-1.2354081
5.699764,4.5721655,-0.14350906,-0.23588939,-5.5402403,6.7085533,-0.78529817,-1.5945383
5.694183,4.571306,-0.14350906,-0.23588939,-5.5402403,6.7085533,-0.78529817,-1.5945383
5.689043,4.570542,-0.04443947,-0.26891258,-5.1024165,6.4739213,-0.46447513,-1.9776106
5.683893,4.569765,-0.04443947,-0.26891258,-5.1024165,6.4739213,-0.46447513,-1.9776106
5.6771884,4.568804,0.04610801,-0.2955442,-4.6901593,6.7947445,-0.0047884034,-2.2361844
5.6745663,4.5684233,0.04610801,-0.2955442,-4.6901593,6.7947445,-0.0047884034,-2.2361844
5.670106,4.56781,0.12493758,-0.32963267,-4.3162513,7.038953,0.48362875,-2.2840683
5.6657457,4.567201,0.12493758,-0.32963267,-4.3162513,7.038953,0.48362875,-2.2840683
5.6617594,4.566682,0.19844083,-0.3615906,-3.9870846,7.1347213,1.0342951,-2.1404164
5.6577454,4.566151,0.19844083,-0.3615906,-3.9870846,7.1347213,1.0342951,-2.1404164
5.6539273,4.5656853,0.26129144,-0.38715693,-3.705855,7.1873937,1.6232687,-1.8579005
5.6502953,4.565236,0.26129144,-0.38715693,-3.705855,7.1873937,1.6232687,-1.8579005
5.6468005,4.564847,0.32094625,-0.40420118,-3.4714966,7.4363904,2.0925324,-1.6519991
5.643306,4.564452,0.32094625,-0.40420118,-3.4714966,7.4363904,2.0925324,-1.6519991
5.6399903,4.5641255,0.37527472,-0.41165802,-3.2850754,7.4842744,2.6144683,-1.4173675
5.6366754,4.563793,0.37527472,-0.41165802,-3.2850754,7.4842744,2.6144683,-1.4173675
5.6335144,4.5635276,0.4242769,-0.40739697,-3.1412647,7.747637,3.1555579,-1.3934253
5.6303377,4.5632553,0.4242769,-0.40739697,-3.1412647,7.747637,3.1555579,-1.3934253
5.627411,4.5630493,0.46688747,-0.3967443,-3.0443256,7.9822683,3.667917,-1.508347
5.6242332,4.5628214,0.46688747,-0.3967443,-3.0443256,7.9822683,3.667917,-1.508347
5.621234,4.5626483,0.4988454,-0.37756956,-2.988932,7.97748,4.0940847,-1.685518
5.618214,4.5624695,0.4988454,-0.37756956,-2.988932,7.97748,4.0940847,-1.685518
5.6149807,4.5623217,0.5222812,-0.34774217,-2.965496,8.054094,4.4484267,-1.9249382
5.612228,4.5621915,0.5222812,-0.34774217,-2.965496,8.054094,4.4484267,-1.9249382
5.609248,4.5620794,0.53612965,-0.32324108,-2.9772139,8.212111,4.5154643,-1.934515
5.6061635,4.5619593,0.53612965,-0.32324108,-2.9772139,8.212111,4.5154643,-1.934515
5.6031866,4.5618577,0.53826016,-0.29980525,-3.0144982,7.8769236,4.3766007,-1.7956513
5.6001577,4.5617504,0.53826016,-0.29980525,-3.0144982,7.8769236,4.3766007,-1.7956513
5.597063,4.5616436,0.52973807,-0.2742389,-3.0645657,7.8865004,4.2904096,-1.8052281
5.5939655,4.561533,0.52973807,-0.2742389,-3.0645657,7.8865004,4.2904096,-1.8052281
5.590806,4.56141,0.51588964,-0.2561294,-3.1263509,7.795521,4.003105,-1.7908629
5.5876303,4.5612826,0.51588964,-0.2561294,-3.1263509,7.795521,4.003105,-1.7908629
5.584404,4.561128,0.49458435,-0.24547677,-3.1945279,7.513005,3.7205894,-1.8148049
5.5811777,4.5609694,0.49458435,-0.24547677,-3.1945279,7.513005,3.7205894,-1.8148049
5.5778775,4.560775,0.46582222,-0.24015045,-3.2573786,7.3166804,3.3423057,-1.6280571
5.5745907,4.5605764,0.46582222,-0.24015045,-3.2573786,7.3166804,3.3423057,-1.6280571
5.571224,4.560334,0.432799,-0.23375887,-3.3095765,6.943185,3.1555579,-1.6519991
5.5678616,4.560087,0.432799,-0.23375887,-3.3095765,6.943185,3.1555579,-1.6519991
5.564463,4.559799,0.39551476,-0.22417149,-3.343665,6.6415157,3.016694,-1.661576
5.561119,4.55951,0.39551476,-0.22417149,-3.343665,6.6415157,3.016694,-1.661576
5.55772,4.559182,0.35609996,-0.21564937,-3.3564482,6.3350577,2.825158,-1.4317327
5.554237,4.5588403,0.35609996,-0.21564937,-3.3564482,6.3350577,2.825158,-1.4317327
5.554237,4.5588403,0.35609996,-0.21564937,-3.3564482,6.3350577,2.825158,-1.4317327
5.546722,4.5580287,0.31775045,-0.20393145,-3.347926,6.1100025,2.7389667,-1.2449849
5.5441027,4.5577188,0.2825967,-0.19753987,-3.3191638,6.129156,2.7485435,-1.163582
5.540756,4.5573177,0.2825967,-0.19753987,-3.3191638,6.129156,2.7485435,-1.163582
5.5367923,4.5568085,0.25170404,-0.19540934,-3.2733574,6.2392898,2.743755,-0.9720459
5.5334983,4.5563784,0.25170404,-0.19540934,-3.2733574,6.2392898,2.743755,-0.9720459
5.5308156,4.556004,0.2229419,-0.19540934,-3.2115722,6.646304,2.882619,-0.89543146
5.527476,4.5555325,0.2229419,-0.19540934,-3.2115722,6.646304,2.882619,-0.89543146
5.5243587,4.5550666,0.19844083,-0.19327882,-3.138069,7.043741,2.7485435,-0.8762778
5.520627,4.5545015,0.19844083,-0.19327882,-3.138069,7.043741,2.7485435,-0.8762778
5.5181594,4.554107,0.17607027,-0.18582197,-3.0539129,7.091625,3.1507695,-1.1300632
5.515071,4.553608,0.17607027,-0.18582197,-3.0539129,7.091625,3.1507695,-1.1300632
5.5120516,4.5531054,0.15369973,-0.1815609,-2.9676266,7.920019,2.9975405,-0.8283938
5.5090294,4.5525966,0.15369973,-0.1815609,-2.9676266,7.920019,2.9975405,-0.8283938
5.506104,4.552083,0.13132916,-0.17410405,-2.8802748,8.015787,2.9735985,-0.8379706
5.503182,4.551565,0.13132916,-0.17410405,-2.8802748,8.015787,2.9735985,-0.8379706
5.5003304,4.5510426,0.10895862,-0.16025561,-2.7886622,8.063671,3.0262709,-0.90500826
5.4974713,4.5505133,0.10895862,-0.16025561,-2.7886622,8.063671,3.0262709,-0.90500826
5.4947243,4.549985,0.08552279,-0.14853771,-2.6949189,8.0684595,2.858677,-0.9959879
5.491988,4.5494533,0.08552279,-0.14853771,-2.6949189,8.0684595,2.858677,-0.9959879
5.4893365,4.548921,0.062086977,-0.13468927,-2.5958493,8.0924015,2.815581,-1.0486604
5.4866796,4.5483828,0.062086977,-0.13468927,-2.5958493,8.0924015,2.815581,-1.0486604
5.484126,4.547843,0.03652063,-0.121906094,-2.489323,8.034941,2.8778305,-1.1540052
5.481575,4.5472984,0.03652063,-0.121906094,-2.489323,8.034941,2.8778305,-1.1540052
5.4791265,4.546745,0.008823755,-0.11444924,-2.3785353,8.130709,2.8634653,-1.3024458
5.4766808,4.5461874,0.008823755,-0.11444924,-2.3785353,8.130709,2.8634653,-1.3024458
5.4743466,4.5456223,-0.018873122,-0.109122925,-2.264552,8.240842,2.9257145,-1.3694834
5.4720035,4.5450506,-0.018873122,-0.109122925,-2.264552,8.240842,2.9257145,-1.3694834
5.4697976,4.5444784,-0.050831053,-0.105927125,-2.1441772,8.441956,2.944868,-1.1731589
5.4675784,4.5438986,-0.050831053,-0.105927125,-2.1441772,8.441956,2.944868,-1.1731589
5.4654875,4.543315,-0.08491952,-0.09953554,-2.0216718,8.599973,2.825158,-1.0247183
5.463395,4.542729,-0.08491952,-0.09953554,-2.0216718,8.599973,2.825158,-1.0247183
5.4614215,4.542136,-0.122203775,-0.08888289,-1.8970357,8.690952,2.695871,-0.9720459
5.4594474,4.54154,-0.122203775,-0.08888289,-1.8970357,8.690952,2.695871,-0.9720459
5.457597,4.5409436,-0.16055329,-0.07183866,-1.769204,8.6813755,2.6192567,-1.0390835
5.4557443,4.5403433,-0.16055329,-0.07183866,-1.769204,8.6813755,2.6192567,-1.0390835
5.4540186,4.539753,-0.19890282,-0.048402846,-1.6381766,8.566454,2.4372973,-0.9911995
5.452286,4.539158,-0.19890282,-0.048402846,-1.6381766,8.566454,2.4372973,-0.9911995
5.4506984,4.538581,-0.2383176,-0.020705972,-1.4986268,8.556877,2.3080103,-1.0103531
5.4491053,4.538,-0.2383176,-0.020705972,-1.4986268,8.556877,2.3080103,-1.0103531
5.447648,4.5374346,-0.2798629,0.0069909045,-1.353751,8.504205,2.0733786,-0.94810385
5.4461937,4.536868,-0.2798629,0.0069909045,-1.353751,8.504205,2.0733786,-0.94810385
5.444878,4.536318,-0.3192777,0.033622514,-1.2056792,8.441956,1.934515,-0.9624691
5.4435606,4.5357647,-0.3192777,0.033622514,-1.2056792,8.441956,1.934515,-0.9624691
5.4423895,4.5352397,-0.35443142,0.061319392,-1.0576074,8.413225,1.7286136,-0.8714894
5.4412136,4.534712,-0.35443142,0.061319392,-1.0576074,8.413225,1.7286136,-0.8714894
5.440178,4.534213,-0.3821283,0.08475521,-0.9127314,8.422802,1.5801731,-0.79487497
5.4391375,4.5337114,-0.3821283,0.08475521,-0.9127314,8.422802,1.5801731,-0.79487497
5.438242,4.533244,-0.40236834,0.102864705,-0.7689207,8.379706,1.3263878,-0.6751649
5.4373446,4.5327754,-0.40236834,0.102864705,-0.7689207,8.379706,1.3263878,-0.6751649
5.436585,4.532343,-0.4119557,0.116713144,-0.62511003,8.403648,1.13964,-0.62728083
5.4358253,4.53191,-0.4119557,0.116713144,-0.62511003,8.403648,1.13964,-0.62728083
5.4352,4.5315228,-0.41089043,0.12630053,-0.4876909,8.379706,0.8475474,-0.4357447
5.4345737,4.531135,-0.41089043,0.12630053,-0.4876909,8.379706,0.8475474,-0.4357447
5.434076,4.5307965,-0.39810726,0.12949632,-0.35666338,8.346188,0.56982,-0.2873042
5.4335785,4.5304575,-0.39810726,0.12949632,-0.35666338,8.346188,0.56982,-0.2873042
5.433207,4.530176,-0.37467146,0.13056158,-0.22883163,8.303091,0.22984336,-0.12928689
5.4328337,4.5298934,-0.37467146,0.13056158,-0.22883163,8.303091,0.22984336,-0.12928689
5.4325843,4.5296774,-0.34164825,0.12843105,-0.107391484,8.183381,-0.095768064,0.062249243
5.432333,4.52946,-0.34164825,0.12843105,-0.107391484,8.183381,-0.095768064,0.062249243
5.4322014,4.529312,-0.3011682,0.12523526,0.011918138,8.025364,-0.3878607,0.21068975
5.43207,4.529164,-0.3011682,0.12523526,0.011918138,8.025364,-0.3878607,0.21068975
5.432053,4.529083,-0.2564271,0.12310473,0.12909722,7.8625584,-0.7517793,0.2633622
5.432038,4.52901,-0.2564271,0.12310473,0.12909722,7.8625584,-0.7517793,0.2633622
5.4321322,4.529006,-0.20955546,0.12417,0.24308053,7.690176,-1.0151415,0.18674773
5.432226,4.529002,-0.20955546,0.12417,0.24308053,7.690176,-1.0151415,0.18674773
5.4324336,4.529074,-0.16268381,0.12843105,0.35919434,7.5561004,-1.2114661,0.1388637
5.43264,4.5291457,-0.16268381,0.12843105,0.35919434,7.5561004,-1.2114661,0.1388637
5.432973,4.5293016,-0.11900798,0.1358879,0.47530818,7.536947,-1.4030021,0.12928689
5.4332824,4.529446,-0.11900798,0.1358879,0.47530818,7.536947,-1.4030021,0.12928689
5.4337077,4.5296702,-0.075332135,0.14547528,0.5860957,7.589619,-1.5466543,0.05267244
5.4341373,4.5298967,-0.075332135,0.14547528,0.5860957,7.589619,-1.5466543,0.05267244
5.434657,4.5301948,-0.034852087,0.15612793,0.6894263,7.5944076,-1.757344,0.110133275
5.4351854,4.530498,-0.034852087,0.15612793,0.6894263,7.5944076,-1.757344,0.110133275
5.4358063,4.5308685,0.00030163955,0.16678058,0.7863654,7.5704656,-1.8531121,0.1388637
5.436426,4.5312376,0.00030163955,0.16678058,0.7863654,7.5704656,-1.8531121,0.1388637
5.4371333,4.5316763,0.032259572,0.17956375,0.8726518,7.5944076,-1.9536686,0.21068975
5.4378366,4.532111,0.032259572,0.17956375,0.8726518,7.5944076,-1.9536686,0.21068975
5.4386177,4.5326066,0.058891185,0.19341218,0.94935083,7.608773,-2.0159178,0.20590134
5.439397,4.533099,0.058891185,0.19341218,0.94935083,7.608773,-2.0159178,0.20590134
5.440239,4.5336432,0.08126174,0.20939115,1.0164626,7.6853876,-2.054225,0.20111294
5.441081,4.5341864,0.08126174,0.20939115,1.0164626,7.6853876,-2.054225,0.20111294
5.4419746,4.534778,0.102567025,0.22537012,1.0718563,7.7907324,-2.2936451,0.14844051
5.442868,4.5353684,0.102567025,0.22537012,1.0718563,7.7907324,-2.2936451,0.14844051
5.4438047,4.53601,0.122807056,0.24347961,1.1176627,8.054094,-2.633622,0.16280572
5.4447412,4.5366497,0.122807056,0.24347961,1.1176627,8.054094,-2.633622,0.16280572
5.445701,4.5373197,0.14411235,0.26265436,1.1506858,7.675811,-2.5378537,-0.19153613
5.446661,4.5379877,0.14411235,0.26265436,1.1506858,7.675811,-2.5378537,-0.19153613
5.4476423,4.538681,0.16115656,0.27863333,1.179448,7.043741,-2.5809495,-0.4165911
5.4486237,4.539372,0.16115656,0.27863333,1.179448,7.043741,-2.5809495,-0.4165911
5.4496303,4.5400906,0.16861342,0.27224174,1.195427,7.445967,-2.9592333,-0.090979666
5.4506345,4.540806,0.16861342,0.27224174,1.195427,7.445967,-2.9592333,-0.090979666
5.451654,4.54152,0.17180921,0.25732806,1.1986227,8.37013,-3.2225955,0.17238252
5.4526706,4.5422306,0.17180921,0.25732806,1.1986227,8.37013,-3.2225955,0.17238252
5.453685,4.54295,0.175005,0.25839332,1.1901007,8.992621,-3.394978,0.38307226
5.454698,4.543666,0.175005,0.25839332,1.1901007,8.992621,-3.394978,0.38307226
5.4556913,4.5444145,0.18246186,0.28182915,1.1709259,9.002198,-3.5003228,0.46926352
5.456684,4.5451603,0.18246186,0.28182915,1.1709259,9.002198,-3.5003228,0.46926352
5.4576483,4.5459547,0.19417977,0.32017866,1.14749,8.628703,-3.5913026,0.39743748
5.4586124,4.5467463,0.19417977,0.32017866,1.14749,8.628703,-3.5913026,0.39743748
5.459554,4.5475907,0.20696294,0.35639766,1.1272501,8.422802,-3.916914,0.37828386
5.460493,4.548431,0.20696294,0.35639766,1.1272501,8.422802,-3.916914,0.37828386
5.4614353,4.5493336,0.22187665,0.38409454,1.1187279,8.183381,-4.31914,0.5506664
5.462375,4.5502315,0.22187665,0.38409454,1.1187279,8.183381,-4.31914,0.5506664
5.4633336,4.5511894,0.24211667,0.4032693,1.1229889,7.8625584,-4.8123455,0.7230489
5.4642916,4.5521445,0.24211667,0.4032693,1.1229889,7.8625584,-4.8123455,0.7230489
5.4652777,4.5531435,0.26874828,0.4085956,1.138968,7.723695,-5.1810527,0.8331822
5.466266,4.554142,0.26874828,0.4085956,1.138968,7.723695,-5.1810527,0.8331822
5.467382,4.5552673,0.30496728,0.3968777,1.1645343,7.8290396,-5.3438582,0.7517793
5.46832,4.556211,0.30496728,0.3968777,1.1645343,7.8290396,-5.3438582,0.7517793
5.4693413,4.557226,0.34970838,0.37450713,1.1975574,7.9726915,-5.2624555,0.7565677
5.4703875,4.558264,0.34970838,0.37450713,1.1975574,7.9726915,-5.2624555,0.7565677
5.47146,4.5593085,0.3976453,0.34787554,1.2348417,8.2169,-4.9703627,0.7565677
5.4725385,4.560356,0.3976453,0.34787554,1.2348417,8.2169,-4.9703627,0.7565677
5.4736547,4.561419,0.44771272,0.3191134,1.2753218,8.42759,-4.783615,0.7374141
5.474772,4.56248,0.44771272,0.3191134,1.2753218,8.42759,-4.783615,0.7374141
5.475934,4.5635586,0.4967149,0.289286,1.3179324,8.523358,-4.55856,0.8523358
5.477101,4.564639,0.4967149,0.289286,1.3179324,8.523358,-4.55856,0.8523358
5.478311,4.5657353,0.5489128,0.25626278,1.3626735,8.662222,-4.4244847,1.0199299
5.4795265,4.5668325,0.5489128,0.25626278,1.3626735,8.662222,-4.4244847,1.0199299
5.480788,4.5679474,0.6043066,0.2200438,1.4063493,8.925584,-4.237737,1.1348516
5.482049,4.5690584,0.6043066,0.2200438,1.4063493,8.925584,-4.237737,1.1348516
5.4833584,4.57019,0.6607656,0.18169427,1.44896,9.045294,-4.1180267,1.2210429
5.4846683,4.571319,0.6607656,0.18169427,1.44896,9.045294,-4.1180267,1.2210429
5.4860234,4.5724635,0.7182899,0.14227949,1.4915705,9.179369,-4.036624,1.0773908
5.4873767,4.5736036,0.7182899,0.14227949,1.4915705,9.179369,-4.036624,1.0773908
5.488777,4.5747538,0.77261835,0.09860365,1.534181,9.457097,-4.060566,1.0342951
5.490178,4.575902,0.77261835,0.09860365,1.534181,9.457097,-4.060566,1.0342951
5.4916224,4.5770574,0.82694685,0.053862542,1.5757264,9.744401,-4.0557775,0.9959879
5.4932413,4.578348,0.82694685,0.053862542,1.5757264,9.744401,-4.0557775,0.9959879
5.494556,4.579372,0.8770143,0.011251962,1.6183369,9.902418,-4.1371803,1.0151415
5.4960485,4.5805316,0.8770143,0.011251962,1.6183369,9.902418,-4.1371803,1.0151415
5.497592,4.5816994,0.9228207,-0.030293351,1.6641433,9.993398,-4.185065,1.0390835
5.499137,4.582865,0.9228207,-0.030293351,1.6641433,9.993398,-4.185065,1.0390835
5.5007367,4.5840354,0.96436596,-0.0707734,1.7142107,9.964667,-4.10845,1.0295067
5.502336,4.585203,0.96436596,-0.0707734,1.7142107,9.964667,-4.10845,1.0295067
5.503998,4.5863733,0.9995197,-0.110188186,1.7685392,9.969456,-3.964798,1.163582
5.505658,4.5875406,0.9995197,-0.110188186,1.7685392,9.969456,-3.964798,1.163582
5.5073843,4.5887084,1.032543,-0.14640717,1.8313898,9.916783,-3.7780502,1.163582
5.5091124,4.5898743,1.032543,-0.14640717,1.8313898,9.916783,-3.7780502,1.163582
5.510914,4.591042,1.0623703,-0.18049563,1.9016973,9.945514,-3.5003228,1.3263878
5.512716,4.592208,1.0623703,-0.18049563,1.9016973,9.945514,-3.5003228,1.3263878
5.514595,4.5933747,1.093263,-0.21245357,1.9783963,10.007763,-3.1890767,1.2497733
5.516474,4.5945387,1.093263,-0.21245357,1.9783963,10.007763,-3.1890767,1.2497733
5.5184374,4.5957127,1.1241556,-0.24121572,2.0604217,10.170568,-2.8682537,1.4460979
5.520405,4.5968857,1.1241556,-0.24121572,2.0604217,10.170568,-2.8682537,1.4460979
5.522461,4.5980687,1.1561136,-0.27104312,2.146708,10.290278,-2.6192567,1.5945383
5.524516,4.599249,1.1561136,-0.27104312,2.146708,10.290278,-2.6192567,1.5945383
5.5266695,4.600442,1.1880715,-0.30087054,2.2404513,10.448297,-2.4947581,1.7381904
5.5266695,4.600442,1.1880715,-0.30087054,2.2404513,10.448297,-2.4947581,1.7381904
5.532292,4.603452,1.2200295,-0.32750213,2.3373904,10.515334,-2.327164,1.9249382
5.5335226,4.604109,1.2509221,-0.35200322,2.4396558,10.520123,-2.3989902,2.1547816
5.5359616,4.6053724,1.2509221,-0.35200322,2.4396558,10.520123,-2.3989902,2.1547816
5.538209,4.6065345,1.2509221,-0.35200322,2.4396558,10.520123,-2.3989902,2.1547816
5.540806,4.6078396,1.2807496,-0.37117797,2.5493782,10.43872,-2.4037786,2.2649148
5.540806,4.6078396,1.2807496,-0.37117797,2.5493782,10.43872,-2.4037786,2.2649148
5.5456247,4.610242,1.3095117,-0.38928747,2.6686876,10.223241,-2.4372973,2.3702598
5.5482516,4.6115184,1.3095117,-0.38928747,2.6686876,10.223241,-2.4372973,2.3702598
5.550933,4.612779,1.3329475,-0.40313593,2.7997153,9.988609,-2.4420857,2.384625
5.553652,4.6140547,1.3329475,-0.40313593,2.7997153,9.988609,-2.4420857,2.384625
5.5565333,4.615357,1.3521222,-0.4148538,2.9467218,9.710882,-2.4420857,2.4037786
5.559409,4.6166534,1.3521222,-0.4148538,2.9467218,9.710882,-2.4420857,2.4037786
5.562434,4.617965,1.3681012,-0.42550647,3.1033156,9.275137,-2.360683,2.4277205
5.5656557,4.6193585,1.3681012,-0.42550647,3.1033156,9.275137,-2.360683,2.4277205
5.569104,4.6207867,1.3808844,-0.4329633,3.278019,9.002198,-2.1978772,2.3750482
5.5723343,4.622121,1.3808844,-0.4329633,3.278019,9.002198,-2.1978772,2.3750482
5.575268,4.6232815,1.3947328,-0.4393549,3.4665709,8.738836,-2.0159178,2.3080103
5.578646,4.6246157,1.3947328,-0.4393549,3.4665709,8.738836,-2.0159178,2.3080103
5.5822363,4.6259704,1.4085813,-0.44894227,3.6679058,8.604761,-1.8483237,2.3511062
5.5858364,4.6273255,1.4085813,-0.44894227,3.6679058,8.604761,-1.8483237,2.3511062
5.58964,4.6286955,1.4234949,-0.45959494,3.8777628,8.690952,-1.7525556,2.4708161
5.5934515,4.630064,1.4234949,-0.45959494,3.8777628,8.690952,-1.7525556,2.4708161
5.5974746,4.6314545,1.4394739,-0.46811703,4.0908155,8.710106,-1.8531121,2.7246015
5.6014977,4.632841,1.4394739,-0.46811703,4.0908155,8.710106,-1.8531121,2.7246015
5.605744,4.634259,1.4575834,-0.47024757,4.30813,8.743625,-1.910573,3.265691
5.609994,4.6356745,1.4575834,-0.47024757,4.30813,8.743625,-1.910573,3.265691
5.614465,4.637128,1.4767581,-0.46385598,4.53077,8.42759,-2.1021092,3.7924154
5.6189756,4.638589,1.4767581,-0.46385598,4.53077,8.42759,-2.1021092,3.7924154
5.623664,4.640086,1.4980634,-0.44042018,4.760867,7.9152308,-2.4133554,4.223372
5.6284785,4.641618,1.4980634,-0.44042018,4.760867,7.9152308,-2.4133554,4.223372
5.6333513,4.643151,1.516173,-0.40207064,5.002682,7.225701,-2.6384103,4.3478703
5.6383023,4.6447024,1.516173,-0.40207064,5.002682,7.225701,-2.6384103,4.3478703
5.643691,4.646373,1.5300214,-0.34987268,5.2615414,6.4308257,-2.791639,4.1515455
5.6487293,4.647928,1.5300214,-0.34987268,5.2615414,6.4308257,-2.791639,4.1515455
5.654214,4.6495895,1.5310867,-0.2923484,5.5342493,5.841852,-2.8060043,3.6774938
5.6598577,4.6512904,1.5310867,-0.2923484,5.5342493,5.841852,-2.8060043,3.6774938
5.6654863,4.652936,1.5172383,-0.23375887,5.8218703,5.33907,-2.719813,3.217807
5.67123,4.654608,1.5172383,-0.23375887,5.8218703,5.33907,-2.719813,3.217807
5.6772833,4.656298,1.4874108,-0.17516932,6.118014,5.032612,-2.5809495,2.7006595
5.683379,4.6579914,1.4874108,-0.17516932,6.118014,5.032612,-2.5809495,2.7006595
5.6896667,4.659651,1.4416045,-0.11657977,6.4152226,4.855441,-2.4420857,2.1547816
5.6960044,4.661313,1.4416045,-0.11657977,6.4152226,4.855441,-2.4420857,2.1547816
5.7027755,4.6629815,1.3787539,-0.06118602,6.711366,4.6399627,-2.2122424,1.8770541
5.7092752,4.6645727,1.3787539,-0.06118602,6.711366,4.6399627,-2.2122424,1.8770541
5.716176,4.6661463,1.3020548,-0.0068575335,7.000053,4.55856,-1.9776106,1.7477672
5.723084,4.6677113,1.3020548,-0.0068575335,7.000053,4.55856,-1.9776106,1.7477672
5.730254,4.6692166,1.2136378,0.045340426,7.2748914,4.4915223,-1.9728222,1.8866309
5.7374387,4.670714,1.2136378,0.045340426,7.2748914,4.4915223,-1.9728222,1.8866309
5.744887,4.67215,1.117764,0.100734174,7.5326853,4.6591167,-2.1691468,2.3175871
5.75241,4.6735888,1.117764,0.100734174,7.5326853,4.6591167,-2.1691468,2.3175871
5.76004,4.674942,1.0186944,0.16145425,7.773435,4.2664676,-2.5378537,3.040636
5.767747,4.676297,1.0186944,0.16145425,7.773435,4.2664676,-2.5378537,3.040636
5.7756996,4.677596,0.9206901,0.23176171,8.000337,3.5673606,-3.1842883,3.4620156
5.783653,4.6788826,0.9206901,0.23176171,8.000337,3.5673606,-3.1842883,3.4620156
5.7918396,4.680112,0.82481635,0.3031344,8.213389,2.7868507,-4.0701427,3.490746
5.800034,4.6813297,0.82481635,0.3031344,8.213389,2.7868507,-4.0701427,3.490746
5.808459,4.682479,0.72787726,0.3670503,8.41579,2.0159178,-5.12838,3.0023289
5.816824,4.683608,0.72787726,0.3670503,8.41579,2.0159178,-5.12838,3.0023289
5.825462,4.6846504,0.6256119,0.41392192,8.606472,1.460463,-6.26802,2.0111294
5.834194,4.6856923,0.6256119,0.41392192,8.606472,1.460463,-6.26802,2.0111294
5.842992,4.6865716,0.5148244,0.43522722,8.782241,0.9816227,-7.455544,0.8714894
5.851861,4.6874485,0.5148244,0.43522722,8.782241,0.9816227,-7.455544,0.8714894
5.860925,4.6881275,0.3944495,0.4267051,8.938834,0.50757074,-8.561666,-0.40222588
5.8699903,4.6887965,0.3944495,0.4267051,8.938834,0.50757074,-8.561666,-0.40222588
5.8791785,4.689269,0.2655525,0.38302925,9.068796,-0.033518825,-9.586384,-1.5993267
5.888367,4.689733,0.2655525,0.38302925,9.068796,-0.033518825,-9.586384,-1.5993267
5.897654,4.690013,0.1334597,0.3041997,9.1625395,-0.5650316,-10.510546,-2.3989902
5.906922,4.690285,0.1334597,0.3041997,9.1625395,-0.5650316,-10.510546,-2.3989902
5.9162602,4.690382,0.0066932263,0.19447745,9.221129,-0.78529817,-11.113884,-2.5953147
5.9256907,4.6904755,0.0066932263,0.19447745,9.221129,-0.78529817,-11.113884,-2.5953147
5.934967,4.6904154,-0.106224805,0.062384658,9.2435,-0.8523358,-11.372458,-2.0446482
5.9443364,4.6903515,-0.106224805,0.062384658,9.2435,-0.8523358,-11.372458,-2.0446482
5.9537015,4.690187,-0.19783755,-0.0707734,9.227521,-1.0773908,-11.592725,-0.6847417
5.963067,4.6900215,-0.19783755,-0.0707734,9.227521,-1.0773908,-11.592725,-0.6847417
5.972376,4.6897936,-0.2617534,-0.18688722,9.18065,-1.4221559,-11.812991,0.78050977
5.981684,4.6895666,-0.2617534,-0.18688722,9.18065,-1.4221559,-11.812991,0.78050977
5.9908977,4.6893053,-0.29158083,-0.27210838,9.102885,-2.0973208,-12.11466,2.1978772
6.000111,4.689046,-0.29158083,-0.27210838,9.102885,-2.0973208,-12.11466,2.1978772
6.009221,4.6887736,-0.29158083,-0.32324108,9.003816,-3.2321723,-12.603078,2.96881
6.0184126,4.688502,-0.29158083,-0.32324108,9.003816,-3.2321723,-12.603078,2.96881
6.027334,4.6882443,-0.26921028,-0.34880742,8.882376,-4.501099,-13.311762,2.9640217
6.0363183,4.6879873,-0.26921028,-0.34880742,8.882376,-4.501099,-13.311762,2.9640217
6.0451803,4.6877475,-0.23725234,-0.36691692,8.74176,-5.530606,-14.226347,2.3127987
6.054043,4.6875105,-0.23725234,-0.36691692,8.74176,-5.530606,-14.226347,2.3127987
6.0627584,4.6872816,-0.2084902,-0.38822222,8.584102,-6.3542113,-15.17445,1.1061212
6.071475,4.6870556,-0.2084902,-0.38822222,8.584102,-6.3542113,-15.17445,1.1061212
6.080022,4.686824,-0.1871849,-0.41698435,8.405137,-6.799533,-16.050728,-0.5315128
6.088569,4.6865945,-0.1871849,-0.41698435,8.405137,-6.799533,-16.050728,-0.5315128
6.0969152,4.6863394,-0.18398911,-0.4574644,8.200606,-6.8330517,-16.749836,-2.1499932
6.1053457,4.686084,-0.18398911,-0.4574644,8.200606,-6.8330517,-16.749836,-2.1499932
6.1133857,4.6857953,-0.19677228,-0.50327075,7.969444,-6.603208,-17.132908,-3.4955344
6.1215315,4.6855054,-0.19677228,-0.50327075,7.969444,-6.603208,-17.132908,-3.4955344
6.1293464,4.685168,-0.2265997,-0.5501424,7.6999316,-6.0381765,-17.128119,-4.3718123
6.1376395,4.6848125,-0.2265997,-0.5501424,7.6999316,-6.0381765,-17.128119,-4.3718123
6.144792,4.6844435,-0.2660145,-0.5895572,7.3888745,-5.2768207,-16.745047,-4.76925
6.152238,4.6840615,-0.2660145,-0.5895572,7.3888745,-5.2768207,-16.745047,-4.76925
6.1593876,4.683627,-0.30862504,-0.61405826,7.0298805,-4.525041,-16.01721,-4.7309427
6.166551,4.683194,-0.30862504,-0.61405826,7.0298805,-4.525041,-16.01721,-4.7309427
6.1732926,4.682726,-0.34697458,-0.6151235,6.622949,-3.86903,-15.136143,-4.19943
6.180108,4.682255,-0.34697458,-0.6151235,6.622949,-3.86903,-15.136143,-4.19943
6.1863503,4.681775,-0.37360618,-0.59381825,6.170212,-3.3806129,-14.264654,-3.3758245
6.1926427,4.6812935,-0.37360618,-0.59381825,6.170212,-3.3806129,-14.264654,-3.3758245
6.198459,4.6808243,-0.3821283,-0.55120766,5.6769943,-3.1890767,-13.713987,-2.3511062
6.2042756,4.6803565,-0.3821283,-0.55120766,5.6769943,-3.1890767,-13.713987,-2.3511062
6.209577,4.6799316,-0.37467146,-0.4904876,5.1560802,-3.3901896,-13.623008,-1.2641385
6.2148895,4.679508,-0.37467146,-0.4904876,5.1560802,-3.3901896,-13.623008,-1.2641385
6.2196536,4.679139,-0.35230088,-0.41698435,4.620252,-4.1419687,-14.058752,-0.4405331
6.2244277,4.6787715,-0.35230088,-0.41698435,4.620252,-4.1419687,-14.058752,-0.4405331
6.2286572,4.678453,-0.3192777,-0.3402853,4.0865545,-5.2720323,-14.978126,0.07182605
6.232908,4.6781344,-0.3192777,-0.3402853,4.0865545,-5.2720323,-14.978126,0.07182605
6.2366037,4.677861,-0.27879766,-0.27317366,3.5741625,-6.3542113,-16.218323,0.06703765
6.240319,4.6775875,-0.27879766,-0.27317366,3.5741625,-6.3542113,-16.218323,0.06703765
6.2435565,4.677355,-0.2351218,-0.22417149,3.096924,-7.1730285,-17.554287,-0.18674773
6.2468004,4.677122,-0.2351218,-0.22417149,3.096924,-7.1730285,-17.554287,-0.18674773
6.249638,4.676929,-0.19038069,-0.19860514,2.6654918,-7.589619,-18.784906,-0.48362875
6.25242,4.6767406,-0.19038069,-0.19860514,2.6654918,-7.589619,-18.784906,-0.48362875
6.2548304,4.676588,-0.1456396,-0.19434407,2.2766705,-7.714118,-19.680338,-0.93852705
6.257204,4.6764383,-0.1456396,-0.19434407,2.2766705,-7.714118,-19.680338,-0.93852705
6.259276,4.676325,-0.10089848,-0.20925778,1.9272636,-7.6375036,-20.178331,-1.2354081
6.2614083,4.676209,-0.10089848,-0.20925778,1.9272636,-7.6375036,-20.178331,-1.2354081
6.2631545,4.6761446,-0.050831053,-0.23695466,1.6162064,-7.374141,-20.207062,-1.3455414
6.2649136,4.6760793,-0.050831053,-0.23695466,1.6162064,-7.374141,-20.207062,-1.3455414
6.2664003,4.676071,0.008823755,-0.26997787,1.3392377,-7.038953,-19.790472,-1.388637
6.2678947,4.676064,0.008823755,-0.26997787,1.3392377,-7.038953,-19.790472,-1.388637
6.269134,4.676125,0.07806595,-0.30726212,1.0899658,-6.540959,-19.167978,-1.3311762
6.270372,4.6761866,0.07806595,-0.30726212,1.0899658,-6.540959,-19.167978,-1.3311762
6.2713857,4.6763296,0.15796077,-0.3413506,0.86199915,-5.932832,-18.29649,-1.1875241
6.272402,4.676472,0.15796077,-0.3413506,0.86199915,-5.932832,-18.29649,-1.1875241
6.273202,4.6767054,0.24744299,-0.37011272,0.65214205,-5.257667,-17.410635,-1.0151415
6.274013,4.6769414,0.24744299,-0.37011272,0.65214205,-5.257667,-17.410635,-1.0151415
6.274618,4.677274,0.34544733,-0.39035273,0.45719868,-4.6926355,-16.591818,-0.82360536
6.2752275,4.6776094,0.34544733,-0.39035273,0.45719868,-4.6926355,-16.591818,-0.82360536
6.2756567,4.678054,0.44771272,-0.3999401,0.277169,-4.2185836,-16.07467,-0.5602432
6.2760863,4.6784983,0.44771272,-0.3999401,0.277169,-4.2185836,-16.07467,-0.5602432
6.2763515,4.6790543,0.5531739,-0.3978096,0.11418352,-4.012682,-15.811308,-0.37828386
6.2766166,4.6796093,0.5531739,-0.3978096,0.11418352,-4.012682,-15.811308,-0.37828386
6.276738,4.6802692,0.654374,-0.38609168,-0.028561912,-4.0701427,-15.753847,-0.2873042
6.2768593,4.680928,0.654374,-0.38609168,-0.028561912,-4.0701427,-15.753847,-0.2873042
6.2768593,4.681679,0.747052,-0.36691692,-0.1489368,-4.232949,-16.084248,-0.29688102
6.2768593,4.682438,0.747052,-0.36691692,-0.1489368,-4.232949,-16.084248,-0.29688102
6.2767677,4.6832485,0.8258816,-0.34561163,-0.2416148,-4.414908,-16.352398,-0.6943185
6.2766757,4.684064,0.8258816,-0.34561163,-0.2416148,-4.414908,-16.352398,-0.6943185
6.276518,4.684928,0.88553643,-0.32643688,-0.30553067,-4.3861775,-16.414646,-1.0965444
6.27636,4.685791,0.88553643,-0.32643688,-0.30553067,-4.3861775,-16.414646,-1.0965444
6.2761564,4.6866827,0.91962487,-0.31258842,-0.3492065,-4.237737,-16.850391,-1.2737153
6.2759523,4.6875744,0.91962487,-0.31258842,-0.3492065,-4.237737,-16.850391,-1.2737153
6.2757187,4.688461,0.9334733,-0.29660946,-0.37157705,-4.2999864,-16.31409,-1.9153614
6.2754846,4.6893463,0.9334733,-0.29660946,-0.37157705,-4.2999864,-16.31409,-1.9153614
6.274969,4.691104,0.9292123,-0.29341367,-0.38968655,-3.3518825,-16.247053,-1.757344
6.274969,4.691104,0.9292123,-0.29341367,-0.38968655,-3.3518825,-16.247053,-1.757344
6.274969,4.691104,0.90577644,-0.2806305,-0.40033922,-2.7246015,-15.581465,-1.958457
6.274402,4.6927943,0.90577644,-0.2806305,-0.40033922,-2.7246015,-15.581465,-1.958457
6.274402,4.6927943,0.8684922,-0.24973783,-0.40566552,-2.882619,-15.112201,-1.9057846
6.274402,4.6927943,0.8684922,-0.24973783,-0.40566552,-2.882619,-15.112201,-1.9057846
6.2735486,4.6952,0.8216205,-0.21991043,-0.42057922,-2.5713725,-14.753071,-1.7286136
6.273235,4.6959877,0.8216205,-0.21991043,-0.42057922,-2.5713725,-14.753071,-1.7286136
6.272915,4.6966777,0.77261835,-0.19327882,-0.43975398,-2.1499932,-14.360422,-1.6232687
6.2725883,4.697382,0.77261835,-0.19327882,-0.43975398,-2.1499932,-14.360422,-1.6232687
6.2722483,4.697997,0.72787726,-0.1634514,-0.46851614,-1.8579005,-13.64695,-1.5658079
6.2722483,4.697997,0.72787726,-0.1634514,-0.46851614,-1.8579005,-13.64695,-1.5658079
6.2714996,4.699305,0.6863319,-0.13255873,-0.5089962,-1.388637,-12.952631,-1.484405
6.271086,4.699909,0.6863319,-0.13255873,-0.5089962,-1.388637,-12.952631,-1.484405
6.270592,4.7004585,0.64159083,-0.09847028,-0.5622594,-0.8331822,-12.282255,-1.4891934
6.2700977,4.701008,0.64159083,-0.09847028,-0.5622594,-0.8331822,-12.282255,-1.4891934
6.269509,4.7015047,0.59471923,-0.06118602,-0.6261753,-0.40701428,-11.669339,-1.5705963
6.2689185,4.7020025,0.59471923,-0.06118602,-0.6261753,-0.40701428,-11.669339,-1.5705963
6.268228,4.70244,0.541456,-0.017510178,-0.7028743,0.02873042,-11.152191,-1.5562311
6.2675347,4.7028794,0.541456,-0.017510178,-0.7028743,0.02873042,-11.152191,-1.5562311
6.2667336,4.7032585,0.48286644,0.030426722,-0.7870302,0.4357447,-10.582372,-1.5897499
6.2659197,4.7036443,0.48286644,0.030426722,-0.7870302,0.4357447,-10.582372,-1.5897499
6.2650065,4.7039614,0.41575477,0.08262468,-0.8743819,0.78529817,-10.189722,-1.6041151
6.2640963,4.704278,0.41575477,0.08262468,-0.8743819,0.78529817,-10.189722,-1.6041151
6.263075,4.704525,0.340121,0.13482264,-0.9638641,1.0151415,-9.811439,-1.4796166
6.262055,4.704773,0.340121,0.13482264,-0.9638641,1.0151415,-9.811439,-1.4796166
6.260933,4.7049417,0.25489986,0.18915112,-1.04802,1.2354081,-9.481039,-1.3838485
6.2598157,4.7051096,0.25489986,0.18915112,-1.04802,1.2354081,-9.481039,-1.3838485
6.2586036,4.7051964,0.16435237,0.24561015,-1.1236538,1.412579,-9.26556,-1.2449849
6.2573915,4.705282,0.16435237,0.24561015,-1.1236538,1.412579,-9.26556,-1.2449849
6.256107,4.705284,0.06954383,0.29887336,-1.1854391,1.4700398,-9.150639,-1.0103531
6.2548165,4.705286,0.06954383,0.29887336,-1.1854391,1.4700398,-9.150639,-1.0103531
6.2534747,4.705208,-0.026329972,0.3489408,-1.2280496,1.5131354,-9.02614,-0.7517793
6.2521358,4.705129,-0.026329972,0.3489408,-1.2280496,1.5131354,-9.02614,-0.7517793
6.250756,4.7049694,-0.11794271,0.3936819,-1.2557466,1.5370775,-8.963891,-0.62728083
6.2493763,4.704809,-0.11794271,0.3936819,-1.2557466,1.5370775,-8.963891,-0.62728083
6.2479734,4.7045817,-0.2052944,0.43096617,-1.2653339,1.6184803,-8.925584,-0.4309563
6.246574,4.7043552,-0.2052944,0.43096617,-1.2653339,1.6184803,-8.925584,-0.4309563
6.245176,4.704071,-0.2830587,0.46079355,-1.2557466,1.7142484,-8.901642,-0.24899697
6.2437816,4.7037888,-0.2830587,0.46079355,-1.2557466,1.7142484,-8.901642,-0.24899697
6.242403,4.7034464,-0.35123563,0.4831641,-1.229115,1.8818425,-8.892065,-0.17238252
6.241026,4.703105,-0.35123563,0.4831641,-1.229115,1.8818425,-8.892065,-0.17238252
6.239692,4.7027187,-0.40982518,0.5002083,-1.1886349,2.0685902,-8.738836,-0.047884032
6.238369,4.7023363,-0.40982518,0.5002083,-1.1886349,2.0685902,-8.738836,-0.047884032
6.2370834,4.701897,-0.46095788,0.51299155,-1.1375022,2.231396,-8.580819,-0.076614454
6.235805,4.701462,-0.46095788,0.51299155,-1.1375022,2.231396,-8.580819,-0.076614454
6.2345777,4.700982,-0.5035685,0.5204484,-1.0789126,2.3415294,-8.465898,-0.08140286
6.2333536,4.700505,-0.5035685,0.5204484,-1.0789126,2.3415294,-8.465898,-0.08140286
6.232192,4.6999884,-0.5408527,0.5225789,-1.016062,2.456451,-8.331821,-0.11971009
6.2310343,4.699474,-0.5408527,0.5225789,-1.016062,2.456451,-8.331821,-0.11971009
6.229937,4.6989245,-0.57281065,0.51938313,-0.9468199,2.5761611,-8.207323,-0.12449849
6.228844,4.698378,-0.57281065,0.51938313,-0.9468199,2.5761611,-8.207323,-0.12449849
6.2278185,4.697802,-0.60263807,0.51299155,-0.87757766,2.7102363,-8.09719,-0.11492168
6.226796,4.697228,-0.60263807,0.51299155,-0.87757766,2.7102363,-8.09719,-0.11492168
6.225843,4.6966257,-0.6324654,0.50553465,-0.8115313,2.873042,-7.97748,-0.1436521
6.2248845,4.69602,-0.6324654,0.50553465,-0.8115313,2.873042,-7.97748,-0.1436521
6.2239914,4.6953883,-0.6590971,0.4959473,-0.74655014,2.9592333,-7.9104424,-0.14844051
6.223098,4.6947575,-0.6590971,0.4959473,-0.74655014,2.9592333,-7.9104424,-0.14844051
6.222267,4.694102,-0.68359816,0.48635992,-0.68369955,3.0597897,-7.881712,-0.15801731
6.221436,4.693446,-0.68359816,0.48635992,-0.68369955,3.0597897,-7.881712,-0.15801731
6.2206635,4.692767,-0.70703393,0.4778378,-0.62511003,2.9831753,-7.9104424,-0.17238252
6.2198906,4.6920886,-0.70703393,0.4778378,-0.62511003,2.9831753,-7.9104424,-0.17238252
6.2191753,4.6913824,-0.727274,0.47038093,-0.56652045,2.954445,-7.967903,-0.30645782
6.2184596,4.6906767,-0.727274,0.47038093,-0.56652045,2.954445,-7.967903,-0.30645782
6.2178025,4.689952,-0.7411224,0.4629241,-0.50793093,2.8443117,-7.9583263,-0.3878607
6.217145,4.6892276,-0.7411224,0.4629241,-0.50793093,2.8443117,-7.9583263,-0.3878607
6.217145,4.6892276,-0.7411224,0.4629241,-0.50793093,2.8443117,-7.9583263,-0.3878607
6.2159243,4.6877365,-0.7496445,0.45333672,-0.45360243,2.8538885,-7.9822683,-0.46926352
6.2153606,4.6869793,-0.75284034,0.44374934,-0.403535,2.791639,-7.8769236,-0.51714754
6.2148223,4.6862564,-0.75284034,0.44374934,-0.403535,2.791639,-7.8769236,-0.51714754
6.2143235,4.685522,-0.7496445,0.43096617,-0.35666338,2.7485435,-7.762002,-0.58897364
6.213818,4.684778,-0.7496445,0.43096617,-0.35666338,2.7485435,-7.762002,-0.58897364
6.213357,4.684044,-0.7400572,0.4171177,-0.310857,2.7389667,-7.680599,-0.5602432
6.2128973,4.6833134,-0.7400572,0.4171177,-0.310857,2.7389667,-7.680599,-0.5602432
6.2124805,4.6826,-0.7208824,0.40433455,-0.26718116,2.7006595,-7.5800424,-0.5602432
6.212064,4.6818867,-0.7208824,0.40433455,-0.26718116,2.7006595,-7.5800424,-0.5602432
6.211685,4.6811986,-0.69638133,0.39155138,-0.22776636,2.7629087,-7.5944076,-0.5363012
6.211306,4.68051,-0.69638133,0.39155138,-0.22776636,2.7629087,-7.5944076,-0.5363012
6.2109647,4.679856,-0.6644234,0.37663767,-0.19048211,2.825158,-7.5848308,-0.51714754
6.2106233,4.679202,-0.6644234,0.37663767,-0.19048211,2.825158,-7.5848308,-0.51714754
6.210314,4.6785846,-0.6303349,0.36172396,-0.15852417,2.8538885,-7.6949644,-0.46926352
6.2100034,4.677967,-0.6303349,0.36172396,-0.15852417,2.8538885,-7.6949644,-0.46926352
6.2097178,4.6773815,-0.5941159,0.34467974,-0.13295783,2.8538885,-7.7907324,-0.47884035
6.209434,4.6768007,-0.5941159,0.34467974,-0.13295783,2.8538885,-7.7907324,-0.47884035
6.209176,4.6762586,-0.5589622,0.325505,-0.107391484,2.7724855,-7.8529816,-0.41180268
6.2089176,4.6757154,-0.5589622,0.325505,-0.107391484,2.7724855,-7.8529816,-0.41180268
6.2086825,4.6752105,-0.52487373,0.3031344,-0.08502093,2.6767175,-7.97748,-0.33039984
6.2084427,4.674696,-0.52487373,0.3031344,-0.08502093,2.6767175,-7.97748,-0.33039984
6.2082353,4.6742377,-0.49078527,0.27863333,-0.062650375,2.5570073,-8.063671,-0.2681506
6.208023,4.6737704,-0.49078527,0.27863333,-0.062650375,2.5570073,-8.063671,-0.2681506
6.2078366,4.673344,-0.45776206,0.253067,-0.04027982,2.4372973,-8.154651,-0.14844051
6.2076497,4.6729174,-0.45776206,0.253067,-0.04027982,2.4372973,-8.154651,-0.14844051
6.207489,4.6725206,-0.42899993,0.22643538,-0.015778739,2.3558946,-8.250419,-0.12928689
6.207329,4.672125,-0.42899993,0.22643538,-0.015778739,2.3558946,-8.250419,-0.12928689
6.2071953,4.671759,-0.4002378,0.19341218,0.008722344,2.3080103,-8.269572,-0.08619126
6.207062,4.6713943,-0.4002378,0.19341218,0.008722344,2.3080103,-8.269572,-0.08619126
6.206955,4.671058,-0.37147567,0.16038899,0.032158162,2.2984335,-8.259995,-0.038307227
6.2068477,4.670723,-0.37147567,0.16038899,0.032158162,2.2984335,-8.259995,-0.038307227
6.206768,4.6704164,-0.3437788,0.12736578,0.056659244,2.2840683,-8.259995,-0.009576807
6.206688,4.6701093,-0.3437788,0.12736578,0.056659244,2.2840683,-8.259995,-0.009576807
6.2066336,4.6698327,-0.31395137,0.09434259,0.0790298,2.2936451,-8.293514,0.033518825
6.206579,4.6695566,-0.31395137,0.09434259,0.0790298,2.2936451,-8.293514,0.033518825
6.2065454,4.669305,-0.28518924,0.06344992,0.09926982,2.2936451,-8.327033,0
6.2065115,4.6690536,-0.28518924,0.06344992,0.09926982,2.2936451,-8.327033,0
6.2064953,4.668832,-0.25429657,0.035753045,0.11524879,2.3127987,-8.360553,0.019153614
6.2064795,4.668611,-0.25429657,0.035753045,0.11524879,2.3127987,-8.360553,0.019153614
6.2064795,4.6684227,-0.22127336,0.008056169,0.12909722,2.2457612,-8.418014,0.023942016
6.2064795,4.668234,-0.22127336,0.008056169,0.12909722,2.2457612,-8.418014,0.023942016
6.206491,4.6680737,-0.19038069,-0.014314385,0.14081514,2.1164744,-8.513782,-0.033518825
6.2065024,4.667913,-0.19038069,-0.014314385,0.14081514,2.1164744,-8.513782,-0.033518825
6.2065277,4.6677847,-0.16055329,-0.035619672,0.15146779,1.9919758,-8.628703,-0.02873042
6.2065525,4.6676564,-0.16055329,-0.035619672,0.15146779,1.9919758,-8.628703,-0.02873042
6.206589,4.6675544,-0.13179116,-0.05692496,0.16318569,1.8818425,-8.762778,-0.076614454
6.2066264,4.667453,-0.13179116,-0.05692496,0.16318569,1.8818425,-8.762778,-0.076614454
6.2066736,4.667376,-0.106224805,-0.07503446,0.17277306,1.6903064,-8.949526,-0.1340753
6.206721,4.6672993,-0.106224805,-0.07503446,0.17277306,1.6903064,-8.949526,-0.1340753
6.206781,4.6672506,-0.08491952,-0.08994816,0.18022992,1.4796166,-9.102755,-0.1436521
6.206841,4.667202,-0.08491952,-0.08994816,0.18022992,1.4796166,-9.102755,-0.1436521
6.206915,4.6671653,-0.06467949,-0.105927125,0.19088256,1.3599066,-9.212888,-0.22026655
6.2069774,4.6671343,-0.06467949,-0.105927125,0.19088256,1.3599066,-9.212888,-0.22026655
6.2070556,4.6671124,-0.046569996,-0.11977556,0.20366573,1.283292,-9.241618,-0.272939
6.2071347,4.6670904,-0.046569996,-0.11977556,0.20366573,1.283292,-9.241618,-0.272939
6.207213,4.667051,-0.032721557,-0.13042821,0.21325313,1.2689269,-9.222465,-0.41180268
6.2072916,4.6670103,-0.032721557,-0.13042821,0.21325313,1.2689269,-9.222465,-0.41180268
6.2073784,4.6669703,-0.018873122,-0.13895033,0.21964471,1.2114661,-9.208099,-0.45968673
6.2074647,4.66693,-0.018873122,-0.13895033,0.21964471,1.2114661,-9.208099,-0.45968673
6.2075562,4.666897,-0.0028941538,-0.14321138,0.2228405,1.1731589,-9.165004,-0.48841715
6.207648,4.666863,-0.0028941538,-0.14321138,0.2228405,1.1731589,-9.165004,-0.48841715
6.2077436,4.6668315,0.013084813,-0.14640717,0.22177523,1.2449849,-9.155427,-0.5602432
6.2078395,4.6668,0.013084813,-0.14640717,0.22177523,1.2449849,-9.155427,-0.5602432
6.2079377,4.6667686,0.031194309,-0.14960296,0.21325313,1.2737153,-9.150639,-0.6655881
6.208036,4.666737,0.031194309,-0.14960296,0.21325313,1.2737153,-9.150639,-0.6655881
6.2081227,4.666721,0.051434334,-0.1517335,0.19727415,1.3120226,-9.174581,-0.7182605
6.2082095,4.666705,0.051434334,-0.1517335,0.19727415,1.3120226,-9.174581,-0.7182605
6.208294,4.666692,0.07060909,-0.15279876,0.17703412,1.2689269,-9.198523,-0.8379706
6.208378,4.6666794,0.07060909,-0.15279876,0.17703412,1.2689269,-9.198523,-0.8379706
6.208443,4.6666784,0.087653324,-0.14960296,0.14933725,1.2593501,-9.193734,-0.90500826
6.2085075,4.666677,0.087653324,-0.14960296,0.14933725,1.2593501,-9.193734,-0.90500826
6.208531,4.6667013,0.104697555,-0.14747244,0.119509846,1.292869,-9.260772,-0.8283938
6.2085543,4.666725,0.104697555,-0.14747244,0.119509846,1.292869,-9.260772,-0.8283938
6.2085466,4.6667643,0.118545994,-0.14321138,0.089682445,1.3551182,-9.332599,-0.8619126
6.2085385,4.666803,0.118545994,-0.14321138,0.089682445,1.3551182,-9.332599,-0.8619126
6.2085047,4.666855,0.13026391,-0.13468927,0.0641161,1.2497733,-9.380483,-0.78529817
6.2084703,4.6669064,0.13026391,-0.13468927,0.0641161,1.2497733,-9.380483,-0.78529817
6.2084045,4.6669784,0.14091654,-0.12616715,0.042810805,1.2066777,-9.452309,-0.6895301
6.208339,4.66705,0.14091654,-0.12616715,0.042810805,1.2066777,-9.452309,-0.6895301
6.2082496,4.6671352,0.14730814,-0.11764504,0.024701312,1.1444284,-9.519346,-0.62249243
6.2081604,4.66722,0.14730814,-0.11764504,0.024701312,1.1444284,-9.519346,-0.62249243
6.2080607,4.6673036,0.15050393,-0.108057655,0.009787609,1.0247183,-9.662998,-0.58897364
6.2079616,4.667387,0.15050393,-0.108057655,0.009787609,1.0247183,-9.662998,-0.58897364
6.2078342,4.667493,0.15050393,-0.10060081,-0.0008650357,1.0103531,-9.773131,-0.51714754
6.2078342,4.667493,0.15050393,-0.10060081,-0.0008650357,1.0103531,-9.773131,-0.51714754
6.2078342,4.667493,0.14730814,-0.09420922,-0.008321887,0.9911995,-9.792285,-0.521936
6.207428,4.6677957,0.14730814,-0.09420922,-0.008321887,0.9911995,-9.792285,-0.521936
6.2072864,4.667908,0.13985129,-0.08994816,-0.008321887,1.0390835,-9.873688,-0.48362875
6.207124,4.668036,0.13985129,-0.08994816,-0.008321887,1.0390835,-9.873688,-0.48362875
6.207124,4.668036,0.13132916,-0.08675237,-0.006191358,1.067814,-9.873688,-0.44532153
6.2068667,4.6682553,0.13132916,-0.08675237,-0.006191358,1.067814,-9.873688,-0.44532153
6.2067294,4.668382,0.12387232,-0.08249131,-0.0019303001,1.1013328,-9.854534,-0.41180268
6.2065907,4.66851,0.12387232,-0.08249131,-0.0019303001,1.1013328,-9.854534,-0.41180268
6.2064614,4.6686263,0.1153502,-0.078230254,0.0012654932,1.1348516,-9.773131,-0.39743748
6.206324,4.66875,0.1153502,-0.078230254,0.0012654932,1.1348516,-9.773131,-0.39743748
6.206204,4.668878,0.10363229,-0.07290393,0.0044612866,1.2545617,-9.739613,-0.29688102
6.206082,4.6690083,0.10363229,-0.07290393,0.0044612866,1.2545617,-9.739613,-0.29688102
6.205955,4.6691184,0.09297965,-0.06970814,0.0065918155,1.3024458,-9.682152,-0.33039984
6.205829,4.669228,0.09297965,-0.06970814,0.0065918155,1.3024458,-9.682152,-0.33039984
6.205701,4.6693087,0.08126174,-0.062251285,0.008722344,1.340753,-9.619903,-0.39743748
6.205509,4.6694293,0.08126174,-0.062251285,0.008722344,1.340753,-9.619903,-0.39743748
6.2054396,4.669463,0.0674133,-0.054794434,0.010852873,1.4030021,-9.586384,-0.4165911
6.205303,4.66953,0.0674133,-0.054794434,0.010852873,1.4030021,-9.586384,-0.4165911
6.205182,4.6695824,0.0524996,-0.047337584,0.010852873,1.460463,-9.552865,-0.37828386
6.2050643,4.669634,0.0524996,-0.047337584,0.010852873,1.460463,-9.552865,-0.37828386
6.2049384,4.669668,0.03545537,-0.03881547,0.010852873,1.5131354,-9.557653,-0.39743748
6.204811,4.6697025,0.03545537,-0.03881547,0.010852873,1.5131354,-9.557653,-0.39743748
6.204681,4.6697273,0.018411135,-0.030293351,0.00765708,1.5658079,-9.524135,-0.35434186
6.204551,4.6697526,0.018411135,-0.030293351,0.00765708,1.5658079,-9.524135,-0.35434186
6.2044196,4.669765,0.0024321685,-0.0228365,0.005526551,1.6232687,-9.524135,-0.33039984
6.204288,4.669778,0.0024321685,-0.0228365,0.005526551,1.6232687,-9.524135,-0.33039984
6.2041626,4.6697965,-0.012481534,-0.014314385,0.0044612866,1.5897499,-9.552865,-0.20111294
6.204037,4.6698155,-0.012481534,-0.014314385,0.0044612866,1.5897499,-9.552865,-0.20111294
6.203906,4.6698093,-0.026329972,-0.008988062,0.0044612866,1.6184803,-9.600749,-0.2777274
6.2037754,4.669803,-0.026329972,-0.008988062,0.0044612866,1.6184803,-9.600749,-0.2777274
6.203655,4.6698008,-0.03804788,-0.0068575335,0.00765708,1.5562311,-9.701305,-0.19153613
6.203534,4.669799,-0.03804788,-0.0068575335,0.00765708,1.5562311,-9.701305,-0.19153613
6.203427,4.6697974,-0.049765788,-0.00366174,0.011918138,1.5370775,-9.80665,-0.11492168
6.203319,4.6697955,-0.049765788,-0.00366174,0.011918138,1.5370775,-9.80665,-0.11492168
6.2032194,4.6697845,-0.05935317,-0.0015312112,0.020440254,1.460463,-9.868899,-0.15322891
6.2031198,4.6697736,-0.05935317,-0.0015312112,0.020440254,1.460463,-9.868899,-0.15322891
6.2030325,4.669754,-0.07000581,0.0005993177,0.031092897,1.4556746,-9.892841,-0.1388637
6.2029457,4.6697354,-0.07000581,0.0005993177,0.031092897,1.4556746,-9.892841,-0.1388637
6.20287,4.6697044,-0.08065846,0.0016645822,0.04387607,1.436521,-9.89763,-0.15801731
6.2027946,4.669674,-0.08065846,0.0016645822,0.04387607,1.436521,-9.89763,-0.15801731
6.2027216,4.669619,-0.08811531,0.0016645822,0.05772451,1.508347,-9.959879,-0.24899697
6.2026486,4.6695642,-0.08811531,0.0016645822,0.05772451,1.508347,-9.959879,-0.24899697
6.202588,4.6694946,-0.09770269,0.0005993177,0.07263821,1.508347,-9.921572,-0.2777274
6.2025275,4.669425,-0.09770269,0.0005993177,0.07263821,1.508347,-9.921572,-0.2777274
6.2024817,4.669345,-0.106224805,-0.00046594674,0.088617176,1.5466543,-9.89763,-0.2681506
6.202437,4.6692657,-0.106224805,-0.00046594674,0.088617176,1.5466543,-9.89763,-0.2681506
6.2024083,4.669183,-0.11474692,-0.00046594674,0.102465615,1.5466543,-9.888053,-0.23463176
6.202383,4.6691084,-0.11474692,-0.00046594674,0.102465615,1.5466543,-9.888053,-0.23463176
6.2023597,4.66901,-0.121138506,-0.0025964756,0.112053,1.6519991,-9.840169,-0.2873042
6.202337,4.668912,-0.121138506,-0.0025964756,0.112053,1.6519991,-9.840169,-0.2873042
6.2023168,4.6687975,-0.12646483,-0.0025964756,0.118444584,1.6807296,-9.782708,-0.34955344
6.202297,4.668683,-0.12646483,-0.0025964756,0.118444584,1.6807296,-9.782708,-0.34955344
6.2022805,4.6685715,-0.13072589,-0.0025964756,0.119509846,1.6903064,-9.744401,-0.29688102
6.2022643,4.6684613,-0.13072589,-0.0025964756,0.119509846,1.6903064,-9.744401,-0.29688102
6.2022443,4.668345,-0.13179116,-0.00366174,0.11737932,1.7381904,-9.753978,-0.32561144
6.2022243,4.6682286,-0.13179116,-0.00366174,0.11737932,1.7381904,-9.753978,-0.32561144
6.2022057,4.6681247,-0.13072589,-0.0047270046,0.11418352,1.7381904,-9.701305,-0.22984336
6.202188,4.668023,-0.13072589,-0.0047270046,0.11418352,1.7381904,-9.701305,-0.22984336
6.202162,4.667918,-0.12966062,-0.007922798,0.10779194,1.7286136,-9.768343,-0.25857377
6.202136,4.667814,-0.12966062,-0.007922798,0.10779194,1.7286136,-9.768343,-0.25857377
6.202101,4.6677146,-0.12646483,-0.01324912,0.09713929,1.7238252,-9.753978,-0.23942018
6.2020664,4.667616,-0.12646483,-0.01324912,0.09713929,1.7238252,-9.753978,-0.23942018
6.202026,4.667526,-0.122203775,-0.016444914,0.088617176,1.6807296,-9.80665,-0.20590134
6.2019863,4.667438,-0.122203775,-0.016444914,0.088617176,1.6807296,-9.80665,-0.20590134
6.201948,4.6673665,-0.11794271,-0.018575443,0.08116033,1.6089035,-9.873688,-0.12449849
6.20191,4.6672955,-0.11794271,-0.018575443,0.08116033,1.6089035,-9.873688,-0.12449849
6.2018766,4.667239,-0.11261639,-0.0228365,0.075834006,1.5562311,-9.902418,-0.05267244
6.2018433,4.6671834,-0.11261639,-0.0228365,0.075834006,1.5562311,-9.902418,-0.05267244
6.201805,4.6671333,-0.106224805,-0.027097559,0.071572945,1.5466543,-9.931149,-0.06703765
6.201767,4.667083,-0.106224805,-0.027097559,0.071572945,1.5466543,-9.931149,-0.06703765
6.201726,4.667041,-0.09876795,-0.033489145,0.06624663,1.541866,-9.993398,-0.05746084
6.201685,4.6669993,-0.09876795,-0.033489145,0.06624663,1.541866,-9.993398,-0.05746084
6.20164,4.6669617,-0.092376366,-0.040945996,0.0641161,1.5610195,-9.988609,-0.062249243
6.2015963,4.666925,-0.092376366,-0.040945996,0.0641161,1.5610195,-9.988609,-0.062249243
6.2015424,4.6668854,-0.08598478,-0.048402846,0.061985567,1.5658079,-9.911995,-0.12928689
6.2014885,4.6668463,-0.08598478,-0.048402846,0.061985567,1.5658079,-9.911995,-0.12928689
6.201428,4.666811,-0.076397404,-0.057990227,0.058789775,1.6041151,-9.907207,-0.15801731
6.2013674,4.666775,-0.076397404,-0.057990227,0.058789775,1.6041151,-9.907207,-0.15801731
6.201299,4.6667476,-0.06574476,-0.06757761,0.052398186,1.6759412,-9.883265,-0.14844051
6.201231,4.66672,-0.06574476,-0.06757761,0.052398186,1.6759412,-9.883265,-0.14844051
6.2011585,4.6667037,-0.05509211,-0.07609972,0.047071867,1.7238252,-9.768343,-0.110133275
6.201088,4.666687,-0.05509211,-0.07609972,0.047071867,1.7238252,-9.768343,-0.110133275
6.20101,4.666683,-0.04443947,-0.08462184,0.039615013,1.7477672,-9.710882,-0.076614454
6.200934,4.6666784,-0.04443947,-0.08462184,0.039615013,1.7477672,-9.710882,-0.076614454
6.2008495,4.6666813,-0.034852087,-0.09207869,0.033223428,1.733402,-9.691729,-0.10055647
6.200765,4.666684,-0.034852087,-0.09207869,0.033223428,1.733402,-9.691729,-0.10055647
6.200672,4.6666903,-0.026329972,-0.09740501,0.027897105,1.7477672,-9.720459,-0.1388637
6.200579,4.666697,-0.026329972,-0.09740501,0.027897105,1.7477672,-9.720459,-0.1388637
6.2004848,4.6667128,-0.019938385,-0.10166607,0.023636047,1.6903064,-9.653421,-0.11971009
6.200395,4.6667285,-0.019938385,-0.10166607,0.023636047,1.6903064,-9.653421,-0.11971009
6.200288,4.6667376,-0.013546798,-0.10486186,0.019374989,1.733402,-9.710882,-0.22505496
6.2001762,4.666747,-0.013546798,-0.10486186,0.019374989,1.733402,-9.710882,-0.22505496
6.2000604,4.666751,-0.009285741,-0.106992394,0.016179197,1.6711528,-9.691729,-0.30166942
6.1999474,4.6667547,-0.009285741,-0.106992394,0.016179197,1.6711528,-9.691729,-0.30166942
6.1998267,4.666753,-0.008220476,-0.106992394,0.011918138,1.6903064,-9.672575,-0.34476504
6.199706,4.666751,-0.008220476,-0.106992394,0.011918138,1.6903064,-9.672575,-0.34476504
6.199582,4.666742,-0.010351005,-0.106992394,0.009787609,1.70946,-9.643845,-0.37828386
6.199458,4.666732,-0.010351005,-0.106992394,0.009787609,1.70946,-9.643845,-0.37828386
6.1993313,4.6667047,-0.014612063,-0.106992394,0.00765708,1.7621324,-9.634268,-0.46447513
6.1992035,4.6666775,-0.014612063,-0.106992394,0.00765708,1.7621324,-9.634268,-0.46447513
6.1990757,4.6666527,-0.021003649,-0.106992394,0.0065918155,1.8052281,-9.572019,-0.40222588
6.198948,4.666628,-0.021003649,-0.106992394,0.0065918155,1.8052281,-9.572019,-0.40222588
6.1988153,4.6665926,-0.025264706,-0.10486186,0.0033960221,1.8291701,-9.543288,-0.4405331
6.1986847,4.6665587,-0.025264706,-0.10486186,0.0033960221,1.8291701,-9.543288,-0.4405331
6.198549,4.6665134,-0.031656295,-0.10060081,-0.0008650357,1.8387469,-9.500193,-0.47405192
6.1984124,4.6664677,-0.031656295,-0.10060081,-0.0008650357,1.8387469,-9.500193,-0.47405192
6.1982737,4.6664267,-0.03698262,-0.095274486,-0.004060829,1.8148049,-9.461885,-0.40701428
6.198135,4.6663857,-0.03698262,-0.095274486,-0.004060829,1.8148049,-9.461885,-0.40701428
6.1979914,4.666343,-0.041243672,-0.091013424,-0.008321887,1.8818425,-9.433155,-0.38307226
6.197848,4.666301,-0.041243672,-0.091013424,-0.008321887,1.8818425,-9.433155,-0.38307226
6.1977015,4.666241,-0.045504734,-0.0856871,-0.009387151,1.910573,-9.452309,-0.48362875
6.197557,4.6661825,-0.045504734,-0.0856871,-0.009387151,1.910573,-9.452309,-0.48362875
6.1974087,4.6661334,-0.048700526,-0.08142605,-0.01151768,1.8914193,-9.452309,-0.38307226
6.1972637,4.6660852,-0.048700526,-0.08142605,-0.01151768,1.8914193,-9.452309,-0.38307226
6.1971154,4.6660347,-0.05189632,-0.07503446,-0.012582945,1.9297266,-9.457097,-0.37349546
6.1969676,4.6659846,-0.05189632,-0.07503446,-0.012582945,1.9297266,-9.457097,-0.37349546
6.1968236,4.665941,-0.05189632,-0.06864287,-0.010452416,1.9153614,-9.471462,-0.32561144
6.1966753,4.665897,-0.05189632,-0.06864287,-0.010452416,1.9153614,-9.471462,-0.32561144
6.196531,4.6658363,-0.05189632,-0.062251285,-0.009387151,1.8674773,-9.452309,-0.46926352
6.1963863,4.665776,-0.05189632,-0.062251285,-0.009387151,1.8674773,-9.452309,-0.46926352
6.1962457,4.665734,-0.05189632,-0.054794434,-0.006191358,1.7812861,-9.5385,-0.34476504
6.1961045,4.6656923,-0.05189632,-0.054794434,-0.006191358,1.7812861,-9.5385,-0.34476504
6.1959667,4.665638,-0.05509211,-0.04946811,0.00020022877,1.7717092,-9.514558,-0.40701428
6.195831,4.6655846,-0.05509211,-0.04946811,0.00020022877,1.7717092,-9.514558,-0.40701428
6.195701,4.6655264,-0.057222642,-0.044141788,0.00765708,1.7908629,-9.533711,-0.4261679
6.1955714,4.665468,-0.057222642,-0.044141788,0.00765708,1.7908629,-9.533711,-0.4261679
6.1954527,4.665414,-0.05935317,-0.040945996,0.018309724,1.7717092,-9.581595,-0.39264908
6.1953344,4.6653595,-0.05935317,-0.040945996,0.018309724,1.7717092,-9.581595,-0.39264908
6.195228,4.6653,-0.062548965,-0.03881547,0.031092897,1.8339585,-9.552865,-0.40701428
6.195122,4.6652403,-0.062548965,-0.03881547,0.031092897,1.8339585,-9.552865,-0.40701428
6.1950274,4.665163,-0.06787529,-0.037750203,0.04387607,1.7908629,-9.581595,-0.49320555
6.194933,4.665086,-0.06787529,-0.037750203,0.04387607,1.7908629,-9.581595,-0.49320555
6.194846,4.6650105,-0.07320161,-0.037750203,0.052398186,1.8435353,-9.600749,-0.4405331
6.1947613,4.6649365,-0.07320161,-0.037750203,0.052398186,1.8435353,-9.600749,-0.4405331
6.194688,4.6648664,-0.077462666,-0.036684938,0.06305083,1.8052281,-9.5385,-0.3878607
6.194614,4.664796,-0.077462666,-0.036684938,0.06305083,1.8052281,-9.5385,-0.3878607
6.1945496,4.6647105,-0.08385425,-0.03455441,0.073703475,1.8435353,-9.586384,-0.44532153
6.194485,4.664625,-0.08385425,-0.03455441,0.073703475,1.8435353,-9.586384,-0.44532153
6.1944327,4.664543,-0.089180574,-0.03455441,0.08435612,1.8674773,-9.509769,-0.38307226
6.1943803,4.664462,-0.089180574,-0.03455441,0.08435612,1.8674773,-9.509769,-0.38307226
6.1943336,4.6643634,-0.092376366,-0.035619672,0.09181297,1.8722657,-9.466674,-0.46926352
6.194288,4.6642685,-0.092376366,-0.035619672,0.09181297,1.8722657,-9.466674,-0.46926352
6.194246,4.664175,-0.09663743,-0.036684938,0.09500877,1.8626889,-9.461885,-0.41180268
6.194203,4.664081,-0.09663743,-0.036684938,0.09500877,1.8626889,-9.461885,-0.41180268
6.194164,4.6639857,-0.10089848,-0.036684938,0.09820456,1.8435353,-9.485827,-0.40222588
6.1941247,4.6638894,-0.10089848,-0.036684938,0.09820456,1.8435353,-9.485827,-0.40222588
6.1940866,4.6637883,-0.10302901,-0.037750203,0.09926982,1.8387469,-9.466674,-0.4309563
6.1940484,4.6636868,-0.10302901,-0.037750203,0.09926982,1.8387469,-9.466674,-0.4309563
6.1940107,4.663581,-0.10515954,-0.03988073,0.10033509,1.8387469,-9.504981,-0.44532153
6.1940107,4.663581,-0.10515954,-0.03988073,0.10033509,1.8387469,-9.504981,-0.44532153
6.1940107,4.663581,-0.10515954,-0.03988073,0.10033509,1.8387469,-9.504981,-0.44532153
6.193887,4.663245,-0.10515954,-0.040945996,0.09926982,1.8770541,-9.509769,-0.4309563
6.1938586,4.6631675,-0.104094274,-0.043076526,0.10033509,1.7908629,-9.519346,-0.39264908
6.19382,4.663064,-0.104094274,-0.043076526,0.10033509,1.7908629,-9.519346,-0.39264908
6.193787,4.6629744,-0.10302901,-0.045207053,0.10140035,1.6280571,-9.504981,-0.39743748
6.193751,4.662877,-0.10302901,-0.045207053,0.10140035,1.6280571,-9.504981,-0.39743748
6.193719,4.662792,-0.10196375,-0.048402846,0.10140035,1.5370775,-9.600749,-0.37828386
6.1936865,4.662707,-0.10196375,-0.048402846,0.10140035,1.5370775,-9.600749,-0.37828386
6.1936607,4.662628,-0.10089848,-0.052663904,0.10566141,1.5514427,-9.610326,-0.35913026
6.193634,4.6625466,-0.10089848,-0.052663904,0.10566141,1.5514427,-9.610326,-0.35913026
6.193612,4.662458,-0.09876795,-0.05692496,0.11311826,1.6280571,-9.653421,-0.40222588
6.19359,4.6623693,-0.09876795,-0.05692496,0.11311826,1.6280571,-9.653421,-0.40222588
6.193578,4.6622896,-0.09770269,-0.06118602,0.119509846,1.5658079,-9.701305,-0.36870706
6.193565,4.6622095,-0.09770269,-0.06118602,0.119509846,1.5658079,-9.701305,-0.36870706
6.1935563,4.6621227,-0.09663743,-0.06331655,0.12590143,1.5562311,-9.749189,-0.4165911
6.1935472,4.6620364,-0.09663743,-0.06331655,0.12590143,1.5562311,-9.749189,-0.4165911
6.193543,4.661942,-0.09770269,-0.06544708,0.13122776,1.5227122,-9.744401,-0.45010993
6.193538,4.661848,-0.09770269,-0.06544708,0.13122776,1.5227122,-9.744401,-0.45010993
6.193541,4.661759,-0.09770269,-0.06970814,0.13761935,1.532289,-9.797073,-0.4309563
6.193544,4.6616697,-0.09770269,-0.06970814,0.13761935,1.532289,-9.797073,-0.4309563
6.1935477,4.661561,-0.09663743,-0.07183866,0.13974987,1.541866,-9.801862,-0.5267244
6.193551,4.661453,-0.09663743,-0.07183866,0.13974987,1.541866,-9.801862,-0.5267244
6.193557,4.6613445,-0.0945069,-0.07396919,0.14188041,1.5275006,-9.816227,-0.5363012
6.1935625,4.6612363,-0.0945069,-0.07396919,0.14188041,1.5275006,-9.816227,-0.5363012
6.193565,4.66113,-0.092376366,-0.077164985,0.1386846,1.5370775,-9.763555,-0.5315128
6.1935678,4.6610255,-0.092376366,-0.077164985,0.1386846,1.5370775,-9.763555,-0.5315128
6.1935654,4.6609344,-0.091311105,-0.079295516,0.13335828,1.541866,-9.77792,-0.46926352
6.1935635,4.6608443,-0.091311105,-0.079295516,0.13335828,1.541866,-9.77792,-0.46926352
6.1935577,4.660765,-0.08705004,-0.08249131,0.12803197,1.5179238,-9.763555,-0.4357447
6.1935525,4.6606865,-0.08705004,-0.08249131,0.12803197,1.5179238,-9.763555,-0.4357447
6.1935425,4.660619,-0.08172372,-0.08675237,0.12164038,1.5753847,-9.753978,-0.39743748
6.1935325,4.6605506,-0.08172372,-0.08675237,0.12164038,1.5753847,-9.753978,-0.39743748
6.193511,4.6604786,-0.077462666,-0.08888289,0.112053,1.5753847,-9.768343,-0.4405331
6.1934896,4.660407,-0.077462666,-0.08888289,0.112053,1.5753847,-9.768343,-0.4405331
6.193463,4.660354,-0.07000581,-0.08994816,0.103530884,1.5705963,-9.792285,-0.38307226
6.1934366,4.6603017,-0.07000581,-0.08994816,0.103530884,1.5705963,-9.792285,-0.38307226
6.1934,4.660257,-0.0614837,-0.093143955,0.09287824,1.532289,-9.787497,-0.39264908
6.1933627,4.660212,-0.0614837,-0.093143955,0.09287824,1.532289,-9.787497,-0.39264908
6.193323,4.6601877,-0.05402685,-0.095274486,0.08329086,1.4652514,-9.801862,-0.33997664
6.1932836,4.660164,-0.05402685,-0.095274486,0.08329086,1.4652514,-9.801862,-0.33997664
6.1932526,4.6601706,-0.045504734,-0.09847028,0.07263821,1.3120226,-9.883265,-0.2825158
6.193221,4.660177,-0.045504734,-0.09847028,0.07263821,1.3120226,-9.883265,-0.2825158
6.1931944,4.6601977,-0.039113145,-0.10486186,0.06624663,1.2785037,-9.888053,-0.24899697
6.193165,4.66022,-0.039113145,-0.10486186,0.06624663,1.2785037,-9.888053,-0.24899697
6.1931343,4.660247,-0.032721557,-0.11231872,0.061985567,1.283292,-9.892841,-0.24420857
6.1931067,4.6602707,-0.032721557,-0.11231872,0.061985567,1.283292,-9.892841,-0.24420857
6.193057,4.6602883,-0.029525764,-0.11977556,0.056659244,1.3551182,-9.911995,-0.2825158
6.193008,4.660306,-0.029525764,-0.11977556,0.056659244,1.3551182,-9.911995,-0.2825158
6.192964,4.660332,-0.027395237,-0.12936294,0.052398186,1.3599066,-9.835381,-0.21547815
6.19292,4.660359,-0.027395237,-0.12936294,0.052398186,1.3599066,-9.835381,-0.21547815
6.1928625,4.660378,-0.025264706,-0.1368198,0.04813713,1.412579,-9.849746,-0.25378537
6.192805,4.6603975,-0.025264706,-0.1368198,0.04813713,1.412579,-9.849746,-0.25378537
6.192725,4.6603994,-0.02313418,-0.14321138,0.040680278,1.436521,-9.888053,-0.35434186
6.1926455,4.660402,-0.02313418,-0.14321138,0.040680278,1.436521,-9.888053,-0.35434186
6.1925526,4.6603913,-0.02313418,-0.14853771,0.03428869,1.5179238,-9.753978,-0.3878607
6.192461,4.6603804,-0.02313418,-0.14853771,0.03428869,1.5179238,-9.753978,-0.3878607
6.1923637,4.660371,-0.024199443,-0.15279876,0.027897105,1.5275006,-9.701305,-0.36870706
6.192267,4.6603613,-0.024199443,-0.15279876,0.027897105,1.5275006,-9.701305,-0.36870706
6.1921587,4.660343,-0.025264706,-0.15705982,0.019374989,1.5897499,-9.65821,-0.39264908
6.1920505,4.6603246,-0.025264706,-0.15705982,0.019374989,1.5897499,-9.65821,-0.39264908
6.1919327,4.6603026,-0.0284605,-0.15919036,0.009787609,1.70946,-9.653421,-0.37828386
6.191815,4.66028,-0.0284605,-0.15919036,0.009787609,1.70946,-9.653421,-0.37828386
6.1916866,4.6602545,-0.03059103,-0.16132088,-0.0008650357,1.7525556,-9.643845,-0.37828386
6.191558,4.6602287,-0.03059103,-0.16132088,-0.0008650357,1.7525556,-9.643845,-0.37828386
6.1914167,4.660206,-0.033786822,-0.16132088,-0.014713474,1.6472107,-9.610326,-0.35434186
6.191278,4.6601834,-0.033786822,-0.16132088,-0.014713474,1.6472107,-9.610326,-0.35434186
6.191132,4.660168,-0.034852087,-0.16132088,-0.024300855,1.5370775,-9.533711,-0.32561144
6.190985,4.6601524,-0.034852087,-0.16132088,-0.024300855,1.5370775,-9.533711,-0.32561144
6.190837,4.6601453,-0.035917353,-0.1634514,-0.033888236,1.5179238,-9.524135,-0.272939
6.190688,4.660138,-0.035917353,-0.1634514,-0.033888236,1.5179238,-9.524135,-0.272939
6.190531,4.660128,-0.039113145,-0.16771246,-0.041345086,1.5610195,-9.490616,-0.24899697
6.1903777,4.6601186,-0.039113145,-0.16771246,-0.041345086,1.5610195,-9.490616,-0.24899697
6.190214,4.660097,-0.043374203,-0.17197353,-0.04454088,1.6711528,-9.399636,-0.24899697
6.190052,4.6600766,-0.043374203,-0.17197353,-0.04454088,1.6711528,-9.399636,-0.24899697
6.189877,4.660032,-0.046569996,-0.17410405,-0.04773667,1.7238252,-9.361329,-0.37828386
6.189704,4.659988,-0.046569996,-0.17410405,-0.04773667,1.7238252,-9.361329,-0.37828386
6.1895285,4.659945,-0.050831053,-0.17623459,-0.050932467,1.7429788,-9.370906,-0.33039984
6.189353,4.6599026,-0.050831053,-0.17623459,-0.050932467,1.7429788,-9.370906,-0.33039984
6.1891737,4.6598487,-0.058287904,-0.17836511,-0.053062994,1.8195933,-9.41879,-0.34955344
6.1889954,4.659795,-0.058287904,-0.17836511,-0.053062994,1.8195933,-9.41879,-0.34955344
6.188813,4.659725,-0.06467949,-0.17836511,-0.053062994,1.8579005,-9.394848,-0.41180268
6.1886315,4.659655,-0.06467949,-0.17836511,-0.053062994,1.8579005,-9.394848,-0.41180268
6.1884503,4.6595607,-0.07213634,-0.17516932,-0.050932467,1.9201498,-9.409213,-0.5363012
6.1882687,4.6594663,-0.07213634,-0.17516932,-0.050932467,1.9201498,-9.409213,-0.5363012
6.1880927,4.6593785,-0.07852793,-0.16877773,-0.04454088,1.8435353,-9.485827,-0.45010993
6.18792,4.6592927,-0.07852793,-0.16877773,-0.04454088,1.8435353,-9.485827,-0.45010993
6.187752,4.6591964,-0.08491952,-0.16238615,-0.037084028,1.6328455,-9.543288,-0.48362875
6.187584,4.6591005,-0.08491952,-0.16238615,-0.037084028,1.6328455,-9.543288,-0.48362875
6.1874256,4.6589756,-0.091311105,-0.15705982,-0.028561912,1.5370775,-9.576807,-0.59376204
6.187268,4.6588507,-0.091311105,-0.15705982,-0.028561912,1.5370775,-9.576807,-0.59376204
6.1871214,4.6587534,-0.09663743,-0.15599456,-0.016844003,1.5658079,-9.514558,-0.4405331
6.186976,4.658657,-0.09663743,-0.15599456,-0.016844003,1.5658079,-9.514558,-0.4405331
6.186843,4.658558,-0.104094274,-0.15705982,-0.0051260935,1.6376339,-9.548077,-0.40701428
6.1867104,4.6584597,-0.104094274,-0.15705982,-0.0051260935,1.6376339,-9.548077,-0.40701428
6.186587,4.6583376,-0.11048587,-0.15812509,0.008722344,1.685518,-9.495404,-0.48362875
6.186466,4.6582193,-0.11048587,-0.15812509,0.008722344,1.685518,-9.495404,-0.48362875
6.1863585,4.6580987,-0.11474692,-0.15705982,0.022570781,1.733402,-9.519346,-0.45968673
6.1862507,4.657979,-0.11474692,-0.15705982,0.022570781,1.733402,-9.519346,-0.45968673
6.1861563,4.65785,-0.11900798,-0.15599456,0.03641922,1.7764976,-9.548077,-0.48841715
6.186062,4.6577215,-0.11900798,-0.15599456,0.03641922,1.7764976,-9.548077,-0.48841715
6.185981,4.6576033,-0.122203775,-0.15279876,0.047071867,1.8435353,-9.548077,-0.39743748
6.1859,4.6574855,-0.122203775,-0.15279876,0.047071867,1.8435353,-9.548077,-0.39743748
6.185822,4.6573625,-0.12326904,-0.14960296,0.05133292,1.7525556,-9.552865,-0.4405331
6.185744,4.6572394,-0.12326904,-0.14960296,0.05133292,1.7525556,-9.552865,-0.4405331
6.1856737,4.657133,-0.12326904,-0.14853771,0.05346345,1.6567876,-9.528923,-0.34955344
6.1856055,4.6570287,-0.12326904,-0.14853771,0.05346345,1.6567876,-9.528923,-0.34955344
6.185533,4.6569157,-0.121138506,-0.15066823,0.054528717,1.6903064,-9.471462,-0.39743748
6.1854606,4.656803,-0.121138506,-0.15066823,0.054528717,1.6903064,-9.471462,-0.39743748
6.1853857,4.6566877,-0.11687745,-0.1549293,0.05346345,1.6567876,-9.394848,-0.4357447
6.1853104,4.656573,-0.11687745,-0.1549293,0.05346345,1.6567876,-9.394848,-0.4357447
6.185233,4.65646,-0.11155113,-0.16025561,0.05133292,1.7238252,-9.289502,-0.4357447
6.185156,4.6563473,-0.11155113,-0.16025561,0.05133292,1.7238252,-9.289502,-0.4357447
6.1850715,4.6562314,-0.106224805,-0.16451667,0.0460066,1.733402,-9.26556,-0.48362875
6.1849875,4.6561155,-0.106224805,-0.16451667,0.0460066,1.733402,-9.26556,-0.48362875
6.184898,4.6559963,-0.10089848,-0.16451667,0.041745543,1.7764976,-9.270349,-0.5315128
6.18481,4.6558795,-0.10089848,-0.16451667,0.041745543,1.7764976,-9.270349,-0.5315128
6.1847177,4.6557617,-0.09557216,-0.16238615,0.03854975,1.7860745,-9.308656,-0.5650316
6.1846256,4.6556444,-0.09557216,-0.16238615,0.03854975,1.7860745,-9.308656,-0.5650316
6.1845345,4.6555066,-0.092376366,-0.16132088,0.035353955,1.8435353,-9.323022,-0.7278373
6.184444,4.6553693,-0.092376366,-0.16132088,0.035353955,1.8435353,-9.323022,-0.7278373
6.184355,4.655224,-0.089180574,-0.15919036,0.032158162,1.8674773,-9.308656,-0.82360536
6.184266,4.655079,-0.089180574,-0.15919036,0.032158162,1.8674773,-9.308656,-0.82360536
6.184167,4.6549497,-0.08705004,-0.1549293,0.027897105,1.8914193,-9.423578,-0.7278373
6.1840672,4.6548204,-0.08705004,-0.1549293,0.027897105,1.8914193,-9.423578,-0.7278373
6.1839666,4.6546926,-0.08811531,-0.15066823,0.025766576,1.9297266,-9.452309,-0.7326257
6.183863,4.654562,-0.08811531,-0.15066823,0.025766576,1.9297266,-9.452309,-0.7326257
6.1837583,4.6544333,-0.09024584,-0.14640717,0.023636047,1.8914193,-9.423578,-0.7134721
6.1836534,4.654304,-0.09024584,-0.14640717,0.023636047,1.8914193,-9.423578,-0.7134721
6.1835485,4.6541657,-0.093441635,-0.14321138,0.021505518,1.8770541,-9.370906,-0.7565677
6.1834435,4.654028,-0.093441635,-0.14321138,0.021505518,1.8770541,-9.370906,-0.7565677
6.183335,4.6538982,-0.09663743,-0.14001559,0.021505518,1.7956513,-9.3661175,-0.6655881
6.183224,4.6537657,-0.09663743,-0.14001559,0.021505518,1.7956513,-9.3661175,-0.6655881
6.1831155,4.6536474,-0.10302901,-0.1368198,0.021505518,1.8195933,-9.346964,-0.5746084
6.1830053,4.653527,-0.10302901,-0.1368198,0.021505518,1.8195933,-9.346964,-0.5746084
6.1828985,4.6533895,-0.108355336,-0.13575453,0.024701312,1.8483237,-9.370906,-0.6464345
6.182792,4.6532536,-0.108355336,-0.13575453,0.024701312,1.8483237,-9.370906,-0.6464345
6.1826897,4.6531286,-0.11261639,-0.13575453,0.02896237,1.8387469,-9.313444,-0.5506664
6.182587,4.6530023,-0.11261639,-0.13575453,0.02896237,1.8387469,-9.313444,-0.5506664
6.182489,4.6528797,-0.11581218,-0.13468927,0.033223428,1.8962077,-9.313444,-0.50757074
6.182391,4.6527576,-0.11581218,-0.13468927,0.033223428,1.8962077,-9.313444,-0.50757074
6.1822953,4.6526365,-0.11900798,-0.13468927,0.03428869,1.9297266,-9.323022,-0.47405192
6.1821995,4.6525164,-0.11900798,-0.13468927,0.03428869,1.9297266,-9.323022,-0.47405192
6.182105,4.652381,-0.11900798,-0.13468927,0.037484486,1.9153614,-9.294291,-0.5746084
6.1820107,4.6522465,-0.11900798,-0.13468927,0.037484486,1.9153614,-9.294291,-0.5746084
6.1819215,4.6521106,-0.11794271,-0.13575453,0.042810805,1.8770541,-9.303867,-0.58418524
6.181833,4.651976,-0.11794271,-0.13575453,0.042810805,1.8770541,-9.303867,-0.58418524
6.1817503,4.6518426,-0.11474692,-0.1368198,0.049202394,1.8435353,-9.3182335,-0.59855044
6.181668,4.651709,-0.11474692,-0.1368198,0.049202394,1.8435353,-9.3182335,-0.59855044
6.181591,4.6515737,-0.11048587,-0.1368198,0.054528717,1.8722657,-9.356541,-0.641646
6.181591,4.6515737,-0.11048587,-0.1368198,0.054528717,1.8722657,-9.356541,-0.641646
6.181591,4.6515737,-0.11048587,-0.1368198,0.054528717,1.8722657,-9.356541,-0.641646
6.181591,4.6515737,-0.11048587,-0.1368198,0.054528717,1.8722657,-9.356541,-0.641646
6.1812906,4.651038,-0.09983322,-0.13895033,0.06731189,1.8148049,-9.399636,-0.6512229
6.181242,4.650942,-0.09983322,-0.13895033,0.06731189,1.8148049,-9.399636,-0.6512229
6.181184,4.650826,-0.092376366,-0.14108086,0.07263821,1.8818425,-9.433155,-0.6464345
6.1811204,4.6506996,-0.092376366,-0.14108086,0.07263821,1.8818425,-9.433155,-0.6464345
6.1810765,4.6505957,-0.08598478,-0.14214613,0.0790298,1.9201498,-9.442732,-0.7182605
6.1810265,4.6504774,-0.08598478,-0.14214613,0.0790298,1.9201498,-9.442732,-0.7182605
6.1809807,4.6503673,-0.0795932,-0.14321138,0.08435612,1.9632454,-9.504981,-0.7038953
6.180935,4.650257,-0.0795932,-0.14321138,0.08435612,1.9632454,-9.504981,-0.7038953
6.180892,4.650161,-0.07213634,-0.14427665,0.087551914,1.7812861,-9.500193,-0.6512229
6.1808486,4.650064,-0.07213634,-0.14427665,0.087551914,1.7812861,-9.500193,-0.6512229
6.1808095,4.6499763,-0.06574476,-0.14534192,0.09181297,1.6950948,-9.495404,-0.63206923
6.1807704,4.649888,-0.06574476,-0.14534192,0.09181297,1.6950948,-9.495404,-0.63206923
6.1807346,4.649802,-0.05935317,-0.15066823,0.09500877,1.6567876,-9.485827,-0.6464345
6.1807,4.6497173,-0.05935317,-0.15066823,0.09500877,1.6567876,-9.485827,-0.6464345
6.1806703,4.64964,-0.050831053,-0.1549293,0.10033509,1.6903064,-9.476251,-0.6560113
6.1806407,4.649562,-0.050831053,-0.1549293,0.10033509,1.6903064,-9.476251,-0.6560113
6.180616,4.649506,-0.04443947,-0.15919036,0.104596145,1.8004397,-9.437943,-0.56982
6.1805906,4.6494493,-0.04443947,-0.15919036,0.104596145,1.8004397,-9.437943,-0.56982
6.180564,4.6493864,-0.03698262,-0.1634514,0.106726676,1.8195933,-9.433155,-0.60812724
6.180544,4.6493382,-0.03698262,-0.1634514,0.106726676,1.8195933,-9.433155,-0.60812724
6.1805224,4.649287,-0.029525764,-0.16558194,0.10779194,1.8291701,-9.394848,-0.63206923
6.180501,4.649235,-0.029525764,-0.16558194,0.10779194,1.8291701,-9.394848,-0.63206923
6.1804786,4.6491833,-0.02313418,-0.1666472,0.106726676,1.8579005,-9.385271,-0.6703765
6.1804557,4.649131,-0.02313418,-0.1666472,0.106726676,1.8579005,-9.385271,-0.6703765
6.1804333,4.649075,-0.01674259,-0.16558194,0.104596145,1.8962077,-9.399636,-0.7469909
6.180411,4.64902,-0.01674259,-0.16558194,0.104596145,1.8962077,-9.399636,-0.7469909
6.1803865,4.648965,-0.0114162695,-0.16451667,0.10140035,1.910573,-9.442732,-0.78529817
6.180362,4.64891,-0.0114162695,-0.16451667,0.10140035,1.910573,-9.442732,-0.78529817
6.180333,4.6488624,-0.0050246827,-0.16132088,0.09713929,1.8770541,-9.44752,-0.7757214
6.180304,4.6488147,-0.0050246827,-0.16132088,0.09713929,1.8770541,-9.44752,-0.7757214
6.18027,4.6487722,0.00030163955,-0.15812509,0.09181297,1.7142484,-9.485827,-0.7469909
6.180236,4.6487303,0.00030163955,-0.15812509,0.09181297,1.7142484,-9.485827,-0.7469909
6.180196,4.6487007,0.0045626974,-0.15599456,0.088617176,1.6519991,-9.490616,-0.6943185
6.1801558,4.6486707,0.0045626974,-0.15599456,0.088617176,1.6519991,-9.490616,-0.6943185
6.1801143,4.648643,0.008823755,-0.1549293,0.08648665,1.5897499,-9.524135,-0.6991069
6.180073,4.648616,0.008823755,-0.1549293,0.08648665,1.5897499,-9.524135,-0.6991069
6.1800323,4.648587,0.013084813,-0.1549293,0.08542138,1.6376339,-9.514558,-0.7326257
6.1799912,4.648558,0.013084813,-0.1549293,0.08542138,1.6376339,-9.514558,-0.7326257
6.17995,4.648529,0.016280606,-0.15386403,0.08435612,1.6376339,-9.528923,-0.7517793
6.1799097,4.6485,0.016280606,-0.15386403,0.08435612,1.6376339,-9.528923,-0.7517793
6.1798677,4.648483,0.020541664,-0.15386403,0.08542138,1.6136919,-9.56723,-0.7134721
6.179826,4.648465,0.020541664,-0.15386403,0.08542138,1.6136919,-9.56723,-0.7134721
6.1797876,4.648449,0.023737457,-0.15279876,0.088617176,1.6376339,-9.557653,-0.7278373
6.179749,4.6484327,0.023737457,-0.15279876,0.088617176,1.6376339,-9.557653,-0.7278373
6.179716,4.648407,0.025867987,-0.15066823,0.089682445,1.6472107,-9.586384,-0.79008657
6.179683,4.648382,0.025867987,-0.15066823,0.089682445,1.6472107,-9.586384,-0.79008657
6.1796603,4.648345,0.026933251,-0.14747244,0.09181297,1.7621324,-9.615114,-0.91458505
6.1796374,4.6483083,0.026933251,-0.14747244,0.09181297,1.7621324,-9.615114,-0.91458505
6.179606,4.648284,0.026933251,-0.14321138,0.09181297,1.8243817,-9.662998,-0.8475474
6.179575,4.6482596,0.026933251,-0.14321138,0.09181297,1.8243817,-9.662998,-0.8475474
6.179536,4.6482434,0.026933251,-0.1368198,0.087551914,1.7525556,-9.648633,-0.78050977
6.1794972,4.6482277,0.026933251,-0.1368198,0.087551914,1.7525556,-9.648633,-0.78050977
6.1794624,4.648202,0.02906378,-0.13255873,0.08542138,1.4939818,-9.65821,-0.7757214
6.179427,4.648176,0.02906378,-0.13255873,0.08542138,1.4939818,-9.65821,-0.7757214
6.17938,4.648186,0.032259572,-0.13042821,0.08435612,1.5179238,-9.65821,-0.6560113
6.179333,4.6481953,0.032259572,-0.13042821,0.08435612,1.5179238,-9.65821,-0.6560113
6.179284,4.6482067,0.033324838,-0.13149348,0.08222559,1.5705963,-9.581595,-0.6512229
6.179235,4.648218,0.033324838,-0.13149348,0.08222559,1.5705963,-9.581595,-0.6512229
6.1791844,4.6482363,0.03545537,-0.133624,0.08116033,1.661576,-9.5385,-0.63206923
6.1791344,4.6482544,0.03545537,-0.133624,0.08116033,1.661576,-9.5385,-0.63206923
6.179083,4.6482806,0.03865116,-0.13468927,0.08009506,1.661576,-9.476251,-0.60333884
6.179032,4.648307,0.03865116,-0.13468927,0.08009506,1.661576,-9.476251,-0.60333884
6.1789775,4.6483364,0.039716423,-0.13575453,0.07689927,1.6759412,-9.514558,-0.59376204
6.178923,4.648366,0.039716423,-0.13575453,0.07689927,1.6759412,-9.514558,-0.59376204
