Pitch,Roll,Gyro_X,Gyro_Y,Gyro_Z,Accel_X,Accel_Y,Accel_Z
6.2295446,4.8749623,0.017345872,0.013382491,0.09500877,0.51714754,-9.543288,1.5945383
6.2296505,4.875081,0.017345872,0.013382491,0.09500877,0.51714754,-9.543288,1.5945383
6.22968,4.8751984,0.017345872,0.013382491,0.09926982,0.5602432,-9.5385,1.6136919
6.229701,4.875287,0.017345872,0.013382491,0.09926982,0.5602432,-9.5385,1.6136919
6.2297215,4.8752275,0.018411135,0.01551302,0.104596145,0.5554548,-9.519346,1.5275006
6.229741,4.8751683,0.018411135,0.01551302,0.104596145,0.5554548,-9.519346,1.5275006
6.2297745,4.875271,0.020541664,0.016578285,0.11098773,0.5602432,-9.552865,1.6136919
6.2298064,4.875373,0.020541664,0.016578285,0.11098773,0.5602432,-9.552865,1.6136919
6.229871,4.8754873,0.022672193,0.018708814,0.118444584,0.521936,-9.509769,1.5753847
6.229926,4.875599,0.022672193,0.018708814,0.118444584,0.521936,-9.509769,1.5753847
6.2299333,4.8755684,0.023737457,0.021904606,0.12164038,0.5267244,-9.490616,1.5562311
6.229938,4.8755393,0.023737457,0.021904606,0.12164038,0.5267244,-9.490616,1.5562311
6.2299275,4.875542,0.024802722,0.022969872,0.12377091,0.545878,-9.404425,1.541866
6.2299175,4.875545,0.024802722,0.022969872,0.12377091,0.545878,-9.404425,1.541866
6.229934,4.8755116,0.024802722,0.024035135,0.12803197,0.5746084,-9.452309,1.5227122
6.2299504,4.8754787,0.024802722,0.024035135,0.12803197,0.5746084,-9.452309,1.5227122
6.229951,4.8754745,0.025867987,0.0251004,0.13122776,0.61291564,-9.428367,1.5275006
6.2299514,4.87547,0.025867987,0.0251004,0.13122776,0.61291564,-9.428367,1.5275006
6.2299495,4.8754807,0.024802722,0.026165664,0.13442355,0.63206923,-9.44752,1.541866
6.229948,4.8754916,0.024802722,0.026165664,0.13442355,0.63206923,-9.44752,1.541866
6.2299438,4.875516,0.023737457,0.02723093,0.13335828,0.60333884,-9.3661175,1.541866
6.22994,4.8755407,0.023737457,0.02723093,0.13335828,0.60333884,-9.3661175,1.541866
6.2299767,4.87549,0.020541664,0.029361458,0.13122776,0.61770403,-9.351752,1.4556746
6.230013,4.8754406,0.020541664,0.029361458,0.13122776,0.61770403,-9.351752,1.4556746
6.230012,4.875489,0.016280606,0.030426722,0.12909722,0.6560113,-9.32781,1.5705963
6.230011,4.875536,0.016280606,0.030426722,0.12909722,0.6560113,-9.32781,1.5705963
6.2299976,4.8755555,0.010954284,0.031491987,0.12270564,0.6368576,-9.3182335,1.541866
6.2299843,4.875575,0.010954284,0.031491987,0.12270564,0.6368576,-9.3182335,1.541866
6.2299647,4.875588,0.0045626974,0.032557253,0.11631405,0.6655881,-9.370906,1.5514427
6.229946,4.8756,0.0045626974,0.032557253,0.11631405,0.6655881,-9.370906,1.5514427
6.2299633,4.875528,-0.0018288894,0.033622514,0.11098773,0.58418524,-9.3661175,1.484405
6.2299805,4.8754525,-0.0018288894,0.033622514,0.11098773,0.58418524,-9.3661175,1.484405
6.2299466,4.875455,-0.008220476,0.032557253,0.10140035,0.60812724,-9.385271,1.5514427
6.2299128,4.875458,-0.008220476,0.032557253,0.10140035,0.60812724,-9.385271,1.5514427
6.2298694,4.8754425,-0.014612063,0.031491987,0.09287824,0.61770403,-9.409213,1.5466543
6.229826,4.875427,-0.014612063,0.031491987,0.09287824,0.61770403,-9.409213,1.5466543
6.2298193,4.875334,-0.019938385,0.028296193,0.08435612,0.59855044,-9.423578,1.4796166
6.2298126,4.8752413,-0.019938385,0.028296193,0.08435612,0.59855044,-9.423578,1.4796166
6.2298746,4.875118,-0.025264706,0.026165664,0.07689927,0.5315128,-9.457097,1.4413095
6.2299356,4.8749943,-0.025264706,0.026165664,0.07689927,0.5315128,-9.457097,1.4413095
6.2298856,4.874919,-0.029525764,0.022969872,0.07050768,0.5506664,-9.461885,1.5370775
6.2298346,4.8748446,-0.029525764,0.022969872,0.07050768,0.5506664,-9.461885,1.5370775
6.2298923,4.874711,-0.033786822,0.018708814,0.06305083,0.51714754,-9.452309,1.4652514
6.2299495,4.8745775,-0.033786822,0.018708814,0.06305083,0.51714754,-9.452309,1.4652514
6.2298765,4.87451,-0.03698262,0.014447756,0.05772451,0.56982,-9.423578,1.5275006
6.2298017,4.874443,-0.03698262,0.014447756,0.05772451,0.56982,-9.423578,1.5275006
6.229714,4.874401,-0.041243672,0.010186698,0.05026766,0.5602432,-9.433155,1.541866
6.229625,4.87436,-0.041243672,0.010186698,0.05026766,0.5602432,-9.433155,1.541866
6.229578,4.8742385,-0.04443947,0.003795111,0.04387607,0.5602432,-9.44752,1.5035586
6.2295303,4.874119,-0.04443947,0.003795111,0.04387607,0.5602432,-9.44752,1.5035586
6.2295218,4.8739777,-0.04763526,-0.00046594674,0.037484486,0.5363012,-9.481039,1.5035586
6.229512,4.873835,-0.04763526,-0.00046594674,0.037484486,0.5363012,-9.481039,1.5035586
6.22946,4.8737063,-0.049765788,-0.00366174,0.03428869,0.56982,-9.437943,1.484405
6.229407,4.8735776,-0.049765788,-0.00366174,0.03428869,0.56982,-9.437943,1.484405
6.2293534,4.873442,-0.05402685,-0.007922798,0.030027634,0.59376204,-9.461885,1.460463
6.229299,4.873307,-0.05402685,-0.007922798,0.030027634,0.59376204,-9.461885,1.460463
6.2292495,4.873165,-0.057222642,-0.011118591,0.02683184,0.58897364,-9.433155,1.4460979
6.2291994,4.873022,-0.057222642,-0.011118591,0.02683184,0.58897364,-9.433155,1.4460979
6.229131,4.872885,-0.05935317,-0.014314385,0.023636047,0.59376204,-9.433155,1.460463
6.2290626,4.8727484,-0.05935317,-0.014314385,0.023636047,0.59376204,-9.433155,1.460463
6.2289696,4.8726244,-0.0614837,-0.015379649,0.019374989,0.60812724,-9.485827,1.484405
6.2288756,4.872501,-0.0614837,-0.015379649,0.019374989,0.60812724,-9.485827,1.484405
6.2288423,4.872341,-0.06467949,-0.016444914,0.016179197,0.5650316,-9.476251,1.4413095
6.2288084,4.872181,-0.06467949,-0.016444914,0.016179197,0.5650316,-9.476251,1.4413095
6.2286787,4.8721104,-0.06894055,-0.015379649,0.012983402,0.61770403,-9.423578,1.5179238
6.2285304,4.87203,-0.06894055,-0.015379649,0.012983402,0.61770403,-9.423578,1.5179238
6.228495,4.871889,-0.07000581,-0.014314385,0.009787609,0.5506664,-9.457097,1.4700398
6.2284536,4.871725,-0.07000581,-0.014314385,0.009787609,0.5506664,-9.457097,1.4700398
6.228369,4.871578,-0.07107108,-0.015379649,0.009787609,0.5650316,-9.471462,1.4891934
6.2282834,4.8714323,-0.07107108,-0.015379649,0.009787609,0.5650316,-9.471462,1.4891934
6.2281947,4.8712873,-0.07107108,-0.01324912,0.008722344,0.58897364,-9.490616,1.4748282
6.228105,4.8711424,-0.07107108,-0.01324912,0.008722344,0.58897364,-9.490616,1.4748282
6.228016,4.871145,-0.07107108,-0.012183856,0.0065918155,0.545878,-9.533711,1.5370775
6.22793,4.8711495,-0.07107108,-0.012183856,0.0065918155,0.545878,-9.533711,1.5370775
6.2279243,4.8711767,-0.07213634,-0.010053327,0.0065918155,0.5363012,-9.519346,1.5514427
6.227919,4.871203,-0.07213634,-0.010053327,0.0065918155,0.5363012,-9.519346,1.5514427
6.2279077,4.871229,-0.07213634,-0.008988062,0.008722344,0.5410896,-9.581595,1.5562311
6.227896,4.871256,-0.07213634,-0.008988062,0.008722344,0.5410896,-9.581595,1.5562311
6.2280216,4.8712387,-0.07426687,-0.0068575335,0.012983402,0.5315128,-9.576807,1.5370775
6.2281327,4.871233,-0.07426687,-0.0068575335,0.012983402,0.5315128,-9.576807,1.5370775
6.2282634,4.8711014,-0.07426687,-0.0047270046,0.016179197,0.521936,-9.610326,1.532289
6.2283974,4.8709736,-0.07426687,-0.0047270046,0.016179197,0.521936,-9.610326,1.532289
6.228315,4.8709683,-0.07213634,-0.0025964756,0.021505518,0.62249243,-9.605537,1.5945383
6.2282324,4.870964,-0.07213634,-0.0025964756,0.021505518,0.62249243,-9.605537,1.5945383
6.228121,4.8709135,-0.07213634,0.0027298466,0.024701312,0.62728083,-9.672575,1.5610195
6.228009,4.870864,-0.07213634,0.0027298466,0.024701312,0.62728083,-9.672575,1.5610195
6.227908,4.870757,-0.07107108,0.008056169,0.027897105,0.60812724,-9.648633,1.5227122
6.2278056,4.8706512,-0.07107108,0.008056169,0.027897105,0.60812724,-9.648633,1.5227122
6.227896,4.8706746,-0.06787529,0.013382491,0.031092897,0.5315128,-9.667787,1.5610195
6.2279835,4.870699,-0.06787529,0.013382491,0.031092897,0.5315128,-9.667787,1.5610195
6.228101,4.870716,-0.06467949,0.019774077,0.03428869,0.50757074,-9.701305,1.5849615
6.228217,4.8707337,-0.06467949,0.019774077,0.03428869,0.50757074,-9.701305,1.5849615
6.2282896,4.8707705,-0.0614837,0.026165664,0.03854975,0.521936,-9.710882,1.6136919
6.228362,4.8708076,-0.0614837,0.026165664,0.03854975,0.521936,-9.710882,1.6136919
6.2284474,4.870847,-0.057222642,0.030426722,0.04387607,0.51235914,-9.725247,1.6280571
6.228532,4.8708873,-0.057222642,0.030426722,0.04387607,0.51235914,-9.725247,1.6280571
6.2286887,4.870904,-0.052961584,0.035753045,0.05026766,0.46926352,-9.710882,1.5993267
6.2288437,4.8709216,-0.052961584,0.035753045,0.05026766,0.46926352,-9.710882,1.5993267
6.2289777,4.870959,-0.048700526,0.04107937,0.05346345,0.49799395,-9.730036,1.5993267
6.22911,4.8709965,-0.048700526,0.04107937,0.05346345,0.49799395,-9.730036,1.5993267
6.229256,4.8710356,-0.043374203,0.04427516,0.058789775,0.45010993,-9.758766,1.6472107
6.229401,4.8710756,-0.043374203,0.04427516,0.058789775,0.45010993,-9.758766,1.6472107
6.2295723,4.871107,-0.04017841,0.04853622,0.0641161,0.4261679,-9.715671,1.6280571
6.229748,4.8711395,-0.04017841,0.04853622,0.0641161,0.4261679,-9.715671,1.6280571
6.2298646,4.8711977,-0.03698262,0.05173201,0.06944242,0.48362875,-9.734824,1.6567876
6.229983,4.871257,-0.03698262,0.05173201,0.06944242,0.48362875,-9.734824,1.6567876
6.2300878,4.8713236,-0.033786822,0.053862542,0.073703475,0.50278234,-9.797073,1.6807296
6.2301917,4.87139,-0.033786822,0.053862542,0.073703475,0.50278234,-9.797073,1.6807296
6.2303185,4.8714557,-0.031656295,0.05918886,0.07689927,0.47884035,-9.773131,1.6759412
6.2303185,4.8714557,-0.031656295,0.05918886,0.07689927,0.47884035,-9.773131,1.6759412
6.230498,4.871549,-0.031656295,0.05918886,0.07689927,0.47884035,-9.773131,1.6759412
6.230773,4.8716373,-0.027395237,0.06451519,0.08009506,0.46447513,-9.787497,1.6280571
6.2309394,4.8716984,-0.025264706,0.06877624,0.08116033,0.45489833,-9.773131,1.6424223
6.2309394,4.8716984,-0.025264706,0.06877624,0.08116033,0.45489833,-9.773131,1.6424223
6.2312617,4.871824,-0.024199443,0.07090677,0.08222559,0.45968673,-9.77792,1.6519991
6.2314224,4.871894,-0.024199443,0.07090677,0.08222559,0.45968673,-9.77792,1.6519991
6.2315793,4.8719673,-0.019938385,0.074102566,0.08116033,0.4165911,-9.758766,1.70946
6.2317276,4.8720365,-0.019938385,0.074102566,0.08116033,0.4165911,-9.758766,1.70946
6.231892,4.872106,-0.01674259,0.07836362,0.08116033,0.39743748,-9.739613,1.6950948
6.2320747,4.8721833,-0.01674259,0.07836362,0.08116033,0.39743748,-9.739613,1.6950948
6.2322326,4.872245,-0.014612063,0.08262468,0.08116033,0.35434186,-9.773131,1.7238252
6.2324085,4.8723135,-0.014612063,0.08262468,0.08116033,0.35434186,-9.773131,1.7238252
6.2326035,4.872375,-0.009285741,0.08475521,0.08116033,0.29209262,-9.749189,1.7142484
6.232798,4.872437,-0.009285741,0.08475521,0.08116033,0.29209262,-9.749189,1.7142484
6.2329993,4.8724966,-0.0071552116,0.086885735,0.08116033,0.25857377,-9.734824,1.7142484
6.2332006,4.872556,-0.0071552116,0.086885735,0.08116033,0.25857377,-9.734824,1.7142484
6.233412,4.8726115,-0.0039594183,0.089016266,0.08329086,0.23942018,-9.753978,1.6998832
6.233624,4.872667,-0.0039594183,0.089016266,0.08329086,0.23942018,-9.753978,1.6998832
6.233856,4.8726945,-0.0028941538,0.089016266,0.08542138,0.19632454,-9.787497,1.6424223
6.2340894,4.8727226,-0.0028941538,0.089016266,0.08542138,0.19632454,-9.787497,1.6424223
6.2343125,4.8727694,-0.0018288894,0.089016266,0.08648665,0.21068975,-9.734824,1.6759412
6.2345357,4.8728166,-0.0018288894,0.089016266,0.08648665,0.21068975,-9.734824,1.6759412
6.2347655,4.872856,0.00030163955,0.0911468,0.08648665,0.14844051,-9.730036,1.6663644
6.2349954,4.8728957,0.00030163955,0.0911468,0.08648665,0.14844051,-9.730036,1.6663644
6.2352266,4.872928,0.00030163955,0.090081535,0.08435612,0.15322891,-9.720459,1.6424223
6.235458,4.87296,0.00030163955,0.090081535,0.08435612,0.15322891,-9.720459,1.6424223
6.2356844,4.8730016,0.001366904,0.087951005,0.08435612,0.12928689,-9.68694,1.6663644
6.235911,4.873043,0.001366904,0.087951005,0.08435612,0.12928689,-9.68694,1.6663644
6.236134,4.8730836,0.00030163955,0.08475521,0.08116033,0.11971009,-9.725247,1.6759412
6.2363567,4.873124,0.00030163955,0.08475521,0.08116033,0.11971009,-9.725247,1.6759412
6.2365804,4.8731503,0.00030163955,0.08049415,0.075834006,0.1340753,-9.672575,1.6232687
6.236804,4.8731766,0.00030163955,0.08049415,0.075834006,0.1340753,-9.672575,1.6232687
6.2370195,4.873214,0.0024321685,0.07516783,0.07263821,0.10055647,-9.677363,1.6567876
6.237235,4.8732514,0.0024321685,0.07516783,0.07263821,0.10055647,-9.677363,1.6567876
6.237439,4.873299,0.0024321685,0.06877624,0.06837715,0.095768064,-9.639056,1.685518
6.2376432,4.873347,0.0024321685,0.06877624,0.06837715,0.095768064,-9.639056,1.685518
6.2378325,4.873406,0.0024321685,0.062384658,0.0641161,0.10055647,-9.634268,1.7286136
6.238022,4.8734655,0.0024321685,0.062384658,0.0641161,0.10055647,-9.634268,1.7286136
6.238221,4.8735046,0.0024321685,0.054927804,0.0609203,0.1388637,-9.581595,1.6376339
6.238422,4.873544,0.0024321685,0.054927804,0.0609203,0.1388637,-9.581595,1.6376339
6.238623,4.873562,0.0024321685,0.049601484,0.056659244,0.1340753,-9.619903,1.5945383
6.2388253,4.87358,0.0024321685,0.049601484,0.056659244,0.1340753,-9.619903,1.5945383
6.239017,4.873607,0.00030163955,0.043209895,0.05026766,0.12928689,-9.605537,1.6184803
6.239207,4.8736334,0.00030163955,0.043209895,0.05026766,0.12928689,-9.605537,1.6184803
6.2393866,4.8736706,-0.0007636249,0.03681831,0.044941336,0.15801731,-9.56723,1.6328455
6.2395678,4.873708,-0.0007636249,0.03681831,0.044941336,0.15801731,-9.56723,1.6328455
6.239747,4.873734,-0.0028941538,0.031491987,0.040680278,0.18674773,-9.552865,1.6041151
6.239926,4.87376,-0.0028941538,0.031491987,0.040680278,0.18674773,-9.552865,1.6041151
6.240103,4.873781,-0.0050246827,0.0251004,0.03854975,0.17238252,-9.56723,1.6041151
6.24028,4.873802,-0.0050246827,0.0251004,0.03854975,0.17238252,-9.56723,1.6041151
6.2404385,4.8738437,-0.0071552116,0.018708814,0.03428869,0.15322891,-9.586384,1.6663644
6.2405972,4.8738847,-0.0071552116,0.018708814,0.03428869,0.15322891,-9.586384,1.6663644
6.240767,4.873888,-0.008220476,0.013382491,0.02896237,0.17717093,-9.581595,1.5801731
6.2409363,4.8738914,-0.008220476,0.013382491,0.02896237,0.17717093,-9.581595,1.5801731
6.241087,4.8739257,-0.010351005,0.008056169,0.024701312,0.12928689,-9.548077,1.6567876
6.2412367,4.87396,-0.010351005,0.008056169,0.024701312,0.12928689,-9.548077,1.6567876
6.2413955,4.873965,-0.013546798,0.0027298466,0.021505518,0.20590134,-9.615114,1.5945383
6.241555,4.8739696,-0.013546798,0.0027298466,0.021505518,0.20590134,-9.615114,1.5945383
6.2416954,4.8740015,-0.014612063,-0.00366174,0.018309724,0.22026655,-9.528923,1.6232687
6.2418356,4.8740335,-0.014612063,-0.00366174,0.018309724,0.22026655,-9.528923,1.6232687
6.2419453,4.874087,-0.015677327,-0.008988062,0.012983402,0.25378537,-9.56723,1.6663644
6.2420554,4.8741407,-0.015677327,-0.008988062,0.012983402,0.25378537,-9.56723,1.6663644
6.242188,4.874164,-0.01674259,-0.015379649,0.00765708,0.25378537,-9.572019,1.6089035
6.24232,4.8741875,-0.01674259,-0.015379649,0.00765708,0.25378537,-9.572019,1.6089035
6.2424283,4.874231,-0.017807856,-0.018575443,0.0023307577,0.25378537,-9.533711,1.6376339
6.2425365,4.8742743,-0.017807856,-0.018575443,0.0023307577,0.25378537,-9.533711,1.6376339
6.2426133,4.8743353,-0.018873122,-0.0228365,-0.0008650357,0.272939,-9.524135,1.6759412
6.2426896,4.874396,-0.018873122,-0.0228365,-0.0008650357,0.272939,-9.524135,1.6759412
6.242712,4.8744707,-0.021003649,-0.023901764,-0.004060829,0.34955344,-9.5385,1.6998832
6.242734,4.874546,-0.021003649,-0.023901764,-0.004060829,0.34955344,-9.5385,1.6998832
6.242788,4.87461,-0.022068914,-0.02496703,-0.009387151,0.32561144,-9.5385,1.6472107
6.2428417,4.8746743,-0.022068914,-0.02496703,-0.009387151,0.32561144,-9.5385,1.6472107
6.242884,4.874738,-0.024199443,-0.026032293,-0.015778739,0.34955344,-9.548077,1.6232687
6.242926,4.8748016,-0.024199443,-0.026032293,-0.015778739,0.34955344,-9.548077,1.6232687
6.242919,4.874873,-0.026329972,-0.02496703,-0.020039797,0.37349546,-9.533711,1.661576
6.242912,4.874945,-0.026329972,-0.02496703,-0.020039797,0.37349546,-9.533711,1.661576
6.2429004,4.8750134,-0.029525764,-0.023901764,-0.024300855,0.38307226,-9.572019,1.6184803
6.24289,4.875082,-0.029525764,-0.023901764,-0.024300855,0.38307226,-9.572019,1.6184803
6.2428484,4.8751507,-0.03059103,-0.0228365,-0.029627176,0.39743748,-9.600749,1.6328455
6.2428074,4.8752184,-0.03059103,-0.0228365,-0.029627176,0.39743748,-9.600749,1.6328455
6.2427683,4.875286,-0.031656295,-0.020705972,-0.033888236,0.39743748,-9.643845,1.6759412
6.24273,4.8753533,-0.031656295,-0.020705972,-0.033888236,0.39743748,-9.643845,1.6759412
6.2427125,4.8754177,-0.032721557,-0.019640706,-0.03814929,0.38307226,-9.720459,1.6663644
6.242696,4.8754826,-0.032721557,-0.019640706,-0.03814929,0.38307226,-9.720459,1.6663644
6.2426996,4.875542,-0.033786822,-0.017510178,-0.041345086,0.36391866,-9.725247,1.6711528
6.2427044,4.875601,-0.033786822,-0.017510178,-0.041345086,0.36391866,-9.725247,1.6711528
6.242737,4.8756495,-0.033786822,-0.016444914,-0.04241035,0.33518824,-9.792285,1.685518
6.2427697,4.875698,-0.033786822,-0.016444914,-0.04241035,0.33518824,-9.792285,1.685518
6.2428527,4.875707,-0.031656295,-0.014314385,-0.04241035,0.2633622,-9.782708,1.6567876
6.2429357,4.875716,-0.031656295,-0.014314385,-0.04241035,0.2633622,-9.782708,1.6567876
6.242969,4.8757687,-0.029525764,-0.012183856,-0.043475613,0.30166942,-9.864111,1.733402
6.2430024,4.8758206,-0.029525764,-0.012183856,-0.043475613,0.30166942,-9.864111,1.733402
6.2430024,4.8758206,-0.029525764,-0.012183856,-0.043475613,0.30166942,-9.864111,1.733402
6.243147,4.8758864,-0.025264706,-0.012183856,-0.04027982,0.2633622,-9.844957,1.6950948
6.2432437,4.8758993,-0.018873122,-0.011118591,-0.034953497,0.25857377,-9.835381,1.6567876
6.243338,4.8759117,-0.018873122,-0.011118591,-0.034953497,0.25857377,-9.835381,1.6567876
6.2434273,4.875949,-0.012481534,-0.012183856,-0.028561912,0.25378537,-9.844957,1.685518
6.243517,4.875986,-0.012481534,-0.012183856,-0.028561912,0.25378537,-9.844957,1.685518
6.243597,4.876045,-0.006089947,-0.012183856,-0.02323559,0.2633622,-9.821015,1.7046716
6.243677,4.876104,-0.006089947,-0.012183856,-0.02323559,0.2633622,-9.821015,1.7046716
6.2438006,4.876115,0.001366904,-0.01324912,-0.013648209,0.22984336,-9.840169,1.6376339
6.243924,4.8761263,0.001366904,-0.01324912,-0.013648209,0.22984336,-9.840169,1.6376339
6.2440405,4.8761835,0.008823755,-0.012183856,-0.0029955646,0.2681506,-9.811439,1.6711528
6.244157,4.8762407,0.008823755,-0.012183856,-0.0029955646,0.2681506,-9.811439,1.6711528
6.2443013,4.8762436,0.017345872,-0.010053327,0.00765708,0.33518824,-9.792285,1.6136919
6.244446,4.876246,0.017345872,-0.010053327,0.00765708,0.33518824,-9.792285,1.6136919
6.2445965,4.8763027,0.025867987,-0.007922798,0.019374989,0.30166942,-9.758766,1.6328455
6.2447476,4.876359,0.025867987,-0.007922798,0.019374989,0.30166942,-9.758766,1.6328455
6.2448916,4.8764477,0.033324838,-0.005792269,0.030027634,0.36870706,-9.696517,1.6089035
6.2450376,4.8765345,0.033324838,-0.005792269,0.030027634,0.36870706,-9.696517,1.6089035
6.245033,4.87667,0.040781688,-0.00366174,0.040680278,0.40222588,-9.725247,1.6663644
6.245027,4.876805,0.040781688,-0.00366174,0.040680278,0.40222588,-9.725247,1.6663644
6.245009,4.876939,0.047173277,-0.00046594674,0.05026766,0.4213795,-9.677363,1.6663644
6.24499,4.8770723,0.047173277,-0.00046594674,0.05026766,0.4213795,-9.677363,1.6663644
6.244948,4.8771944,0.0524996,0.003795111,0.058789775,0.4357447,-9.653421,1.6472107
6.2449045,4.877315,0.0524996,0.003795111,0.058789775,0.4357447,-9.653421,1.6472107
6.244964,4.877271,0.055695392,0.009121433,0.06731189,0.37828386,-9.600749,1.5275006
6.2450223,4.877227,0.055695392,0.009121433,0.06731189,0.37828386,-9.600749,1.5275006
6.245014,4.8772073,0.058891185,0.014447756,0.075834006,0.40701428,-9.586384,1.5610195
6.245005,4.8771877,0.058891185,0.014447756,0.075834006,0.40701428,-9.586384,1.5610195
6.2449517,4.8772674,0.062086977,0.018708814,0.08222559,0.40222588,-9.533711,1.5897499
6.244897,4.877344,0.062086977,0.018708814,0.08222559,0.40222588,-9.533711,1.5897499
6.244945,4.8773136,0.06421751,0.022969872,0.087551914,0.39264908,-9.485827,1.5227122
6.2449923,4.877283,0.06421751,0.022969872,0.087551914,0.39264908,-9.485827,1.5227122
6.2450666,4.8772492,0.06421751,0.028296193,0.09181297,0.37828386,-9.452309,1.5131354
6.2451396,4.8772154,0.06421751,0.028296193,0.09181297,0.37828386,-9.452309,1.5131354
6.2452626,4.8771806,0.06315224,0.032557253,0.09820456,0.33997664,-9.452309,1.4556746
6.2453847,4.877145,0.06315224,0.032557253,0.09820456,0.33997664,-9.452309,1.4556746
6.245521,4.877109,0.061021715,0.035753045,0.10140035,0.33997664,-9.409213,1.4987702
6.245656,4.8770733,0.061021715,0.035753045,0.10140035,0.33997664,-9.409213,1.4987702
6.245772,4.877035,0.061021715,0.038948838,0.103530884,0.35434186,-9.375694,1.5275006
6.2458844,4.8769975,0.061021715,0.038948838,0.103530884,0.35434186,-9.375694,1.5275006
6.245856,4.8770647,0.058891185,0.04107937,0.10566141,0.3878607,-9.32781,1.5514427
6.245827,4.87713,0.058891185,0.04107937,0.10566141,0.3878607,-9.32781,1.5514427
6.2458477,4.8771095,0.055695392,0.04107937,0.103530884,0.4405331,-9.313444,1.4700398
6.245868,4.8770885,0.055695392,0.04107937,0.103530884,0.4405331,-9.313444,1.4700398
6.2458334,4.87715,0.0524996,0.043209895,0.09926982,0.47405192,-9.232041,1.541866
6.245799,4.877211,0.0524996,0.043209895,0.09926982,0.47405192,-9.232041,1.541866
6.2457576,4.8772497,0.047173277,0.04427516,0.09181297,0.50757074,-9.279925,1.532289
6.245716,4.877288,0.047173277,0.04427516,0.09181297,0.50757074,-9.279925,1.532289
6.2456646,4.877331,0.04291222,0.045340426,0.08222559,0.5363012,-9.299079,1.5466543
6.245613,4.877374,0.04291222,0.045340426,0.08222559,0.5363012,-9.299079,1.5466543
6.2455535,4.877426,0.034390103,0.046405688,0.071572945,0.51714754,-9.3182335,1.5705963
6.2454934,4.8774776,0.034390103,0.046405688,0.071572945,0.51714754,-9.3182335,1.5705963
6.2454185,4.877511,0.023737457,0.04853622,0.05772451,0.50757074,-9.284714,1.5562311
6.245344,4.8775444,0.023737457,0.04853622,0.05772451,0.50757074,-9.284714,1.5562311
6.2452555,4.877577,0.013084813,0.049601484,0.041745543,0.46447513,-9.370906,1.5753847
6.245167,4.877609,0.013084813,0.049601484,0.041745543,0.46447513,-9.370906,1.5753847
6.2449207,4.8774786,-0.0071552116,0.047470953,0.011918138,0.30645782,-9.414001,1.5945383
6.2449207,4.8774786,-0.0071552116,0.047470953,0.011918138,0.30645782,-9.414001,1.5945383
6.2449207,4.8774786,-0.0071552116,0.047470953,0.011918138,0.30645782,-9.414001,1.5945383
6.2449207,4.8774786,-0.0071552116,0.047470953,0.011918138,0.30645782,-9.414001,1.5945383
6.245067,4.877468,-0.01674259,0.04427516,-0.0019303001,0.21547815,-9.423578,1.5753847
6.2452126,4.8774586,-0.01674259,0.04427516,-0.0019303001,0.21547815,-9.423578,1.5753847
6.245341,4.8774076,-0.024199443,0.04107937,-0.015778739,0.18674773,-9.504981,1.5466543
6.2454724,4.8773556,-0.024199443,0.04107937,-0.015778739,0.18674773,-9.504981,1.5466543
6.245583,4.877325,-0.03059103,0.03681831,-0.027496647,0.16280572,-9.524135,1.5801731
6.245699,4.8772936,-0.03059103,0.03681831,-0.027496647,0.16280572,-9.524135,1.5801731
6.2458153,4.8772516,-0.035917353,0.030426722,-0.037084028,0.12449849,-9.5385,1.5801731
6.2459154,4.8772163,-0.035917353,0.030426722,-0.037084028,0.12449849,-9.5385,1.5801731
6.24601,4.8771462,-0.039113145,0.021904606,-0.04241035,0.110133275,-9.586384,1.532289
6.246101,4.8770785,-0.039113145,0.021904606,-0.04241035,0.110133275,-9.586384,1.532289
6.246193,4.8770094,-0.041243672,0.012317227,-0.045606144,0.1388637,-9.619903,1.5514427
6.246288,4.8769383,-0.041243672,0.012317227,-0.045606144,0.1388637,-9.619903,1.5514427
6.24638,4.8768854,-0.039113145,0.0027298466,-0.04773667,0.10534488,-9.619903,1.5705963
6.2464714,4.876833,-0.039113145,0.0027298466,-0.04773667,0.10534488,-9.619903,1.5705963
6.2465577,4.8767753,-0.039113145,-0.007922798,-0.050932467,0.14844051,-9.576807,1.5610195
6.246645,4.8767176,-0.039113145,-0.007922798,-0.050932467,0.14844051,-9.576807,1.5610195
6.2467265,4.8766537,-0.03698262,-0.019640706,-0.050932467,0.18195933,-9.591172,1.5562311
6.2468085,4.8765903,-0.03698262,-0.019640706,-0.050932467,0.18195933,-9.591172,1.5562311
6.246889,4.876533,-0.033786822,-0.030293351,-0.05199773,0.20111294,-9.605537,1.5658079
6.246969,4.8764763,-0.033786822,-0.030293351,-0.05199773,0.20111294,-9.605537,1.5658079
6.247052,4.8764343,-0.031656295,-0.03881547,-0.050932467,0.2681506,-9.605537,1.5849615
6.247135,4.8763933,-0.031656295,-0.03881547,-0.050932467,0.2681506,-9.605537,1.5849615
6.2471895,4.876302,-0.0284605,-0.048402846,-0.048801936,0.2873042,-9.591172,1.5514427
6.247245,4.8762107,-0.0284605,-0.048402846,-0.048801936,0.2873042,-9.591172,1.5514427
6.2471113,4.876101,-0.025264706,-0.054794434,-0.046671405,0.36870706,-9.595961,1.5658079
6.246979,4.875991,-0.025264706,-0.054794434,-0.046671405,0.36870706,-9.595961,1.5658079
6.2468805,4.8758707,-0.024199443,-0.060120758,-0.04454088,0.40222588,-9.591172,1.4748282
6.2467823,4.8757496,-0.024199443,-0.060120758,-0.04454088,0.40222588,-9.591172,1.4748282
6.2466335,4.8756514,-0.024199443,-0.062251285,-0.04241035,0.47884035,-9.552865,1.4796166
6.2464843,4.8755536,-0.024199443,-0.062251285,-0.04241035,0.47884035,-9.552865,1.4796166
6.2463775,4.8754377,-0.022068914,-0.062251285,-0.04241035,0.4357447,-9.557653,1.436521
6.246271,4.875322,-0.022068914,-0.062251285,-0.04241035,0.4357447,-9.557653,1.436521
6.2460866,4.8752694,-0.021003649,-0.06118602,-0.041345086,0.45010993,-9.533711,1.5466543
6.2459016,4.8752174,-0.021003649,-0.06118602,-0.041345086,0.45010993,-9.533711,1.5466543
6.2457194,4.875165,-0.021003649,-0.060120758,-0.039214555,0.49799395,-9.514558,1.532289
6.2455373,4.875113,-0.021003649,-0.060120758,-0.039214555,0.49799395,-9.514558,1.532289
6.245353,4.8750906,-0.019938385,-0.057990227,-0.034953497,0.49320555,-9.509769,1.5610195
6.2451696,4.8750687,-0.019938385,-0.057990227,-0.034953497,0.49320555,-9.509769,1.5610195
6.2450256,4.87498,-0.018873122,-0.054794434,-0.03282297,0.48841715,-9.466674,1.4700398
6.244882,4.874891,-0.018873122,-0.054794434,-0.03282297,0.48841715,-9.466674,1.4700398
6.244882,4.874891,-0.018873122,-0.054794434,-0.03282297,0.48841715,-9.466674,1.4700398
6.244543,4.8747272,-0.018873122,-0.04946811,-0.031757705,0.545878,-9.481039,1.4700398
6.2444158,4.874651,-0.018873122,-0.044141788,-0.028561912,0.50757074,-9.437943,1.460463
6.244281,4.87457,-0.018873122,-0.044141788,-0.028561912,0.50757074,-9.437943,1.460463
6.244146,4.8744793,-0.021003649,-0.03881547,-0.028561912,0.5363012,-9.414001,1.4269443
6.2440104,4.8743887,-0.021003649,-0.03881547,-0.028561912,0.5363012,-9.414001,1.4269443
6.243855,4.874318,-0.022068914,-0.033489145,-0.027496647,0.5746084,-9.361329,1.4508862
6.243699,4.8742476,-0.022068914,-0.033489145,-0.027496647,0.5746084,-9.361329,1.4508862
6.2435293,4.874199,-0.02313418,-0.028162822,-0.029627176,0.63206923,-9.351752,1.4796166
6.24336,4.8741503,-0.02313418,-0.028162822,-0.029627176,0.63206923,-9.351752,1.4796166
6.243191,4.8740945,-0.025264706,-0.020705972,-0.03282297,0.641646,-9.26556,1.4508862
6.243021,4.874038,-0.025264706,-0.020705972,-0.03282297,0.641646,-9.26556,1.4508862
6.2428484,4.8739867,-0.027395237,-0.010053327,-0.036018763,0.6560113,-9.294291,1.4652514
6.2426753,4.8739347,-0.027395237,-0.010053327,-0.036018763,0.6560113,-9.294291,1.4652514
6.2425113,4.8738585,-0.0284605,0.0005993177,-0.041345086,0.7134721,-9.246407,1.3742718
6.2423477,4.873782,-0.0284605,0.0005993177,-0.041345086,0.7134721,-9.246407,1.3742718
6.24216,4.8737526,-0.03059103,0.009121433,-0.0498672,0.7326257,-9.227253,1.5035586
6.241972,4.873723,-0.03059103,0.009121433,-0.0498672,0.7326257,-9.227253,1.5035586
6.2417784,4.873662,-0.033786822,0.019774077,-0.06371564,0.7517793,-9.203311,1.4173675
6.241585,4.8736005,-0.033786822,0.019774077,-0.06371564,0.7517793,-9.203311,1.4173675
6.2413774,4.873531,-0.03698262,0.028296193,-0.08075987,0.7326257,-9.217676,1.4077905
6.2411704,4.873461,-0.03698262,0.028296193,-0.08075987,0.7326257,-9.217676,1.4077905
6.240945,4.8733835,-0.042308938,0.03681831,-0.10313042,0.6607997,-9.260772,1.4269443
6.240719,4.873306,-0.042308938,0.03681831,-0.10313042,0.6607997,-9.260772,1.4269443
6.2404613,4.8732514,-0.048700526,0.043209895,-0.12656625,0.6799533,-9.313444,1.4939818
6.240204,4.8731966,-0.048700526,0.043209895,-0.12656625,0.6799533,-9.313444,1.4939818
6.2399235,4.873137,-0.057222642,0.047470953,-0.15000206,0.59376204,-9.3421755,1.508347
6.239643,4.8730783,-0.057222642,0.047470953,-0.15000206,0.59376204,-9.3421755,1.508347
6.2393413,4.8730173,-0.06467949,0.049601484,-0.17237261,0.49799395,-9.423578,1.5275006
6.239039,4.8729568,-0.06467949,0.049601484,-0.17237261,0.49799395,-9.423578,1.5275006
6.2388353,4.8727884,-0.07320161,0.050666746,-0.19580843,0.4309563,-9.471462,1.4939818
6.238636,4.8726196,-0.07320161,0.050666746,-0.19580843,0.4309563,-9.471462,1.4939818
6.2385435,4.872485,-0.08172372,0.049601484,-0.21924424,0.33518824,-9.495404,1.4891934
6.238453,4.872353,-0.08172372,0.049601484,-0.21924424,0.33518824,-9.495404,1.4891934
6.238362,4.8722515,-0.08705004,0.046405688,-0.23948428,0.30645782,-9.543288,1.5227122
6.2382708,4.872151,-0.08705004,0.046405688,-0.23948428,0.30645782,-9.543288,1.5227122
6.2381516,4.87202,-0.092376366,0.04214463,-0.2565285,0.2825158,-9.595961,1.4939818
6.238033,4.871889,-0.092376366,0.04214463,-0.2565285,0.2825158,-9.595961,1.4939818
6.2379093,4.871791,-0.0945069,0.035753045,-0.27250746,0.16280572,-9.619903,1.532289
6.2377853,4.8716927,-0.0945069,0.035753045,-0.27250746,0.16280572,-9.619903,1.532289
6.2376475,4.871583,-0.09557216,0.028296193,-0.28422537,0.095768064,-9.662998,1.508347
6.2375097,4.871474,-0.09557216,0.028296193,-0.28422537,0.095768064,-9.662998,1.508347
6.2373524,4.871346,-0.093441635,0.019774077,-0.29487804,0.095768064,-9.682152,1.4508862
6.237195,4.8712187,-0.093441635,0.019774077,-0.29487804,0.095768064,-9.682152,1.4508862
6.237024,4.8710885,-0.089180574,0.009121433,-0.30340013,0.10055647,-9.753978,1.4413095
6.2368536,4.8709593,-0.089180574,0.009121433,-0.30340013,0.10055647,-9.753978,1.4413095
6.236672,4.8708305,-0.08385425,-0.0025964756,-0.30872646,0.062249243,-9.715671,1.4077905
6.2364936,4.870704,-0.08385425,-0.0025964756,-0.30872646,0.062249243,-9.715671,1.4077905
6.236317,4.8705945,-0.075332135,-0.015379649,-0.3097917,0.07182605,-9.773131,1.4508862
6.23614,4.8704844,-0.075332135,-0.015379649,-0.3097917,0.07182605,-9.773131,1.4508862
6.2359643,4.870385,-0.06787529,-0.030293351,-0.3076612,0.095768064,-9.763555,1.4652514
6.2357893,4.870286,-0.06787529,-0.030293351,-0.3076612,0.095768064,-9.763555,1.4652514
6.235607,4.870178,-0.0614837,-0.047337584,-0.30340013,0.1340753,-9.77792,1.4317327
6.2354255,4.870071,-0.0614837,-0.047337584,-0.30340013,0.1340753,-9.77792,1.4317327
6.235252,4.8699827,-0.05402685,-0.062251285,-0.30020434,0.2777274,-9.768343,1.5035586
6.2350783,4.8698955,-0.05402685,-0.062251285,-0.30020434,0.2777274,-9.768343,1.5035586
6.2348886,4.8697853,-0.046569996,-0.07609972,-0.29168224,0.36391866,-9.77792,1.4891934
6.2347,4.8696766,-0.046569996,-0.07609972,-0.29168224,0.36391866,-9.77792,1.4891934
6.2344704,4.869545,-0.04017841,-0.08781763,-0.28209487,0.4261679,-9.797073,1.4748282
6.2342434,4.8694143,-0.04017841,-0.08781763,-0.28209487,0.4261679,-9.797073,1.4748282
6.233833,4.869336,-0.034852087,-0.095274486,-0.2714422,0.545878,-9.825804,1.5370775
6.2334223,4.869258,-0.034852087,-0.095274486,-0.2714422,0.545878,-9.825804,1.5370775
6.2330847,4.869135,-0.031656295,-0.10060081,-0.2597243,0.5554548,-9.840169,1.4748282
6.2327495,4.8690114,-0.031656295,-0.10060081,-0.2597243,0.5554548,-9.840169,1.4748282
6.232419,4.8688946,-0.026329972,-0.10166607,-0.2501369,0.58418524,-9.77792,1.4317327
6.2320905,4.868777,-0.026329972,-0.10166607,-0.2501369,0.58418524,-9.77792,1.4317327
6.231742,4.868682,-0.021003649,-0.09740501,-0.23841901,0.61291564,-9.787497,1.4652514
6.231394,4.868586,-0.021003649,-0.09740501,-0.23841901,0.61291564,-9.787497,1.4652514
6.231058,4.8684983,-0.015677327,-0.091013424,-0.2235053,0.6464345,-9.773131,1.4460979
6.230723,4.86841,-0.015677327,-0.091013424,-0.2235053,0.6464345,-9.773131,1.4460979
6.2303686,4.868364,-0.010351005,-0.08355658,-0.2117874,0.6655881,-9.706094,1.4891934
6.2300143,4.8683176,-0.010351005,-0.08355658,-0.2117874,0.6655881,-9.706094,1.4891934
6.2296734,4.8682804,-0.0039594183,-0.07503446,-0.19900422,0.7038953,-9.629479,1.4700398
6.229332,4.868243,-0.0039594183,-0.07503446,-0.19900422,0.7038953,-9.629479,1.4700398
6.229009,4.868203,0.0045626974,-0.06544708,-0.18835159,0.7326257,-9.619903,1.4413095
6.2286863,4.868163,0.0045626974,-0.06544708,-0.18835159,0.7326257,-9.619903,1.4413095
6.228365,4.8681436,0.010954284,-0.0558597,-0.18089473,0.8379706,-9.576807,1.436521
6.2280436,4.868124,0.010954284,-0.0558597,-0.18089473,0.8379706,-9.576807,1.436521
6.2277217,4.8681254,0.013084813,-0.044141788,-0.1755684,0.89543146,-9.509769,1.4652514
6.227403,4.8681273,0.013084813,-0.044141788,-0.1755684,0.89543146,-9.509769,1.4652514
6.227092,4.868121,0.015215342,-0.031358615,-0.17237261,1.0007763,-9.457097,1.412579
6.22678,4.868115,0.015215342,-0.031358615,-0.17237261,1.0007763,-9.457097,1.412579
6.226466,4.868113,0.015215342,-0.019640706,-0.17450315,1.0486604,-9.414001,1.412579
6.226153,4.8681116,0.015215342,-0.019640706,-0.17450315,1.0486604,-9.414001,1.412579
6.2258353,4.8681116,0.00988902,-0.0047270046,-0.17982946,1.0151415,-9.356541,1.4317327
6.2255173,4.868112,0.00988902,-0.0047270046,-0.17982946,1.0151415,-9.356541,1.4317327
6.225193,4.8681016,0.0045626974,0.011251962,-0.19048211,0.93852705,-9.3421755,1.4173675
6.2248683,4.8680916,0.0045626974,0.011251962,-0.19048211,0.93852705,-9.3421755,1.4173675
6.22454,4.868061,-0.0018288894,0.0251004,-0.20113476,0.8714894,-9.279925,1.3790601
6.224213,4.868031,-0.0018288894,0.0251004,-0.20113476,0.8714894,-9.279925,1.3790601
6.2238784,4.8679867,-0.010351005,0.035753045,-0.21285266,0.78050977,-9.275137,1.388637
6.223544,4.8679423,-0.010351005,0.035753045,-0.21285266,0.78050977,-9.275137,1.388637
6.2231917,4.867911,-0.019938385,0.046405688,-0.22457057,0.7613561,-9.284714,1.4317327
6.222839,4.867879,-0.019938385,0.046405688,-0.22457057,0.7613561,-9.284714,1.4317327
6.2224765,4.8678355,-0.029525764,0.054927804,-0.23628849,0.7038953,-9.289502,1.436521
6.2221146,4.8677917,-0.029525764,0.054927804,-0.23628849,0.7038953,-9.289502,1.436521
6.221748,4.867725,-0.04017841,0.060254127,-0.24694112,0.6464345,-9.255983,1.4317327
6.2213817,4.8676577,-0.04017841,0.060254127,-0.24694112,0.6464345,-9.255983,1.4317327
6.2210536,4.8675356,-0.049765788,0.06558045,-0.25546324,0.6655881,-9.284714,1.3742718
6.2207274,4.8674126,-0.049765788,0.06558045,-0.25546324,0.6655881,-9.284714,1.3742718
6.220353,4.8673115,-0.058287904,0.06877624,-0.26505062,0.6703765,-9.284714,1.4173675
6.2199564,4.8672047,-0.058287904,0.06877624,-0.26505062,0.6703765,-9.284714,1.4173675
6.2196107,4.8670826,-0.06894055,0.071972035,-0.27570325,0.6751649,-9.294291,1.3982137
6.2192516,4.8669543,-0.06894055,0.071972035,-0.27570325,0.6751649,-9.294291,1.3982137
6.218897,4.866802,-0.0795932,0.073037304,-0.28742117,0.7374141,-9.260772,1.3072342
6.2185416,4.8666496,-0.0795932,0.073037304,-0.28742117,0.7374141,-9.260772,1.3072342
6.2181563,4.866496,-0.091311105,0.071972035,-0.29913908,0.79008657,-9.284714,1.316811
6.2181563,4.866496,-0.091311105,0.071972035,-0.29913908,0.79008657,-9.284714,1.316811
6.2173767,4.866185,-0.104094274,0.07090677,-0.31511804,0.81881696,-9.313444,1.2306197
6.217002,4.8660083,-0.104094274,0.07090677,-0.31511804,0.81881696,-9.313444,1.2306197
6.2165127,4.8657985,-0.11581218,0.06771098,-0.33535808,0.842759,-9.375694,1.292869
6.216163,4.8656483,-0.11581218,0.06771098,-0.33535808,0.842759,-9.375694,1.292869
6.215567,4.8653984,-0.12966062,0.06344992,-0.35666338,0.90500826,-9.428367,1.2880806
6.215219,4.865252,-0.12966062,0.06344992,-0.35666338,0.90500826,-9.428367,1.2880806
6.2148366,4.865039,-0.14350906,0.0581236,-0.37690338,0.7422025,-9.337387,1.2401965
6.2144027,4.864796,-0.14350906,0.0581236,-0.37690338,0.7422025,-9.337387,1.2401965
6.213946,4.864624,-0.1541617,0.04853622,-0.39607814,0.8810662,-9.41879,1.364695
6.213946,4.864624,-0.1541617,0.04853622,-0.39607814,0.8810662,-9.41879,1.364695
6.212781,4.8641853,-0.1541617,0.04853622,-0.39607814,0.8810662,-9.41879,1.364695
6.212402,4.864051,-0.16374908,0.03681831,-0.4120571,1.1731589,-9.533711,1.3359646
6.211856,4.863839,-0.17014067,0.02723093,-0.4333624,1.2162545,-9.648633,1.2641385
6.2113056,4.8636255,-0.17014067,0.02723093,-0.4333624,1.2162545,-9.648633,1.2641385
6.2107425,4.8633995,-0.17440173,0.021904606,-0.45892876,1.2497733,-9.710882,1.1971009
6.2101784,4.863173,-0.17440173,0.021904606,-0.45892876,1.2497733,-9.710882,1.1971009
6.2095804,4.862953,-0.17866279,0.017643549,-0.4844951,1.2785037,-9.710882,1.2545617
6.2089815,4.8627334,-0.17866279,0.017643549,-0.4844951,1.2785037,-9.710882,1.2545617
6.2083573,4.862513,-0.18079332,0.012317227,-0.5068657,1.340753,-9.725247,1.2449849
6.207733,4.8622923,-0.18079332,0.012317227,-0.5068657,1.340753,-9.725247,1.2449849
6.207079,4.8620863,-0.18185858,0.010186698,-0.5271057,1.436521,-9.662998,1.2976574
6.2064257,4.861881,-0.18185858,0.010186698,-0.5271057,1.436521,-9.662998,1.2976574
6.2057424,4.8616934,-0.18185858,0.010186698,-0.5516068,1.4891934,-9.56723,1.3742718
6.20506,4.861507,-0.18185858,0.010186698,-0.5516068,1.4891934,-9.56723,1.3742718
6.2043524,4.8613176,-0.17972806,0.01551302,-0.5771731,1.5897499,-9.509769,1.3215994
6.2036457,4.861128,-0.17972806,0.01551302,-0.5771731,1.5897499,-9.509769,1.3215994
6.202907,4.8609586,-0.175467,0.024035135,-0.60913104,1.6711528,-9.437943,1.3934253
6.202169,4.86079,-0.175467,0.024035135,-0.60913104,1.6711528,-9.437943,1.3934253
6.201395,4.860628,-0.17120594,0.03681831,-0.64535004,1.7956513,-9.3421755,1.388637
6.2006226,4.860467,-0.17120594,0.03681831,-0.64535004,1.7956513,-9.3421755,1.388637
6.1998134,4.860315,-0.16694488,0.052797277,-0.6847648,2.087744,-9.255983,1.4030021
6.199004,4.860163,-0.16694488,0.052797277,-0.6847648,2.087744,-9.255983,1.4030021
6.1981525,4.8600135,-0.16268381,0.07516783,-0.73163646,2.207454,-9.131485,1.3311762
6.1973,4.8598638,-0.16268381,0.07516783,-0.73163646,2.207454,-9.131485,1.3311762
6.196391,4.859717,-0.1573575,0.10712577,-0.79235655,2.1499932,-9.078813,1.2641385
6.195484,4.8595705,-0.1573575,0.10712577,-0.79235655,2.1499932,-9.078813,1.2641385
6.194513,4.8594236,-0.15629223,0.14121422,-0.862664,1.8483237,-9.016563,1.2306197
6.193541,4.859277,-0.15629223,0.14121422,-0.862664,1.8483237,-9.016563,1.2306197
6.1925015,4.859158,-0.15842277,0.17317216,-0.935102,1.541866,-8.935161,1.3838485
6.191464,4.8590403,-0.15842277,0.17317216,-0.935102,1.541866,-8.935161,1.3838485
6.19036,4.858919,-0.16694488,0.19767325,-1.0054094,1.388637,-8.8777,1.3694834
6.1892557,4.858799,-0.16694488,0.19767325,-1.0054094,1.388637,-8.8777,1.3694834
6.1880894,4.858679,-0.17972806,0.21365221,-1.0735863,1.3982137,-8.90643,1.412579
6.186922,4.858559,-0.17972806,0.21365221,-1.0735863,1.3982137,-8.90643,1.412579
6.1856914,4.8584313,-0.19464175,0.22430485,-1.1417632,1.3790601,-8.920795,1.4221559
6.184462,4.858304,-0.19464175,0.22430485,-1.1417632,1.3790601,-8.920795,1.4221559
6.1831646,4.85816,-0.21381652,0.23389223,-1.2110054,1.5562311,-8.892065,1.4508862
6.181867,4.858017,-0.21381652,0.23389223,-1.2110054,1.5562311,-8.892065,1.4508862
6.180493,4.85784,-0.23405655,0.24134909,-1.2845087,1.7621324,-8.8777,1.3838485
6.1791186,4.8576636,-0.23405655,0.24134909,-1.2845087,1.7621324,-8.8777,1.3838485
6.177665,4.857445,-0.2564271,0.25200173,-1.3644035,2.1068976,-8.853758,1.2162545
6.176212,4.857227,-0.2564271,0.25200173,-1.3644035,2.1068976,-8.853758,1.2162545
6.174666,4.8569746,-0.28518924,0.26691544,-1.4613426,2.4516625,-8.748413,1.0773908
6.1731195,4.8567233,-0.28518924,0.26691544,-1.4613426,2.4516625,-8.748413,1.0773908
6.1714616,4.8564453,-0.3192777,0.28502494,-1.5763912,2.566584,-8.614338,1.0726024
6.1698036,4.856168,-0.3192777,0.28502494,-1.5763912,2.566584,-8.614338,1.0726024
6.1680093,4.855863,-0.36295354,0.30526495,-1.7084839,2.7246015,-8.470686,1.1875241
6.1662273,4.8555617,-0.36295354,0.30526495,-1.7084839,2.7246015,-8.470686,1.1875241
6.164301,4.8552184,-0.4151515,0.3244397,-1.8544252,2.9352913,-8.317456,1.2258313
6.1623716,4.854876,-0.4151515,0.3244397,-1.8544252,2.9352913,-8.317456,1.2258313
6.160287,4.8544865,-0.47374105,0.34041867,-2.01528,3.016694,-8.202535,1.2976574
6.1582017,4.8540993,-0.47374105,0.34041867,-2.01528,3.016694,-8.202535,1.2976574
6.155944,4.8536425,-0.541918,0.35426712,-2.1899836,3.1364043,-8.1881695,1.1971009
6.1536865,4.853188,-0.541918,0.35426712,-2.1899836,3.1364043,-8.1881695,1.1971009
6.151249,4.852653,-0.61755174,0.36172396,-2.3742743,3.2848446,-8.1642275,1.0199299
6.1488037,4.852118,-0.61755174,0.36172396,-2.3742743,3.2848446,-8.1642275,1.0199299
6.1461725,4.8515005,-0.69851184,0.36491975,-2.5681524,3.5338416,-8.231265,0.8619126
6.1435404,4.850885,-0.69851184,0.36491975,-2.5681524,3.5338416,-8.231265,0.8619126
6.140707,4.8501816,-0.783733,0.36491975,-2.775879,3.7062242,-8.307879,0.6799533
6.13787,4.849479,-0.783733,0.36491975,-2.775879,3.7062242,-8.307879,0.6799533
6.134817,4.8486915,-0.8689542,0.35959345,-2.9910624,3.964798,-8.403648,0.5410896
6.131767,4.8479066,-0.8689542,0.35959345,-2.9910624,3.964798,-8.403648,0.5410896
6.128495,4.847039,-0.9520448,0.35213658,-3.2137027,4.232949,-8.470686,0.38307226
6.125227,4.846175,-0.9520448,0.35213658,-3.2137027,4.232949,-8.470686,0.38307226
6.1217203,4.8452377,-1.0266134,0.3393534,-3.449126,4.453215,-8.537724,0.25378537
6.118213,4.844302,-1.0266134,0.3393534,-3.449126,4.453215,-8.537724,0.25378537
6.114461,4.8433056,-1.0905292,0.3223092,-3.6941369,4.5777135,-8.504205,0.15801731
6.110678,4.8423038,-1.0905292,0.3223092,-3.6941369,4.5777135,-8.504205,0.15801731
6.106648,4.8412495,-1.1459229,0.30206916,-3.9434087,4.5777135,-8.494628,0.10055647
6.102645,4.840205,-1.1459229,0.30206916,-3.9434087,4.5777135,-8.494628,0.10055647
6.09843,4.8391247,-1.1938598,0.27224174,-4.1958766,4.745308,-8.389283,-0.033518825
6.0941806,4.8380375,-1.1938598,0.27224174,-4.1958766,4.745308,-8.389283,-0.033518825
6.0896654,4.8368993,-1.2417967,0.2349575,-4.45154,4.841076,-8.384495,-0.16280572
6.0851493,4.835763,-1.2417967,0.2349575,-4.45154,4.841076,-8.384495,-0.16280572
6.0803714,4.8345757,-1.2929294,0.19128166,-4.709334,4.9176903,-8.312668,-0.22505496
6.075593,4.83339,-1.2929294,0.19128166,-4.709334,4.9176903,-8.312668,-0.22505496
6.070549,4.8321495,-1.3493885,0.14014897,-4.968193,4.9176903,-8.231265,-0.15801731
6.065504,4.8309107,-1.3493885,0.14014897,-4.968193,4.9176903,-8.231265,-0.15801731
6.0602016,4.829606,-1.4101084,0.08155942,-5.2206607,5.133168,-8.207323,-0.2825158
6.0548987,4.8283033,-1.4101084,0.08155942,-5.2206607,5.133168,-8.207323,-0.2825158
6.049342,4.8269296,-1.4772202,0.016578285,-5.4656715,5.2720323,-8.1642275,-0.25857377
6.043796,4.8255606,-1.4772202,0.016578285,-5.4656715,5.2720323,-8.1642275,-0.25857377
6.037974,4.824107,-1.5464623,-0.04946811,-5.7064214,5.511452,-8.192958,-0.33039984
6.0319653,4.822609,-1.5464623,-0.04946811,-5.7064214,5.511452,-8.192958,-0.33039984
6.025799,4.8210535,-1.6167698,-0.11551451,-5.938649,5.645528,-8.303091,-0.29688102
6.020067,4.8196077,-1.6167698,-0.11551451,-5.938649,5.645528,-8.303091,-0.29688102
6.013818,4.818013,-1.6828161,-0.17943038,-6.161289,5.707777,-8.379706,-0.320823
6.0075555,4.816415,-1.6828161,-0.17943038,-6.161289,5.707777,-8.379706,-0.320823
6.001051,4.8147383,-1.7414057,-0.24228097,-6.373277,5.693412,-8.441956,-0.35913026
5.994559,4.813064,-1.7414057,-0.24228097,-6.373277,5.693412,-8.441956,-0.35913026
5.987862,4.811325,-1.7914732,-0.30087054,-6.574612,5.6886234,-8.5473,-0.40701428
5.9811716,4.8095865,-1.7914732,-0.30087054,-6.574612,5.6886234,-8.5473,-0.40701428
5.974278,4.807781,-1.8330185,-0.35626426,-6.76636,5.5401826,-8.599973,-0.59855044
5.9673915,4.8059754,-1.8330185,-0.35626426,-6.76636,5.5401826,-8.599973,-0.59855044
5.960326,4.8041167,-1.8692374,-0.41165802,-6.942128,5.377377,-8.623915,-0.5410896
5.9532614,4.8022547,-1.8692374,-0.41165802,-6.942128,5.377377,-8.623915,-0.5410896
5.946043,4.8003354,-1.9022607,-0.46705177,-7.099787,5.12838,-8.7292595,-0.58418524
5.938825,4.7984114,-1.9022607,-0.46705177,-7.099787,5.12838,-8.7292595,-0.58418524
5.931466,4.796437,-1.9310228,-0.5235108,-7.239337,5.0182467,-8.825027,-0.50757074
5.9241157,4.7944584,-1.9310228,-0.5235108,-7.239337,5.0182467,-8.825027,-0.50757074
5.916634,4.7924194,-1.959785,-0.5831656,-7.357581,4.8841715,-8.892065,-0.48841715
5.9091544,4.790373,-1.959785,-0.5831656,-7.357581,4.8841715,-8.892065,-0.48841715
5.901602,4.788274,-1.9864166,-0.6438857,-7.4587817,4.793192,-9.02614,-0.50757074
5.894029,4.7861595,-1.9864166,-0.6438857,-7.4587817,4.793192,-9.02614,-0.50757074
5.886391,4.783983,-2.0130482,-0.705671,-7.5440025,4.6160207,-9.131485,-0.5315128
5.878758,4.7817965,-2.0130482,-0.705671,-7.5440025,4.6160207,-9.131485,-0.5315128
5.871066,4.7795453,-2.040745,-0.7642606,-7.6143103,4.486734,-9.203311,-0.5267244
5.86338,4.7772827,-2.040745,-0.7642606,-7.6143103,4.486734,-9.203311,-0.5267244
5.8556466,4.7749553,-2.0695071,-0.8207196,-7.670769,4.453215,-9.346964,-0.44532153
5.8479214,4.7726154,-2.0695071,-0.8207196,-7.670769,4.453215,-9.346964,-0.44532153
5.84019,4.7702093,-2.0982692,-0.87504804,-7.7123146,4.209007,-9.524135,-0.4165911
5.832468,4.767791,-2.0982692,-0.87504804,-7.7123146,4.209007,-9.524135,-0.4165911
5.824752,4.7653174,-2.1227703,-0.92724603,-7.738946,3.9360676,-9.610326,-0.4165911
5.8170447,4.7628317,-2.1227703,-0.92724603,-7.738946,3.9360676,-9.610326,-0.4165911
5.8093476,4.760297,-2.1408799,-0.98157454,-7.7485332,3.8402996,-9.749189,-0.33997664
5.8016586,4.7577496,-2.1408799,-0.98157454,-7.7485332,3.8402996,-9.749189,-0.33997664
5.7939863,4.7551546,-2.152598,-1.0369682,-7.743207,3.8307228,-9.916783,-0.2873042
5.78632,4.7525454,-2.152598,-1.0369682,-7.743207,3.8307228,-9.916783,-0.2873042
5.7786994,4.749895,-2.1557937,-1.0944926,-7.718706,3.9073372,-10.0029745,-0.23942018
5.7710533,4.747219,-2.1557937,-1.0944926,-7.718706,3.9073372,-10.0029745,-0.23942018
5.763468,4.744504,-2.148337,-1.1509515,-7.67503,4.074931,-10.13705,-0.24420857
5.7558875,4.7417727,-2.148337,-1.1509515,-7.67503,4.074931,-10.13705,-0.24420857
5.748367,4.739008,-2.1312926,-1.2031496,-7.6185713,4.261679,-10.127473,-0.19153613
5.7408514,4.7362266,-2.1312926,-1.2031496,-7.6185713,4.261679,-10.127473,-0.19153613
5.7334046,4.73342,-2.104661,-1.2478906,-7.5514593,4.55856,-10.103531,-0.15801731
5.7259636,4.730594,-2.104661,-1.2478906,-7.5514593,4.55856,-10.103531,-0.15801731
5.7185926,4.7277536,-2.0716376,-1.2841096,-7.4832826,4.8027687,-10.0269165,-0.1388637
5.7112274,4.724893,-2.0716376,-1.2841096,-7.4832826,4.8027687,-10.0269165,-0.1388637
5.7039385,4.722039,-2.0332882,-1.3086107,-7.4129753,5.032612,-9.883265,-0.047884032
5.696654,4.7191634,-2.0332882,-1.3086107,-7.4129753,5.032612,-9.883265,-0.047884032
5.6894407,4.716299,-1.9906776,-1.3245896,-7.3458633,5.2863975,-9.883265,-0.01436521
5.6822314,4.713412,-1.9906776,-1.3245896,-7.3458633,5.2863975,-9.883265,-0.01436521
5.675085,4.7105207,-1.9501976,-1.3331118,-7.2862086,5.2863975,-9.849746,-0.11971009
5.667943,4.7076054,-1.9501976,-1.3331118,-7.2862086,5.2863975,-9.849746,-0.11971009
5.6608663,4.7046895,-1.9139786,-1.3416339,-7.2244234,5.463568,-9.998186,-0.15801731
5.6537943,4.7017484,-1.9139786,-1.3416339,-7.2244234,5.463568,-9.998186,-0.15801731
5.6467915,4.6988134,-1.8798901,-1.3490907,-7.159442,5.645528,-10.089166,-0.11971009
5.639793,4.695852,-1.8798901,-1.3490907,-7.159442,5.645528,-10.089166,-0.11971009
5.605164,4.6807365,-1.7701678,-1.3959624,-6.9389324,6.1004257,-10.414778,-0.05267244
5.605164,4.6807365,-1.7701678,-1.3959624,-6.9389324,6.1004257,-10.414778,-0.05267244
5.605164,4.6807365,-1.7701678,-1.3959624,-6.9389324,6.1004257,-10.414778,-0.05267244
5.605164,4.6807365,-1.7701678,-1.3959624,-6.9389324,6.1004257,-10.414778,-0.05267244
5.605164,4.6807365,-1.7701678,-1.3959624,-6.9389324,6.1004257,-10.414778,-0.05267244
5.605164,4.6807365,-1.7701678,-1.3959624,-6.9389324,6.1004257,-10.414778,-0.05267244
5.5915866,4.674551,-1.7254268,-1.4183329,-6.8505154,6.3685765,-10.515334,0.10534488
5.584832,4.6714225,-1.7254268,-1.4183329,-6.8505154,6.3685765,-10.515334,0.10534488
5.5784593,4.668427,-1.6732289,-1.4407035,-6.7503805,6.3829417,-10.534488,0.1340753
5.5784593,4.668427,-1.6732289,-1.4407035,-6.7503805,6.3829417,-10.534488,0.1340753
5.5653934,4.662169,-1.6146393,-1.4620088,-6.642789,6.4978633,-10.366894,0.06703765
5.559238,4.6591563,-1.6146393,-1.4620088,-6.642789,6.4978633,-10.366894,0.06703765
5.5529532,4.656028,-1.5507234,-1.479053,-6.5245447,6.5457473,-10.333375,-0.05746084
5.546667,4.6528583,-1.5507234,-1.479053,-6.5245447,6.5457473,-10.333375,-0.05746084
5.538183,4.6485205,-1.4825464,-1.4875752,-6.392452,6.670246,-10.16578,-0.05746084
5.5343485,4.646534,-1.4825464,-1.4875752,-6.392452,6.670246,-10.16578,-0.05746084
5.528342,4.6434035,-1.4143696,-1.4822488,-6.251837,6.9048777,-10.060435,-0.06703765
5.522329,4.6402273,-1.4143696,-1.4822488,-6.251837,6.9048777,-10.060435,-0.06703765
5.516473,4.6371174,-1.3472579,-1.4652046,-6.108026,7.1395097,-9.864111,-0.095768064
5.5106173,4.6339655,-1.3472579,-1.4652046,-6.108026,7.1395097,-9.864111,-0.095768064
5.504927,4.6308885,-1.2812115,-1.4375077,-5.96315,7.240066,-9.706094,-0.15322891
5.499214,4.6277566,-1.2812115,-1.4375077,-5.96315,7.240066,-9.706094,-0.15322891
5.4936786,4.6247187,-1.2162304,-1.3959624,-5.8161435,7.1586633,-9.610326,-0.17238252
5.4881268,4.6216307,-1.2162304,-1.3959624,-5.8161435,7.1586633,-9.610326,-0.17238252
5.482726,4.6186395,-1.1533798,-1.3458949,-5.6680717,7.091625,-9.543288,-0.10534488
5.4773307,4.615611,-1.1533798,-1.3458949,-5.6680717,7.091625,-9.543288,-0.10534488
5.4720774,4.6126895,-1.093725,-1.2915665,-5.516804,7.0820484,-9.605537,0.12449849
5.46683,4.609731,-1.093725,-1.2915665,-5.516804,7.0820484,-9.605537,0.12449849
5.4617443,4.6068716,-1.0308744,-1.2340422,-5.3570147,6.8665705,-9.557653,0.06703765
5.456664,4.603977,-1.0308744,-1.2340422,-5.3570147,6.8665705,-9.557653,0.06703765
5.4517546,4.6011977,-0.9637627,-1.1754526,-5.183377,6.4260373,-9.634268,0.20590134
5.44685,4.598384,-0.9637627,-1.1754526,-5.183377,6.4260373,-9.634268,0.20590134
5.4421296,4.595696,-0.8945205,-1.1168631,-4.9937596,5.9663506,-9.734824,0.40701428
5.4374137,4.5929756,-0.8945205,-1.1168631,-4.9937596,5.9663506,-9.734824,0.40701428
5.432903,4.5903964,-0.81782144,-1.0604041,-4.780707,5.616797,-9.758766,0.641646
5.4283967,4.587787,-0.81782144,-1.0604041,-4.780707,5.616797,-9.758766,0.641646
5.4241214,4.5853224,-0.73260033,-1.0082061,-4.547414,5.2145715,-9.634268,0.61291564
5.4198503,4.5828295,-0.73260033,-1.0082061,-4.547414,5.2145715,-9.634268,0.61291564
5.4158335,4.580493,-0.6367265,-0.95920396,-4.2928157,4.927267,-9.409213,0.39743748
5.411821,4.578131,-0.6367265,-0.95920396,-4.2928157,4.927267,-9.409213,0.39743748
5.4080744,4.575949,-0.5333958,-0.90913653,-4.021173,4.7884035,-9.212888,0.34955344
5.404331,4.5737443,-0.5333958,-0.90913653,-4.021173,4.7884035,-9.212888,0.34955344
5.4008694,4.571725,-0.42899993,-0.85800385,-3.7367475,4.7070007,-9.011775,0.14844051
5.3974104,4.569684,-0.42899993,-0.85800385,-3.7367475,4.7070007,-9.011775,0.14844051
5.39424,4.5678535,-0.32034296,-0.80367535,-3.4395387,4.8698063,-8.724471,0.11492168
5.3908944,4.5659018,-0.32034296,-0.80367535,-3.4395387,4.8698063,-8.724471,0.11492168
5.388145,4.5643463,-0.20955546,-0.74189,-3.1370037,5.2049947,-8.341399,-0.076614454
5.385231,4.5626826,-0.20955546,-0.74189,-3.1370037,5.2049947,-8.341399,-0.076614454
5.382701,4.5613174,-0.10089848,-0.67051727,-2.8376644,5.674258,-7.848193,-0.18195933
5.3801203,4.5599127,-0.10089848,-0.67051727,-2.8376644,5.674258,-7.848193,-0.18195933
5.3778133,4.558775,0.0024321685,-0.5884919,-2.546847,6.172252,-7.216124,-0.22984336
5.375498,4.557623,0.0024321685,-0.5884919,-2.546847,6.172252,-7.216124,-0.22984336
5.3734436,4.556737,0.09404491,-0.4968792,-2.2698784,6.50744,-6.6079965,-0.36870706
5.3713903,4.5558443,0.09404491,-0.4968792,-2.2698784,6.50744,-6.6079965,-0.36870706
5.369564,4.5552287,0.17287448,-0.3978096,-2.0088885,6.694188,-5.9998693,-0.4213795
5.3677354,4.5546055,0.17287448,-0.3978096,-2.0088885,6.694188,-5.9998693,-0.4213795
5.3661027,4.5542574,0.23892088,-0.29447892,-1.7596166,6.8091097,-5.6790466,-0.34476504
5.3644686,4.5539036,0.23892088,-0.29447892,-1.7596166,6.8091097,-5.6790466,-0.34476504
5.362959,4.5537925,0.2921841,-0.18688722,-1.5231279,7.1634517,-5.2863975,-0.44532153
5.361455,4.5536804,0.2921841,-0.18688722,-1.5231279,7.1634517,-5.2863975,-0.44532153
5.360078,4.553727,0.3369252,-0.079295516,-1.2951614,7.2831616,-4.984728,-0.61291564
5.3586993,4.553776,0.3369252,-0.079295516,-1.2951614,7.2831616,-4.984728,-0.61291564
5.3574886,4.553937,0.36888313,0.029361458,-1.0810432,7.5465236,-4.7261543,-0.81881696
5.356277,4.554096,0.36888313,0.029361458,-1.0810432,7.5465236,-4.7261543,-0.81881696
5.3552523,4.554411,0.39338422,0.13482264,-0.882904,7.752425,-4.486734,-1.0390835
5.354227,4.5547237,0.39338422,0.13482264,-0.882904,7.752425,-4.486734,-1.0390835
5.3533697,4.555229,0.41362426,0.23602276,-0.6964827,7.953538,-4.3287168,-1.1013328
5.3525143,4.555733,0.41362426,0.23602276,-0.6964827,7.953538,-4.3287168,-1.1013328
5.351817,4.556406,0.42534214,0.33402708,-0.5249751,8.173804,-4.1706996,-1.2306197
5.3511167,4.557081,0.42534214,0.33402708,-0.5249751,8.173804,-4.1706996,-1.2306197
5.3505645,4.557905,0.432799,0.42883563,-0.36838126,8.283937,-3.9791632,-1.436521
5.350013,4.5587306,0.432799,0.42883563,-0.36838126,8.283937,-3.9791632,-1.436521
5.349587,4.559706,0.43386427,0.5204484,-0.22776636,8.394072,-3.7828386,-1.532289
5.3491616,4.5606833,0.43386427,0.5204484,-0.22776636,8.394072,-3.7828386,-1.532289
5.3488474,4.561802,0.42640743,0.6109958,-0.10099989,8.576031,-3.620033,-1.5897499
5.3485336,4.562921,0.42640743,0.6109958,-0.10099989,8.576031,-3.620033,-1.5897499
5.3483267,4.5641627,0.41362426,0.6994128,0.01724446,8.801085,-3.3758245,-1.7812861
5.3481207,4.56541,0.41362426,0.6994128,0.01724446,8.801085,-3.3758245,-1.7812861
5.348007,4.5667763,0.39338422,0.78996027,0.12377091,8.935161,-3.0789435,-1.9057846
5.347895,4.568143,0.39338422,0.78996027,0.12377091,8.935161,-3.0789435,-1.9057846
5.3478613,4.5696235,0.36568734,0.8826383,0.21538365,9.02614,-2.8107927,-2.006341
5.347829,4.5711036,0.36568734,0.8826383,0.21538365,9.02614,-2.8107927,-2.006341
5.347858,4.572687,0.32946837,0.9731858,0.2910174,9.14585,-2.695871,-1.9871874
5.347889,4.574271,0.32946837,0.9731858,0.2910174,9.14585,-2.695871,-1.9871874
5.3479586,4.575947,0.2857925,1.0616027,0.3453459,9.313444,-2.5953147,-1.8483237
5.348031,4.577628,0.2857925,1.0616027,0.3453459,9.313444,-2.5953147,-1.8483237
5.3481255,4.579384,0.23785561,1.1468239,0.37943438,9.380483,-2.4995465,-1.7812861
5.348222,4.581138,0.23785561,1.1468239,0.37943438,9.380483,-2.4995465,-1.7812861
5.3483253,4.5829597,0.18246186,1.2288493,0.39754388,9.332599,-2.4372973,-1.6041151
5.3484306,4.5847793,0.18246186,1.2288493,0.39754388,9.332599,-2.4372973,-1.6041151
5.3485265,4.586641,0.12174179,1.3034178,0.39541334,9.121908,-2.4660277,-1.5035586
5.3486247,4.5885005,0.12174179,1.3034178,0.39541334,9.121908,-2.4660277,-1.5035586
5.348698,4.590381,0.054630127,1.3715947,0.37730384,8.801085,-2.5713725,-1.3599066
5.348775,4.592268,0.054630127,1.3715947,0.37730384,8.801085,-2.5713725,-1.3599066
5.348816,4.5941496,-0.017807856,1.4259231,0.34641117,8.384495,-2.7341783,-1.2018893
5.3488603,4.596032,-0.017807856,1.4259231,0.34641117,8.384495,-2.7341783,-1.2018893
5.3488684,4.597872,-0.089180574,1.4632074,0.3091269,8.054094,-3.0023289,-1.2306197
5.3488803,4.5997148,-0.089180574,1.4632074,0.3091269,8.054094,-3.0023289,-1.2306197
5.348852,4.6014876,-0.15948802,1.4813169,0.26438582,7.8529816,-3.2561142,-1.2449849
5.3488264,4.6032686,-0.15948802,1.4813169,0.26438582,7.8529816,-3.2561142,-1.2449849
5.348757,4.604966,-0.2265997,1.4823822,0.21325313,7.714118,-3.5003228,-1.2306197
5.3486905,4.606661,-0.2265997,1.4823822,0.21325313,7.714118,-3.5003228,-1.2306197
5.3485723,4.608267,-0.28838503,1.469599,0.1567941,7.5561004,-3.7301662,-1.1204864
5.3484564,4.609881,-0.28838503,1.469599,0.1567941,7.5561004,-3.7301662,-1.1204864
5.348279,4.611402,-0.3459093,1.4450979,0.09500877,7.4986396,-3.9552212,-0.91937345
5.348103,4.6129303,-0.3459093,1.4450979,0.09500877,7.4986396,-3.9552212,-0.91937345
5.3478694,4.6143517,-0.397042,1.4131399,0.030027634,7.417237,-4.2042184,-0.8475474
5.347638,4.615773,-0.397042,1.4131399,0.030027634,7.417237,-4.2042184,-0.8475474
5.347344,4.617091,-0.44391364,1.3758557,-0.039214555,7.2687964,-4.3478703,-0.7613561
5.347052,4.618409,-0.44391364,1.3758557,-0.039214555,7.2687964,-4.3478703,-0.7613561
5.3466806,4.619633,-0.48972002,1.3311146,-0.11697886,7.3310456,-4.534618,-0.6368576
5.3463097,4.6208634,-0.48972002,1.3311146,-0.11697886,7.3310456,-4.534618,-0.6368576
5.345856,4.6220174,-0.53446114,1.2863735,-0.19900422,7.455544,-4.6686935,-0.50757074
5.3454046,4.623173,-0.53446114,1.2863735,-0.19900422,7.455544,-4.6686935,-0.50757074
5.3448777,4.624288,-0.5802675,1.2426977,-0.2863559,7.575254,-4.759673,-0.30166942
5.344351,4.6254067,-0.5802675,1.2426977,-0.2863559,7.575254,-4.759673,-0.30166942
5.3437405,4.626444,-0.6303349,1.2011523,-0.38968655,7.608773,-4.9081135,-0.22026655
5.343131,4.6274834,-0.6303349,1.2011523,-0.38968655,7.608773,-4.9081135,-0.22026655
5.3424706,4.6284714,-0.6846634,1.1606723,-0.5068657,7.3885064,-5.070919,-0.019153614
5.34181,4.6294646,-0.6846634,1.1606723,-0.5068657,7.3885064,-5.070919,-0.019153614
5.341111,4.630347,-0.7389919,1.1169965,-0.63256687,7.0820484,-5.33907,0.11492168
5.340411,4.6312356,-0.7389919,1.1169965,-0.63256687,7.0820484,-5.33907,0.11492168
5.339628,4.631969,-0.7954509,1.0647985,-0.76039857,6.8665705,-5.659893,0.272939
5.338848,4.632705,-0.7954509,1.0647985,-0.76039857,6.8665705,-5.659893,0.272939
5.3379683,4.6332707,-0.84764886,1.0008826,-0.8892956,6.6367273,-5.9998693,0.3878607
5.337085,4.6338434,-0.84764886,1.0008826,-0.8892956,6.6367273,-5.9998693,0.3878607
5.3360972,4.6342416,-0.89345527,0.92524886,-1.0139315,6.4643445,-6.4164605,0.56982
5.3351026,4.6346455,-0.89345527,0.92524886,-1.0139315,6.4643445,-6.4164605,0.56982
5.3340096,4.634879,-0.9254132,0.84215826,-1.1321759,6.2249246,-6.861782,0.6895301
5.3329163,4.6351156,-0.9254132,0.84215826,-1.1321759,6.2249246,-6.861782,0.6895301
5.3317246,4.635187,-0.94671845,0.74948025,-1.2418982,5.985504,-7.2209125,0.8379706
5.3305287,4.6352615,-0.94671845,0.74948025,-1.2418982,5.985504,-7.2209125,0.8379706
5.329249,4.635168,-0.95630586,0.64721483,-1.3409678,5.8226986,-7.493851,0.8810662
5.327966,4.6350765,-0.95630586,0.64721483,-1.3409678,5.8226986,-7.493851,0.8810662
5.326605,4.6348248,-0.95311004,0.53536206,-1.43045,5.7029886,-7.800309,1.0965444
5.3252373,4.6345725,-0.95311004,0.53536206,-1.43045,5.7029886,-7.800309,1.0965444
5.323806,4.6341553,-0.9392616,0.4171177,-1.5092795,5.6215854,-8.020576,1.091756
5.322374,4.6337385,-0.9392616,0.4171177,-1.5092795,5.6215854,-8.020576,1.091756
5.320888,4.6331615,-0.9158258,0.29461232,-1.5753258,5.592855,-8.221688,1.1300632
5.319399,4.632583,-0.9158258,0.29461232,-1.5753258,5.592855,-8.221688,1.1300632
5.317872,4.631855,-0.8849331,0.17210689,-1.6296544,5.6407394,-8.312668,1.1204864
5.316336,4.6311207,-0.8849331,0.17210689,-1.6296544,5.6407394,-8.312668,1.1204864
5.314774,4.6302414,-0.84977937,0.049601484,-1.6711997,5.6551046,-8.379706,1.1683705
5.313209,4.629359,-0.84977937,0.049601484,-1.6711997,5.6551046,-8.379706,1.1683705
5.3116293,4.628337,-0.8103646,-0.0707734,-1.7031577,5.7604494,-8.456321,1.13964
5.3100395,4.627305,-0.8103646,-0.0707734,-1.7031577,5.7604494,-8.456321,1.13964
5.308418,4.626133,-0.767754,-0.18582197,-1.7255282,5.8562174,-8.451532,1.2545617
5.3068023,4.6249614,-0.767754,-0.18582197,-1.7255282,5.8562174,-8.451532,1.2545617
5.3052206,4.6236987,-0.72194767,-0.29447892,-1.7372462,5.8801594,-8.475474,1.3215994
5.3036356,4.6224284,-0.72194767,-0.29447892,-1.7372462,5.8801594,-8.475474,1.3215994
5.302041,4.6210313,-0.67188025,-0.3978096,-1.7351155,5.8562174,-8.499416,1.3263878
5.3004313,4.619614,-0.67188025,-0.3978096,-1.7351155,5.8562174,-8.499416,1.3263878
5.2986703,4.61794,-0.618617,-0.49474865,-1.7202018,5.9184666,-8.508993,1.460463
5.2986703,4.61794,-0.618617,-0.49474865,-1.7202018,5.9184666,-8.508993,1.460463
5.295201,4.614612,-0.618617,-0.49474865,-1.7202018,5.9184666,-8.508993,1.460463
5.2941356,4.613503,-0.562158,-0.58742666,-1.6914397,5.851429,-8.580819,1.5466543
5.2926393,4.61181,-0.5014379,-0.6758436,-1.6488291,5.7029886,-8.619126,1.4891934
5.291041,4.609992,-0.5014379,-0.6758436,-1.6488291,5.7029886,-8.619126,1.4891934
5.289803,4.6084566,-0.43752205,-0.76106477,-1.5934354,5.683835,-8.576031,1.3838485
5.2884445,4.6067643,-0.43752205,-0.76106477,-1.5934354,5.683835,-8.576031,1.3838485
5.287123,4.6049576,-0.37147567,-0.84202486,-1.5252584,5.7029886,-8.441956,1.1827357
5.2857995,4.603137,-0.37147567,-0.84202486,-1.5252584,5.7029886,-8.441956,1.1827357
5.284564,4.601267,-0.30329874,-0.9176586,-1.4464289,5.8083334,-8.293514,1.0151415
5.2833257,4.599382,-0.30329874,-0.9176586,-1.4464289,5.8083334,-8.293514,1.0151415
5.2822123,4.597493,-0.23618707,-0.9879661,-1.3558815,5.932832,-8.212111,0.80924016
5.2810755,4.5955544,-0.23618707,-0.9879661,-1.3558815,5.932832,-8.212111,0.80924016
5.2800694,4.593647,-0.17014067,-1.0508167,-1.2610729,6.066907,-8.039729,0.78529817
5.2790537,4.591711,-0.17014067,-1.0508167,-1.2610729,6.066907,-8.039729,0.78529817
5.2780366,4.589761,-0.17014067,-1.0508167,-1.2610729,6.066907,-8.039729,0.78529817
5.2771306,4.5878086,-0.10196375,-1.1051452,-1.1620033,6.1866174,-7.848193,0.641646
5.276225,4.5858474,-0.10196375,-1.1051452,-1.1620033,6.1866174,-7.848193,0.641646
5.275429,4.583894,-0.035917353,-1.1498863,-1.0576074,6.339846,-7.73806,0.60812724
5.2746396,4.581946,-0.035917353,-1.1498863,-1.0576074,6.339846,-7.73806,0.60812724
5.273965,4.580018,0.025867987,-1.1839747,-0.9468199,6.531382,-7.589619,0.50757074
5.2732925,4.578086,0.025867987,-1.1839747,-0.9468199,6.531382,-7.589619,0.50757074
5.272739,4.576198,0.08445753,-1.2084758,-0.83070606,6.7133417,-7.383718,0.46926352
5.272188,4.5743084,0.08445753,-1.2084758,-0.83070606,6.7133417,-7.383718,0.46926352
5.271758,4.5724707,0.13985129,-1.2223243,-0.71139646,6.885724,-7.240066,0.3878607
5.271332,4.5706367,0.13985129,-1.2223243,-0.71139646,6.885724,-7.240066,0.3878607
5.2710247,4.5688777,0.18885344,-1.2244548,-0.5878258,7.0820484,-7.120356,0.4165911
5.2707224,4.567128,0.18885344,-1.2244548,-0.5878258,7.0820484,-7.120356,0.4165911
5.2705374,4.56546,0.23465982,-1.216998,-0.4631898,7.326257,-7.0485296,0.4357447
5.2703524,4.5637746,0.23465982,-1.216998,-0.4631898,7.326257,-7.0485296,0.4357447
5.270295,4.5621996,0.27620512,-1.2020843,-0.3374886,7.4986396,-6.9767036,0.29688102
5.27024,4.560634,0.27620512,-1.2020843,-0.3374886,7.4986396,-6.9767036,0.29688102
5.2703023,4.559183,0.31668517,-1.1743873,-0.20965686,7.651869,-6.861782,0.320823
5.270366,4.5577173,0.31668517,-1.1743873,-0.20965686,7.651869,-6.861782,0.320823
5.2705574,4.556385,0.35396942,-1.1392337,-0.07969461,7.771579,-6.8761473,0.23463176
5.27075,4.555051,0.35396942,-1.1392337,-0.07969461,7.771579,-6.8761473,0.23463176
5.2710643,4.5538626,0.38912317,-1.1008841,0.052398186,7.8912888,-6.7708025,0.15322891
5.2713804,4.5526733,0.38912317,-1.1008841,0.052398186,7.8912888,-6.7708025,0.15322891
5.271822,4.551611,0.4210811,-1.0604041,0.18236046,8.001422,-6.813898,0.090979666
5.2722645,4.5505505,0.4210811,-1.0604041,0.18236046,8.001422,-6.813898,0.090979666
5.2728205,4.5496254,0.4509085,-1.0177935,0.3069964,8.231265,-6.7803793,0.04309563
5.2733765,4.548704,0.4509085,-1.0177935,0.3069964,8.231265,-6.7803793,0.04309563
5.274048,4.5479183,0.48180118,-0.97518295,0.4326976,8.408437,-6.8330517,0.05267244
5.27472,4.5471354,0.48180118,-0.97518295,0.4326976,8.408437,-6.8330517,0.05267244
5.275511,4.546487,0.5126938,-0.9304418,0.5573335,8.465898,-6.895301,-0.047884032
5.276303,4.54584,0.5126938,-0.9304418,0.5573335,8.465898,-6.895301,-0.047884032
5.277211,4.545323,0.54252124,-0.8857007,0.67770845,8.485051,-6.9288197,-0.11971009
5.278121,4.5448084,0.54252124,-0.8857007,0.67770845,8.485051,-6.9288197,-0.11971009
5.2791443,4.544425,0.57447916,-0.83989435,0.79701805,8.528147,-7.0341644,-0.22026655
5.2801695,4.5440445,0.57447916,-0.83989435,0.79701805,8.528147,-7.0341644,-0.22026655
5.2813063,4.5437994,0.6075024,-0.7930227,0.9152624,8.571242,-7.07726,-0.2777274
5.2824435,4.543558,0.6075024,-0.7930227,0.9152624,8.571242,-7.07726,-0.2777274
5.283693,4.5434523,0.6394603,-0.74721634,1.034572,8.690952,-7.053318,-0.33997664
5.284937,4.54335,0.6394603,-0.74721634,1.034572,8.690952,-7.053318,-0.33997664
5.286294,4.543388,0.674614,-0.70140994,1.1538817,8.868123,-7.0581064,-0.40222588
5.287648,4.543429,0.674614,-0.70140994,1.1538817,8.868123,-7.0581064,-0.40222588
5.289109,4.543616,0.70763725,-0.6534731,1.272126,9.059659,-7.0102224,-0.4213795
5.290561,4.543804,0.70763725,-0.6534731,1.272126,9.059659,-7.0102224,-0.4213795
5.2921247,4.5441327,0.7417257,-0.60340565,1.3871746,9.217676,-6.9048777,-0.5602432
5.2936897,4.544464,0.7417257,-0.60340565,1.3871746,9.217676,-6.9048777,-0.5602432
5.2953386,4.5449514,0.7736836,-0.54907715,1.497962,9.337387,-6.847417,-0.51235914
5.296981,4.5454383,0.7736836,-0.54907715,1.497962,9.337387,-6.847417,-0.51235914
5.2987127,4.5460744,0.803511,-0.49155286,1.6044885,9.500193,-6.751649,-0.61291564
5.3004427,4.5467114,0.803511,-0.49155286,1.6044885,9.500193,-6.751649,-0.61291564
5.302249,4.5474925,0.83120793,-0.4361591,1.7056886,9.610326,-6.670246,-0.6464345
5.304042,4.5482697,0.83120793,-0.4361591,1.7056886,9.610326,-6.670246,-0.6464345
5.305933,4.54918,0.855709,-0.37756956,1.8026277,9.605537,-6.6606693,-0.7182605
5.3077426,4.550053,0.855709,-0.37756956,1.8026277,9.605537,-6.6606693,-0.7182605
5.3097296,4.5510845,0.87807953,-0.3200453,1.896371,9.504981,-6.646304,-0.7613561
5.311782,4.5521517,0.87807953,-0.3200453,1.896371,9.504981,-6.646304,-0.7613561
5.3138804,4.5532684,0.89938486,-0.26358625,1.984788,9.332599,-6.6846113,-0.842759
5.315965,4.5543785,0.89938486,-0.26358625,1.984788,9.332599,-6.6846113,-0.842759
5.3181624,4.5555706,0.91962487,-0.20925778,2.0753355,9.136273,-6.7564373,-0.866701
5.3203783,4.55677,0.91962487,-0.20925778,2.0753355,9.136273,-6.7564373,-0.866701
5.3226805,4.5580335,0.9409301,-0.15599456,2.1658828,8.710106,-6.727707,-0.89543146
5.324974,4.559286,0.9409301,-0.15599456,2.1658828,8.710106,-6.727707,-0.89543146
5.327367,4.560605,0.9611702,-0.108057655,2.262822,8.307879,-6.7612257,-0.9720459
5.3297596,4.561915,0.9611702,-0.108057655,2.262822,8.307879,-6.7612257,-0.9720459
5.3322544,4.5632987,0.9814102,-0.06331655,2.368283,8.025364,-6.6989765,-1.0486604
5.3347397,4.564667,0.9814102,-0.06331655,2.368283,8.025364,-6.6989765,-1.0486604
5.337336,4.566136,0.9995197,-0.0228365,2.480136,7.795521,-6.6175733,-1.0007763
5.33993,4.5675926,0.9995197,-0.0228365,2.480136,7.795521,-6.6175733,-1.0007763
5.3426466,4.5691524,1.0165639,0.014447756,2.6005108,7.627927,-6.564901,-0.92895025
5.345353,4.570695,1.0165639,0.014447756,2.6005108,7.627927,-6.564901,-0.92895025
5.348187,4.5723033,1.0304123,0.05173201,2.7294078,7.4603324,-6.4882865,-0.9720459
5.3510213,4.5738993,1.0304123,0.05173201,2.7294078,7.4603324,-6.4882865,-0.9720459
5.353986,4.5755525,1.0399997,0.08368994,2.8604352,7.345411,-6.4068837,-0.9959879
5.3569384,4.577185,1.0399997,0.08368994,2.8604352,7.345411,-6.4068837,-0.9959879
5.36003,4.578904,1.0474566,0.11564788,2.995724,7.086837,-6.3446345,-0.90979666
5.363123,4.5806084,1.0474566,0.11564788,2.995724,7.086837,-6.3446345,-0.90979666
5.3663554,4.582414,1.0527829,0.14867108,3.1395345,7.029376,-6.38773,-0.7565677
5.3695955,4.584209,1.0527829,0.14867108,3.1395345,7.029376,-6.38773,-0.7565677
5.3695955,4.584209,1.0527829,0.14867108,3.1395345,7.029376,-6.38773,-0.7565677
5.3764486,4.5879683,1.0549134,0.1838248,3.2886715,6.8809357,-6.363788,-0.6991069
5.3799634,4.589871,1.0559788,0.21897852,3.4410045,6.7803793,-6.3542113,-0.6560113
5.383437,4.591735,1.0559788,0.21897852,3.4410045,6.7803793,-6.3542113,-0.6560113
5.3870673,4.5936775,1.0549134,0.25519753,3.5975983,6.694188,-6.349423,-0.5554548
5.3907433,4.5956283,1.0549134,0.25519753,3.5975983,6.694188,-6.349423,-0.5554548
5.394571,4.597612,1.0527829,0.29567757,3.7573879,6.6415157,-6.3829417,-0.61291564
5.3984118,4.5995836,1.0527829,0.29567757,3.7573879,6.6415157,-6.3829417,-0.61291564
5.4024067,4.6016192,1.0495871,0.33509237,3.913982,6.5218053,-6.3589997,-0.545878
5.406392,4.6036305,1.0495871,0.33509237,3.913982,6.5218053,-6.3589997,-0.545878
5.410539,4.6056724,1.0442609,0.3755724,4.072706,6.3589997,-6.3781533,-0.58897364
5.4146924,4.6076965,1.0442609,0.3755724,4.072706,6.3589997,-6.3781533,-0.58897364
5.4189916,4.609737,1.036804,0.41605246,4.2293,6.0525417,-6.435614,-0.6560113
5.423297,4.611758,1.036804,0.41605246,4.2293,6.0525417,-6.435614,-0.6560113
5.4277525,4.6137967,1.0272166,0.45120618,4.386959,5.741296,-6.4978633,-0.7134721
5.432214,4.615815,1.0272166,0.45120618,4.386959,5.741296,-6.4978633,-0.7134721
5.436837,4.617862,1.0165639,0.48209885,4.545684,5.5880666,-6.5744777,-0.6895301
5.4414577,4.619885,1.0165639,0.48209885,4.545684,5.5880666,-6.5744777,-0.6895301
5.446242,4.6219163,1.0101724,0.5087305,4.711865,5.425261,-6.6079965,-0.7613561
5.4510274,4.6239243,1.0101724,0.5087305,4.711865,5.425261,-6.6079965,-0.7613561
5.45598,4.6259403,1.004846,0.52684,4.8791113,5.3007627,-6.603208,-0.770933
5.460933,4.627933,1.004846,0.52684,4.8791113,5.3007627,-6.603208,-0.770933
5.466059,4.6299324,1.000585,0.5385579,5.050619,5.2863975,-6.5505357,-0.7182605
5.4711866,4.6319075,1.000585,0.5385579,5.050619,5.2863975,-6.5505357,-0.7182605
5.476491,4.6338882,0.99845445,0.54708,5.2263875,5.2289367,-6.612785,-0.6847417
5.481797,4.6358457,0.99845445,0.54708,5.2263875,5.2289367,-6.612785,-0.6847417
5.4872847,4.637795,0.9973892,0.5492105,5.4021564,5.3199162,-6.631939,-0.6799533
5.492762,4.639716,0.9973892,0.5492105,5.4021564,5.3199162,-6.631939,-0.6799533
5.498414,4.641611,0.9973892,0.5492105,5.575794,5.3582234,-6.6750345,-0.78050977
5.5040655,4.643481,0.9973892,0.5492105,5.575794,5.3582234,-6.6750345,-0.78050977
5.50988,4.645327,1.000585,0.5492105,5.746237,5.291186,-6.6415157,-0.8810662
5.515687,4.647147,1.000585,0.5492105,5.746237,5.291186,-6.6415157,-0.8810662
5.521664,4.6489563,1.0069766,0.54814523,5.9102874,5.267244,-6.679823,-0.9576807
5.527615,4.650733,1.0069766,0.54814523,5.9102874,5.267244,-6.679823,-0.9576807
5.533726,4.6524916,1.0123029,0.54814523,6.0722075,5.3342814,-6.6654577,-1.1204864
5.5398335,4.6542273,1.0123029,0.54814523,6.0722075,5.3342814,-6.6654577,-1.1204864
5.546068,4.655945,1.0176291,0.5502758,6.2256055,5.5976434,-6.6846113,-1.2114661
5.5522976,4.6576405,1.0176291,0.5502758,6.2256055,5.5976434,-6.6846113,-1.2114661
5.5586424,4.65933,1.0218903,0.55773264,6.365155,5.793968,-6.6606693,-1.2449849
5.5649824,4.660999,1.0218903,0.55773264,6.365155,5.793968,-6.6606693,-1.2449849
5.571435,4.662669,1.025086,0.5705158,6.4908566,5.8945246,-6.6846113,-1.1300632
5.5778813,4.664321,1.025086,0.5705158,6.4908566,5.8945246,-6.6846113,-1.1300632
5.584429,4.665969,1.025086,0.58436424,6.6037745,5.9424086,-6.7468605,-1.1779473
5.5909777,4.6676016,1.025086,0.58436424,6.6037745,5.9424086,-6.7468605,-1.1779473
5.5976176,4.669236,1.025086,0.6003432,6.702844,6.0477533,-6.7851677,-1.115698
5.604246,4.6708536,1.025086,0.6003432,6.702844,6.0477533,-6.7851677,-1.115698
5.6109557,4.672474,1.025086,0.6184527,6.7933917,6.143522,-6.8665705,-1.0869676
5.617661,4.674078,1.025086,0.6184527,6.7933917,6.143522,-6.8665705,-1.0869676
5.6244483,4.675684,1.0282818,0.63656217,6.8732867,6.066907,-7.019799,-0.9624691
5.6312246,4.6772738,1.0282818,0.63656217,6.8732867,6.066907,-7.019799,-0.9624691
5.6380806,4.6788664,1.0314777,0.6536064,6.9457245,6.033388,-7.2113357,-0.842759
5.644945,4.6804476,1.0314777,0.6536064,6.9457245,6.033388,-7.2113357,-0.842759
5.6518493,4.6820426,1.0389345,0.6695854,7.0107055,6.2345014,-7.383718,-0.770933
5.6587296,4.6836195,1.0389345,0.6695854,7.0107055,6.2345014,-7.383718,-0.770933
5.6656528,4.685233,1.0538481,0.68662965,7.0703607,6.6750345,-7.541735,-0.7086837
5.6725903,4.6868343,1.0538481,0.68662965,7.0703607,6.6750345,-7.541735,-0.7086837
5.680274,4.6886387,1.077284,0.7143265,7.1193624,7.1730285,-7.800309,-0.7230489
5.6868362,4.690164,1.077284,0.7143265,7.1193624,7.1730285,-7.800309,-0.7230489
5.6868362,4.690164,1.077284,0.7143265,7.1193624,7.1730285,-7.800309,-0.7230489
5.696709,4.692536,1.1081767,0.75374126,7.145994,7.61835,-7.9726915,-0.56982
5.708945,4.6955576,1.1411998,0.81020033,7.14919,7.8529816,-8.020576,-0.5554548
5.715761,4.6972175,1.1411998,0.81020033,7.14919,7.8529816,-8.020576,-0.5554548
5.7185307,4.697922,1.1763536,0.8826383,7.127885,7.872135,-8.183381,-0.50757074
5.729779,4.700758,1.1763536,0.8826383,7.127885,7.872135,-8.183381,-0.50757074
5.7314844,4.701209,1.2104421,0.9635984,7.0831437,7.771579,-8.255207,-0.39743748
5.7433844,4.704358,1.2402694,1.05095,7.0213585,7.6470804,-8.39886,-0.2873042
5.7493033,4.705977,1.2402694,1.05095,7.0213585,7.6470804,-8.39886,-0.2873042
5.7561245,4.707825,1.2402694,1.05095,7.0213585,7.6470804,-8.39886,-0.2873042
5.762919,4.7097607,1.26264,1.1404322,6.944659,7.489063,-8.628703,-0.01436521
5.769716,4.7116766,1.26264,1.1404322,6.944659,7.489063,-8.628703,-0.01436521
5.7764635,4.7136602,1.2743579,1.2256534,6.8573074,7.2304893,-8.848969,0.20111294
5.783193,4.7156177,1.2743579,1.2256534,6.8573074,7.2304893,-8.848969,0.20111294
5.789812,4.717622,1.2807496,1.3055483,6.762499,7.015011,-9.136273,0.47405192
5.7964525,4.7196107,1.2807496,1.3055483,6.762499,7.015011,-9.136273,0.47405192
5.803008,4.721644,1.2818148,1.3801168,6.662364,6.5840545,-9.409213,0.6607997
5.8095446,4.72365,1.2818148,1.3801168,6.662364,6.5840545,-9.409213,0.6607997
5.8160586,4.725717,1.2796843,1.4493589,6.565425,6.2345014,-9.821015,1.2354081
5.822571,4.727763,1.2796843,1.4493589,6.565425,6.2345014,-9.821015,1.2354081
5.829018,4.729835,1.2796843,1.5122095,6.4716816,5.7508726,-10.160992,1.5035586
5.8354692,4.731889,1.2796843,1.5122095,6.4716816,5.7508726,-10.160992,1.5035586
5.841857,4.7339664,1.2850106,1.5739949,6.386461,5.2480903,-10.19451,1.1683705
5.848234,4.736022,1.2850106,1.5739949,6.386461,5.2480903,-10.19451,1.1683705
5.854584,4.738098,1.2882063,1.6336497,6.310827,4.817134,-10.362105,1.1204864
5.860904,4.7401485,1.2882063,1.6336497,6.310827,4.817134,-10.362105,1.1204864
5.8672137,4.7422185,1.2924675,1.6901088,6.245846,4.596867,-10.630256,1.2880806
5.873551,4.7442827,1.2924675,1.6901088,6.245846,4.596867,-10.630256,1.2880806
5.879809,4.7463484,1.298859,1.7444372,6.1840606,4.477157,-10.836157,1.4556746
5.8860264,4.748386,1.298859,1.7444372,6.1840606,4.477157,-10.836157,1.4556746
5.8922186,4.750448,1.3073812,1.7923741,6.122275,4.5154643,-10.941502,1.5179238
5.8984447,4.7525067,1.3073812,1.7923741,6.122275,4.5154643,-10.941502,1.5179238
5.904557,4.7545652,1.3169686,1.8392458,6.0509024,4.5681367,-10.903194,1.6424223
5.9106665,4.7566075,1.3169686,1.8392458,6.0509024,4.5681367,-10.903194,1.6424223
5.916697,4.758659,1.3212296,1.888248,5.9667463,4.5681367,-10.778696,1.8387469
5.9227204,4.7606916,1.3212296,1.888248,5.9667463,4.5681367,-10.778696,1.8387469
5.928654,4.762727,1.3180338,1.9372501,5.8623505,4.31914,-10.668563,1.934515
5.934587,4.7647457,1.3180338,1.9372501,5.8623505,4.31914,-10.668563,1.934515
5.9404163,4.766753,1.3041854,1.9841217,5.7398453,3.940856,-10.620679,2.0685902
5.946256,4.768749,1.3041854,1.9841217,5.7398453,3.940856,-10.620679,2.0685902
5.9519835,4.7707186,1.2807496,2.025667,5.606687,3.4045548,-10.58716,2.2170308
5.9577217,4.7726774,1.2807496,2.025667,5.606687,3.4045548,-10.58716,2.2170308
5.9577217,4.7726774,1.2807496,2.025667,5.606687,3.4045548,-10.58716,2.2170308
5.969021,4.776528,1.2509221,2.0565598,5.4628763,2.8778305,-10.55843,2.231396
5.974392,4.778348,1.2157683,2.070408,5.316935,2.4277205,-10.453085,2.2984335
5.9800334,4.7802463,1.2157683,2.070408,5.316935,2.4277205,-10.453085,2.2984335
5.9852943,4.7820063,1.1774188,2.0672123,5.1688633,2.0829554,-10.419566,2.2266076
5.9906583,4.7837877,1.1774188,2.0672123,5.1688633,2.0829554,-10.419566,2.2266076
5.9958763,4.785509,1.1358736,2.050168,5.021857,1.9009962,-10.386047,2.2409728
6.0011015,4.787221,1.1358736,2.050168,5.021857,1.9009962,-10.386047,2.2409728
6.0061836,4.788876,1.0964588,2.0182102,4.8705893,1.7477672,-10.314221,2.2505496
6.011257,4.790517,1.0964588,2.0182102,4.8705893,1.7477672,-10.314221,2.2505496
6.016188,4.792102,1.061305,1.9734691,4.7193217,1.541866,-10.304645,2.3175871
6.02112,4.793677,1.061305,1.9734691,4.7193217,1.541866,-10.304645,2.3175871
6.0259094,4.795193,1.0304123,1.9180753,4.5659237,1.2593501,-10.247183,2.1930888
6.0307,4.7967,1.0304123,1.9180753,4.5659237,1.2593501,-10.247183,2.1930888
6.035349,4.79815,1.004846,1.8530942,4.4125257,0.9624691,-10.117896,2.0111294
6.0400033,4.799593,1.004846,1.8530942,4.4125257,0.9624691,-10.117896,2.0111294
6.0444994,4.80098,0.9814102,1.779591,4.2591276,0.7422025,-9.993398,1.9249382
6.049001,4.8023615,0.9814102,1.779591,4.2591276,0.7422025,-9.993398,1.9249382
6.0533605,4.803689,0.9611702,1.6986308,4.111056,0.58418524,-9.830592,1.7190368
6.057726,4.8050103,0.9611702,1.6986308,4.111056,0.58418524,-9.830592,1.7190368
6.061939,4.8062787,0.94199544,1.6134098,3.9651146,0.3878607,-9.691729,1.5945383
6.066157,4.8075414,0.94199544,1.6134098,3.9651146,0.3878607,-9.691729,1.5945383
6.070234,4.808749,0.9206901,1.5271233,3.8213038,0.2777274,-9.490616,1.3934253
6.0743117,4.809952,0.9206901,1.5271233,3.8213038,0.2777274,-9.490616,1.3934253
6.078248,4.811102,0.89618903,1.437641,3.6828194,0.23463176,-9.26556,1.2880806
6.0821857,4.812247,0.89618903,1.437641,3.6828194,0.23463176,-9.26556,1.2880806
6.085981,4.8133383,0.86955744,1.3428326,3.5454004,0.21547815,-9.107543,1.1971009
6.0897813,4.814425,0.86955744,1.3428326,3.5454004,0.21547815,-9.107543,1.1971009
6.0934324,4.815455,0.8407953,1.2426977,3.4058506,0.23463176,-8.949526,1.1013328
6.0970845,4.8164806,0.8407953,1.2426977,3.4058506,0.23463176,-8.949526,1.1013328
6.100588,4.817454,0.81309843,1.1361712,3.265236,0.31124622,-8.805874,1.0486604
6.1040916,4.8184237,0.81309843,1.1361712,3.265236,0.31124622,-8.805874,1.0486604
6.1074405,4.8193417,0.78433627,1.0253837,3.1192946,0.36870706,-8.7053175,1.0151415
6.11079,4.820256,0.78433627,1.0253837,3.1192946,0.36870706,-8.7053175,1.0151415
6.1139817,4.8211,0.75557417,0.91353095,2.9712229,0.4261679,-8.614338,0.8379706
6.117174,4.821941,0.75557417,0.91353095,2.9712229,0.4261679,-8.614338,0.8379706
6.120193,4.8226967,0.7246815,0.7984824,2.823151,0.5554548,-8.576031,0.60333884
6.123208,4.823448,0.7246815,0.7984824,2.823151,0.5554548,-8.576031,0.60333884
6.126059,4.824148,0.6927235,0.67917275,2.6676223,0.58897364,-8.532935,0.60812724
6.1289024,4.8248434,0.6927235,0.67917275,2.6676223,0.58897364,-8.532935,0.60812724
6.131575,4.825485,0.65970033,0.5524063,2.5078328,0.641646,-8.552089,0.61291564
6.134243,4.8261228,0.65970033,0.5524063,2.5078328,0.641646,-8.552089,0.61291564
6.1367335,4.826708,0.6277424,0.42457458,2.3480432,0.6991069,-8.532935,0.63206923
6.1392198,4.8272905,0.6277424,0.42457458,2.3480432,0.6991069,-8.532935,0.63206923
6.141519,4.827814,0.5957845,0.29674283,2.1882534,0.8331822,-8.499416,0.641646
6.143817,4.828336,0.5957845,0.29674283,2.1882534,0.8331822,-8.499416,0.641646
6.1459074,4.8288007,0.5680876,0.16997637,2.029529,0.8810662,-8.42759,0.46926352
6.147992,4.8292637,0.5680876,0.16997637,2.029529,0.8810662,-8.42759,0.46926352
6.149905,4.8296814,0.53826016,0.047470953,1.8761309,0.8762778,-8.360553,0.4213795
6.151816,4.830099,0.53826016,0.047470953,1.8761309,0.8762778,-8.360553,0.4213795
6.153538,4.830469,0.5073675,-0.06970814,1.7301897,1.0151415,-8.264784,0.37828386
6.155258,4.8308396,0.5073675,-0.06970814,1.7301897,1.0151415,-8.264784,0.37828386
6.156796,4.831167,0.4754096,-0.18049563,1.586379,1.1300632,-8.183381,0.48841715
6.1583314,4.831496,0.4754096,-0.18049563,1.586379,1.1300632,-8.183381,0.48841715
6.1596847,4.831788,0.44345164,-0.28489155,1.4478946,1.3215994,-8.073248,0.40222588
6.161034,4.832081,0.44345164,-0.28489155,1.4478946,1.3215994,-8.073248,0.40222588
6.162218,4.83234,0.41042846,-0.38076535,1.3136714,1.4652514,-8.010999,0.41180268
6.163402,4.8325996,0.41042846,-0.38076535,1.3136714,1.4652514,-8.010999,0.41180268
6.1644416,4.832818,0.37740526,-0.4691823,1.1805133,1.5658079,-7.8912888,0.25378537
6.165479,4.833037,0.37740526,-0.4691823,1.1805133,1.5658079,-7.8912888,0.25378537
6.1663685,4.8332195,0.34225154,-0.5501424,1.0494857,1.6567876,-7.8769236,0.2873042
6.167256,4.8334026,0.34225154,-0.5501424,1.0494857,1.6567876,-7.8769236,0.2873042
6.168006,4.8335476,0.30922833,-0.6268414,0.92271924,1.7717092,-7.8625584,0.20590134
6.1687546,4.8336926,0.30922833,-0.6268414,0.92271924,1.7717092,-7.8625584,0.20590134
6.169375,4.833799,0.27513987,-0.6982142,0.8044749,1.8962077,-7.867347,0.1340753
6.1699953,4.833906,0.27513987,-0.6982142,0.8044749,1.8962077,-7.867347,0.1340753
6.1704965,4.833973,0.23892088,-0.76213,0.69475263,2.0973208,-8.010999,0.033518825
6.1709967,4.8340406,0.23892088,-0.76213,0.69475263,2.0973208,-8.010999,0.033518825
6.171376,4.834076,0.20589767,-0.8196543,0.5882262,2.360683,-8.178593,0.02873042
6.1717553,4.8341117,0.20589767,-0.8196543,0.5882262,2.360683,-8.178593,0.02873042
6.1720195,4.834118,0.175005,-0.86865646,0.48489556,2.5713725,-8.307879,0.04309563
6.1722846,4.834124,0.175005,-0.86865646,0.48489556,2.5713725,-8.307879,0.04309563
6.172447,4.834098,0.14730814,-0.9102018,0.38582596,2.7102363,-8.480263,-0.047884032
6.17261,4.834072,0.14730814,-0.9102018,0.38582596,2.7102363,-8.480263,-0.047884032
6.172672,4.834026,0.122807056,-0.9421597,0.2952785,2.882619,-8.652645,0.05267244
6.172734,4.83398,0.122807056,-0.9421597,0.2952785,2.882619,-8.652645,0.05267244
6.1727138,4.83391,0.10150176,-0.96559554,0.21431838,2.9783869,-8.7532015,-0.009576807
6.1726937,4.8338404,0.10150176,-0.96559554,0.21431838,2.9783869,-8.7532015,-0.009576807
6.1726,4.8337517,0.08552279,-0.9805092,0.14081514,3.0885203,-8.853758,-0.08619126
6.1725063,4.833664,0.08552279,-0.9805092,0.14081514,3.0885203,-8.853758,-0.08619126
6.1723433,4.833564,0.06954383,-0.9890314,0.075834006,3.217807,-8.973468,-0.01436521
6.17218,4.8334637,0.06954383,-0.9890314,0.075834006,3.217807,-8.973468,-0.01436521
6.171959,4.833354,0.056760654,-0.9911619,0.019374989,3.3375173,-9.011775,0.0047884034
6.171736,4.8332424,0.056760654,-0.9911619,0.019374989,3.3375173,-9.011775,0.0047884034
6.1714654,4.8331175,0.04610801,-0.9869008,-0.028561912,3.4524388,-9.112331,-0.11492168
6.1712,4.8329945,0.04610801,-0.9869008,-0.028561912,3.4524388,-9.112331,-0.11492168
6.170907,4.8328586,0.03545537,-0.97518295,-0.06691143,3.3566709,-9.121908,-0.22984336
6.1706104,4.8327208,0.03545537,-0.97518295,-0.06691143,3.3566709,-9.121908,-0.22984336
6.170279,4.8325763,0.024802722,-0.96133447,-0.09993463,3.514688,-9.179369,-0.22026655
6.169949,4.832432,0.024802722,-0.96133447,-0.09993463,3.514688,-9.179369,-0.22026655
6.169588,4.832284,0.0141500775,-0.94535553,-0.12550098,3.7732618,-9.222465,-0.12928689
6.169228,4.832137,0.0141500775,-0.94535553,-0.12550098,3.7732618,-9.222465,-0.12928689
6.168844,4.8319907,0.0077584907,-0.9240502,-0.14787152,3.9264908,-9.227253,-0.038307227
6.1684613,4.8318443,0.0077584907,-0.9240502,-0.14787152,3.9264908,-9.227253,-0.038307227
6.1680574,4.8317037,0.003497433,-0.89635336,-0.16811156,4.027047,-9.217676,0.110133275
6.1676536,4.8315625,0.003497433,-0.89635336,-0.16811156,4.027047,-9.217676,0.110133275
6.167236,4.831428,0.001366904,-0.8633302,-0.18302526,4.1802764,-9.246407,0.21547815
6.166818,4.8312936,0.001366904,-0.8633302,-0.18302526,4.1802764,-9.246407,0.21547815
6.1663938,4.8311687,0.0024321685,-0.8228501,-0.1936779,4.237737,-9.179369,0.29688102
6.16597,4.831044,0.0024321685,-0.8228501,-0.1936779,4.237737,-9.179369,0.29688102
6.165539,4.8309226,0.001366904,-0.7749132,-0.20113476,4.146757,-9.136273,0.33039984
6.165109,4.830801,0.001366904,-0.7749132,-0.20113476,4.146757,-9.136273,0.33039984
6.164687,4.8306913,0.0024321685,-0.71951944,-0.20326528,4.2425256,-9.093178,0.37349546
6.16427,4.8305817,0.0024321685,-0.71951944,-0.20326528,4.2425256,-9.093178,0.37349546
6.163854,4.830481,0.0024321685,-0.6577341,-0.20326528,4.2425256,-9.074024,0.4357447
6.163438,4.83038,0.0024321685,-0.6577341,-0.20326528,4.2425256,-9.074024,0.4357447
6.163438,4.83038,0.0024321685,-0.6577341,-0.20326528,4.2425256,-9.074024,0.4357447
6.163438,4.83038,0.0024321685,-0.6577341,-0.20326528,4.2425256,-9.074024,0.4357447
6.163438,4.83038,0.0024321685,-0.6577341,-0.20326528,4.2425256,-9.074024,0.4357447
6.1618037,4.830037,0.00030163955,-0.43509385,-0.18622105,4.1371803,-8.959103,0.49799395
6.1614966,4.829975,0.00030163955,-0.43509385,-0.18622105,4.1371803,-8.959103,0.49799395
6.1611195,4.829899,0.00030163955,-0.43509385,-0.18622105,4.1371803,-8.959103,0.49799395
6.1611195,4.829899,0.00030163955,-0.43509385,-0.18622105,4.1371803,-8.959103,0.49799395
6.160402,4.8297668,-0.0007636249,-0.35200322,-0.17663367,4.0078936,-8.978256,0.5554548
6.160061,4.8297086,-0.0018288894,-0.26784733,-0.1670463,3.8738184,-8.963891,0.5602432
6.160061,4.8297086,-0.0018288894,-0.26784733,-0.1670463,3.8738184,-8.963891,0.5602432
6.159422,4.8296003,-0.0039594183,-0.18049563,-0.15213259,3.7014358,-9.040505,0.5746084
6.1591167,4.8295507,-0.0039594183,-0.18049563,-0.15213259,3.7014358,-9.040505,0.5746084
6.158833,4.829508,-0.0050246827,-0.09420922,-0.13828415,3.4093432,-9.054871,0.59855044
6.1585484,4.829465,-0.0050246827,-0.09420922,-0.13828415,3.4093432,-9.054871,0.59855044
6.1582913,4.829423,-0.0071552116,-0.008988062,-0.123370446,3.145981,-9.184157,0.5506664
6.1580176,4.829378,-0.0071552116,-0.008988062,-0.123370446,3.145981,-9.184157,0.5506664
6.157804,4.829345,-0.006089947,0.073037304,-0.10526095,2.896984,-9.308656,0.58418524
6.1575785,4.8293114,-0.006089947,0.073037304,-0.10526095,2.896984,-9.308656,0.58418524
6.1573944,4.829275,-0.0028941538,0.15186687,-0.08075987,2.5570073,-9.41879,0.51235914
6.1572104,4.8292394,-0.0028941538,0.15186687,-0.08075987,2.5570073,-9.41879,0.51235914
6.157077,4.8292093,0.005627962,0.22643538,-0.050932467,2.1978772,-9.5385,0.5363012
6.1569433,4.829179,0.005627962,0.22643538,-0.050932467,2.1978772,-9.5385,0.5363012
6.1568713,4.829152,0.0141500775,0.29141653,-0.015778739,1.8626889,-9.576807,0.56982
6.1567993,4.829125,0.0141500775,0.29141653,-0.015778739,1.8626889,-9.576807,0.56982
6.156789,4.829108,0.024802722,0.34787554,0.024701312,1.6807296,-9.643845,0.62249243
6.156778,4.829091,0.024802722,0.34787554,0.024701312,1.6807296,-9.643845,0.62249243
6.1568274,4.8290863,0.03652063,0.39794296,0.06731189,1.5897499,-9.739613,0.6512229
6.1568766,4.829082,0.03652063,0.39794296,0.06731189,1.5897499,-9.739613,0.6512229
6.156978,4.8290944,0.05036907,0.44055355,0.1088572,1.5227122,-9.725247,0.6895301
6.157079,4.829107,0.05036907,0.44055355,0.1088572,1.5227122,-9.725247,0.6895301
6.1572375,4.829131,0.061021715,0.4810336,0.15040252,1.4413095,-9.739613,0.7374141
6.157395,4.8291554,0.061021715,0.4810336,0.15040252,1.4413095,-9.739613,0.7374141
6.157603,4.8291903,0.06954383,0.51725256,0.1866215,1.3551182,-9.648633,0.79966336
6.1578097,4.829225,0.06954383,0.51725256,0.1866215,1.3551182,-9.648633,0.79966336
6.1580963,4.829266,0.075935416,0.5502758,0.21644892,1.1923125,-9.56723,0.8810662
6.158382,4.829307,0.075935416,0.5502758,0.21644892,1.1923125,-9.56723,0.8810662
6.158763,4.8293676,0.07913121,0.5769074,0.24201526,1.0055647,-9.500193,0.89064306
6.159142,4.8294272,0.07913121,0.5769074,0.24201526,1.0055647,-9.500193,0.89064306
6.159608,4.8295436,0.07806595,0.59821266,0.26438582,0.79487497,-9.471462,1.0199299
6.160074,4.8296585,0.07806595,0.59821266,0.26438582,0.79487497,-9.471462,1.0199299
6.160556,4.829768,0.075935416,0.6131264,0.28036478,0.6560113,-9.452309,0.9672575
6.1610365,4.8298774,0.075935416,0.6131264,0.28036478,0.6560113,-9.452309,0.9672575
6.161539,4.829991,0.07167436,0.6216485,0.2952785,0.5315128,-9.457097,0.9768343
6.162046,4.830105,0.07167436,0.6216485,0.2952785,0.5315128,-9.457097,0.9768343
6.1625595,4.830231,0.06847856,0.623779,0.30806166,0.46926352,-9.471462,1.0630256
6.1630783,4.8303585,0.06847856,0.623779,0.30806166,0.46926352,-9.471462,1.0630256
6.1636043,4.8304753,0.06528277,0.623779,0.31764904,0.33997664,-9.5385,1.0247183
6.1641316,4.830592,0.06528277,0.623779,0.31764904,0.33997664,-9.5385,1.0247183
6.164667,4.8307123,0.06315224,0.6173874,0.32617116,0.22505496,-9.548077,1.0582372
6.1652036,4.830832,0.06315224,0.6173874,0.32617116,0.22505496,-9.548077,1.0582372
6.1657424,4.8309565,0.062086977,0.6067348,0.3304322,0.1436521,-9.619903,1.115698
6.166283,4.8310804,0.062086977,0.6067348,0.3304322,0.1436521,-9.619903,1.115698
6.1668234,4.831203,0.06528277,0.5907558,0.33256274,-0.009576807,-9.634268,1.091756
6.1673636,4.831325,0.06528277,0.5907558,0.33256274,-0.009576807,-9.634268,1.091756
6.167901,4.831452,0.06954383,0.56732,0.333628,-0.033518825,-9.595961,1.1204864
6.1684403,4.8315787,0.06954383,0.56732,0.333628,-0.033518825,-9.595961,1.1204864
6.1689754,4.8317075,0.07167436,0.5385579,0.333628,0.009576807,-9.548077,1.1444284
6.169511,4.8318357,0.07167436,0.5385579,0.333628,0.009576807,-9.548077,1.1444284
6.17004,4.8319635,0.07273962,0.5087305,0.33149746,-0.05267244,-9.533711,1.1587936
6.170569,4.8320904,0.07273962,0.5087305,0.33149746,-0.05267244,-9.533711,1.1587936
6.1710887,4.8322024,0.07167436,0.47677252,0.32510588,-0.02873042,-9.524135,1.0773908
6.1716084,4.8323145,0.07167436,0.47677252,0.32510588,-0.02873042,-9.524135,1.0773908
6.1721177,4.8324203,0.06954383,0.44055355,0.3187143,-0.019153614,-9.452309,1.0773908
6.1726265,4.832526,0.06954383,0.44055355,0.3187143,-0.019153614,-9.452309,1.0773908
6.173118,4.8326187,0.06634804,0.40433455,0.3069964,0.0047884034,-9.457097,1.0342951
6.173611,4.832711,0.06634804,0.40433455,0.3069964,0.0047884034,-9.457097,1.0342951
6.1740866,4.832795,0.062086977,0.36598504,0.2942132,0.009576807,-9.390059,1.0342951
6.174562,4.832879,0.062086977,0.36598504,0.2942132,0.009576807,-9.390059,1.0342951
6.1750164,4.8329587,0.056760654,0.3276355,0.27823424,0.06703765,-9.442732,1.0821792
6.175473,4.8330383,0.056760654,0.3276355,0.27823424,0.06703765,-9.442732,1.0821792
6.175902,4.833093,0.049303804,0.28822073,0.2590595,0.10055647,-9.409213,0.9959879
6.1763315,4.833148,0.049303804,0.28822073,0.2590595,0.10055647,-9.409213,0.9959879
6.1767316,4.8332,0.04291222,0.24880594,0.23242788,0.1436521,-9.380483,1.0486604
6.177131,4.833252,0.04291222,0.24880594,0.23242788,0.1436521,-9.380483,1.0486604
6.177498,4.833303,0.03545537,0.2083259,0.20366573,0.19153613,-9.390059,1.1204864
6.1778655,4.8333545,0.03545537,0.2083259,0.20366573,0.19153613,-9.390059,1.1204864
6.1782007,4.8333826,0.026933251,0.16784583,0.17703412,0.22984336,-9.337387,1.0582372
6.178536,4.8334103,0.026933251,0.16784583,0.17703412,0.22984336,-9.337387,1.0582372
6.17884,4.833427,0.020541664,0.12736578,0.15146779,0.24420857,-9.337387,1.0534488
6.179145,4.833443,0.020541664,0.12736578,0.15146779,0.24420857,-9.337387,1.0534488
6.179417,4.833448,0.015215342,0.090081535,0.12377091,0.2633622,-9.370906,1.043872
6.179689,4.833452,0.015215342,0.090081535,0.12377091,0.2633622,-9.370906,1.043872
6.1799297,4.833446,0.012019549,0.05173201,0.09820456,0.37828386,-9.428367,1.0486604
6.180171,4.83344,0.012019549,0.05173201,0.09820456,0.37828386,-9.428367,1.0486604
6.1803856,4.8334346,0.00988902,0.014447756,0.07476874,0.39264908,-9.404425,1.0773908
6.180604,4.833429,0.00988902,0.014447756,0.07476874,0.39264908,-9.404425,1.0773908
6.180788,4.8334103,0.00988902,-0.020705972,0.05346345,0.4309563,-9.481039,1.0486604
6.180974,4.833391,0.00988902,-0.020705972,0.05346345,0.4309563,-9.481039,1.0486604
6.1811414,4.8333683,0.00988902,-0.052663904,0.03854975,0.50757074,-9.485827,1.0582372
6.181309,4.833345,0.00988902,-0.052663904,0.03854975,0.50757074,-9.485827,1.0582372
6.1814504,4.8333025,0.012019549,-0.08142605,0.025766576,0.62249243,-9.490616,1.0247183
6.181592,4.8332596,0.012019549,-0.08142605,0.025766576,0.62249243,-9.490616,1.0247183
6.1816998,4.8331976,0.015215342,-0.106992394,0.015113931,0.7422025,-9.519346,1.0103531
6.1818085,4.833135,0.015215342,-0.106992394,0.015113931,0.7422025,-9.519346,1.0103531
6.181867,4.8330474,0.016280606,-0.12829769,0.008722344,0.8619126,-9.524135,1.0007763
6.181925,4.832961,0.016280606,-0.12829769,0.008722344,0.8619126,-9.524135,1.0007763
6.181901,4.832862,0.016280606,-0.14427665,0.0023307577,0.9911995,-9.543288,0.9624691
6.1818776,4.832764,0.016280606,-0.14427665,0.0023307577,0.9911995,-9.543288,0.9624691
6.181813,4.832673,0.018411135,-0.15705982,-0.004060829,1.0869676,-9.557653,0.90979666
6.181747,4.83258,0.018411135,-0.15705982,-0.004060829,1.0869676,-9.557653,0.90979666
6.1816473,4.832496,0.019476399,-0.16558194,-0.010452416,1.1779473,-9.581595,0.90979666
6.181547,4.832412,0.019476399,-0.16558194,-0.010452416,1.1779473,-9.581595,0.90979666
6.1814165,4.8323402,0.019476399,-0.16984299,-0.015778739,1.2497733,-9.533711,0.93852705
6.1812854,4.832269,0.019476399,-0.16984299,-0.015778739,1.2497733,-9.533711,0.93852705
6.181135,4.832211,0.020541664,-0.17197353,-0.018974531,1.3072342,-9.504981,0.9624691
6.180985,4.8321524,0.020541664,-0.17197353,-0.018974531,1.3072342,-9.504981,0.9624691
6.1808295,4.832096,0.019476399,-0.17090826,-0.022170324,1.340753,-9.490616,0.9528923
6.1806736,4.832039,0.019476399,-0.17090826,-0.022170324,1.340753,-9.490616,0.9528923
6.180506,4.831999,0.019476399,-0.16771246,-0.02110506,1.388637,-9.495404,1.0055647
6.180338,4.831959,0.019476399,-0.16771246,-0.02110506,1.388637,-9.495404,1.0055647
6.1801763,4.8319135,0.020541664,-0.16238615,-0.020039797,1.3934253,-9.437943,0.9672575
6.180015,4.831868,0.020541664,-0.16238615,-0.020039797,1.3934253,-9.437943,0.9672575
6.179853,4.8318276,0.020541664,-0.15386403,-0.018974531,1.4460979,-9.428367,0.9624691
6.179691,4.8317866,0.020541664,-0.15386403,-0.018974531,1.4460979,-9.428367,0.9624691
6.1795416,4.8317385,0.02160693,-0.14427665,-0.014713474,1.5035586,-9.385271,0.8810662
6.179392,4.83169,0.02160693,-0.14427665,-0.014713474,1.5035586,-9.385271,0.8810662
6.1792436,4.831646,0.02160693,-0.13468927,-0.01151768,1.532289,-9.385271,0.89064306
6.1790953,4.8316026,0.02160693,-0.13468927,-0.01151768,1.532289,-9.385271,0.89064306
6.1789536,4.831562,0.02160693,-0.12084083,-0.0051260935,1.5562311,-9.3182335,0.8810662
6.178812,4.831521,0.02160693,-0.12084083,-0.0051260935,1.5562311,-9.3182335,0.8810662
6.1786795,4.831482,0.02160693,-0.10486186,0.0023307577,1.5849615,-9.3182335,0.8714894
6.178547,4.831443,0.02160693,-0.10486186,0.0023307577,1.5849615,-9.3182335,0.8714894
6.1784286,4.8314004,0.019476399,-0.08675237,0.011918138,1.6041151,-9.279925,0.8331822
6.1783104,4.831357,0.019476399,-0.08675237,0.011918138,1.6041151,-9.279925,0.8331822
6.1782045,4.8313146,0.019476399,-0.06864287,0.020440254,1.6232687,-9.246407,0.80445176
6.1780987,4.831271,0.019476399,-0.06864287,0.020440254,1.6232687,-9.246407,0.80445176
6.1779976,4.831236,0.016280606,-0.050533377,0.030027634,1.7046716,-9.299079,0.8475474
6.1778955,4.8312006,0.016280606,-0.050533377,0.030027634,1.7046716,-9.299079,0.8475474
6.1777987,4.8311706,0.013084813,-0.031358615,0.03641922,1.6807296,-9.270349,0.89543146
6.1777015,4.8311405,0.013084813,-0.031358615,0.03641922,1.6807296,-9.270349,0.89543146
6.1776075,4.831114,0.008823755,-0.01324912,0.040680278,1.7669208,-9.255983,0.90979666
6.1775136,4.831088,0.008823755,-0.01324912,0.040680278,1.7669208,-9.255983,0.90979666
6.177432,4.831052,0.0045626974,0.0048603755,0.047071867,1.70946,-9.289502,0.8810662
6.1773505,4.8310156,0.0045626974,0.0048603755,0.047071867,1.70946,-9.289502,0.8810662
6.1772733,4.830978,0.00030163955,0.024035135,0.049202394,1.757344,-9.289502,0.8714894
6.1771955,4.8309402,0.00030163955,0.024035135,0.049202394,1.757344,-9.289502,0.8714894
6.1771193,4.8309083,-0.0028941538,0.04214463,0.052398186,1.7812861,-9.303867,0.91458505
6.1770434,4.8308764,-0.0028941538,0.04214463,0.052398186,1.7812861,-9.303867,0.91458505
6.1769743,4.8308406,-0.0050246827,0.05918886,0.055593982,1.6950948,-9.303867,0.91458505
6.1769056,4.830805,-0.0050246827,0.05918886,0.055593982,1.6950948,-9.303867,0.91458505
6.176844,4.830763,-0.009285741,0.07836362,0.058789775,1.6663644,-9.3421755,0.90500826
6.1767826,4.830721,-0.009285741,0.07836362,0.058789775,1.6663644,-9.3421755,0.90500826
6.176743,4.830656,-0.012481534,0.09647312,0.0609203,1.5801731,-9.385271,0.79966336
6.1767035,4.8305917,-0.012481534,0.09647312,0.0609203,1.5801731,-9.385271,0.79966336
6.176659,4.830536,-0.017807856,0.11351735,0.06518136,1.5705963,-9.423578,0.89543146
6.176613,4.8304787,-0.017807856,0.11351735,0.06518136,1.5705963,-9.423578,0.89543146
6.176581,4.8304167,-0.021003649,0.13056158,0.06944242,1.5035586,-9.466674,0.89543146
6.1765475,4.8303537,-0.021003649,0.13056158,0.06944242,1.5035586,-9.466674,0.89543146
6.17654,4.8302727,-0.024199443,0.1476058,0.073703475,1.4460979,-9.5385,0.82360536
6.176532,4.8301916,-0.024199443,0.1476058,0.073703475,1.4460979,-9.5385,0.82360536
6.176532,4.8301916,-0.024199443,0.1476058,0.073703475,1.4460979,-9.5385,0.82360536
6.176535,4.830025,-0.026329972,0.16465004,0.08116033,1.3982137,-9.562442,0.8619126
6.176534,4.8299503,-0.0284605,0.17849848,0.08542138,1.3503298,-9.557653,0.93373865
6.1765685,4.829777,-0.029525764,0.19021639,0.09181297,1.283292,-9.624691,0.9528923
6.1765685,4.829777,-0.029525764,0.19021639,0.09181297,1.283292,-9.624691,0.9528923
6.176584,4.829697,-0.029525764,0.19021639,0.09181297,1.283292,-9.624691,0.9528923
6.176603,4.8296185,-0.03059103,0.20406483,0.09820456,1.2497733,-9.643845,0.9959879
6.176623,4.829534,-0.03059103,0.20406483,0.09820456,1.2497733,-9.643845,0.9959879
6.176629,4.8294864,-0.029525764,0.21471748,0.103530884,1.2258313,-9.682152,1.0630256
6.1766357,4.829428,-0.029525764,0.21471748,0.103530884,1.2258313,-9.682152,1.0630256
6.1766357,4.829428,-0.029525764,0.21471748,0.103530884,1.2258313,-9.682152,1.0630256
6.17674,4.8292522,-0.029525764,0.22430485,0.1088572,1.1013328,-9.648633,1.0726024
6.1767755,4.8293114,-0.029525764,0.23069644,0.11418352,1.067814,-9.504981,1.1444284
6.17681,4.829371,-0.029525764,0.23069644,0.11418352,1.067814,-9.504981,1.1444284
6.1768346,4.8294134,-0.029525764,0.23602276,0.120575115,1.1013328,-9.519346,1.1492168
6.1768584,4.8294554,-0.029525764,0.23602276,0.120575115,1.1013328,-9.519346,1.1492168
6.177004,4.829351,-0.0284605,0.24028382,0.12270564,1.0342951,-9.600749,1.0486604
6.177148,4.829246,-0.0284605,0.24028382,0.12270564,1.0342951,-9.600749,1.0486604
6.177388,4.829164,-0.029525764,0.2466754,0.12270564,0.9528923,-9.605537,1.0630256
6.1776276,4.8290815,-0.029525764,0.2466754,0.12270564,0.9528923,-9.605537,1.0630256
6.177903,4.829027,-0.03059103,0.25093648,0.12270564,0.78050977,-9.639056,1.0342951
6.1781774,4.8289733,-0.03059103,0.25093648,0.12270564,0.78050977,-9.639056,1.0342951
6.1784573,4.828924,-0.031656295,0.25413227,0.12377091,0.7613561,-9.65821,1.043872
6.178738,4.828874,-0.031656295,0.25413227,0.12377091,0.7613561,-9.65821,1.043872
6.179032,4.828852,-0.03059103,0.253067,0.1269667,0.80924016,-9.667787,1.1061212
6.179325,4.82883,-0.03059103,0.253067,0.1269667,0.80924016,-9.667787,1.1061212
6.1796255,4.828816,-0.029525764,0.25200173,0.13122776,0.7517793,-9.672575,1.115698
6.179934,4.828802,-0.029525764,0.25200173,0.13122776,0.7517793,-9.672575,1.115698
6.1802244,4.8288107,-0.03059103,0.25093648,0.13229302,0.770933,-9.648633,1.1540052
6.180523,4.8288193,-0.03059103,0.25093648,0.13229302,0.770933,-9.648633,1.1540052
6.18082,4.8287945,-0.032721557,0.25093648,0.13122776,0.6895301,-9.68694,1.0965444
6.1811175,4.82877,-0.032721557,0.25093648,0.13122776,0.6895301,-9.68694,1.0965444
6.181415,4.828759,-0.03698262,0.25093648,0.12909722,0.61291564,-9.662998,1.1348516
6.181712,4.8287473,-0.03698262,0.25093648,0.12909722,0.61291564,-9.662998,1.1348516
6.1820083,4.828737,-0.041243672,0.25200173,0.12803197,0.5746084,-9.667787,1.1492168
6.182303,4.828726,-0.041243672,0.25200173,0.12803197,0.5746084,-9.667787,1.1492168
6.18259,4.8287354,-0.045504734,0.25093648,0.12590143,0.50757074,-9.682152,1.2449849
6.182881,4.8287454,-0.045504734,0.25093648,0.12590143,0.50757074,-9.682152,1.2449849
6.1831636,4.828744,-0.050831053,0.2498712,0.12270564,0.4357447,-9.696517,1.2401965
6.1834464,4.828743,-0.050831053,0.2498712,0.12270564,0.4357447,-9.696517,1.2401965
6.1837196,4.8287516,-0.057222642,0.24880594,0.120575115,0.35913026,-9.710882,1.3455414
6.183993,4.82876,-0.057222642,0.24880594,0.120575115,0.35913026,-9.710882,1.3455414
6.184267,4.828761,-0.0614837,0.2466754,0.119509846,0.2777274,-9.758766,1.3599066
6.1845407,4.8287625,-0.0614837,0.2466754,0.119509846,0.2777274,-9.758766,1.3599066
6.1848145,4.8287582,-0.06574476,0.24347961,0.119509846,0.22984336,-9.792285,1.3742718
6.1850905,4.828754,-0.06574476,0.24347961,0.119509846,0.22984336,-9.792285,1.3742718
6.1853595,4.8287425,-0.06894055,0.23921856,0.119509846,0.17238252,-9.840169,1.3694834
6.1856413,4.8287306,-0.06894055,0.23921856,0.119509846,0.17238252,-9.840169,1.3694834
6.1859136,4.8287168,-0.07107108,0.23282696,0.119509846,0.12449849,-9.883265,1.3934253
6.186188,4.828703,-0.07107108,0.23282696,0.119509846,0.12449849,-9.883265,1.3934253
6.186464,4.8286867,-0.07213634,0.22537012,0.12164038,0.07182605,-9.878476,1.3982137
6.18674,4.82867,-0.07213634,0.22537012,0.12164038,0.07182605,-9.878476,1.3982137
6.187015,4.828657,-0.07107108,0.216848,0.12377091,0.062249243,-9.921572,1.436521
6.1872897,4.8286443,-0.07107108,0.216848,0.12377091,0.062249243,-9.921572,1.436521
6.1875734,4.8286204,-0.07000581,0.20619535,0.12803197,-0.05746084,-9.921572,1.3694834
6.187857,4.828596,-0.07000581,0.20619535,0.12803197,-0.05746084,-9.921572,1.3694834
6.1881347,4.8285885,-0.06894055,0.19447745,0.13335828,-0.110133275,-9.792285,1.5275006
6.1884117,4.8285813,-0.06894055,0.19447745,0.13335828,-0.110133275,-9.792285,1.5275006
6.188692,4.828575,-0.06681002,0.17956375,0.1386846,0.033518825,-9.811439,1.484405
6.188972,4.8285694,-0.06681002,0.17956375,0.1386846,0.033518825,-9.811439,1.484405
6.18926,4.828558,-0.06361423,0.16465004,0.14188041,0.07182605,-9.89763,1.412579
6.1895475,4.8285456,-0.06361423,0.16465004,0.14188041,0.07182605,-9.89763,1.412579
6.18984,4.8285265,-0.0614837,0.1508016,0.14401093,0.01436521,-9.950302,1.3694834
6.1901317,4.8285074,-0.0614837,0.1508016,0.14401093,0.01436521,-9.950302,1.3694834
6.1904206,4.8284984,-0.05935317,0.13695318,0.14720672,-0.009576807,-9.983821,1.460463
6.1907086,4.8284893,-0.05935317,0.13695318,0.14720672,-0.009576807,-9.983821,1.460463
6.190998,4.828485,-0.056157377,0.12203947,0.15146779,0.047884032,-10.0508585,1.4748282
6.1912875,4.8284807,-0.056157377,0.12203947,0.15146779,0.047884032,-10.0508585,1.4748282
6.1915803,4.8284774,-0.050831053,0.10392997,0.15572885,0.17717093,-10.04607,1.4077905
6.1918736,4.828474,-0.050831053,0.10392997,0.15572885,0.17717093,-10.04607,1.4077905
6.1921725,4.828462,-0.045504734,0.08475521,0.1567941,0.2633622,-10.04607,1.3072342
6.1924715,4.82845,-0.045504734,0.08475521,0.1567941,0.2633622,-10.04607,1.3072342
6.192757,4.828456,-0.041243672,0.06877624,0.15466358,0.25857377,-10.041282,1.3982137
6.1930437,4.8284626,-0.041243672,0.06877624,0.15466358,0.25857377,-10.041282,1.3982137
6.1933255,4.8284693,-0.03698262,0.053862542,0.15040252,0.29209262,-10.0269165,1.3694834
6.193607,4.8284764,-0.03698262,0.053862542,0.15040252,0.29209262,-10.0269165,1.3694834
6.193885,4.8284817,-0.034852087,0.040014103,0.14614145,0.30645782,-10.007763,1.3455414
6.1941624,4.828487,-0.034852087,0.040014103,0.14614145,0.30645782,-10.007763,1.3455414
6.1944194,4.8285084,-0.033786822,0.02723093,0.13974987,0.30645782,-9.940725,1.436521
6.1946764,4.82853,-0.033786822,0.02723093,0.13974987,0.30645782,-9.940725,1.436521
6.194931,4.82854,-0.033786822,0.013382491,0.13016249,0.31124622,-9.916783,1.3599066
6.195186,4.8285494,-0.033786822,0.013382491,0.13016249,0.31124622,-9.916783,1.3599066
6.195421,4.8285713,-0.033786822,0.0005993177,0.12270564,0.34955344,-9.873688,1.4173675
6.195656,4.828593,-0.033786822,0.0005993177,0.12270564,0.34955344,-9.873688,1.4173675
6.1958766,4.8286185,-0.032721557,-0.011118591,0.11418352,0.39264908,-9.840169,1.4173675
6.196097,4.8286448,-0.032721557,-0.011118591,0.11418352,0.39264908,-9.840169,1.4173675
6.1963162,4.8286605,-0.032721557,-0.0228365,0.104596145,0.36870706,-9.835381,1.364695
6.1965356,4.828676,-0.032721557,-0.0228365,0.104596145,0.36870706,-9.835381,1.364695
6.196739,4.8286977,-0.032721557,-0.033489145,0.09607403,0.3878607,-9.854534,1.3982137
6.1969423,4.828719,-0.032721557,-0.033489145,0.09607403,0.3878607,-9.854534,1.3982137
6.1971364,4.828741,-0.032721557,-0.044141788,0.089682445,0.40222588,-9.849746,1.3982137
6.19733,4.8287635,-0.032721557,-0.044141788,0.089682445,0.40222588,-9.849746,1.3982137
6.197521,4.8287773,-0.032721557,-0.05372917,0.08009506,0.44532153,-9.844957,1.3311762
6.1977124,4.8287916,-0.032721557,-0.05372917,0.08009506,0.44532153,-9.844957,1.3311762
6.1978946,4.828804,-0.033786822,-0.064381815,0.07263821,0.45489833,-9.892841,1.3359646
6.1980762,4.8288164,-0.033786822,-0.064381815,0.07263821,0.45489833,-9.892841,1.3359646
6.198269,4.8288,-0.033786822,-0.07290393,0.06624663,0.45968673,-9.883265,1.2258313
6.198461,4.828784,-0.033786822,-0.07290393,0.06624663,0.45968673,-9.883265,1.2258313
6.19862,4.828802,-0.034852087,-0.08036078,0.058789775,0.49320555,-9.825804,1.340753
6.198778,4.82882,-0.034852087,-0.08036078,0.058789775,0.49320555,-9.825804,1.340753
6.198947,4.828819,-0.035917353,-0.08675237,0.05346345,0.49320555,-9.821015,1.2641385
6.1991158,4.8288174,-0.035917353,-0.08675237,0.05346345,0.49320555,-9.821015,1.2641385
6.1992598,4.828836,-0.03698262,-0.093143955,0.049202394,0.5746084,-9.830592,1.3072342
6.1994033,4.828855,-0.03698262,-0.093143955,0.049202394,0.5746084,-9.830592,1.3072342
6.199545,4.828868,-0.03804788,-0.09847028,0.042810805,0.60812724,-9.816227,1.2689269
6.1996865,4.8288813,-0.03804788,-0.09847028,0.042810805,0.60812724,-9.816227,1.2689269
6.1998315,4.828884,-0.04017841,-0.10273133,0.03854975,0.60333884,-9.80665,1.2449849
6.1999764,4.828887,-0.04017841,-0.10273133,0.03854975,0.60333884,-9.80665,1.2449849
6.200108,4.8288956,-0.043374203,-0.106992394,0.035353955,0.6655881,-9.854534,1.2449849
6.2002397,4.8289046,-0.043374203,-0.106992394,0.035353955,0.6655881,-9.854534,1.2449849
6.2003384,4.8289337,-0.043374203,-0.110188186,0.033223428,0.6847417,-9.816227,1.292869
6.2004366,4.8289623,-0.043374203,-0.110188186,0.033223428,0.6847417,-9.816227,1.292869
6.2005215,4.8289943,-0.04443947,-0.11444924,0.02896237,0.7230489,-9.830592,1.2737153
6.200606,4.829026,-0.04443947,-0.11444924,0.02896237,0.7230489,-9.830592,1.2737153
6.2006392,4.8290687,-0.045504734,-0.1187103,0.025766576,0.79487497,-9.835381,1.2689269
6.2006726,4.829111,-0.045504734,-0.1187103,0.025766576,0.79487497,-9.835381,1.2689269
6.2006774,4.829155,-0.045504734,-0.12084083,0.022570781,0.8283938,-9.859323,1.316811
6.200682,4.829199,-0.045504734,-0.12084083,0.022570781,0.8283938,-9.859323,1.316811
6.200661,4.8292403,-0.045504734,-0.12084083,0.021505518,0.842759,-9.888053,1.2258313
6.2006407,4.8292828,-0.045504734,-0.12084083,0.021505518,0.842759,-9.888053,1.2258313
6.200603,4.829323,-0.04443947,-0.1187103,0.019374989,0.8619126,-9.940725,1.2401965
6.2005653,4.8293633,-0.04443947,-0.1187103,0.019374989,0.8619126,-9.940725,1.2401965
6.200482,4.8293877,-0.043374203,-0.11764504,0.018309724,0.90021986,-9.940725,1.2306197
6.2003984,4.8294125,-0.043374203,-0.11764504,0.018309724,0.90021986,-9.940725,1.2306197
6.2003164,4.8294396,-0.041243672,-0.11551451,0.018309724,0.9720459,-9.998186,1.2976574
6.200235,4.829467,-0.041243672,-0.11551451,0.018309724,0.9720459,-9.998186,1.2976574
6.2001553,4.829498,-0.04017841,-0.11231872,0.016179197,0.9768343,-10.031705,1.3120226
6.2000756,4.829529,-0.04017841,-0.11231872,0.016179197,0.9768343,-10.031705,1.3120226
6.199975,4.829549,-0.03804788,-0.109122925,0.016179197,1.043872,-10.065224,1.3120226
6.199875,4.829568,-0.03804788,-0.109122925,0.016179197,1.043872,-10.065224,1.3120226
6.19975,4.8295565,-0.033786822,-0.105927125,0.020440254,1.0869676,-10.0987425,1.2449849
6.199625,4.8295455,-0.033786822,-0.105927125,0.020440254,1.0869676,-10.0987425,1.2449849
6.1995234,4.8295646,-0.0284605,-0.10060081,0.025766576,1.0295067,-10.089166,1.2737153
6.1994214,4.8295836,-0.0284605,-0.10060081,0.025766576,1.0295067,-10.089166,1.2737153
6.1993237,4.829605,-0.02313418,-0.093143955,0.032158162,1.0821792,-10.079589,1.2880806
6.199226,4.8296266,-0.02313418,-0.093143955,0.032158162,1.0821792,-10.079589,1.2880806
6.199125,4.829643,-0.017807856,-0.0856871,0.03641922,1.0965444,-10.060435,1.2641385
6.1990237,4.829659,-0.017807856,-0.0856871,0.03641922,1.0965444,-10.060435,1.2641385
6.198925,4.829675,-0.013546798,-0.078230254,0.040680278,1.091756,-9.988609,1.2449849
6.198826,4.8296914,-0.013546798,-0.078230254,0.040680278,1.091756,-9.988609,1.2449849
6.1987295,4.8297014,-0.009285741,-0.0707734,0.047071867,1.0821792,-9.935937,1.2162545
6.1986327,4.829712,-0.009285741,-0.0707734,0.047071867,1.0821792,-9.935937,1.2162545
6.1985464,4.8297405,-0.0039594183,-0.060120758,0.05026766,1.0773908,-9.89763,1.2354081
6.19846,4.829769,-0.0039594183,-0.060120758,0.05026766,1.0773908,-9.89763,1.2354081
6.198366,4.829769,-0.0007636249,-0.050533377,0.052398186,1.0965444,-9.864111,1.1731589
6.198272,4.829769,-0.0007636249,-0.050533377,0.052398186,1.0965444,-9.864111,1.1731589
6.1982107,4.829825,0.001366904,-0.040945996,0.056659244,1.0773908,-9.873688,1.283292
6.198147,4.8298826,0.001366904,-0.040945996,0.056659244,1.0773908,-9.873688,1.283292
6.198106,4.8299475,0.0045626974,-0.03242388,0.0609203,1.0582372,-9.792285,1.3024458
6.198059,4.83002,0.0045626974,-0.03242388,0.0609203,1.0582372,-9.792285,1.3024458
6.198059,4.83002,0.0045626974,-0.03242388,0.0609203,1.0582372,-9.792285,1.3024458
6.1979604,4.830166,0.0066932263,-0.014314385,0.0641161,1.067814,-9.730036,1.2258313
6.1979423,4.8301783,0.0066932263,-0.014314385,0.0641161,1.067814,-9.730036,1.2258313
6.197879,4.8302236,0.0066932263,-0.014314385,0.0641161,1.067814,-9.730036,1.2258313
6.1977973,4.8303385,0.0066932263,-0.0068575335,0.0641161,1.0534488,-9.691729,1.2689269
6.1977973,4.8303385,0.0066932263,-0.0068575335,0.0641161,1.0534488,-9.691729,1.2689269
6.197654,4.830398,0.005627962,0.0016645822,0.0641161,1.067814,-9.662998,1.1875241
6.1975865,4.8304257,0.005627962,0.0016645822,0.0641161,1.067814,-9.662998,1.1875241
6.1975865,4.8304257,0.005627962,0.0016645822,0.0641161,1.067814,-9.662998,1.1875241
6.197476,4.830536,0.003497433,0.009121433,0.061985567,1.0151415,-9.672575,1.2258313
6.197415,4.830585,0.001366904,0.01551302,0.059855036,0.91937345,-9.648633,1.1779473
6.1973524,4.8306346,0.001366904,0.01551302,0.059855036,0.91937345,-9.648633,1.1779473
6.197303,4.830698,-0.0007636249,0.020839343,0.056659244,0.94331545,-9.624691,1.2066777
6.1972547,4.8307595,-0.0007636249,0.020839343,0.056659244,0.94331545,-9.624691,1.2066777
6.1972504,4.8308463,-0.0039594183,0.026165664,0.055593982,0.8858546,-9.639056,1.2162545
6.1972456,4.8309364,-0.0039594183,0.026165664,0.055593982,0.8858546,-9.639056,1.2162545
6.197169,4.8308992,-0.0071552116,0.030426722,0.052398186,0.89064306,-9.639056,1.1348516
6.197092,4.8308625,-0.0071552116,0.030426722,0.052398186,0.89064306,-9.639056,1.1348516
6.1971083,4.830951,-0.009285741,0.033622514,0.05026766,0.8714894,-9.639056,1.2306197
6.1971235,4.8310404,-0.009285741,0.033622514,0.05026766,0.8714894,-9.639056,1.2306197
6.197071,4.8310986,-0.012481534,0.035753045,0.0460066,0.89543146,-9.643845,1.1875241
6.1970177,4.8311567,-0.012481534,0.035753045,0.0460066,0.89543146,-9.643845,1.1875241
6.1970205,4.8312407,-0.013546798,0.037883572,0.042810805,0.8810662,-9.696517,1.2354081
6.1970224,4.831324,-0.013546798,0.037883572,0.042810805,0.8810662,-9.696517,1.2354081
6.1970882,4.831411,-0.014612063,0.038948838,0.040680278,0.842759,-9.758766,1.1971009
6.197152,4.831498,-0.014612063,0.038948838,0.040680278,0.842759,-9.758766,1.1971009
6.1972,4.8315825,-0.017807856,0.038948838,0.03641922,0.8475474,-9.763555,1.1779473
6.1972423,4.8316674,-0.017807856,0.038948838,0.03641922,0.8475474,-9.763555,1.1779473
6.197384,4.831582,-0.019938385,0.040014103,0.035353955,0.78529817,-9.787497,1.1300632
6.197526,4.831496,-0.019938385,0.040014103,0.035353955,0.78529817,-9.787497,1.1300632
6.197698,4.8315024,-0.021003649,0.040014103,0.032158162,0.79487497,-9.801862,1.1827357
6.1978693,4.8315105,-0.021003649,0.040014103,0.032158162,0.79487497,-9.801862,1.1827357
6.198043,4.831505,-0.021003649,0.04107937,0.030027634,0.79008657,-9.801862,1.1779473
6.1982164,4.8314996,-0.021003649,0.04107937,0.030027634,0.79008657,-9.801862,1.1779473
6.1983285,4.831564,-0.019938385,0.04107937,0.027897105,0.7517793,-9.797073,1.2641385
6.1984406,4.831629,-0.019938385,0.04107937,0.027897105,0.7517793,-9.797073,1.2641385
6.1986103,4.83162,-0.021003649,0.04214463,0.025766576,0.6799533,-9.749189,1.1779473
6.19878,4.8316116,-0.021003649,0.04214463,0.025766576,0.6799533,-9.749189,1.1779473
6.198886,4.831676,-0.022068914,0.04214463,0.025766576,0.7230489,-9.792285,1.2976574
6.198992,4.831741,-0.022068914,0.04214463,0.025766576,0.7230489,-9.792285,1.2976574
6.1991296,4.8317804,-0.02313418,0.043209895,0.021505518,0.6799533,-9.753978,1.2497733
6.199267,4.8318205,-0.02313418,0.043209895,0.021505518,0.6799533,-9.753978,1.2497733
6.199386,4.831871,-0.02313418,0.043209895,0.01724446,0.6560113,-9.739613,1.292869
6.1995053,4.831922,-0.02313418,0.043209895,0.01724446,0.6560113,-9.739613,1.292869
6.199645,4.831949,-0.025264706,0.040014103,0.014048667,0.6560113,-9.725247,1.2354081
6.1997848,4.8319764,-0.025264706,0.040014103,0.014048667,0.6560113,-9.725247,1.2354081
6.199901,4.832019,-0.026329972,0.037883572,0.008722344,0.62728083,-9.730036,1.292869
6.2000175,4.832062,-0.026329972,0.037883572,0.008722344,0.62728083,-9.730036,1.292869
6.20013,4.8321033,-0.027395237,0.03468778,0.0044612866,0.6368576,-9.720459,1.283292
6.2002425,4.8321447,-0.027395237,0.03468778,0.0044612866,0.6368576,-9.720459,1.283292
6.200354,4.8321795,-0.029525764,0.028296193,0.00020022877,0.56982,-9.730036,1.3120226
6.2004657,4.8322144,-0.029525764,0.028296193,0.00020022877,0.56982,-9.730036,1.3120226
6.200561,4.832256,-0.03059103,0.022969872,-0.0051260935,0.5650316,-9.677363,1.340753
6.200657,4.8322973,-0.03059103,0.022969872,-0.0051260935,0.5650316,-9.677363,1.340753
6.2007546,4.8323317,-0.03059103,0.014447756,-0.010452416,0.58418524,-9.691729,1.3024458
6.200852,4.8323665,-0.03059103,0.014447756,-0.010452416,0.58418524,-9.691729,1.3024458
6.2009497,4.832395,-0.03059103,0.00592564,-0.015778739,0.58418524,-9.715671,1.2880806
6.2010465,4.832423,-0.03059103,0.00592564,-0.015778739,0.58418524,-9.715671,1.2880806
6.201118,4.8324666,-0.029525764,-0.0015312112,-0.022170324,0.63206923,-9.65821,1.2976574
6.2011895,4.832511,-0.029525764,-0.0015312112,-0.022170324,0.63206923,-9.65821,1.2976574
6.201244,4.8325596,-0.029525764,-0.007922798,-0.028561912,0.63206923,-9.68694,1.3311762
6.2012978,4.8326087,-0.029525764,-0.007922798,-0.028561912,0.63206923,-9.68694,1.3311762
6.201354,4.832652,-0.029525764,-0.015379649,-0.034953497,0.641646,-9.734824,1.3072342
6.20141,4.832695,-0.029525764,-0.015379649,-0.034953497,0.641646,-9.734824,1.3072342
6.2014256,4.832754,-0.029525764,-0.0228365,-0.039214555,0.6607997,-9.710882,1.3982137
6.2014413,4.8328133,-0.029525764,-0.0228365,-0.039214555,0.6607997,-9.710882,1.3982137
6.2014475,4.832873,-0.029525764,-0.028162822,-0.046671405,0.6751649,-9.691729,1.3790601
6.2014537,4.832932,-0.029525764,-0.028162822,-0.046671405,0.6751649,-9.691729,1.3790601
6.2014904,4.8329725,-0.029525764,-0.033489145,-0.05412826,0.6464345,-9.720459,1.2976574
6.201527,4.8330135,-0.029525764,-0.033489145,-0.05412826,0.6464345,-9.720459,1.2976574
6.201574,4.833045,-0.027395237,-0.03881547,-0.05732405,0.58418524,-9.710882,1.3024458
6.20162,4.8330774,-0.027395237,-0.03881547,-0.05732405,0.58418524,-9.710882,1.3024458
6.201641,4.833123,-0.027395237,-0.044141788,-0.062650375,0.61770403,-9.710882,1.3359646
6.201662,4.833169,-0.027395237,-0.044141788,-0.062650375,0.61770403,-9.710882,1.3359646
6.201692,4.833205,-0.027395237,-0.050533377,-0.06691143,0.58418524,-9.753978,1.3263878
6.2017226,4.8332405,-0.027395237,-0.050533377,-0.06691143,0.58418524,-9.753978,1.3263878
6.20175,4.833277,-0.026329972,-0.0558597,-0.06904196,0.63206923,-9.710882,1.2880806
6.2017775,4.8333135,-0.026329972,-0.0558597,-0.06904196,0.63206923,-9.710882,1.2880806
6.201799,4.833357,-0.02313418,-0.060120758,-0.06904196,0.59855044,-9.710882,1.3263878
6.2018204,4.8334002,-0.02313418,-0.060120758,-0.06904196,0.59855044,-9.710882,1.3263878
6.201854,4.833436,-0.021003649,-0.064381815,-0.0679767,0.61291564,-9.725247,1.2880806
6.2018876,4.833472,-0.021003649,-0.064381815,-0.0679767,0.61291564,-9.725247,1.2880806
6.2019114,4.83352,-0.017807856,-0.06757761,-0.06584617,0.62728083,-9.691729,1.3024458
6.2019353,4.8335676,-0.017807856,-0.06757761,-0.06584617,0.62728083,-9.691729,1.3024458
6.2019515,4.8336225,-0.015677327,-0.0707734,-0.06584617,0.6512229,-9.696517,1.3024458
6.201968,4.833677,-0.015677327,-0.0707734,-0.06584617,0.6512229,-9.696517,1.3024458
6.2020063,4.833718,-0.012481534,-0.07609972,-0.064780906,0.6799533,-9.710882,1.2449849
6.2020454,4.8337584,-0.012481534,-0.07609972,-0.064780906,0.6799533,-9.710882,1.2449849
6.2020454,4.833827,-0.010351005,-0.079295516,-0.062650375,0.7134721,-9.691729,1.2785037
6.2020454,4.8338957,-0.010351005,-0.079295516,-0.062650375,0.7134721,-9.691729,1.2785037
6.2020535,4.8339663,-0.006089947,-0.08462184,-0.059454583,0.7086837,-9.65821,1.2689269
6.202061,4.834036,-0.006089947,-0.08462184,-0.059454583,0.7086837,-9.65821,1.2689269
6.202132,4.834049,-0.0028941538,-0.08675237,-0.05519352,0.7422025,-9.648633,1.1875241
6.2022033,4.8340626,-0.0028941538,-0.08675237,-0.05519352,0.7422025,-9.648633,1.1875241
6.2022424,4.834124,0.001366904,-0.08888289,-0.053062994,0.7374141,-9.662998,1.2162545
6.202282,4.8341856,0.001366904,-0.08888289,-0.053062994,0.7374141,-9.662998,1.2162545
6.202244,4.834285,0.0045626974,-0.091013424,-0.050932467,0.770933,-9.624691,1.2401965
6.2022076,4.834383,0.0045626974,-0.091013424,-0.050932467,0.770933,-9.624691,1.2401965
6.2022214,4.834281,0.005627962,-0.093143955,-0.0498672,0.7565677,-9.615114,1.1444284
6.202232,4.834214,0.005627962,-0.093143955,-0.0498672,0.7565677,-9.615114,1.1444284
6.202087,4.834138,0.0077584907,-0.095274486,-0.045606144,0.80924016,-9.576807,1.1492168
6.201943,4.8340607,0.0077584907,-0.095274486,-0.045606144,0.80924016,-9.576807,1.1492168
6.20175,4.834073,0.010954284,-0.09740501,-0.04241035,0.8283938,-9.572019,1.1731589
6.2015567,4.8340855,0.010954284,-0.09740501,-0.04241035,0.8283938,-9.572019,1.1731589
6.201416,4.8340144,0.012019549,-0.09740501,-0.03814929,0.866701,-9.600749,1.1109096
6.2012734,4.833942,0.012019549,-0.09740501,-0.03814929,0.866701,-9.600749,1.1109096
6.201095,4.8339195,0.0141500775,-0.09847028,-0.034953497,0.8714894,-9.552865,1.1492168
6.200915,4.8338966,0.0141500775,-0.09847028,-0.034953497,0.8714894,-9.552865,1.1492168
6.200788,4.833828,0.017345872,-0.09847028,-0.03069244,0.8762778,-9.519346,1.0821792
6.2006607,4.8337584,0.017345872,-0.09847028,-0.03069244,0.8762778,-9.519346,1.0821792
6.200481,4.833761,0.019476399,-0.09847028,-0.028561912,0.94810385,-9.5385,1.1540052
6.2003007,4.833764,0.019476399,-0.09847028,-0.028561912,0.94810385,-9.5385,1.1540052
6.2001357,4.8337307,0.020541664,-0.09847028,-0.029627176,0.9720459,-9.528923,1.0965444
6.1999707,4.8336964,0.020541664,-0.09847028,-0.029627176,0.9720459,-9.528923,1.0965444
6.1997952,4.8336835,0.020541664,-0.09633975,-0.028561912,0.9911995,-9.461885,1.115698
6.1996207,4.83367,0.020541664,-0.09633975,-0.028561912,0.9911995,-9.461885,1.115698
6.1994514,4.833646,0.019476399,-0.09420922,-0.027496647,0.9768343,-9.514558,1.1109096
6.1992826,4.833621,0.019476399,-0.09420922,-0.027496647,0.9768343,-9.514558,1.1109096
6.1991034,4.8336277,0.019476399,-0.09207869,-0.028561912,1.0151415,-9.466674,1.1444284
6.198924,4.8336334,0.019476399,-0.09207869,-0.028561912,1.0151415,-9.466674,1.1444284
