Pitch,Roll,Gyro_X,Gyro_Y,Gyro_Z,Accel_X,Accel_Y,Accel_Z
6.22661,4.9095397,0.16222183,0.51725256,0.2228405,0.30645782,-10.012551,2.4133554
6.2273912,4.9100986,0.16754816,0.51725256,0.22177523,0.2777274,-9.9550905,2.3558946
6.2277923,4.910374,0.17180921,0.5183178,0.22070996,0.19632454,-9.92636,2.3463178
6.2281933,4.9106503,0.17180921,0.5183178,0.22070996,0.19632454,-9.92636,2.3463178
6.228596,4.9109263,0.175005,0.5183178,0.21644892,0.20590134,-9.911995,2.2984335
6.229,4.9112024,0.175005,0.5183178,0.21644892,0.20590134,-9.911995,2.2984335
6.229405,4.9114766,0.17820081,0.51938313,0.21112259,0.1436521,-9.811439,2.27928
6.229811,4.9117513,0.17820081,0.51938313,0.21112259,0.1436521,-9.811439,2.27928
6.23021,4.912028,0.17926607,0.5183178,0.20579627,0.095768064,-9.80665,2.327164
6.2306085,4.912304,0.17926607,0.5183178,0.20579627,0.095768064,-9.80665,2.327164
6.23101,4.9125733,0.18033133,0.51725256,0.19940469,0.04309563,-9.763555,2.2840683
6.231414,4.912843,0.18033133,0.51725256,0.19940469,0.04309563,-9.763555,2.2840683
6.231814,4.913109,0.17820081,0.51512206,0.19514363,-0.019153614,-9.691729,2.2936451
6.232214,4.913374,0.17820081,0.51512206,0.19514363,-0.019153614,-9.691729,2.2936451
6.232618,4.9136314,0.17820081,0.510861,0.19194783,-0.1436521,-9.691729,2.2984335
6.2330227,4.913889,0.17820081,0.510861,0.19194783,-0.1436521,-9.691729,2.2984335
6.2334213,4.9141474,0.17926607,0.50340414,0.18875204,-0.18195933,-9.615114,2.3127987
6.2338195,4.914406,0.17926607,0.50340414,0.18875204,-0.18195933,-9.615114,2.3127987
6.2342215,4.9146566,0.18033133,0.4959473,0.18555625,-0.24899697,-9.56723,2.255338
6.2346244,4.9149065,0.18033133,0.4959473,0.18555625,-0.24899697,-9.56723,2.255338
6.23502,4.9151587,0.18033133,0.48529464,0.18449098,-0.25378537,-9.5385,2.27928
6.2354164,4.9154105,0.18033133,0.48529464,0.18449098,-0.25378537,-9.5385,2.27928
6.2358246,4.915644,0.18033133,0.47357672,0.18342571,-0.2873042,-9.490616,2.1404164
6.2362304,4.915876,0.18033133,0.47357672,0.18342571,-0.2873042,-9.490616,2.1404164
6.236631,4.9161153,0.18033133,0.4597283,0.18449098,-0.2777274,-9.423578,2.1787236
6.237032,4.9163547,0.18033133,0.4597283,0.18449098,-0.2777274,-9.423578,2.1787236
6.237422,4.9165964,0.17820081,0.4448146,0.18129519,-0.2825158,-9.356541,2.207454
6.237813,4.916838,0.17820081,0.4448146,0.18129519,-0.2825158,-9.356541,2.207454
6.2381988,4.9170685,0.17393975,0.42777038,0.17596887,-0.23942018,-9.251195,2.1308396
6.2385855,4.9172993,0.17393975,0.42777038,0.17596887,-0.23942018,-9.251195,2.1308396
6.238962,4.917516,0.16754816,0.41072613,0.16638148,-0.2777274,-9.150639,2.0829554
6.2393394,4.917733,0.16754816,0.41072613,0.16638148,-0.2777274,-9.150639,2.0829554
6.239698,4.917941,0.15689552,0.39048612,0.15253304,-0.22505496,-9.054871,2.0638018
6.2400565,4.9181485,0.15689552,0.39048612,0.15253304,-0.22505496,-9.054871,2.0638018
6.2403946,4.9183445,0.1451776,0.36918083,0.13655408,-0.2825158,-9.021352,2.078167
6.2407327,4.9185395,0.1451776,0.36918083,0.13655408,-0.2825158,-9.021352,2.078167
6.2410545,4.918705,0.13239443,0.3489408,0.11631405,-0.30166942,-8.954314,1.9728222
6.2413764,4.91887,0.13239443,0.3489408,0.11631405,-0.30166942,-8.954314,1.9728222
6.241672,4.9190254,0.118545994,0.325505,0.09607403,-0.25378537,-8.90643,1.982399
6.241968,4.9191804,0.118545994,0.325505,0.09607403,-0.25378537,-8.90643,1.982399
6.242248,4.9193044,0.104697555,0.30206916,0.08116033,-0.33518824,-8.868123,1.9009962
6.242529,4.919428,0.104697555,0.30206916,0.08116033,-0.33518824,-8.868123,1.9009962
6.2427864,4.9195437,0.089783855,0.27756807,0.0641161,-0.31603462,-8.834604,1.934515
6.243044,4.9196596,0.089783855,0.27756807,0.0641161,-0.31603462,-8.834604,1.934515
6.2432766,4.9197626,0.074870154,0.25200173,0.044941336,-0.272939,-8.844181,1.9488802
6.2435093,4.9198656,0.074870154,0.25200173,0.044941336,-0.272939,-8.844181,1.9488802
6.2437196,4.9199514,0.05995645,0.22750065,0.024701312,-0.30166942,-8.8777,1.9488802
6.243939,4.92004,0.05995645,0.22750065,0.024701312,-0.30166942,-8.8777,1.9488802
6.2441216,4.9201026,0.04610801,0.2019343,0.0065918155,-0.33997664,-8.863335,1.9201498
6.2443037,4.920165,0.04610801,0.2019343,0.0065918155,-0.33997664,-8.863335,1.9201498
6.244467,4.9202156,0.031194309,0.17636795,-0.01151768,-0.272939,-8.858546,1.9249382
6.2446294,4.920265,0.031194309,0.17636795,-0.01151768,-0.272939,-8.858546,1.9249382
6.2447724,4.9202976,0.017345872,0.15293214,-0.028561912,-0.23463176,-8.896853,1.9153614
6.244915,4.92033,0.017345872,0.15293214,-0.028561912,-0.23463176,-8.896853,1.9153614
6.2450376,4.9203506,0.005627962,0.12843105,-0.043475613,-0.272939,-8.844181,1.910573
6.245161,4.920371,0.005627962,0.12843105,-0.043475613,-0.272939,-8.844181,1.910573
6.2452607,4.9203978,-0.006089947,0.1060605,-0.056258786,-0.2825158,-8.911219,2.0159178
6.2453613,4.9204235,-0.006089947,0.1060605,-0.056258786,-0.2825158,-8.911219,2.0159178
6.245449,4.920423,-0.015677327,0.08368994,-0.06904196,-0.272939,-9.011775,1.9536686
6.2455378,4.920422,-0.015677327,0.08368994,-0.06904196,-0.272939,-9.011775,1.9536686
6.2456083,4.9204235,-0.025264706,0.06451519,-0.07969461,-0.2681506,-9.006987,2.0111294
6.245679,4.920425,-0.025264706,0.06451519,-0.07969461,-0.2681506,-9.006987,2.0111294
6.2457385,4.920413,-0.034852087,0.04427516,-0.08715145,-0.272939,-9.021352,2.0015526
6.2457995,4.9204016,-0.034852087,0.04427516,-0.08715145,-0.272939,-9.021352,2.0015526
6.2458467,4.920388,-0.043374203,0.0251004,-0.092477776,-0.25857377,-9.131485,2.0590134
6.245895,4.920375,-0.043374203,0.0251004,-0.092477776,-0.25857377,-9.131485,2.0590134
6.2459464,4.920322,-0.050831053,0.0069909045,-0.092477776,-0.2681506,-9.184157,1.9297266
6.245997,4.920271,-0.050831053,0.0069909045,-0.092477776,-0.2681506,-9.184157,1.9297266
6.246042,4.9202085,-0.057222642,-0.010053327,-0.09460831,-0.23463176,-9.241618,1.9249382
6.246087,4.9201465,-0.057222642,-0.010053327,-0.09460831,-0.23463176,-9.241618,1.9249382
6.246124,4.920054,-0.06361423,-0.027097559,-0.09460831,-0.16280572,-9.270349,1.8435353
6.246124,4.920054,-0.06361423,-0.027097559,-0.09460831,-0.16280572,-9.270349,1.8435353
6.2461953,4.9198575,-0.06894055,-0.044141788,-0.093543045,-0.11492168,-9.332599,1.8339585
6.2461953,4.9198575,-0.06894055,-0.044141788,-0.093543045,-0.11492168,-9.332599,1.8339585
6.2462564,4.919649,-0.07320161,-0.059055492,-0.093543045,-0.047884032,-9.380483,1.8818425
6.246288,4.9195414,-0.07320161,-0.059055492,-0.093543045,-0.047884032,-9.380483,1.8818425
6.246288,4.9195414,-0.07320161,-0.059055492,-0.093543045,-0.009576807,-9.399636,1.8387469
6.2463074,4.919401,-0.077462666,-0.07396919,-0.09460831,-0.009576807,-9.399636,1.8387469
6.2463074,4.919401,-0.077462666,-0.07396919,-0.09460831,-0.009576807,-9.399636,1.8387469
6.2463074,4.919401,-0.077462666,-0.07396919,-0.09460831,-0.009576807,-9.399636,1.8387469
6.246337,4.9188952,-0.08172372,-0.09953554,-0.09673884,0.08140286,-9.428367,1.9201498
6.2463593,4.918773,-0.08172372,-0.09953554,-0.09673884,0.08140286,-9.428367,1.9201498
6.246374,4.9186587,-0.08172372,-0.110188186,-0.09886937,0.14844051,-9.461885,1.934515
6.2463894,4.9185452,-0.08172372,-0.110188186,-0.09886937,0.14844051,-9.461885,1.934515
6.2463956,4.918422,-0.08278899,-0.121906094,-0.10206516,0.21068975,-9.44752,1.934515
6.246402,4.9183,-0.08278899,-0.121906094,-0.10206516,0.21068975,-9.44752,1.934515
6.246407,4.9182405,-0.08278899,-0.13255873,-0.104195684,0.17717093,-9.471462,2.0159178
6.246412,4.9181824,-0.08278899,-0.13255873,-0.104195684,0.17717093,-9.471462,2.0159178
6.24638,4.9180245,-0.08278899,-0.14001559,-0.106326215,0.21547815,-9.519346,1.8866309
6.246349,4.9178677,-0.08278899,-0.14001559,-0.106326215,0.21547815,-9.519346,1.8866309
6.2463245,4.9177184,-0.08278899,-0.14640717,-0.106326215,0.31603462,-9.56723,1.9680338
6.246302,4.9175706,-0.08278899,-0.14640717,-0.106326215,0.31603462,-9.56723,1.9680338
6.2462683,4.9175496,-0.08491952,-0.1517335,-0.106326215,0.2825158,-9.624691,2.0590134
6.2462344,4.9175286,-0.08491952,-0.1517335,-0.106326215,0.2825158,-9.624691,2.0590134
6.246224,4.9174013,-0.08385425,-0.1549293,-0.11058728,0.34476504,-9.672575,2.006341
6.2462173,4.9172816,-0.08385425,-0.1549293,-0.11058728,0.34476504,-9.672575,2.006341
6.2460814,4.917294,-0.08278899,-0.15599456,-0.11165254,0.36391866,-9.696517,2.0685902
6.2459483,4.917306,-0.08278899,-0.15599456,-0.11165254,0.36391866,-9.696517,2.0685902
6.245748,4.9171295,-0.08172372,-0.1549293,-0.11058728,0.38307226,-9.744401,2.006341
6.2455516,4.9169517,-0.08172372,-0.1549293,-0.11058728,0.38307226,-9.744401,2.006341
6.245453,4.9169645,-0.07852793,-0.1517335,-0.108456746,0.36870706,-9.768343,2.0446482
6.245359,4.916976,-0.07852793,-0.1517335,-0.108456746,0.36870706,-9.768343,2.0446482
6.2452955,4.916807,-0.076397404,-0.14853771,-0.104195684,0.35434186,-9.797073,2.0015526
6.245237,4.9166403,-0.076397404,-0.14853771,-0.104195684,0.35434186,-9.797073,2.0015526
6.245053,4.9164667,-0.07320161,-0.14321138,-0.09886937,0.3878607,-9.868899,2.0350714
6.244886,4.9162984,-0.07320161,-0.14321138,-0.09886937,0.3878607,-9.868899,2.0350714
6.244714,4.916132,-0.06894055,-0.13575453,-0.095673576,0.41180268,-9.883265,1.9967642
6.2445426,4.9159656,-0.06894055,-0.13575453,-0.095673576,0.41180268,-9.883265,1.9967642
6.244529,4.915827,-0.06361423,-0.12829769,-0.08928198,0.34955344,-9.911995,2.0159178
6.244517,4.9156895,-0.06361423,-0.12829769,-0.08928198,0.34955344,-9.911995,2.0159178
6.244505,4.9157014,-0.058287904,-0.1187103,-0.08395566,0.37828386,-9.892841,2.0494366
6.244494,4.9157124,-0.058287904,-0.1187103,-0.08395566,0.37828386,-9.892841,2.0494366
6.244534,4.915656,-0.05189632,-0.109122925,-0.078629345,0.3878607,-9.940725,2.0494366
6.244573,4.915616,-0.05189632,-0.109122925,-0.078629345,0.3878607,-9.940725,2.0494366
6.244493,4.915668,-0.04443947,-0.10166607,-0.07117249,0.39264908,-9.974244,2.0638018
6.244424,4.915719,-0.04443947,-0.10166607,-0.07117249,0.39264908,-9.974244,2.0638018
6.2443037,4.915776,-0.03698262,-0.09207869,-0.06584617,0.4165911,-9.964667,2.111686
6.2441854,4.9158325,-0.03698262,-0.09207869,-0.06584617,0.4165911,-9.964667,2.111686
6.2441,4.9158993,-0.03059103,-0.08462184,-0.06158511,0.40222588,-9.969456,2.1164744
6.244016,4.9159656,-0.03059103,-0.08462184,-0.06158511,0.40222588,-9.969456,2.1164744
6.243987,4.916037,-0.022068914,-0.07609972,-0.053062994,0.36391866,-9.969456,2.1499932
6.243958,4.916109,-0.022068914,-0.07609972,-0.053062994,0.36391866,-9.969456,2.1499932
6.244015,4.916147,-0.013546798,-0.06757761,-0.046671405,0.32561144,-9.959879,2.0925324
6.244073,4.916186,-0.013546798,-0.06757761,-0.046671405,0.32561144,-9.959879,2.0925324
6.2441597,4.916189,-0.0050246827,-0.059055492,-0.041345086,0.25378537,-9.9550905,2.0685902
6.244246,4.916193,-0.0050246827,-0.059055492,-0.041345086,0.25378537,-9.9550905,2.0685902
6.2443433,4.9162135,0.003497433,-0.04946811,-0.03069244,0.272939,-9.92636,2.0685902
6.2444406,4.916234,0.003497433,-0.04946811,-0.03069244,0.272939,-9.92636,2.0685902
6.244545,4.9162097,0.00988902,-0.04201126,-0.020039797,0.19153613,-9.907207,1.9967642
6.2446494,4.9161844,0.00988902,-0.04201126,-0.020039797,0.19153613,-9.907207,1.9967642
6.244755,4.916149,0.017345872,-0.033489145,-0.008321887,0.16280572,-9.911995,1.9488802
6.2448616,4.9161124,0.017345872,-0.033489145,-0.008321887,0.16280572,-9.911995,1.9488802
6.2449884,4.9160976,0.025867987,-0.026032293,0.0033960221,0.1340753,-9.840169,1.9536686
6.2451153,4.9160824,0.025867987,-0.026032293,0.0033960221,0.1340753,-9.840169,1.9536686
6.245258,4.9160748,0.032259572,-0.018575443,0.01724446,0.12449849,-9.816227,1.9488802
6.2454004,4.916067,0.032259572,-0.018575443,0.01724446,0.12449849,-9.816227,1.9488802
6.245546,4.9160485,0.03865116,-0.011118591,0.032158162,0.12928689,-9.744401,1.8914193
6.2456913,4.91603,0.03865116,-0.011118591,0.032158162,0.12928689,-9.744401,1.8914193
6.245854,4.916015,0.045042746,-0.0047270046,0.05026766,0.076614454,-9.753978,1.8579005
6.246016,4.9160004,0.045042746,-0.0047270046,0.05026766,0.076614454,-9.753978,1.8579005
6.2462015,4.9159985,0.05036907,-0.0015312112,0.06624663,0.047884032,-9.691729,1.8626889
6.2463875,4.9159966,0.05036907,-0.0015312112,0.06624663,0.047884032,-9.691729,1.8626889
6.246583,4.915999,0.056760654,0.0016645822,0.07796454,0.009576807,-9.725247,1.8435353
6.2467785,4.916001,0.056760654,0.0016645822,0.07796454,0.009576807,-9.725247,1.8435353
6.246987,4.916008,0.06315224,0.0016645822,0.09181297,0.033518825,-9.68694,1.8435353
6.2471943,4.9160147,0.06315224,0.0016645822,0.09181297,0.033518825,-9.68694,1.8435353
6.247424,4.9160357,0.06847856,0.0016645822,0.103530884,-0.04309563,-9.639056,1.8387469
6.247658,4.916057,0.06847856,0.0016645822,0.103530884,-0.04309563,-9.639056,1.8387469
6.2478833,4.9160748,0.074870154,0.0005993177,0.11524879,-0.05267244,-9.605537,1.7908629
6.248108,4.916093,0.074870154,0.0005993177,0.11524879,-0.05267244,-9.605537,1.7908629
6.2483425,4.916108,0.08019647,-0.00366174,0.12909722,0.019153614,-9.619903,1.7956513
6.2485795,4.916124,0.08019647,-0.00366174,0.12909722,0.019153614,-9.619903,1.7956513
6.248827,4.916147,0.08552279,-0.007922798,0.13974987,0.05746084,-9.576807,1.8243817
6.249073,4.91617,0.08552279,-0.007922798,0.13974987,0.05746084,-9.576807,1.8243817
6.249342,4.916209,0.089783855,-0.01324912,0.15253304,0.14844051,-9.56723,1.9009962
6.249612,4.916247,0.089783855,-0.01324912,0.15253304,0.14844051,-9.56723,1.9009962
6.249876,4.9162755,0.09511018,-0.016444914,0.16318569,0.16280572,-9.548077,1.8722657
6.2501383,4.916303,0.09511018,-0.016444914,0.16318569,0.16280572,-9.548077,1.8722657
6.250411,4.9163394,0.1004365,-0.021771235,0.16957727,0.16759412,-9.548077,1.8866309
6.2506824,4.916375,0.1004365,-0.021771235,0.16957727,0.16759412,-9.548077,1.8866309
6.250983,4.9164543,0.105762824,-0.026032293,0.17383833,0.2633622,-9.5385,1.9632454
6.2512827,4.9165297,0.105762824,-0.026032293,0.17383833,0.2633622,-9.5385,1.9632454
6.2515364,4.916556,0.10895862,-0.031358615,0.18022992,0.24420857,-9.490616,1.9009962
6.251788,4.916581,0.10895862,-0.031358615,0.18022992,0.24420857,-9.490616,1.9009962
6.251971,4.9165926,0.11428493,-0.035619672,0.18449098,0.29688102,-9.533711,1.8818425
6.252151,4.9166045,0.11428493,-0.035619672,0.18449098,0.29688102,-9.533711,1.8818425
6.2523174,4.9166207,0.118545994,-0.03881547,0.18875204,0.30645782,-9.452309,1.8866309
6.2524815,4.9166374,0.118545994,-0.03881547,0.18875204,0.30645782,-9.452309,1.8866309
6.2526608,4.916655,0.120676525,-0.040945996,0.1930131,0.29688102,-9.433155,1.8243817
6.2528386,4.9166727,0.120676525,-0.040945996,0.1930131,0.29688102,-9.433155,1.8243817
6.253035,4.9166956,0.12493758,-0.04201126,0.1930131,0.272939,-9.442732,1.8291701
6.253229,4.9167185,0.12493758,-0.04201126,0.1930131,0.272939,-9.442732,1.8291701
6.2534137,4.9167404,0.12493758,-0.040945996,0.1962089,0.2873042,-9.476251,1.7908629
6.2535973,4.9167624,0.12493758,-0.040945996,0.1962089,0.2873042,-9.476251,1.7908629
6.2537594,4.9167857,0.12387232,-0.03881547,0.20046994,0.31603462,-9.41879,1.8291701
6.2539206,4.916809,0.12387232,-0.03881547,0.20046994,0.31603462,-9.41879,1.8291701
6.254053,4.9168396,0.12387232,-0.036684938,0.20260048,0.35434186,-9.375694,1.8243817
6.254185,4.91687,0.12387232,-0.036684938,0.20260048,0.35434186,-9.375694,1.8243817
6.254309,4.9169016,0.122807056,-0.035619672,0.20046994,0.38307226,-9.337387,1.7860745
6.254433,4.9169335,0.122807056,-0.035619672,0.20046994,0.38307226,-9.337387,1.7860745
6.254575,4.9169574,0.120676525,-0.03242388,0.19833942,0.36391866,-9.356541,1.7525556
6.2547154,4.9169817,0.120676525,-0.03242388,0.19833942,0.36391866,-9.356541,1.7525556
6.2548156,4.917015,0.11641546,-0.029228088,0.1930131,0.40701428,-9.270349,1.7860745
6.254915,4.9170485,0.11641546,-0.029228088,0.1930131,0.40701428,-9.270349,1.7860745
6.254962,4.917116,0.11002388,-0.02496703,0.18342571,0.45968673,-9.299079,1.8674773
6.2550087,4.917183,0.11002388,-0.02496703,0.18342571,0.45968673,-9.299079,1.8674773
6.2550626,4.917226,0.104697555,-0.020705972,0.17383833,0.45968673,-9.246407,1.8148049
6.255116,4.917269,0.104697555,-0.020705972,0.17383833,0.45968673,-9.246407,1.8148049
6.2551317,4.917351,0.09937123,-0.018575443,0.16105516,0.4405331,-9.227253,1.8962077
6.255148,4.917432,0.09937123,-0.018575443,0.16105516,0.4405331,-9.227253,1.8962077
6.25516,4.9174848,0.091914386,-0.016444914,0.148272,0.45010993,-9.246407,1.8674773
6.2551723,4.9175367,0.091914386,-0.016444914,0.148272,0.45010993,-9.246407,1.8674773
6.255161,4.917608,0.08552279,-0.016444914,0.13335828,0.46926352,-9.255983,1.9057846
6.2551494,4.9176784,0.08552279,-0.016444914,0.13335828,0.46926352,-9.255983,1.9057846
6.2551436,4.917704,0.07913121,-0.015379649,0.119509846,0.47405192,-9.279925,1.8387469
6.255138,4.91773,0.07913121,-0.015379649,0.119509846,0.47405192,-9.279925,1.8387469
6.255132,4.9177356,0.07167436,-0.015379649,0.106726676,0.47884035,-9.3182335,1.8100165
6.2551265,4.917742,0.07167436,-0.015379649,0.106726676,0.47884035,-9.3182335,1.8100165
6.2551603,4.9177117,0.06315224,-0.012183856,0.09500877,0.40222588,-9.337387,1.7190368
6.255194,4.9176817,0.06315224,-0.012183856,0.09500877,0.40222588,-9.337387,1.7190368
6.2551885,4.917658,0.055695392,-0.007922798,0.08329086,0.41180268,-9.313444,1.8004397
6.255183,4.917633,0.055695392,-0.007922798,0.08329086,0.41180268,-9.313444,1.8004397
6.2551804,4.9175954,0.049303804,-0.00366174,0.07050768,0.41180268,-9.414001,1.7812861
6.2551775,4.9175577,0.049303804,-0.00366174,0.07050768,0.41180268,-9.414001,1.7812861
6.2551794,4.9175076,0.041846953,0.0016645822,0.061985567,0.38307226,-9.409213,1.7764976
6.255182,4.9174585,0.041846953,0.0016645822,0.061985567,0.38307226,-9.409213,1.7764976
6.255188,4.9173994,0.03545537,0.00592564,0.054528717,0.36870706,-9.409213,1.757344
6.2551937,4.9173408,0.03545537,0.00592564,0.054528717,0.36870706,-9.409213,1.757344
6.2552047,4.9172735,0.030129045,0.008056169,0.044941336,0.33039984,-9.390059,1.7717092
6.2552156,4.9172063,0.030129045,0.008056169,0.044941336,0.33039984,-9.390059,1.7717092
6.2552376,4.9171324,0.025867987,0.011251962,0.03641922,0.29688102,-9.495404,1.8052281
6.255259,4.917059,0.025867987,0.011251962,0.03641922,0.29688102,-9.495404,1.8052281
6.255284,4.9169793,0.020541664,0.01551302,0.030027634,0.2873042,-9.44752,1.70946
6.255308,4.9168997,0.020541664,0.01551302,0.030027634,0.2873042,-9.44752,1.70946
6.255327,4.916815,0.015215342,0.017643549,0.024701312,0.2825158,-9.423578,1.7764976
6.2553463,4.9167304,0.015215342,0.017643549,0.024701312,0.2825158,-9.423578,1.7764976
6.2553835,4.916644,0.013084813,0.018708814,0.021505518,0.25378537,-9.457097,1.8387469
6.25542,4.9165573,0.013084813,0.018708814,0.021505518,0.25378537,-9.457097,1.8387469
6.2554784,4.916471,0.010954284,0.017643549,0.020440254,0.20111294,-9.442732,1.7669208
6.2555366,4.916385,0.010954284,0.017643549,0.020440254,0.20111294,-9.442732,1.7669208
6.2555914,4.9162974,0.00988902,0.01551302,0.020440254,0.20590134,-9.500193,1.7717092
6.2555914,4.9162974,0.00988902,0.01551302,0.020440254,0.20590134,-9.500193,1.7717092
6.2555914,4.9162974,0.00988902,0.013382491,0.019374989,0.16280572,-9.519346,1.7525556
6.2555914,4.9162974,0.00988902,0.013382491,0.019374989,0.16280572,-9.519346,1.7525556
6.2555914,4.9162974,0.010954284,0.011251962,0.018309724,0.12449849,-9.528923,1.7764976
6.2560296,4.915906,0.010954284,0.011251962,0.018309724,0.12449849,-9.528923,1.7764976
6.256101,4.9158278,0.013084813,0.0069909045,0.018309724,0.15322891,-9.528923,1.7717092
6.256177,4.915745,0.013084813,0.0069909045,0.018309724,0.15322891,-9.528923,1.7717092
6.256241,4.9156694,0.016280606,0.003795111,0.020440254,0.1388637,-9.528923,1.70946
6.256312,4.9155865,0.016280606,0.003795111,0.020440254,0.1388637,-9.528923,1.70946
6.256312,4.9155865,0.020541664,0.0005993177,0.025766576,0.12449849,-9.490616,1.7286136
6.256476,4.915441,0.020541664,0.0005993177,0.025766576,0.12449849,-9.490616,1.7286136
6.256476,4.915441,0.024802722,-0.00366174,0.030027634,0.12449849,-9.466674,1.7190368
6.256637,4.9153085,0.024802722,-0.00366174,0.030027634,0.12449849,-9.466674,1.7190368
6.256698,4.915241,0.030129045,-0.008988062,0.035353955,0.16759412,-9.509769,1.6519991
6.25676,4.915172,0.030129045,-0.008988062,0.035353955,0.16759412,-9.509769,1.6519991
6.2568064,4.915106,0.034390103,-0.01324912,0.039615013,0.22505496,-9.524135,1.6567876
6.2568526,4.915039,0.034390103,-0.01324912,0.039615013,0.22505496,-9.524135,1.6567876
6.2568526,4.915039,0.034390103,-0.01324912,0.039615013,0.22505496,-9.524135,1.6567876
6.256942,4.9149137,0.03865116,-0.017510178,0.04387607,0.23942018,-9.490616,1.661576
6.2569785,4.914854,0.041846953,-0.020705972,0.047071867,0.2681506,-9.514558,1.6519991
6.2570157,4.9147944,0.041846953,-0.020705972,0.047071867,0.2681506,-9.514558,1.6519991
6.257053,4.914737,0.043977484,-0.0228365,0.049202394,0.2681506,-9.457097,1.6519991
6.2570906,4.9146805,0.043977484,-0.0228365,0.049202394,0.2681506,-9.457097,1.6519991
6.2570972,4.914627,0.045042746,-0.023901764,0.049202394,0.33997664,-9.44752,1.6950948
6.257104,4.914574,0.045042746,-0.023901764,0.049202394,0.33997664,-9.44752,1.6950948
6.2570953,4.914525,0.04610801,-0.026032293,0.04813713,0.34955344,-9.461885,1.7525556
6.2570868,4.9144754,0.04610801,-0.026032293,0.04813713,0.34955344,-9.461885,1.7525556
6.2570395,4.9144444,0.047173277,-0.028162822,0.04813713,0.4213795,-9.476251,1.7908629
6.2569933,4.9144135,0.047173277,-0.028162822,0.04813713,0.4213795,-9.476251,1.7908629
6.25695,4.9143825,0.049303804,-0.030293351,0.04813713,0.4213795,-9.504981,1.7860745
6.2569056,4.914351,0.049303804,-0.030293351,0.04813713,0.4213795,-9.504981,1.7860745
6.2568703,4.914314,0.04823854,-0.030293351,0.04813713,0.36870706,-9.533711,1.8243817
6.2568355,4.914277,0.04823854,-0.030293351,0.04813713,0.36870706,-9.533711,1.8243817
6.256797,4.914239,0.04823854,-0.031358615,0.042810805,0.36391866,-9.490616,1.8148049
6.256758,4.9142017,0.04823854,-0.031358615,0.042810805,0.36391866,-9.490616,1.8148049
6.25673,4.914159,0.04823854,-0.030293351,0.041745543,0.34955344,-9.528923,1.8148049
6.256702,4.914117,0.04823854,-0.030293351,0.041745543,0.34955344,-9.528923,1.8148049
6.2567077,4.914066,0.04823854,-0.028162822,0.040680278,0.2873042,-9.519346,1.8387469
6.2567134,4.914015,0.04823854,-0.028162822,0.040680278,0.2873042,-9.519346,1.8387469
6.2567396,4.9139633,0.049303804,-0.027097559,0.039615013,0.2681506,-9.481039,1.7477672
6.2567663,4.9139113,0.049303804,-0.027097559,0.039615013,0.2681506,-9.481039,1.7477672
6.256861,4.913868,0.049303804,-0.023901764,0.042810805,0.18195933,-9.457097,1.8148049
6.2569556,4.913825,0.049303804,-0.023901764,0.042810805,0.18195933,-9.457097,1.8148049
6.257054,4.913781,0.049303804,-0.020705972,0.04813713,0.15322891,-9.394848,1.7525556
6.257152,4.9137373,0.049303804,-0.020705972,0.04813713,0.15322891,-9.394848,1.7525556
6.2572618,4.9136953,0.049303804,-0.018575443,0.052398186,0.110133275,-9.385271,1.70946
6.257371,4.9136534,0.049303804,-0.018575443,0.052398186,0.110133275,-9.385271,1.70946
6.2574997,4.913615,0.049303804,-0.017510178,0.0609203,0.090979666,-9.394848,1.7286136
6.257628,4.9135776,0.049303804,-0.017510178,0.0609203,0.090979666,-9.394848,1.7286136
6.257782,4.9135475,0.049303804,-0.017510178,0.07050768,0.033518825,-9.337387,1.7142484
6.2579355,4.913517,0.049303804,-0.017510178,0.07050768,0.033518825,-9.337387,1.7142484
6.258094,4.9134836,0.049303804,-0.017510178,0.08116033,0.05746084,-9.323022,1.7142484
6.2582507,4.91345,0.049303804,-0.017510178,0.08116033,0.05746084,-9.323022,1.7142484
6.258419,4.9134164,0.049303804,-0.019640706,0.09181297,0.08140286,-9.299079,1.7381904
6.2585864,4.9133825,0.049303804,-0.019640706,0.09181297,0.08140286,-9.299079,1.7381904
6.2587385,4.9133377,0.047173277,-0.023901764,0.10033509,0.14844051,-9.270349,1.757344
6.258891,4.9132924,0.047173277,-0.023901764,0.10033509,0.14844051,-9.270349,1.757344
6.259031,4.9132433,0.04823854,-0.028162822,0.10566141,0.17717093,-9.275137,1.7669208
6.2591696,4.9131947,0.04823854,-0.028162822,0.10566141,0.17717093,-9.275137,1.7669208
6.259225,4.9131474,0.04823854,-0.033489145,0.112053,0.2825158,-9.255983,1.7717092
6.2592793,4.9131002,0.04823854,-0.033489145,0.112053,0.2825158,-9.255983,1.7717092
6.259254,4.9131136,0.049303804,-0.03988073,0.11631405,0.34476504,-9.26556,1.8531121
6.2592287,4.9131265,0.049303804,-0.03988073,0.11631405,0.34476504,-9.26556,1.8531121
6.2592096,4.9131284,0.049303804,-0.047337584,0.118444584,0.41180268,-9.284714,1.8195933
6.259193,4.91313,0.049303804,-0.047337584,0.118444584,0.41180268,-9.284714,1.8195933
6.259168,4.9131374,0.04823854,-0.05372917,0.11737932,0.41180268,-9.270349,1.8291701
6.2591434,4.9131446,0.04823854,-0.05372917,0.11737932,0.41180268,-9.270349,1.8291701
6.2591066,4.913191,0.04823854,-0.059055492,0.11737932,0.4405331,-9.294291,1.8914193
6.25907,4.9132366,0.04823854,-0.059055492,0.11737932,0.4405331,-9.294291,1.8914193
6.25903,4.913271,0.047173277,-0.064381815,0.11418352,0.41180268,-9.270349,1.8722657
6.25899,4.9133043,0.047173277,-0.064381815,0.11418352,0.41180268,-9.270349,1.8722657
6.258949,4.913369,0.04610801,-0.06970814,0.112053,0.39743748,-9.275137,1.9153614
6.258908,4.913434,0.04610801,-0.06970814,0.112053,0.39743748,-9.275137,1.9153614
6.258862,4.9134827,0.04610801,-0.07503446,0.11098773,0.4309563,-9.289502,1.9009962
6.258816,4.9135313,0.04610801,-0.07503446,0.11098773,0.4309563,-9.289502,1.9009962
6.258769,4.913562,0.04610801,-0.078230254,0.10992247,0.4213795,-9.275137,1.8722657
6.2587223,4.9135914,0.04610801,-0.078230254,0.10992247,0.4213795,-9.275137,1.8722657
6.2586746,4.913625,0.04610801,-0.08036078,0.10992247,0.39743748,-9.313444,1.8866309
6.2586274,4.913657,0.04610801,-0.08036078,0.10992247,0.39743748,-9.313444,1.8866309
6.25858,4.9137087,0.04610801,-0.08142605,0.11098773,0.38307226,-9.275137,1.9009962
6.258533,4.9137597,0.04610801,-0.08142605,0.11098773,0.38307226,-9.275137,1.9009962
6.258489,4.913823,0.04610801,-0.08249131,0.112053,0.33518824,-9.308656,1.9153614
6.2584453,4.9138865,0.04610801,-0.08249131,0.112053,0.33518824,-9.308656,1.9153614
6.2584453,4.9138865,0.04610801,-0.08249131,0.112053,0.33518824,-9.308656,1.9153614
6.25836,4.913998,0.04610801,-0.08355658,0.11524879,0.39743748,-9.279925,1.910573
6.258321,4.914024,0.04823854,-0.08249131,0.11737932,0.50278234,-9.284714,1.8579005
6.258282,4.914049,0.04823854,-0.08249131,0.11737932,0.50278234,-9.284714,1.8579005
6.258242,4.914076,0.049303804,-0.08249131,0.11631405,0.6512229,-9.251195,1.8291701
6.258202,4.914102,0.049303804,-0.08249131,0.11631405,0.6512229,-9.251195,1.8291701
6.258156,4.914159,0.049303804,-0.08142605,0.11098773,0.80924016,-9.088389,1.9009962
6.258109,4.9142156,0.049303804,-0.08142605,0.11098773,0.80924016,-9.088389,1.9009962
6.258053,4.914283,0.047173277,-0.077164985,0.09713929,0.9911995,-8.968679,1.9632454
6.2579966,4.9143496,0.047173277,-0.077164985,0.09713929,0.9911995,-8.968679,1.9632454
6.2579207,4.9144125,0.040781688,-0.06970814,0.07476874,0.9959879,-8.810662,1.9440918
6.257845,4.9144754,0.040781688,-0.06970814,0.07476874,0.9959879,-8.810662,1.9440918
6.2577453,4.9145336,0.02906378,-0.06118602,0.0460066,1.0247183,-8.690952,1.9680338
6.2576456,4.914591,0.02906378,-0.06118602,0.0460066,1.0247183,-8.690952,1.9680338
6.257521,4.9146476,0.013084813,-0.051598642,0.009787609,1.0151415,-8.571242,2.0494366
6.257397,4.914704,0.013084813,-0.051598642,0.009787609,1.0151415,-8.571242,2.0494366
6.257237,4.9147444,-0.0071552116,-0.04201126,-0.031757705,1.0055647,-8.542512,2.0733786
6.2570767,4.9147854,-0.0071552116,-0.04201126,-0.031757705,1.0055647,-8.542512,2.0733786
6.256878,4.914804,-0.029525764,-0.033489145,-0.07330302,1.0773908,-8.537724,2.1021092
6.256679,4.9148226,-0.029525764,-0.033489145,-0.07330302,1.0773908,-8.537724,2.1021092
6.256435,4.914809,-0.056157377,-0.0228365,-0.11697886,1.1444284,-8.580819,2.078167
6.256191,4.9147954,-0.056157377,-0.0228365,-0.11697886,1.1444284,-8.580819,2.078167
6.255901,4.914751,-0.08598478,-0.008988062,-0.16491576,1.0869676,-8.6574335,2.054225
6.2556114,4.9147067,-0.08598478,-0.008988062,-0.16491576,1.0869676,-8.6574335,2.054225
6.255284,4.914641,-0.11581218,0.00592564,-0.21285266,1.0295067,-8.671799,2.1021092
6.2549562,4.914575,-0.11581218,0.00592564,-0.21285266,1.0295067,-8.671799,2.1021092
6.254601,4.914496,-0.14457433,0.019774077,-0.25759378,0.80924016,-8.75799,2.1308396
6.2542434,4.9144163,-0.14457433,0.019774077,-0.25759378,0.80924016,-8.75799,2.1308396
6.2538557,4.9143147,-0.1722712,0.030426722,-0.29913908,0.7086837,-8.810662,2.1068976
6.253467,4.9142127,-0.1722712,0.030426722,-0.29913908,0.7086837,-8.810662,2.1068976
6.253051,4.914092,-0.19677228,0.038948838,-0.33642334,0.63206923,-8.801085,2.0829554
6.252635,4.913971,-0.19677228,0.038948838,-0.33642334,0.63206923,-8.801085,2.0829554
6.2521505,4.9137864,-0.21807757,0.04427516,-0.367316,0.59376204,-8.858546,1.8818425
6.251666,4.913603,-0.21807757,0.04427516,-0.367316,0.59376204,-8.858546,1.8818425
6.251164,4.913412,-0.2383176,0.05173201,-0.3950129,0.5554548,-8.896853,1.910573
6.250663,4.9132233,-0.2383176,0.05173201,-0.3950129,0.5554548,-8.896853,1.910573
6.250121,4.912961,-0.25749236,0.05599307,-0.4216445,0.58897364,-8.939949,1.8004397
6.2495794,4.9127007,-0.25749236,0.05599307,-0.4216445,0.58897364,-8.939949,1.8004397
6.2490134,4.912419,-0.27666712,0.0581236,-0.44721085,0.63206923,-8.935161,1.7908629
6.2484465,4.912138,-0.27666712,0.0581236,-0.44721085,0.63206923,-8.935161,1.7908629
6.2478538,4.9118342,-0.29371136,0.061319392,-0.47597298,0.7661445,-8.959103,1.7621324
6.2472615,4.9115314,-0.29371136,0.061319392,-0.47597298,0.7661445,-8.959103,1.7621324
6.246633,4.911216,-0.31288612,0.06664571,-0.51006144,0.90021986,-8.968679,1.7764976
6.246633,4.911216,-0.31288612,0.06664571,-0.51006144,0.90021986,-8.968679,1.7764976
6.2453356,4.9105477,-0.3373872,0.069841504,-0.5505415,1.0869676,-8.987833,1.6903064
6.244667,4.910194,-0.3373872,0.069841504,-0.5505415,1.0869676,-8.987833,1.6903064
6.243892,4.9098024,-0.36295354,0.074102566,-0.5974131,0.9959879,-8.987833,1.7860745
6.2432585,4.9094834,-0.36295354,0.074102566,-0.5974131,0.9959879,-8.987833,1.7860745
6.242524,4.909157,-0.39065042,0.08049415,-0.6517416,0.7422025,-8.892065,1.9440918
6.2417836,4.9088287,-0.39065042,0.08049415,-0.6517416,0.7422025,-8.892065,1.9440918
6.2410216,4.908496,-0.41941255,0.08155942,-0.7050048,0.6464345,-8.796297,2.0015526
6.2402616,4.908165,-0.41941255,0.08155942,-0.7050048,0.6464345,-8.796297,2.0015526
6.2394447,4.907805,-0.44604418,0.0762331,-0.75613755,0.641646,-8.781932,1.9632454
6.238631,4.9074464,-0.44604418,0.0762331,-0.75613755,0.641646,-8.781932,1.9632454
6.2377725,4.907068,-0.46947998,0.06771098,-0.8051397,0.641646,-8.690952,1.9632454
6.236917,4.9066906,-0.46947998,0.06771098,-0.8051397,0.641646,-8.690952,1.9632454
6.236002,4.906282,-0.49398106,0.0581236,-0.84881556,0.62728083,-8.772355,1.9009962
6.235092,4.905875,-0.49398106,0.0581236,-0.84881556,0.62728083,-8.772355,1.9009962
6.2341294,4.9054418,-0.51635164,0.047470953,-0.8924914,0.62249243,-8.815451,1.8674773
6.2331715,4.9050117,-0.51635164,0.047470953,-0.8924914,0.62249243,-8.815451,1.8674773
6.232184,4.904569,-0.5376569,0.037883572,-0.9372325,0.60333884,-8.90643,1.9057846
6.231198,4.9041276,-0.5376569,0.037883572,-0.9372325,0.60333884,-8.90643,1.9057846
6.2301784,4.9036727,-0.55470115,0.030426722,-0.9777125,0.58418524,-8.872911,1.8770541
6.2291646,4.90322,-0.55470115,0.030426722,-0.9777125,0.58418524,-8.872911,1.8770541
6.228093,4.902748,-0.5653538,0.0251004,-1.0139315,0.6560113,-8.896853,1.8866309
6.227027,4.9022784,-0.5653538,0.0251004,-1.0139315,0.6560113,-8.896853,1.8866309
6.225891,4.901781,-0.5738759,0.020839343,-1.0512158,0.8858546,-8.916007,1.9393034
6.2224135,4.900266,-0.58133274,0.019774077,-1.0938264,1.13964,-8.78672,1.9536686
6.2224135,4.900266,-0.58133274,0.019774077,-1.0938264,1.13964,-8.78672,1.9536686
6.2224135,4.900266,-0.58133274,0.019774077,-1.0938264,1.13964,-8.78672,1.9536686
6.2224135,4.900266,-0.58133274,0.019774077,-1.0938264,1.13964,-8.78672,1.9536686
6.219914,4.8992114,-0.5919854,0.022969872,-1.1460243,1.4030021,-8.580819,2.054225
6.219914,4.8992114,-0.5919854,0.022969872,-1.1460243,1.4030021,-8.580819,2.054225
6.219914,4.8992114,-0.5919854,0.022969872,-1.1460243,1.4030021,-8.580819,2.054225
6.219914,4.8992114,-0.5919854,0.022969872,-1.1460243,1.4030021,-8.580819,2.054225
6.2148743,4.8971024,-0.63353074,0.046405688,-1.2962266,1.910573,-8.394072,2.006341
6.2132196,4.896434,-0.66761917,0.06664571,-1.3974267,1.7477672,-8.145074,2.2601264
6.211763,4.895857,-0.66761917,0.06664571,-1.3974267,1.7477672,-8.145074,2.2601264
6.210212,4.8952494,-0.71022975,0.090081535,-1.5092795,1.7046716,-7.800309,2.4372973
6.208662,4.8946424,-0.71022975,0.090081535,-1.5092795,1.7046716,-7.800309,2.4372973
6.2069983,4.8939924,-0.7571014,0.11245208,-1.6275239,1.7908629,-7.608773,2.5474305
6.205335,4.8933434,-0.7571014,0.11245208,-1.6275239,1.7908629,-7.608773,2.5474305
6.203539,4.89264,-0.80716884,0.13482264,-1.7542903,2.0973208,-7.4986396,2.4277205
6.201738,4.891936,-0.80716884,0.13482264,-1.7542903,2.0973208,-7.4986396,2.4277205
6.1998005,4.8911834,-0.85404044,0.16465004,-1.8917094,2.1164744,-7.445967,2.1930888
6.1978483,4.8904266,-0.85404044,0.16465004,-1.8917094,2.1164744,-7.445967,2.1930888
6.195773,4.8896303,-0.90410787,0.1987385,-2.039781,1.8579005,-7.417237,1.9297266
6.19369,4.8888326,-0.90410787,0.1987385,-2.039781,1.8579005,-7.417237,1.9297266
6.191464,4.88799,-0.9573711,0.22856592,-2.192114,1.532289,-7.52737,1.7764976
6.1892323,4.887147,-0.9573711,0.22856592,-2.192114,1.532289,-7.52737,1.7764976
6.186866,4.8862643,-1.0116996,0.24880594,-2.3401859,1.2689269,-7.7428484,1.7286136
6.184485,4.885379,-1.0116996,0.24880594,-2.3401859,1.2689269,-7.7428484,1.7286136
6.182011,4.8844576,-1.0692239,0.25732806,-2.481866,1.1779473,-7.881712,1.6424223
6.179516,4.8835316,-1.0692239,0.25732806,-2.481866,1.1779473,-7.881712,1.6424223
6.176877,4.882545,-1.1256828,0.25200173,-2.615024,1.1971009,-7.991845,1.6041151
6.174245,4.8815646,-1.1256828,0.25200173,-2.615024,1.1971009,-7.991845,1.6041151
6.1714473,4.880495,-1.1821419,0.2381533,-2.743921,1.5370775,-8.025364,1.5514427
6.168653,4.879431,-1.1821419,0.2381533,-2.743921,1.5370775,-8.025364,1.5514427
6.1656923,4.878273,-1.238601,0.21897852,-2.8717527,1.8914193,-7.953538,1.4173675
6.162487,4.877024,-1.238601,0.21897852,-2.8717527,1.8914193,-7.953538,1.4173675
6.1595545,4.8758764,-1.2971904,0.20086904,-3.0081067,2.2457612,-7.9248075,1.4030021
6.156606,4.874726,-1.2971904,0.20086904,-3.0081067,2.2457612,-7.9248075,1.4030021
6.153424,4.873472,-1.3568453,0.18169427,-3.155113,2.6862943,-7.9343843,1.2785037
6.1502047,4.872207,-1.3568453,0.18169427,-3.155113,2.6862943,-7.9343843,1.2785037
6.1468153,4.8708744,-1.4196959,0.1657153,-3.3180985,3.3135753,-7.8912888,1.1731589
6.1434245,4.8695445,-1.4196959,0.1657153,-3.3180985,3.3135753,-7.8912888,1.1731589
6.1398516,4.8681498,-1.4889381,0.1539974,-3.5002587,3.4524388,-7.819463,1.1540052
6.1362667,4.866753,-1.4889381,0.1539974,-3.5002587,3.4524388,-7.819463,1.1540052
6.1325088,4.8653007,-1.5635066,0.14334476,-3.695202,3.5098996,-7.6231384,1.1971009
6.128739,4.8638463,-1.5635066,0.14334476,-3.695202,3.5098996,-7.6231384,1.1971009
6.124764,4.8623233,-1.6402056,0.12843105,-3.8997328,3.739743,-7.5465236,1.2354081
6.1206765,4.86076,-1.6402056,0.12843105,-3.8997328,3.739743,-7.5465236,1.2354081
6.1166,4.8592095,-1.7169046,0.10712577,-4.1117206,3.9695864,-7.5848308,1.2354081
6.112401,4.8576155,-1.7169046,0.10712577,-4.1117206,3.9695864,-7.5848308,1.2354081
6.1079936,4.855955,-1.7893426,0.08368994,-4.3300996,4.1371803,-7.776367,1.2210429
6.103581,4.854296,-1.7893426,0.08368994,-4.3300996,4.1371803,-7.776367,1.2210429
6.098943,4.8525653,-1.8521932,0.0581236,-4.551675,4.2999864,-7.9822683,1.0055647
6.094304,4.8508368,-1.8521932,0.0581236,-4.551675,4.2999864,-7.9822683,1.0055647
6.089435,4.849058,-1.9001302,0.029361458,-4.778576,4.7740383,-8.145074,0.8858546
6.084565,4.847282,-1.9001302,0.029361458,-4.778576,4.7740383,-8.145074,0.8858546
6.079461,4.8454676,-1.9352839,-0.0025964756,-5.0150647,5.291186,-8.355764,0.7086837
6.0743504,4.8436537,-1.9352839,-0.0025964756,-5.0150647,5.291186,-8.355764,0.7086837
6.068988,4.841817,-1.9608502,-0.03455441,-5.2632713,5.66947,-8.408437,0.7038953
6.063619,4.839981,-1.9608502,-0.03455441,-5.2632713,5.66947,-8.408437,0.7038953
6.0579877,4.838129,-1.9821556,-0.0707734,-5.527457,5.947197,-8.350976,0.7422025
6.052361,4.836281,-1.9821556,-0.0707734,-5.527457,5.947197,-8.350976,0.7422025
6.046451,4.8344116,-2.0013304,-0.11657977,-5.8001647,6.019023,-8.269572,0.770933
6.040487,4.8325276,-2.0013304,-0.11657977,-5.8001647,6.019023,-8.269572,0.770933
6.034339,4.83065,-2.0215702,-0.17623459,-6.0803294,6.2392898,-8.259995,0.7422025
6.0281467,4.828759,-2.0215702,-0.17623459,-6.0803294,6.2392898,-8.259995,0.7422025
6.021675,4.826838,-2.045006,-0.24547677,-6.3594284,6.2823853,-8.303091,0.7086837
6.0151896,4.824913,-2.045006,-0.24547677,-6.3594284,6.2823853,-8.303091,0.7086837
6.0084033,4.822946,-2.0716376,-0.32430634,-6.638528,6.2584434,-8.408437,0.7517793
6.001562,4.820963,-2.0716376,-0.32430634,-6.638528,6.2584434,-8.408437,0.7517793
5.994598,4.8189836,-2.092943,-0.4148538,-6.904844,6.26802,-8.51857,0.7661445
5.9875555,4.816982,-2.092943,-0.4148538,-6.904844,6.26802,-8.51857,0.7661445
5.9802513,4.8149576,-2.1067915,-0.5054013,-7.1530504,6.0525417,-8.418014,1.1061212
5.972946,4.812932,-2.1067915,-0.5054013,-7.1530504,6.0525417,-8.418014,1.1061212
5.965402,4.810882,-2.1067915,-0.59381825,-7.384213,5.7029886,-8.37013,1.0582372
5.9578876,4.808838,-2.1067915,-0.59381825,-7.384213,5.7029886,-8.37013,1.0582372
5.950106,4.8067374,-2.0993347,-0.6811699,-7.5962005,5.2241483,-8.604761,0.6512229
5.942348,4.8046393,-2.0993347,-0.6811699,-7.5962005,5.2241483,-8.604761,0.6512229
5.934352,4.802472,-2.0876167,-0.7727827,-7.7815566,4.912902,-8.772355,0.25378537
5.926134,4.8002367,-2.0876167,-0.7727827,-7.7815566,4.912902,-8.772355,0.25378537
5.926134,4.8002367,-2.0876167,-0.7727827,-7.7815566,4.912902,-8.772355,0.25378537
5.910259,4.7958827,-2.0737681,-0.8739828,-7.9349546,4.6830587,-9.064447,0.047884032
5.902095,4.7936287,-2.0535283,-0.97731346,-8.058525,4.462792,-9.155427,-0.023942016
5.893912,4.7913547,-2.0535283,-0.97731346,-8.058525,4.462792,-9.155427,-0.023942016
5.885665,4.789041,-2.0300925,-1.0774484,-8.150138,4.333505,-9.390059,-0.20111294
5.8774176,4.7867107,-2.0300925,-1.0774484,-8.150138,4.333505,-9.390059,-0.20111294
5.8691444,4.784354,-2.0013304,-1.1711916,-8.211924,4.1180267,-9.481039,-0.320823
5.860873,4.7819815,-2.0013304,-1.1711916,-8.211924,4.1180267,-9.481039,-0.320823
5.8525925,4.7795854,-1.9715029,-1.257478,-8.2449465,3.7972038,-9.490616,-0.37828386
5.84433,4.777177,-1.9715029,-1.257478,-8.2449465,3.7972038,-9.490616,-0.37828386
5.8360906,4.7747564,-1.9427407,-1.334177,-8.251338,3.4620156,-9.461885,-0.32561144
5.82786,4.7723207,-1.9427407,-1.334177,-8.251338,3.4620156,-9.461885,-0.32561144
5.8196936,4.7698774,-1.919305,-1.4012887,-8.230033,3.1603463,-9.528923,-0.30645782
5.8114924,4.767406,-1.919305,-1.4012887,-8.230033,3.1603463,-9.528923,-0.30645782
5.8033595,4.7649207,-1.8979996,-1.4641393,-8.183162,2.825158,-9.533711,-0.22505496
5.795239,4.7624197,-1.8979996,-1.4641393,-8.183162,2.825158,-9.533711,-0.22505496
5.787218,4.7598996,-1.8788248,-1.5227288,-8.1064625,2.5139117,-9.548077,-0.15801731
5.7791924,4.7573566,-1.8788248,-1.5227288,-8.1064625,2.5139117,-9.548077,-0.15801731
5.7712655,4.7547784,-1.8607154,-1.5781226,-8.002067,2.2601264,-9.691729,-0.16280572
5.7633424,4.7521777,-1.8607154,-1.5781226,-8.002067,2.2601264,-9.691729,-0.16280572
5.755551,4.749534,-1.8426058,-1.62819,-7.871039,2.3127987,-9.830592,-0.2681506
5.7477636,4.746866,-1.8426058,-1.62819,-7.871039,2.3127987,-9.830592,-0.2681506
5.7401237,4.744168,-1.8202354,-1.6718658,-7.718706,2.2936451,-10.084377,-0.22026655
5.732504,4.741449,-1.8202354,-1.6718658,-7.718706,2.2936451,-10.084377,-0.22026655
5.725053,4.738703,-1.7946689,-1.712346,-7.545068,2.3080103,-10.304645,-0.1388637
5.717606,4.73593,-1.7946689,-1.712346,-7.545068,2.3080103,-10.304645,-0.1388637
5.7103586,4.7331357,-1.762711,-1.7474997,-7.356516,2.5139117,-10.534488,-0.19153613
5.703109,4.730311,-1.762711,-1.7474997,-7.356516,2.5139117,-10.534488,-0.19153613
5.6960454,4.727475,-1.7232963,-1.7762618,-7.159442,2.7006595,-10.745177,-0.076614454
5.688938,4.72459,-1.7232963,-1.7762618,-7.159442,2.7006595,-10.745177,-0.076614454
5.6821494,4.721755,-1.6764246,-1.7986324,-6.9559765,2.920926,-10.936713,0.023942016
5.675345,4.718883,-1.6764246,-1.7986324,-6.9559765,2.920926,-10.936713,0.023942016
5.6687183,4.716016,-1.6242267,-1.8124808,-6.74825,3.1794999,-11.070788,0.20111294
5.6687183,4.716016,-1.6242267,-1.8124808,-6.74825,3.1794999,-11.070788,0.20111294
5.6555514,4.7102013,-1.5645719,-1.8220682,-6.54585,3.371036,-11.15698,0.24420857
5.649186,4.7073174,-1.5645719,-1.8220682,-6.54585,3.371036,-11.15698,0.24420857
5.642982,4.7044525,-1.4974601,-1.8273945,-6.344515,3.4572272,-11.142614,0.34955344
5.6368074,4.701568,-1.4974601,-1.8273945,-6.344515,3.4572272,-11.142614,0.34955344
5.630814,4.698716,-1.428218,-1.8241987,-6.14318,3.4955344,-11.046846,0.36391866
5.6248198,4.695831,-1.428218,-1.8241987,-6.14318,3.4955344,-11.046846,0.36391866
5.6190367,4.693006,-1.3589758,-1.8178071,-5.946106,3.4476504,-10.984597,0.58418524
5.6132755,4.6901593,-1.3589758,-1.8178071,-5.946106,3.4476504,-10.984597,0.58418524
5.6076865,4.6873507,-1.2886684,-1.8114156,-5.749032,3.3183637,-10.893618,0.6943185
5.602108,4.6845145,-1.2886684,-1.8114156,-5.749032,3.3183637,-10.893618,0.6943185
5.596737,4.6817317,-1.2151651,-1.8114156,-5.550893,3.145981,-10.730812,0.770933
5.591387,4.6789274,-1.2151651,-1.8114156,-5.550893,3.145981,-10.730812,0.770933
5.5862226,4.6761537,-1.1416619,-1.8199376,-5.350623,3.371036,-10.6637745,0.6895301
5.58112,4.673382,-1.1416619,-1.8199376,-5.350623,3.371036,-10.6637745,0.6895301
5.5761676,4.6706257,-1.0660281,-1.8305902,-5.149288,3.4715924,-10.601525,0.7134721
5.5711856,4.6678205,-1.0660281,-1.8305902,-5.149288,3.4715924,-10.601525,0.7134721
5.5664353,4.665077,-0.98932904,-1.8412429,-4.947953,3.4524388,-10.654198,0.7565677
5.5617332,4.6623306,-0.98932904,-1.8412429,-4.947953,3.4524388,-10.654198,0.7565677
5.557207,4.6596074,-0.9094342,-1.8604177,-4.745553,3.5673606,-10.505757,0.6799533
5.552682,4.656854,-0.9094342,-1.8604177,-4.745553,3.5673606,-10.505757,0.6799533
5.5483675,4.654134,-0.82740885,-1.8881146,-4.5410223,3.7732618,-10.362105,0.47405192
5.544076,4.6513968,-0.82740885,-1.8881146,-4.5410223,3.7732618,-10.362105,0.47405192
5.5399895,4.6486964,-0.74325293,-1.9243336,-4.338622,4.1371803,-10.251971,0.45968673
5.535897,4.6459618,-0.74325293,-1.9243336,-4.338622,4.1371803,-10.251971,0.45968673
5.5320344,4.643284,-0.6580318,-1.9648136,-4.136222,4.5441947,-10.16578,0.5410896
5.5281663,4.640573,-0.6580318,-1.9648136,-4.136222,4.5441947,-10.16578,0.5410896
5.5245023,4.637905,-0.5717454,-2.0063589,-3.9370172,5.032612,-10.01734,0.58897364
5.5208473,4.6352158,-0.5717454,-2.0063589,-3.9370172,5.032612,-10.01734,0.58897364
5.517389,4.632568,-0.48652422,-2.0415127,-3.7399433,5.626374,-9.825804,0.47405192
5.513953,4.6299095,-0.48652422,-2.0415127,-3.7399433,5.626374,-9.825804,0.47405192
5.510686,4.627302,-0.40236834,-2.062818,-3.5449998,6.3063273,-9.576807,0.49320555
5.507441,4.6246853,-0.40236834,-2.062818,-3.5449998,6.3063273,-9.576807,0.49320555
5.5043707,4.6221447,-0.3224735,-2.0638833,-3.3575134,6.9479733,-9.361329,0.36870706
5.501315,4.61959,-0.3224735,-2.0638833,-3.3575134,6.9479733,-9.361329,0.36870706
5.49841,4.6171265,-0.24683972,-2.042578,-3.1742878,7.455544,-9.126697,0.33518824
5.495515,4.614645,-0.24683972,-2.042578,-3.1742878,7.455544,-9.126697,0.33518824
5.4927845,4.612297,-0.17866279,-1.9999673,-3.005976,7.8529816,-8.911219,0.30645782
5.490061,4.60993,-0.17866279,-1.9999673,-3.005976,7.8529816,-8.911219,0.30645782
5.487448,4.607677,-0.11368166,-1.9413778,-2.8493822,8.154651,-8.580819,0.16759412
5.483237,4.6039944,-0.05509211,-1.865744,-2.7045062,8.384495,-8.24563,0.009576807
5.483237,4.6039944,-0.05509211,-1.865744,-2.7045062,8.384495,-8.24563,0.009576807
5.483237,4.6039944,-0.05509211,-1.865744,-2.7045062,8.384495,-8.24563,0.009576807
5.483237,4.6039944,-0.006089947,-1.7762618,-2.5713482,8.437167,-7.97748,-0.12928689
5.4772325,4.5989738,-0.006089947,-1.7762618,-2.5713482,8.437167,-7.97748,-0.12928689
5.4729147,4.5953436,0.03652063,-1.6771922,-2.445647,8.432379,-7.771579,-0.062249243
5.470605,4.5934143,0.03652063,-1.6771922,-2.445647,8.432379,-7.771579,-0.062249243
5.4683123,4.5915413,0.07167436,-1.5738616,-2.3263373,8.24563,-7.8290396,0.18674773
5.4683123,4.5915413,0.07167436,-1.5738616,-2.3263373,8.24563,-7.8290396,0.18674773
5.4683123,4.5915413,0.07167436,-1.5738616,-2.3263373,8.24563,-7.8290396,0.18674773
5.4683123,4.5915413,0.07167436,-1.5738616,-2.3263373,8.24563,-7.8290396,0.18674773
5.4604983,4.585328,0.14304708,-1.386375,-2.1100886,7.7811556,-7.40766,-0.0047884034
5.4585767,4.5838275,0.14304708,-1.386375,-2.1100886,7.7811556,-7.40766,-0.0047884034
5.45678,4.5824594,0.17607027,-1.3075454,-2.0088885,7.551312,-7.28795,-0.25378537
5.4549985,4.58109,0.17607027,-1.3075454,-2.0088885,7.551312,-7.28795,-0.25378537
5.453328,4.579825,0.20483242,-1.2329769,-1.9034274,7.4028716,-7.201759,-0.44532153
5.4516582,4.5785484,0.20483242,-1.2329769,-1.9034274,7.4028716,-7.201759,-0.44532153
5.4501677,4.5773053,0.22933349,-1.1616042,-1.7969009,7.369353,-7.019799,-0.8714894
5.4486732,4.576054,0.22933349,-1.1616042,-1.7969009,7.369353,-7.019799,-0.8714894
5.4472284,4.5747433,0.24957353,-1.0881009,-1.6914397,7.398083,-6.8426285,-1.1061212
5.4457893,4.5734286,0.24957353,-1.0881009,-1.6914397,7.398083,-6.8426285,-1.1061212
5.4443827,4.572189,0.26342195,-1.0103366,-1.588109,7.455544,-6.7133417,-1.2306197
5.4429827,4.570945,0.26342195,-1.0103366,-1.588109,7.455544,-6.7133417,-1.2306197
5.441614,4.5698123,0.27087882,-0.92298496,-1.4837132,7.5704656,-6.5936313,-1.1540052
5.4402494,4.5686717,0.27087882,-0.92298496,-1.4837132,7.5704656,-6.5936313,-1.1540052
5.438923,4.5676746,0.2740746,-0.82817644,-1.378252,7.6470804,-6.459556,-1.1348516
5.438923,4.5676746,0.2740746,-0.82817644,-1.378252,7.6470804,-6.459556,-1.1348516
5.436264,4.56577,0.2740746,-0.725911,-1.273856,7.728483,-6.301539,-1.0630256
5.434993,4.56495,0.2740746,-0.725911,-1.273856,7.728483,-6.301539,-1.0630256
5.433814,4.5642796,0.2740746,-0.6172541,-1.1737212,7.7428484,-6.081272,-1.0726024
5.432618,4.5635953,0.2740746,-0.6172541,-1.1737212,7.7428484,-6.081272,-1.0726024
5.4314947,4.563056,0.27194408,-0.5054013,-1.0778474,7.642292,-5.884948,-1.043872
5.4303713,4.562514,0.27194408,-0.5054013,-1.0778474,7.642292,-5.884948,-1.043872
5.429319,4.562106,0.26768303,-0.39354852,-0.9894304,7.4603324,-5.6982,-1.0247183
5.428268,4.561697,0.26768303,-0.39354852,-0.9894304,7.4603324,-5.6982,-1.0247183
5.427293,4.561391,0.2623567,-0.28808734,-0.90527457,7.216124,-5.554548,-1.0582372
5.4263186,4.561082,0.2623567,-0.28808734,-0.90527457,7.216124,-5.554548,-1.0582372
5.42542,4.5608745,0.25383458,-0.19008303,-0.8232492,7.0102224,-5.4922986,-1.0534488
5.4245224,4.560665,0.25383458,-0.19008303,-0.8232492,7.0102224,-5.4922986,-1.0534488
5.4237146,4.56053,0.2442472,-0.105927125,-0.7422891,6.9000893,-5.410896,-1.13964
5.4229093,4.560394,0.2442472,-0.105927125,-0.7422891,6.9000893,-5.410896,-1.13964
5.42217,4.5603447,0.23359455,-0.031358615,-0.66559005,6.789956,-5.434838,-1.0630256
5.421432,4.5602946,0.23359455,-0.031358615,-0.66559005,6.789956,-5.434838,-1.0630256
5.4207845,4.560301,0.2229419,0.030426722,-0.59315205,6.766014,-5.434838,-1.163582
5.4201374,4.5603065,0.2229419,0.030426722,-0.59315205,6.766014,-5.434838,-1.163582
5.4195833,4.560368,0.2144198,0.08155942,-0.52177936,6.727707,-5.48751,-1.2354081
5.419023,4.5604305,0.2144198,0.08155942,-0.52177936,6.727707,-5.48751,-1.2354081
5.418542,4.5605474,0.21015874,0.12417,-0.45786348,6.7085533,-5.554548,-1.2114661
5.418061,4.5606647,0.21015874,0.12417,-0.45786348,6.7085533,-5.554548,-1.2114661
5.4176455,4.5608263,0.20483242,0.1571932,-0.39607814,6.6654577,-5.559336,-1.1971009
5.4172297,4.5609884,0.20483242,0.1571932,-0.39607814,6.6654577,-5.559336,-1.1971009
5.4172297,4.5609884,0.20483242,0.1571932,-0.39607814,6.6654577,-5.559336,-1.1971009
5.416526,4.5613856,0.20163663,0.18062901,-0.34068438,6.6654577,-5.6120086,-1.2018893
5.4162374,4.5616055,0.19737557,0.19447745,-0.28848645,6.631939,-5.631162,-1.2449849
5.4159474,4.561826,0.19737557,0.19447745,-0.28848645,6.631939,-5.631162,-1.2449849
5.4157104,4.562065,0.19524503,0.2019343,-0.23841901,6.6510925,-5.659893,-1.2066777
5.4154735,4.562304,0.19524503,0.2019343,-0.23841901,6.6510925,-5.659893,-1.2066777
5.4152813,4.5625505,0.1931145,0.20299956,-0.19261263,6.6893997,-5.693412,-1.2401965
5.4150896,4.562796,0.1931145,0.20299956,-0.19261263,6.6893997,-5.693412,-1.2401965
5.4149323,4.5630393,0.19098398,0.19767325,-0.15106732,6.751649,-5.7029886,-1.2306197
5.414775,4.5632825,0.19098398,0.19767325,-0.15106732,6.751649,-5.7029886,-1.2306197
5.414645,4.5635195,0.18991871,0.18915112,-0.11058728,6.7851677,-5.659893,-1.2162545
5.4145155,4.563756,0.18991871,0.18915112,-0.11058728,6.7851677,-5.659893,-1.2162545
5.4144063,4.563983,0.18672292,0.17956375,-0.075433545,6.8905125,-5.659893,-1.2689269
5.414297,4.5642095,0.18672292,0.17956375,-0.075433545,6.8905125,-5.659893,-1.2689269
5.4142065,4.56442,0.18246186,0.16465004,-0.04454088,6.8905125,-5.583278,-1.2497733
5.414116,4.5646315,0.18246186,0.16465004,-0.04454088,6.8905125,-5.583278,-1.2497733
5.414049,4.564824,0.17820081,0.1476058,-0.016844003,6.919243,-5.5880666,-1.2162545
5.4139824,4.565017,0.17820081,0.1476058,-0.016844003,6.919243,-5.5880666,-1.2162545
5.41394,4.565185,0.17287448,0.12843105,0.0033960221,6.9240313,-5.583278,-1.2449849
5.4138975,4.5653534,0.17287448,0.12843105,0.0033960221,6.9240313,-5.583278,-1.2449849
5.413878,4.565492,0.16754816,0.1060605,0.019374989,6.909666,-5.5976434,-1.2354081
5.4138584,4.565631,0.16754816,0.1060605,0.019374989,6.909666,-5.5976434,-1.2354081
5.413842,4.5657387,0.16222183,0.07942889,0.03428869,6.9767036,-5.559336,-1.2401965
5.4138255,4.5658464,0.16222183,0.07942889,0.03428869,6.9767036,-5.559336,-1.2401965
5.4138284,4.5659165,0.15583025,0.05173201,0.047071867,7.0245876,-5.57849,-1.3024458
5.413831,4.565986,0.15583025,0.05173201,0.047071867,7.0245876,-5.57849,-1.3024458
5.413845,4.5660157,0.14730814,0.021904606,0.055593982,7.038953,-5.650316,-1.1971009
5.413859,4.566045,0.14730814,0.021904606,0.055593982,7.038953,-5.650316,-1.1971009
5.4139004,4.56603,0.14198181,-0.010053327,0.06518136,6.9958572,-5.6790466,-1.2114661
5.413943,4.566016,0.14198181,-0.010053327,0.06518136,6.9958572,-5.6790466,-1.2114661
5.414007,4.565955,0.13559023,-0.045207053,0.073703475,6.991069,-5.7365074,-1.1683705
5.4140716,4.565895,0.13559023,-0.045207053,0.073703475,6.991069,-5.7365074,-1.1683705
5.414165,4.5657883,0.13026391,-0.08142605,0.08329086,6.9623384,-5.7748146,-1.1540052
5.4142585,4.5656824,0.13026391,-0.08142605,0.08329086,6.9623384,-5.7748146,-1.1540052
5.4143715,4.5655317,0.1270681,-0.1187103,0.09500877,7.019799,-5.841852,-1.1013328
5.414484,4.565382,0.1270681,-0.1187103,0.09500877,7.019799,-5.841852,-1.1013328
5.4146113,4.5651865,0.12493758,-0.15599456,0.1088572,7.067683,-5.851429,-1.2066777
5.4147387,4.5649924,0.12493758,-0.15599456,0.1088572,7.067683,-5.851429,-1.2066777
5.4148817,4.5647545,0.122807056,-0.19327882,0.12164038,7.07726,-5.865794,-1.13964
5.4150243,4.564517,0.122807056,-0.19327882,0.12164038,7.07726,-5.865794,-1.13964
5.4151626,4.5642385,0.12174179,-0.22843254,0.13655408,7.216124,-5.8466406,-1.2258313
5.415298,4.5639663,0.12174179,-0.22843254,0.13655408,7.216124,-5.8466406,-1.2258313
5.415421,4.563659,0.118545994,-0.262521,0.148272,7.441179,-5.8562174,-1.2593501
5.4155445,4.563351,0.118545994,-0.262521,0.148272,7.441179,-5.8562174,-1.2593501
5.415648,4.5630317,0.11641546,-0.2923484,0.15785937,7.762002,-5.865794,-1.2593501
5.4157515,4.5627112,0.11641546,-0.2923484,0.15785937,7.762002,-5.865794,-1.2593501
5.415842,4.5623775,0.11108914,-0.31578422,0.15785937,8.111555,-5.8083334,-1.3120226
5.4159327,4.562044,0.11108914,-0.31578422,0.15785937,8.111555,-5.8083334,-1.3120226
5.416004,4.561702,0.10363229,-0.33069792,0.14720672,8.255207,-5.6886234,-1.2785037
5.4160757,4.5613594,0.10363229,-0.33069792,0.14720672,8.255207,-5.6886234,-1.2785037
5.4161177,4.5610123,0.09404491,-0.33922005,0.12483617,8.212111,-5.6551046,-1.1492168
5.4161596,4.5606747,0.09404491,-0.33922005,0.12483617,8.212111,-5.6551046,-1.1492168
5.416171,4.5603123,0.08126174,-0.34454638,0.0939435,8.0445175,-5.6790466,-1.1013328
5.4161825,4.55995,0.08126174,-0.34454638,0.0939435,8.0445175,-5.6790466,-1.1013328
5.416165,4.559552,0.06528277,-0.35093796,0.061985567,7.920019,-5.779603,-1.0965444
5.4161477,4.5591555,0.06528277,-0.35093796,0.061985567,7.920019,-5.779603,-1.0965444
5.416103,4.558733,0.051434334,-0.35946006,0.033223428,7.833828,-5.827487,-1.067814
5.4160576,4.5583115,0.051434334,-0.35946006,0.033223428,7.833828,-5.827487,-1.067814
5.415998,4.5578413,0.039716423,-0.36904746,0.008722344,7.7189064,-5.9519854,-1.0869676
5.415938,4.557373,0.039716423,-0.36904746,0.008722344,7.7189064,-5.9519854,-1.0869676
5.4158535,4.556902,0.02906378,-0.3797001,-0.009387151,7.680599,-6.157887,-1.0199299
5.4157686,4.556433,0.02906378,-0.3797001,-0.009387151,7.680599,-6.157887,-1.0199299
5.4156766,4.556037,0.023737457,-0.39035273,-0.02110506,7.6853876,-6.277597,-0.9624691
5.4155865,4.555643,0.023737457,-0.39035273,-0.02110506,7.6853876,-6.277597,-0.9624691
5.415487,4.555207,0.020541664,-0.3978096,-0.024300855,7.6949644,-6.3781533,-1.0055647
5.4153895,4.554782,0.020541664,-0.3978096,-0.024300855,7.6949644,-6.3781533,-1.0055647
5.4153957,4.554472,0.019476399,-0.40420118,-0.027496647,7.771579,-6.4739213,-0.90500826
5.4154034,4.554158,0.019476399,-0.40420118,-0.027496647,7.771579,-6.4739213,-0.90500826
5.4153695,4.553831,0.018411135,-0.40420118,-0.029627176,7.8386164,-6.493075,-0.9624691
5.4153376,4.5535026,0.018411135,-0.40420118,-0.029627176,7.8386164,-6.493075,-0.9624691
5.4152956,4.553162,0.015215342,-0.4010054,-0.028561912,7.9152308,-6.435614,-0.8619126
5.4152555,4.5528293,0.015215342,-0.4010054,-0.028561912,7.9152308,-6.435614,-0.8619126
5.4151993,4.5524764,0.008823755,-0.3967443,-0.028561912,8.231265,-6.469133,-0.770933
5.415144,4.5521245,0.008823755,-0.3967443,-0.028561912,8.231265,-6.469133,-0.770933
5.4150934,4.551784,0.00030163955,-0.38822222,-0.034953497,8.341399,-6.6367273,-0.7757214
5.4150443,4.5514445,0.00030163955,-0.38822222,-0.034953497,8.341399,-6.6367273,-0.7757214
5.4149895,4.551118,-0.006089947,-0.3733085,-0.045606144,8.274361,-6.670246,-0.81881696
5.4149895,4.551118,-0.006089947,-0.3733085,-0.045606144,8.274361,-6.670246,-0.81881696
5.4149265,4.550741,-0.006089947,-0.3733085,-0.045606144,8.274361,-6.670246,-0.81881696
5.414875,4.550442,-0.012481534,-0.35626426,-0.05519352,8.202535,-6.6846113,-0.8283938
5.414796,4.549896,-0.01674259,-0.3413506,-0.07117249,8.145074,-6.7851677,-0.770933
5.4147654,4.5496254,-0.01674259,-0.3413506,-0.07117249,8.145074,-6.7851677,-0.770933
5.414763,4.5493584,-0.017807856,-0.33069792,-0.08502093,8.001422,-6.871359,-0.7661445
5.4147606,4.549092,-0.017807856,-0.33069792,-0.08502093,8.001422,-6.871359,-0.7661445
5.414772,4.5488267,-0.01674259,-0.32324108,-0.092477776,7.9248075,-6.9288197,-0.770933
5.414784,4.548563,-0.01674259,-0.32324108,-0.092477776,7.9248075,-6.9288197,-0.770933
5.414801,4.548299,-0.013546798,-0.3200453,-0.09886937,7.9104424,-6.991069,-0.78050977
5.414818,4.548035,-0.013546798,-0.3200453,-0.09886937,7.9104424,-6.991069,-0.78050977
5.4148436,4.5477743,-0.006089947,-0.3200453,-0.09886937,7.8912888,-7.0964136,-0.7469909
5.414869,4.547513,-0.006089947,-0.3200453,-0.09886937,7.8912888,-7.0964136,-0.7469909
5.414899,4.547261,0.0024321685,-0.3200453,-0.09460831,7.9008656,-7.1634517,-0.7134721
5.4149294,4.5470104,0.0024321685,-0.3200453,-0.09460831,7.9008656,-7.1634517,-0.7134721
5.414983,4.546755,0.012019549,-0.32324108,-0.08715145,7.819463,-7.2209125,-0.7469909
5.415036,4.5465007,0.012019549,-0.32324108,-0.08715145,7.819463,-7.2209125,-0.7469909
5.4150925,4.5462646,0.024802722,-0.32643688,-0.07436828,7.848193,-7.2352777,-0.6751649
5.415148,4.5460286,0.024802722,-0.32643688,-0.07436828,7.848193,-7.2352777,-0.6751649
5.415228,4.5457993,0.037585896,-0.32963267,-0.059454583,7.872135,-7.2927384,-0.7326257
5.4153075,4.54557,0.037585896,-0.32963267,-0.059454583,7.872135,-7.2927384,-0.7326257
5.4154134,4.545353,0.051434334,-0.33176318,-0.03814929,7.8386164,-7.297527,-0.7469909
5.4154134,4.545353,0.051434334,-0.33176318,-0.03814929,7.8386164,-7.297527,-0.7469909
5.415561,4.5450487,0.06847856,-0.33176318,-0.014713474,7.8625584,-7.2544312,-0.7757214
5.415662,4.5448956,0.06847856,-0.33176318,-0.014713474,7.8625584,-7.2544312,-0.7757214
5.4159045,4.544562,0.08445753,-0.33069792,0.009787609,7.8865004,-7.225701,-0.7374141
5.4160476,4.5443945,0.08445753,-0.33069792,0.009787609,7.8865004,-7.225701,-0.7374141
5.416215,4.544256,0.10150176,-0.32750213,0.03641922,7.848193,-7.153875,-0.7374141
5.416383,4.5441165,0.10150176,-0.32750213,0.03641922,7.848193,-7.153875,-0.7374141
5.416383,4.5441165,0.10150176,-0.32750213,0.03641922,7.848193,-7.153875,-0.7374141
5.416383,4.5441165,0.10150176,-0.32750213,0.03641922,7.848193,-7.153875,-0.7374141
5.4169774,4.5438123,0.13559023,-0.31471896,0.09820456,7.8290396,-7.015011,-0.80445176
5.4171968,4.5437403,0.13559023,-0.31471896,0.09820456,7.8290396,-7.015011,-0.80445176
5.4174385,4.543701,0.14943866,-0.30513158,0.1269667,7.833828,-7.038953,-0.7661445
5.4176807,4.543662,0.14943866,-0.30513158,0.1269667,7.833828,-7.038953,-0.7661445
5.4179535,4.543653,0.1632871,-0.2955442,0.15572885,7.795521,-6.9288197,-0.8379706
5.4182234,4.5436444,0.1632871,-0.2955442,0.15572885,7.795521,-6.9288197,-0.8379706
5.4185114,4.5436716,0.17607027,-0.28489155,0.1866215,7.785944,-6.9048777,-0.79487497
5.418801,4.5436993,0.17607027,-0.28489155,0.1866215,7.785944,-6.9048777,-0.79487497
5.419124,4.543755,0.18672292,-0.27317366,0.21751417,7.752425,-6.8809357,-0.82360536
5.4194317,4.5438085,0.18672292,-0.27317366,0.21751417,7.752425,-6.8809357,-0.82360536
5.4197903,4.5438914,0.19737557,-0.26145574,0.24840684,7.6949644,-6.871359,-0.8283938
5.4201612,4.543978,0.19737557,-0.26145574,0.24840684,7.6949644,-6.871359,-0.8283938
5.4205627,4.5440817,0.20802821,-0.25186837,0.28143004,7.699753,-6.871359,-0.90021986
5.4209623,4.544185,0.20802821,-0.25186837,0.28143004,7.699753,-6.871359,-0.90021986
5.421395,4.5443177,0.21868086,-0.24015045,0.313388,7.666234,-6.885724,-0.8858546
5.421829,4.5444517,0.21868086,-0.24015045,0.313388,7.666234,-6.885724,-0.8858546
5.4222775,4.5446253,0.23039876,-0.2294978,0.3485417,7.5848308,-6.8905125,-0.7422025
5.4227233,4.5447984,0.23039876,-0.2294978,0.3485417,7.5848308,-6.8905125,-0.7422025
5.423234,4.544989,0.2410514,-0.21884516,0.38902175,7.541735,-6.919243,-0.8379706
5.4237423,4.545179,0.2410514,-0.21884516,0.38902175,7.541735,-6.919243,-0.8379706
5.42431,4.5453806,0.24957353,-0.20925778,0.4326976,7.489063,-6.9000893,-0.90979666
5.424877,4.5455823,0.24957353,-0.20925778,0.4326976,7.489063,-6.9000893,-0.90979666
5.425496,4.545805,0.25703037,-0.19753987,0.4806345,7.517793,-6.9862804,-0.93373865
5.426122,4.546031,0.25703037,-0.19753987,0.4806345,7.517793,-6.9862804,-0.93373865
5.426788,4.546276,0.26448724,-0.18262617,0.5317672,7.4507556,-6.9288197,-0.9576807
5.427464,4.546526,0.26448724,-0.18262617,0.5317672,7.4507556,-6.9288197,-0.9576807
5.4281898,4.546795,0.26981354,-0.16558194,0.5860957,7.398083,-6.8569937,-0.9911995
5.428921,4.547066,0.26981354,-0.16558194,0.5860957,7.398083,-6.8569937,-0.9911995
5.429704,4.5473647,0.27620512,-0.14747244,0.6425547,7.249643,-6.8761473,-0.9768343
5.4304905,4.5476646,0.27620512,-0.14747244,0.6425547,7.249643,-6.8761473,-0.9768343
5.431335,4.5479727,0.28153145,-0.13042821,0.6990137,7.153875,-6.895301,-1.0295067
5.4321847,4.548282,0.28153145,-0.13042821,0.6990137,7.153875,-6.895301,-1.0295067
5.4330907,4.5486174,0.2857925,-0.11338398,0.76292956,7.0245876,-6.8665705,-1.0342951
5.4340014,4.5489535,0.2857925,-0.11338398,0.76292956,7.0245876,-6.8665705,-1.0342951
5.4349775,4.5493126,0.2889883,-0.09847028,0.8311065,6.8665705,-6.909666,-1.0486604
5.435953,4.54967,0.2889883,-0.09847028,0.8311065,6.8665705,-6.909666,-1.0486604
5.4369955,4.550057,0.29111883,-0.08355658,0.90247923,6.7612257,-6.9862804,-1.0534488
5.4380383,4.5504427,0.29111883,-0.08355658,0.90247923,6.7612257,-6.9862804,-1.0534488
5.439153,4.5508733,0.29111883,-0.0707734,0.9834393,6.6654577,-7.0485296,-0.9672575
5.4402747,4.551306,0.29111883,-0.0707734,0.9834393,6.6654577,-7.0485296,-0.9672575
5.4414682,4.551778,0.29111883,-0.057990227,1.06653,6.483498,-7.16824,-0.8714894
5.442664,4.552249,0.29111883,-0.057990227,1.06653,6.483498,-7.16824,-0.8714894
5.4439387,4.552741,0.29111883,-0.048402846,1.1528164,6.2871737,-7.2065473,-0.8523358
5.4452205,4.553234,0.29111883,-0.048402846,1.1528164,6.2871737,-7.2065473,-0.8523358
5.446591,4.553749,0.2921841,-0.040945996,1.2465596,6.114791,-7.273585,-0.8331822
5.4479628,4.554263,0.2921841,-0.040945996,1.2465596,6.114791,-7.273585,-0.8331822
5.4494314,4.5548058,0.2953799,-0.037750203,1.3477597,5.9998693,-7.302315,-0.7661445
5.4508996,4.5553465,0.2953799,-0.037750203,1.3477597,5.9998693,-7.302315,-0.7661445
5.4524646,4.5559187,0.29964095,-0.036684938,1.4553515,5.884948,-7.40766,-0.641646
5.4540157,4.556484,0.29964095,-0.036684938,1.4553515,5.884948,-7.40766,-0.641646
5.4557047,4.55707,0.30816308,-0.03988073,1.5714653,5.7604494,-7.4507556,-0.7038953
5.4574223,4.557663,0.30816308,-0.03988073,1.5714653,5.7604494,-7.4507556,-0.7038953
5.4592295,4.5582843,0.3220115,-0.044141788,1.6950359,5.631162,-7.608773,-0.5650316
5.4610286,4.5589004,0.3220115,-0.044141788,1.6950359,5.631162,-7.608773,-0.5650316
5.4629607,4.559549,0.34225154,-0.051598642,1.8260635,5.511452,-7.7332716,-0.5315128
5.4649143,4.5602016,0.34225154,-0.051598642,1.8260635,5.511452,-7.7332716,-0.5315128
5.4669914,4.560871,0.36568734,-0.062251285,1.9624174,5.410896,-7.896077,-0.62249243
5.4690723,4.5615387,0.36568734,-0.062251285,1.9624174,5.410896,-7.896077,-0.62249243
5.471292,4.562213,0.3912537,-0.078230254,2.1051629,5.080496,-8.09719,-0.80924016
5.473527,4.5628896,0.3912537,-0.078230254,2.1051629,5.080496,-8.09719,-0.80924016
5.475912,4.5635715,0.4178853,-0.09633975,2.2596262,4.477157,-8.470686,-1.0773908
5.4783015,4.564251,0.4178853,-0.09633975,2.2596262,4.477157,-8.470686,-1.0773908
5.480858,4.5649605,0.44664744,-0.11977556,2.4268727,4.4005427,-8.695741,-1.0534488
5.483414,4.565666,0.44664744,-0.11977556,2.4268727,4.4005427,-8.695741,-1.0534488
5.486143,4.5663977,0.4786054,-0.14853771,2.605837,4.31914,-8.719683,-1.0247183
5.488889,4.567129,0.4786054,-0.14853771,2.605837,4.31914,-8.719683,-1.0247183
5.4918184,4.567885,0.51588964,-0.17729984,2.7975848,3.9264908,-8.78672,-1.1252748
5.4918184,4.567885,0.51588964,-0.17729984,2.7975848,3.9264908,-8.78672,-1.1252748
5.497829,4.5694165,0.55636966,-0.20393145,2.9978545,3.5482068,-8.882488,-1.1875241
5.5010076,4.5702114,0.55636966,-0.20393145,2.9978545,3.5482068,-8.882488,-1.1875241
5.504309,4.5710225,0.6021761,-0.23482412,3.205581,3.3183637,-8.848969,-1.2497733
5.5076513,4.5718384,0.6021761,-0.23482412,3.205581,3.3183637,-8.848969,-1.2497733
5.5111933,4.572693,0.654374,-0.26678208,3.4207644,3.1316159,-8.66701,-1.292869
5.5147357,4.573543,0.654374,-0.26678208,3.4207644,3.1316159,-8.66701,-1.292869
5.518544,4.574456,0.71189827,-0.29980525,3.64447,2.992752,-8.571242,-1.2162545
5.5223303,4.5753593,0.71189827,-0.29980525,3.64447,2.992752,-8.571242,-1.2162545
5.526347,4.5763135,0.7736836,-0.33389372,3.8681755,3.1124623,-8.374918,-1.2545617
5.5303516,4.577259,0.7736836,-0.33389372,3.8681755,3.1124623,-8.374918,-1.2545617
5.534613,4.5782757,0.83973,-0.36372113,4.092946,3.1172507,-8.303091,-1.1971009
5.5388527,4.579281,0.83973,-0.36372113,4.092946,3.1172507,-8.303091,-1.1971009
5.5433216,4.580351,0.91003746,-0.38822222,4.3155866,3.2752678,-8.101978,-1.2593501
5.5477767,4.581411,0.91003746,-0.38822222,4.3155866,3.2752678,-8.101978,-1.2593501
5.552473,4.5825443,0.98034495,-0.40633172,4.5329003,3.4763808,-7.9870567,-1.3263878
5.557169,4.5836697,0.98034495,-0.40633172,4.5329003,3.4763808,-7.9870567,-1.3263878
5.562063,4.584862,1.0474566,-0.42018014,4.7406273,3.6870706,-7.8290396,-1.3120226
5.566958,4.586047,1.0474566,-0.42018014,4.7406273,3.6870706,-7.8290396,-1.3120226
5.5720506,4.5872974,1.1113725,-0.42763698,4.940897,3.98874,-7.704541,-1.3311762
5.577128,4.588536,1.1113725,-0.42763698,4.940897,3.98874,-7.704541,-1.3311762
5.58242,4.589834,1.1742231,-0.43083277,5.132644,4.3526587,-7.5465236,-1.4508862
5.5876956,4.5911193,1.1742231,-0.43083277,5.132644,4.3526587,-7.5465236,-1.4508862
5.5931396,4.5924597,1.2306821,-0.42657173,5.312674,4.644751,-7.4746976,-1.4987702
5.5985775,4.5937886,1.2306821,-0.42657173,5.312674,4.644751,-7.4746976,-1.4987702
5.6041746,4.595169,1.2796843,-0.4095275,5.4756594,4.865018,-7.4986396,-1.733402
5.609741,4.596533,1.2796843,-0.4095275,5.4756594,4.865018,-7.4986396,-1.733402
5.615446,4.597954,1.3212296,-0.38396114,5.6258616,5.104438,-7.52737,-1.8483237
5.6211925,4.599375,1.3212296,-0.38396114,5.6258616,5.104438,-7.52737,-1.8483237
5.627012,4.6008396,1.3563833,-0.35306847,5.7664766,5.4444146,-7.4842744,-1.9057846
5.632803,4.6022882,1.3563833,-0.35306847,5.7664766,5.4444146,-7.4842744,-1.9057846
5.638703,4.6037946,1.3883412,-0.31791475,5.8943086,5.6886234,-7.5321584,-1.9249382
5.644598,4.605292,1.3883412,-0.31791475,5.8943086,5.6886234,-7.5321584,-1.9249382
5.6505957,4.6068482,1.4171034,-0.2774347,6.009357,5.827487,-7.5225816,-2.078167
5.6566005,4.6083975,1.4171034,-0.2774347,6.009357,5.827487,-7.5225816,-2.078167
5.6626678,4.609997,1.4426697,-0.23375887,6.110557,5.889736,-7.503428,-2.0350714
5.6687493,4.6115904,1.4426697,-0.23375887,6.110557,5.889736,-7.503428,-2.0350714
5.6748967,4.6132393,1.4682361,-0.18901776,6.20217,6.033388,-7.441179,-2.030283
5.6810403,4.614878,1.4682361,-0.18901776,6.20217,6.033388,-7.441179,-2.030283
5.687247,4.61657,1.4906067,-0.14427665,6.2852607,6.2249246,-7.3789296,-2.0207062
5.693451,4.618252,1.4906067,-0.14427665,6.2852607,6.2249246,-7.3789296,-2.0207062
5.6997113,4.6199875,1.5119119,-0.09633975,6.3587637,6.215348,-7.3645644,-1.8052281
5.70597,4.6217136,1.5119119,-0.09633975,6.3587637,6.215348,-7.3645644,-1.8052281
5.7122726,4.6234894,1.5321519,-0.043076526,6.4226794,6.229713,-7.249643,-1.757344
5.718588,4.625259,1.5321519,-0.043076526,6.4226794,6.229713,-7.249643,-1.757344
5.7249475,4.62707,1.5502614,0.009121433,6.4780736,6.105214,-7.2687964,-1.685518
5.7312994,4.6288686,1.5502614,0.009121433,6.4780736,6.105214,-7.2687964,-1.685518
5.7377048,4.6307144,1.5662404,0.062384658,6.527076,6.0956373,-7.2687964,-1.6184803
5.744103,4.632547,1.5662404,0.062384658,6.527076,6.0956373,-7.2687964,-1.6184803
5.7505283,4.634427,1.5811541,0.11458261,6.5686207,6.081272,-7.2592196,-1.4221559
5.75696,4.636297,1.5811541,0.11458261,6.5686207,6.081272,-7.2592196,-1.4221559
5.7634115,4.638203,1.5950025,0.1689111,6.600579,6.0238113,-7.2592196,-1.3599066
5.7698574,4.640096,1.5950025,0.1689111,6.600579,6.0238113,-7.2592196,-1.3599066
5.7763333,4.642028,1.6099162,0.22110906,6.629341,5.8705826,-7.374141,-1.2354081
5.7828097,4.6439476,1.6099162,0.22110906,6.629341,5.8705826,-7.374141,-1.2354081
5.789306,4.6459055,1.6269605,0.27330703,6.654907,5.985504,-7.40766,-1.2162545
5.7957907,4.6478477,1.6269605,0.27330703,6.654907,5.985504,-7.40766,-1.2162545
5.8023195,4.649831,1.64507,0.32870078,6.6740823,5.7748146,-7.5561004,-1.163582
5.8088365,4.6517982,1.64507,0.32870078,6.6740823,5.7748146,-7.5561004,-1.163582
5.8153553,4.6538105,1.6663753,0.38835558,6.688996,5.659893,-7.599196,-1.0199299
5.821895,4.655817,1.6663753,0.38835558,6.688996,5.659893,-7.599196,-1.0199299
5.8284245,4.6578646,1.6887459,0.44801039,6.7039094,5.717354,-7.690176,-0.92416185
5.834962,4.6599016,1.6887459,0.44801039,6.7039094,5.717354,-7.690176,-0.92416185
5.8415046,4.6619844,1.7143122,0.5097957,6.7124314,5.899313,-7.776367,-0.91458505
5.848049,4.664054,1.7143122,0.5097957,6.7124314,5.899313,-7.776367,-0.91458505
5.8545938,4.666174,1.742009,0.57797265,6.715627,6.1770406,-7.8912888,-0.90500826
5.8611407,4.66828,1.742009,0.57797265,6.715627,6.1770406,-7.8912888,-0.90500826
5.86768,4.6704383,1.7686406,0.65254116,6.711366,6.253655,-8.001422,-0.81881696
5.874222,4.672583,1.7686406,0.65254116,6.711366,6.253655,-8.001422,-0.81881696
5.880744,4.6747723,1.794207,0.7303055,6.6921916,6.469133,-8.173804,-0.866701
5.8872676,4.6769466,1.794207,0.7303055,6.6921916,6.469133,-8.173804,-0.866701
5.8937416,4.6791587,1.8165776,0.809135,6.6559725,6.5122285,-8.389283,-0.8523358
5.900244,4.6813655,1.8165776,0.809135,6.6559725,6.5122285,-8.389283,-0.8523358
5.9066796,4.6836157,1.8368175,0.88689935,6.6037745,6.6510925,-8.628703,-0.6560113
5.9260893,4.690438,1.8527966,0.9604026,6.536663,6.95755,-8.896853,-0.41180268
5.9260893,4.690438,1.8527966,0.9604026,6.536663,6.95755,-8.896853,-0.41180268
5.9260893,4.690438,1.8527966,0.9604026,6.536663,6.95755,-8.896853,-0.41180268
5.9324093,4.692743,1.866645,1.0296447,6.455703,7.3406224,-9.102755,-0.22026655
5.9324093,4.692743,1.866645,1.0296447,6.455703,7.3406224,-9.102755,-0.22026655
5.9324093,4.692743,1.866645,1.0296447,6.455703,7.3406224,-9.102755,-0.22026655
5.9324093,4.692743,1.866645,1.0296447,6.455703,7.3406224,-9.102755,-0.22026655
5.9571624,4.7016907,1.886885,1.155346,6.238389,7.848193,-9.80665,0.15322891
5.963406,4.70405,1.886885,1.155346,6.238389,7.848193,-9.80665,0.15322891
5.969358,4.706364,1.8943418,1.2150007,6.096709,8.12592,-10.189722,0.1388637
5.9753065,4.7086625,1.8943418,1.2150007,6.096709,8.12592,-10.189722,0.1388637
5.981088,4.7109714,1.902864,1.2767861,5.9337234,8.303091,-10.524911,0.090979666
5.986873,4.7132673,1.902864,1.2767861,5.9337234,8.303091,-10.524911,0.090979666
5.992513,4.715584,1.907125,1.3385714,5.7526283,8.504205,-10.721235,-0.0047884034
5.9981284,4.717877,1.907125,1.3385714,5.7526283,8.504205,-10.721235,-0.0047884034
6.003536,4.720168,1.8996682,1.4003568,5.5470324,8.595184,-10.821792,0.08140286
6.0089693,4.7224565,1.8996682,1.4003568,5.5470324,8.595184,-10.821792,0.08140286
6.014193,4.724739,1.8783629,1.4674685,5.3190656,8.523358,-10.874464,0.1340753
6.0193577,4.726982,1.8783629,1.4674685,5.3190656,8.523358,-10.874464,0.1340753
6.0243263,4.729219,1.8400134,1.5345801,5.071924,8.221688,-10.845734,0.272939
6.029283,4.7314377,1.8400134,1.5345801,5.071924,8.221688,-10.845734,0.272939
6.033979,4.7336125,1.7835543,1.6027571,4.8098693,7.7332716,-10.726024,0.49320555
6.038697,4.7357845,1.7835543,1.6027571,4.8098693,7.7332716,-10.726024,0.49320555
6.0431504,4.7379003,1.7143122,1.6688035,4.5446186,7.1347213,-10.606314,0.6895301
6.047599,4.7400007,1.7143122,1.6688035,4.5446186,7.1347213,-10.606314,0.6895301
6.0517883,4.742036,1.6344173,1.7284583,4.281498,6.445191,-10.496181,0.93373865
6.056022,4.7440805,1.6344173,1.7284583,4.281498,6.445191,-10.496181,0.93373865
6.0600157,4.746056,1.5460004,1.783852,4.0258346,5.6982,-10.352529,1.1013328
6.0640163,4.7480235,1.5460004,1.783852,4.0258346,5.6982,-10.352529,1.1013328
6.0676847,4.7498627,1.452257,1.8339194,3.7850847,4.8362875,-10.242394,1.2114661
6.0713844,4.751707,1.452257,1.8339194,3.7850847,4.8362875,-10.242394,1.2114661
6.0749025,4.7534876,1.3574486,1.8775953,3.5624447,3.9743748,-10.0748005,1.2880806
6.0784254,4.755261,1.3574486,1.8775953,3.5624447,3.9743748,-10.0748005,1.2880806
6.081777,4.756962,1.26264,1.9148796,3.3600442,3.1555579,-9.916783,1.2976574
6.085129,4.7586536,1.26264,1.9148796,3.3600442,3.1555579,-9.916783,1.2976574
6.08836,4.760276,1.1710273,1.9468374,3.1842756,2.3127987,-9.797073,1.2641385
6.091596,4.761893,1.1710273,1.9468374,3.1842756,2.3127987,-9.797073,1.2641385
6.0947733,4.7634163,1.0815451,1.9713385,3.0319428,1.5705963,-9.562442,0.9959879
6.09795,4.7649336,1.0815451,1.9713385,3.0319428,1.5705963,-9.562442,0.9959879
6.101073,4.766311,0.9952586,1.9883828,2.9009154,0.91458505,-9.404425,0.78529817
6.104205,4.767685,0.9952586,1.9883828,2.9009154,0.91458505,-9.404425,0.78529817
6.107241,4.7689257,0.91429853,1.9915786,2.7922583,0.34476504,-9.313444,0.51235914
6.1102824,4.7701607,0.91429853,1.9915786,2.7922583,0.34476504,-9.313444,0.51235914
6.1132345,4.7713046,0.83973,1.985187,2.701711,-0.0047884034,-9.3421755,0.40701428
6.116189,4.7724414,0.83973,1.985187,2.701711,-0.0047884034,-9.3421755,0.40701428
6.1190743,4.7735195,0.77900994,1.9670775,2.6282077,0.39743748,-10.783484,0.61291564
6.1219587,4.774589,0.77900994,1.9670775,2.6282077,0.39743748,-10.783484,0.61291564
6.124784,4.775635,0.7534436,1.9468374,2.572814,-0.019153614,-9.639056,0.6703765
6.1276174,4.776676,0.7534436,1.9468374,2.572814,-0.019153614,-9.639056,0.6703765
6.130379,4.777627,0.7172246,1.9159448,2.5099633,-0.58897364,-9.562442,0.02873042
6.133142,4.7785716,0.7172246,1.9159448,2.5099633,-0.58897364,-9.562442,0.02873042
6.13585,4.7794666,0.6788751,1.8680079,2.4556348,-1.3072342,-9.289502,-0.15322891
6.1385593,4.780356,0.6788751,1.8680079,2.4556348,-1.3072342,-9.289502,-0.15322891
6.14123,4.7812223,0.65117824,1.7945046,2.4151547,-1.5179238,-9.696517,0.2681506
6.143903,4.782084,0.65117824,1.7945046,2.4151547,-1.5179238,-9.696517,0.2681506
6.1465344,4.7829075,0.63306874,1.6965003,2.3831968,-1.3599066,-9.921572,0.29209262
6.1491733,4.7837276,0.63306874,1.6965003,2.3831968,-1.3599066,-9.921572,0.29209262
6.151773,4.7845154,0.6277424,1.5878433,2.3555,-0.8810662,-9.720459,0.23942018
6.1543736,4.785299,0.6277424,1.5878433,2.3555,-0.8810662,-9.720459,0.23942018
6.1569386,4.786063,0.6298729,1.4802517,2.3278031,-0.6751649,-9.495404,0.23942018
6.159504,4.7868233,0.6298729,1.4802517,2.3278031,-0.6751649,-9.495404,0.23942018
6.1620383,4.7875733,0.634134,1.3726599,2.3022368,-1.091756,-9.610326,0.19632454
6.1645703,4.7883186,0.634134,1.3726599,2.3022368,-1.091756,-9.610326,0.19632454
6.1670775,4.7890587,0.6405256,1.2597419,2.2809315,-1.484405,-9.864111,0.21068975
6.169588,4.789796,0.6405256,1.2597419,2.2809315,-1.484405,-9.864111,0.21068975
6.172073,4.790531,0.6522435,1.1329755,2.2660177,-1.5993267,-10.108319,0.29688102
6.174558,4.791263,0.6522435,1.1329755,2.2660177,-1.5993267,-10.108319,0.29688102
6.177021,4.791996,0.67354876,0.99768686,2.2542999,-1.3982137,-10.228029,0.2873042
6.1794844,4.792726,0.67354876,0.99768686,2.2542999,-1.3982137,-10.228029,0.2873042
6.1819267,4.7934628,0.70124567,0.8645288,2.2457776,-1.0630256,-10.366894,0.2825158
6.184369,4.794196,0.70124567,0.8645288,2.2457776,-1.0630256,-10.366894,0.2825158
6.186799,4.7949467,0.7332036,0.7420234,2.243647,-0.79487497,-10.601525,0.35913026
6.189229,4.795695,0.7332036,0.7420234,2.243647,-0.79487497,-10.601525,0.35913026
6.191647,4.796459,0.76622677,0.6354969,2.2457776,-0.5363012,-10.769119,0.39264908
6.19407,4.7972226,0.76622677,0.6354969,2.2457776,-0.5363012,-10.769119,0.39264908
6.1964855,4.798018,0.803511,0.54175365,2.2468429,-0.320823,-10.936713,0.545878
6.1989007,4.798811,0.803511,0.54175365,2.2468429,-0.320823,-10.936713,0.545878
6.201298,4.799616,0.84186053,0.45546725,2.2500389,0.01436521,-11.166556,0.50278234
6.203694,4.800418,0.84186053,0.45546725,2.2500389,0.01436521,-11.166556,0.50278234
6.206076,4.8012476,0.87807953,0.37663767,2.2468429,0.40701428,-11.358093,0.7230489
6.2084646,4.8020763,0.87807953,0.37663767,2.2468429,0.40701428,-11.358093,0.7230489
6.210744,4.802901,0.912168,0.30526495,2.235125,0.8283938,-11.554418,0.7757214
6.213006,4.8037214,0.912168,0.30526495,2.235125,0.8283938,-11.554418,0.7757214
6.215082,4.8046327,0.9451912,0.24561015,2.2159503,1.3215994,-11.683704,0.9624691
6.2171817,4.8055515,0.9451912,0.24561015,2.2159503,1.3215994,-11.683704,0.9624691
6.219233,4.806535,0.9750186,0.2019343,2.1871881,1.8291701,-11.841722,1.1923125
6.221293,4.8075204,0.9750186,0.2019343,2.1871881,1.8291701,-11.841722,1.1923125
6.2233047,4.8085237,1.0037807,0.17423743,2.146708,1.9919758,-12.081141,1.1779473
6.225312,4.809524,1.0037807,0.17423743,2.146708,1.9919758,-12.081141,1.1779473
6.22728,4.8105507,1.0314777,0.16358478,2.0977058,1.9153614,-12.215217,1.1540052
6.2292438,4.8115745,1.0314777,0.16358478,2.0977058,1.9153614,-12.215217,1.1540052
6.2311597,4.812632,1.0581093,0.16251951,2.049769,1.7812861,-12.320562,1.2401965
6.233035,4.8136654,1.0581093,0.16251951,2.049769,1.7812861,-12.320562,1.2401965
6.234949,4.814719,1.0581093,0.16251951,2.049769,1.7812861,-12.320562,1.2401965
6.236869,4.815838,1.0836756,0.16465004,2.0071585,1.6424223,-12.406754,1.3551182
6.2387166,4.8169746,1.1081767,0.1689111,1.97307,1.6376339,-12.41633,1.532289
6.240563,4.818109,1.1081767,0.1689111,1.97307,1.6376339,-12.41633,1.532289
6.2423806,4.819269,1.1326778,0.17849848,1.9485689,1.6998832,-12.382812,1.6184803
6.244215,4.820438,1.1326778,0.17849848,1.9485689,1.6998832,-12.382812,1.6184803
6.246039,4.8215995,1.1326778,0.17849848,1.9485689,1.6998832,-12.382812,1.6184803
6.247851,4.8227935,1.1571789,0.19767325,1.9293941,1.661576,-12.258312,1.6998832
6.2496595,4.823985,1.1571789,0.19767325,1.9293941,1.661576,-12.258312,1.6998832
6.2514596,4.825206,1.1838105,0.22643538,1.916611,1.5753847,-12.167333,1.70946
6.2532625,4.8264265,1.1838105,0.22643538,1.916611,1.5753847,-12.167333,1.70946
6.2550707,4.8276887,1.2104421,0.26265436,1.9091542,1.436521,-12.081141,1.8387469
6.2568808,4.828951,1.2104421,0.26265436,1.9091542,1.436521,-12.081141,1.8387469
6.258706,4.8302546,1.2392042,0.3041997,1.9070235,1.340753,-11.9853735,1.8914193
6.2605176,4.8315463,1.2392042,0.3041997,1.9070235,1.340753,-11.9853735,1.8914193
6.2623425,4.8328753,1.2690316,0.35107133,1.9091542,1.283292,-11.856087,1.9536686
6.2641544,4.834193,1.2690316,0.35107133,1.9091542,1.283292,-11.856087,1.9536686
6.265988,4.835545,1.2967285,0.40113875,1.9155457,1.2401965,-11.722012,1.8722657
6.2678204,4.8368945,1.2967285,0.40113875,1.9155457,1.2401965,-11.722012,1.8722657
6.2696624,4.83827,1.3254906,0.45440197,1.9230026,1.2545617,-11.563994,1.9249382
6.2715106,4.8396497,1.3254906,0.45440197,1.9230026,1.2545617,-11.563994,1.9249382
6.2733665,4.8410535,1.3542528,0.5087305,1.9283289,1.3072342,-11.425131,1.9153614
6.275218,4.8424516,1.3542528,0.5087305,1.9283289,1.3072342,-11.425131,1.9153614
6.2770934,4.843886,1.3776885,0.563059,1.9315246,1.2210429,-11.262324,1.9776106
6.2789636,4.845315,1.3776885,0.563059,1.9315246,1.2210429,-11.262324,1.9776106
6.2808414,4.846768,1.3968633,0.619518,1.9261984,1.1492168,-11.161768,2.0254946
6.2827177,4.8482184,1.3968633,0.619518,1.9261984,1.1492168,-11.161768,2.0254946
0.001419308,4.8496933,1.4128423,0.6738465,1.9187415,0.93852705,-10.941502,2.054225
0.0033047504,4.8511662,1.4128423,0.6738465,1.9187415,0.93852705,-10.941502,2.054225
0.0052015646,4.8526597,1.4256254,0.7271097,1.9102194,0.8810662,-10.6877165,2.1643584
0.007096745,4.854151,1.4256254,0.7271097,1.9102194,0.8810662,-10.6877165,2.1643584
0.008998225,4.8556542,1.4330823,0.7771771,1.8985015,0.78529817,-10.548853,2.2409728
0.010898075,4.8571553,1.4330823,0.7771771,1.8985015,0.78529817,-10.548853,2.2409728
0.012796399,4.8586597,1.4341476,0.8293751,1.8846531,0.7469909,-10.477027,2.207454
0.014710155,4.860175,1.4341476,0.8293751,1.8846531,0.7469909,-10.477027,2.207454
0.016601626,4.861676,1.4352129,0.881573,1.8708047,0.6607997,-10.46745,2.1068976
0.018448237,4.863141,1.4352129,0.881573,1.8708047,0.6607997,-10.46745,2.1068976
0.020312108,4.8646216,1.4352129,0.93377095,1.8558909,0.59855044,-10.299856,2.0159178
0.02217262,4.8660975,1.4352129,0.93377095,1.8558909,0.59855044,-10.299856,2.0159178
0.024030669,4.8675723,1.4330823,0.98383844,1.8399119,0.59855044,-10.156203,1.9871874
0.025867103,4.869027,1.4330823,0.98383844,1.8399119,0.59855044,-10.156203,1.9871874
0.027707096,4.8704815,1.427756,1.0339059,1.8218025,0.79008657,-9.868899,1.9632454
0.02956693,4.8719487,1.427756,1.0339059,1.8218025,0.79008657,-9.868899,1.9632454
0.031384043,4.8733835,1.4192339,1.082908,1.7930403,0.9576807,-9.504981,1.9249382
0.033193953,4.8748097,1.4192339,1.082908,1.7930403,0.9576807,-9.504981,1.9249382
0.03497525,4.876222,1.403255,1.1319102,1.747234,1.1252748,-9.069236,1.9153614
0.036764033,4.877638,1.403255,1.1319102,1.747234,1.1252748,-9.069236,1.9153614
0.03849907,4.8790226,1.375558,1.1819776,1.6843834,1.2545617,-8.604761,1.9728222
0.040232822,4.8804035,1.375558,1.1819776,1.6843834,1.2545617,-8.604761,1.9728222
0.041892737,4.8817415,1.3361433,1.2331103,1.6012927,1.163582,-8.09719,1.934515
0.04355979,4.8830824,1.3361433,1.2331103,1.6012927,1.163582,-8.09719,1.934515
0.045148235,4.8843756,1.2807496,1.2789167,1.5011579,0.9528923,-7.690176,1.9919758
0.046737023,4.885667,1.2807496,1.2789167,1.5011579,0.9528923,-7.690176,1.9919758
0.048245955,4.886902,1.2104421,1.3172662,1.3893051,0.7374141,-7.3310456,2.0590134
0.049746107,4.888128,1.2104421,1.3172662,1.3893051,0.7374141,-7.3310456,2.0590134
0.05113302,4.889269,1.1305473,1.3492241,1.267865,0.5410896,-7.0102224,1.9440918
0.052521452,4.8904085,1.1305473,1.3492241,1.267865,0.5410896,-7.0102224,1.9440918
0.052521452,4.8904085,1.1305473,1.3492241,1.267865,0.5410896,-7.0102224,1.9440918
0.052521452,4.8904085,1.1305473,1.3492241,1.267865,0.5410896,-7.0102224,1.9440918
0.052521452,4.8904085,1.1305473,1.3492241,1.267865,0.5410896,-7.0102224,1.9440918
0.052521452,4.8904085,1.1305473,1.3492241,1.267865,0.5410896,-7.0102224,1.9440918
0.060958922,4.8973117,0.7246815,1.3790516,0.7320369,0.033518825,-6.2967505,1.7286136
0.060958922,4.8973117,0.7246815,1.3790516,0.7320369,0.033518825,-6.2967505,1.7286136
0.060958922,4.8973117,0.7246815,1.3790516,0.7320369,0.033518825,-6.2967505,1.7286136
0.061843466,4.898029,0.7246815,1.3790516,0.7320369,0.033518825,-6.2967505,1.7286136
0.062644996,4.8986683,0.61708975,1.3673337,0.58929145,-0.22984336,-6.2728086,1.6232687
0.06342131,4.899288,0.61708975,1.3673337,0.58929145,-0.22984336,-6.2728086,1.6232687
0.06417935,4.8998446,0.50949806,1.3460283,0.44548076,-0.51714754,-6.2967505,1.541866
0.06483654,4.900327,0.50949806,1.3460283,0.44548076,-0.51714754,-6.2967505,1.541866
0.06546593,4.900723,0.4029716,1.3140703,0.30273533,-0.6943185,-6.253655,1.4269443
0.0660994,4.90112,0.4029716,1.3140703,0.30273533,-0.6943185,-6.253655,1.4269443
0.06662524,4.901381,0.2985757,1.2735903,0.16425095,-0.9624691,-6.325481,1.3934253
0.06662524,4.901381,0.2985757,1.2735903,0.16425095,-0.9624691,-6.325481,1.3934253
0.06662524,4.901381,0.2985757,1.2735903,0.16425095,-0.9624691,-6.325481,1.3934253
0.068099044,4.902052,0.20057136,1.2256534,0.033223428,-1.1923125,-6.3542113,1.292869
0.068364665,4.902076,0.106828086,1.1691945,-0.09673884,-1.4077905,-6.4308257,1.2114661
0.0686303,4.902099,0.106828086,1.1691945,-0.09673884,-1.4077905,-6.4308257,1.2114661
0.06875921,4.902021,0.017345872,1.1084744,-0.22244005,-1.6184803,-6.445191,1.0869676
0.06888816,4.901943,0.017345872,1.1084744,-0.22244005,-1.6184803,-6.445191,1.0869676
0.06888969,4.9017816,-0.06894055,1.0434933,-0.33961913,-1.6903064,-6.493075,1.0821792
0.06889108,4.90162,-0.06894055,1.0434933,-0.33961913,-1.6903064,-6.493075,1.0821792
0.068771355,4.901374,-0.14883539,0.97425103,-0.4482761,-3.9695864,-9.562442,1.2114661
0.068651415,4.901128,-0.14883539,0.97425103,-0.4482761,-3.9695864,-9.562442,1.2114661
0.06844798,4.900852,-0.18611965,0.8858341,-0.516453,-1.9488802,-6.1387334,0.90979666
0.068244115,4.9005766,-0.18611965,0.8858341,-0.516453,-1.9488802,-6.1387334,0.90979666
0.06789323,4.900225,-0.2862545,0.7835687,-0.6485458,-2.1068976,-6.919243,1.2641385
0.06754201,4.8998737,-0.2862545,0.7835687,-0.6485458,-2.1068976,-6.919243,1.2641385
0.067072794,4.8994503,-0.3640188,0.67917275,-0.7476154,-2.777274,-6.5840545,1.163582
0.06660372,4.899027,-0.3640188,0.67917275,-0.7476154,-2.777274,-6.5840545,1.163582
0.06600087,4.898537,-0.44604418,0.5769074,-0.86372924,-2.4277205,-7.422025,1.460463
0.06539821,4.898048,-0.44604418,0.5769074,-0.86372924,-2.4277205,-7.422025,1.460463
0.06465788,4.8974934,-0.5227432,0.47038093,-0.9819736,-2.1404164,-7.0341644,1.4413095
0.06391711,4.8969393,-0.5227432,0.47038093,-0.9819736,-2.1404164,-7.0341644,1.4413095
0.06304087,4.8962994,-0.59092015,0.3606587,-1.1002179,-2.3558946,-6.7708025,1.067814
0.062164348,4.8956594,-0.59092015,0.3606587,-1.1002179,-2.3558946,-6.7708025,1.067814
0.061146684,4.894945,-0.66761917,0.2466754,-1.2216581,-2.1691468,-6.6367273,1.0007763
0.06012779,4.8942313,-0.66761917,0.2466754,-1.2216581,-2.1691468,-6.6367273,1.0007763
0.058969498,4.8934617,-0.7453835,0.12736578,-1.3441635,-2.1164744,-6.789956,1.2114661
0.05780855,4.8926916,-0.7453835,0.12736578,-1.3441635,-2.1164744,-6.789956,1.2114661
0.056508828,4.891847,-0.82101727,0.0069909045,-1.4656037,-2.0733786,-7.015011,1.1683705
0.055206273,4.8910017,-0.82101727,0.0069909045,-1.4656037,-2.0733786,-7.015011,1.1683705
0.053765994,4.8900876,-0.89238995,-0.11231872,-1.5849133,-1.9680338,-6.9383965,1.1109096
0.052325603,4.8891745,-0.89238995,-0.11231872,-1.5849133,-1.9680338,-6.9383965,1.1109096
0.050748277,4.8881903,-0.9605669,-0.22736728,-1.7020924,-1.7190368,-6.895301,1.0342951
0.04917101,4.8872066,-0.9605669,-0.22736728,-1.7020924,-1.7190368,-6.895301,1.0342951
0.047461856,4.886156,-1.0276786,-0.334959,-1.8171409,-1.5514427,-7.3071036,1.0726024
0.045751344,4.8851056,-1.0276786,-0.334959,-1.8171409,-1.5514427,-7.3071036,1.0726024
0.04391758,4.8839827,-1.0905292,-0.43083277,-1.9204715,-1.5035586,-7.4986396,0.9816227
0.042082693,4.882859,-1.0905292,-0.43083277,-1.9204715,-1.5035586,-7.4986396,0.9816227
0.04014444,4.8816876,-1.1480534,-0.5160539,-2.0163455,-1.412579,-7.469909,1.0247183
0.038203012,4.880515,-1.1480534,-0.5160539,-2.0163455,-1.412579,-7.469909,1.0247183
0.036163297,4.8792925,-1.2002515,-0.5948835,-2.1047623,-1.6903064,-8.058883,1.043872
0.03412434,4.878071,-1.2002515,-0.5948835,-2.1047623,-1.6903064,-8.058883,1.043872
0.03200151,4.8768106,-1.2460577,-0.669452,-2.1814613,-1.5753847,-7.9152308,1.0821792
0.029875185,4.8755493,-1.2460577,-0.669452,-2.1814613,-1.5753847,-7.9152308,1.0821792
0.027672695,4.8742504,-1.2876031,-0.74189,-2.2496383,-1.4508862,-8.365341,1.1827357
0.02547112,4.872952,-1.2876031,-0.74189,-2.2496383,-1.4508862,-8.365341,1.1827357
0.023204498,4.871609,-1.3216915,-0.8111322,-2.3029015,-1.3024458,-8.571242,1.1204864
0.020927899,4.870261,-1.3216915,-0.8111322,-2.3029015,-1.3024458,-8.571242,1.1204864
0.018616308,4.8688936,-1.3472579,-0.8771786,-2.3433816,-1.3503298,-8.892065,1.115698
0.016357237,4.8675575,-1.3472579,-0.8771786,-2.3433816,-1.3503298,-8.892065,1.115698
0.013948861,4.866127,-1.3674979,-0.9368334,-2.368948,-1.4556746,-9.23683,1.043872
0.011596367,4.8647285,-1.3674979,-0.9368334,-2.368948,-1.4556746,-9.23683,1.043872
0.009225007,4.8633103,-1.3802811,-0.99222714,-2.3764048,-1.3742718,-9.466674,1.0055647
0.006855659,4.8618917,-1.3802811,-0.99222714,-2.3764048,-1.3742718,-9.466674,1.0055647
0.0044898884,4.86047,-1.3866727,-1.0444251,-2.3678827,-1.3263878,-9.753978,1.0869676
0.0021284355,4.85905,-1.3866727,-1.0444251,-2.3678827,-1.3263878,-9.753978,1.0869676
6.282967,4.8576245,-1.3888032,-1.0902315,-2.3433816,-1.1300632,-9.935937,1.1683705
6.2806244,4.8562016,-1.3888032,-1.0902315,-2.3433816,-1.1300632,-9.935937,1.1683705
6.2783084,4.8547716,-1.3834769,-1.128581,-2.3060973,-0.7613561,-10.175357,1.2018893
6.2759957,4.853343,-1.3834769,-1.128581,-2.3060973,-0.7613561,-10.175357,1.2018893
6.273715,4.8519115,-1.3685632,-1.1594737,-2.2581604,-0.49320555,-10.43872,1.2066777
6.2714386,4.850482,-1.3685632,-1.1594737,-2.2581604,-0.49320555,-10.43872,1.2066777
6.269201,4.8490596,-1.3429968,-1.1818442,-2.2006361,-0.2777274,-10.644621,1.2114661
6.2668443,4.84756,-1.3429968,-1.1818442,-2.2006361,-0.2777274,-10.644621,1.2114661
6.2646933,4.8461823,-1.3099736,-1.1946274,-2.1388507,-0.16280572,-10.802638,1.2066777
6.2625394,4.8447995,-1.3099736,-1.1946274,-2.1388507,-0.16280572,-10.802638,1.2066777
6.260478,4.8434744,-1.2694936,-1.1988884,-2.0717392,-0.12928689,-10.869676,1.2545617
6.258392,4.8421316,-1.2694936,-1.1988884,-2.0717392,-0.12928689,-10.869676,1.2545617
6.2563934,4.84085,-1.2258178,-1.1978232,-1.998236,0.0047884034,-10.998962,1.3599066
6.254391,4.8395686,-1.2258178,-1.1978232,-1.998236,0.0047884034,-10.998962,1.3599066
6.2524757,4.8383718,-1.1757504,-1.1903664,-1.918341,0.12449849,-11.070788,1.4269443
6.2505617,4.8371816,-1.1757504,-1.1903664,-1.918341,0.12449849,-11.070788,1.4269443
6.248676,4.8361115,-1.1224871,-1.1775832,-1.8320546,0.25857377,-11.152191,1.5179238
6.2467914,4.8350353,-1.1224871,-1.1775832,-1.8320546,0.25857377,-11.152191,1.5179238
6.244953,4.834034,-1.0628322,-1.1573431,-1.7404419,0.34955344,-11.18571,1.5753847
6.2431235,4.8330293,-1.0628322,-1.1573431,-1.7404419,0.34955344,-11.18571,1.5753847
6.2413545,4.8320904,-1.0010469,-1.128581,-1.6445681,0.46447513,-11.257536,1.6376339
6.239593,4.8311496,-1.0010469,-1.128581,-1.6445681,0.46447513,-11.257536,1.6376339
6.237892,4.8302665,-0.9371311,-1.0934273,-1.5454985,0.5793968,-11.238382,1.5849615
6.236204,4.8293853,-0.9371311,-1.0934273,-1.5454985,0.5793968,-11.238382,1.5849615
6.234615,4.8285666,-0.8732152,-1.0529473,-1.4400374,0.61291564,-11.27669,1.5131354
6.23303,4.827745,-0.8732152,-1.0529473,-1.4400374,0.61291564,-11.27669,1.5131354
6.231512,4.826976,-0.80716884,-1.0060756,-1.3313804,0.7278373,-11.243171,1.4652514
6.2300053,4.8262105,-0.80716884,-1.0060756,-1.3313804,0.7278373,-11.243171,1.4652514
6.2285733,4.8254867,-0.74325293,-0.9538776,-1.2227234,0.8331822,-11.243171,1.4221559
6.2271514,4.8247676,-0.74325293,-0.9538776,-1.2227234,0.8331822,-11.243171,1.4221559
6.2258058,4.824075,-0.68040234,-0.90061444,-1.1183275,0.93852705,-11.219229,1.340753
6.2244644,4.8233867,-0.68040234,-0.90061444,-1.1183275,0.93852705,-11.219229,1.340753
6.223242,4.8227744,-0.618617,-0.8452207,-1.016062,1.0390835,-11.161768,1.3934253
6.222017,4.8221617,-0.618617,-0.8452207,-1.016062,1.0390835,-11.161768,1.3934253
6.2208943,4.8216014,-0.5578969,-0.7866311,-0.91379666,1.2210429,-11.137826,1.3982137
6.2197757,4.8210435,-0.5578969,-0.7866311,-0.91379666,1.2210429,-11.137826,1.3982137
6.218756,4.8205385,-0.50037265,-0.725911,-0.8157923,1.364695,-11.075577,1.388637
6.217738,4.820034,-0.50037265,-0.725911,-0.8157923,1.364695,-11.075577,1.388637
6.2168164,4.819587,-0.4449789,-0.6630604,-0.7252449,1.4748282,-11.09473,1.4077905
6.215896,4.819141,-0.4449789,-0.6630604,-0.7252449,1.4748282,-11.09473,1.4077905
6.215072,4.818759,-0.39278096,-0.60020983,-0.64108896,1.4939818,-11.022904,1.4652514
6.2142496,4.8183775,-0.39278096,-0.60020983,-0.64108896,1.4939818,-11.022904,1.4652514
6.213506,4.818046,-0.3427135,-0.5384245,-0.5654552,1.5705963,-11.003751,1.460463
6.2127657,4.817716,-0.3427135,-0.5384245,-0.5654552,1.5705963,-11.003751,1.460463
6.2121024,4.817442,-0.29477662,-0.47983494,-0.49621302,1.5753847,-10.936713,1.5035586
6.211441,4.817169,-0.29477662,-0.47983494,-0.49621302,1.5753847,-10.936713,1.5035586
6.2108507,4.816945,-0.25110078,-0.4212454,-0.4333624,1.5610195,-10.912771,1.508347
6.2102604,4.816722,-0.25110078,-0.4212454,-0.4333624,1.5610195,-10.912771,1.508347
6.209741,4.8165493,-0.2084902,-0.36585164,-0.3737076,1.6280571,-10.836157,1.5849615
6.209222,4.8163767,-0.2084902,-0.36585164,-0.3737076,1.6280571,-10.836157,1.5849615
6.2087703,4.8162537,-0.16587962,-0.30939263,-0.31618333,1.5610195,-10.793061,1.5801731
6.2083178,4.816131,-0.16587962,-0.30939263,-0.31618333,1.5610195,-10.793061,1.5801731
6.2079325,4.816058,-0.12539956,-0.25399888,-0.26185483,1.4700398,-10.716447,1.5753847
6.207548,4.8159847,-0.12539956,-0.25399888,-0.26185483,1.4700398,-10.716447,1.5753847
6.2072167,4.8159533,-0.08598478,-0.20180093,-0.21072213,1.4508862,-10.611102,1.5370775
6.206887,4.815922,-0.08598478,-0.20180093,-0.21072213,1.4508862,-10.611102,1.5370775
6.2066107,4.815934,-0.04763526,-0.1517335,-0.1638505,1.436521,-10.524911,1.541866
6.2063346,4.8159466,-0.04763526,-0.1517335,-0.1638505,1.436521,-10.524911,1.541866
6.2061024,4.8159924,-0.0114162695,-0.1037966,-0.11804412,1.3934253,-10.457873,1.4460979
6.205869,4.816039,-0.0114162695,-0.1037966,-0.11804412,1.3934253,-10.457873,1.4460979
6.205682,4.8161163,0.020541664,-0.05372917,-0.07223775,1.3694834,-10.409989,1.388637
6.205495,4.8161936,0.020541664,-0.05372917,-0.07223775,1.3694834,-10.409989,1.388637
6.205375,4.8163176,0.051434334,-0.00366174,-0.025366118,1.2737153,-10.409989,1.436521
6.2052555,4.8164415,0.051434334,-0.00366174,-0.025366118,1.2737153,-10.409989,1.436521
6.205184,4.816599,0.08339227,0.045340426,0.021505518,1.1827357,-10.357317,1.3455414
6.2051115,4.8167562,0.08339227,0.045340426,0.021505518,1.1827357,-10.357317,1.3455414
6.2051086,4.8169575,0.11428493,0.09327733,0.06944242,1.0726024,-10.31901,1.3359646
6.2051053,4.817158,0.11428493,0.09327733,0.06944242,1.0726024,-10.31901,1.3359646
6.205157,4.8173933,0.14411235,0.1390837,0.11737932,1.0055647,-10.247183,1.2785037
6.205207,4.817628,0.14411235,0.1390837,0.11737932,1.0055647,-10.247183,1.2785037
6.2052727,4.817863,0.17287448,0.18169427,0.16851202,1.0630256,-10.175357,1.1827357
6.205338,4.8180985,0.17287448,0.18169427,0.16851202,1.0630256,-10.175357,1.1827357
6.2054543,4.818363,0.19950609,0.22217433,0.21538365,1.0295067,-10.1226845,1.1683705
6.2055683,4.818624,0.19950609,0.22217433,0.21538365,1.0295067,-10.1226845,1.1683705
6.2057157,4.818871,0.22720297,0.25945857,0.26119003,1.0390835,-10.060435,1.0773908
6.205864,4.819119,0.22720297,0.25945857,0.26119003,1.0390835,-10.060435,1.0773908
6.206059,4.8194056,0.25489986,0.2978081,0.3038006,1.0103531,-10.070012,1.0965444
6.2062526,4.819689,0.25489986,0.2978081,0.3038006,1.0103531,-10.070012,1.0965444
6.2065454,4.819916,0.283662,0.33189657,0.34321538,0.90979666,-10.01734,0.9528923
6.2068377,4.8201427,0.283662,0.33189657,0.34321538,0.90979666,-10.01734,0.9528923
6.20775,4.8206267,0.31029359,0.35959345,0.37623858,0.7278373,-9.950302,0.9816227
6.20775,4.8206267,0.31029359,0.35959345,0.37623858,0.7278373,-9.950302,0.9816227
6.2082825,4.8209095,0.3369252,0.3787682,0.4081965,0.6368576,-9.940725,0.9768343
6.2088494,4.82121,0.3369252,0.3787682,0.4081965,0.6368576,-9.940725,0.9768343
6.2088494,4.82121,0.3369252,0.3787682,0.4081965,0.6368576,-9.940725,0.9768343
6.2088494,4.82121,0.3369252,0.3787682,0.4081965,0.6368576,-9.940725,0.9768343
6.2104626,4.822102,0.3827316,0.39474717,0.4678513,0.6799533,-9.811439,0.90500826
6.2104626,4.822102,0.3827316,0.39474717,0.4678513,0.6799533,-9.811439,0.90500826
6.2110515,4.822445,0.3827316,0.39474717,0.4678513,0.6799533,-9.811439,0.90500826
6.211702,4.82285,0.4029716,0.39581242,0.4902219,0.7182605,-9.710882,0.80445176
6.212531,4.8233914,0.4178853,0.39261663,0.50620085,0.80924016,-9.648633,0.78050977
6.2130365,4.823737,0.4178853,0.39261663,0.50620085,0.80924016,-9.648633,0.78050977
6.2130365,4.823737,0.4178853,0.39261663,0.50620085,0.80924016,-9.648633,0.78050977
6.214079,4.8244457,0.42853796,0.38835558,0.51472294,0.7757214,-9.576807,0.7757214
6.2145743,4.824813,0.43492955,0.381964,0.5157882,0.842759,-9.457097,0.78529817
6.215067,4.825178,0.43492955,0.381964,0.5157882,0.842759,-9.457097,0.78529817
6.2155647,4.825544,0.4359948,0.37663767,0.51259243,0.8331822,-9.414001,0.7469909
6.21606,4.8259087,0.4359948,0.37663767,0.51259243,0.8331822,-9.414001,0.7469909
6.2165523,4.8262663,0.432799,0.36918083,0.503005,0.79487497,-9.370906,0.7422025
6.217046,4.8266253,0.432799,0.36918083,0.503005,0.79487497,-9.370906,0.7422025
6.2175164,4.82698,0.42640743,0.36172396,0.4891566,0.79487497,-9.241618,0.7661445
6.2179866,4.8273344,0.42640743,0.36172396,0.4891566,0.79487497,-9.241618,0.7661445
6.218419,4.827687,0.41682005,0.35107133,0.4721124,0.80445176,-9.169792,0.8379706
6.2188506,4.828039,0.41682005,0.35107133,0.4721124,0.80445176,-9.169792,0.8379706
6.219265,4.8283796,0.4061674,0.3425492,0.45293763,0.7661445,-9.198523,0.8762778
6.219679,4.82872,0.4061674,0.3425492,0.45293763,0.7661445,-9.198523,0.8762778
6.220113,4.8290315,0.3912537,0.33402708,0.4295018,0.6799533,-9.203311,0.79008657
6.2205453,4.829343,0.3912537,0.33402708,0.4295018,0.6799533,-9.203311,0.79008657
6.2205453,4.829343,0.3912537,0.33402708,0.4295018,0.6799533,-9.203311,0.79008657
6.2213426,4.8299513,0.37420946,0.3223092,0.40393546,0.6799533,-9.179369,0.8810662
6.2217445,4.8302236,0.35716522,0.31165653,0.37836912,0.58418524,-9.165004,0.90979666
6.222133,4.8304877,0.35716522,0.31165653,0.37836912,0.58418524,-9.165004,0.90979666
6.22255,4.8307424,0.33799046,0.29993862,0.35280275,0.50757074,-9.160215,0.92895025
6.2229733,4.831002,0.33799046,0.29993862,0.35280275,0.50757074,-9.160215,0.92895025
6.223361,4.8312373,0.3188157,0.28822073,0.3272364,0.48841715,-9.198523,0.8714894
6.2237487,4.8314734,0.3188157,0.28822073,0.3272364,0.48841715,-9.198523,0.8714894
6.224125,4.831692,0.29964095,0.27650282,0.29953954,0.45489833,-9.193734,0.90500826
6.224499,4.8319106,0.29964095,0.27650282,0.29953954,0.45489833,-9.193734,0.90500826
6.2248764,4.832118,0.27940091,0.2615891,0.2739732,0.4213795,-9.179369,0.9624691
6.225254,4.832326,0.27940091,0.2615891,0.2739732,0.4213795,-9.179369,0.9624691
6.2256265,4.832523,0.2591609,0.24774067,0.25053737,0.36391866,-9.203311,0.9720459
6.2259955,4.832718,0.2591609,0.24774067,0.25053737,0.36391866,-9.203311,0.9720459
6.2263045,4.832876,0.23785561,0.23176171,0.2228405,0.39264908,-9.184157,0.90500826
6.226612,4.8330345,0.23785561,0.23176171,0.2228405,0.39264908,-9.184157,0.90500826
6.2269053,4.8331757,0.21548507,0.21471748,0.19514363,0.4165911,-9.188946,0.9911995
6.227197,4.833316,0.21548507,0.21471748,0.19514363,0.4165911,-9.188946,0.9911995
6.2274632,4.8334365,0.19417977,0.19660798,0.16531622,0.4309563,-9.14585,1.0199299
6.2277265,4.833556,0.19417977,0.19660798,0.16531622,0.4309563,-9.14585,1.0199299
6.2279644,4.833656,0.17180921,0.17743322,0.13442355,0.36391866,-9.179369,0.9720459
6.2282014,4.833755,0.17180921,0.17743322,0.13442355,0.36391866,-9.179369,0.9720459
6.228401,4.833828,0.1483734,0.15825845,0.102465615,0.34955344,-9.107543,0.94810385
6.228401,4.833828,0.1483734,0.15825845,0.102465615,0.34955344,-9.107543,0.94810385
6.2287607,4.833943,0.12493758,0.13801843,0.06944242,0.35434186,-9.141062,0.9959879
6.2289376,4.8339987,0.12493758,0.13801843,0.06944242,0.35434186,-9.141062,0.9959879
6.2290745,4.834027,0.10150176,0.118843675,0.037484486,0.33518824,-9.097966,0.9624691
6.229212,4.834055,0.10150176,0.118843675,0.037484486,0.33518824,-9.097966,0.9624691
6.2293143,4.834059,0.07913121,0.09966891,0.0065918155,0.38307226,-9.102755,1.0055647
6.2294164,4.8340626,0.07913121,0.09966891,0.0065918155,0.38307226,-9.102755,1.0055647
6.2295117,4.834059,0.058891185,0.07942889,-0.018974531,0.2825158,-9.102755,0.9768343
6.2296066,4.8340545,0.058891185,0.07942889,-0.018974531,0.2825158,-9.102755,0.9768343
6.229695,4.834052,0.03865116,0.05918886,-0.045606144,0.25857377,-9.136273,1.0342951
6.2297826,4.83405,0.03865116,0.05918886,-0.045606144,0.25857377,-9.136273,1.0342951
6.2298493,4.8340383,0.018411135,0.040014103,-0.07117249,0.2825158,-9.160215,1.067814
6.229916,4.8340263,0.018411135,0.040014103,-0.07117249,0.2825158,-9.160215,1.067814
6.2299547,4.833994,0.00030163955,0.020839343,-0.09673884,0.22984336,-9.222465,1.0582372
6.2299933,4.833962,0.00030163955,0.020839343,-0.09673884,0.22984336,-9.222465,1.0582372
6.230015,4.8339343,-0.01674259,0.0027298466,-0.11910939,0.24899697,-9.222465,1.1061212
6.230036,4.833907,-0.01674259,0.0027298466,-0.11910939,0.24899697,-9.222465,1.1061212
6.2300367,4.833876,-0.033786822,-0.015379649,-0.13828415,0.23942018,-9.289502,1.13964
6.2300377,4.833845,-0.033786822,-0.015379649,-0.13828415,0.23942018,-9.289502,1.13964
6.230016,4.833785,-0.04763526,-0.03242388,-0.15745892,0.23463176,-9.375694,1.1204864
6.2299953,4.8337245,-0.04763526,-0.03242388,-0.15745892,0.23463176,-9.375694,1.1204864
6.2299366,4.8337116,-0.05935317,-0.04946811,-0.1755684,0.2777274,-9.428367,1.2401965
6.2298784,4.8336987,-0.05935317,-0.04946811,-0.1755684,0.2777274,-9.428367,1.2401965
6.229821,4.833623,-0.07107108,-0.066512346,-0.19048211,0.272939,-9.500193,1.1540052
6.229764,4.8335476,-0.07107108,-0.066512346,-0.19048211,0.272939,-9.500193,1.1540052
6.2296886,4.8334455,-0.0795932,-0.08249131,-0.20433055,0.30645782,-9.56723,1.1348516
6.229614,4.8333435,-0.0795932,-0.08249131,-0.20433055,0.30645782,-9.56723,1.1348516
6.2295256,4.833246,-0.08705004,-0.09953554,-0.21711372,0.33997664,-9.600749,1.1587936
6.2294383,4.8331494,-0.08705004,-0.09953554,-0.21711372,0.33997664,-9.600749,1.1587936
6.22934,4.8330483,-0.092376366,-0.11551451,-0.22563584,0.36391866,-9.667787,1.1683705
6.2292423,4.8329477,-0.092376366,-0.11551451,-0.22563584,0.36391866,-9.667787,1.1683705
6.2291036,4.832783,-0.09663743,-0.12829769,-0.23415795,0.45489833,-9.715671,1.1348516
6.2289677,4.8326206,-0.09663743,-0.12829769,-0.23415795,0.45489833,-9.715671,1.1348516
6.228813,4.8324466,-0.09983322,-0.14108086,-0.2416148,0.47405192,-9.763555,1.13964
6.228662,4.832275,-0.09983322,-0.14108086,-0.2416148,0.47405192,-9.763555,1.13964
6.2282577,4.8321686,-0.10196375,-0.1517335,-0.24800639,0.58418524,-9.811439,1.1827357
6.227854,4.8320665,-0.10196375,-0.1517335,-0.24800639,0.58418524,-9.811439,1.1827357
6.2275095,4.8320436,-0.10196375,-0.16132088,-0.25759378,0.60812724,-9.797073,1.2545617
6.227168,4.832022,-0.10196375,-0.16132088,-0.25759378,0.60812724,-9.797073,1.2545617
6.2268214,4.832004,-0.09983322,-0.17090826,-0.26718116,0.60812724,-9.849746,1.2593501
6.226478,4.8319874,-0.09983322,-0.17090826,-0.26718116,0.60812724,-9.849746,1.2593501
6.2261205,4.8319697,-0.09663743,-0.17623459,-0.2714422,0.6368576,-9.835381,1.2785037
6.225765,4.831953,-0.09663743,-0.17623459,-0.2714422,0.6368576,-9.835381,1.2785037
6.2255106,4.8319483,-0.092376366,-0.17943038,-0.27250746,0.5506664,-9.868899,1.2401965
6.22526,4.831942,-0.092376366,-0.17943038,-0.27250746,0.5506664,-9.868899,1.2401965
6.2248893,4.8319273,-0.089180574,-0.18369143,-0.27250746,0.59855044,-9.911995,1.2114661
6.22453,4.831917,-0.089180574,-0.18369143,-0.27250746,0.59855044,-9.911995,1.2114661
6.2241454,4.8317494,-0.08491952,-0.18688722,-0.27037695,0.7038953,-9.964667,1.1061212
6.2237616,4.831581,-0.08491952,-0.18688722,-0.27037695,0.7038953,-9.964667,1.1061212
6.223361,4.8314342,-0.08065846,-0.18688722,-0.26505062,0.7422025,-10.022128,1.1300632
6.222961,4.8312874,-0.08065846,-0.18688722,-0.26505062,0.7422025,-10.022128,1.1300632
6.222545,4.831179,-0.076397404,-0.1815609,-0.2597243,0.81881696,-10.036493,1.163582
6.2221293,4.831071,-0.076397404,-0.1815609,-0.2597243,0.81881696,-10.036493,1.163582
6.2217383,4.830936,-0.07107108,-0.17410405,-0.25546324,0.81881696,-10.0987425,1.1109096
6.2213473,4.830801,-0.07107108,-0.17410405,-0.25546324,0.81881696,-10.0987425,1.1109096
6.22094,4.830741,-0.06361423,-0.1666472,-0.2501369,0.8331822,-10.0748005,1.2162545
6.2205334,4.8306813,-0.06361423,-0.1666472,-0.2501369,0.8331822,-10.0748005,1.2162545
6.220132,4.8306255,-0.056157377,-0.15919036,-0.2448106,0.8619126,-10.0748005,1.2114661
6.219731,4.83057,-0.056157377,-0.15919036,-0.2448106,0.8619126,-10.0748005,1.2114661
6.2193375,4.830532,-0.04763526,-0.15066823,-0.23948428,0.93852705,-10.055647,1.2306197
6.218944,4.8304944,-0.04763526,-0.15066823,-0.23948428,0.93852705,-10.055647,1.2306197
6.218554,4.8304434,-0.03804788,-0.14108086,-0.23522322,0.90979666,-10.055647,1.1827357
6.218164,4.830393,-0.03804788,-0.14108086,-0.23522322,0.90979666,-10.055647,1.1827357
6.2177906,4.8303256,-0.025264706,-0.12829769,-0.22883163,0.82360536,-10.0269165,1.1444284
6.2174172,4.830259,-0.025264706,-0.12829769,-0.22883163,0.82360536,-10.0269165,1.1444284
6.217052,4.8302746,-0.01674259,-0.1187103,-0.2235053,0.79487497,-10.0269165,1.2258313
6.216687,4.830291,-0.01674259,-0.1187103,-0.2235053,0.79487497,-10.0269165,1.2258313
6.216329,4.8303175,-0.008220476,-0.11338398,-0.21817899,0.79008657,-10.036493,1.2258313
6.215972,4.830344,-0.008220476,-0.11338398,-0.21817899,0.79008657,-10.036493,1.2258313
6.2156196,4.830365,-0.0007636249,-0.108057655,-0.20646107,0.8619126,-10.031705,1.2258313
6.215267,4.8303866,-0.0007636249,-0.108057655,-0.20646107,0.8619126,-10.031705,1.2258313
6.2149205,4.8303976,0.0066932263,-0.10060081,-0.19580843,0.91458505,-10.089166,1.2114661
6.214576,4.8304086,0.0066932263,-0.10060081,-0.19580843,0.91458505,-10.089166,1.2114661
6.214243,4.830435,0.015215342,-0.091013424,-0.18515578,1.0390835,-10.089166,1.2354081
6.213911,4.8304615,0.015215342,-0.091013424,-0.18515578,1.0390835,-10.089166,1.2354081
6.2135863,4.830495,0.023737457,-0.079295516,-0.17769894,1.0295067,-10.103531,1.2306197
6.2132616,4.8305283,0.023737457,-0.079295516,-0.17769894,1.0295067,-10.103531,1.2306197
6.212948,4.8305626,0.032259572,-0.06544708,-0.1670463,1.0486604,-10.0987425,1.2114661
6.212948,4.8305626,0.032259572,-0.06544708,-0.1670463,1.0486604,-10.0987425,1.2114661
6.212323,4.8306446,0.039716423,-0.04946811,-0.15639365,1.0630256,-10.079589,1.2354081
6.2120275,4.8306966,0.039716423,-0.04946811,-0.15639365,1.0630256,-10.079589,1.2354081
6.2117395,4.830756,0.047173277,-0.03242388,-0.14680627,1.0199299,-10.065224,1.2258313
6.211452,4.830816,0.047173277,-0.03242388,-0.14680627,1.0199299,-10.065224,1.2258313
6.2111745,4.830855,0.054630127,-0.016444914,-0.13828415,0.9720459,-10.0508585,1.1683705
6.2108965,4.8308935,0.054630127,-0.016444914,-0.13828415,0.9720459,-10.0508585,1.1683705
6.21063,4.830955,0.058891185,0.0005993177,-0.1276315,0.89543146,-10.079589,1.2018893
6.2103634,4.831016,0.058891185,0.0005993177,-0.1276315,0.89543146,-10.079589,1.2018893
6.2101293,4.831132,0.06315224,0.01551302,-0.1159136,0.8283938,-9.993398,1.2306197
6.209895,4.8312483,0.06315224,0.01551302,-0.1159136,0.8283938,-9.993398,1.2306197
6.20972,4.831403,0.0674133,0.029361458,-0.10526095,0.81402856,-9.993398,1.2785037
6.2095456,4.831558,0.0674133,0.029361458,-0.10526095,0.81402856,-9.993398,1.2785037
6.209385,4.831719,0.07060909,0.04214463,-0.09460831,0.79487497,-10.007763,1.2593501
6.209225,4.831879,0.07060909,0.04214463,-0.09460831,0.79487497,-10.007763,1.2593501
6.20908,4.8320465,0.074870154,0.052797277,-0.08715145,0.80445176,-9.974244,1.2785037
6.2089353,4.832215,0.074870154,0.052797277,-0.08715145,0.80445176,-9.974244,1.2785037
6.208774,4.8323765,0.08019647,0.061319392,-0.078629345,0.770933,-9.9790325,1.2210429
6.2086124,4.8325377,0.08019647,0.061319392,-0.078629345,0.770933,-9.9790325,1.2210429
6.2085595,4.832729,0.08552279,0.06877624,-0.0679767,0.7469909,-9.9550905,1.2401965
6.2085085,4.8329196,0.08552279,0.06877624,-0.0679767,0.7469909,-9.9550905,1.2401965
6.208422,4.8335166,0.0972407,0.07836362,-0.050932467,0.7182605,-9.92636,1.292869
6.208422,4.8335166,0.0972407,0.07836362,-0.050932467,0.7182605,-9.92636,1.292869
6.208422,4.8335166,0.0972407,0.07836362,-0.050932467,0.7182605,-9.92636,1.292869
6.208417,4.8337145,0.0972407,0.07836362,-0.050932467,0.7182605,-9.92636,1.292869
6.208511,4.8338637,0.10363229,0.08262468,-0.04241035,0.6560113,-9.892841,1.2354081
6.208511,4.8338637,0.10363229,0.08262468,-0.04241035,0.6560113,-9.892841,1.2354081
6.2087407,4.834124,0.10789335,0.085820474,-0.033888236,0.6655881,-9.849746,1.2114661
6.2088575,4.8342514,0.10789335,0.085820474,-0.033888236,0.6655881,-9.849746,1.2114661
6.2088575,4.8342514,0.10789335,0.085820474,-0.033888236,0.6703765,-9.811439,1.1923125
6.209002,4.834371,0.1153502,0.087951005,-0.024300855,0.6703765,-9.811439,1.1923125
6.209217,4.8345985,0.12174179,0.09221206,-0.015778739,0.6607997,-9.801862,1.2593501
6.209217,4.8345985,0.12174179,0.09221206,-0.015778739,0.6607997,-9.801862,1.2593501
6.2094145,4.8349943,0.12493758,0.09647312,-0.0072566224,0.62249243,-9.773131,1.2641385
6.2094145,4.8349943,0.12493758,0.09647312,-0.0072566224,0.62249243,-9.773131,1.2641385
6.209671,4.835308,0.13026391,0.09966891,0.0012654932,0.59855044,-9.715671,1.1779473
6.209671,4.835308,0.13026391,0.09966891,0.0012654932,0.59855044,-9.715671,1.1779473
6.209966,4.8356724,0.1334597,0.10392997,0.008722344,0.5554548,-9.677363,1.2497733
6.210115,4.8358536,0.1334597,0.10392997,0.008722344,0.5554548,-9.677363,1.2497733
6.210278,4.8360257,0.1366555,0.1060605,0.016179197,0.50757074,-9.610326,1.2354081
6.210441,4.8361974,0.1366555,0.1060605,0.016179197,0.50757074,-9.610326,1.2354081
6.21061,4.8363104,0.13772075,0.10819103,0.022570781,0.5363012,-9.600749,1.1540052
6.2107773,4.836422,0.13772075,0.10819103,0.022570781,0.5363012,-9.600749,1.1540052
6.2109494,4.8366084,0.13878602,0.10925629,0.02683184,0.58897364,-9.543288,1.2210429
6.211121,4.8367915,0.13878602,0.10925629,0.02683184,0.58897364,-9.543288,1.2210429
6.2112346,4.8370185,0.13878602,0.11032156,0.031092897,0.61770403,-9.552865,1.2880806
6.211351,4.8372498,0.13878602,0.11032156,0.031092897,0.61770403,-9.552865,1.2880806
6.211512,4.837334,0.1366555,0.11138682,0.035353955,0.5793968,-9.509769,1.1348516
6.211673,4.837417,0.1366555,0.11138682,0.035353955,0.5793968,-9.509769,1.1348516
6.2118454,4.837605,0.1366555,0.11138682,0.03428869,0.5363012,-9.490616,1.2449849
6.212019,4.8377914,0.1366555,0.11138682,0.03428869,0.5363012,-9.490616,1.2449849
6.2122006,4.8379602,0.13452496,0.11138682,0.033223428,0.46447513,-9.500193,1.2401965
6.2123823,4.838127,0.13452496,0.11138682,0.033223428,0.46447513,-9.500193,1.2401965
6.212549,4.8383093,0.13026391,0.1060605,0.02896237,0.45010993,-9.476251,1.2785037
6.212716,4.8384895,0.13026391,0.1060605,0.02896237,0.45010993,-9.476251,1.2785037
6.212852,4.8386946,0.1270681,0.100734174,0.025766576,0.5363012,-9.476251,1.3024458
6.2129884,4.838899,0.1270681,0.100734174,0.025766576,0.5363012,-9.476251,1.3024458
6.213116,4.8391013,0.12387232,0.09327733,0.021505518,0.58418524,-9.481039,1.2737153
6.213245,4.8393035,0.12387232,0.09327733,0.021505518,0.58418524,-9.481039,1.2737153
6.213337,4.839517,0.119611256,0.08475521,0.018309724,0.59376204,-9.500193,1.3215994
6.2134295,4.8397307,0.119611256,0.08475521,0.018309724,0.59376204,-9.500193,1.3215994
6.2135067,4.839942,0.1153502,0.07729836,0.010852873,0.60333884,-9.452309,1.3120226
6.2135844,4.8401527,0.1153502,0.07729836,0.010852873,0.60333884,-9.452309,1.3120226
6.213721,4.840313,0.11002388,0.07090677,0.0033960221,0.58897364,-9.533711,1.2545617
6.213858,4.8404717,0.11002388,0.07090677,0.0033960221,0.58897364,-9.533711,1.2545617
6.2139673,4.840512,0.104697555,0.06344992,-0.0008650357,0.59855044,-9.495404,1.1779473
6.214075,4.840551,0.104697555,0.06344992,-0.0008650357,0.59855044,-9.495404,1.1779473
6.2141604,4.8407326,0.09937123,0.057058334,-0.006191358,0.59855044,-9.514558,1.2880806
6.2142467,4.840914,0.09937123,0.057058334,-0.006191358,0.59855044,-9.514558,1.2880806
6.2143784,4.8410034,0.09404491,0.050666746,-0.014713474,0.5602432,-9.533711,1.2258313
6.21451,4.841091,0.09404491,0.050666746,-0.014713474,0.5602432,-9.533711,1.2258313
6.214595,4.8412514,0.08871859,0.047470953,-0.022170324,0.5506664,-9.495404,1.3024458
6.2146807,4.841411,0.08871859,0.047470953,-0.022170324,0.5506664,-9.495404,1.3024458
6.2147946,4.841484,0.08339227,0.04214463,-0.03069244,0.50278234,-9.533711,1.2210429
6.214908,4.8415556,0.08339227,0.04214463,-0.03069244,0.50278234,-9.533711,1.2210429
6.215016,4.8416433,0.07913121,0.03681831,-0.037084028,0.45489833,-9.485827,1.2401965
6.2151237,4.8417306,0.07913121,0.03681831,-0.037084028,0.45489833,-9.485827,1.2401965
6.215211,4.841849,0.073804885,0.032557253,-0.043475613,0.4309563,-9.514558,1.3120226
6.215298,4.8419666,0.073804885,0.032557253,-0.043475613,0.4309563,-9.514558,1.3120226
6.2153797,4.8420815,0.06954383,0.02723093,-0.04773667,0.47884035,-9.495404,1.2976574
6.2154613,4.8421965,0.06954383,0.02723093,-0.04773667,0.47884035,-9.495404,1.2976574
6.215536,4.842305,0.06421751,0.020839343,-0.05412826,0.45489833,-9.504981,1.3072342
6.2156115,4.8424134,0.06421751,0.020839343,-0.05412826,0.45489833,-9.504981,1.3072342
6.215692,4.842469,0.058891185,0.013382491,-0.06158511,0.39743748,-9.543288,1.2401965
6.2157726,4.8425255,0.058891185,0.013382491,-0.06158511,0.39743748,-9.543288,1.2401965
6.215837,4.842619,0.054630127,0.0048603755,-0.064780906,0.4357447,-9.500193,1.3072342
6.2159023,4.842713,0.054630127,0.0048603755,-0.064780906,0.4357447,-9.500193,1.3072342
6.215969,4.842739,0.051434334,-0.00366174,-0.06904196,0.46926352,-9.5385,1.2162545
6.2160354,4.842765,0.051434334,-0.00366174,-0.06904196,0.46926352,-9.5385,1.2162545
6.2160997,4.8428297,0.05036907,-0.011118591,-0.07330302,0.48362875,-9.543288,1.2689269
6.2161636,4.8428946,0.05036907,-0.011118591,-0.07330302,0.48362875,-9.543288,1.2689269
6.2162075,4.842895,0.04823854,-0.019640706,-0.078629345,0.49799395,-9.595961,1.2018893
6.216251,4.8428955,0.04823854,-0.019640706,-0.078629345,0.49799395,-9.595961,1.2018893
6.216289,4.8428917,0.04610801,-0.030293351,-0.08182514,0.5267244,-9.595961,1.2114661
6.2163267,4.8428884,0.04610801,-0.030293351,-0.08182514,0.5267244,-9.595961,1.2114661
6.216338,4.842862,0.043977484,-0.03881547,-0.08715145,0.5554548,-9.643845,1.2018893
6.2163496,4.842836,0.043977484,-0.03881547,-0.08715145,0.5554548,-9.643845,1.2018893
6.2163925,4.842874,0.041846953,-0.04627232,-0.091412514,0.5315128,-9.643845,1.2641385
6.216436,4.842912,0.041846953,-0.04627232,-0.091412514,0.5315128,-9.643845,1.2641385
6.216433,4.8428736,0.040781688,-0.05372917,-0.091412514,0.5506664,-9.634268,1.1875241
6.2164307,4.842838,0.040781688,-0.05372917,-0.091412514,0.5506664,-9.634268,1.1875241
6.2164674,4.84286,0.040781688,-0.06118602,-0.093543045,0.58418524,-9.691729,1.2641385
6.216504,4.842882,0.040781688,-0.06118602,-0.093543045,0.58418524,-9.691729,1.2641385
6.2165213,4.842868,0.040781688,-0.066512346,-0.095673576,0.5793968,-9.68694,1.2401965
6.2165384,4.842854,0.040781688,-0.066512346,-0.095673576,0.5793968,-9.68694,1.2401965
6.2164803,4.842987,0.04291222,-0.0707734,-0.095673576,0.6464345,-9.706094,1.2880806
6.2164297,4.8431177,0.04291222,-0.0707734,-0.095673576,0.6464345,-9.706094,1.2880806
6.2164335,4.84322,0.043977484,-0.07503446,-0.095673576,0.62728083,-9.739613,1.2976574
6.2164397,4.84332,0.043977484,-0.07503446,-0.095673576,0.62728083,-9.739613,1.2976574
6.216385,4.8432665,0.045042746,-0.079295516,-0.093543045,0.63206923,-9.730036,1.2354081
6.2163315,4.8432136,0.045042746,-0.079295516,-0.093543045,0.63206923,-9.730036,1.2354081
6.2162185,4.843158,0.04823854,-0.08355658,-0.092477776,0.6560113,-9.691729,1.2593501
6.2161126,4.843102,0.04823854,-0.08355658,-0.092477776,0.6560113,-9.691729,1.2593501
6.2158756,4.843174,0.051434334,-0.08462184,-0.09034725,0.7086837,-9.68694,1.283292
6.215639,4.8432455,0.051434334,-0.08462184,-0.09034725,0.7086837,-9.68694,1.283292
6.215401,4.843301,0.05356486,-0.0856871,-0.08821672,0.7182605,-9.730036,1.283292
6.215163,4.843355,0.05356486,-0.0856871,-0.08821672,0.7182605,-9.730036,1.283292
6.214929,4.8433957,0.056760654,-0.08462184,-0.08395566,0.7326257,-9.710882,1.2737153
6.214696,4.843435,0.056760654,-0.08462184,-0.08395566,0.7326257,-9.710882,1.2737153
6.214476,4.8435297,0.058891185,-0.08462184,-0.08182514,0.7469909,-9.739613,1.3072342
6.2142563,4.843624,0.058891185,-0.08462184,-0.08182514,0.7469909,-9.739613,1.3072342
6.214138,4.8437777,0.061021715,-0.08355658,-0.077564076,0.7086837,-9.701305,1.3838485
6.2140207,4.8439302,0.061021715,-0.08355658,-0.077564076,0.7086837,-9.701305,1.3838485
6.2138762,4.84408,0.06315224,-0.08036078,-0.076498814,0.7613561,-9.65821,1.412579
6.2137327,4.8442287,0.06315224,-0.08036078,-0.076498814,0.7613561,-9.65821,1.412579
6.213603,4.8443837,0.06528277,-0.07609972,-0.07223775,0.7086837,-9.696517,1.340753
6.213475,4.8445377,0.06528277,-0.07609972,-0.07223775,0.7086837,-9.696517,1.340753
6.213303,4.844675,0.06847856,-0.07290393,-0.06691143,0.7038953,-9.667787,1.3024458
6.2131305,4.844812,0.06847856,-0.07290393,-0.06691143,0.7038953,-9.667787,1.3024458
6.2129893,4.8449645,0.07060909,-0.06970814,-0.06158511,0.7326257,-9.65821,1.3455414
6.212849,4.8451166,0.07060909,-0.06970814,-0.06158511,0.7326257,-9.65821,1.3455414
6.212659,4.845234,0.073804885,-0.06544708,-0.058389317,0.7422025,-9.667787,1.3120226
6.212468,4.8453507,0.073804885,-0.06544708,-0.058389317,0.7422025,-9.667787,1.3120226
6.212354,4.8455153,0.075935416,-0.060120758,-0.053062994,0.7469909,-9.653421,1.388637
6.212241,4.8456793,0.075935416,-0.060120758,-0.053062994,0.7469909,-9.653421,1.388637
6.212106,4.8458376,0.07913121,-0.05372917,-0.048801936,0.7661445,-9.624691,1.3694834
6.2119718,4.845996,0.07913121,-0.05372917,-0.048801936,0.7661445,-9.624691,1.3694834
6.2118554,4.846163,0.082327,-0.04627232,-0.04241035,0.7326257,-9.653421,1.3455414
6.2117386,4.8463297,0.082327,-0.04627232,-0.04241035,0.7326257,-9.653421,1.3455414
6.2116237,4.846497,0.08445753,-0.03881547,-0.03814929,0.7565677,-9.619903,1.3694834
6.211509,4.8466644,0.08445753,-0.03881547,-0.03814929,0.7565677,-9.619903,1.3694834
6.2114725,4.84685,0.087653324,-0.03242388,-0.031757705,0.6991069,-9.619903,1.412579
6.211436,4.847035,0.087653324,-0.03242388,-0.031757705,0.6991069,-9.619903,1.412579
6.2113757,4.8472214,0.09084912,-0.02496703,-0.025366118,0.7230489,-9.677363,1.3742718
6.211316,4.8474073,0.09084912,-0.02496703,-0.025366118,0.7230489,-9.677363,1.3742718
6.2112856,4.847602,0.09511018,-0.017510178,-0.016844003,0.7086837,-9.677363,1.3599066
6.2112556,4.8477945,0.09511018,-0.017510178,-0.016844003,0.7086837,-9.677363,1.3599066
6.2112346,4.847992,0.09830597,-0.010053327,-0.0072566224,0.7134721,-9.68694,1.388637
6.211214,4.8481884,0.09830597,-0.010053327,-0.0072566224,0.7134721,-9.68694,1.388637
6.2112083,4.8483915,0.10363229,-0.0047270046,-0.0019303001,0.7086837,-9.682152,1.4221559
6.2112026,4.8485937,0.10363229,-0.0047270046,-0.0019303001,0.7086837,-9.682152,1.4221559
6.2111845,4.8488016,0.10789335,0.0016645822,0.0044612866,0.7230489,-9.68694,1.4030021
6.2111845,4.8488016,0.10789335,0.0016645822,0.0044612866,0.7230489,-9.68694,1.4030021
6.211233,4.849202,0.11215441,0.0069909045,0.012983402,0.6799533,-9.730036,1.3599066
6.211344,4.8493834,0.11215441,0.0069909045,0.012983402,0.6799533,-9.730036,1.3599066
6.211351,4.849401,0.11641546,0.011251962,0.018309724,0.7086837,-9.68694,1.292869
6.2113576,4.8494186,0.11641546,0.011251962,0.018309724,0.7086837,-9.68694,1.292869
6.211409,4.8494406,0.119611256,0.014447756,0.023636047,0.6799533,-9.725247,1.2449849
6.21146,4.8494625,0.119611256,0.014447756,0.023636047,0.6799533,-9.725247,1.2449849
6.2114525,4.849683,0.12387232,0.016578285,0.027897105,0.7182605,-9.710882,1.3742718
6.2114425,4.849904,0.12387232,0.016578285,0.027897105,0.7182605,-9.710882,1.3742718
6.2114983,4.8499355,0.12919864,0.017643549,0.033223428,0.6895301,-9.677363,1.2785037
6.2115517,4.849966,0.12919864,0.017643549,0.033223428,0.6895301,-9.677363,1.2785037
6.2116203,4.850003,0.1334597,0.018708814,0.037484486,0.6847417,-9.662998,1.2880806
6.2116876,4.8500395,0.1334597,0.018708814,0.037484486,0.6847417,-9.662998,1.2880806
6.211842,4.8501153,0.13878602,0.018708814,0.04387607,0.6607997,-9.667787,1.316811
6.211993,4.8501883,0.13878602,0.018708814,0.04387607,0.6607997,-9.667787,1.316811
6.212158,4.8503876,0.14304708,0.018708814,0.04813713,0.6512229,-9.624691,1.3551182
6.2123265,4.8505855,0.14304708,0.018708814,0.04813713,0.6512229,-9.624691,1.3551182
6.2123866,4.8506346,0.1483734,0.018708814,0.05346345,0.6847417,-9.600749,1.2785037
6.212446,4.850684,0.1483734,0.018708814,0.05346345,0.6847417,-9.600749,1.2785037
6.2124534,4.850745,0.15156919,0.017643549,0.059855036,0.7374141,-9.619903,1.2545617
6.2124534,4.850745,0.15156919,0.017643549,0.059855036,0.7374141,-9.619903,1.2545617
6.2124534,4.850745,0.15156919,0.017643549,0.059855036,0.7374141,-9.619903,1.2545617
6.2124577,4.8510704,0.15689552,0.017643549,0.06731189,0.7134721,-9.5385,1.3599066
6.212393,4.851225,0.1632871,0.017643549,0.07263821,0.7278373,-9.591172,1.3359646
6.2123275,4.8513775,0.1632871,0.017643549,0.07263821,0.7278373,-9.591172,1.3359646
6.2123327,4.851465,0.16754816,0.018708814,0.07796454,0.6943185,-9.514558,1.316811
6.2123327,4.851465,0.16754816,0.018708814,0.07796454,0.6943185,-9.514558,1.316811
6.2123327,4.851465,0.16754816,0.018708814,0.07796454,0.6943185,-9.514558,1.316811
6.212388,4.8517036,0.17180921,0.018708814,0.08222559,0.7038953,-9.514558,1.2545617
6.2124662,4.8517847,0.17607027,0.017643549,0.08648665,0.6895301,-9.543288,1.2880806
6.212538,4.8518596,0.17607027,0.017643549,0.08648665,0.6895301,-9.543288,1.2880806
6.2126627,4.8519373,0.17713554,0.017643549,0.09287824,0.6512229,-9.485827,1.2593501
6.21279,4.8520174,0.17713554,0.017643549,0.09287824,0.6512229,-9.485827,1.2593501
6.212865,4.8520985,0.17926607,0.018708814,0.09607403,0.6943185,-9.461885,1.2354081
