Pitch,Roll,Gyro_X,Gyro_Y,Gyro_Z,Accel_X,Accel_Y,Accel_Z
6.169263,4.768598,0.02160693,-0.00046594674,-0.050932467,1.1731589,-9.672575,0.5650316
6.169289,4.7685366,0.022672193,0.003795111,-0.0498672,1.0486604,-9.605537,0.48362875
6.169316,4.7684765,0.022672193,0.003795111,-0.0498672,1.0486604,-9.605537,0.48362875
6.1693788,4.7684364,0.023737457,0.008056169,-0.04454088,0.9816227,-9.562442,0.46926352
6.169442,4.768397,0.023737457,0.008056169,-0.04454088,0.9816227,-9.562442,0.46926352
6.169501,4.768349,0.024802722,0.012317227,-0.037084028,1.0007763,-9.572019,0.46447513
6.1695595,4.768302,0.024802722,0.012317227,-0.037084028,1.0007763,-9.572019,0.46447513
6.1696587,4.7683663,0.025867987,0.01551302,-0.031757705,1.0295067,-9.591172,0.5554548
6.169758,4.76843,0.025867987,0.01551302,-0.031757705,1.0295067,-9.591172,0.5554548
6.1698422,4.768394,0.026933251,0.018708814,-0.02323559,1.0199299,-9.581595,0.49320555
6.169926,4.7683573,0.026933251,0.018708814,-0.02323559,1.0199299,-9.581595,0.49320555
6.17005,4.7683716,0.027998514,0.021904606,-0.015778739,0.9768343,-9.548077,0.521936
6.1701736,4.768386,0.027998514,0.021904606,-0.015778739,0.9768343,-9.548077,0.521936
6.170298,4.768381,0.027998514,0.026165664,-0.008321887,1.0199299,-9.524135,0.51714754
6.170422,4.7683764,0.027998514,0.026165664,-0.008321887,1.0199299,-9.524135,0.51714754
6.17048,4.768317,0.027998514,0.026165664,-0.004060829,1.0486604,-9.514558,0.48841715
6.170537,4.768257,0.027998514,0.026165664,-0.004060829,1.0486604,-9.514558,0.48841715
6.170656,4.7682323,0.026933251,0.028296193,0.00020022877,1.0247183,-9.548077,0.50757074
6.1707745,4.768207,0.026933251,0.028296193,0.00020022877,1.0247183,-9.548077,0.50757074
6.1708827,4.768171,0.026933251,0.028296193,0.0012654932,1.0390835,-9.600749,0.50757074
6.17099,4.768134,0.026933251,0.028296193,0.0012654932,1.0390835,-9.600749,0.50757074
6.171067,4.768079,0.025867987,0.02723093,0.0012654932,1.043872,-9.576807,0.49320555
6.171144,4.7680225,0.025867987,0.02723093,0.0012654932,1.043872,-9.576807,0.49320555
6.1712127,4.7679634,0.025867987,0.026165664,0.00020022877,1.0534488,-9.600749,0.49799395
6.1712804,4.767904,0.025867987,0.026165664,0.00020022877,1.0534488,-9.600749,0.49799395
6.1711454,4.7679057,0.023737457,0.024035135,-0.0008650357,1.1348516,-9.639056,0.5267244
6.1710105,4.767907,0.023737457,0.024035135,-0.0008650357,1.1348516,-9.639056,0.5267244
6.171031,4.7678347,0.023737457,0.021904606,-0.004060829,1.0869676,-9.691729,0.51235914
6.1710515,4.7677627,0.023737457,0.021904606,-0.004060829,1.0869676,-9.691729,0.51235914
6.170947,4.7677174,0.024802722,0.019774077,-0.009387151,1.163582,-9.653421,0.47884035
6.170843,4.7676716,0.024802722,0.019774077,-0.009387151,1.163582,-9.653421,0.47884035
6.170691,4.7677,0.024802722,0.017643549,-0.013648209,1.1971009,-9.667787,0.5363012
6.170538,4.7677283,0.024802722,0.017643549,-0.013648209,1.1971009,-9.667787,0.5363012
6.170393,4.767714,0.024802722,0.018708814,-0.018974531,1.1540052,-9.672575,0.51714754
6.170248,4.7676992,0.024802722,0.018708814,-0.018974531,1.1540052,-9.672575,0.51714754
6.170179,4.7678194,0.023737457,0.017643549,-0.024300855,1.1252748,-9.643845,0.59376204
6.17011,4.7679396,0.023737457,0.017643549,-0.024300855,1.1252748,-9.643845,0.59376204
6.170093,4.767865,0.022672193,0.018708814,-0.026431382,1.0965444,-9.653421,0.521936
6.170078,4.7677903,0.022672193,0.018708814,-0.026431382,1.0965444,-9.653421,0.521936
6.169922,4.767849,0.022672193,0.019774077,-0.025366118,1.1252748,-9.615114,0.5410896
6.169765,4.7679067,0.022672193,0.019774077,-0.025366118,1.1252748,-9.615114,0.5410896
6.169768,4.7678347,0.023737457,0.021904606,-0.024300855,1.0726024,-9.639056,0.4357447
6.1697707,4.7677627,0.023737457,0.021904606,-0.024300855,1.0726024,-9.639056,0.4357447
6.1696944,4.767882,0.023737457,0.0251004,-0.02323559,1.115698,-9.610326,0.5650316
6.169619,4.7680006,0.023737457,0.0251004,-0.02323559,1.115698,-9.610326,0.5650316
6.169557,4.7681217,0.023737457,0.02723093,-0.018974531,1.1252748,-9.624691,0.58897364
6.1694946,4.768244,0.023737457,0.02723093,-0.018974531,1.1252748,-9.624691,0.58897364
6.169497,4.7683697,0.023737457,0.031491987,-0.015778739,1.0965444,-9.662998,0.59376204
6.1694994,4.768496,0.023737457,0.031491987,-0.015778739,1.0965444,-9.662998,0.59376204
6.169612,4.7685714,0.022672193,0.035753045,-0.01151768,1.0582372,-9.653421,0.5602432
6.1697245,4.7686462,0.022672193,0.035753045,-0.01151768,1.0582372,-9.653421,0.5602432
6.169835,4.7687316,0.022672193,0.040014103,-0.0051260935,1.0821792,-9.710882,0.5602432
6.1699457,4.7688165,0.022672193,0.040014103,-0.0051260935,1.0821792,-9.710882,0.5602432
6.1699343,4.768943,0.022672193,0.04107937,0.00020022877,1.1109096,-9.65821,0.61770403
6.169923,4.769069,0.022672193,0.04107937,0.00020022877,1.1109096,-9.65821,0.61770403
6.169897,4.7690015,0.023737457,0.04427516,0.0065918155,1.115698,-9.677363,0.51235914
6.169872,4.7689333,0.023737457,0.04427516,0.0065918155,1.115698,-9.677363,0.51235914
6.1699495,4.769052,0.023737457,0.04853622,0.014048667,1.0726024,-9.749189,0.60812724
6.1700277,4.7691708,0.023737457,0.04853622,0.014048667,1.0726024,-9.749189,0.60812724
6.1699104,4.7692122,0.026933251,0.05173201,0.019374989,1.163582,-9.706094,0.5554548
6.169793,4.769253,0.026933251,0.05173201,0.019374989,1.163582,-9.706094,0.5554548
6.169719,4.769356,0.027998514,0.053862542,0.024701312,1.2114661,-9.68694,0.62249243
6.169645,4.769459,0.027998514,0.053862542,0.024701312,1.2114661,-9.68694,0.62249243
6.1696205,4.769596,0.030129045,0.0581236,0.032158162,1.13964,-9.734824,0.59855044
6.169598,4.769715,0.030129045,0.0581236,0.032158162,1.13964,-9.734824,0.59855044
6.16961,4.7698474,0.031194309,0.06344992,0.039615013,1.1204864,-9.715671,0.58897364
6.1696205,4.7699823,0.031194309,0.06344992,0.039615013,1.1204864,-9.715671,0.58897364
6.169556,4.7700825,0.032259572,0.06664571,0.042810805,1.163582,-9.696517,0.58897364
6.1694903,4.7701817,0.032259572,0.06664571,0.042810805,1.163582,-9.696517,0.58897364
6.1694136,4.7701826,0.034390103,0.069841504,0.047071867,1.1683705,-9.634268,0.5363012
6.1693373,4.7701836,0.034390103,0.069841504,0.047071867,1.1683705,-9.634268,0.5363012
6.16929,4.770295,0.03652063,0.073037304,0.05133292,1.1731589,-9.595961,0.60333884
6.1692424,4.7704067,0.03652063,0.073037304,0.05133292,1.1731589,-9.595961,0.60333884
6.169183,4.7705097,0.03865116,0.0762331,0.052398186,1.1971009,-9.552865,0.60333884
6.1691227,4.7706127,0.03865116,0.0762331,0.052398186,1.1971009,-9.552865,0.60333884
6.1690693,4.770721,0.039716423,0.07836362,0.05346345,1.1923125,-9.528923,0.60812724
6.1690154,4.770829,0.039716423,0.07836362,0.05346345,1.1923125,-9.528923,0.60812724
6.168978,4.7709517,0.039716423,0.08262468,0.052398186,1.1779473,-9.514558,0.62249243
6.168941,4.7710743,0.039716423,0.08262468,0.052398186,1.1779473,-9.514558,0.62249243
6.1688733,4.7711735,0.03865116,0.086885735,0.04813713,1.1204864,-9.481039,0.56982
6.1688046,4.7712703,0.03865116,0.086885735,0.04813713,1.1204864,-9.481039,0.56982
6.168991,4.7712955,0.03652063,0.090081535,0.04387607,1.043872,-9.457097,0.5506664
6.169177,4.7713194,0.03652063,0.090081535,0.04387607,1.043872,-9.457097,0.5506664
6.169362,4.771345,0.031194309,0.090081535,0.041745543,0.9911995,-9.519346,0.5506664
6.169547,4.77137,0.031194309,0.090081535,0.041745543,0.9911995,-9.519346,0.5506664
6.1697288,4.771427,0.027998514,0.089016266,0.039615013,0.9720459,-9.476251,0.5746084
6.169912,4.7714834,0.027998514,0.089016266,0.039615013,0.9720459,-9.476251,0.5746084
6.170077,4.7714725,0.025867987,0.085820474,0.035353955,1.0390835,-9.490616,0.545878
6.170241,4.77146,0.025867987,0.085820474,0.035353955,1.0390835,-9.490616,0.545878
6.170384,4.771555,0.022672193,0.08155942,0.032158162,0.9720459,-9.514558,0.62728083
6.1705275,4.7716503,0.022672193,0.08155942,0.032158162,0.9720459,-9.514558,0.62728083
6.1706996,4.7716694,0.019476399,0.07729836,0.027897105,0.94331545,-9.495404,0.5554548
6.1708713,4.7716894,0.019476399,0.07729836,0.027897105,0.94331545,-9.495404,0.5554548
6.1710296,4.7717447,0.016280606,0.073037304,0.021505518,0.93373865,-9.524135,0.59855044
6.1711884,4.7718,0.016280606,0.073037304,0.021505518,0.93373865,-9.524135,0.59855044
6.1713367,4.771861,0.013084813,0.06664571,0.01724446,0.89064306,-9.509769,0.62249243
6.1714854,4.7719216,0.013084813,0.06664571,0.01724446,0.89064306,-9.509769,0.62249243
6.171626,4.7719893,0.012019549,0.05918886,0.016179197,0.91458505,-9.44752,0.62249243
6.1717668,4.772057,0.012019549,0.05918886,0.016179197,0.91458505,-9.44752,0.62249243
6.17192,4.7720957,0.00988902,0.05173201,0.014048667,0.90500826,-9.490616,0.59376204
6.172073,4.7721343,0.00988902,0.05173201,0.014048667,0.90500826,-9.490616,0.59376204
6.172188,4.772215,0.0066932263,0.043209895,0.011918138,0.9959879,-9.461885,0.60812724
6.1723027,4.7722955,0.0066932263,0.043209895,0.011918138,0.9959879,-9.461885,0.60812724
6.172454,4.772314,0.005627962,0.035753045,0.009787609,0.93852705,-9.452309,0.5746084
6.172605,4.772333,0.005627962,0.035753045,0.009787609,0.93852705,-9.452309,0.5746084
6.17267,4.7724314,0.003497433,0.028296193,0.009787609,1.0007763,-9.442732,0.6512229
6.172735,4.7725296,0.003497433,0.028296193,0.009787609,1.0007763,-9.442732,0.6512229
6.172859,4.7725887,0.001366904,0.022969872,0.0065918155,0.9911995,-9.423578,0.59376204
6.172983,4.7726474,0.001366904,0.022969872,0.0065918155,0.9911995,-9.423578,0.59376204
6.172983,4.7726474,0.001366904,0.022969872,0.0065918155,0.9911995,-9.423578,0.59376204
6.172983,4.7726474,0.001366904,0.022969872,0.0065918155,0.9911995,-9.423578,0.59376204
6.172983,4.7726474,-0.0039594183,0.012317227,0.00020022877,1.0103531,-9.423578,0.5650316
6.1735544,4.7725782,-0.0039594183,0.012317227,0.00020022877,1.0103531,-9.423578,0.5650316
6.173655,4.7726326,-0.008220476,0.0069909045,-0.0019303001,0.9768343,-9.409213,0.60333884
6.17376,4.7726893,-0.008220476,0.0069909045,-0.0019303001,0.9768343,-9.409213,0.60333884
6.173849,4.7727637,-0.010351005,0.0027298466,-0.006191358,1.0055647,-9.433155,0.59855044
6.1739187,4.772822,-0.010351005,0.0027298466,-0.006191358,1.0055647,-9.433155,0.59855044
6.1739516,4.7729025,-0.013546798,-0.0015312112,-0.010452416,1.0103531,-9.428367,0.62728083
6.173984,4.772983,-0.013546798,-0.0015312112,-0.010452416,1.0103531,-9.428367,0.62728083
6.1740475,4.7730474,-0.01674259,-0.005792269,-0.015778739,0.9959879,-9.485827,0.62249243
6.174111,4.773112,-0.01674259,-0.005792269,-0.015778739,0.9959879,-9.485827,0.62249243
6.1741047,4.7731905,-0.018873122,-0.010053327,-0.022170324,1.0247183,-9.433155,0.6368576
6.1740985,4.7732697,-0.018873122,-0.010053327,-0.022170324,1.0247183,-9.433155,0.6368576
6.1741934,4.7732935,-0.02313418,-0.015379649,-0.026431382,0.9864111,-9.476251,0.59855044
6.174288,4.7733173,-0.02313418,-0.015379649,-0.026431382,0.9864111,-9.476251,0.59855044
6.1743803,4.7733345,-0.026329972,-0.020705972,-0.03069244,0.9720459,-9.485827,0.60333884
6.1744714,4.7733526,-0.026329972,-0.020705972,-0.03069244,0.9720459,-9.485827,0.60333884
6.1745524,4.773375,-0.027395237,-0.02496703,-0.036018763,0.9816227,-9.528923,0.60812724
6.174633,4.7733974,-0.027395237,-0.02496703,-0.036018763,0.9816227,-9.528923,0.60812724
6.1746306,4.7734604,-0.029525764,-0.030293351,-0.04027982,1.0103531,-9.548077,0.6607997
6.1746287,4.773523,-0.029525764,-0.030293351,-0.04027982,1.0103531,-9.548077,0.6607997
6.1746736,4.7735634,-0.031656295,-0.03455441,-0.043475613,0.9768343,-9.562442,0.641646
6.174718,4.7736044,-0.031656295,-0.03455441,-0.043475613,0.9768343,-9.562442,0.641646
6.1748056,4.773587,-0.032721557,-0.03881547,-0.046671405,0.9720459,-9.591172,0.59855044
6.174894,4.773571,-0.032721557,-0.03881547,-0.046671405,0.9720459,-9.591172,0.59855044
6.17495,4.7735977,-0.032721557,-0.043076526,-0.04773667,0.9528923,-9.586384,0.641646
6.1750064,4.7736244,-0.032721557,-0.043076526,-0.04773667,0.9528923,-9.586384,0.641646
6.1750216,4.7736735,-0.033786822,-0.045207053,-0.048801936,0.9576807,-9.610326,0.7038953
6.175037,4.7737217,-0.033786822,-0.045207053,-0.048801936,0.9576807,-9.610326,0.7038953
6.17507,4.773763,-0.033786822,-0.045207053,-0.04773667,0.9576807,-9.591172,0.6703765
6.1751027,4.773804,-0.033786822,-0.045207053,-0.04773667,0.9576807,-9.591172,0.6703765
6.175133,4.7738485,-0.033786822,-0.04627232,-0.043475613,0.9768343,-9.591172,0.6607997
6.1751637,4.773893,-0.033786822,-0.04627232,-0.043475613,0.9768343,-9.591172,0.6607997
6.1752295,4.773917,-0.033786822,-0.04627232,-0.039214555,0.9911995,-9.610326,0.62249243
6.1752954,4.773942,-0.033786822,-0.04627232,-0.039214555,0.9911995,-9.610326,0.62249243
6.1753073,4.7739964,-0.032721557,-0.04627232,-0.037084028,0.9959879,-9.605537,0.6751649
6.175319,4.774051,-0.032721557,-0.04627232,-0.037084028,0.9959879,-9.605537,0.6751649
6.17536,4.7740955,-0.032721557,-0.04627232,-0.036018763,1.0007763,-9.643845,0.641646
6.175401,4.7741394,-0.032721557,-0.04627232,-0.036018763,1.0007763,-9.643845,0.641646
6.1754556,4.774177,-0.031656295,-0.045207053,-0.036018763,0.94810385,-9.65821,0.6751649
6.17551,4.7742143,-0.031656295,-0.045207053,-0.036018763,0.94810385,-9.65821,0.6751649
6.175582,4.7742405,-0.031656295,-0.044141788,-0.033888236,0.9768343,-9.691729,0.641646
6.1756535,4.774267,-0.031656295,-0.044141788,-0.033888236,0.9768343,-9.691729,0.641646
6.1756806,4.77432,-0.03059103,-0.044141788,-0.033888236,0.94810385,-9.706094,0.7422025
6.175708,4.774373,-0.03059103,-0.044141788,-0.033888236,0.94810385,-9.706094,0.7422025
6.1757665,4.774411,-0.029525764,-0.045207053,-0.033888236,0.92416185,-9.68694,0.6943185
6.1758246,4.7744493,-0.029525764,-0.045207053,-0.033888236,0.92416185,-9.68694,0.6943185
6.1758704,4.774495,-0.029525764,-0.045207053,-0.033888236,0.91937345,-9.682152,0.7230489
6.1759167,4.7745404,-0.029525764,-0.045207053,-0.033888236,0.91937345,-9.682152,0.7230489
6.176008,4.7745466,-0.0284605,-0.04627232,-0.033888236,0.90979666,-9.662998,0.641646
6.1760993,4.774553,-0.0284605,-0.04627232,-0.033888236,0.90979666,-9.662998,0.641646
6.176197,4.7745485,-0.026329972,-0.048402846,-0.033888236,0.90500826,-9.648633,0.62728083
6.176295,4.7745442,-0.026329972,-0.048402846,-0.033888236,0.90500826,-9.648633,0.62728083
6.1763844,4.77456,-0.024199443,-0.050533377,-0.036018763,0.91458505,-9.629479,0.641646
6.1764674,4.7745743,-0.024199443,-0.050533377,-0.036018763,0.91458505,-9.629479,0.641646
6.1765413,4.7746015,-0.022068914,-0.054794434,-0.037084028,0.90979666,-9.648633,0.6607997
6.1766167,4.7746296,-0.022068914,-0.054794434,-0.037084028,0.90979666,-9.648633,0.6607997
6.1767073,4.7746334,-0.021003649,-0.059055492,-0.03814929,0.9624691,-9.643845,0.61770403
6.176798,4.774638,-0.021003649,-0.059055492,-0.03814929,0.9624691,-9.643845,0.61770403
6.1768436,4.7745366,-0.017807856,-0.06331655,-0.039214555,0.9672575,-9.634268,0.545878
6.17689,4.774435,-0.017807856,-0.06331655,-0.039214555,0.9672575,-9.634268,0.545878
6.176773,4.7743273,-0.01674259,-0.066512346,-0.039214555,1.0486604,-9.619903,0.5746084
6.1766562,4.774219,-0.01674259,-0.066512346,-0.039214555,1.0486604,-9.619903,0.5746084
6.1764727,4.774211,-0.014612063,-0.06970814,-0.04027982,1.0630256,-9.615114,0.59855044
6.1762896,4.7742043,-0.014612063,-0.06970814,-0.04027982,1.0630256,-9.615114,0.59855044
6.1761765,4.774094,-0.014612063,-0.07183866,-0.04454088,1.0486604,-9.615114,0.5746084
6.1760645,4.773983,-0.014612063,-0.07183866,-0.04454088,1.0486604,-9.615114,0.5746084
6.1760397,4.774061,-0.012481534,-0.07396919,-0.046671405,1.0390835,-9.662998,0.60333884
6.1760216,4.7741375,-0.012481534,-0.07396919,-0.046671405,1.0390835,-9.662998,0.60333884
6.175945,4.7740192,-0.012481534,-0.07609972,-0.046671405,1.0486604,-9.634268,0.5554548
6.175869,4.7739005,-0.012481534,-0.07609972,-0.046671405,1.0486604,-9.634268,0.5554548
6.1756873,4.7739215,-0.013546798,-0.078230254,-0.0498672,1.067814,-9.662998,0.60333884
6.1755075,4.773944,-0.013546798,-0.078230254,-0.0498672,1.067814,-9.662998,0.60333884
6.1753745,4.7738376,-0.012481534,-0.08036078,-0.056258786,1.1013328,-9.667787,0.5315128
6.1752415,4.773731,-0.012481534,-0.08036078,-0.056258786,1.1013328,-9.667787,0.5315128
6.1750884,4.7737894,-0.010351005,-0.08249131,-0.058389317,1.067814,-9.701305,0.60812724
6.174939,4.7738485,-0.010351005,-0.08249131,-0.058389317,1.067814,-9.701305,0.60812724
6.1747327,4.7738247,-0.010351005,-0.0856871,-0.06158511,1.091756,-9.672575,0.59376204
6.174526,4.7738004,-0.010351005,-0.0856871,-0.06158511,1.091756,-9.672575,0.59376204
6.1745167,4.7736926,-0.008220476,-0.08888289,-0.06371564,1.043872,-9.677363,0.5746084
6.1745105,4.7735853,-0.008220476,-0.08888289,-0.06371564,1.043872,-9.677363,0.5746084
6.174467,4.773471,-0.0071552116,-0.09207869,-0.064780906,1.0486604,-9.648633,0.56982
6.1744266,4.7733564,-0.0071552116,-0.09207869,-0.064780906,1.0486604,-9.648633,0.56982
6.174288,4.7732534,-0.006089947,-0.09420922,-0.06584617,1.0821792,-9.653421,0.5554548
6.1741505,4.77315,-0.006089947,-0.09420922,-0.06584617,1.0821792,-9.653421,0.5554548
6.1739774,4.773066,-0.0039594183,-0.09633975,-0.06691143,1.1923125,-9.677363,0.49799395
6.1738048,4.772982,-0.0039594183,-0.09633975,-0.06691143,1.1923125,-9.677363,0.49799395
6.1736355,4.7728996,-0.0018288894,-0.09847028,-0.064780906,1.1779473,-9.648633,0.50278234
6.1734657,4.7728167,-0.0018288894,-0.09847028,-0.064780906,1.1779473,-9.648633,0.50278234
6.173289,4.7727423,-0.0007636249,-0.09847028,-0.062650375,1.1492168,-9.619903,0.5315128
6.173112,4.772668,-0.0007636249,-0.09847028,-0.062650375,1.1492168,-9.619903,0.5315128
6.172965,4.7725782,0.001366904,-0.09953554,-0.058389317,1.1444284,-9.639056,0.50757074
6.1728177,4.7724886,0.001366904,-0.09953554,-0.058389317,1.1444284,-9.639056,0.50757074
6.1726995,4.772391,0.003497433,-0.09633975,-0.05519352,1.1492168,-9.639056,0.45489833
6.1725817,4.772293,0.003497433,-0.09633975,-0.05519352,1.1492168,-9.639056,0.45489833
6.1724286,4.7722144,0.003497433,-0.093143955,-0.050932467,1.1779473,-9.662998,0.50278234
6.172276,4.7721353,0.003497433,-0.093143955,-0.050932467,1.1779473,-9.662998,0.50278234
6.172157,4.7720404,0.0024321685,-0.08888289,-0.046671405,1.1875241,-9.65821,0.4357447
6.172037,4.771946,0.0024321685,-0.08888289,-0.046671405,1.1875241,-9.65821,0.4357447
6.171909,4.77186,0.0045626974,-0.08462184,-0.041345086,1.1971009,-9.734824,0.47405192
6.1717806,4.771775,0.0045626974,-0.08462184,-0.041345086,1.1971009,-9.734824,0.47405192
6.1716013,4.77178,0.0045626974,-0.079295516,-0.034953497,1.2114661,-9.773131,0.58897364
6.1714225,4.7717857,0.0045626974,-0.079295516,-0.034953497,1.2114661,-9.773131,0.58897364
6.171273,4.7717285,0.005627962,-0.07290393,-0.028561912,1.2162545,-9.739613,0.521936
6.171124,4.7716703,0.005627962,-0.07290393,-0.028561912,1.2162545,-9.739613,0.521936
6.1709547,4.771668,0.0066932263,-0.066512346,-0.025366118,1.3838485,-9.825804,0.5793968
6.1707854,4.7716656,0.0066932263,-0.066512346,-0.025366118,1.3838485,-9.825804,0.5793968
6.1706276,4.771699,0.008823755,-0.057990227,-0.022170324,1.7717092,-9.844957,0.7374141
6.17047,4.7717323,0.008823755,-0.057990227,-0.022170324,1.7717092,-9.844957,0.7374141
6.170306,4.7717524,0.010954284,-0.043076526,-0.02323559,1.7908629,-9.840169,0.6512229
6.1701417,4.7717724,0.010954284,-0.043076526,-0.02323559,1.7908629,-9.840169,0.6512229
6.169979,4.771767,0.0141500775,-0.023901764,-0.02323559,1.5897499,-9.816227,0.5267244
6.169816,4.771762,0.0141500775,-0.023901764,-0.02323559,1.5897499,-9.816227,0.5267244
6.169696,4.7717066,0.017345872,-0.005792269,-0.022170324,1.3599066,-9.883265,0.4165911
6.1695633,4.7716455,0.017345872,-0.005792269,-0.022170324,1.3599066,-9.883265,0.4165911
6.169446,4.771598,0.018411135,0.009121433,-0.018974531,1.3215994,-9.811439,0.45010993
6.1693316,4.771552,0.018411135,0.009121433,-0.018974531,1.3215994,-9.811439,0.45010993
6.169205,4.771515,0.018411135,0.021904606,-0.015778739,1.3934253,-9.792285,0.4405331
6.1690774,4.771477,0.018411135,0.021904606,-0.015778739,1.3934253,-9.792285,0.4405331
6.1689477,4.7714486,0.018411135,0.03468778,-0.01151768,1.3694834,-9.725247,0.46926352
6.1688175,4.7714195,0.018411135,0.03468778,-0.01151768,1.3694834,-9.725247,0.46926352
6.168691,4.7713947,0.019476399,0.04853622,-0.0072566224,1.5514427,-9.672575,0.39264908
6.168565,4.77137,0.019476399,0.04853622,-0.0072566224,1.5514427,-9.672575,0.39264908
6.1684427,4.771345,0.02160693,0.06344992,-0.006191358,1.685518,-9.557653,0.30645782
6.1683207,4.771321,0.02160693,0.06344992,-0.006191358,1.685518,-9.557653,0.30645782
6.1681967,4.771301,0.022672193,0.0762331,-0.0072566224,1.5993267,-9.485827,0.34955344
6.1680727,4.7712812,0.022672193,0.0762331,-0.0072566224,1.5993267,-9.485827,0.34955344
6.1679425,4.77127,0.024802722,0.08262468,-0.010452416,1.3934253,-9.471462,0.45010993
6.1678123,4.771258,0.024802722,0.08262468,-0.010452416,1.3934253,-9.471462,0.45010993
6.167753,4.771201,0.025867987,0.085820474,-0.012582945,1.1923125,-9.442732,0.38307226
6.167694,4.7711434,0.025867987,0.085820474,-0.012582945,1.1923125,-9.442732,0.38307226
6.1677,4.771081,0.026933251,0.086885735,-0.013648209,1.0630256,-9.385271,0.36870706
6.1677055,4.771018,0.026933251,0.086885735,-0.013648209,1.0630256,-9.385271,0.36870706
6.1677036,4.770955,0.026933251,0.08475521,-0.010452416,1.0821792,-9.385271,0.36870706
6.167702,4.770891,0.026933251,0.08475521,-0.010452416,1.0821792,-9.385271,0.36870706
6.167699,4.7708254,0.024802722,0.08262468,-0.006191358,1.1013328,-9.44752,0.272939
6.1676955,4.7707596,0.024802722,0.08262468,-0.006191358,1.1013328,-9.44752,0.272939
6.1676545,4.770696,0.02160693,0.08475521,-0.0008650357,1.2401965,-9.457097,0.25378537
6.1676135,4.7706323,0.02160693,0.08475521,-0.0008650357,1.2401965,-9.457097,0.25378537
6.1675854,4.770567,0.020541664,0.090081535,0.005526551,1.1779473,-9.452309,0.35434186
6.1675577,4.770502,0.020541664,0.090081535,0.005526551,1.1779473,-9.452309,0.35434186
6.1675987,4.7704344,0.020541664,0.09434259,0.010852873,1.0342951,-9.524135,0.272939
6.16764,4.7703667,0.020541664,0.09434259,0.010852873,1.0342951,-9.524135,0.272939
6.167756,4.7703233,0.02160693,0.09647312,0.018309724,0.90021986,-9.576807,0.38307226
6.1678724,4.77028,0.02160693,0.09647312,0.018309724,0.90021986,-9.576807,0.38307226
6.1680064,4.770243,0.02160693,0.09860365,0.02683184,0.91937345,-9.56723,0.4261679
6.1681404,4.770206,0.02160693,0.09860365,0.02683184,0.91937345,-9.56723,0.4261679
6.168295,4.7701817,0.019476399,0.09753838,0.031092897,0.93373865,-9.586384,0.47405192
6.168449,4.770157,0.019476399,0.09753838,0.031092897,0.93373865,-9.586384,0.47405192
6.168449,4.770157,0.019476399,0.09860365,0.03641922,0.8762778,-9.65821,0.49320555
6.1688046,4.770145,0.019476399,0.09860365,0.03641922,0.8762778,-9.65821,0.49320555
6.1689773,4.770137,0.018411135,0.102864705,0.040680278,0.8858546,-9.710882,0.49320555
6.169153,4.770128,0.018411135,0.102864705,0.040680278,0.8858546,-9.710882,0.49320555
6.1693234,4.7701063,0.018411135,0.104995236,0.042810805,0.8810662,-9.725247,0.46447513
6.1693234,4.7701063,0.018411135,0.104995236,0.042810805,0.8810662,-9.725247,0.46447513
6.169729,4.7700543,0.018411135,0.10819103,0.0460066,0.8714894,-9.730036,0.44532153
6.169901,4.7700267,0.018411135,0.10819103,0.0460066,0.8714894,-9.730036,0.44532153
6.170041,4.770025,0.018411135,0.11032156,0.047071867,0.8331822,-9.725247,0.49320555
6.170192,4.7700224,0.018411135,0.11032156,0.047071867,0.8331822,-9.725247,0.49320555
6.1703753,4.770008,0.018411135,0.11032156,0.05026766,0.8331822,-9.701305,0.46447513
6.1705546,4.7699933,0.018411135,0.11032156,0.05026766,0.8331822,-9.701305,0.46447513
6.170739,4.7699785,0.017345872,0.10925629,0.052398186,0.81402856,-9.648633,0.45968673
6.170924,4.769963,0.017345872,0.10925629,0.052398186,0.81402856,-9.648633,0.45968673
6.1711135,4.7699547,0.016280606,0.10712577,0.052398186,0.81881696,-9.677363,0.48362875
6.1713033,4.769947,0.016280606,0.10712577,0.052398186,0.81881696,-9.677363,0.48362875
6.171473,4.769915,0.015215342,0.10392997,0.05026766,0.91458505,-9.581595,0.46926352
6.1716433,4.769882,0.015215342,0.10392997,0.05026766,0.91458505,-9.581595,0.46926352
6.171812,4.769852,0.015215342,0.09966891,0.047071867,0.94331545,-9.557653,0.48841715
6.171982,4.769821,0.015215342,0.09966891,0.047071867,0.94331545,-9.557653,0.48841715
6.1720705,4.769749,0.013084813,0.09753838,0.042810805,1.0007763,-9.504981,0.40222588
6.1721587,4.7696767,0.013084813,0.09753838,0.042810805,1.0007763,-9.504981,0.40222588
6.1722345,4.7696004,0.00988902,0.09434259,0.035353955,1.0390835,-9.495404,0.48841715
6.1723104,4.7695236,0.00988902,0.09434259,0.035353955,1.0390835,-9.495404,0.48841715
6.1723886,4.7694426,0.0045626974,0.090081535,0.02896237,1.0055647,-9.442732,0.4405331
6.1724663,4.7693624,0.0045626974,0.090081535,0.02896237,1.0055647,-9.442732,0.4405331
6.1724787,4.7692738,0.0024321685,0.086885735,0.021505518,1.0821792,-9.241618,0.1388637
6.1724906,4.769186,0.0024321685,0.086885735,0.021505518,1.0821792,-9.241618,0.1388637
6.172428,4.769109,-0.0028941538,0.08475521,0.010852873,1.3551182,-9.203311,0.17238252
6.172365,4.7690315,-0.0028941538,0.08475521,0.010852873,1.3551182,-9.203311,0.17238252
6.172259,4.768963,-0.012481534,0.08155942,-0.004060829,1.3263878,-9.23683,0.34476504
6.172152,4.768894,-0.012481534,0.08155942,-0.004060829,1.3263878,-9.23683,0.34476504
6.1720347,4.768813,-0.019938385,0.07516783,-0.02110506,1.2114661,-9.198523,0.39264908
6.171918,4.768732,-0.019938385,0.07516783,-0.02110506,1.2114661,-9.198523,0.39264908
6.171837,4.76862,-0.026329972,0.071972035,-0.036018763,1.13964,-9.208099,0.31124622
6.171756,4.768508,-0.026329972,0.071972035,-0.036018763,1.13964,-9.208099,0.31124622
6.171654,4.768391,-0.032721557,0.06771098,-0.0498672,1.2114661,-9.141062,0.20111294
6.171553,4.768274,-0.032721557,0.06771098,-0.0498672,1.2114661,-9.141062,0.20111294
6.1714377,4.7681475,-0.041243672,0.062384658,-0.062650375,1.1875241,-9.251195,0.272939
6.171323,4.7680216,-0.041243672,0.062384658,-0.062650375,1.1875241,-9.251195,0.272939
6.171275,4.767879,-0.050831053,0.057058334,-0.07223775,1.0055647,-9.289502,0.33997664
6.171228,4.767736,-0.050831053,0.057058334,-0.07223775,1.0055647,-9.289502,0.33997664
6.171192,4.7675867,-0.05935317,0.049601484,-0.07969461,0.9576807,-9.275137,0.31603462
6.171157,4.7674375,-0.05935317,0.049601484,-0.07969461,0.9576807,-9.275137,0.31603462
6.171042,4.7672806,-0.06467949,0.04107937,-0.08608619,1.1109096,-9.255983,0.29688102
6.1709275,4.767124,-0.06467949,0.04107937,-0.08608619,1.1109096,-9.255983,0.29688102
6.170783,4.766964,-0.07213634,0.037883572,-0.09034725,1.2306197,-9.303867,0.21068975
6.17064,4.7668047,-0.07213634,0.037883572,-0.09034725,1.2306197,-9.303867,0.21068975
6.1704926,4.766637,-0.0795932,0.03681831,-0.0978041,1.1827357,-9.390059,0.29688102
6.1703424,4.766466,-0.0795932,0.03681831,-0.0978041,1.1827357,-9.390059,0.29688102
6.1702724,4.766286,-0.08705004,0.03681831,-0.10206516,1.0247183,-9.466674,0.35434186
6.170204,4.766108,-0.08705004,0.03681831,-0.10206516,1.0247183,-9.466674,0.35434186
6.170087,4.765924,-0.09024584,0.03468778,-0.10313042,1.1109096,-9.466674,0.2873042
6.16997,4.765738,-0.09024584,0.03468778,-0.10313042,1.1109096,-9.466674,0.2873042
6.169786,4.7655663,-0.0945069,0.032557253,-0.10526095,1.2354081,-9.452309,0.34476504
6.1696014,4.765394,-0.0945069,0.032557253,-0.10526095,1.2354081,-9.452309,0.34476504
6.1693916,4.765232,-0.09876795,0.033622514,-0.107391484,1.2497733,-9.495404,0.39743748
6.169183,4.765071,-0.09876795,0.033622514,-0.107391484,1.2497733,-9.495404,0.39743748
6.169009,4.764885,-0.104094274,0.03681831,-0.107391484,1.1971009,-9.595961,0.38307226
6.1688356,4.7646985,-0.104094274,0.03681831,-0.107391484,1.1971009,-9.595961,0.38307226
6.168699,4.7644987,-0.107290074,0.038948838,-0.107391484,1.1300632,-9.691729,0.45968673
6.1685634,4.7642994,-0.107290074,0.038948838,-0.107391484,1.1300632,-9.691729,0.45968673
6.1683173,4.7642136,-0.1094206,0.038948838,-0.11058728,1.1731589,-9.730036,0.51235914
6.168072,4.7641306,-0.1094206,0.038948838,-0.11058728,1.1731589,-9.730036,0.51235914
6.1678834,4.7639403,-0.1094206,0.037883572,-0.11804412,1.1348516,-9.725247,0.49320555
6.167698,4.7637506,-0.1094206,0.037883572,-0.11804412,1.1348516,-9.725247,0.49320555
6.1674533,4.7635984,-0.11048587,0.035753045,-0.122305185,1.364695,-9.662998,0.40701428
6.167208,4.763446,-0.11048587,0.035753045,-0.122305185,1.364695,-9.662998,0.40701428
6.1669407,4.7633286,-0.11368166,0.037883572,-0.12976204,1.2641385,-9.801862,0.49320555
6.1666737,4.763212,-0.11368166,0.037883572,-0.12976204,1.2641385,-9.801862,0.49320555
6.1666083,4.7630153,-0.11474692,0.04107937,-0.13508835,1.0773908,-9.758766,0.41180268
6.166545,4.7628193,-0.11474692,0.04107937,-0.13508835,1.0773908,-9.758766,0.41180268
6.1663365,4.7626243,-0.11581218,0.04214463,-0.13828415,1.2258313,-9.77792,0.40222588
6.166127,4.7624288,-0.11581218,0.04214463,-0.13828415,1.2258313,-9.77792,0.40222588
6.1658773,4.762254,-0.11794271,0.043209895,-0.14254521,1.2497733,-9.710882,0.4261679
6.1656284,4.76208,-0.11794271,0.043209895,-0.14254521,1.2497733,-9.710882,0.4261679
6.1655374,4.7618737,-0.11900798,0.04853622,-0.14147994,1.1444284,-9.801862,0.45968673
6.165453,4.7616696,-0.11900798,0.04853622,-0.14147994,1.1444284,-9.801862,0.45968673
6.1652546,4.761465,-0.121138506,0.05173201,-0.14147994,1.1731589,-9.696517,0.4405331
6.165058,4.7612605,-0.121138506,0.05173201,-0.14147994,1.1731589,-9.696517,0.4405331
6.1648626,4.7610545,-0.121138506,0.05173201,-0.14147994,1.1731589,-9.696517,0.4405331
6.1646113,4.760875,-0.124334306,0.052797277,-0.14361048,1.5227122,-9.557653,0.24899697
6.16436,4.760695,-0.124334306,0.052797277,-0.14361048,1.5227122,-9.557653,0.24899697
6.164075,4.760557,-0.12966062,0.05599307,-0.1489368,1.4891934,-9.749189,0.4357447
6.163791,4.760421,-0.12966062,0.05599307,-0.1489368,1.4891934,-9.749189,0.4357447
6.163503,4.760285,-0.13498695,0.062384658,-0.15213259,1.3838485,-9.749189,0.45489833
6.163214,4.76015,-0.13498695,0.062384658,-0.15213259,1.3838485,-9.749189,0.45489833
6.162921,4.7600126,-0.13818274,0.06558045,-0.15639365,1.4460979,-9.639056,0.44532153
6.162629,4.7598767,-0.13818274,0.06558045,-0.15639365,1.4460979,-9.639056,0.44532153
6.162336,4.759716,-0.14244379,0.06664571,-0.16065471,1.5035586,-9.562442,0.3878607
6.1620426,4.759557,-0.14244379,0.06664571,-0.16065471,1.5035586,-9.562442,0.3878607
6.1617503,4.7593784,-0.14670485,0.069841504,-0.1670463,1.6807296,-9.533711,0.2873042
6.161459,4.759201,-0.14670485,0.069841504,-0.1670463,1.6807296,-9.533711,0.2873042
6.1611485,4.7590327,-0.1541617,0.074102566,-0.17663367,1.6472107,-9.672575,0.37349546
6.1608386,4.758865,-0.1541617,0.074102566,-0.17663367,1.6472107,-9.672575,0.37349546
6.160524,4.7586846,-0.16055329,0.07836362,-0.18622105,1.8004397,-9.500193,0.29688102
6.1602073,4.758504,-0.16055329,0.07836362,-0.18622105,1.8004397,-9.500193,0.29688102
6.1598887,4.7582994,-0.16801015,0.08262468,-0.20006949,1.5945383,-9.667787,0.29209262
6.1595683,4.7580943,-0.16801015,0.08262468,-0.20006949,1.5945383,-9.667787,0.29209262
6.1592226,4.757914,-0.175467,0.086885735,-0.21285266,1.5849615,-9.615114,0.39264908
6.1588745,4.757734,-0.175467,0.086885735,-0.21285266,1.5849615,-9.615114,0.39264908
6.1585145,4.757577,-0.18398911,0.09221206,-0.2267011,1.5945383,-9.706094,0.47884035
6.158153,4.7574205,-0.18398911,0.09221206,-0.2267011,1.5945383,-9.706094,0.47884035
6.157778,4.7572594,-0.19038069,0.09860365,-0.2416148,1.5705963,-9.610326,0.47405192
6.157403,4.7570996,-0.19038069,0.09860365,-0.2416148,1.5705963,-9.610326,0.47405192
6.1570153,4.7569075,-0.19677228,0.10392997,-0.2533327,1.460463,-9.77792,0.4213795
6.1566253,4.756715,-0.19677228,0.10392997,-0.2533327,1.460463,-9.77792,0.4213795
6.1562123,4.756491,-0.20422913,0.10925629,-0.26718116,1.4796166,-9.701305,0.38307226
6.155827,4.7562833,-0.20422913,0.10925629,-0.26718116,1.4796166,-9.701305,0.38307226
6.155436,4.756039,-0.21275125,0.11138682,-0.28102958,1.5131354,-9.763555,0.320823
6.1550407,4.755793,-0.21275125,0.11138682,-0.28102958,1.5131354,-9.763555,0.320823
6.1546383,4.755528,-0.22127336,0.11458261,-0.2959433,1.532289,-9.844957,0.2873042
6.154236,4.755263,-0.22127336,0.11458261,-0.2959433,1.532289,-9.844957,0.2873042
6.153816,4.7549944,-0.22979549,0.117778406,-0.3076612,1.5897499,-9.667787,0.25857377
6.1533966,4.754727,-0.22979549,0.117778406,-0.3076612,1.5897499,-9.667787,0.25857377
6.152978,4.7544355,-0.24044813,0.12310473,-0.3225749,1.5131354,-9.797073,0.25857377
6.1525583,4.754143,-0.24044813,0.12310473,-0.3225749,1.5131354,-9.797073,0.25857377
6.152146,4.753827,-0.25216603,0.12949632,-0.34068438,1.3599066,-9.859323,0.34476504
6.151734,4.75351,-0.25216603,0.12949632,-0.34068438,1.3599066,-9.859323,0.34476504
6.1514177,4.753171,-0.2617534,0.13269211,-0.35666338,1.2593501,-9.782708,0.30645782
6.1511054,4.752832,-0.2617534,0.13269211,-0.35666338,1.2593501,-9.782708,0.30645782
6.1507754,4.7524834,-0.2713408,0.13269211,-0.3737076,1.2354081,-9.921572,0.19632454
6.150448,4.7521353,-0.2713408,0.13269211,-0.3737076,1.2354081,-9.921572,0.19632454
6.150109,4.7517767,-0.2830587,0.13056158,-0.38968655,1.2689269,-9.892841,0.2873042
6.149776,4.7514205,-0.2830587,0.13056158,-0.38968655,1.2689269,-9.892841,0.2873042
6.149351,4.7510443,-0.29584187,0.12843105,-0.40566552,1.3694834,-9.811439,0.16759412
6.148928,4.7506685,-0.29584187,0.12843105,-0.40566552,1.3694834,-9.811439,0.16759412
6.1485476,4.75028,-0.31075558,0.12736578,-0.42377502,1.163582,-9.92636,-0.06703765
6.1481676,4.7498913,-0.31075558,0.12736578,-0.42377502,1.163582,-9.92636,-0.06703765
6.14781,4.7494965,-0.32886508,0.12523526,-0.43975398,0.92416185,-9.825804,-0.07182605
6.147454,4.7491026,-0.32886508,0.12523526,-0.43975398,0.92416185,-9.825804,-0.07182605
6.1471047,4.7486997,-0.34803984,0.12203947,-0.45253718,0.7469909,-10.036493,-0.08619126
6.146757,4.7482986,-0.34803984,0.12203947,-0.45253718,0.7469909,-10.036493,-0.08619126
6.146401,4.7478766,-0.36614934,0.11564788,-0.45892876,0.7086837,-9.993398,-0.12449849
6.146046,4.7474556,-0.36614934,0.11564788,-0.45892876,0.7086837,-9.993398,-0.12449849
6.1456795,4.7470098,-0.38638934,0.104995236,-0.46532035,0.6512229,-10.070012,-0.22984336
6.1453137,4.746564,-0.38638934,0.104995236,-0.46532035,0.6512229,-10.070012,-0.22984336
6.144961,4.7461076,-0.40875992,0.0911468,-0.46851614,0.5506664,-10.232818,-0.12449849
6.144609,4.7456512,-0.40875992,0.0911468,-0.46851614,0.5506664,-10.232818,-0.12449849
6.1442676,4.745188,-0.42793468,0.0762331,-0.4695814,0.4213795,-10.429143,-0.04309563
6.143926,4.744725,-0.42793468,0.0762331,-0.4695814,0.4213795,-10.429143,-0.04309563
6.1435876,4.744247,-0.44604418,0.053862542,-0.4695814,0.320823,-10.6158905,-0.019153614
6.143251,4.7437706,-0.44604418,0.053862542,-0.4695814,0.320823,-10.6158905,-0.019153614
6.142909,4.743266,-0.45882735,0.024035135,-0.4663856,0.4405331,-10.658986,-0.08140286
6.1425676,4.7427635,-0.45882735,0.024035135,-0.4663856,0.4405331,-10.658986,-0.08140286
6.1422315,4.7422533,-0.46841472,-0.012183856,-0.46532035,0.51714754,-10.817003,0.009576807
6.1418962,4.741745,-0.46841472,-0.012183856,-0.46532035,0.51714754,-10.817003,0.009576807
6.1415553,4.7412143,-0.4748063,-0.051598642,-0.4631898,0.60333884,-11.137826,-0.06703765
6.1412144,4.7406836,-0.4748063,-0.051598642,-0.4631898,0.60333884,-11.137826,-0.06703765
6.140875,4.7401447,-0.47693685,-0.095274486,-0.45999402,0.79487497,-11.286267,-0.009576807
6.1405087,4.7395625,-0.47693685,-0.095274486,-0.45999402,0.79487497,-11.286267,-0.009576807
6.140199,4.739061,-0.47587156,-0.14001559,-0.45573297,0.90500826,-11.425131,0.05267244
6.1398554,4.7385035,-0.47587156,-0.14001559,-0.45573297,0.90500826,-11.425131,0.05267244
6.1398554,4.7385035,-0.47374105,-0.18582197,-0.45253718,1.1348516,-11.568783,0.05746084
6.1391907,4.7374153,-0.47374105,-0.18582197,-0.45253718,1.1348516,-11.568783,0.05746084
6.1388187,4.736824,-0.46947998,-0.2326936,-0.44934136,1.5131354,-11.669339,0.1436521
6.138464,4.736257,-0.46947998,-0.2326936,-0.44934136,1.5131354,-11.669339,0.1436521
6.1378856,4.7357254,-0.4630884,-0.27530417,-0.4482761,1.9153614,-11.81778,0.22984336
6.1372886,4.735181,-0.4630884,-0.27530417,-0.4482761,1.9153614,-11.81778,0.22984336
6.136692,4.734682,-0.45456627,-0.31045792,-0.44934136,2.183512,-11.927913,0.272939
6.1360927,4.734183,-0.45456627,-0.31045792,-0.44934136,2.183512,-11.927913,0.272939
6.1360927,4.734183,-0.45456627,-0.31045792,-0.44934136,2.183512,-11.927913,0.272939
6.1349087,4.7332325,-0.4449789,-0.3402853,-0.45360243,2.5139117,-11.923124,0.33039984
6.1342773,4.732745,-0.43539152,-0.3647864,-0.46212456,2.8299465,-11.9853735,0.40222588
6.1336846,4.7322874,-0.43539152,-0.3647864,-0.46212456,2.8299465,-11.9853735,0.40222588
6.133081,4.731841,-0.42473888,-0.3828959,-0.47597298,3.0693667,-12.066776,0.45968673
6.1324625,4.731384,-0.42473888,-0.3828959,-0.47597298,3.0693667,-12.066776,0.45968673
6.131828,4.730939,-0.41302097,-0.3946138,-0.49408248,3.265691,-12.119449,0.50757074
6.131196,4.7304955,-0.41302097,-0.3946138,-0.49408248,3.265691,-12.119449,0.50757074
6.130537,4.7300563,-0.4034336,-0.4010054,-0.516453,3.4572272,-12.138602,0.51714754
6.1298776,4.7296166,-0.4034336,-0.4010054,-0.516453,3.4572272,-12.138602,0.51714754
6.1291976,4.729192,-0.39171568,-0.40420118,-0.5430846,3.6152446,-12.200851,0.5363012
6.128506,4.7287593,-0.39171568,-0.40420118,-0.5430846,3.6152446,-12.200851,0.5363012
6.1278014,4.728359,-0.37786725,-0.40313593,-0.5718468,3.5194764,-12.20564,0.6943185
6.127104,4.727963,-0.37786725,-0.40313593,-0.5718468,3.5194764,-12.20564,0.6943185
6.126371,4.7275777,-0.3618883,-0.3999401,-0.60060894,3.7205894,-11.975797,0.7278373
6.125639,4.727193,-0.3618883,-0.3999401,-0.60060894,3.7205894,-11.975797,0.7278373
6.124871,4.7268143,-0.34484404,-0.3967443,-0.6304363,3.8019924,-12.191275,0.5650316
6.1241026,4.7264357,-0.34484404,-0.3967443,-0.6304363,3.8019924,-12.191275,0.5650316
6.123295,4.7260695,-0.32993034,-0.38928747,-0.66878587,3.8115692,-12.411542,0.50278234
6.122488,4.7257032,-0.32993034,-0.38928747,-0.66878587,3.8115692,-12.411542,0.50278234
6.121647,4.725356,-0.31501663,-0.38502643,-0.70393956,3.7972038,-12.483368,0.5506664
6.1208067,4.72501,-0.31501663,-0.38502643,-0.70393956,3.7972038,-12.483368,0.5506664
6.119933,4.7246795,-0.29477662,-0.38715693,-0.7358975,3.892972,-12.449849,0.521936
6.11906,4.72435,-0.29477662,-0.38715693,-0.7358975,3.892972,-12.449849,0.521936
6.118156,4.724041,-0.2713408,-0.391418,-0.76679015,4.1515455,-12.287044,0.5554548
6.1172523,4.7237325,-0.2713408,-0.391418,-0.76679015,4.1515455,-12.287044,0.5554548
6.1163235,4.723452,-0.24683972,-0.39248326,-0.79448706,4.271256,-12.176909,0.6560113
6.115395,4.723172,-0.24683972,-0.39248326,-0.79448706,4.271256,-12.176909,0.6560113
6.1144423,4.7229214,-0.22233863,-0.38502643,-0.82111865,4.1946416,-12.038046,0.7134721
6.11349,4.7226706,-0.22233863,-0.38502643,-0.82111865,4.1946416,-12.038046,0.7134721
6.1125193,4.7224503,-0.19890282,-0.3647864,-0.842424,4.1371803,-11.803414,0.7757214
6.111549,4.7222295,-0.19890282,-0.3647864,-0.842424,4.1371803,-11.803414,0.7757214
6.110566,4.7220397,-0.175467,-0.33069792,-0.8562724,4.0892963,-11.602302,0.79487497
6.1095834,4.7218494,-0.175467,-0.33069792,-0.8562724,4.0892963,-11.602302,0.79487497
6.108586,4.7216816,-0.1541617,-0.28915262,-0.86692506,3.98874,-11.415554,0.641646
6.1075892,4.7215133,-0.1541617,-0.28915262,-0.86692506,3.98874,-11.415554,0.641646
6.1065803,4.721361,-0.139248,-0.24121572,-0.87544715,4.0078936,-11.314998,0.5315128
6.1055717,4.7212095,-0.139248,-0.24121572,-0.87544715,4.0078936,-11.314998,0.5315128
6.1045566,4.721071,-0.12539956,-0.1847567,-0.87757766,4.0318356,-11.166556,0.36391866
6.103542,4.720932,-0.12539956,-0.1847567,-0.87757766,4.0318356,-11.166556,0.36391866
6.1025243,4.720803,-0.11794271,-0.122971356,-0.878643,4.084508,-11.03727,0.23942018
6.1015077,4.720674,-0.11794271,-0.122971356,-0.878643,4.084508,-11.03727,0.23942018
6.100486,4.7205544,-0.11687745,-0.057990227,-0.88183874,4.19943,-10.840945,0.19153613
6.0994654,4.7204347,-0.11687745,-0.057990227,-0.88183874,4.19943,-10.840945,0.19153613
6.098437,4.720323,-0.11900798,0.009121433,-0.8892956,4.156334,-10.67814,0.15322891
6.0974016,4.720211,-0.11900798,0.009121433,-0.8892956,4.156334,-10.67814,0.15322891
6.096293,4.7201133,-0.124334306,0.0762331,-0.90847033,4.0174704,-10.462662,0.32561144
6.0952234,4.7200193,-0.124334306,0.0762331,-0.90847033,4.0174704,-10.462662,0.32561144
6.0942492,4.7199483,-0.12966062,0.1358879,-0.93829775,4.0222588,-10.204087,0.45010993
6.0931845,4.7198715,-0.12966062,0.1358879,-0.93829775,4.0222588,-10.204087,0.45010993
6.092071,4.719796,-0.13711748,0.18808587,-0.9819736,3.9791632,-10.1226845,0.4357447
6.0910053,4.719725,-0.13711748,0.18808587,-0.9819736,3.9791632,-10.1226845,0.4357447
6.0898385,4.719655,-0.1456396,0.23389223,-1.0384326,3.9025488,-9.998186,0.47884035
6.088619,4.719582,-0.1456396,0.23389223,-1.0384326,3.9025488,-9.998186,0.47884035
6.0873895,4.7195096,-0.1541617,0.2711765,-1.0991527,3.8881836,-10.01734,0.4405331
6.0861664,4.719438,-0.1541617,0.2711765,-1.0991527,3.8881836,-10.01734,0.4405331
6.0848627,4.719356,-0.16161856,0.3010039,-1.1683949,3.9312792,-9.883265,0.31603462
6.0835543,4.719274,-0.16161856,0.3010039,-1.1683949,3.9312792,-9.883265,0.31603462
6.0821733,4.719188,-0.1722712,0.32870078,-1.245094,3.9552212,-9.720459,0.320823
6.0807962,4.719103,-0.1722712,0.32870078,-1.245094,3.9552212,-9.720459,0.320823
6.0793386,4.7190156,-0.18611965,0.35533237,-1.3281846,3.9600096,-9.5385,0.40222588
6.0778794,4.7189283,-0.18611965,0.35533237,-1.3281846,3.9600096,-9.5385,0.40222588
6.076325,4.718829,-0.20316388,0.3851598,-1.4229931,3.9456444,-9.351752,0.36870706
6.0747623,4.718731,-0.20316388,0.3851598,-1.4229931,3.9456444,-9.351752,0.36870706
6.0731025,4.718625,-0.22766495,0.418183,-1.5316501,3.9935284,-9.208099,0.5315128
6.071456,4.718521,-0.22766495,0.418183,-1.5316501,3.9935284,-9.208099,0.5315128
6.069673,4.718397,-0.25855762,0.45333672,-1.6530902,3.9360676,-8.992621,0.5793968
6.0678954,4.7182746,-0.25855762,0.45333672,-1.6530902,3.9360676,-8.992621,0.5793968
6.0659847,4.7181234,-0.29584187,0.48742518,-1.7862482,3.763685,-8.901642,0.5315128
6.0640817,4.717974,-0.29584187,0.48742518,-1.7862482,3.763685,-8.901642,0.5315128
6.0620313,4.7177997,-0.3395177,0.5204484,-1.9289937,3.4093432,-8.844181,0.5793968
6.059985,4.717627,-0.3395177,0.5204484,-1.9289937,3.4093432,-8.844181,0.5793968
6.057798,4.717425,-0.38638934,0.55134106,-2.0770655,3.0933087,-8.791509,0.5650316
6.055612,4.717225,-0.38638934,0.55134106,-2.0770655,3.0933087,-8.791509,0.5650316
6.0532756,4.716986,-0.43113047,0.5726463,-2.2251372,2.7150247,-8.78672,0.36391866
6.0509405,4.71675,-0.43113047,0.5726463,-2.2251372,2.7150247,-8.78672,0.36391866
6.0485044,4.716504,-0.4748063,0.58436424,-2.368948,2.327164,-8.8777,0.30645782
6.0460734,4.716262,-0.4748063,0.58436424,-2.368948,2.327164,-8.8777,0.30645782
6.0436406,4.715978,-0.5152864,0.5886253,-2.5053017,1.9201498,-8.963891,0.320823
6.041212,4.7156944,-0.5152864,0.5886253,-2.5053017,1.9201498,-8.963891,0.320823
6.038617,4.715331,-0.55470115,0.5854295,-2.6341987,1.5466543,-9.097966,0.34476504
6.036181,4.7149906,-0.55470115,0.5854295,-2.6341987,1.5466543,-9.097966,0.34476504
6.033556,4.7145853,-0.59092015,0.5747769,-2.7535083,1.2354081,-9.193734,0.33039984
6.030931,4.7141814,-0.59092015,0.5747769,-2.7535083,1.2354081,-9.193734,0.33039984
6.0282063,4.713732,-0.6250086,0.5609284,-2.8664265,1.0342951,-9.337387,0.2825158
6.025481,4.713283,-0.6250086,0.5609284,-2.8664265,1.0342951,-9.337387,0.2825158
6.022639,4.7127943,-0.65377074,0.5460147,-2.9750834,0.7661445,-9.504981,0.24899697
6.0198045,4.712308,-0.65377074,0.5460147,-2.9750834,0.7661445,-9.504981,0.24899697
6.016854,4.7117896,-0.6793371,0.5279052,-3.0794792,0.56982,-9.495404,0.2633622
6.0139055,4.711273,-0.6793371,0.5279052,-3.0794792,0.56982,-9.495404,0.2633622
6.01086,4.7107286,-0.7027729,0.5087305,-3.179614,0.2825158,-9.433155,0.2825158
6.007859,4.7101936,-0.7027729,0.5087305,-3.179614,0.2825158,-9.433155,0.2825158
6.004724,4.709624,-0.72514343,0.4842294,-3.2776184,0.076614454,-9.581595,0.31124622
6.0015225,4.7090435,-0.72514343,0.4842294,-3.2776184,0.076614454,-9.581595,0.31124622
5.9982724,4.708446,-0.74644876,0.45227146,-3.3734922,-0.21547815,-9.744401,0.4405331
5.995048,4.7078543,-0.74644876,0.45227146,-3.3734922,-0.21547815,-9.744401,0.4405331
5.991714,4.7072263,-0.763493,0.40966088,-3.4619093,-0.40222588,-9.730036,0.37828386
5.988366,4.7065964,-0.763493,0.40966088,-3.4619093,-0.40222588,-9.730036,0.37828386
5.9849544,4.705943,-0.7741456,0.35533237,-3.541804,-0.5602432,-9.921572,0.41180268
5.9815454,4.7052913,-0.7741456,0.35533237,-3.541804,-0.5602432,-9.921572,0.41180268
5.97807,4.70461,-0.7805372,0.29035124,-3.609981,-0.7134721,-10.113108,0.36391866
5.974594,4.70393,-0.7805372,0.29035124,-3.609981,-0.7134721,-10.113108,0.36391866
5.9710517,4.70322,-0.7805372,0.21578273,-3.6675053,-0.7038953,-10.132261,0.272939
5.9675198,4.7025127,-0.7805372,0.21578273,-3.6675053,-0.7038953,-10.132261,0.272939
5.9639125,4.7017765,-0.7762762,0.13375737,-3.718638,-0.545878,-10.189722,0.23463176
5.9603486,4.701048,-0.7762762,0.13375737,-3.718638,-0.545878,-10.189722,0.23463176
5.956721,4.7002907,-0.7688193,0.046405688,-3.7623138,-0.39743748,-10.213664,0.15801731
5.9530935,4.6995325,-0.7688193,0.046405688,-3.7623138,-0.39743748,-10.213664,0.15801731
5.9494286,4.698753,-0.7581667,-0.044141788,-3.7974675,-0.062249243,-10.19451,0.1436521
5.9457746,4.697974,-0.7581667,-0.044141788,-3.7974675,-0.062249243,-10.19451,0.1436521
5.942072,4.697176,-0.747514,-0.13575453,-3.8390129,0.48841715,-10.065224,0.20590134
5.9383736,4.6963773,-0.747514,-0.13575453,-3.8390129,0.48841715,-10.065224,0.20590134
5.934619,4.6955514,-0.7400572,-0.22736728,-3.8890803,1.0773908,-10.012551,0.17717093
5.9308796,4.694727,-0.7400572,-0.22736728,-3.8890803,1.0773908,-10.012551,0.17717093
5.927056,4.693881,-0.7336656,-0.31578422,-3.9476697,1.6041151,-9.907207,0.29209262
5.923248,4.693036,-0.7336656,-0.31578422,-3.9476697,1.6041151,-9.907207,0.29209262
5.9193645,4.6921735,-0.7294045,-0.3978096,-4.017977,2.2122424,-9.619903,0.2825158
5.9154744,4.691305,-0.7294045,-0.3978096,-4.017977,2.2122424,-9.619903,0.2825158
5.911467,4.6904364,-0.7294045,-0.47131285,-4.104264,2.7485435,-9.409213,0.45968673
5.90747,4.6895638,-0.7294045,-0.47131285,-4.104264,2.7485435,-9.409213,0.45968673
5.903338,4.688673,-0.731535,-0.5352287,-4.2043986,3.0119057,-9.212888,0.56982
5.899222,4.687779,-0.731535,-0.5352287,-4.2043986,3.0119057,-9.212888,0.56982
5.8949475,4.686858,-0.7357961,-0.5895572,-4.318382,3.241749,-8.978256,0.6703765
5.890677,4.6859317,-0.7357961,-0.5895572,-4.318382,3.241749,-8.978256,0.6703765
5.88626,4.684984,-0.7379266,-0.6342983,-4.4376917,3.5290532,-8.590396,0.60812724
5.8818526,4.684033,-0.7379266,-0.6342983,-4.4376917,3.5290532,-8.590396,0.60812724
5.877295,4.68305,-0.7443182,-0.67051727,-4.5633926,3.7014358,-8.379706,0.6655881
5.8727427,4.682062,-0.7443182,-0.67051727,-4.5633926,3.7014358,-8.379706,0.6655881
5.8680506,4.6810455,-0.7517751,-0.6971489,-4.6954856,3.7972038,-8.264784,0.6607997
5.8633637,4.680023,-0.7517751,-0.6971489,-4.6954856,3.7972038,-8.264784,0.6607997
5.8585305,4.678971,-0.7624277,-0.7163237,-4.8318396,3.8833952,-8.159439,0.5410896
5.853834,4.6779413,-0.7624277,-0.7163237,-4.8318396,3.8833952,-8.159439,0.5410896
5.8488812,4.676859,-0.7741456,-0.72910684,-4.968193,3.8977604,-8.135497,0.41180268
5.843772,4.675733,-0.7741456,-0.72910684,-4.968193,3.8977604,-8.135497,0.41180268
5.838678,4.6746106,-0.78905934,-0.7386942,-5.1013513,4.0940847,-8.121132,0.31603462
5.8336067,4.673485,-0.78905934,-0.7386942,-5.1013513,4.0940847,-8.121132,0.31603462
5.8283553,4.6723166,-0.8050383,-0.74721634,-5.2355747,4.3382936,-8.1642275,0.2777274
5.823054,4.6711283,-0.8050383,-0.74721634,-5.2355747,4.3382936,-8.1642275,0.2777274
5.817666,4.6699114,-0.8380615,-0.7685216,-5.5061517,5.032612,-8.00621,0.40222588
5.817666,4.6699114,-0.8380615,-0.7685216,-5.5061517,5.032612,-8.00621,0.40222588
5.817666,4.6699114,-0.8380615,-0.7685216,-5.5061517,5.032612,-8.00621,0.40222588
5.7995334,4.6657414,-0.8380615,-0.7685216,-5.5061517,5.032612,-8.00621,0.40222588
5.795287,4.6647577,-0.85404044,-0.77597845,-5.648897,5.2385135,-7.9822683,0.5602432
5.7893567,4.663375,-0.85404044,-0.77597845,-5.648897,5.2385135,-7.9822683,0.5602432
5.7893567,4.663375,-0.85404044,-0.77597845,-5.648897,5.2385135,-7.9822683,0.5602432
5.777348,4.66055,-0.87001944,-0.78556585,-5.8001647,5.3965306,-7.9391727,0.5410896
5.7703433,4.6588945,-0.88386786,-0.7930227,-5.9524975,5.497087,-7.8865004,0.5506664
5.7703433,4.6588945,-0.88386786,-0.7930227,-5.9524975,5.497087,-7.8865004,0.5506664
5.7599287,4.6564083,-0.89238995,-0.80154485,-6.1005692,5.616797,-7.881712,0.47405192
5.753859,4.6549516,-0.89238995,-0.80154485,-6.1005692,5.616797,-7.881712,0.47405192
5.7475944,4.6534505,-0.8955858,-0.8111322,-6.2475758,5.861006,-7.843405,0.46926352
5.7413597,4.651943,-0.8955858,-0.8111322,-6.2475758,5.861006,-7.843405,0.46926352
5.7349024,4.6503816,-0.89345527,-0.8207196,-6.396713,6.167464,-7.8625584,0.25378537
5.7284565,4.648808,-0.89345527,-0.8207196,-6.396713,6.167464,-7.8625584,0.25378537
5.7218785,4.647216,-0.88599837,-0.8228501,-6.5437193,6.315904,-7.8912888,0.15322891
5.7153187,4.645612,-0.88599837,-0.8228501,-6.5437193,6.315904,-7.8912888,0.15322891
5.708579,4.6439924,-0.8774763,-0.8132627,-6.6885953,6.2967505,-7.905654,0.1436521
5.7018657,4.6423626,-0.8774763,-0.8132627,-6.6885953,6.2967505,-7.905654,0.1436521
5.6950016,4.640713,-0.87534577,-0.79515326,-6.832406,6.3685765,-7.8290396,0.038307227
5.6881433,4.639048,-0.87534577,-0.79515326,-6.832406,6.3685765,-7.8290396,0.038307227
5.6811485,4.6373754,-0.876411,-0.7706522,-6.976217,6.5457473,-7.762002,0.20111294
5.6741595,4.6356854,-0.876411,-0.7706522,-6.976217,6.5457473,-7.762002,0.20111294
5.667026,4.633976,-0.8828026,-0.7450858,-7.121093,6.9479733,-7.627927,0.4309563
5.659905,4.632248,-0.8828026,-0.7450858,-7.121093,6.9479733,-7.627927,0.4309563
5.6526213,4.630494,-0.8891942,-0.72165,-7.2680993,7.1155677,-7.5561004,0.45968673
5.645358,4.6287227,-0.8891942,-0.72165,-7.2680993,7.1155677,-7.5561004,0.45968673
5.6379333,4.626928,-0.89345527,-0.6982142,-7.4214973,7.374141,-7.565677,0.51714754
5.6305146,4.62511,-0.89345527,-0.6982142,-7.4214973,7.374141,-7.565677,0.51714754
5.622945,4.623279,-0.89238995,-0.67477834,-7.578091,7.4028716,-7.6470804,0.51714754
5.6153812,4.6214237,-0.89238995,-0.67477834,-7.578091,7.4028716,-7.6470804,0.51714754
5.6076684,4.6195574,-0.88812894,-0.65027726,-7.7336197,7.4363904,-7.675811,0.56982
5.6003246,4.6177545,-0.88812894,-0.65027726,-7.7336197,7.4363904,-7.675811,0.56982
5.592508,4.6158676,-0.876411,-0.6247109,-7.8816915,7.374141,-7.7667904,0.6703765
5.5842834,4.6138506,-0.876411,-0.6247109,-7.8816915,7.374141,-7.7667904,0.6703765
5.576317,4.6119323,-0.85723627,-0.59701407,-8.022306,7.1826053,-7.843405,0.59376204
5.568407,4.6099963,-0.85723627,-0.59701407,-8.022306,7.1826053,-7.843405,0.59376204
5.5603237,4.608056,-0.8316699,-0.56931716,-8.157595,7.1634517,-7.752425,0.5410896
5.552225,4.6060777,-0.8316699,-0.56931716,-8.157595,7.1634517,-7.752425,0.5410896
5.5440254,4.6041136,-0.80077726,-0.5416203,-8.285427,7.0102224,-7.848193,0.41180268
5.5358515,4.602118,-0.80077726,-0.5416203,-8.285427,7.0102224,-7.848193,0.41180268
5.5273333,4.6000733,-0.7688193,-0.5139234,-8.402606,6.909666,-7.843405,0.38307226
5.5192957,4.598105,-0.7688193,-0.5139234,-8.402606,6.909666,-7.843405,0.38307226
5.510945,4.5960813,-0.7357961,-0.48409602,-8.510198,6.5265937,-7.881712,0.19632454
5.5026107,4.5940185,-0.7357961,-0.48409602,-8.510198,6.5265937,-7.881712,0.19632454
5.4942126,4.5919504,-0.6995771,-0.4542686,-8.602876,6.172252,-8.058883,0.08140286
5.4858203,4.5898385,-0.6995771,-0.4542686,-8.602876,6.172252,-8.058883,0.08140286
5.4773755,4.5877166,-0.6580318,-0.42657173,-8.67851,5.827487,-8.159439,-0.17238252
5.468935,4.5855484,-0.6580318,-0.42657173,-8.67851,5.827487,-8.159439,-0.17238252
5.460452,4.583383,-0.6100949,-0.39887485,-8.731772,5.449203,-8.236053,-0.35434186
5.4519725,4.5811696,-0.6100949,-0.39887485,-8.731772,5.449203,-8.236053,-0.35434186
5.443475,4.578973,-0.55683166,-0.3733085,-8.76373,5.1379566,-8.169016,-0.48362875
5.4349713,4.576723,-0.55683166,-0.3733085,-8.76373,5.1379566,-8.169016,-0.48362875
5.4264545,4.574491,-0.4993074,-0.355199,-8.77971,4.8985367,-8.101978,-0.545878
5.4179416,4.5722065,-0.4993074,-0.355199,-8.77971,4.8985367,-8.101978,-0.545878
5.409437,4.569938,-0.43752205,-0.3413506,-8.774384,4.6255975,-7.9870567,-0.641646
5.4009366,4.567614,-0.43752205,-0.3413506,-8.774384,4.6255975,-7.9870567,-0.641646
5.392461,4.565304,-0.37254092,-0.33069792,-8.7530775,4.343082,-7.872135,-0.78529817
5.383989,4.562935,-0.37254092,-0.33069792,-8.7530775,4.343082,-7.872135,-0.78529817
5.375553,4.56054,-0.304364,-0.3285674,-8.714728,4.098873,-7.3885064,-1.340753
5.367139,4.5580897,-0.304364,-0.3285674,-8.714728,4.098873,-7.3885064,-1.340753
5.35876,4.5556746,-0.23405655,-0.33176318,-8.663595,3.8642416,-7.632715,-0.93852705
5.3504014,4.5531993,-0.23405655,-0.33176318,-8.663595,3.8642416,-7.632715,-0.93852705
5.3420877,4.5507107,-0.17014067,-0.34774217,-8.608202,4.654328,-7.4986396,-0.89064306
5.3337955,4.5481577,-0.17014067,-0.34774217,-8.608202,4.654328,-7.4986396,-0.89064306
5.325565,4.545565,-0.09876795,-0.36372113,-8.547482,4.759673,-6.8761473,-1.1971009
5.317339,4.542899,-0.09876795,-0.36372113,-8.547482,4.759673,-6.8761473,-1.1971009
5.3091784,4.5402093,-0.027395237,-0.3828959,-8.488893,4.951209,-6.622362,-1.2018893
5.301015,4.5374384,-0.027395237,-0.3828959,-8.488893,4.951209,-6.622362,-1.2018893
5.292924,4.534642,0.039716423,-0.4148538,-8.44202,5.1235914,-6.315904,-0.9528923
5.28483,4.5317583,0.039716423,-0.4148538,-8.44202,5.1235914,-6.315904,-0.9528923
5.276784,4.5288024,0.104697555,-0.45533386,-8.405802,5.7508726,-5.741296,-0.8810662
5.268745,4.525755,0.104697555,-0.45533386,-8.405802,5.7508726,-5.741296,-0.8810662
5.260729,4.522641,0.16861342,-0.5022055,-8.391953,6.4308257,-5.3821654,-0.7038953
5.252695,4.519415,0.16861342,-0.5022055,-8.391953,6.4308257,-5.3821654,-0.7038953
5.2446823,4.5160937,0.22933349,-0.5544035,-8.403671,6.871359,-5.1666875,-0.63206923
5.2367973,4.51271,0.22933349,-0.5544035,-8.403671,6.871359,-5.1666875,-0.63206923
5.228772,4.5091205,0.283662,-0.6076667,-8.438825,7.1826053,-5.0038815,-0.6560113
5.220645,4.505349,0.283662,-0.6076667,-8.438825,7.1826053,-5.0038815,-0.6560113
5.2125936,4.501449,0.33266416,-0.6577341,-8.489958,7.3549876,-4.936844,-0.641646
5.2045617,4.497407,0.33266416,-0.6577341,-8.489958,7.3549876,-4.936844,-0.641646
5.196492,4.4931054,0.3827316,-0.7120626,-8.545351,7.1873937,-4.8745947,-0.7326257
5.188449,4.4886494,0.3827316,-0.7120626,-8.545351,7.1873937,-4.8745947,-0.7326257
5.1803784,4.4839325,0.43066847,-0.7685216,-8.593288,6.9000893,-4.7261543,-0.7230489
5.17228,4.4790072,0.43066847,-0.7685216,-8.593288,6.9000893,-4.7261543,-0.7230489
5.1642165,4.473746,0.4743443,-0.82817644,-8.627377,6.4308257,-4.687847,-0.9959879
5.156233,4.4683228,0.4743443,-0.82817644,-8.627377,6.4308257,-4.687847,-0.9959879
5.1481915,4.462526,0.5148244,-0.8920923,-8.636964,6.1004257,-4.55856,-0.9864111
5.1401997,4.456519,0.5148244,-0.8920923,-8.636964,6.1004257,-4.55856,-0.9864111
5.1322556,4.450126,0.55210865,-0.9623997,-8.617789,5.81791,-4.4963107,-1.1252748
5.1243477,4.4434834,0.55210865,-0.9623997,-8.617789,5.81791,-4.4963107,-1.1252748
5.116515,4.4364376,0.5861971,-1.0369682,-8.566656,5.971139,-4.3287168,-1.1444284
5.108707,4.429096,0.5861971,-1.0369682,-8.566656,5.971139,-4.3287168,-1.1444284
5.101014,4.421361,0.618155,-1.1115367,-8.486762,5.9567738,-4.247314,-1.0630256
5.0933642,4.413311,0.618155,-1.1115367,-8.486762,5.9567738,-4.247314,-1.0630256
5.0858593,4.404818,0.6479824,-1.1839747,-8.380236,6.0764837,-4.1276035,-1.13964
5.0783863,4.395959,0.6479824,-1.1839747,-8.380236,6.0764837,-4.1276035,-1.13964
5.071094,4.3866735,0.67354876,-1.253217,-8.248142,6.0860605,-4.050989,-1.1252748
5.0638375,4.376983,0.67354876,-1.253217,-8.248142,6.0860605,-4.050989,-1.1252748
5.0567737,4.3668633,0.6969846,-1.3128718,-8.099006,6.2632318,-4.003105,-1.1204864
5.0497637,4.3563204,0.6969846,-1.3128718,-8.099006,6.2632318,-4.003105,-1.1204864
5.0429606,4.3453465,0.7204204,-1.3682655,-7.937085,6.301539,-3.9456444,-1.091756
5.036204,4.333891,0.7204204,-1.3682655,-7.937085,6.301539,-3.9456444,-1.091756
5.0296707,4.3220334,0.7417257,-1.4162024,-7.7570558,6.3781533,-3.8833952,-0.9816227
5.023201,4.309682,0.7417257,-1.4162024,-7.7570558,6.3781533,-3.8833952,-0.9816227
5.016967,4.2969456,0.763031,-1.4566824,-7.5589166,6.493075,-3.8355112,-0.8571242
5.010769,4.283613,0.763031,-1.4566824,-7.5589166,6.493075,-3.8355112,-0.8571242
5.0032578,4.2661867,0.78433627,-1.4897057,-7.3426676,6.603208,-3.8307228,-0.7613561
4.9989085,4.2555475,0.78433627,-1.4897057,-7.3426676,6.603208,-3.8307228,-0.7613561
4.993448,4.2413516,0.8045763,-1.5131415,-7.1061788,6.6415157,-3.8355112,-0.6368576
4.9879575,4.2263107,0.8045763,-1.5131415,-7.1061788,6.6415157,-3.8355112,-0.6368576
4.982769,4.21105,0.8237511,-1.5301857,-6.8505154,6.9383965,-3.691859,-0.6799533
4.9777317,4.1954303,0.8237511,-1.5301857,-6.8505154,6.9383965,-3.691859,-0.6799533
4.972911,4.179372,0.8407953,-1.5450994,-6.5841994,7.264008,-3.787627,-0.6560113
4.968081,4.1623807,0.8407953,-1.5450994,-6.5841994,7.264008,-3.787627,-0.6560113
4.963648,4.145586,0.855709,-1.5546868,-6.3072305,7.642292,-3.8019924,-0.6895301
4.9593296,4.1283126,0.855709,-1.5546868,-6.3072305,7.642292,-3.8019924,-0.6895301
4.955298,4.1109657,0.8706227,-1.5536215,-6.0185437,8.063671,-3.8067808,-0.7134721
4.951323,4.092907,0.8706227,-1.5536215,-6.0185437,8.063671,-3.8067808,-0.7134721
4.9476748,4.075106,0.88127536,-1.5387079,-5.728792,8.5473,-3.7780502,-0.7565677
4.94412,4.0567865,0.88127536,-1.5387079,-5.728792,8.5473,-3.7780502,-0.7565677
4.9408455,4.0387173,0.88979745,-1.5078151,-5.4411707,9.069236,-3.6583402,-0.8523358
4.937649,4.020091,0.88979745,-1.5078151,-5.4411707,9.069236,-3.6583402,-0.8523358
4.9347196,4.001938,0.8951238,-1.4598782,-5.162071,9.504981,-3.6008794,-0.866701
4.931856,3.9831944,0.8951238,-1.4598782,-5.162071,9.504981,-3.6008794,-0.866701
4.929228,3.9650927,0.8983196,-1.3927666,-4.9000163,9.911995,-3.3854012,-0.842759
4.9266715,3.9465,0.8983196,-1.3927666,-4.9000163,9.911995,-3.3854012,-0.842759
4.924335,3.928759,0.90151536,-1.3054149,-4.657136,10.041282,-3.3375173,-0.8810662
4.9220433,3.910391,0.90151536,-1.3054149,-4.657136,10.041282,-3.3375173,-0.8810662
4.9199185,3.8927405,0.9036459,-1.2052801,-4.432365,10.103531,-3.145981,-1.0295067
4.9178667,3.8747525,0.9036459,-1.2052801,-4.432365,10.103531,-3.145981,-1.0295067
4.915951,3.8574748,0.9068417,-1.0955578,-4.226769,10.041282,-2.906561,-1.2354081
4.9141006,3.8398633,0.9068417,-1.0955578,-4.226769,10.041282,-2.906561,-1.2354081
4.9123516,3.8229985,0.91003746,-0.98157454,-4.0382175,9.849746,-2.8299465,-1.2449849
4.9106636,3.8058298,0.91003746,-0.98157454,-4.0382175,9.849746,-2.8299465,-1.2449849
4.909056,3.7894022,0.91429853,-0.8675912,-3.8645792,9.351752,-2.7150247,-1.2210429
4.907507,3.7726994,0.91429853,-0.8675912,-3.8645792,9.351752,-2.7150247,-1.2210429
4.9060273,3.756783,0.91962487,-0.7546732,-3.690941,8.925584,-2.5570073,-1.2018893
4.904601,3.7406166,0.91962487,-0.7546732,-3.690941,8.925584,-2.5570073,-1.2018893
4.903255,3.7252476,0.92388594,-0.6460162,-3.5141072,8.432379,-2.255338,-1.3599066
4.9019575,3.7096572,0.92388594,-0.6460162,-3.5141072,8.432379,-2.255338,-1.3599066
4.900692,3.6944335,0.92388594,-0.55120766,-3.3351429,7.97748,-2.1021092,-1.3455414
4.8995457,3.679935,0.92388594,-0.55120766,-3.3351429,7.97748,-2.1021092,-1.3455414
4.898425,3.6658463,0.9185596,-0.46811703,-3.1487215,7.73806,-2.0398598,-1.2880806
4.8973455,3.651584,0.9185596,-0.46811703,-3.1487215,7.73806,-2.0398598,-1.2880806
4.8963327,3.6382782,0.90790695,-0.3967443,-2.9516475,7.417237,-1.8818425,-1.1971009
4.895357,3.6248226,0.90790695,-0.3967443,-2.9516475,7.417237,-1.8818425,-1.1971009
4.8944707,3.6123319,0.8951238,-0.33282846,-2.7428558,7.1826053,-1.70946,-1.3024458
4.8936157,3.5997179,0.8951238,-0.33282846,-2.7428558,7.1826053,-1.70946,-1.3024458
4.892846,3.5881362,0.8823406,-0.2774347,-2.5234113,7.019799,-1.4221559,-1.3359646
4.892846,3.5881362,0.8663616,-0.2294978,-2.29651,6.9719152,-1.1300632,-1.5035586
4.89188,3.5725043,0.8663616,-0.2294978,-2.29651,6.9719152,-1.1300632,-1.5035586
4.89188,3.5725043,0.8482521,-0.1847567,-2.066413,7.091625,-0.7422025,-1.5897499
4.8906302,3.550496,0.8482521,-0.1847567,-2.066413,7.091625,-0.7422025,-1.5897499
4.8899155,3.5369582,0.8482521,-0.1847567,-2.066413,7.091625,-0.7422025,-1.5897499
4.889413,3.52734,0.8280121,-0.13895033,-1.8395115,7.2352777,-0.4165911,-1.7286136
4.8889494,3.5181162,0.8280121,-0.13895033,-1.8395115,7.2352777,-0.4165911,-1.7286136
4.8884983,3.5094209,0.803511,-0.09207869,-1.6190017,7.5465236,-0.16280572,-1.9249382
4.888116,3.501757,0.803511,-0.09207869,-1.6190017,7.5465236,-0.16280572,-1.9249382
4.887716,3.4944582,0.7758142,-0.036684938,-1.4102099,7.824251,0.17238252,-2.0829554
4.8873253,3.4871063,0.7758142,-0.036684938,-1.4102099,7.824251,0.17238252,-2.0829554
4.886939,3.4807665,0.74385625,0.026165664,-1.2195276,7.929596,0.45010993,-2.15957
4.8865585,3.474368,0.74385625,0.026165664,-1.2195276,7.929596,0.45010993,-2.15957
4.8861723,3.468956,0.710833,0.09540785,-1.0458895,8.001422,0.6655881,-2.2697031
4.8857913,3.4635038,0.710833,0.09540785,-1.0458895,8.001422,0.6655881,-2.2697031
4.8853917,3.458964,0.6756793,0.16784583,-0.8860998,7.967903,0.89543146,-2.2649148
4.8849883,3.4543297,0.6756793,0.16784583,-0.8860998,7.967903,0.89543146,-2.2649148
4.8845644,3.4505923,0.6394603,0.24028382,-0.7422891,7.8912888,1.0582372,-2.2505496
4.8841476,3.4468887,0.6394603,0.24028382,-0.7422891,7.8912888,1.0582372,-2.2505496
4.883704,3.4439101,0.6021761,0.3073955,-0.61445737,7.8146744,1.2114661,-2.2601264
4.8832603,3.4409003,0.6021761,0.3073955,-0.61445737,7.8146744,1.2114661,-2.2601264
4.882794,3.438579,0.56276125,0.36598504,-0.49621302,7.771579,1.364695,-2.2936451
4.882328,3.4362326,0.56276125,0.36598504,-0.49621302,7.771579,1.364695,-2.2936451
4.8818483,3.4345078,0.5222812,0.41392192,-0.39075184,7.795521,1.3934253,-2.3080103
4.881369,3.4327717,0.5222812,0.41392192,-0.39075184,7.795521,1.3934253,-2.3080103
4.8808813,3.4315903,0.48286644,0.45227146,-0.29487804,7.905654,1.3599066,-2.2936451
4.8803945,3.4304025,0.48286644,0.45227146,-0.29487804,7.905654,1.3599066,-2.2936451
4.8799047,3.4296973,0.44451693,0.48209885,-0.2117874,8.078036,1.3599066,-2.3702598
4.879414,3.4289849,0.44451693,0.48209885,-0.2117874,8.078036,1.3599066,-2.3702598
4.8789186,3.4286644,0.4061674,0.5076652,-0.14254521,8.279149,1.3455414,-2.3654714
4.878424,3.428342,0.4061674,0.5076652,-0.14254521,8.279149,1.3455414,-2.3654714
4.87792,3.4283142,0.37101367,0.5321663,-0.092477776,8.485051,1.3072342,-2.3942018
4.8774157,3.428286,0.37101367,0.5321663,-0.092477776,8.485051,1.3072342,-2.3942018
4.8768945,3.42842,0.33799046,0.55347157,-0.060519844,8.690952,1.388637,-2.327164
4.876372,3.4285553,0.33799046,0.55347157,-0.060519844,8.690952,1.388637,-2.327164
4.8758297,3.4287684,0.3070978,0.5747769,-0.046671405,8.576031,1.3694834,-2.2409728
4.875289,3.4289827,0.3070978,0.5747769,-0.046671405,8.576031,1.3694834,-2.2409728
4.874728,3.4291997,0.27940091,0.59395164,-0.04773667,8.279149,1.3215994,-2.1739352
4.8741693,3.4294178,0.27940091,0.59395164,-0.04773667,8.279149,1.3215994,-2.1739352
4.873601,3.429542,0.25276932,0.6014085,-0.062650375,7.8386164,1.2018893,-2.0590134
4.873034,3.4296663,0.25276932,0.6014085,-0.062650375,7.8386164,1.2018893,-2.0590134
4.8724747,3.4296284,0.23039876,0.5907558,-0.08502093,7.455544,1.0726024,-1.9632454
4.871912,3.42959,0.23039876,0.5907558,-0.08502093,7.455544,1.0726024,-1.9632454
4.8713818,3.4293675,0.211224,0.55986315,-0.108456746,7.1395097,0.94331545,-1.9488802
4.8708525,3.4291449,0.211224,0.55986315,-0.108456746,7.1395097,0.94331545,-1.9488802
4.870361,3.4286976,0.19737557,0.51299155,-0.12869677,6.919243,0.8475474,-1.8243817
4.86987,3.4282491,0.19737557,0.51299155,-0.12869677,6.919243,0.8475474,-1.8243817
4.8694334,3.4275894,0.18672292,0.45227146,-0.14467573,6.8569937,0.82360536,-1.8195933
4.868999,3.4269261,0.18672292,0.45227146,-0.14467573,6.8569937,0.82360536,-1.8195933
4.868625,3.4260762,0.17926607,0.3851598,-0.15426312,6.9144545,0.770933,-1.7908629
4.868252,3.425223,0.17926607,0.3851598,-0.15426312,6.9144545,0.770933,-1.7908629
4.8679476,3.4242213,0.17180921,0.31485233,-0.15745892,7.019799,0.7134721,-1.7908629
4.8676434,3.4232168,0.17180921,0.31485233,-0.15745892,7.019799,0.7134721,-1.7908629
4.867406,3.4220965,0.1632871,0.2466754,-0.15532838,7.1826053,0.6703765,-1.7908629
4.867167,3.4209695,0.1632871,0.2466754,-0.15532838,7.1826053,0.6703765,-1.7908629
4.866993,3.4197679,0.15583025,0.18169427,-0.14680627,7.3071036,0.6703765,-1.7956513
4.866821,3.4185603,0.15583025,0.18169427,-0.14680627,7.3071036,0.6703765,-1.7956513
4.866709,3.4173212,0.1483734,0.1209742,-0.1308273,7.393295,0.60333884,-1.7621324
4.866596,3.4160779,0.1483734,0.1209742,-0.1308273,7.393295,0.60333884,-1.7621324
4.866596,3.4160779,0.1483734,0.1209742,-0.1308273,7.393295,0.60333884,-1.7621324
4.866493,3.4136255,0.13985129,0.06451519,-0.11058728,7.5321584,0.5746084,-1.7525556
4.866493,3.4124765,0.12919864,0.013382491,-0.08395566,7.728483,0.59855044,-1.7238252
4.866493,3.4113503,0.12919864,0.013382491,-0.08395566,7.728483,0.59855044,-1.7238252
4.866541,3.4102867,0.11748073,-0.03242388,-0.050932467,8.0684595,0.5315128,-1.685518
4.8665876,3.4092174,0.11748073,-0.03242388,-0.050932467,8.0684595,0.5315128,-1.685518
4.866683,3.4082913,0.105762824,-0.07396919,-0.012582945,8.307879,0.48841715,-1.6807296
4.8667784,3.4073668,0.105762824,-0.07396919,-0.012582945,8.307879,0.48841715,-1.6807296
4.866919,3.4066184,0.09297965,-0.109122925,0.025766576,8.576031,0.34476504,-1.661576
4.86706,3.4058702,0.09297965,-0.109122925,0.025766576,8.576031,0.34476504,-1.661576
4.8672376,3.4053009,0.08445753,-0.13895033,0.06624663,8.815451,0.22505496,-1.6136919
4.8674126,3.4047346,0.08445753,-0.13895033,0.06624663,8.815451,0.22505496,-1.6136919
4.867613,3.4043634,0.07806595,-0.16451667,0.11098773,9.107543,0.20111294,-1.5897499
4.867813,3.4039922,0.07806595,-0.16451667,0.11098773,9.107543,0.20111294,-1.5897499
4.86802,3.403847,0.07273962,-0.1847567,0.15892464,9.370906,0.110133275,-1.5035586
4.868228,3.4037025,0.07273962,-0.1847567,0.15892464,9.370906,0.110133275,-1.5035586
4.868454,3.4038458,0.06634804,-0.19753987,0.21005733,9.595961,-0.047884032,-1.4987702
4.8686786,3.4039886,0.06634804,-0.19753987,0.21005733,9.595961,-0.047884032,-1.4987702
4.868863,3.4047236,0.058891185,-0.20180093,0.2707774,9.797073,-0.07182605,-1.3455414
4.869048,3.405459,0.058891185,-0.20180093,0.2707774,9.797073,-0.07182605,-1.3455414
4.8692293,3.4068031,0.05036907,-0.19860514,0.333628,9.940725,-0.20111294,-1.3311762
4.869412,3.4081426,0.05036907,-0.19860514,0.333628,9.940725,-0.20111294,-1.3311762
4.869598,3.4102144,0.040781688,-0.18901776,0.39860913,10.036493,-0.35913026,-1.3838485
4.869784,3.4122827,0.040781688,-0.18901776,0.39860913,10.036493,-0.35913026,-1.3838485
4.8699865,3.4151618,0.033324838,-0.17197353,0.46678606,10.127473,-0.45010993,-1.4556746
4.870188,3.4179983,0.033324838,-0.17197353,0.46678606,10.127473,-0.45010993,-1.4556746
4.8704004,3.4214041,0.02906378,-0.1517335,0.5381588,10.199299,-0.5315128,-1.3359646
4.8706126,3.4247901,0.02906378,-0.1517335,0.5381588,10.199299,-0.5315128,-1.3359646
4.8708477,3.4289052,0.024802722,-0.124036625,0.6127273,10.28549,-0.61770403,-1.4030021
4.871083,3.4329865,0.024802722,-0.124036625,0.6127273,10.28549,-0.61770403,-1.4030021
4.871304,3.4374886,0.022672193,-0.093143955,0.68836105,10.376471,-0.63206923,-1.3599066
4.8715267,3.4419467,0.022672193,-0.093143955,0.68836105,10.376471,-0.63206923,-1.3599066
4.871763,3.44717,0.019476399,-0.060120758,0.7639949,10.477027,-0.7086837,-1.3790601
4.871987,3.4520435,0.019476399,-0.060120758,0.7639949,10.477027,-0.7086837,-1.3790601
4.872202,3.457451,0.016280606,-0.027097559,0.8364328,10.6158905,-0.6751649,-1.3694834
4.8724184,3.4628134,0.016280606,-0.027097559,0.8364328,10.6158905,-0.6751649,-1.3694834
4.872627,3.468628,0.017345872,0.0069909045,0.905675,10.769119,-0.6512229,-1.4508862
4.8728395,3.4744108,0.017345872,0.0069909045,0.905675,10.769119,-0.6512229,-1.4508862
4.8730326,3.4804485,0.016280606,0.04107937,0.9717214,10.941502,-0.60812724,-1.412579
4.873229,3.486448,0.016280606,0.04107937,0.9717214,10.941502,-0.60812724,-1.412579
4.8734074,3.4926395,0.017345872,0.0762331,1.0271151,11.046846,-0.5554548,-1.484405
4.8735924,3.498802,0.017345872,0.0762331,1.0271151,11.046846,-0.5554548,-1.484405
4.873762,3.5051198,0.02160693,0.11032156,1.070791,11.042058,-0.48362875,-1.4269443
4.8739376,3.5113797,0.02160693,0.11032156,1.070791,11.042058,-0.48362875,-1.4269443
4.8741007,3.5177827,0.024802722,0.14441001,1.10701,10.998962,-0.4165911,-1.4269443
4.8742723,3.5241513,0.024802722,0.14441001,1.10701,10.998962,-0.4165911,-1.4269443
4.8744354,3.5306387,0.02906378,0.17423743,1.1325763,10.91756,-0.41180268,-1.4556746
4.8746037,3.5370784,0.02906378,0.17423743,1.1325763,10.91756,-0.41180268,-1.4556746
4.874776,3.543617,0.033324838,0.19980377,1.1549469,10.831368,-0.3878607,-1.4987702
4.874951,3.549989,0.033324838,0.19980377,1.1549469,10.831368,-0.3878607,-1.4987702
4.875142,3.5564375,0.03865116,0.22110906,1.1773175,10.7356,-0.45010993,-1.5658079
4.87534,3.562859,0.03865116,0.22110906,1.1773175,10.7356,-0.45010993,-1.5658079
4.8755484,3.5694058,0.043977484,0.23602276,1.2018186,10.649409,-0.47884035,-1.5705963
4.8757677,3.5759416,0.043977484,0.23602276,1.2018186,10.649409,-0.47884035,-1.5705963
4.8759823,3.5827131,0.05036907,0.24561015,1.231646,10.572795,-0.47884035,-1.5227122
4.8762093,3.5894687,0.05036907,0.24561015,1.231646,10.572795,-0.47884035,-1.5227122
4.876461,3.5963693,0.055695392,0.25200173,1.2689302,10.477027,-0.50278234,-1.532289
4.8767242,3.6032407,0.055695392,0.25200173,1.2689302,10.477027,-0.50278234,-1.532289
4.8770695,3.6102607,0.058891185,0.25519753,1.3136714,10.357317,-0.49320555,-1.6328455
4.8774204,3.6172423,0.058891185,0.25519753,1.3136714,10.357317,-0.49320555,-1.6328455
4.8778234,3.6245298,0.05782592,0.26265436,1.3658693,10.266336,-0.50757074,-1.6807296
4.8782334,3.6317768,0.05782592,0.26265436,1.3658693,10.266336,-0.50757074,-1.6807296
4.878685,3.6393566,0.0524996,0.27330703,1.4244589,10.127473,-0.48362875,-1.7286136
4.879145,3.6468894,0.0524996,0.27330703,1.4244589,10.127473,-0.48362875,-1.7286136
4.879646,3.654799,0.045042746,0.28822073,1.4915705,9.969456,-0.47884035,-1.7669208
4.8801556,3.6626546,0.045042746,0.28822073,1.4915705,9.969456,-0.47884035,-1.7669208
4.880701,3.6709125,0.03545537,0.30846074,1.5672042,9.864111,-0.45968673,-1.8004397
4.8812566,3.6791098,0.03545537,0.30846074,1.5672042,9.864111,-0.45968673,-1.8004397
4.8818626,3.6877763,0.024802722,0.3308313,1.6481644,9.653421,-0.4357447,-1.934515
4.88248,3.6963725,0.024802722,0.3308313,1.6481644,9.653421,-0.4357447,-1.934515
4.883136,3.7054052,0.012019549,0.3574629,1.7333854,9.452309,-0.46447513,-1.8914193
4.8838043,3.714369,0.012019549,0.3574629,1.7333854,9.452309,-0.46447513,-1.8914193
4.884514,3.7237575,-0.0018288894,0.38622504,1.8218025,9.232041,-0.4261679,-1.9393034
4.8852377,3.73308,-0.0018288894,0.38622504,1.8218025,9.232041,-0.4261679,-1.9393034
4.886008,3.7428427,-0.017807856,0.4171177,1.9134152,9.021352,-0.45010993,-1.9488802
4.8867936,3.7525206,-0.017807856,0.4171177,1.9134152,9.021352,-0.45010993,-1.9488802
4.8876276,3.76262,-0.033786822,0.4448146,2.0071585,8.848969,-0.4357447,-1.9632454
4.888481,3.7726178,-0.033786822,0.4448146,2.0071585,8.848969,-0.4357447,-1.9632454
4.8893824,3.7829828,-0.050831053,0.46825042,2.0998366,8.714894,-0.4261679,-1.8770541
4.890302,3.7932463,-0.050831053,0.46825042,2.0998366,8.714894,-0.4261679,-1.8770541
4.891292,3.8038507,-0.06894055,0.48529464,2.1925144,8.690952,-0.50757074,-1.9249382
4.8923,3.8143196,-0.06894055,0.48529464,2.1925144,8.690952,-0.50757074,-1.9249382
4.893383,3.8251185,-0.08598478,0.4980778,2.2809315,8.619126,-0.5602432,-1.9680338
4.8944855,3.8357797,-0.08598478,0.4980778,2.2809315,8.619126,-0.5602432,-1.9680338
4.895666,3.8466964,-0.10089848,0.50340414,2.3672178,8.599973,-0.62249243,-1.9728222
4.896866,3.8574433,-0.10089848,0.50340414,2.3672178,8.599973,-0.62249243,-1.9728222
4.89815,3.868375,-0.11687745,0.5002083,2.4471128,8.528147,-0.6847417,-2.006341
4.899455,3.8791456,-0.11687745,0.5002083,2.4471128,8.528147,-0.6847417,-2.006341
4.900843,3.8900218,-0.13392168,0.49168622,2.5216813,8.465898,-0.7565677,-1.982399
4.9022536,3.9007292,-0.13392168,0.49168622,2.5216813,8.465898,-0.7565677,-1.982399
4.903747,3.911473,-0.14883539,0.47570726,2.5930538,8.413225,-0.78050977,-1.9967642
4.903747,3.911473,-0.14883539,0.47570726,2.5930538,8.413225,-0.78050977,-1.9967642
4.903747,3.911473,-0.16481435,0.45227146,2.6612308,8.394072,-0.8283938,-2.0446482
4.907978,3.9394064,-0.16481435,0.45227146,2.6612308,8.394072,-0.8283938,-2.0446482
4.907978,3.9394064,-0.16481435,0.45227146,2.6612308,8.394072,-0.8283938,-2.0446482
4.9128513,3.9673498,-0.19677228,0.38835558,2.7922583,8.317456,-0.7469909,-1.9919758
4.914198,3.9746885,-0.19677228,0.38835558,2.7922583,8.317456,-0.7469909,-1.9919758
4.9159956,3.9842432,-0.19677228,0.38835558,2.7922583,8.317456,-0.7469909,-1.9919758
4.9197474,4.002741,-0.21275125,0.35000607,2.8561742,8.341399,-0.7230489,-2.0207062
4.9197474,4.002741,-0.21275125,0.35000607,2.8561742,8.341399,-0.7230489,-2.0207062
4.92204,4.0132046,-0.22979549,0.309526,2.919025,8.341399,-0.6895301,-2.0446482
4.9238935,4.0214205,-0.22979549,0.309526,2.919025,8.341399,-0.6895301,-2.0446482
4.925957,4.030021,-0.24790499,0.2679807,2.988267,8.317456,-0.7182605,-2.078167
4.9281106,4.0387545,-0.24790499,0.2679807,2.988267,8.317456,-0.7182605,-2.078167
4.930375,4.0473895,-0.268145,0.22750065,3.0628355,8.346188,-0.7517793,-2.087744
4.9326506,4.05583,-0.268145,0.22750065,3.0628355,8.346188,-0.7517793,-2.087744
4.9350305,4.0641584,-0.28731975,0.18915112,3.1427305,8.374918,-0.79487497,-2.0494366
4.937429,4.072318,-0.28731975,0.18915112,3.1427305,8.374918,-0.79487497,-2.0494366
4.939933,4.0803556,-0.3075598,0.15186687,3.2268863,8.37013,-0.866701,-2.0494366
4.942466,4.0882626,-0.3075598,0.15186687,3.2268863,8.37013,-0.866701,-2.0494366
4.945106,4.0960493,-0.32779983,0.118843675,3.3195643,8.355764,-1.0295067,-2.1164744
4.947757,4.1036444,-0.32779983,0.118843675,3.3195643,8.355764,-1.0295067,-2.1164744
4.9505296,4.1111946,-0.3459093,0.087951005,3.418634,8.336611,-1.1300632,-2.087744
4.953312,4.118553,-0.3459093,0.087951005,3.418634,8.336611,-1.1300632,-2.087744
4.956235,4.125895,-0.36827987,0.05918886,3.524095,8.384495,-1.3551182,-2.1452048
4.9591637,4.1330376,-0.36827987,0.05918886,3.524095,8.384495,-1.3551182,-2.1452048
4.9622297,4.140171,-0.38851988,0.033622514,3.6370132,8.437167,-1.5035586,-2.1547816
4.965315,4.1471395,-0.38851988,0.033622514,3.6370132,8.437167,-1.5035586,-2.1547816
4.968522,4.154055,-0.40769464,0.008056169,3.7573879,8.441956,-1.7477672,-2.0829554
4.9717383,4.1607857,-0.40769464,0.008056169,3.7573879,8.441956,-1.7477672,-2.0829554
4.9751225,4.1675706,-0.4236736,-0.014314385,3.886285,8.470686,-1.8914193,-2.1499932
4.9785104,4.174156,-0.4236736,-0.014314385,3.886285,8.470686,-1.8914193,-2.1499932
4.982049,4.1807694,-0.4385873,-0.033489145,4.0247693,8.513782,-2.0925324,-2.2266076
4.985597,4.1871953,-0.4385873,-0.033489145,4.0247693,8.513782,-2.0925324,-2.2266076
4.989308,4.193678,-0.45243576,-0.04946811,4.172841,8.485051,-2.2936451,-2.2026656
4.993026,4.1999664,-0.45243576,-0.04946811,4.172841,8.485051,-2.2936451,-2.2026656
4.996922,4.2063546,-0.46734947,-0.060120758,4.329435,8.461109,-2.5378537,-2.1452048
5.000825,4.2125473,-0.46734947,-0.060120758,4.329435,8.461109,-2.5378537,-2.1452048
5.0048966,4.218811,-0.48013264,-0.06757761,4.4966817,8.504205,-2.7246015,-2.255338
5.0089746,4.2248793,-0.48013264,-0.06757761,4.4966817,8.504205,-2.7246015,-2.255338
5.0132365,4.2310457,-0.4929158,-0.0707734,4.671385,8.532935,-2.9161377,-2.303222
5.0174913,4.236997,-0.4929158,-0.0707734,4.671385,8.532935,-2.9161377,-2.303222
5.0218225,4.242908,-0.50676423,-0.06757761,4.85248,8.451532,-3.098097,-2.3702598
5.026408,4.248956,-0.50676423,-0.06757761,4.85248,8.451532,-3.098097,-2.3702598
5.0310583,4.254962,-0.5195474,-0.059055492,5.0399666,8.317456,-3.3039982,-2.2984335
5.0357842,4.2608566,-0.5195474,-0.059055492,5.0399666,8.317456,-3.3039982,-2.2984335
5.040559,4.266691,-0.52806956,-0.045207053,5.2306485,8.255207,-3.3997664,-2.2840683
5.0454016,4.272408,-0.52806956,-0.045207053,5.2306485,8.255207,-3.3997664,-2.2840683
5.0504375,4.278231,-0.5333958,-0.031358615,5.426657,8.231265,-3.5482068,-2.3127987
5.0554795,4.2838593,-0.5333958,-0.031358615,5.426657,8.231265,-3.5482068,-2.3127987
5.0607176,4.289598,-0.53446114,-0.015379649,5.6247964,8.09719,-3.667917,-2.27928
5.0659666,4.295147,-0.53446114,-0.015379649,5.6247964,8.09719,-3.667917,-2.27928
5.0714083,4.3007855,-0.5312653,-0.00046594674,5.8229356,7.9583263,-3.7780502,-2.2649148
5.07686,4.3062363,-0.5312653,-0.00046594674,5.8229356,7.9583263,-3.7780502,-2.2649148
5.0825033,4.311756,-0.52806956,0.014447756,6.021075,7.5944076,-3.916914,-2.3750482
5.0881577,4.317091,-0.52806956,0.014447756,6.021075,7.5944076,-3.916914,-2.3750482
5.0940075,4.3224764,-0.52061266,0.02723093,6.2224097,7.4842744,-3.9600096,-2.4947581
5.0998626,4.327676,-0.52061266,0.02723093,6.2224097,7.4842744,-3.9600096,-2.4947581
5.1059175,4.3329344,-0.51209056,0.040014103,6.42481,7.2831616,-4.1706996,-2.5953147
5.1119766,4.3380103,-0.51209056,0.040014103,6.42481,7.2831616,-4.1706996,-2.5953147
5.1182427,4.343132,-0.5035685,0.050666746,6.62508,7.3071036,-4.213795,-2.5570073
5.1245127,4.3480735,-0.5035685,0.050666746,6.62508,7.3071036,-4.213795,-2.5570073
5.1309795,4.3530493,-0.49185053,0.05918886,6.8210883,7.2113357,-4.4244847,-2.60968
5.1374564,4.3578544,-0.49185053,0.05918886,6.8210883,7.2113357,-4.4244847,-2.60968
5.144123,4.362676,-0.47693685,0.06664571,7.012836,7.086837,-4.477157,-2.60968
5.150792,4.3673286,-0.47693685,0.06664571,7.012836,7.086837,-4.477157,-2.60968
5.1576567,4.3719993,-0.45882735,0.074102566,7.201388,6.847417,-4.5537715,-2.6431987
5.1645308,4.3765106,-0.45882735,0.074102566,7.201388,6.847417,-4.5537715,-2.6431987
5.171592,4.3810234,-0.4396526,0.07942889,7.385679,6.8761473,-4.5920787,-2.6671407
5.178648,4.3853736,-0.4396526,0.07942889,7.385679,6.8761473,-4.5920787,-2.6671407
5.1858997,4.389735,-0.4215431,0.085820474,7.5635777,6.727707,-4.6782703,-2.6240451
5.193145,4.393939,-0.4215431,0.085820474,7.5635777,6.727707,-4.6782703,-2.6240451
5.2005754,4.398141,-0.40130305,0.09221206,7.737216,6.8809357,-4.7644615,-2.6719291
5.207998,4.4021907,-0.40130305,0.09221206,7.737216,6.8809357,-4.7644615,-2.6719291
5.2156014,4.406245,-0.38106304,0.09860365,7.903397,6.742072,-4.951209,-2.6384103
5.2232122,4.4101615,-0.38106304,0.09860365,7.903397,6.742072,-4.951209,-2.6384103
5.23098,4.4140606,-0.3576272,0.104995236,8.064252,6.8905125,-4.9943047,-2.657564
5.2387543,4.4178257,-0.3576272,0.104995236,8.064252,6.8905125,-4.9943047,-2.657564
5.2466927,4.4215937,-0.32993034,0.11032156,8.218716,6.8330517,-5.2145715,-2.585738
5.254653,4.4252405,-0.32993034,0.11032156,8.218716,6.8330517,-5.2145715,-2.585738
5.2627335,4.4288692,-0.29903767,0.118843675,8.361461,6.9000893,-5.439626,-2.6862943
5.2708282,4.432379,-0.29903767,0.118843675,8.361461,6.9000893,-5.439626,-2.6862943
5.2790704,4.4359083,-0.2628187,0.12843105,8.492489,6.7947445,-5.770026,-2.5139117
5.2873187,4.439321,-0.2628187,0.12843105,8.492489,6.7947445,-5.770026,-2.5139117
5.2956944,4.4427385,-0.22446916,0.13695318,8.610733,6.9958572,-6.133945,-2.456451
5.3040667,4.446039,-0.22446916,0.13695318,8.610733,6.9958572,-6.133945,-2.456451
5.312582,4.4493856,-0.18079332,0.14654055,8.715129,6.4308257,-6.6606693,-2.2649148
5.321095,4.4526215,-0.18079332,0.14654055,8.715129,6.4308257,-6.6606693,-2.2649148
5.329713,4.455876,-0.12966062,0.15186687,8.811003,6.579266,-7.062895,-2.0925324
5.3383374,4.4590282,-0.12966062,0.15186687,8.811003,6.579266,-7.062895,-2.0925324
5.3470635,4.4622207,-0.06467949,0.15186687,8.904746,6.7324953,-7.551312,-1.7956513
5.355797,4.4653163,-0.06467949,0.15186687,8.904746,6.7324953,-7.551312,-1.7956513
5.3646207,4.468443,0.0141500775,0.14867108,8.992098,6.8905125,-8.054094,-1.6472107
5.3734436,4.4714756,0.0141500775,0.14867108,8.992098,6.8905125,-8.054094,-1.6472107
5.382347,4.4745703,0.10895862,0.14547528,9.066666,7.2592196,-8.446744,-1.3263878
5.3912573,4.477578,0.10895862,0.14547528,9.066666,7.2592196,-8.446744,-1.3263878
5.4002275,4.480638,0.21868086,0.14547528,9.116734,7.350199,-8.992621,-1.1923125
5.4091854,4.48361,0.21868086,0.14547528,9.116734,7.350199,-8.992621,-1.1923125
5.418184,4.486651,0.3465126,0.15506266,9.14443,7.249643,-9.399636,-1.1444284
5.427197,4.4896164,0.3465126,0.15506266,9.14443,7.249643,-9.399636,-1.1444284
5.436214,4.492672,0.49351907,0.16997637,9.156148,7.1730285,-9.753978,-1.043872
5.4452367,4.495652,0.49351907,0.16997637,9.156148,7.1730285,-9.753978,-1.043872
5.454259,4.4987445,0.65543926,0.19021639,9.156148,6.8905125,-10.132261,-0.8810662
5.4632874,4.5017653,0.65543926,0.19021639,9.156148,6.8905125,-10.132261,-0.8810662
5.4722996,4.5049224,0.82694685,0.21791327,9.146561,6.564901,-10.462662,-0.49799395
5.481317,4.50801,0.82694685,0.21791327,9.146561,6.564901,-10.462662,-0.49799395
5.4903297,4.5112324,1.0059112,0.25519753,9.135908,5.6120086,-10.702082,-0.47405192
5.4993396,4.5143843,1.0059112,0.25519753,9.135908,5.6120086,-10.702082,-0.47405192
5.510937,4.51865,1.1827452,0.30846074,9.136973,5.473145,-10.970232,-0.16759412
5.5178356,4.5211344,1.1827452,0.30846074,9.136973,5.473145,-10.970232,-0.16759412
5.5264926,4.5244184,1.3489264,0.3638545,9.138039,5.6359506,-10.931925,0.01436521
5.53539,4.52773,1.3489264,0.3638545,9.138039,5.6359506,-10.931925,0.01436521
5.5443716,4.5312138,1.5044551,0.41072613,9.126321,5.741296,-10.893618,0.023942016
5.5534043,4.534653,1.5044551,0.41072613,9.126321,5.741296,-10.893618,0.023942016
5.562384,4.5381947,1.6397437,0.4597283,9.10182,5.3678,-10.821792,0.15322891
5.57137,4.5416765,1.6397437,0.4597283,9.10182,5.3678,-10.821792,0.15322891
5.580325,4.545259,1.7558575,0.5183178,9.073057,4.841076,-10.82658,0.33997664
5.589305,4.548791,1.7558575,0.5183178,9.073057,4.841076,-10.82658,0.33997664
5.5982466,4.552399,1.8549271,0.58436424,9.049622,4.060566,-10.812215,0.31603462
5.607187,4.555948,1.8549271,0.58436424,9.049622,4.060566,-10.812215,0.31603462
5.6161222,4.5595765,1.939083,0.65680224,9.034708,3.4763808,-10.697293,0.22505496
5.625074,4.563154,1.939083,0.65680224,9.034708,3.4763808,-10.697293,0.22505496
5.634,4.566792,2.0136514,0.7271097,9.026186,3.0358477,-10.721235,0.16759412
5.642942,4.570381,2.0136514,0.7271097,9.026186,3.0358477,-10.721235,0.16759412
5.6518984,4.574025,2.0818284,0.78996027,9.026186,2.8395233,-10.817003,-0.11492168
5.660845,4.577611,2.0818284,0.78996027,9.026186,2.8395233,-10.817003,-0.11492168
5.669805,4.581241,2.1425486,0.845354,9.026186,2.9831753,-10.898406,-0.4165911
5.6787734,4.5848207,2.1425486,0.845354,9.026186,2.9831753,-10.898406,-0.4165911
5.6877337,4.5884376,2.196877,0.8943562,9.015533,3.265691,-11.224017,-0.49799395
5.696701,4.5920057,2.196877,0.8943562,9.015533,3.265691,-11.224017,-0.49799395
5.7056503,4.595597,2.244814,0.9390973,8.992098,3.3183637,-11.391612,-0.63206923
5.7146063,4.599141,2.244814,0.9390973,8.992098,3.3183637,-11.391612,-0.63206923
5.723526,4.6027064,2.2884896,0.9827731,8.951617,3.490746,-11.659762,-0.7086837
5.732132,4.6061006,2.2884896,0.9827731,8.951617,3.490746,-11.659762,-0.7086837
5.741006,4.609633,2.325774,1.0126005,8.895159,3.691859,-11.803414,-0.6847417
5.7502155,4.6132507,2.325774,1.0126005,8.895159,3.691859,-11.803414,-0.6847417
5.7590322,4.6167397,2.3566666,1.0232532,8.817394,3.8355112,-11.975797,-0.5793968
5.7677937,4.6201644,2.3566666,1.0232532,8.817394,3.8355112,-11.975797,-0.5793968
5.7765207,4.6236033,2.377972,1.0126005,8.722586,4.1419687,-11.999739,-0.2873042
5.78528,4.627015,2.377972,1.0126005,8.722586,4.1419687,-11.999739,-0.2873042
5.793888,4.630374,2.3928857,0.98383844,8.608603,4.2999864,-12.0571995,-0.24420857
5.8025184,4.633705,2.3928857,0.98383844,8.608603,4.2999864,-12.0571995,-0.24420857
5.8111925,4.637076,2.398212,0.93803203,8.47864,4.745308,-12.047623,0.009576807
5.8194366,4.64025,2.398212,0.93803203,8.47864,4.745308,-12.047623,0.009576807
5.827748,4.643471,2.3960814,0.87092036,8.331634,5.2624555,-11.9135475,0.17238252
5.836065,4.646668,2.3960814,0.87092036,8.331634,5.2624555,-11.9135475,0.17238252
5.8441567,4.649788,2.3886247,0.7931561,8.166517,5.6886234,-11.7268,0.18674773
5.852225,4.6528764,2.3886247,0.7931561,8.166517,5.6886234,-11.7268,0.18674773
5.8600917,4.655881,2.3747761,0.71965283,7.9854226,6.220136,-11.45865,0.48841715
5.867955,4.658861,2.3747761,0.71965283,7.9854226,6.220136,-11.45865,0.48841715
5.875604,4.66175,2.3364265,0.59821266,7.59234,6.339846,-10.644621,0.11492168
5.898555,4.670344,2.3364265,0.59821266,7.59234,6.339846,-10.644621,0.11492168
5.898555,4.670344,2.3364265,0.59821266,7.59234,6.339846,-10.644621,0.11492168
5.898555,4.670344,2.3364265,0.59821266,7.59234,6.339846,-10.644621,0.11492168
5.905468,4.672917,2.3076644,0.55773264,7.391005,6.26802,-10.328587,0.18674773
5.9125767,4.675545,2.3076644,0.55773264,7.391005,6.26802,-10.328587,0.18674773
5.9125767,4.675545,2.3076644,0.55773264,7.391005,6.26802,-10.328587,0.18674773
5.9125767,4.675545,2.3076644,0.55773264,7.391005,6.26802,-10.328587,0.18674773
5.9358745,4.684158,2.2320306,0.5204484,6.9904656,6.349423,-9.615114,0.22505496
5.940363,4.6858063,2.2320306,0.5204484,6.9904656,6.349423,-9.615114,0.22505496
5.947007,4.6882586,2.1830285,0.52364415,6.791261,6.435614,-9.26556,0.23942018
5.953645,4.6906953,2.1830285,0.52364415,6.791261,6.435614,-9.26556,0.23942018
5.9600863,4.693067,2.1223085,0.5406884,6.585665,6.5601125,-8.959103,0.29209262
5.966522,4.695425,2.1223085,0.5406884,6.585665,6.5601125,-8.959103,0.29209262
5.972759,4.697711,2.04774,0.56732,6.372612,6.493075,-8.7532015,0.33997664
5.9789844,4.699983,2.04774,0.56732,6.372612,6.493075,-8.7532015,0.33997664
5.985017,4.702181,1.9625188,0.6014085,6.1531677,6.26802,-8.576031,0.39743748
5.991044,4.704367,1.9625188,0.6014085,6.1531677,6.26802,-8.576031,0.39743748
5.9968276,4.7064543,1.8698407,0.6376275,5.932658,5.8562174,-8.42759,0.37349546
6.002607,4.70853,1.8698407,0.6376275,5.932658,5.8562174,-8.42759,0.37349546
6.008639,4.710672,1.7729017,0.67065066,5.7174745,5.3486466,-8.192958,0.22505496
6.013874,4.7125225,1.7729017,0.67065066,5.7174745,5.3486466,-8.192958,0.22505496
6.0192065,4.7143764,1.6717016,0.6994128,5.5118785,4.8362875,-8.015787,0.14844051
6.024562,4.7162313,1.6717016,0.6994128,5.5118785,4.8362875,-8.015787,0.14844051
6.029753,4.7179813,1.5683709,0.7207181,5.3222613,4.31914,-7.747637,0
6.034936,4.719721,1.5683709,0.7207181,5.3222613,4.31914,-7.747637,0
6.0399604,4.721345,1.4650402,0.7366971,5.1528845,3.7588966,-7.513005,-0.15801731
6.0449815,4.7229614,1.4650402,0.7366971,5.1528845,3.7588966,-7.513005,-0.15801731
6.049858,4.7244577,1.3627748,0.7505455,5.0037475,3.3087866,-7.3310456,-0.272939
6.054736,4.7259493,1.3627748,0.7505455,5.0037475,3.3087866,-7.3310456,-0.272939
6.059477,4.727375,1.26264,0.7643939,4.873785,3.4811692,-7.4363904,0.15801731
6.064228,4.7287974,1.26264,0.7643939,4.873785,3.4811692,-7.4363904,0.15801731
6.0688725,4.730155,1.1742231,0.7867645,4.760867,4.036624,-7.2544312,0.61291564
6.073517,4.7315063,1.1742231,0.7867645,4.760867,4.036624,-7.2544312,0.61291564
6.078053,4.7327414,1.0964588,0.825114,4.659667,3.5051112,-7.2544312,-0.076614454
6.0825896,4.7339706,1.0964588,0.825114,4.659667,3.5051112,-7.2544312,-0.076614454
6.087036,4.7350883,1.0165639,0.87518144,4.568054,3.2848446,-7.0341644,-0.56982
6.0915055,4.7362075,1.0165639,0.87518144,4.568054,3.2848446,-7.0341644,-0.56982
6.0958853,4.737245,0.92814696,0.92524886,4.482833,3.265691,-6.95755,-0.521936
6.1002617,4.738278,0.92814696,0.92524886,4.482833,3.265691,-6.95755,-0.521936
6.1045475,4.7392244,0.8322732,0.9785121,4.3922853,3.1411927,-6.9767036,-0.4165911
6.108834,4.740166,0.8322732,0.9785121,4.3922853,3.1411927,-6.9767036,-0.4165911
6.114461,4.7413225,0.7289425,1.0349711,4.2932158,3.1651347,-6.9000893,-0.18674773
6.1172314,4.741889,0.7289425,1.0349711,4.2932158,3.1651347,-6.9000893,-0.18674773
6.121261,4.7426577,0.6192203,1.0903648,4.1792326,3.0454245,-6.9000893,0.17238252
6.125333,4.743429,0.6192203,1.0903648,4.1792326,3.0454245,-6.9000893,0.17238252
6.129283,4.7441154,0.50630224,1.139367,4.050336,2.7964275,-6.9958572,0.46926352
6.133233,4.744796,0.50630224,1.139367,4.050336,2.7964275,-6.9958572,0.46926352
6.1370425,4.7453756,0.39018843,1.1787817,3.9043944,2.7150247,-7.2448545,0.6560113
6.14086,4.745952,0.39018843,1.1787817,3.9043944,2.7150247,-7.2448545,0.6560113
6.1445265,4.7464194,0.27833566,1.2064787,3.7446048,2.5809495,-7.61835,0.6560113
6.148157,4.746877,0.27833566,1.2064787,3.7446048,2.5809495,-7.61835,0.6560113
6.151641,4.747238,0.17393975,1.2203271,3.5752277,2.336741,-8.049306,0.6799533
6.1551356,4.7475953,0.17393975,1.2203271,3.5752277,2.336741,-8.049306,0.6799533
6.1584735,4.7478642,0.07806595,1.2235229,3.3994591,1.8435353,-8.494628,0.60333884
6.1617804,4.7481256,0.07806595,1.2235229,3.3994591,1.8435353,-8.494628,0.60333884
6.1649785,4.7483397,-0.0071552116,1.2150007,3.2226253,1.2162545,-8.916007,0.50757074
6.1681724,4.7485466,-0.0071552116,1.2150007,3.2226253,1.2162545,-8.916007,0.50757074
6.171407,4.7486477,-0.08065846,1.1936955,3.0553787,0.6512229,-9.3421755,0.5554548
6.1746044,4.748747,-0.08065846,1.1936955,3.0553787,0.6512229,-9.3421755,0.5554548
6.177645,4.748786,-0.1360522,1.159607,2.9041111,0.23942018,-9.68694,0.8283938
6.180715,4.7488236,-0.1360522,1.159607,2.9041111,0.23942018,-9.68694,0.8283938
6.18362,4.748814,-0.17440173,1.1127354,2.769888,0.04309563,-9.892841,0.93852705
6.186526,4.748803,-0.17440173,1.1127354,2.769888,0.04309563,-9.892841,0.93852705
6.1893187,4.748768,-0.19357648,1.058407,2.6548393,-0.095768064,-10.0269165,1.0869676
6.192102,4.7487316,-0.19357648,1.058407,2.6548393,-0.095768064,-10.0269165,1.0869676
6.194789,4.7486863,-0.19677228,1.0019479,2.5536392,-0.15322891,-10.060435,1.1683705
6.197467,4.74864,-0.19677228,1.0019479,2.5536392,-0.15322891,-10.060435,1.1683705
6.2000537,4.748599,-0.18505438,0.94974995,2.4620264,-0.12449849,-10.218452,1.1444284
6.202642,4.7485566,-0.18505438,0.94974995,2.4620264,-0.12449849,-10.218452,1.1444284
6.2051373,4.7485304,-0.16694488,0.9060741,2.3789358,-0.1340753,-10.304645,1.2210429
6.207624,4.7485023,-0.16694488,0.9060741,2.3789358,-0.1340753,-10.304645,1.2210429
6.210048,4.748493,-0.14244379,0.87092036,2.3011715,-0.24899697,-10.477027,1.2880806
6.212461,4.7484827,-0.14244379,0.87092036,2.3011715,-0.24899697,-10.477027,1.2880806
6.2148037,4.7484922,-0.11581218,0.83896244,2.2244725,-0.39264908,-10.6637745,1.316811
6.217138,4.748501,-0.11581218,0.83896244,2.2244725,-0.39264908,-10.6637745,1.316811
6.219404,4.748535,-0.089180574,0.8070045,2.1477733,-0.5267244,-10.860099,1.5514427
6.221654,4.7485685,-0.089180574,0.8070045,2.1477733,-0.5267244,-10.860099,1.5514427
6.2238398,4.748623,-0.06467949,0.77398133,2.0732048,-0.6607997,-10.97502,1.6903064
6.2260165,4.7486763,-0.06467949,0.77398133,2.0732048,-0.6607997,-10.97502,1.6903064
6.2281137,4.7487535,-0.04017841,0.73563176,1.9997016,-0.7613561,-11.085154,1.9536686
6.2302036,4.7488294,-0.04017841,0.73563176,1.9997016,-0.7613561,-11.085154,1.9536686
6.2322326,4.748924,-0.017807856,0.6940865,1.9261984,-0.91937345,-11.15698,2.0638018
6.234255,4.749017,-0.017807856,0.6940865,1.9261984,-0.91937345,-11.15698,2.0638018
6.23621,4.7491274,0.0045626974,0.64721483,1.8580215,-1.091756,-11.171345,2.1308396
6.2381587,4.7492366,0.0045626974,0.64721483,1.8580215,-1.091756,-11.171345,2.1308396
6.2400584,4.7493596,0.023737457,0.6003432,1.7930403,-1.3024458,-11.15698,2.1021092
6.2419467,4.749481,0.023737457,0.6003432,1.7930403,-1.3024458,-11.15698,2.1021092
6.243794,4.749611,0.03865116,0.5524063,1.7355161,-1.5227122,-11.066,2.0350714
6.2456355,4.7497396,0.03865116,0.5524063,1.7355161,-1.5227122,-11.066,2.0350714
6.2474394,4.749875,0.05356486,0.50553465,1.6886444,-1.8195933,-10.941502,1.9249382
6.249234,4.7500086,0.05356486,0.50553465,1.6886444,-1.8195933,-10.941502,1.9249382
6.2510624,4.7501507,0.06528277,0.4597283,1.6524254,-2.1404164,-10.783484,1.8435353
6.2527843,4.7502837,0.06528277,0.4597283,1.6524254,-2.1404164,-10.783484,1.8435353
6.254534,4.7504234,0.075935416,0.41498718,1.6257938,-2.3942018,-10.520123,1.7286136
6.2562776,4.7505627,0.075935416,0.41498718,1.6257938,-2.3942018,-10.520123,1.7286136
6.258008,4.7507057,0.08658806,0.3755724,1.6076843,-2.657564,-10.381259,1.6807296
6.2597446,4.7508497,0.08658806,0.3755724,1.6076843,-2.657564,-10.381259,1.6807296
6.2614713,4.7509995,0.09617544,0.34041867,1.6002275,-2.8443117,-10.261548,1.661576
6.263198,4.751148,0.09617544,0.34041867,1.6002275,-2.8443117,-10.261548,1.661576
6.264922,4.751305,0.106828086,0.3073955,1.6034232,-2.9352913,-10.232818,1.6328455
6.2666574,4.751462,0.106828086,0.3073955,1.6034232,-2.9352913,-10.232818,1.6328455
6.268395,4.751629,0.118545994,0.27650282,1.6119454,-2.9640217,-10.175357,1.6136919
6.270132,4.751796,0.118545994,0.27650282,1.6119454,-2.9640217,-10.175357,1.6136919
6.271867,4.7519774,0.12919864,0.24454488,1.6204674,-2.8538885,-10.295067,1.7812861
6.273611,4.75216,0.12919864,0.24454488,1.6204674,-2.8538885,-10.295067,1.7812861
6.275338,4.7523613,0.14198181,0.20939115,1.622598,-2.5617957,-10.448297,1.9536686
6.277075,4.7525644,0.14198181,0.20939115,1.622598,-2.5617957,-10.448297,1.9536686
6.2787995,4.7527833,0.15583025,0.17423743,1.6204674,-2.3894134,-10.620679,1.9919758
6.280524,4.7530026,0.15583025,0.17423743,1.6204674,-2.3894134,-10.620679,1.9919758
6.282223,4.753241,0.17287448,0.13801843,1.606619,-2.2601264,-10.769119,2.0638018
0.00074691925,4.7534814,0.17287448,0.13801843,1.606619,-2.2601264,-10.769119,2.0638018
0.0024152398,4.75374,0.18885344,0.09966891,1.5831832,-2.1452048,-10.898406,2.1739352
0.004093305,4.7539997,0.18885344,0.09966891,1.5831832,-2.1452048,-10.898406,2.1739352
0.0057338746,4.7542787,0.20589767,0.060254127,1.5554863,-2.030283,-10.994174,2.183512
0.007374062,4.7545576,0.20589767,0.060254127,1.5554863,-2.030283,-10.994174,2.183512
0.00897513,4.754857,0.22507244,0.017643549,1.5235285,-1.9201498,-10.97502,2.1499932
0.010582218,4.755158,0.22507244,0.017643549,1.5235285,-1.9201498,-10.97502,2.1499932
0.012148437,4.7554755,0.24211667,-0.023901764,1.4883747,-1.8866309,-11.013328,2.087744
0.013718912,4.7557945,0.24211667,-0.023901764,1.4883747,-1.8866309,-11.013328,2.087744
0.015244214,4.7561293,0.25703037,-0.064381815,1.4521557,-1.7525556,-10.979809,2.030283
0.016770681,4.756465,0.25703037,-0.064381815,1.4521557,-1.7525556,-10.979809,2.030283
0.01825797,4.756813,0.27087882,-0.10060081,1.4148715,-1.7621324,-10.91756,1.9488802
0.019752283,4.757164,0.27087882,-0.10060081,1.4148715,-1.7621324,-10.91756,1.9488802
0.021205923,4.7575226,0.2825967,-0.13468927,1.3786525,-1.757344,-10.907983,1.7812861
0.022666391,4.757883,0.2825967,-0.13468927,1.3786525,-1.757344,-10.907983,1.7812861
0.024090247,4.7582536,0.2953799,-0.1666472,1.3477597,-1.8387469,-10.874464,1.7621324
0.025522303,4.758627,0.2953799,-0.1666472,1.3477597,-1.8387469,-10.874464,1.7621324
0.026931096,4.759008,0.3070978,-0.19860514,1.3232586,-1.8866309,-10.773908,1.6184803
0.028339576,4.7593894,0.3070978,-0.19860514,1.3232586,-1.8866309,-10.773908,1.6184803
0.02972391,4.7597785,0.3188157,-0.2294978,1.3030187,-1.958457,-10.6637745,1.5514427
0.031121863,4.760172,0.3188157,-0.2294978,1.3030187,-1.958457,-10.6637745,1.5514427
0.032503918,4.7605696,0.33159888,-0.262521,1.2902355,-1.8387469,-10.620679,1.283292
0.033892654,4.760969,0.33159888,-0.262521,1.2902355,-1.8387469,-10.620679,1.283292
0.035283864,4.7613664,0.34225154,-0.2955442,1.2838439,-1.8531121,-10.524911,1.0247183
0.03667626,4.7617645,0.34225154,-0.2955442,1.2838439,-1.8531121,-10.524911,1.0247183
0.038063172,4.76217,0.35290417,-0.33069792,1.2849091,-1.6567876,-10.309433,0.91458505
0.039433245,4.7625713,0.35290417,-0.33069792,1.2849091,-1.6567876,-10.309433,0.91458505
0.04082955,4.7629867,0.36249155,-0.36691692,1.292366,-1.3790601,-10.065224,0.78529817
0.04226358,4.763414,0.36249155,-0.36691692,1.292366,-1.3790601,-10.065224,0.78529817
0.04365792,4.7638507,0.36781788,-0.40207064,1.296627,-1.0151415,-9.816227,0.7469909
0.045044925,4.7642865,0.36781788,-0.40207064,1.296627,-1.0151415,-9.816227,0.7469909
0.046399537,4.7647524,0.36781788,-0.43402857,1.2944965,-0.5602432,-9.610326,0.60812724
0.047765266,4.7652264,0.36781788,-0.43402857,1.2944965,-0.5602432,-9.610326,0.60812724
0.048923805,4.765683,0.36355683,-0.46172544,1.2870396,-0.16759412,-9.394848,0.6943185
0.050085027,4.766141,0.36355683,-0.46172544,1.2870396,-0.16759412,-9.394848,0.6943185
0.05119463,4.766551,0.3550347,-0.48516127,1.2710607,0.23463176,-9.198523,0.6368576
0.052303616,4.766961,0.3550347,-0.48516127,1.2710607,0.23463176,-9.198523,0.6368576
0.053379644,4.7673454,0.3433168,-0.50114024,1.2454944,0.62728083,-9.045294,0.58897364
0.054459605,4.767732,0.3433168,-0.50114024,1.2454944,0.62728083,-9.045294,0.58897364
0.05549799,4.7681036,0.3284031,-0.5139234,1.2092754,1.0103531,-8.925584,0.63206923
0.05549799,4.7681036,0.3284031,-0.5139234,1.2092754,1.0103531,-8.925584,0.63206923
0.057638694,4.768868,0.31135887,-0.52138025,1.1666648,1.4221559,-8.8777,0.60333884
0.057638694,4.768868,0.31135887,-0.52138025,1.1666648,1.4221559,-8.8777,0.60333884
0.05982894,4.7696433,0.29111883,-0.5235108,1.1144669,1.8339585,-8.791509,0.61770403
0.06054895,4.769897,0.29111883,-0.5235108,1.1144669,1.8339585,-8.791509,0.61770403
0.06143144,4.7702074,0.26981354,-0.5160539,1.0548121,2.1021092,-8.7053175,0.62728083
0.06252099,4.7705913,0.26981354,-0.5160539,1.0548121,2.1021092,-8.7053175,0.62728083
0.063124545,4.7708025,0.24850826,-0.5022055,0.98876566,2.327164,-8.700529,0.56982
0.06394532,4.7710896,0.24850826,-0.5022055,0.98876566,2.327164,-8.700529,0.56982
0.06470219,4.7713537,0.22507244,-0.48090023,0.91632766,2.456451,-8.676587,0.5410896
0.0655045,4.7716336,0.22507244,-0.48090023,0.91632766,2.456451,-8.676587,0.5410896
0.06612276,4.771843,0.19844083,-0.4510728,0.84495497,2.6671407,-8.662222,0.48362875
0.06679922,4.772073,0.19844083,-0.4510728,0.84495497,2.6671407,-8.662222,0.48362875
0.06740599,4.77227,0.17180921,-0.41378856,0.77251697,2.8060043,-8.6813755,0.39743748
0.068010904,4.772467,0.17180921,-0.41378856,0.77251697,2.8060043,-8.6813755,0.39743748
0.068554185,4.772632,0.14304708,-0.37117797,0.70007896,2.8634653,-8.714894,0.32561144
0.069089346,4.7727947,0.14304708,-0.37117797,0.70007896,2.8634653,-8.714894,0.32561144
0.06956213,4.7729263,0.1153502,-0.3221758,0.63190204,2.9640217,-8.7292595,0.30166942
0.07003344,4.773058,0.1153502,-0.3221758,0.63190204,2.9640217,-8.7292595,0.30166942
0.07044291,4.773158,0.087653324,-0.27104312,0.5658557,3.0358477,-8.78672,0.30166942
0.07085281,4.773258,0.087653324,-0.27104312,0.5658557,3.0358477,-8.78672,0.30166942
0.07120093,4.7733254,0.061021715,-0.21777989,0.5008745,3.1555579,-8.791509,0.23463176
0.07154914,4.7733936,0.061021715,-0.21777989,0.5008745,3.1555579,-8.791509,0.23463176
0.071836986,4.773428,0.03545537,-0.16025561,0.43695867,3.122039,-8.801085,0.15801731
0.07212508,4.7734632,0.03545537,-0.16025561,0.43695867,3.122039,-8.801085,0.15801731
0.0723546,4.773467,0.012019549,-0.10166607,0.37517333,3.1172507,-8.825027,0.076614454
0.072584316,4.773471,0.012019549,-0.10166607,0.37517333,3.1172507,-8.825027,0.076614454
0.07275811,4.773446,-0.009285741,-0.043076526,0.3155185,3.083732,-8.863335,0.01436521
0.072932415,4.7734222,-0.009285741,-0.043076526,0.3155185,3.083732,-8.863335,0.01436521
0.07305025,4.7733755,-0.0284605,0.01551302,0.2558637,3.1411927,-8.882488,0.05267244
0.07316809,4.7733293,-0.0284605,0.01551302,0.2558637,3.1411927,-8.882488,0.05267244
0.073231,4.773257,-0.048700526,0.073037304,0.19727415,3.0789435,-8.949526,0.02873042
0.07329391,4.7731843,-0.048700526,0.073037304,0.19727415,3.0789435,-8.949526,0.02873042
0.07330496,4.7730956,-0.06361423,0.13162684,0.14188041,3.1028855,-8.90643,0.110133275
0.07331595,4.7730074,-0.06361423,0.13162684,0.14188041,3.1028855,-8.90643,0.110133275
0.073275305,4.772896,-0.077462666,0.1870206,0.08648665,3.0789435,-8.925584,-0.019153614
0.07323471,4.7727838,-0.077462666,0.1870206,0.08648665,3.0789435,-8.925584,-0.019153614
0.07314525,4.7726545,-0.092376366,0.24454488,0.03428869,3.0454245,-8.834604,0.033518825
0.07305576,4.772526,-0.092376366,0.24454488,0.03428869,3.0454245,-8.834604,0.033518825
0.07291567,4.7723746,-0.107290074,0.30206916,-0.020039797,3.0358477,-8.810662,-0.05267244
0.072775625,4.7722235,-0.107290074,0.30206916,-0.020039797,3.0358477,-8.810662,-0.05267244
0.072584115,4.7720513,-0.121138506,0.36278924,-0.07330302,2.9113493,-8.75799,-0.05267244
0.07239633,4.7718825,-0.121138506,0.36278924,-0.07330302,2.9113493,-8.75799,-0.05267244
0.07215835,4.7716904,-0.13818274,0.42777038,-0.12550098,2.753332,-8.734048,-0.033518825
0.071920305,4.771498,-0.13818274,0.42777038,-0.12550098,2.753332,-8.734048,-0.033518825
0.071637854,4.771278,-0.1573575,0.49488202,-0.17450315,2.5617957,-8.662222,-0.10534488
0.071355306,4.7710576,-0.1573575,0.49488202,-0.17450315,2.5617957,-8.662222,-0.10534488
0.071032785,4.7708106,-0.17653225,0.5651895,-0.21924424,2.1930888,-8.63828,-0.095768064
0.07071013,4.770564,-0.17653225,0.5651895,-0.21924424,2.1930888,-8.63828,-0.095768064
0.07035378,4.770288,-0.19570702,0.63869274,-0.25865903,1.8914193,-8.6574335,-0.11971009
0.06999715,4.770013,-0.19570702,0.63869274,-0.25865903,1.8914193,-8.6574335,-0.11971009
0.0696116,4.7697043,-0.21594705,0.71113074,-0.29487804,1.484405,-8.686164,-0.15322891
0.06922656,4.7693973,-0.21594705,0.71113074,-0.29487804,1.484405,-8.686164,-0.15322891
0.068824224,4.7690477,-0.23725234,0.77824235,-0.32683596,1.0247183,-8.7053175,-0.272939
0.06842155,4.7686987,-0.23725234,0.77824235,-0.32683596,1.0247183,-8.7053175,-0.272939
0.06800756,4.768315,-0.2564271,0.84109294,-0.35453284,0.59855044,-8.724471,-0.272939
0.06759282,4.767931,-0.2564271,0.84109294,-0.35453284,0.59855044,-8.724471,-0.272939
0.067190684,4.767509,-0.27347133,0.89329094,-0.37690338,0.15801731,-8.75799,-0.37349546
0.06678784,4.767087,-0.27347133,0.89329094,-0.37690338,0.15801731,-8.75799,-0.37349546
0.06639801,4.766637,-0.29051554,0.9390973,-0.39288235,-0.14844051,-8.791509,-0.37828386
0.066007845,4.7661867,-0.29051554,0.9390973,-0.39288235,-0.14844051,-8.791509,-0.37828386
0.065644495,4.765714,-0.30542925,0.9753163,-0.4067308,-0.50757074,-8.925584,-0.37828386
0.065281,4.7652426,-0.30542925,0.9753163,-0.4067308,-0.50757074,-8.925584,-0.37828386
0.0649415,4.7647576,-0.31821242,1.0008826,-0.41844872,-0.79966336,-9.011775,-0.34476504
0.06459902,4.764269,-0.31821242,1.0008826,-0.41844872,-0.79966336,-9.011775,-0.34476504
0.06427703,4.7637796,-0.32886508,1.0168616,-0.43229714,-1.0869676,-9.179369,-0.320823
0.06395348,4.7632885,-0.32886508,1.0168616,-0.43229714,-1.0869676,-9.179369,-0.320823
0.06363964,4.7627954,-0.3373872,1.0275142,-0.44401506,-1.3072342,-9.284714,-0.272939
0.063333966,4.762316,-0.3373872,1.0275142,-0.44401506,-1.3072342,-9.284714,-0.272939
0.06301826,4.7618275,-0.3437788,1.0285795,-0.45892876,-1.4987702,-9.500193,-0.29688102
0.06270341,4.7613416,-0.3437788,1.0285795,-0.45892876,-1.4987702,-9.500193,-0.29688102
0.06239052,4.76087,-0.3459093,1.0200574,-0.47810352,-1.6328455,-9.730036,-0.04309563
0.06207906,4.7604017,-0.3459093,1.0200574,-0.47810352,-1.6328455,-9.730036,-0.04309563
0.061759256,4.7599497,-0.34484404,1.0008826,-0.49621302,-1.8100165,-9.950302,0.07182605
0.061439686,4.7594986,-0.34484404,1.0008826,-0.49621302,-1.8100165,-9.950302,0.07182605
0.061103933,4.759062,-0.340583,0.9731858,-0.5143225,-1.9153614,-10.141838,0.14844051
0.060769193,4.7586274,-0.340583,0.9731858,-0.5143225,-1.9153614,-10.141838,0.14844051
0.06041793,4.758212,-0.3341914,0.9390973,-0.532432,-1.9967642,-10.342952,0.25378537
0.06006647,4.7577972,-0.3341914,0.9390973,-0.532432,-1.9967642,-10.342952,0.25378537
0.05969737,4.757391,-0.32353875,0.9007478,-0.54628044,-2.0398598,-10.515334,0.19153613
0.05932919,4.756986,-0.32353875,0.9007478,-0.54628044,-2.0398598,-10.515334,0.19153613
0.058945388,4.7566013,-0.30969033,0.86026776,-0.5558678,-2.1068976,-10.644621,0.2873042
0.05857082,4.7562265,-0.30969033,0.86026776,-0.5558678,-2.1068976,-10.644621,0.2873042
0.058183428,4.755864,-0.29264608,0.8187224,-0.5611941,-2.1978772,-10.793061,0.25378537
0.057796903,4.755504,-0.29264608,0.8187224,-0.5611941,-2.1978772,-10.793061,0.25378537
0.057407074,4.7551603,-0.27347133,0.77930766,-0.5611941,-2.2840683,-10.970232,0.17717093
0.057016652,4.754816,-0.27347133,0.77930766,-0.5611941,-2.2840683,-10.970232,0.17717093
0.056628995,4.7544975,-0.2532313,0.7409581,-0.5569331,-2.3894134,-11.008539,0.19153613
0.056243073,4.7541814,-0.2532313,0.7409581,-0.5569331,-2.3894134,-11.008539,0.19153613
0.05586392,4.7538915,-0.22873022,0.7047391,-0.54628044,-2.528277,-11.051635,0.19632454
0.055485647,4.753603,-0.22873022,0.7047391,-0.54628044,-2.528277,-11.051635,0.19632454
0.05512258,4.7533526,-0.20209861,0.66852015,-0.53030145,-2.6192567,-11.171345,0.320823
0.054760702,4.7531037,-0.20209861,0.66852015,-0.53030145,-2.6192567,-11.171345,0.320823
0.054418992,4.7528877,-0.17333646,0.63230115,-0.5068657,-2.7150247,-11.190498,0.35913026
0.054078422,4.7526736,-0.17333646,0.63230115,-0.5068657,-2.7150247,-11.190498,0.35913026
0.053760186,4.752489,-0.14244379,0.59395164,-0.4812993,-2.815581,-11.224017,0.32561144
0.05344305,4.7523065,-0.14244379,0.59395164,-0.4812993,-2.815581,-11.224017,0.32561144
0.053153705,4.752159,-0.1094206,0.55347157,-0.4514719,-2.8395233,-11.238382,0.33518824
0.052864842,4.7520127,-0.1094206,0.55347157,-0.4514719,-2.8395233,-11.238382,0.33518824
0.052605923,4.751902,-0.076397404,0.51299155,-0.41844872,-2.882619,-11.133038,0.33997664
0.052348007,4.751792,-0.076397404,0.51299155,-0.41844872,-2.882619,-11.133038,0.33997664
0.052124225,4.751718,-0.042308938,0.47038093,-0.38222972,-2.8491,-11.075577,0.33518824
0.051901117,4.7516446,-0.042308938,0.47038093,-0.38222972,-2.8491,-11.075577,0.33518824
0.051712245,4.7516108,-0.008220476,0.42777038,-0.34494546,-2.858677,-10.989386,0.39264908
0.05152385,4.7515774,-0.008220476,0.42777038,-0.34494546,-2.858677,-10.989386,0.39264908
0.051370855,4.751583,0.025867987,0.38622504,-0.3076612,-2.8634653,-10.91756,0.4357447
0.05121833,4.7515893,0.025867987,0.38622504,-0.3076612,-2.8634653,-10.91756,0.4357447
0.051101625,4.7516317,0.058891185,0.345745,-0.26931167,-2.8491,-10.831368,0.45010993
0.050985392,4.7516737,0.058891185,0.345745,-0.26931167,-2.8491,-10.831368,0.45010993
0.050904285,4.751748,0.091914386,0.30526495,-0.23096216,-2.873042,-10.754754,0.36391866
0.050824944,4.7518206,0.091914386,0.30526495,-0.23096216,-2.873042,-10.754754,0.36391866
0.05078565,4.751923,0.12174179,0.26904595,-0.19048211,-2.8491,-10.673351,0.37349546
0.05074572,4.752027,0.12174179,0.26904595,-0.19048211,-2.8491,-10.673351,0.37349546
0.050746545,4.752164,0.14943866,0.23282696,-0.14787152,-2.8060043,-10.5919485,0.4213795
0.050747357,4.7523017,0.14943866,0.23282696,-0.14787152,-2.8060043,-10.5919485,0.4213795
0.05078827,4.752466,0.17393975,0.20086904,-0.106326215,-2.7246015,-10.620679,0.44532153
0.050829545,4.7526317,0.17393975,0.20086904,-0.106326215,-2.7246015,-10.620679,0.44532153
0.050910376,4.7528224,0.1963103,0.17210689,-0.064780906,-2.6671407,-10.606314,0.49320555
0.05099182,4.753015,0.1963103,0.17210689,-0.064780906,-2.6671407,-10.606314,0.49320555
0.051110677,4.753227,0.21655032,0.14654055,-0.026431382,-2.5570073,-10.6158905,0.47405192
0.05122932,4.753439,0.21655032,0.14654055,-0.026431382,-2.5570073,-10.6158905,0.47405192
0.051380567,4.7536764,0.2325293,0.12417,0.008722344,-2.504335,-10.721235,0.60333884
0.051532216,4.753914,0.2325293,0.12417,0.008722344,-2.504335,-10.721235,0.60333884
0.05171272,4.7541757,0.24531247,0.10392997,0.041745543,-2.432509,-10.927136,0.7517793
0.051893372,4.754437,0.24531247,0.10392997,0.041745543,-2.432509,-10.927136,0.7517793
0.05209813,4.7547197,0.25703037,0.08368994,0.071572945,-2.327164,-11.118672,0.8810662
0.052304227,4.755004,0.25703037,0.08368994,0.071572945,-2.327164,-11.118672,0.8810662
0.052528773,4.755307,0.26768303,0.062384658,0.09607403,-2.1930888,-11.324574,0.9720459
0.052753612,4.7556105,0.26768303,0.062384658,0.09607403,-2.1930888,-11.324574,0.9720459
0.05299957,4.755915,0.27833566,0.038948838,0.11311826,-2.0015526,-11.434708,0.79966336
0.053247213,4.756221,0.27833566,0.038948838,0.11311826,-2.0015526,-11.434708,0.79966336
0.053503223,4.756533,0.28685778,0.014447756,0.12270564,-1.7477672,-11.587936,0.7326257
0.05376091,4.7568464,0.28685778,0.014447756,0.12270564,-1.7477672,-11.587936,0.7326257
0.054020528,4.757152,0.29324937,-0.011118591,0.12164038,-1.5514427,-11.63582,0.59376204
0.054280315,4.7574573,0.29324937,-0.011118591,0.12164038,-1.5514427,-11.63582,0.59376204
0.05452995,4.7577615,0.29964095,-0.03455441,0.112053,-1.4748282,-11.611878,0.5410896
0.054780636,4.758066,0.29964095,-0.03455441,0.112053,-1.4748282,-11.611878,0.5410896
0.055012845,4.758364,0.303902,-0.059055492,0.09607403,-1.4173675,-11.520899,0.47884035
0.05524641,4.758663,0.303902,-0.059055492,0.09607403,-1.4173675,-11.520899,0.47884035
0.055450715,4.758956,0.31029359,-0.08675237,0.071572945,-1.3790601,-11.219229,0.39264908
0.055654835,4.7592473,0.31029359,-0.08675237,0.071572945,-1.3790601,-11.219229,0.39264908
0.05583575,4.7595544,0.31668517,-0.11657977,0.047071867,-1.2785037,-10.97502,0.4261679
0.056014754,4.759858,0.31668517,-0.11657977,0.047071867,-1.2785037,-10.97502,0.4261679
0.056154095,4.760136,0.32094625,-0.14960296,0.025766576,-1.1444284,-10.649409,0.2681506
0.05629234,4.760412,0.32094625,-0.14960296,0.025766576,-1.1444284,-10.649409,0.2681506
0.056396943,4.7606826,0.32307678,-0.18262617,0.0033960221,-1.0295067,-10.390836,0.24899697
0.05650145,4.7609534,0.32307678,-0.18262617,0.0033960221,-1.0295067,-10.390836,0.24899697
0.05655718,4.7612076,0.32414204,-0.21245357,-0.014713474,-0.91458505,-10.0748005,0.1388637
0.056612357,4.7614613,0.32414204,-0.21245357,-0.014713474,-0.91458505,-10.0748005,0.1388637
0.0566208,4.7616997,0.31988096,-0.23695466,-0.027496647,-0.770933,-9.768343,0.047884032
0.05663191,4.762026,0.31988096,-0.23695466,-0.027496647,-0.770933,-9.768343,0.047884032
0.056613002,4.7621765,0.31455466,-0.2561294,-0.036018763,-0.62728083,-9.466674,0.01436521
0.056574333,4.762483,0.31455466,-0.2561294,-0.036018763,-0.62728083,-9.466674,0.01436521
0.056531038,4.7626414,0.30496728,-0.26891258,-0.037084028,-0.47405192,-9.222465,-0.038307227
0.056475166,4.7628465,0.30496728,-0.26891258,-0.037084028,-0.47405192,-9.222465,-0.038307227
0.05638797,4.763069,0.2953799,-0.27530417,-0.033888236,-0.31603462,-9.050082,-0.07182605
0.05638797,4.763069,0.2953799,-0.27530417,-0.033888236,-0.31603462,-9.050082,-0.07182605
0.0561936,4.763566,0.2953799,-0.27530417,-0.033888236,-0.31603462,-9.050082,-0.07182605
0.0561276,4.7636933,0.283662,-0.2742389,-0.027496647,-0.110133275,-8.825027,-0.05746084
0.0560118,4.763898,0.27087882,-0.2657168,-0.016844003,0.038307227,-8.710106,-0.05267244
0.05589642,4.764102,0.27087882,-0.2657168,-0.016844003,0.038307227,-8.710106,-0.05267244
0.055776257,4.7643003,0.2559651,-0.25080308,-0.006191358,0.21547815,-8.590396,-0.047884032
0.05565618,4.7644987,0.2559651,-0.25080308,-0.006191358,0.21547815,-8.590396,-0.047884032
0.05553054,4.7646937,0.2410514,-0.2294978,0.0023307577,0.33039984,-8.523358,0.038307227
0.05540473,4.764889,0.2410514,-0.2294978,0.0023307577,0.33039984,-8.523358,0.038307227
0.055285726,4.765067,0.22400717,-0.20499672,0.009787609,0.4309563,-8.461109,0.009576807
0.055166315,4.7652464,0.22400717,-0.20499672,0.009787609,0.4309563,-8.461109,0.009576807
0.05504532,4.7654147,0.20483242,-0.17516932,0.015113931,0.50757074,-8.465898,0.095768064
0.05492479,4.765583,0.20483242,-0.17516932,0.015113931,0.50757074,-8.465898,0.095768064
0.054807555,4.765728,0.18352713,-0.14214613,0.01724446,0.61291564,-8.470686,0.06703765
0.054690033,4.765874,0.18352713,-0.14214613,0.01724446,0.61291564,-8.470686,0.06703765
0.054562226,4.766014,0.15902604,-0.10486186,0.016179197,0.6464345,-8.513782,0.24420857
0.054437988,4.766151,0.15902604,-0.10486186,0.016179197,0.6464345,-8.513782,0.24420857
0.054306883,4.7662663,0.13452496,-0.06544708,0.009787609,0.61291564,-8.561666,0.2825158
0.0541757,4.7663813,0.13452496,-0.06544708,0.009787609,0.61291564,-8.561666,0.2825158
0.05403358,4.7664704,0.10895862,-0.02496703,-0.0029955646,0.50757074,-8.623915,0.31603462
0.053891383,4.7665596,0.10895862,-0.02496703,-0.0029955646,0.50757074,-8.623915,0.31603462
0.053731162,4.766628,0.08445753,0.016578285,-0.022170324,0.36391866,-8.623915,0.37828386
0.053571194,4.766696,0.08445753,0.016578285,-0.022170324,0.36391866,-8.623915,0.37828386
0.053394165,4.7667465,0.058891185,0.057058334,-0.04027982,0.21547815,-8.647857,0.44532153
0.05321692,4.7667975,0.058891185,0.057058334,-0.04027982,0.21547815,-8.647857,0.44532153
0.053024497,4.7668333,0.032259572,0.09434259,-0.058389317,0.11492168,-8.695741,0.51235914
0.052832324,4.76687,0.032259572,0.09434259,-0.058389317,0.11492168,-8.695741,0.51235914
0.052624494,4.766892,0.0077584907,0.12736578,-0.078629345,-0.08619126,-8.767567,0.5363012
0.052420374,4.7669134,0.0077584907,0.12736578,-0.078629345,-0.08619126,-8.767567,0.5363012
0.052231316,4.7669597,-0.01674259,0.1571932,-0.10206516,-0.25857377,-8.844181,0.6368576
0.052039046,4.767007,-0.01674259,0.1571932,-0.10206516,-0.25857377,-8.844181,0.6368576
0.05197941,4.76705,-0.03804788,0.18275954,-0.12656625,-0.48362875,-8.90643,0.51714754
0.05192206,4.7670918,-0.03804788,0.18275954,-0.12656625,-0.48362875,-8.90643,0.51714754
0.051885158,4.767091,-0.05935317,0.20299956,-0.14787152,-0.62728083,-9.030929,0.60333884
0.05184821,4.7670894,-0.05935317,0.20299956,-0.14787152,-0.62728083,-9.030929,0.60333884
0.051808167,4.767059,-0.076397404,0.21791327,-0.16491576,-0.8283938,-9.11712,0.6799533
0.05176823,4.767029,-0.076397404,0.21791327,-0.16491576,-0.8283938,-9.11712,0.6799533
0.05171735,4.76698,-0.089180574,0.22963117,-0.17982946,-0.9864111,-9.193734,0.7374141
0.051666524,4.7669325,-0.089180574,0.22963117,-0.17982946,-0.9864111,-9.193734,0.7374141
0.051606704,4.7668695,-0.09983322,0.23708802,-0.19048211,-1.0773908,-9.275137,0.7613561
0.051548325,4.7668085,-0.09983322,0.23708802,-0.19048211,-1.0773908,-9.275137,0.7613561
0.05149175,4.7667265,-0.108355336,0.24134909,-0.1968737,-1.2018893,-9.356541,0.7326257
0.05143564,4.7666454,-0.108355336,0.24134909,-0.1968737,-1.2018893,-9.356541,0.7326257
0.051376212,4.766551,-0.11581218,0.24347961,-0.20220003,-1.3215994,-9.428367,0.7374141
0.051316917,4.7664576,-0.11581218,0.24347961,-0.20220003,-1.3215994,-9.428367,0.7374141
0.05125244,4.766366,-0.11794271,0.24347961,-0.20433055,-1.4460979,-9.548077,0.81402856
0.051187977,4.7662745,-0.11794271,0.24347961,-0.20433055,-1.4460979,-9.548077,0.81402856
0.051127393,4.7661815,-0.11794271,0.24134909,-0.20113476,-1.5370775,-9.634268,0.8283938
0.051067065,4.766089,-0.11794271,0.24134909,-0.20113476,-1.5370775,-9.634268,0.8283938
0.051006988,4.766,-0.11687745,0.23708802,-0.19793896,-1.661576,-9.706094,0.90021986
0.050947115,4.765911,-0.11687745,0.23708802,-0.19793896,-1.661576,-9.706094,0.90021986
0.05089326,4.765826,-0.11155113,0.22856592,-0.19261263,-1.7812861,-9.753978,0.91458505
0.0508372,4.7657375,-0.11155113,0.22856592,-0.19261263,-1.7812861,-9.753978,0.91458505
0.05079484,4.7656507,-0.107290074,0.21791327,-0.18409052,-1.9249382,-9.844957,0.8762778
0.050749138,4.765557,-0.107290074,0.21791327,-0.18409052,-1.9249382,-9.844957,0.8762778
0.05071867,4.7654877,-0.10089848,0.20726062,-0.17343788,-1.9967642,-9.888053,0.92895025
0.050685328,4.7654114,-0.10089848,0.20726062,-0.17343788,-1.9967642,-9.888053,0.92895025
0.050668336,4.7653327,-0.093441635,0.19554271,-0.16065471,-2.0973208,-9.902418,0.8283938
0.050651435,4.765255,-0.093441635,0.19554271,-0.16065471,-2.0973208,-9.902418,0.8283938
0.05064302,4.765188,-0.08705004,0.17956375,-0.1489368,-2.1404164,-9.883265,0.89543146
0.050634567,4.7651215,-0.08705004,0.17956375,-0.1489368,-2.1404164,-9.883265,0.89543146
0.050639197,4.7650585,-0.08172372,0.16145425,-0.13615362,-2.1739352,-9.888053,0.866701
0.050643783,4.7649956,-0.08172372,0.16145425,-0.13615362,-2.1739352,-9.888053,0.866701
0.050655253,4.764943,-0.075332135,0.14227949,-0.12656625,-2.231396,-9.854534,0.91937345
0.050666742,4.76489,-0.075332135,0.14227949,-0.12656625,-2.231396,-9.854534,0.91937345
0.050686497,4.7648425,-0.07000581,0.12203947,-0.11804412,-2.255338,-9.768343,0.89543146
0.050706193,4.7647943,-0.07000581,0.12203947,-0.11804412,-2.255338,-9.768343,0.89543146
0.050731406,4.7647557,-0.06574476,0.100734174,-0.10952201,-2.2026656,-9.68694,0.93373865
0.050756574,4.7647166,-0.06574476,0.100734174,-0.10952201,-2.2026656,-9.68694,0.93373865
0.050778873,4.7646894,-0.062548965,0.07942889,-0.106326215,-2.1452048,-9.639056,1.0342951
0.050801266,4.7646627,-0.062548965,0.07942889,-0.106326215,-2.1452048,-9.639056,1.0342951
0.050823268,4.7646394,-0.05935317,0.057058334,-0.106326215,-2.0733786,-9.605537,0.9959879
0.050845243,4.7646155,-0.05935317,0.057058334,-0.106326215,-2.0733786,-9.605537,0.9959879
0.050858542,4.7645965,-0.05935317,0.033622514,-0.11165254,-2.0254946,-9.557653,1.0247183
0.0508718,4.7645774,-0.05935317,0.033622514,-0.11165254,-2.0254946,-9.557653,1.0247183
0.050874643,4.76456,-0.05935317,0.011251962,-0.120174654,-2.0015526,-9.485827,1.0295067
0.050877538,4.764543,-0.05935317,0.011251962,-0.120174654,-2.0015526,-9.485827,1.0295067
0.050867885,4.7645283,-0.05935317,-0.011118591,-0.1308273,-1.9536686,-9.437943,1.0247183
0.05085829,4.764513,-0.05935317,-0.011118591,-0.1308273,-1.9536686,-9.437943,1.0247183
0.05083361,4.764496,-0.062548965,-0.033489145,-0.14467573,-1.9249382,-9.404425,1.0151415
0.050808996,4.7644787,-0.062548965,-0.033489145,-0.14467573,-1.9249382,-9.404425,1.0151415
0.050769586,4.7644587,-0.06681002,-0.0558597,-0.15852417,-1.8339585,-9.399636,0.9816227
0.050730214,4.7644386,-0.06681002,-0.0558597,-0.15852417,-1.8339585,-9.399636,0.9816227
0.05067671,4.7644134,-0.07213634,-0.077164985,-0.17237261,-1.8004397,-9.346964,0.9528923
0.050623212,4.764388,-0.07213634,-0.077164985,-0.17237261,-1.8004397,-9.346964,0.9528923
0.050560758,4.7643514,-0.07852793,-0.09740501,-0.18409052,-1.7860745,-9.3182335,0.8762778
0.05049854,4.764315,-0.07852793,-0.09740501,-0.18409052,-1.7860745,-9.3182335,0.8762778
0.05042677,4.7642646,-0.08491952,-0.11657977,-0.19793896,-1.6759412,-9.313444,0.7469909
0.05035529,4.764214,-0.08491952,-0.11657977,-0.19793896,-1.6759412,-9.313444,0.7469909
0.05026523,4.7641606,-0.093441635,-0.133624,-0.21285266,-1.6184803,-9.390059,0.78529817
0.05017469,4.7641068,-0.093441635,-0.133624,-0.21285266,-1.6184803,-9.390059,0.78529817
0.050069172,4.7640486,-0.10196375,-0.15066823,-0.2267011,-1.5370775,-9.423578,0.79008657
0.04996304,4.76399,-0.10196375,-0.15066823,-0.2267011,-1.5370775,-9.423578,0.79008657
0.04984631,4.763916,-0.11048587,-0.16771246,-0.24054953,-1.484405,-9.428367,0.7086837
0.049729805,4.7638426,-0.11048587,-0.16771246,-0.24054953,-1.484405,-9.428367,0.7086837
0.049599122,4.7637634,-0.11794271,-0.18582197,-0.2533327,-1.364695,-9.414001,0.6895301
0.049468305,4.7636843,-0.11794271,-0.18582197,-0.2533327,-1.364695,-9.414001,0.6895301
0.049328472,4.7635937,-0.12326904,-0.20499672,-0.26505062,-1.3215994,-9.409213,0.62728083
0.04918867,4.7635026,-0.12326904,-0.20499672,-0.26505062,-1.3215994,-9.409213,0.62728083
0.04903602,4.7634087,-0.12966062,-0.22417149,-0.27570325,-1.2258313,-9.437943,0.62728083
0.048883516,4.7633147,-0.12966062,-0.22417149,-0.27570325,-1.2258313,-9.437943,0.62728083
0.048726637,4.7632046,-0.13498695,-0.24228097,-0.28316012,-1.1204864,-9.461885,0.545878
0.048569757,4.763094,-0.13498695,-0.24228097,-0.28316012,-1.1204864,-9.461885,0.545878
0.04840427,4.7629805,-0.14031327,-0.26039046,-0.29061696,-0.9911995,-9.437943,0.5363012
0.048238836,4.762867,-0.14031327,-0.26039046,-0.29061696,-0.9911995,-9.437943,0.5363012
0.04806767,4.7627482,-0.1456396,-0.27530417,-0.2959433,-0.89064306,-9.452309,0.521936
