Pitch,Roll,Gyro_X,Gyro_Y,Gyro_Z,Accel_X,Accel_Y,Accel_Z
0.03598362,4.867692,0.003497433,0.017643549,0.20686153,-0.2825158,-9.528923,1.5514427
0.03610553,4.867775,0.003497433,0.017643549,0.20686153,-0.2825158,-9.528923,1.5514427
0.036238756,4.8678627,-0.0007636249,0.013382491,0.19833942,-0.29688102,-9.490616,1.5562311
0.036370456,4.86795,-0.0007636249,0.013382491,0.19833942,-0.29688102,-9.490616,1.5562311
0.03657743,4.868045,-0.0039594183,0.011251962,0.1866215,-0.35913026,-9.500193,1.532289
0.036780898,4.8681407,-0.0039594183,0.011251962,0.1866215,-0.35913026,-9.500193,1.532289
0.03700947,4.8682265,-0.0071552116,0.008056169,0.17703412,-0.40222588,-9.5385,1.5801731
0.037236508,4.868313,-0.0071552116,0.008056169,0.17703412,-0.40222588,-9.5385,1.5801731
0.03744201,4.868398,-0.0114162695,0.0048603755,0.16957727,-0.39264908,-9.552865,1.5849615
0.037645254,4.868484,-0.0114162695,0.0048603755,0.16957727,-0.39264908,-9.552865,1.5849615
0.03787121,4.8685584,-0.014612063,0.0016645822,0.16212043,-0.4309563,-9.562442,1.5945383
0.038095478,4.8686333,-0.014612063,0.0016645822,0.16212043,-0.4309563,-9.562442,1.5945383
0.03838094,4.8685927,-0.01674259,-0.0025964756,0.15253304,-0.4309563,-9.586384,1.4987702
0.03866767,4.8685513,-0.01674259,-0.0025964756,0.15253304,-0.4309563,-9.586384,1.4987702
0.038941823,4.8685064,-0.017807856,-0.007922798,0.14294566,-0.48841715,-9.581595,1.484405
0.039215695,4.8684616,-0.017807856,-0.007922798,0.14294566,-0.48841715,-9.581595,1.484405
0.039491836,4.86845,-0.018873122,-0.011118591,0.13974987,-0.51235914,-9.610326,1.5179238
0.039768428,4.8684387,-0.018873122,-0.011118591,0.13974987,-0.51235914,-9.610326,1.5179238
0.040034365,4.8684416,-0.021003649,-0.015379649,0.13548881,-0.5267244,-9.591172,1.532289
0.040303532,4.8684444,-0.021003649,-0.015379649,0.13548881,-0.5267244,-9.591172,1.532289
0.040541776,4.868482,-0.02313418,-0.019640706,0.13016249,-0.5554548,-9.619903,1.5993267
0.040779892,4.86852,-0.02313418,-0.019640706,0.13016249,-0.5554548,-9.619903,1.5993267
0.04100418,4.8685637,-0.024199443,-0.02496703,0.12483617,-0.5410896,-9.643845,1.6089035
0.0412257,4.8686075,-0.024199443,-0.02496703,0.12483617,-0.5410896,-9.643845,1.6089035
0.041470766,4.86862,-0.025264706,-0.029228088,0.118444584,-0.5602432,-9.639056,1.5610195
0.041711744,4.868632,-0.025264706,-0.029228088,0.118444584,-0.5602432,-9.639056,1.5610195
0.0419489,4.868645,-0.024199443,-0.035619672,0.11311826,-0.5315128,-9.634268,1.5514427
0.04218608,4.868659,-0.024199443,-0.035619672,0.11311826,-0.5315128,-9.634268,1.5514427
0.042385407,4.8687105,-0.024199443,-0.040945996,0.112053,-0.5267244,-9.682152,1.6136919
0.042584125,4.868763,-0.024199443,-0.040945996,0.112053,-0.5267244,-9.682152,1.6136919
0.04277207,4.868824,-0.024199443,-0.04627232,0.10992247,-0.49320555,-9.667787,1.5993267
0.042951655,4.868882,-0.024199443,-0.04627232,0.10992247,-0.49320555,-9.667787,1.5993267
0.043187723,4.8688784,-0.02313418,-0.051598642,0.1088572,-0.48841715,-9.691729,1.5370775
0.043425705,4.868875,-0.02313418,-0.051598642,0.1088572,-0.48841715,-9.691729,1.5370775
0.04346976,4.8687654,-0.021003649,-0.057990227,0.1088572,-0.4213795,-9.65821,1.5179238
0.04349785,4.868662,-0.021003649,-0.057990227,0.1088572,-0.4213795,-9.65821,1.5179238
0.04348108,4.8685865,-0.019938385,-0.062251285,0.10779194,-0.40222588,-9.720459,1.5179238
0.043462396,4.868513,-0.019938385,-0.062251285,0.10779194,-0.40222588,-9.720459,1.5179238
0.043625936,4.86841,-0.018873122,-0.06544708,0.10779194,-0.44532153,-9.682152,1.4987702
0.043787416,4.8683066,-0.018873122,-0.06544708,0.10779194,-0.44532153,-9.682152,1.4987702
0.043757673,4.8683386,-0.01674259,-0.06970814,0.106726676,-0.34955344,-9.710882,1.5562311
0.04372749,4.86837,-0.01674259,-0.06970814,0.106726676,-0.34955344,-9.710882,1.5562311
0.043683194,4.8683534,-0.015677327,-0.07183866,0.10779194,-0.36870706,-9.758766,1.532289
0.043638542,4.8683367,-0.015677327,-0.07183866,0.10779194,-0.36870706,-9.758766,1.532289
0.04359403,4.868325,-0.013546798,-0.07183866,0.10779194,-0.36391866,-9.782708,1.5370775
0.043549195,4.868314,-0.013546798,-0.07183866,0.10779194,-0.36391866,-9.782708,1.5370775
0.04354282,4.868239,-0.0114162695,-0.0707734,0.10992247,-0.36870706,-9.797073,1.4987702
0.04353562,4.8681645,-0.0114162695,-0.0707734,0.10992247,-0.36870706,-9.797073,1.4987702
0.04350847,4.86812,-0.009285741,-0.0707734,0.11418352,-0.34476504,-9.773131,1.508347
0.043480966,4.8680754,-0.009285741,-0.0707734,0.11418352,-0.34476504,-9.773131,1.508347
0.043470863,4.8680124,-0.008220476,-0.07183866,0.11631405,-0.37349546,-9.801862,1.508347
0.04345996,4.8679504,-0.008220476,-0.07183866,0.11631405,-0.37349546,-9.801862,1.508347
0.04348284,4.8678684,-0.0050246827,-0.0707734,0.118444584,-0.37828386,-9.835381,1.4891934
0.043505006,4.8677864,-0.0050246827,-0.0707734,0.118444584,-0.37828386,-9.835381,1.4891934
0.043585744,4.867691,-0.0028941538,-0.0707734,0.1269667,-0.39264908,-9.811439,1.4221559
0.043666307,4.8675947,-0.0028941538,-0.0707734,0.1269667,-0.39264908,-9.811439,1.4221559
0.043727644,4.867508,0.00030163955,-0.07183866,0.13335828,-0.37349546,-9.797073,1.4413095
0.043788273,4.867422,0.00030163955,-0.07183866,0.13335828,-0.37349546,-9.797073,1.4413095
0.04383331,4.8673487,0.0045626974,-0.07183866,0.1386846,-0.33997664,-9.811439,1.436521
0.043877907,4.867275,0.0045626974,-0.07183866,0.1386846,-0.33997664,-9.811439,1.436521
0.043965098,4.8671913,0.0066932263,-0.07183866,0.14614145,-0.38307226,-9.787497,1.4221559
0.04405097,4.8671083,0.0066932263,-0.07183866,0.14614145,-0.38307226,-9.787497,1.4221559
0.04413294,4.8670225,0.00988902,-0.07183866,0.15785937,-0.35913026,-9.739613,1.4413095
0.044182792,4.866969,0.00988902,-0.07183866,0.15785937,-0.35913026,-9.739613,1.4413095
0.04426227,4.8669033,0.0141500775,-0.0707734,0.16744675,-0.34955344,-9.730036,1.4173675
0.044341307,4.8668375,0.0141500775,-0.0707734,0.16744675,-0.34955344,-9.730036,1.4173675
0.044341307,4.8668375,0.0141500775,-0.0707734,0.16744675,-0.34955344,-9.730036,1.4173675
0.044341307,4.8668375,0.0141500775,-0.0707734,0.16744675,-0.34955344,-9.730036,1.4173675
0.04459333,4.866648,0.018411135,-0.066512346,0.1866215,-0.2825158,-9.677363,1.436521
0.04461967,4.866634,0.018411135,-0.066512346,0.1866215,-0.2825158,-9.677363,1.436521
0.04468555,4.866597,0.019476399,-0.06331655,0.19194783,-0.23463176,-9.65821,1.388637
0.044754244,4.8665595,0.019476399,-0.06331655,0.19194783,-0.23463176,-9.65821,1.388637
0.044808995,4.8665485,0.02160693,-0.060120758,0.19727415,-0.24899697,-9.610326,1.4413095
0.044863872,4.866538,0.02160693,-0.060120758,0.19727415,-0.24899697,-9.610326,1.4413095
0.044863872,4.866538,0.02160693,-0.060120758,0.19727415,-0.24899697,-9.610326,1.4413095
0.0450074,4.866486,0.02160693,-0.05692496,0.20366573,-0.20111294,-9.65821,1.3982137
0.04511595,4.8664355,0.022672193,-0.054794434,0.21005733,-0.2681506,-9.576807,1.3359646
0.04522688,4.8663836,0.022672193,-0.054794434,0.21005733,-0.2681506,-9.576807,1.3359646
0.045334663,4.866337,0.023737457,-0.05372917,0.21325313,-0.21068975,-9.648633,1.316811
0.045441706,4.8662906,0.023737457,-0.05372917,0.21325313,-0.21068975,-9.648633,1.316811
0.04553073,4.8662634,0.023737457,-0.051598642,0.21751417,-0.19632454,-9.672575,1.3838485
0.04561962,4.866236,0.023737457,-0.051598642,0.21751417,-0.19632454,-9.672575,1.3838485
0.045722593,4.8661985,0.023737457,-0.04946811,0.22070996,-0.20590134,-9.653421,1.3503298
0.045825817,4.8661613,0.023737457,-0.04946811,0.22070996,-0.20590134,-9.653421,1.3503298
0.045929793,4.866122,0.02160693,-0.04627232,0.22177523,-0.22505496,-9.639056,1.3599066
0.0460339,4.8660827,0.02160693,-0.04627232,0.22177523,-0.22505496,-9.639056,1.3599066
0.046125397,4.8660545,0.019476399,-0.043076526,0.22177523,-0.20111294,-9.648633,1.388637
0.046216443,4.8660264,0.019476399,-0.043076526,0.22177523,-0.20111294,-9.648633,1.388637
0.046333253,4.8659744,0.018411135,-0.03988073,0.22070996,-0.22984336,-9.605537,1.316811
0.046451934,4.865921,0.018411135,-0.03988073,0.22070996,-0.22984336,-9.605537,1.316811
0.046563253,4.865871,0.016280606,-0.036684938,0.22070996,-0.2681506,-9.653421,1.364695
0.04667395,4.865821,0.016280606,-0.036684938,0.22070996,-0.2681506,-9.653421,1.364695
0.04677362,4.865776,0.0141500775,-0.035619672,0.21857944,-0.23463176,-9.662998,1.3694834
0.046873145,4.8657317,0.0141500775,-0.035619672,0.21857944,-0.23463176,-9.662998,1.3694834
0.046950847,4.865711,0.013084813,-0.035619672,0.21644892,-0.22505496,-9.662998,1.4269443
0.047028586,4.8656907,0.013084813,-0.035619672,0.21644892,-0.22505496,-9.662998,1.4269443
0.047113653,4.865654,0.010954284,-0.03455441,0.21431838,-0.21547815,-9.653421,1.388637
0.047198612,4.8656178,0.010954284,-0.03455441,0.21431838,-0.21547815,-9.653421,1.388637
0.047259316,4.865614,0.0077584907,-0.03242388,0.20686153,-0.22026655,-9.68694,1.4700398
0.047320083,4.8656096,0.0077584907,-0.03242388,0.20686153,-0.22026655,-9.68694,1.4700398
0.047370292,4.865612,0.005627962,-0.03242388,0.19727415,-0.25378537,-9.706094,1.4891934
0.047420446,4.865614,0.005627962,-0.03242388,0.19727415,-0.25378537,-9.706094,1.4891934
0.047466006,4.865594,0.0045626974,-0.03242388,0.18768677,-0.31124622,-9.725247,1.4700398
0.047511447,4.8655744,0.0045626974,-0.03242388,0.18768677,-0.31124622,-9.725247,1.4700398
0.04756216,4.8655257,0.001366904,-0.031358615,0.17703412,-0.31603462,-9.744401,1.436521
0.047612544,4.8654776,0.001366904,-0.031358615,0.17703412,-0.31603462,-9.744401,1.436521
0.047631588,4.8654704,0.001366904,-0.033489145,0.16531622,-0.33997664,-9.749189,1.4939818
0.0476506,4.865464,0.001366904,-0.033489145,0.16531622,-0.33997664,-9.749189,1.4939818
0.04767059,4.865431,0.001366904,-0.036684938,0.15785937,-0.31124622,-9.763555,1.460463
0.047690406,4.8653984,0.001366904,-0.036684938,0.15785937,-0.31124622,-9.763555,1.460463
0.047694325,4.8653784,0.00030163955,-0.040945996,0.148272,-0.320823,-9.797073,1.484405
0.047698185,4.8653584,0.00030163955,-0.040945996,0.148272,-0.320823,-9.797073,1.484405
0.04772495,4.8652925,0.00030163955,-0.04627232,0.13761935,-0.31603462,-9.749189,1.3982137
0.047751326,4.8652277,0.00030163955,-0.04627232,0.13761935,-0.31603462,-9.749189,1.3982137
0.04773291,4.8652205,0.001366904,-0.051598642,0.13016249,-0.34476504,-9.768343,1.4939818
0.047714528,4.865214,0.001366904,-0.051598642,0.13016249,-0.34476504,-9.768343,1.4939818
0.04770181,4.8651786,0.003497433,-0.057990227,0.12483617,-0.38307226,-9.768343,1.4748282
0.047688916,4.865144,0.003497433,-0.057990227,0.12483617,-0.38307226,-9.768343,1.4748282
0.04766607,4.865118,0.005627962,-0.06331655,0.119509846,-0.36391866,-9.734824,1.4700398
0.047643013,4.8650923,0.005627962,-0.06331655,0.119509846,-0.36391866,-9.734824,1.4700398
0.047604572,4.8651085,0.0066932263,-0.06970814,0.11311826,-0.36391866,-9.773131,1.508347
0.047566094,4.8651247,0.0066932263,-0.06970814,0.11311826,-0.36391866,-9.773131,1.508347
0.047545392,4.8650823,0.010954284,-0.07503446,0.106726676,-0.38307226,-9.739613,1.4556746
0.047524456,4.86504,0.010954284,-0.07503446,0.106726676,-0.38307226,-9.739613,1.4556746
0.04747646,4.865044,0.015215342,-0.078230254,0.103530884,-0.37828386,-9.682152,1.4796166
0.04742855,4.865048,0.015215342,-0.078230254,0.103530884,-0.37828386,-9.682152,1.4796166
0.0474448,4.8649855,0.018411135,-0.08249131,0.103530884,-0.4261679,-9.696517,1.4460979
0.047460128,4.8649235,0.018411135,-0.08249131,0.103530884,-0.4261679,-9.696517,1.4460979
0.047453307,4.8648777,0.02160693,-0.08675237,0.10566141,-0.4165911,-9.667787,1.4508862
0.047445383,4.8648276,0.02160693,-0.08675237,0.10566141,-0.4165911,-9.667787,1.4508862
0.04748784,4.864767,0.023737457,-0.08994816,0.10779194,-0.4357447,-9.643845,1.4269443
0.04748784,4.864767,0.023737457,-0.08994816,0.10779194,-0.4357447,-9.643845,1.4269443
0.047600392,4.86462,0.025867987,-0.09420922,0.11418352,-0.45968673,-9.615114,1.4221559
0.047674622,4.864565,0.025867987,-0.09420922,0.11418352,-0.45968673,-9.615114,1.4221559
0.04774228,4.864508,0.02906378,-0.09633975,0.12270564,-0.4357447,-9.629479,1.388637
0.047815964,4.8644457,0.02906378,-0.09633975,0.12270564,-0.4357447,-9.629479,1.388637
0.04789903,4.8643875,0.033324838,-0.09740501,0.13122776,-0.44532153,-9.639056,1.412579
0.04798064,4.8643293,0.033324838,-0.09740501,0.13122776,-0.44532153,-9.639056,1.412579
0.048077814,4.8642735,0.03652063,-0.09740501,0.14188041,-0.44532153,-9.629479,1.3982137
0.048174098,4.8642178,0.03652063,-0.09740501,0.14188041,-0.44532153,-9.629479,1.3982137
0.048172634,4.8642397,0.039716423,-0.09847028,0.15146779,-0.40701428,-9.648633,1.4652514
0.04817126,4.864261,0.039716423,-0.09847028,0.15146779,-0.40701428,-9.648633,1.4652514
0.04826367,4.8642178,0.04291222,-0.09740501,0.16212043,-0.45489833,-9.667787,1.4508862
0.048352856,4.864175,0.04291222,-0.09740501,0.16212043,-0.45489833,-9.667787,1.4508862
0.04843455,4.8643103,0.045042746,-0.09633975,0.17170781,-0.44532153,-9.629479,1.5035586
0.04851213,4.8644433,0.045042746,-0.09633975,0.17170781,-0.44532153,-9.629479,1.5035586
0.048618294,4.8645864,0.047173277,-0.09740501,0.18129519,-0.4261679,-9.677363,1.5610195
0.04872267,4.8647294,0.047173277,-0.09740501,0.18129519,-0.4261679,-9.677363,1.5610195
0.04889264,4.8648853,0.05036907,-0.09740501,0.1930131,-0.47405192,-9.701305,1.5705963
0.049059983,4.8650413,0.05036907,-0.09740501,0.1930131,-0.47405192,-9.701305,1.5705963
0.04928368,4.8651977,0.05356486,-0.09633975,0.2079268,-0.5267244,-9.840169,1.6232687
0.04950636,4.8653545,0.05356486,-0.09633975,0.2079268,-0.5267244,-9.840169,1.6232687
0.049795862,4.865497,0.056760654,-0.09633975,0.22177523,-0.62249243,-9.835381,1.6376339
0.05008601,4.8656406,0.056760654,-0.09633975,0.22177523,-0.62249243,-9.835381,1.6376339
0.050396893,4.8657765,0.062086977,-0.09740501,0.23668894,-0.7182605,-9.92636,1.685518
0.050703768,4.8659105,0.062086977,-0.09740501,0.23668894,-0.7182605,-9.92636,1.685518
0.051062368,4.8660297,0.06847856,-0.10273133,0.25373316,-0.7278373,-9.998186,1.6232687
0.05143352,4.8661537,0.06847856,-0.10273133,0.25373316,-0.7278373,-9.998186,1.6232687
0.051791504,4.8663015,0.074870154,-0.108057655,0.27184266,-0.6799533,-10.103531,1.661576
0.05214881,4.86645,0.074870154,-0.108057655,0.27184266,-0.6799533,-10.103531,1.661576
0.05248343,4.866627,0.08126174,-0.11444924,0.28995216,-0.58418524,-10.232818,1.6472107
0.05281578,4.866806,0.08126174,-0.11444924,0.28995216,-0.58418524,-10.232818,1.6472107
0.053108927,4.8670053,0.09084912,-0.12084083,0.30806166,-0.5650316,-10.371682,1.7381904
0.053399973,4.867204,0.09084912,-0.12084083,0.30806166,-0.5650316,-10.371682,1.7381904
0.053628854,4.8674016,0.10363229,-0.12723242,0.32510588,-0.4357447,-10.520123,1.8004397
0.053856,4.8675985,0.10363229,-0.12723242,0.32510588,-0.4357447,-10.520123,1.8004397
0.05409938,4.867811,0.118545994,-0.13575453,0.34215012,-0.40222588,-10.668563,1.8770541
0.05434089,4.868023,0.118545994,-0.13575453,0.34215012,-0.40222588,-10.668563,1.8770541
0.054574687,4.8682404,0.13559023,-0.14108086,0.35599855,-0.38307226,-10.79785,1.8531121
0.05480643,4.868457,0.13559023,-0.14108086,0.35599855,-0.38307226,-10.79785,1.8531121
0.05507558,4.8687077,0.15583025,-0.14640717,0.37091225,-0.41180268,-10.903194,1.934515
0.055350307,4.868964,0.15583025,-0.14640717,0.37091225,-0.41180268,-10.903194,1.934515
0.05562658,4.86923,0.17713554,-0.14960296,0.3879565,-0.47405192,-10.951078,1.8818425
0.055906363,4.8694987,0.17713554,-0.14960296,0.3879565,-0.47405192,-10.951078,1.8818425
0.056243014,4.869806,0.19950609,-0.1517335,0.40500072,-0.5602432,-10.97502,1.8914193
0.05657556,4.870111,0.19950609,-0.1517335,0.40500072,-0.5602432,-10.97502,1.8914193
0.057112306,4.870336,0.22400717,-0.1549293,0.42843655,-0.6703765,-10.979809,1.7429788
0.057647157,4.8705497,0.22400717,-0.1549293,0.42843655,-0.6703765,-10.979809,1.7429788
0.05821479,4.8708267,0.25063878,-0.15705982,0.45932922,-0.7565677,-10.979809,1.7621324
0.05878285,4.871101,0.25063878,-0.15705982,0.45932922,-0.7565677,-10.979809,1.7621324
0.059340503,4.8713202,0.27940091,-0.16025561,0.4955482,-0.79008657,-10.951078,1.6424223
0.059894603,4.8715377,0.27940091,-0.16025561,0.4955482,-0.79008657,-10.951078,1.6424223
0.06046994,4.871777,0.31029359,-0.16558194,0.53602827,-0.82360536,-10.845734,1.541866
0.061042536,4.872016,0.31029359,-0.16558194,0.53602827,-0.82360536,-10.845734,1.541866
0.061680906,4.872295,0.34118626,-0.17197353,0.5860957,-0.89064306,-10.764331,1.5275006
0.062316723,4.872573,0.34118626,-0.17197353,0.5860957,-0.89064306,-10.764331,1.5275006
0.06301557,4.8728867,0.37207893,-0.17729984,0.6404242,-0.8714894,-10.5680065,1.4652514
0.063673005,4.8731823,0.37207893,-0.17729984,0.6404242,-0.8714894,-10.5680065,1.4652514
0.06438813,4.8735085,0.4008411,-0.18262617,0.6990137,-0.866701,-10.371682,1.3742718
0.06510581,4.8738365,0.4008411,-0.18262617,0.6990137,-0.866701,-10.371682,1.3742718
0.06588492,4.874193,0.42853796,-0.1847567,0.7618643,-0.8858546,-10.170568,1.3024458
0.0666469,4.874543,0.42853796,-0.1847567,0.7618643,-0.8858546,-10.170568,1.3024458
0.067469515,4.874923,0.45303902,-0.18262617,0.82578015,-0.7661445,-9.907207,1.2354081
0.06828404,4.8753014,0.45303902,-0.18262617,0.82578015,-0.7661445,-9.907207,1.2354081
0.06912947,4.875698,0.4754096,-0.17729984,0.89182657,-0.641646,-9.710882,1.1300632
0.06996875,4.876093,0.4754096,-0.17729984,0.89182657,-0.641646,-9.710882,1.1300632
0.07076449,4.876555,0.49351907,-0.17090826,0.9557424,-0.22984336,-9.41879,1.3551182
0.07156419,4.8770194,0.49351907,-0.17090826,0.9557424,-0.22984336,-9.41879,1.3551182
0.07239603,4.877535,0.50949806,-0.15812509,1.0100709,0.095768064,-9.002198,1.4030021
0.07322698,4.87805,0.50949806,-0.15812509,1.0100709,0.095768064,-9.002198,1.4030021
0.0741258,4.878535,0.521216,-0.14001559,1.0516162,-0.15801731,-8.801085,1.2162545
0.07502451,4.87902,0.521216,-0.14001559,1.0516162,-0.15801731,-8.801085,1.2162545
0.076006785,4.8794794,0.525477,-0.11977556,1.0867699,-0.2873042,-8.566454,0.9768343
0.076988116,4.879939,0.525477,-0.11977556,1.0867699,-0.2873042,-8.566454,0.9768343
0.07801822,4.8803873,0.51802015,-0.09740501,1.1219237,-0.34955344,-8.537724,0.9576807
0.0790472,4.8808355,0.51802015,-0.09740501,1.1219237,-0.34955344,-8.537724,0.9576807
0.08012059,4.8812647,0.5031065,-0.07396919,1.1528164,-0.40222588,-8.365341,0.92416185
0.08119154,4.881694,0.5031065,-0.07396919,1.1528164,-0.40222588,-8.365341,0.92416185
0.08229702,4.882104,0.48499697,-0.04627232,1.1805133,-0.37349546,-8.259995,0.8379706
0.08340125,4.882514,0.48499697,-0.04627232,1.1805133,-0.37349546,-8.259995,0.8379706
0.08453303,4.882901,0.46369168,-0.019640706,1.2039491,-0.36391866,-8.145074,0.80445176
0.08566367,4.883289,0.46369168,-0.019640706,1.2039491,-0.36391866,-8.145074,0.80445176
0.08683797,4.8836575,0.4391906,0.008056169,1.2188628,-0.37349546,-8.12592,0.79008657
0.08798,4.884016,0.4391906,0.008056169,1.2188628,-0.37349546,-8.12592,0.79008657
0.08912866,4.884349,0.4146895,0.03468778,1.2231238,-0.38307226,-8.082825,0.80445176
0.09031891,4.884694,0.4146895,0.03468778,1.2231238,-0.38307226,-8.082825,0.80445176
0.09031891,4.884694,0.3912537,0.05599307,1.2188628,-0.33518824,-8.0684595,0.8283938
0.09031891,4.884694,0.3912537,0.05599307,1.2188628,-0.33518824,-8.0684595,0.8283938
0.09375954,4.8856363,0.3912537,0.05599307,1.2188628,-0.33518824,-8.0684595,0.8283938
0.09375954,4.8856363,0.3912537,0.05599307,1.2188628,-0.33518824,-8.0684595,0.8283938
0.096294045,4.886276,0.34118626,0.08475521,1.1815785,-0.2825158,-7.953538,0.9864111
0.097116604,4.8864846,0.34118626,0.08475521,1.1815785,-0.2825158,-7.953538,0.9864111
0.098080225,4.8867283,0.31348938,0.09221206,1.1496205,-0.23463176,-7.943961,1.0965444
0.099101424,4.8869877,0.31348938,0.09221206,1.1496205,-0.23463176,-7.943961,1.0965444
0.10107033,4.8874493,0.283662,0.09753838,1.10701,-0.23463176,-7.905654,1.0965444
0.10107033,4.8874493,0.283662,0.09753838,1.10701,-0.23463176,-7.905654,1.0965444
0.1020094,4.8876586,0.25383458,0.100734174,1.0537468,-0.14844051,-7.943961,1.1061212
0.10294349,4.8878675,0.25383458,0.100734174,1.0537468,-0.14844051,-7.943961,1.1061212
0.10444525,4.8881865,0.22081138,0.1060605,0.9919614,-0.17238252,-8.010999,1.1923125
0.1047226,4.8882456,0.22081138,0.1060605,0.9919614,-0.17238252,-8.010999,1.1923125
0.105509184,4.888386,0.18565765,0.10819103,0.92058873,-0.19153613,-8.0924015,1.1779473
0.10631247,4.88853,0.18565765,0.10819103,0.92058873,-0.19153613,-8.0924015,1.1779473
0.10701995,4.888635,0.15050393,0.10819103,0.8428244,-0.17238252,-8.169016,1.1875241
0.10773019,4.8887415,0.15050393,0.10819103,0.8428244,-0.17238252,-8.169016,1.1875241
0.1083636,4.8888144,0.11428493,0.11032156,0.76079905,-0.22984336,-8.259995,1.2449849
0.10901101,4.8888893,0.11428493,0.11032156,0.76079905,-0.22984336,-8.259995,1.2449849
0.10955895,4.888941,0.07913121,0.10819103,0.6723821,-0.2825158,-8.355764,1.3503298
0.11010304,4.8889914,0.07913121,0.10819103,0.6723821,-0.2825158,-8.355764,1.3503298
0.11055809,4.889009,0.04610801,0.10392997,0.5818346,-0.30166942,-8.432379,1.3694834
0.11101398,4.8890266,0.04610801,0.10392997,0.5818346,-0.30166942,-8.432379,1.3694834
0.11137388,4.889015,0.0141500775,0.09540785,0.4870261,-0.30645782,-8.475474,1.3934253
0.1117326,4.8890038,0.0141500775,0.09540785,0.4870261,-0.30645782,-8.475474,1.3934253
0.111999124,4.8889513,-0.014612063,0.08475521,0.390087,-0.2873042,-8.590396,1.3455414
0.11226536,4.8888993,-0.014612063,0.08475521,0.390087,-0.2873042,-8.590396,1.3455414
0.11243275,4.8888235,-0.041243672,0.071972035,0.2920827,-0.15801731,-8.599973,1.340753
0.112597026,4.888749,-0.041243672,0.071972035,0.2920827,-0.15801731,-8.599973,1.340753
0.11265571,4.888651,-0.06787529,0.0581236,0.18768677,0.019153614,-8.647857,1.3359646
0.112714335,4.888553,-0.06787529,0.0581236,0.18768677,0.019153614,-8.647857,1.3359646
0.112661555,4.8884254,-0.0945069,0.045340426,0.075834006,0.18195933,-8.710106,1.2880806
0.11260859,4.888297,-0.0945069,0.045340426,0.075834006,0.18195933,-8.710106,1.2880806
0.112431884,4.888152,-0.121138506,0.032557253,-0.04454088,0.37828386,-8.748413,1.364695
0.11225535,4.888008,-0.121138506,0.032557253,-0.04454088,0.37828386,-8.748413,1.364695
0.11195049,4.8878384,-0.15096591,0.024035135,-0.17237261,0.48841715,-8.762778,1.4173675
0.11164586,4.8876686,-0.15096591,0.024035135,-0.17237261,0.48841715,-8.762778,1.4173675
0.111205354,4.8874764,-0.18398911,0.018708814,-0.30872646,0.6655881,-8.700529,1.5466543
0.110764846,4.887285,-0.18398911,0.018708814,-0.30872646,0.6655881,-8.700529,1.5466543
0.110183164,4.88706,-0.22020811,0.014447756,-0.45360243,0.7661445,-8.676587,1.5945383
0.1096004,4.886834,-0.22020811,0.014447756,-0.45360243,0.7661445,-8.676587,1.5945383
0.10886216,4.8865685,-0.25855762,0.010186698,-0.6080658,1.0055647,-8.532935,1.5945383
0.10813128,4.886306,-0.25855762,0.010186698,-0.6080658,1.0055647,-8.532935,1.5945383
0.107231885,4.886003,-0.29477662,0.012317227,-0.7731818,1.3934253,-8.5473,1.6472107
0.1063361,4.885701,-0.29477662,0.012317227,-0.7731818,1.3934253,-8.5473,1.6472107
0.10526401,4.8853602,-0.33206087,0.019774077,-0.955342,1.6998832,-8.508993,1.6759412
0.10418748,4.885018,-0.33206087,0.019774077,-0.955342,1.6998832,-8.508993,1.6759412
0.102922566,4.8846354,-0.37041038,0.03468778,-1.1524159,1.9536686,-8.39886,1.7190368
0.10165759,4.8842535,-0.37041038,0.03468778,-1.1524159,1.9536686,-8.39886,1.7190368
0.100188285,4.883835,-0.41089043,0.060254127,-1.3718604,1.9680338,-8.298303,1.8818425
0.09871007,4.8834143,-0.41089043,0.060254127,-1.3718604,1.9680338,-8.298303,1.8818425
0.0970101,4.882951,-0.4566968,0.090081535,-1.6104796,1.9153614,-8.255207,2.0494366
0.09531017,4.8824883,-0.4566968,0.090081535,-1.6104796,1.9153614,-8.255207,2.0494366
0.09336514,4.8819714,-0.50676423,0.116713144,-1.8640126,1.7956513,-8.1881695,2.030283
0.09142006,4.8814554,-0.50676423,0.116713144,-1.8640126,1.7956513,-8.1881695,2.030283
0.089222915,4.880884,-0.562158,0.13801843,-2.1292634,1.6089035,-8.303091,2.078167
0.08700826,4.88031,-0.562158,0.13801843,-2.1292634,1.6089035,-8.303091,2.078167
0.08455094,4.879682,-0.6228781,0.1476058,-2.3966448,1.4173675,-8.374918,2.1643584
0.08212564,4.8790646,-0.6228781,0.1476058,-2.3966448,1.4173675,-8.374918,2.1643584
0.079367355,4.8783655,-0.68572867,0.14654055,-2.6608305,1.2210429,-8.528147,2.1452048
0.07665549,4.877681,-0.68572867,0.14654055,-2.6608305,1.2210429,-8.528147,2.1452048
0.07367101,4.876933,-0.74644876,0.13269211,-2.920755,0.92895025,-8.791509,2.1021092
0.07069577,4.8761907,-0.74644876,0.13269211,-2.920755,0.92895025,-8.791509,2.1021092
0.06746116,4.875391,-0.80290776,0.11032156,-3.1721573,0.60333884,-8.959103,1.982399
0.06423368,4.8745966,-0.80290776,0.11032156,-3.1721573,0.60333884,-8.959103,1.982399
0.06076546,4.8737545,-0.85190994,0.0762331,-3.4054503,0.19632454,-9.217676,1.8387469
0.057291817,4.8729153,-0.85190994,0.0762331,-3.4054503,0.19632454,-9.217676,1.8387469
0.05360037,4.871971,-0.89238995,0.032557253,-3.6163726,0.1340753,-9.639056,1.4556746
0.04988966,4.871026,-0.89238995,0.032557253,-3.6163726,0.1340753,-9.639056,1.4556746
0.046011146,4.8700056,-0.9254132,-0.021771235,-3.8059897,0.10534488,-9.864111,1.2162545
0.042133853,4.868987,-0.9254132,-0.021771235,-3.8059897,0.10534488,-9.864111,1.2162545
0.038109068,4.867932,-0.9520448,-0.08142605,-3.9753668,0.23463176,-10.127473,0.9576807
0.03410247,4.866882,-0.9520448,-0.08142605,-3.9753668,0.23463176,-10.127473,0.9576807
0.02990288,4.86582,-0.97335005,-0.14108086,-4.126634,0.5793968,-10.28549,0.91937345
0.025683474,4.864754,-0.97335005,-0.14108086,-4.126634,0.5793968,-10.28549,0.91937345
0.021341763,4.863697,-0.99145955,-0.19434407,-4.2736406,0.90979666,-10.371682,0.9528923
0.016978838,4.862636,-0.99145955,-0.19434407,-4.2736406,0.90979666,-10.371682,0.9528923
0.012448186,4.8615675,-1.009569,-0.23588939,-4.4227777,1.2162545,-10.419566,0.9720459
0.007894967,4.8604956,-1.009569,-0.23588939,-4.4227777,1.2162545,-10.419566,0.9720459
0.003215503,4.8594227,-1.0276786,-0.2657168,-4.577241,1.4030021,-10.596737,1.0390835
6.2816606,4.858338,-1.0276786,-0.2657168,-4.577241,1.4030021,-10.596737,1.0390835
6.2768025,4.8572493,-1.045788,-0.28702208,-4.738096,1.6328455,-10.601525,0.9959879
6.271998,4.8561745,-1.045788,-0.28702208,-4.738096,1.6328455,-10.601525,0.9959879
6.266989,4.855085,-1.0638976,-0.30832738,-4.902147,1.8962077,-10.644621,1.0582372
6.2619653,4.8539934,-1.0638976,-0.30832738,-4.902147,1.8962077,-10.644621,1.0582372
6.2567616,4.85289,-1.0830723,-0.33282846,-5.0715237,2.231396,-10.692505,1.091756
6.2515574,4.8517895,-1.0830723,-0.33282846,-5.0715237,2.231396,-10.692505,1.091756
6.2461696,4.8506713,-1.1011819,-0.3615906,-5.240901,2.5809495,-10.783484,1.0630256
6.240798,4.8495584,-1.1011819,-0.3615906,-5.240901,2.5809495,-10.783484,1.0630256
6.235251,4.8484306,-1.1192913,-0.39248326,-5.4124084,2.9735985,-10.82658,1.0247183
6.229698,4.8473034,-1.1192913,-0.39248326,-5.4124084,2.9735985,-10.82658,1.0247183
6.2239604,4.8461685,-1.1363355,-0.4244412,-5.592438,3.442862,-10.778696,1.1109096
6.218222,4.8450356,-1.1363355,-0.4244412,-5.592438,3.442862,-10.778696,1.1109096
6.2122893,4.843887,-1.154445,-0.45533386,-5.784186,3.9360676,-10.836157,1.0965444
6.206338,4.8427367,-1.154445,-0.45533386,-5.784186,3.9360676,-10.836157,1.0965444
6.2002,4.8415694,-1.1757504,-0.48409602,-5.986586,4.4196963,-10.773908,1.0199299
6.1940985,4.8404107,-1.1757504,-0.48409602,-5.986586,4.4196963,-10.773908,1.0199299
6.187724,4.83922,-1.1981208,-0.5085971,-6.2017694,4.745308,-10.778696,0.9816227
6.1813493,4.838031,-1.1981208,-0.5085971,-6.2017694,4.745308,-10.778696,0.9816227
6.1747627,4.836827,-1.2215567,-0.52777183,-6.4318666,5.0517654,-10.7116585,1.0103531
6.1681824,4.8356247,-1.2215567,-0.52777183,-6.4318666,5.0517654,-10.7116585,1.0103531
6.161359,4.834399,-1.2492535,-0.5448161,-6.66729,5.3007627,-10.673351,1.0534488
6.1545353,4.833174,-1.2492535,-0.5448161,-6.66729,5.3007627,-10.673351,1.0534488
6.147474,4.8319254,-1.2801462,-0.5597298,-6.912301,5.449203,-10.6158905,1.115698
6.1404047,4.830677,-1.2801462,-0.5597298,-6.912301,5.449203,-10.6158905,1.115698
6.1330833,4.8293962,-1.3142347,-0.57357824,-7.1637034,5.3582234,-10.630256,1.0821792
6.1257696,4.8281174,-1.3142347,-0.57357824,-7.1637034,5.3582234,-10.630256,1.0821792
6.118194,4.8268156,-1.3472579,-0.5895572,-7.4183016,5.305551,-10.457873,1.2880806
6.110618,4.8255157,-1.3472579,-0.5895572,-7.4183016,5.305551,-10.457873,1.2880806
6.1027927,4.8242025,-1.3824116,-0.6108625,-7.6718345,4.88896,-10.563218,1.7238252
6.094968,4.8228903,-1.3824116,-0.6108625,-7.6718345,4.88896,-10.563218,1.7238252
6.0868473,4.8215423,-1.4143696,-0.6428204,-7.9253674,4.4484267,-10.424355,1.6711528
6.0787516,4.8202,-1.4143696,-0.6428204,-7.9253674,4.4484267,-10.424355,1.6711528
6.070166,4.818755,-1.4441969,-0.6875615,-8.1693125,4.8458643,-10.247183,1.1348516
6.0620723,4.8173933,-1.4441969,-0.6875615,-8.1693125,4.8458643,-10.247183,1.1348516
6.053537,4.815931,-1.4772202,-0.74295527,-8.408998,5.0900726,-10.25676,0.61770403
6.0449843,4.8144636,-1.4772202,-0.74295527,-8.408998,5.0900726,-10.25676,0.61770403
6.0361824,4.812928,-1.5198307,-0.798349,-8.650812,5.2528787,-10.419566,0.31603462
6.0272927,4.8113747,-1.5198307,-0.798349,-8.650812,5.2528787,-10.419566,0.31603462
6.018284,4.8097715,-1.5667024,-0.8537428,-8.887301,5.4061074,-10.673351,0.090979666
6.0092487,4.80816,-1.5667024,-0.8537428,-8.887301,5.4061074,-10.673351,0.090979666
5.9999094,4.806467,-1.6125088,-0.9155281,-9.116333,5.6982,-10.860099,-0.10055647
5.990608,4.804775,-1.6125088,-0.9155281,-9.116333,5.6982,-10.860099,-0.10055647
5.981144,4.803026,-1.6561846,-0.9805092,-9.334712,6.0046577,-10.82658,-0.34476504
5.9716716,4.8012676,-1.6561846,-0.9805092,-9.334712,6.0046577,-10.82658,-0.34476504
5.9618716,4.7994194,-1.6966647,-1.0476209,-9.545634,6.0142345,-10.840945,-0.4261679
5.9522095,4.7975874,-1.6966647,-1.0476209,-9.545634,6.0142345,-10.840945,-0.4261679
5.942303,4.7956996,-1.7392752,-1.1200589,-9.761883,6.981492,-11.085154,-0.2873042
5.9323587,4.7937922,-1.7392752,-1.1200589,-9.761883,6.981492,-11.085154,-0.2873042
5.922197,4.7918186,-1.7776247,-1.18504,-9.9749365,7.4124484,-11.219229,-0.36870706
5.9120364,4.7898326,-1.7776247,-1.18504,-9.9749365,7.4124484,-11.219229,-0.36870706
5.9016595,4.7877874,-1.8127785,-1.2425643,-10.183728,7.9822683,-11.362882,-0.33039984
5.891337,4.7857375,-1.8127785,-1.2425643,-10.183728,7.9822683,-11.362882,-0.33039984
5.880706,4.783613,-1.846867,-1.2990233,-10.401042,8.695741,-11.477803,-0.2633622
5.870055,4.781467,-1.846867,-1.2990233,-10.401042,8.695741,-11.477803,-0.2633622
5.859224,4.7792673,-1.8788248,-1.3544171,-10.631139,9.198523,-11.544841,-0.2777274
5.8484597,4.777061,-1.8788248,-1.3544171,-10.631139,9.198523,-11.544841,-0.2777274
5.837289,4.7747536,-1.9107828,-1.4087455,-10.869759,9.610326,-11.69807,-0.23463176
5.826231,4.7724466,-1.9107828,-1.4087455,-10.869759,9.610326,-11.69807,-0.23463176
5.8149247,4.7700686,-1.9406102,-1.4652046,-11.104116,9.959879,-11.784261,-0.12928689
5.803417,4.767621,-1.9406102,-1.4652046,-11.104116,9.959879,-11.784261,-0.12928689
5.791892,4.7651434,-1.9661765,-1.5259247,-11.3352785,10.338163,-11.832145,-0.1436521
5.7805996,4.7626867,-1.9661765,-1.5259247,-11.3352785,10.338163,-11.832145,-0.1436521
5.7688503,4.760096,-1.9896123,-1.591971,-11.561115,11.118672,-11.745954,-0.2681506
5.7571034,4.757472,-1.9896123,-1.591971,-11.561115,11.118672,-11.745954,-0.2681506
5.7419295,4.7540193,-2.0066566,-1.664409,-11.78056,11.745954,-11.760319,-0.49799395
5.732555,4.751854,-2.0066566,-1.664409,-11.78056,11.745954,-11.760319,-0.49799395
5.720562,4.7490396,-2.0237007,-1.7336512,-11.996808,12.483368,-11.549629,-0.7757214
5.7077446,4.745983,-2.0418103,-1.7911755,-12.209861,12.847286,-11.3964,-1.1540052
5.693248,4.742452,-2.0418103,-1.7911755,-12.209861,12.847286,-11.3964,-1.1540052
5.693248,4.742452,-2.0418103,-1.7911755,-12.209861,12.847286,-11.3964,-1.1540052
5.693248,4.742452,-2.0418103,-1.7911755,-12.209861,12.847286,-11.3964,-1.1540052
5.693248,4.742452,-2.0418103,-1.7911755,-12.209861,12.847286,-11.3964,-1.1540052
5.6395216,4.728705,-2.084421,-1.8604177,-12.611465,12.435484,-10.783484,-1.733402
5.6293836,4.725977,-2.084421,-1.8604177,-12.611465,12.435484,-10.783484,-1.733402
5.6213446,4.7237835,-2.1099873,-1.8763967,-12.797887,11.63582,-10.510546,-1.8052281
5.6084523,4.7202034,-2.1099873,-1.8763967,-12.797887,11.63582,-10.510546,-1.8052281
5.5953894,4.7165,-2.1398146,-1.8881146,-12.968329,11.190498,-9.9790325,-1.9201498
5.5823236,4.7127085,-2.1398146,-1.8881146,-12.968329,11.190498,-9.9790325,-1.9201498
5.569116,4.7087765,-2.1760337,-1.8987672,-13.1281185,11.200075,-9.519346,-2.504335
5.5559072,4.7047467,-2.1760337,-1.8987672,-13.1281185,11.200075,-9.519346,-2.504335
5.5425696,4.700566,-2.225036,-1.9040935,-13.284713,10.807426,-9.212888,-2.4660277
5.5289254,4.6961746,-2.225036,-1.9040935,-13.284713,10.807426,-9.212888,-2.4660277
5.5156035,4.6917515,-2.2836254,-1.8987672,-13.43385,10.156203,-9.074024,-2.5761611
5.502258,4.6871986,-2.2836254,-1.8987672,-13.43385,10.156203,-9.074024,-2.5761611
5.485122,4.681144,-2.3475413,-1.8881146,-13.5734,9.543288,-8.8777,-2.5187001
5.4750805,4.677491,-2.3475413,-1.8881146,-13.5734,9.543288,-8.8777,-2.5187001
5.460846,4.6721582,-2.4103918,-1.8785272,-13.701231,8.973468,-8.805874,-2.3989902
5.4473,4.6669235,-2.4103918,-1.8785272,-13.701231,8.973468,-8.805874,-2.3989902
5.434431,4.661777,-2.4700465,-1.8785272,-13.810953,8.662222,-8.820239,-2.2361844
5.4212704,4.656353,-2.4700465,-1.8785272,-13.810953,8.662222,-8.820239,-2.2361844
5.4075966,4.650512,-2.5243752,-1.8849188,-13.905762,8.24563,-8.944737,-2.0207062
5.393811,4.6444263,-2.5243752,-1.8849188,-13.905762,8.24563,-8.944737,-2.0207062
5.380113,4.638145,-2.5701816,-1.9008977,-13.982461,7.9726915,-9.097966,-1.7669208
5.3664527,4.6316605,-2.5701816,-1.9008977,-13.982461,7.9726915,-9.097966,-1.7669208
5.3527536,4.6248956,-2.6032047,-1.9253988,-14.030398,7.642292,-9.270349,-1.484405
5.339105,4.6179028,-2.6032047,-1.9253988,-14.030398,7.642292,-9.270349,-1.484405
5.325462,4.6105967,-2.6255753,-1.9541609,-14.041051,7.6710224,-9.356541,-1.2641385
5.3118587,4.60302,-2.6255753,-1.9541609,-14.041051,7.6710224,-9.356541,-1.2641385
5.298267,4.5950947,-2.6383584,-1.9829232,-14.017614,7.321469,-9.65821,-0.94810385
5.284745,4.586871,-2.6383584,-1.9829232,-14.017614,7.321469,-9.65821,-0.94810385
5.2713,4.5782714,-2.6362278,-2.0116851,-13.973939,6.7324953,-9.931149,-0.89543146
5.2578607,4.569283,-2.6362278,-2.0116851,-13.973939,6.7324953,-9.931149,-0.89543146
5.2445602,4.5598984,-2.620249,-2.0457737,-13.900435,6.205771,-10.228029,-0.7422025
5.2312717,4.550066,-2.620249,-2.0457737,-13.900435,6.205771,-10.228029,-0.7422025
5.2181654,4.5397916,-2.5861604,-2.0883844,-13.790713,5.6407394,-10.424355,-0.5554548
5.205078,4.529002,-2.5861604,-2.0883844,-13.790713,5.6407394,-10.424355,-0.5554548
5.1922064,4.517698,-2.5371583,-2.1459086,-13.641577,5.3678,-10.644621,-0.19632454
5.179401,4.5058355,-2.5371583,-2.1459086,-13.641577,5.3678,-10.644621,-0.19632454
5.166829,4.493343,-2.471112,-2.216216,-13.453025,5.3678,-10.572795,-0.22026655
5.1543455,4.4802184,-2.471112,-2.216216,-13.453025,5.3678,-10.572795,-0.22026655
5.1421576,4.466421,-2.391217,-2.2897193,-13.226123,5.568913,-10.453085,-0.15322891
5.130045,4.45187,-2.391217,-2.2897193,-13.226123,5.568913,-10.453085,-0.15322891
5.1182747,4.4366097,-2.3049307,-2.349374,-12.960873,5.60722,-10.295067,-0.12928689
5.106606,4.4205055,-2.3049307,-2.349374,-12.960873,5.60722,-10.295067,-0.12928689
5.0953474,4.4036946,-2.2133179,-2.4005067,-12.658338,5.813122,-10.141838,0.019153614
5.0841713,4.3858767,-2.2133179,-2.4005067,-12.658338,5.813122,-10.141838,0.019153614
5.0734453,4.367324,-2.1153135,-2.4409869,-12.328105,5.9807158,-9.878476,0.06703765
5.062841,4.3476834,-2.1153135,-2.4409869,-12.328105,5.9807158,-9.878476,0.06703765
5.0527067,4.3273,-2.0141134,-2.4633574,-11.970177,6.2009826,-9.734824,0.2873042
5.042713,4.3057117,-2.0141134,-2.4633574,-11.970177,6.2009826,-9.734824,0.2873042
5.0332203,4.283411,-1.9107828,-2.4644227,-11.586681,6.1530986,-9.543288,0.3878607
5.023897,4.259823,-1.9107828,-2.4644227,-11.586681,6.1530986,-9.543288,0.3878607
5.015088,4.2355413,-1.8021258,-2.4484437,-11.184011,4.984728,-9.452309,0.5793968
5.00645,4.209825,-1.8021258,-2.4484437,-11.184011,4.984728,-9.452309,0.5793968
4.998371,4.1834955,-1.6870773,-2.4399216,-10.7685585,5.60722,-9.02614,0.59376204
4.9905014,4.15571,-1.6870773,-2.4399216,-10.7685585,5.60722,-9.02614,0.59376204
4.983192,4.1272664,-1.5656371,-2.4388564,-10.342452,5.1235914,-8.619126,0.46447513
4.9759407,4.0965557,-1.5656371,-2.4388564,-10.342452,5.1235914,-8.619126,0.46447513
4.9695873,4.066816,-1.4410012,-2.4250078,-9.898237,4.8506527,-8.226477,0.61291564
4.963167,4.0340137,-1.4410012,-2.4250078,-9.898237,4.8506527,-8.226477,0.61291564
4.9560623,3.9930797,-1.3153,-2.4026372,-9.436977,4.2999864,-7.6470804,0.39264908
4.9518547,3.9664335,-1.3153,-2.4026372,-9.436977,4.2999864,-7.6470804,0.39264908
4.9472847,3.9344227,-1.1895988,-2.3664184,-8.9586735,3.5865142,-7.177817,0.29209262
4.9427724,3.8996625,-1.1895988,-2.3664184,-8.9586735,3.5865142,-7.177817,0.29209262
4.938984,3.8669262,-1.0660281,-2.3142204,-8.455869,2.719813,-6.7708025,1.0726024
4.935293,3.8316135,-1.0660281,-2.3142204,-8.455869,2.719813,-6.7708025,1.0726024
4.9321556,3.7972755,-0.9413921,-2.2620225,-7.9338894,2.3223755,-6.2632318,1.3694834
4.9292793,3.7619526,-0.9413921,-2.2620225,-7.9338894,2.3223755,-6.2632318,1.3694834
4.926937,3.7280571,-0.80929935,-2.2140856,-7.400192,2.9735985,-5.4922986,0.79966336
4.9248447,3.693456,-0.80929935,-2.2140856,-7.400192,2.9735985,-5.4922986,0.79966336
4.92325,3.6606362,-0.6772066,-2.1693444,-6.8750167,3.6535518,-3.9839516,-0.23942018
4.9218836,3.6273196,-0.6772066,-2.1693444,-6.8750167,3.6535518,-3.9839516,-0.23942018
4.920923,3.5960495,-0.5578969,-2.1256685,-6.369016,4.4005427,-3.3183637,-0.16759412
4.9201674,3.5644886,-0.5578969,-2.1256685,-6.369016,4.4005427,-3.3183637,-0.16759412
4.919732,3.535013,-0.46202314,-2.0734706,-5.88219,5.257667,-3.7493198,0.5267244
4.9194784,3.5054388,-0.46202314,-2.0734706,-5.88219,5.257667,-3.7493198,0.5267244
4.9194736,3.4782016,-0.36934513,-1.9839884,-5.410278,6.6079965,-2.9975405,-0.076614454
4.9196253,3.4507654,-0.36934513,-1.9839884,-5.410278,6.6079965,-2.9975405,-0.076614454
4.9199305,3.4261203,-0.27666712,-1.8518956,-4.951149,6.9000893,-2.1787236,-0.58418524
4.920367,3.4013164,-0.27666712,-1.8518956,-4.951149,6.9000893,-2.1787236,-0.58418524
4.920863,3.379191,-0.20103334,-1.6782575,-4.4941506,6.531382,-1.6759412,-0.6991069
4.921463,3.3570936,-0.20103334,-1.6782575,-4.4941506,6.531382,-1.6759412,-0.6991069
4.922047,3.3375537,-0.14244379,-1.4801183,-4.0371523,6.26802,-1.1971009,-0.7565677
4.9227166,3.317996,-0.14244379,-1.4801183,-4.0371523,6.26802,-1.1971009,-0.7565677
4.9233227,3.3009102,-0.09557216,-1.2819791,-3.581219,6.2728086,-0.8283938,-0.81881696
4.9239964,3.2838302,-0.09557216,-1.2819791,-3.581219,6.2728086,-0.8283938,-0.81881696
4.9245877,3.2689955,-0.056157377,-1.0891662,-3.1316774,6.5601125,-0.6991069,-0.8379706
4.9252377,3.254019,-0.056157377,-1.0891662,-3.1316774,6.5601125,-0.6991069,-0.8379706
4.925764,3.241547,-0.01674259,-0.8974186,-2.691723,6.631939,-0.5746084,-0.81881696
4.926321,3.2292075,-0.01674259,-0.8974186,-2.691723,6.631939,-0.5746084,-0.81881696
4.9267435,3.218831,0.025867987,-0.70247525,-2.2592256,6.3446345,-0.22026655,-1.1204864
4.9271936,3.208465,0.025867987,-0.70247525,-2.2592256,6.3446345,-0.22026655,-1.1204864
4.927642,3.1994677,0.06954383,-0.5139234,-1.8288589,6.009446,0.047884032,-1.3742718
4.928108,3.190523,0.06954383,-0.5139234,-1.8288589,6.009446,0.047884032,-1.3742718
4.9284286,3.1835742,0.11108914,-0.3413506,-1.4038184,5.889736,0.25378537,-1.4173675
4.9287586,3.176669,0.11108914,-0.3413506,-1.4038184,5.889736,0.25378537,-1.4173675
4.9289756,3.1716492,0.15369973,-0.1847567,-0.98623466,5.90889,0.46447513,-1.5849615
4.929188,3.1668851,0.15369973,-0.1847567,-0.98623466,5.90889,0.46447513,-1.5849615
4.9292817,3.1639905,0.19524503,-0.036684938,-0.57291204,5.770026,0.90979666,-1.9536686
4.9293795,3.1610498,0.19524503,-0.036684938,-0.57291204,5.770026,0.90979666,-1.9536686
4.9293294,3.1599896,0.23146403,0.10392997,-0.16491576,5.8705826,1.0630256,-1.8339585
4.9292784,3.1589165,0.23146403,0.10392997,-0.16491576,5.8705826,1.0630256,-1.8339585
4.9290586,3.1596363,0.26448724,0.23921856,0.23881947,6.215348,1.091756,-1.508347
4.9288383,3.1603558,0.26448724,0.23921856,0.23881947,6.215348,1.091756,-1.508347
4.928459,3.162939,0.2985757,0.37024608,0.6308368,6.6271505,1.1348516,-1.2976574
4.928084,3.1655145,0.2985757,0.37024608,0.6308368,6.6271505,1.1348516,-1.2976574
4.9275885,3.1698897,0.33372942,0.5002083,1.0068752,6.7947445,1.3120226,-1.3215994
4.9270983,3.1742835,0.33372942,0.5002083,1.0068752,6.7947445,1.3120226,-1.3215994
4.926526,3.1803396,0.36568734,0.6248443,1.3658693,6.8091097,1.4556746,-1.5610195
4.925962,3.1864517,0.36568734,0.6248443,1.3658693,6.8091097,1.4556746,-1.5610195
4.925305,3.1942232,0.39658,0.7420234,1.7056886,6.8282633,1.5370775,-1.5849615
4.9246635,3.202018,0.39658,0.7420234,1.7056886,6.8282633,1.5370775,-1.5849615
4.9239516,3.211456,0.4242769,0.84854984,2.025268,6.9719152,1.532289,-1.6567876
4.9232597,3.2209275,0.4242769,0.84854984,2.025268,6.9719152,1.532289,-1.6567876
4.9225187,3.2319157,0.44771272,0.94335836,2.323542,7.091625,1.6089035,-1.6807296
4.921804,3.2429461,0.44771272,0.94335836,2.323542,7.091625,1.6089035,-1.6807296
4.921065,3.255483,0.47008327,1.0285795,2.5994456,7.1347213,1.5945383,-1.7717092
4.9203596,3.268068,0.47008327,1.0285795,2.5994456,7.1347213,1.5945383,-1.7717092
4.9196496,3.2821765,0.4924538,1.1052786,2.8561742,7.177817,1.6232687,-1.9297266
4.918996,3.2960682,0.4924538,1.1052786,2.8561742,7.177817,1.6232687,-1.9297266
4.9183483,3.3113952,0.5126938,1.167064,3.0915978,7.359776,1.6280571,-1.9249382
4.9177504,3.3267834,0.5126938,1.167064,3.0915978,7.359776,1.6280571,-1.9249382
4.917198,3.3433535,0.5318686,1.2150007,3.306781,7.359776,1.6280571,-1.9393034
4.9167013,3.3600078,0.5318686,1.2150007,3.306781,7.359776,1.6280571,-1.9393034
4.916273,3.3777318,0.5489128,1.2501545,3.5059855,7.3789296,1.6424223,-1.9440918
4.9159074,3.3955774,0.5489128,1.2501545,3.5059855,7.3789296,1.6424223,-1.9440918
4.9156375,3.4143343,0.5648918,1.2746556,3.6892111,7.374141,1.4748282,-1.9776106
4.9154396,3.433002,0.5648918,1.2746556,3.6892111,7.374141,1.4748282,-1.9776106
4.915345,3.4526782,0.58406657,1.284243,3.8521965,7.881712,1.4317327,-1.9871874
4.9153285,3.472404,0.58406657,1.284243,3.8521965,7.881712,1.4317327,-1.9871874
4.915429,3.4927135,0.6011108,1.2863735,3.9970725,8.571242,1.3694834,-1.9919758
4.915611,3.5129335,0.6011108,1.2863735,3.9970725,8.571242,1.3694834,-1.9919758
4.915901,3.533765,0.61495924,1.2916999,4.1185126,9.428367,1.5466543,-1.8962077
4.9162784,3.5545273,0.61495924,1.2916999,4.1185126,9.428367,1.5466543,-1.8962077
4.9167457,3.5756872,0.62667716,1.3066136,4.200538,10.189722,1.910573,-1.6328455
4.9173017,3.5966768,0.62667716,1.3066136,4.200538,10.189722,1.910573,-1.6328455
4.9179306,3.6179094,0.6320035,1.3375062,4.2399526,10.366894,2.3750482,-1.2354081
4.918648,3.6388955,0.6320035,1.3375062,4.2399526,10.366894,2.3750482,-1.2354081
4.9194202,3.6599288,0.6298729,1.3779863,4.2303653,10.060435,2.920926,-1.091756
4.920277,3.6806703,0.6298729,1.3779863,4.2303653,10.060435,2.920926,-1.091756
4.921171,3.7012606,0.6192203,1.4174011,4.181363,9.490616,3.2992098,-1.0247183
4.9221506,3.721625,0.6192203,1.4174011,4.181363,9.490616,3.2992098,-1.0247183
4.9231524,3.7414534,0.6000455,1.4429674,4.1099906,8.882488,3.53863,-1.0247183
4.924237,3.7611454,0.6000455,1.4429674,4.1099906,8.882488,3.53863,-1.0247183
4.9253597,3.7805715,0.5755444,1.4514894,4.019443,8.485051,3.6056678,-1.0199299
4.9265347,3.799354,0.5755444,1.4514894,4.019443,8.485051,3.6056678,-1.0199299
4.927739,3.8176138,0.54465175,1.4387063,3.918243,8.106767,3.5529952,-1.0821792
4.9303255,3.8532782,0.5126938,1.4078137,3.8085206,7.824251,3.394978,-1.1204864
4.931639,3.869797,0.5126938,1.4078137,3.8085206,7.824251,3.394978,-1.1204864
4.931639,3.869797,0.5126938,1.4078137,3.8085206,7.824251,3.394978,-1.1204864
4.933053,3.8866258,0.47967064,1.3641378,3.6892111,7.479486,3.1651347,-1.0199299
4.935128,3.9097505,0.47967064,1.3641378,3.6892111,7.479486,3.1651347,-1.0199299
4.936079,3.9197073,0.44345164,1.3066136,3.5613792,7.1730285,2.8682537,-1.0390835
4.937399,3.93304,0.44345164,1.3066136,3.5613792,7.1730285,2.8682537,-1.0390835
4.9388885,3.9472556,0.40936318,1.2395018,3.4324822,6.895301,2.5761611,-1.0486604
4.940813,3.9647493,0.40936318,1.2395018,3.4324822,6.895301,2.5761611,-1.0486604
4.9419394,3.9743786,0.37420946,1.1606723,3.2993243,6.71813,2.2936451,-1.0486604
4.943519,3.9874218,0.37420946,1.1606723,3.2993243,6.71813,2.2936451,-1.0486604
4.945085,3.999551,0.3369252,1.0743859,3.1682968,6.531382,2.054225,-1.0055647
4.946699,4.0116243,0.3369252,1.0743859,3.1682968,6.531382,2.054225,-1.0055647
4.948664,4.025306,0.3017715,0.9817079,3.0436609,6.3685765,1.7717092,-0.94331545
4.9500046,4.0343475,0.3017715,0.9817079,3.0436609,6.3685765,1.7717092,-0.94331545
4.9516864,4.044944,0.26768303,0.88050777,2.9200902,6.2823853,1.3934253,-0.81402856
4.9533052,4.054858,0.26768303,0.88050777,2.9200902,6.2823853,1.3934253,-0.81402856
4.954934,4.0641155,0.23892088,0.77185076,2.8039763,6.301539,1.0007763,-0.6847417
4.9565725,4.0731845,0.23892088,0.77185076,2.8039763,6.301539,1.0007763,-0.6847417
4.9582605,4.0818405,0.2144198,0.6631938,2.6963847,6.3925185,0.62249243,-0.58418524
4.959902,4.0900526,0.2144198,0.6631938,2.6963847,6.3925185,0.62249243,-0.58418524
4.9615703,4.097799,0.19524503,0.5545368,2.5994456,6.3685765,0.07182605,-0.45968673
4.9632583,4.1054606,0.19524503,0.5545368,2.5994456,6.3685765,0.07182605,-0.45968673
4.9649525,4.1125813,0.18246186,0.44801039,2.5120938,6.277597,-0.4309563,-0.4165911
4.966667,4.1196303,0.18246186,0.44801039,2.5120938,6.277597,-0.4309563,-0.4165911
4.9684067,4.1262493,0.17713554,0.34148395,2.4417863,6.14831,-0.9528923,-0.35913026
4.970151,4.1327534,0.17713554,0.34148395,2.4417863,6.14831,-0.9528923,-0.35913026
4.972008,4.1390038,0.18033133,0.23708802,2.392784,6.0046577,-1.4891934,-0.4261679
4.973875,4.145168,0.18033133,0.23708802,2.392784,6.0046577,-1.4891934,-0.4261679
4.975832,4.1508784,0.19204924,0.13801843,2.368283,5.851429,-2.0398598,-0.35434186
4.977812,4.1565504,0.19204924,0.13801843,2.368283,5.851429,-2.0398598,-0.35434186
4.9798794,4.1618476,0.21228927,0.043209895,2.3736095,5.731719,-2.4851813,-0.35434186
4.9819574,4.167075,0.21228927,0.043209895,2.3736095,5.731719,-2.4851813,-0.35434186
4.9841447,4.1720476,0.2410514,-0.04627232,2.4087632,5.592855,-2.8682537,-0.36391866
4.986312,4.1768837,0.2410514,-0.04627232,2.4087632,5.592855,-2.8682537,-0.36391866
4.9885955,4.181548,0.27620512,-0.12723242,2.471614,5.482722,-3.1842883,-0.38307226
4.9908876,4.186143,0.27620512,-0.12723242,2.471614,5.482722,-3.1842883,-0.38307226
4.9933,4.1906495,0.3188157,-0.19860514,2.5642917,5.3725886,-3.4284968,-0.31124622
4.995718,4.1950827,0.3188157,-0.19860514,2.5642917,5.3725886,-3.4284968,-0.31124622
4.9982824,4.199495,0.36675262,-0.26039046,2.6825361,5.257667,-3.6774938,-0.35434186
5.0008507,4.2038317,0.36675262,-0.26039046,2.6825361,5.257667,-3.6774938,-0.35434186
5.0035715,4.2082114,0.42001584,-0.31152317,2.823151,5.1762643,-3.9695864,-0.35913026
5.006295,4.2125096,0.42001584,-0.31152317,2.823151,5.1762643,-3.9695864,-0.35913026
5.0092125,4.216959,0.47647485,-0.35732955,2.9861364,5.1379566,-4.1659107,-0.24420857
5.012084,4.2212486,0.47647485,-0.35732955,2.9861364,5.1379566,-4.1659107,-0.24420857
5.015165,4.2257113,0.5350644,-0.3978096,3.1704273,5.085284,-4.4436383,-0.20590134
5.018254,4.2300925,0.5350644,-0.3978096,3.1704273,5.085284,-4.4436383,-0.20590134
5.0215354,4.234641,0.597915,-0.43083277,3.3728275,5.118803,-4.793192,-0.16280572
5.0248427,4.2391276,0.597915,-0.43083277,3.3728275,5.118803,-4.793192,-0.16280572
5.0283422,4.2438107,0.6639614,-0.4542686,3.5933373,5.056554,-5.118803,-0.023942016
5.0318484,4.2483997,0.6639614,-0.4542686,3.5933373,5.056554,-5.118803,-0.023942016
5.035583,4.2532196,0.7353341,-0.4755739,3.8298259,4.6495395,-5.5641246,0.1340753
5.0392895,4.257895,0.7353341,-0.4755739,3.8298259,4.6495395,-5.5641246,0.1340753
5.043287,4.2628746,0.8141637,-0.500075,4.0769672,5.2002063,-5.90889,0.23463176
5.04729,4.267744,0.8141637,-0.500075,4.0769672,5.2002063,-5.90889,0.23463176
5.0515356,4.272866,0.90151536,-0.51285815,4.3432837,5.133168,-6.2967505,0.30645782
5.055753,4.277832,0.90151536,-0.51285815,4.3432837,5.133168,-6.2967505,0.30645782
5.0602684,4.2831306,0.99845445,-0.5160539,4.6309047,5.1666875,-6.7229185,0.2873042
5.0648227,4.28834,0.99845445,-0.5160539,4.6309047,5.1666875,-6.7229185,0.2873042
5.0696306,4.2938347,1.1028503,-0.51072764,4.9398317,5.0661306,-7.1347213,0.23942018
5.0744476,4.2991977,1.1028503,-0.51072764,4.9398317,5.0661306,-7.1347213,0.23942018
5.0795813,4.304911,1.2157683,-0.50114024,5.273259,4.9943047,-7.5848308,0.19632454
5.084725,4.310482,1.2157683,-0.50114024,5.273259,4.9943047,-7.5848308,0.19632454
5.0902023,4.3164163,1.3361433,-0.48622653,5.631188,5.0278234,-7.9631147,0.17717093
5.095685,4.322192,1.3361433,-0.48622653,5.631188,5.0278234,-7.9631147,0.17717093
5.101531,4.3283463,1.4650402,-0.46598652,6.0125527,5.00867,-8.365341,0.110133275
5.1073823,4.3343315,1.4650402,-0.46598652,6.0125527,5.00867,-8.365341,0.110133275
5.1136274,4.340705,1.6003288,-0.44042018,6.4184184,4.8027687,-8.738836,-0.009576807
5.119873,4.3468933,1.6003288,-0.44042018,6.4184184,4.8027687,-8.738836,-0.009576807
5.126531,4.353461,1.7409438,-0.4095275,6.84772,4.4484267,-9.107543,-0.21547815
5.1332026,4.3598456,1.7409438,-0.4095275,6.84772,4.4484267,-9.107543,-0.21547815
5.1403036,4.3666077,1.886885,-0.37756956,7.302588,4.735731,-9.370906,-0.20111294
5.147419,4.373177,1.886885,-0.37756956,7.302588,4.735731,-9.370906,-0.20111294
5.154985,4.3801107,2.0381525,-0.3413506,7.7755656,5.0374002,-9.533711,-0.2825158
5.1625667,4.3868427,2.0381525,-0.3413506,7.7755656,5.0374002,-9.533711,-0.2825158
5.170614,4.393915,2.1936812,-0.29980525,8.260261,4.721366,-9.548077,-0.545878
5.1786776,4.400777,2.1936812,-0.29980525,8.260261,4.721366,-9.548077,-0.545878
5.1872206,4.407971,2.3492098,-0.25186837,8.75987,4.5298295,-9.56723,-0.6560113
5.1957808,4.414948,2.3492098,-0.25186837,8.75987,4.5298295,-9.56723,-0.6560113
5.2048373,4.422227,2.499412,-0.1996704,9.272262,4.7740383,-9.907207,-0.9672575
5.213939,4.4293046,2.499412,-0.1996704,9.272262,4.7740383,-9.907207,-0.9672575
5.22348,4.4366403,2.6496143,-0.14321138,9.789981,4.9464207,-10.070012,-0.59855044
5.233069,4.443773,2.6496143,-0.14321138,9.789981,4.9464207,-10.070012,-0.59855044
5.243155,4.4511642,2.7966208,-0.08249131,10.302373,5.329493,-10.266336,-0.6464345
5.25326,4.4583273,2.7966208,-0.08249131,10.302373,5.329493,-10.266336,-0.6464345
5.2639856,4.465812,2.942562,-0.017510178,10.808373,5.66947,-10.7356,-0.6943185
5.2746468,4.473007,2.942562,-0.017510178,10.808373,5.66947,-10.7356,-0.6943185
5.2856636,4.4803305,3.0863729,0.050666746,11.296265,5.9184666,-11.243171,-0.61770403
5.2967334,4.487452,3.0863729,0.050666746,11.296265,5.9184666,-11.243171,-0.61770403
5.3083305,4.494801,3.229118,0.11990894,11.766047,6.2345014,-11.884817,-0.46447513
5.3199244,4.501913,3.229118,0.11990894,11.766047,6.2345014,-11.884817,-0.46447513
5.3319554,4.509175,3.3718636,0.18915112,12.220914,6.493075,-12.392388,-0.46926352
5.344007,4.516221,3.3718636,0.18915112,12.220914,6.493075,-12.392388,-0.46926352
5.3564186,4.523364,3.51887,0.25839332,12.658738,6.670246,-12.938266,-0.58897364
5.3689375,4.5303473,3.51887,0.25839332,12.658738,6.670246,-12.938266,-0.58897364
5.3818827,4.5374584,3.671203,0.32657024,13.083778,6.579266,-13.498509,-0.7134721
5.394833,4.544359,3.671203,0.32657024,13.083778,6.579266,-13.498509,-0.7134721
5.408219,4.551381,3.827797,0.3936819,13.501362,6.50744,-13.962984,-1.0726024
5.4216366,4.558214,3.827797,0.3936819,13.501362,6.50744,-13.962984,-1.0726024
5.4354444,4.5651426,3.9886518,0.45759776,13.913619,6.3542113,-14.422671,-1.3263878
5.449297,4.5718975,3.9886518,0.45759776,13.913619,6.3542113,-14.422671,-1.3263878
5.463548,4.5787363,4.1484413,0.51192623,14.318419,6.8330517,-15.049952,-1.6472107
5.477816,4.585397,4.1484413,0.51192623,14.318419,6.8330517,-15.049952,-1.6472107
5.4924765,4.5921335,4.3018394,0.563059,14.70298,8.0924015,-15.562311,-1.9057846
5.507153,4.5987,4.3018394,0.563059,14.70298,8.0924015,-15.562311,-1.9057846
5.52216,4.605346,4.44565,0.62271374,15.0428,10.342952,-15.734694,-1.6519991
5.537212,4.611843,4.44565,0.62271374,15.0428,10.342952,-15.734694,-1.6519991
5.552481,4.618477,4.5788083,0.712196,15.301659,12.555194,-15.078682,-1.1204864
5.5677786,4.6249704,4.5788083,0.712196,15.301659,12.555194,-15.078682,-1.1204864
5.5829945,4.631566,4.6895957,0.85068035,15.453992,14.020445,-13.843274,-0.50278234
5.598214,4.638008,4.6895957,0.85068035,15.453992,14.020445,-13.843274,-0.50278234
5.6134744,4.644544,4.7694907,1.0339059,15.4816885,14.389153,-12.339716,0.038307227
5.62873,4.650937,4.7694907,1.0339059,15.4816885,14.389153,-12.339716,0.038307227
5.644606,4.6576967,4.809971,1.2405671,15.399663,13.8241205,-11.171345,0.47884035
5.662257,4.665045,4.809971,1.2405671,15.399663,13.8241205,-11.171345,0.47884035
5.6745872,4.670248,4.8121014,1.4387063,15.242004,13.038822,-10.338163,0.62249243
5.6890326,4.676241,4.8121014,1.4387063,15.242004,13.038822,-10.338163,0.62249243
5.7042837,4.682625,4.783339,1.6059529,15.037474,12.176909,-9.969456,0.7326257
5.7185807,4.6885014,4.783339,1.6059529,15.037474,12.176909,-9.969456,0.7326257
5.73321,4.694537,4.731141,1.731654,14.808441,11.238382,-10.0987425,0.8331822
5.7478642,4.7004805,4.731141,1.731654,14.808441,11.238382,-10.0987425,0.8331822
5.7622957,4.7063274,4.66616,1.8190057,14.571953,10.333375,-10.477027,0.93373865
5.776722,4.712079,4.66616,1.8190057,14.571953,10.333375,-10.477027,0.93373865
5.7909336,4.717724,4.6001134,1.8712037,14.3312025,9.519346,-11.022904,0.91458505
5.8051815,4.7232995,4.6001134,1.8712037,14.3312025,9.519346,-11.022904,0.91458505
5.8191476,4.728736,4.537263,1.8978353,14.085127,8.686164,-11.501745,0.7230489
5.8331347,4.734105,4.537263,1.8978353,14.085127,8.686164,-11.501745,0.7230489
5.8468757,4.7393336,4.4786735,1.9042269,13.837985,7.8912888,-11.899182,0.33039984
5.860624,4.744498,4.4786735,1.9042269,13.837985,7.8912888,-11.899182,0.33039984
5.8741345,4.7495074,4.4222145,1.8935742,13.585518,7.129933,-12.148179,-0.038307227
5.887653,4.754465,4.4222145,1.8935742,13.585518,7.129933,-12.148179,-0.038307227
5.900951,4.7592835,4.3604293,1.8712037,13.324528,6.6846113,-12.239159,-0.35434186
5.9142256,4.76405,4.3604293,1.8712037,13.324528,6.6846113,-12.239159,-0.35434186
5.9272547,4.7686915,4.291187,1.8371153,13.048625,6.3925185,-12.29662,-0.50278234
5.9402986,4.7733016,4.291187,1.8371153,13.048625,6.3925185,-12.29662,-0.50278234
5.953027,4.777771,4.2091613,1.7955699,12.749286,6.205771,-12.100295,-0.6943185
5.9657683,4.7822137,4.2091613,1.7955699,12.749286,6.205771,-12.100295,-0.6943185
5.9781847,4.786521,4.1122227,1.7486982,12.422249,6.0860605,-11.717223,-0.79966336
5.9906015,4.790802,4.1122227,1.7486982,12.422249,6.0860605,-11.717223,-0.79966336
6.0029135,4.7950196,3.9950433,1.6933045,12.065386,5.9663506,-11.348516,-0.8475474
6.0147924,4.7990665,3.9950433,1.6933045,12.065386,5.9663506,-11.348516,-0.8475474
6.026418,4.803003,3.86082,1.622997,11.674434,5.875371,-10.802638,-0.7757214
6.0380917,4.8069367,3.86082,1.622997,11.674434,5.875371,-10.802638,-0.7757214
6.0493164,4.8106985,3.7138135,1.5345801,11.2493925,5.9041014,-10.180145,-0.6512229
6.0605416,4.814446,3.7138135,1.5345801,11.2493925,5.9041014,-10.180145,-0.6512229
6.071297,4.818019,3.5604155,1.4280537,10.791329,5.9998693,-9.543288,-0.61770403
6.082053,4.821581,3.5604155,1.4280537,10.791329,5.9998693,-9.543288,-0.61770403
6.082053,4.821581,3.3984952,1.3066136,10.300242,6.1195793,-8.896853,-0.7134721
6.103154,4.8285246,3.3984952,1.3066136,10.300242,6.1195793,-8.896853,-0.7134721
6.1128182,4.831685,3.2312486,1.1691945,9.780394,6.191406,-8.374918,-0.9528923
6.140885,4.8408365,3.058676,1.022188,9.233912,6.181829,-7.905654,-1.0199299
6.140885,4.8408365,3.058676,1.022188,9.233912,6.0046577,-7.52737,-0.9768343
6.140885,4.8408365,2.8786461,0.8698551,8.665061,6.0046577,-7.52737,-0.9768343
6.140885,4.8408365,2.8786461,0.8698551,8.665061,6.0046577,-7.52737,-0.9768343
6.140885,4.8408365,2.8786461,0.8698551,8.665061,6.0046577,-7.52737,-0.9768343
6.1693177,4.850089,2.6943555,0.716457,8.081296,5.731719,-7.129933,-1.0821792
6.1744137,4.8517475,2.6943555,0.716457,8.081296,5.731719,-7.129933,-1.0821792
6.181695,4.8541164,2.5058036,0.5609284,7.492205,5.3007627,-6.8186865,-1.0534488
6.1890926,4.856526,2.5058036,0.5609284,7.492205,5.3007627,-6.8186865,-1.0534488
6.195831,4.858715,2.309795,0.40646508,6.8967223,4.8698063,-6.5744777,-1.1109096
6.206743,4.862267,2.309795,0.40646508,6.8967223,4.8698063,-6.5744777,-1.1109096
6.2091227,4.8630385,2.1105905,0.2498712,6.3055005,4.4484267,-6.349423,-1.13964
6.2152596,4.8650312,2.1105905,0.2498712,6.3055005,4.4484267,-6.349423,-1.13964
6.220815,4.8668222,1.9081903,0.09434259,5.72067,4.0940847,-6.2249246,-1.1971009
6.2263746,4.868618,1.9081903,0.09434259,5.72067,4.0940847,-6.2249246,-1.1971009
6.231326,4.870206,1.7068553,-0.064381815,5.1454277,3.715801,-6.1770406,-1.1109096
6.236266,4.8717947,1.7068553,-0.064381815,5.1454277,3.715801,-6.1770406,-1.1109096
6.2406387,4.873188,1.5076509,-0.2294978,4.5819025,3.3901896,-6.0381765,-1.0007763
6.2449093,4.874553,1.5076509,-0.2294978,4.5819025,3.3901896,-6.0381765,-1.0007763
6.248718,4.875757,1.3137727,-0.3978096,4.0343566,3.107674,-5.8801594,-0.94331545
6.2526083,4.8769917,1.3137727,-0.3978096,4.0343566,3.107674,-5.8801594,-0.94331545
6.2558603,4.8780136,1.1273514,-0.5714477,3.5017245,2.882619,-5.6982,-0.8714894
6.2591014,4.879036,1.1273514,-0.5714477,3.5017245,2.882619,-5.6982,-0.8714894
6.261817,4.8798857,0.94625646,-0.7504121,2.9914627,2.8443117,-5.5737014,-0.7469909
6.2645264,4.8807373,0.94625646,-0.7504121,2.9914627,2.8443117,-5.5737014,-0.7469909
6.266712,4.881423,0.7694226,-0.92724603,2.5035717,3.0454245,-5.511452,-0.48362875
6.268897,4.8821125,0.7694226,-0.92724603,2.5035717,3.0454245,-5.511452,-0.48362875
6.270595,4.8826437,0.6000455,-1.0944926,2.0423121,3.3327289,-5.592855,-0.30166942
6.2722917,4.8831778,0.6000455,-1.0944926,2.0423121,3.3327289,-5.592855,-0.30166942
6.273533,4.883563,0.43812534,-1.2425643,1.6108801,3.667917,-5.717354,-0.019153614
6.274773,4.8839507,0.43812534,-1.2425643,1.6108801,3.667917,-5.717354,-0.019153614
6.2755876,4.884188,0.28153145,-1.3672003,1.2018186,3.7828386,-5.9041014,0.1436521
6.2764006,4.8844266,0.28153145,-1.3672003,1.2018186,3.7828386,-5.9041014,0.1436521
6.2768273,4.88452,0.1334597,-1.4630741,0.82578015,3.7588966,-6.1866174,0.25378537
6.277254,4.884614,0.1334597,-1.4630741,0.82578015,3.7588966,-6.1866174,0.25378537
6.2773323,4.8845725,-0.0071552116,-1.531251,0.4859608,3.763685,-6.5936313,0.45010993
6.2774115,4.8845305,-0.0071552116,-1.531251,0.4859608,3.763685,-6.5936313,0.45010993
6.277186,4.8843594,-0.139248,-1.5727962,0.18449098,3.7301662,-7.0724716,0.61770403
6.276961,4.8841877,-0.139248,-1.5727962,0.18449098,3.7301662,-7.0724716,0.61770403
6.2764735,4.883904,-0.25855762,-1.5909058,-0.077564076,3.5338416,-7.603985,0.92895025
6.275987,4.8836193,-0.25855762,-1.5909058,-0.077564076,3.5338416,-7.603985,0.92895025
6.275285,4.883229,-0.36508408,-1.5909058,-0.29700854,3.217807,-8.288726,1.1109096
6.2745805,4.8828363,-0.36508408,-1.5909058,-0.29700854,3.217807,-8.288726,1.1109096
6.273708,4.8823524,-0.45456627,-1.5781226,-0.47384244,2.906561,-8.968679,1.2066777
6.2728343,4.8818665,-0.45456627,-1.5781226,-0.47384244,2.906561,-8.968679,1.2066777
6.2718368,4.88131,-0.525939,-1.5568173,-0.60486996,2.5330653,-9.648633,1.3838485
6.27084,4.8807526,-0.525939,-1.5568173,-0.60486996,2.5330653,-9.648633,1.3838485
6.269768,4.880142,-0.57707167,-1.5291204,-0.6868954,2.2840683,-10.266336,1.5035586
6.2686977,4.879531,-0.57707167,-1.5291204,-0.6868954,2.2840683,-10.266336,1.5035586
6.2675996,4.8788805,-0.60902965,-1.4939667,-0.72204906,2.1021092,-10.884041,1.541866
6.2665014,4.878229,-0.60902965,-1.4939667,-0.72204906,2.1021092,-10.884041,1.541866
6.265425,4.8775578,-0.6218128,-1.4460298,-0.71139646,1.8435353,-11.401189,1.5753847
6.2643514,4.876886,-0.6218128,-1.4460298,-0.71139646,1.8435353,-11.401189,1.5753847
6.263338,4.8762183,-0.618617,-1.3842444,-0.65919846,1.6136919,-11.84651,1.7142484
6.2623253,4.8755503,-0.618617,-1.3842444,-0.65919846,1.6136919,-11.84651,1.7142484
6.261418,4.874894,-0.60263807,-1.3096759,-0.5675857,1.4413095,-12.29662,1.7764976
6.2605104,4.874237,-0.60263807,-1.3096759,-0.5675857,1.4413095,-12.29662,1.7764976
6.2597375,4.8735943,-0.57494116,-1.22552,-0.44294977,1.3072342,-12.741941,1.8004397
6.2589946,4.872976,-0.57494116,-1.22552,-0.44294977,1.3072342,-12.741941,1.8004397
6.2583923,4.8723855,-0.5355264,-1.1328421,-0.29168224,1.3359646,-13.067553,1.8914193
6.2577763,4.8717813,-0.5355264,-1.1328421,-0.29168224,1.3359646,-13.067553,1.8914193
6.257354,4.871271,-0.48758948,-1.0327072,-0.120174654,1.5562311,-13.412318,2.183512
6.2569337,4.870763,-0.48758948,-1.0327072,-0.120174654,1.5562311,-13.412318,2.183512
6.256708,4.870325,-0.43113047,-0.92511547,0.058789775,1.8770541,-13.613431,2.4181437
6.256457,4.869836,-0.43113047,-0.92511547,0.058789775,1.8770541,-13.613431,2.4181437
6.2564306,4.8695135,-0.37147567,-0.80793643,0.23136261,2.303222,-13.733141,2.633622
6.256402,4.8691545,-0.37147567,-0.80793643,0.23136261,2.303222,-13.733141,2.633622
6.25656,4.8688674,-0.30969033,-0.68330044,0.3932828,2.4612393,-13.781025,2.896984
6.2567177,4.8685813,-0.30969033,-0.68330044,0.3932828,2.4612393,-13.781025,2.896984
6.257048,4.868366,-0.24683972,-0.5544035,0.5413546,2.3894134,-13.809755,3.0023289
6.257378,4.8681507,-0.24683972,-0.5544035,0.5413546,2.3894134,-13.809755,3.0023289
6.257864,4.868011,-0.18398911,-0.42870227,0.6745126,2.2505496,-13.8480625,3.1603463
6.2583523,4.8678713,-0.18398911,-0.42870227,0.6745126,2.2505496,-13.8480625,3.1603463
6.2589874,4.867805,-0.11900798,-0.31152317,0.79488754,2.0638018,-13.929465,3.2369606
6.2596207,4.8677387,-0.11900798,-0.31152317,0.79488754,2.0638018,-13.929465,3.2369606
6.260377,4.8677454,-0.050831053,-0.20712726,0.9035445,1.9009962,-13.9151,3.193865
6.261138,4.8677516,-0.050831053,-0.20712726,0.9035445,1.9009962,-13.9151,3.193865
6.2620106,4.867832,0.019476399,-0.11444924,1.0004835,1.7381904,-13.876793,3.122039
6.262891,4.8679123,0.019476399,-0.11444924,1.0004835,1.7381904,-13.876793,3.122039
6.263854,4.868063,0.087653324,-0.033489145,1.0867699,1.5370775,-13.8241205,3.0310593
6.2648315,4.8682156,0.087653324,-0.033489145,1.0867699,1.5370775,-13.8241205,3.0310593
6.265864,4.868435,0.15476498,0.03468778,1.1581427,1.2497733,-13.752295,2.9257145
6.2669005,4.8686543,0.15476498,0.03468778,1.1581427,1.2497733,-13.752295,2.9257145
6.268027,4.868946,0.21974611,0.089016266,1.2177975,1.067814,-13.599066,2.825158
6.2691493,4.8692365,0.21974611,0.089016266,1.2177975,1.067814,-13.599066,2.825158
6.2703295,4.8695917,0.2804662,0.13056158,1.2646692,0.81881696,-13.359646,2.6479871
6.2715077,4.8699455,0.2804662,0.13056158,1.2646692,0.81881696,-13.359646,2.6479871
6.272731,4.8703604,0.3369252,0.15825845,1.2976923,0.6799533,-13.086706,2.5809495
6.273952,4.8707747,0.3369252,0.15825845,1.2976923,0.6799533,-13.086706,2.5809495
6.2752485,4.87126,0.38699263,0.17210689,1.3200629,0.45010993,-12.818556,2.5330653
6.2765226,4.8717375,0.38699263,0.17210689,1.3200629,0.45010993,-12.818556,2.5330653
6.277773,4.872247,0.432799,0.16997637,1.328585,0.45489833,-12.5025215,2.4181437
6.2790365,4.8727627,0.432799,0.16997637,1.328585,0.45489833,-12.5025215,2.4181437
6.2802587,4.873297,0.47327906,0.1571932,1.3253893,0.51235914,-12.220005,2.2505496
6.2814837,4.8738317,0.47327906,0.1571932,1.3253893,0.51235914,-12.220005,2.2505496
6.2826786,4.874382,0.5084328,0.1358879,1.3168671,0.51714754,-11.9135475,2.111686
0.00068749394,4.8749313,0.5084328,0.1358879,1.3168671,0.51714754,-11.9135475,2.111686
0.0018473408,4.87549,0.5393255,0.104995236,1.296627,0.545878,-11.501745,1.9680338
0.0030088292,4.8760495,0.5393255,0.104995236,1.296627,0.545878,-11.501745,1.9680338
0.004130775,4.876634,0.56276125,0.06877624,1.2646692,0.6512229,-11.142614,1.9536686
0.0052532917,4.8772182,0.56276125,0.06877624,1.2646692,0.6512229,-11.142614,1.9536686
0.0063318275,4.877812,0.577675,0.030426722,1.2252543,0.8283938,-10.836157,1.8866309
0.007404701,4.8784013,0.577675,0.030426722,1.2252543,0.8283938,-10.836157,1.8866309
0.008429397,4.8789983,0.5851318,-0.005792269,1.1815785,0.94331545,-10.630256,1.8626889
0.009454803,4.879595,0.5851318,-0.005792269,1.1815785,0.94331545,-10.630256,1.8626889
0.01042494,4.880187,0.58832765,-0.040945996,1.1325763,1.0726024,-10.429143,1.7717092
0.011394938,4.8807783,0.58832765,-0.040945996,1.1325763,1.0726024,-10.429143,1.7717092
0.012305431,4.8813562,0.58726233,-0.07183866,1.0771827,1.1300632,-10.208876,1.6232687
0.013215807,4.881934,0.58726233,-0.07183866,1.0771827,1.1300632,-10.208876,1.6232687
0.0140622305,4.882499,0.58193606,-0.09740501,1.0153973,1.1875241,-9.969456,1.508347
0.014908559,4.8830643,0.58193606,-0.09740501,1.0153973,1.1875241,-9.969456,1.508347
0.015691983,4.8836145,0.57234865,-0.11657977,0.9536119,1.2306197,-9.720459,1.4077905
0.016475338,4.884165,0.57234865,-0.11657977,0.9536119,1.2306197,-9.720459,1.4077905
0.017192265,4.8847036,0.55636966,-0.12829769,0.88969606,1.3024458,-9.385271,1.3934253
0.017909016,4.8852434,0.55636966,-0.12829769,0.88969606,1.3024458,-9.385271,1.3934253
0.018555626,4.8857617,0.5318686,-0.133624,0.8204539,1.3359646,-9.14585,1.3982137
0.019202024,4.8862805,0.5318686,-0.133624,0.8204539,1.3359646,-9.14585,1.3982137
0.019772267,4.8867784,0.5009759,-0.13575453,0.74482006,1.3311762,-8.8777,1.4700398
0.020341888,4.8872757,0.5009759,-0.13575453,0.74482006,1.3311762,-8.8777,1.4700398
0.020832166,4.8877435,0.46582222,-0.13575453,0.66385996,1.2258313,-8.652645,1.4987702
0.021322763,4.8882117,0.46582222,-0.13575453,0.66385996,1.2258313,-8.652645,1.4987702
0.021728024,4.8886385,0.4242769,-0.13468927,0.57757354,1.1444284,-8.513782,1.4891934
0.022140471,4.8890734,0.4242769,-0.13468927,0.57757354,1.1444284,-8.513782,1.4891934
0.022450345,4.8894587,0.3816663,-0.13468927,0.4859608,1.0630256,-8.413225,1.5562311
0.022765517,4.88985,0.3816663,-0.13468927,0.4859608,1.0630256,-8.413225,1.5562311
0.022986298,4.890193,0.33799046,-0.13895033,0.3911523,0.9911995,-8.394072,1.508347
0.023262601,4.890622,0.33799046,-0.13895033,0.3911523,0.9911995,-8.394072,1.508347
0.023357851,4.8908486,0.29324937,-0.14534192,0.29634374,0.90021986,-8.355764,1.5227122
0.023484243,4.891149,0.29324937,-0.14534192,0.29634374,0.90021986,-8.355764,1.5227122
0.02351599,4.891398,0.25063878,-0.15386403,0.20260048,0.8283938,-8.389283,1.4891934
0.023548232,4.89165,0.25063878,-0.15386403,0.20260048,0.8283938,-8.389283,1.4891934
0.023488877,4.8918595,0.20589767,-0.1634514,0.11098773,0.7230489,-8.403648,1.5275006
0.02342916,4.89207,0.20589767,-0.1634514,0.11098773,0.7230489,-8.403648,1.5275006
0.02328024,4.89223,0.1632871,-0.17516932,0.022570781,0.63206923,-8.480263,1.4939818
0.023131385,4.8923893,0.1632871,-0.17516932,0.022570781,0.63206923,-8.480263,1.4939818
0.022897774,4.8924956,0.119611256,-0.18688722,-0.06158511,0.56982,-8.542512,1.4556746
0.022663938,4.8926024,0.119611256,-0.18688722,-0.06158511,0.56982,-8.542512,1.4556746
0.022357408,4.8926535,0.07806595,-0.19860514,-0.14041469,0.51235914,-8.6334915,1.4077905
0.022047956,4.8927045,0.07806595,-0.19860514,-0.14041469,0.51235914,-8.6334915,1.4077905
0.021669803,4.8927145,0.037585896,-0.2113883,-0.21391793,0.50757074,-8.719683,1.4221559
0.021284858,4.892724,0.037585896,-0.2113883,-0.21391793,0.50757074,-8.719683,1.4221559
0.020833254,4.8926992,0.001366904,-0.22417149,-0.28209487,0.5315128,-8.844181,1.4508862
0.020381361,4.8926744,0.001366904,-0.22417149,-0.28209487,0.5315128,-8.844181,1.4508862
0.01986021,4.8926287,-0.032721557,-0.23801991,-0.3460107,0.5410896,-8.99741,1.5514427
0.019338598,4.892583,-0.032721557,-0.23801991,-0.3460107,0.5410896,-8.99741,1.5514427
0.01875585,4.8925114,-0.0614837,-0.25080308,-0.40460026,0.5602432,-9.083601,1.5849615
0.018174846,4.8924403,-0.0614837,-0.25080308,-0.40460026,0.5602432,-9.083601,1.5849615
0.017069241,4.8923035,-0.08598478,-0.26358625,-0.45892876,0.58418524,-9.198523,1.6950948
0.016171092,4.8921695,-0.106224805,-0.27636945,-0.50580037,0.62728083,-9.313444,1.6663644
0.016171092,4.8921695,-0.106224805,-0.27636945,-0.50580037,0.62728083,-9.313444,1.6663644
0.015460045,4.8920574,-0.106224805,-0.27636945,-0.50580037,0.62728083,-9.313444,1.6663644
0.015460045,4.8920574,-0.106224805,-0.27636945,-0.50580037,0.62728083,-9.313444,1.6663644
0.013844477,4.8917823,-0.12326904,-0.28702208,-0.54628044,0.59855044,-9.466674,1.6998832
0.01328866,4.8916874,-0.13392168,-0.29447892,-0.5803689,0.545878,-9.586384,1.7429788
0.012522125,4.8915567,-0.13392168,-0.29447892,-0.5803689,0.545878,-9.586384,1.7429788
0.011759231,4.8914194,-0.14137854,-0.29980525,-0.60273945,0.5267244,-9.739613,1.7525556
0.010979863,4.891279,-0.14137854,-0.29980525,-0.60273945,0.5267244,-9.739613,1.7525556
0.010180301,4.891135,-0.1456396,-0.30406633,-0.61445737,0.48362875,-9.830592,1.7764976
0.009383277,4.8909917,-0.1456396,-0.30406633,-0.61445737,0.48362875,-9.830592,1.7764976
0.00858312,4.8908463,-0.14350906,-0.30513158,-0.6165879,0.45968673,-9.921572,1.7764976
0.007779825,4.8907003,-0.14350906,-0.30513158,-0.6165879,0.45968673,-9.921572,1.7764976
0.0069907005,4.8905563,-0.13818274,-0.3019358,-0.61126155,0.37828386,-10.036493,1.7812861
0.0061904457,4.890411,-0.13818274,-0.3019358,-0.61126155,0.37828386,-10.036493,1.7812861
0.0054034344,4.8902483,-0.13072589,-0.29874,-0.59634787,0.32561144,-10.180145,1.7429788
0.00461339,4.890085,-0.13072589,-0.29874,-0.59634787,0.32561144,-10.180145,1.7429788
0.0038638106,4.889962,-0.121138506,-0.29447892,-0.5718468,0.2681506,-10.280702,1.8387469
0.0031240736,4.8898416,-0.121138506,-0.29447892,-0.5718468,0.2681506,-10.280702,1.8387469
0.0024295435,4.889718,-0.106224805,-0.28702208,-0.5409541,0.18674773,-10.323798,1.8148049
0.0017105206,4.88959,-0.106224805,-0.28702208,-0.5409541,0.18674773,-10.323798,1.8148049
0.0010783016,4.8894234,-0.08811531,-0.27956524,-0.5047351,0.110133275,-10.419566,1.7477672
0.00044753816,4.8892555,-0.08811531,-0.27956524,-0.5047351,0.110133275,-10.419566,1.7477672
6.283015,4.8891253,-0.07000581,-0.26891258,-0.46532035,0.08140286,-10.362105,1.8052281
6.2824,4.8889933,-0.07000581,-0.26891258,-0.46532035,0.08140286,-10.362105,1.8052281
6.2818627,4.8888617,-0.048700526,-0.26039046,-0.42057922,0.033518825,-10.323798,1.8148049
6.2813363,4.8887243,-0.048700526,-0.26039046,-0.42057922,0.033518825,-10.323798,1.8148049
6.280783,4.888699,-0.026329972,-0.25399888,-0.37477285,0.08140286,-10.342952,1.8435353
6.2802296,4.8886743,-0.026329972,-0.25399888,-0.37477285,0.08140286,-10.342952,1.8435353
6.2797413,4.8887186,-0.0050246827,-0.2476073,-0.3289665,0.1388637,-10.309433,1.8818425
6.279254,4.8887644,-0.0050246827,-0.2476073,-0.3289665,0.1388637,-10.309433,1.8818425
6.278861,4.8888674,0.018411135,-0.23908518,-0.28316012,0.14844051,-10.271125,1.958457
6.278469,4.8889704,0.018411135,-0.23908518,-0.28316012,0.14844051,-10.271125,1.958457
6.27808,4.88907,0.045042746,-0.23056307,-0.23628849,0.20590134,-10.199299,1.8962077
6.2776914,4.88917,0.045042746,-0.23056307,-0.23628849,0.20590134,-10.199299,1.8962077
6.2773337,4.889269,0.06634804,-0.21991043,-0.19048211,0.22505496,-10.0748005,1.8435353
6.2769756,4.8893676,0.06634804,-0.21991043,-0.19048211,0.22505496,-10.0748005,1.8435353
6.276697,4.8895245,0.08658806,-0.20819251,-0.14680627,0.21547815,-9.940725,1.8914193
6.276419,4.889681,0.08658806,-0.20819251,-0.14680627,0.21547815,-9.940725,1.8914193
6.276155,4.8897405,0.105762824,-0.19434407,-0.106326215,0.18674773,-9.840169,1.7190368
6.2758923,4.889798,0.105762824,-0.19434407,-0.106326215,0.18674773,-9.840169,1.7190368
6.2756553,4.889908,0.12174179,-0.1815609,-0.0679767,0.15322891,-9.753978,1.7429788
6.2754164,4.890017,0.12174179,-0.1815609,-0.0679767,0.15322891,-9.753978,1.7429788
6.2752757,4.8900676,0.13452496,-0.17090826,-0.03282297,0.12928689,-9.629479,1.6711528
6.275137,4.8901167,0.13452496,-0.17090826,-0.03282297,0.12928689,-9.629479,1.6711528
6.2751336,4.8901625,0.1451776,-0.16132088,-0.0008650357,0.05267244,-9.552865,1.6184803
6.27513,4.8902082,0.1451776,-0.16132088,-0.0008650357,0.05267244,-9.552865,1.6184803
6.275209,4.890278,0.15369973,-0.15279876,0.027897105,-0.009576807,-9.471462,1.6089035
6.275287,4.8903465,0.15369973,-0.15279876,0.027897105,-0.009576807,-9.471462,1.6089035
6.2753954,4.890425,0.16009131,-0.15066823,0.052398186,-0.047884032,-9.399636,1.5705963
6.2755036,4.890503,0.16009131,-0.15066823,0.052398186,-0.047884032,-9.399636,1.5705963
6.2756743,4.8906236,0.1632871,-0.15279876,0.071572945,-0.11971009,-9.26556,1.6041151
6.2758446,4.890743,0.1632871,-0.15279876,0.071572945,-0.11971009,-9.26556,1.6041151
6.2760363,4.890878,0.16541763,-0.15812509,0.08648665,-0.18674773,-9.126697,1.5897499
6.276227,4.8910127,0.16541763,-0.15812509,0.08648665,-0.18674773,-9.126697,1.5897499
6.276424,4.8911386,0.16541763,-0.1666472,0.09820456,-0.25857377,-9.021352,1.532289
6.2766204,4.891264,0.16541763,-0.1666472,0.09820456,-0.25857377,-9.021352,1.532289
6.276824,4.8913846,0.1632871,-0.17943038,0.1088572,-0.25857377,-8.944737,1.5131354
6.277027,4.891505,0.1632871,-0.17943038,0.1088572,-0.25857377,-8.944737,1.5131354
6.277227,4.891609,0.15796077,-0.19327882,0.11631405,-0.2633622,-8.844181,1.460463
6.2774267,4.8917136,0.15796077,-0.19327882,0.11631405,-0.2633622,-8.844181,1.460463
6.2776237,4.8918037,0.15156919,-0.20819251,0.12270564,-0.22505496,-8.743625,1.436521
6.2778196,4.891894,0.15156919,-0.20819251,0.12270564,-0.22505496,-8.743625,1.436521
6.277999,4.89196,0.14091654,-0.22417149,0.12483617,-0.16759412,-8.671799,1.4077905
6.2781825,4.8920283,0.14091654,-0.22417149,0.12483617,-0.16759412,-8.671799,1.4077905
6.278357,4.8920827,0.13026391,-0.23908518,0.12803197,-0.110133275,-8.619126,1.4460979
6.2785354,4.892138,0.13026391,-0.23908518,0.12803197,-0.110133275,-8.619126,1.4460979
6.2787037,4.8921776,0.118545994,-0.25399888,0.12803197,-0.047884032,-8.580819,1.4796166
6.278871,4.892216,0.118545994,-0.25399888,0.12803197,-0.047884032,-8.580819,1.4796166
6.278882,4.8922324,0.105762824,-0.26891258,0.12590143,0.076614454,-8.542512,1.4987702
6.2788925,4.892248,0.105762824,-0.26891258,0.12590143,0.076614454,-8.542512,1.4987702
6.2788234,4.8923073,0.089783855,-0.28276104,0.118444584,0.12928689,-8.523358,1.5275006
6.2787604,4.89236,0.089783855,-0.28276104,0.118444584,0.12928689,-8.523358,1.5275006
6.2786894,4.8923855,0.074870154,-0.29767472,0.106726676,0.20111294,-8.566454,1.4939818
6.2786183,4.8924108,0.074870154,-0.29767472,0.106726676,0.20111294,-8.566454,1.4939818
6.278528,4.892423,0.061021715,-0.31152317,0.0939435,0.2873042,-8.528147,1.4556746
6.27844,4.892435,0.061021715,-0.31152317,0.0939435,0.2873042,-8.528147,1.4556746
6.2783256,4.89245,0.045042746,-0.32643688,0.07689927,0.31603462,-8.508993,1.4891934
6.2782083,4.8924646,0.045042746,-0.32643688,0.07689927,0.31603462,-8.508993,1.4891934
6.2780633,4.892485,0.030129045,-0.3381548,0.056659244,0.33518824,-8.532935,1.5370775
6.277919,4.8925056,0.030129045,-0.3381548,0.056659244,0.33518824,-8.532935,1.5370775
6.2777557,4.892502,0.015215342,-0.34880742,0.037484486,0.33518824,-8.561666,1.5227122
6.277591,4.892498,0.015215342,-0.34880742,0.037484486,0.33518824,-8.561666,1.5227122
6.2774143,4.8924656,0.001366904,-0.35946006,0.021505518,0.35434186,-8.485051,1.4700398
6.2772384,4.8924327,0.001366904,-0.35946006,0.021505518,0.35434186,-8.485051,1.4700398
6.2770376,4.8923955,-0.013546798,-0.37011272,0.0012654932,0.39743748,-8.48984,1.4891934
6.276836,4.892358,-0.013546798,-0.37011272,0.0012654932,0.39743748,-8.48984,1.4891934
6.27662,4.892292,-0.029525764,-0.37863484,-0.015778739,0.44532153,-8.580819,1.460463
6.2764044,4.8922267,-0.029525764,-0.37863484,-0.015778739,0.44532153,-8.580819,1.460463
6.2761655,4.8921833,-0.043374203,-0.38609168,-0.03069244,0.48841715,-8.590396,1.5705963
6.2759256,4.8921404,-0.043374203,-0.38609168,-0.03069244,0.48841715,-8.590396,1.5705963
6.275671,4.8920755,-0.056157377,-0.39248326,-0.043475613,0.49799395,-8.604761,1.5466543
6.2754197,4.8920116,-0.056157377,-0.39248326,-0.043475613,0.49799395,-8.604761,1.5466543
6.2751536,4.891944,-0.07000581,-0.3967443,-0.05732405,0.521936,-8.719683,1.5993267
6.2748866,4.8918757,-0.07000581,-0.3967443,-0.05732405,0.521936,-8.719683,1.5993267
6.2746077,4.8917756,-0.08385425,-0.3999401,-0.0679767,0.5363012,-8.781932,1.5514427
6.2743316,4.891677,-0.08385425,-0.3999401,-0.0679767,0.5363012,-8.781932,1.5514427
6.274043,4.891566,-0.09557216,-0.40207064,-0.078629345,0.56982,-8.820239,1.5562311
6.2737556,4.891455,-0.09557216,-0.40207064,-0.078629345,0.56982,-8.820239,1.5562311
6.273454,4.891342,-0.107290074,-0.40207064,-0.08928198,0.6368576,-8.896853,1.6041151
6.273156,4.89123,-0.107290074,-0.40207064,-0.08928198,0.6368576,-8.896853,1.6041151
6.272847,4.891097,-0.11794271,-0.40313593,-0.09993463,0.6751649,-8.992621,1.5753847
6.272538,4.8909636,-0.11794271,-0.40313593,-0.09993463,0.6751649,-8.992621,1.5753847
6.2722187,4.89082,-0.1275301,-0.40313593,-0.108456746,0.6607997,-9.083601,1.5945383
6.2719026,4.8906784,-0.1275301,-0.40313593,-0.108456746,0.6607997,-9.083601,1.5945383
6.271578,4.8905544,-0.13498695,-0.40313593,-0.11697886,0.6560113,-9.097966,1.6998832
6.2712536,4.89043,-0.13498695,-0.40313593,-0.11697886,0.6560113,-9.097966,1.6998832
6.2709236,4.8903055,-0.14031327,-0.40313593,-0.123370446,0.62728083,-9.179369,1.733402
6.2705956,4.8901825,-0.14031327,-0.40313593,-0.123370446,0.62728083,-9.179369,1.733402
6.27026,4.890016,-0.1456396,-0.40420118,-0.1276315,0.58418524,-9.212888,1.5993267
6.2699237,4.889849,-0.1456396,-0.40420118,-0.1276315,0.58418524,-9.212888,1.5993267
6.269584,4.8896832,-0.14883539,-0.40420118,-0.12976204,0.5602432,-9.222465,1.6184803
6.2692475,4.8895197,-0.14883539,-0.40420118,-0.12976204,0.5602432,-9.222465,1.6184803
6.268908,4.8893495,-0.15309644,-0.40420118,-0.1308273,0.49799395,-9.212888,1.6184803
6.268569,4.88918,-0.15309644,-0.40420118,-0.1308273,0.49799395,-9.212888,1.6184803
6.268222,4.8890047,-0.15842277,-0.40526643,-0.13295783,0.46447513,-9.284714,1.6376339
6.2678866,4.888835,-0.15842277,-0.40526643,-0.13295783,0.46447513,-9.284714,1.6376339
6.2675414,4.8886504,-0.16268381,-0.40846223,-0.13295783,0.4405331,-9.303867,1.6280571
6.2672024,4.888469,-0.16268381,-0.40846223,-0.13295783,0.4405331,-9.303867,1.6280571
6.266872,4.8883295,-0.16694488,-0.41378856,-0.13295783,0.4165911,-9.279925,1.7142484
6.266536,4.8881884,-0.16694488,-0.41378856,-0.13295783,0.4165911,-9.279925,1.7142484
6.2661977,4.888042,-0.17120594,-0.42018014,-0.13508835,0.50757074,-9.313444,1.7381904
6.265859,4.887896,-0.17120594,-0.42018014,-0.13508835,0.50757074,-9.313444,1.7381904
6.2655153,4.887745,-0.175467,-0.42870227,-0.13828415,0.47884035,-9.404425,1.7429788
6.2651725,4.887595,-0.175467,-0.42870227,-0.13828415,0.47884035,-9.404425,1.7429788
6.264833,4.887455,-0.17972806,-0.4393549,-0.14254521,0.56982,-9.3661175,1.8148049
6.2644944,4.8873158,-0.17972806,-0.4393549,-0.14254521,0.56982,-9.3661175,1.8148049
6.2641535,4.8871775,-0.18398911,-0.4510728,-0.14787152,0.61770403,-9.481039,1.8770541
6.263812,4.887039,-0.18398911,-0.4510728,-0.14787152,0.61770403,-9.481039,1.8770541
6.2634716,4.886905,-0.1871849,-0.46172544,-0.15426312,0.6560113,-9.428367,1.934515
6.2631316,4.8867717,-0.1871849,-0.46172544,-0.15426312,0.6560113,-9.428367,1.934515
6.2627816,4.8866334,-0.19144596,-0.47450864,-0.16171996,0.6799533,-9.457097,1.9488802
6.262432,4.886495,-0.19144596,-0.47450864,-0.16171996,0.6799533,-9.457097,1.9488802
6.2620816,4.8863606,-0.19357648,-0.48622653,-0.16917682,0.6847417,-9.56723,2.0159178
6.261722,4.886223,-0.19357648,-0.48622653,-0.16917682,0.6847417,-9.56723,2.0159178
6.2613635,4.8860846,-0.19464175,-0.4990097,-0.17663367,0.6799533,-9.653421,1.9776106
6.2609982,4.8859444,-0.19464175,-0.4990097,-0.17663367,0.6799533,-9.653421,1.9776106
6.260641,4.885814,-0.19677228,-0.51285815,-0.18515578,0.62728083,-9.667787,2.0685902
6.2602854,4.885685,-0.19677228,-0.51285815,-0.18515578,0.62728083,-9.667787,2.0685902
6.2599134,4.885553,-0.19677228,-0.52777183,-0.19474317,0.5554548,-9.763555,1.9919758
6.2595415,4.885421,-0.19677228,-0.52777183,-0.19474317,0.5554548,-9.763555,1.9919758
6.25917,4.885293,-0.19783755,-0.540555,-0.20006949,0.46926352,-9.801862,2.006341
6.2588234,4.885174,-0.19783755,-0.540555,-0.20006949,0.46926352,-9.801862,2.006341
6.25845,4.885046,-0.19783755,-0.5544035,-0.20433055,0.49799395,-9.854534,1.9967642
6.258068,4.8849154,-0.19783755,-0.5544035,-0.20433055,0.49799395,-9.854534,1.9967642
6.2576942,4.8847895,-0.19677228,-0.5714477,-0.20646107,0.5363012,-9.864111,2.054225
6.257326,4.884666,-0.19677228,-0.5714477,-0.20646107,0.5363012,-9.864111,2.054225
6.256961,4.884545,-0.19677228,-0.5906225,-0.20965686,0.50757074,-9.892841,2.0398598
6.2565813,4.884419,-0.19677228,-0.5906225,-0.20965686,0.50757074,-9.892841,2.0398598
6.2559185,4.8842077,-0.19357648,-0.6108625,-0.21391793,0.50757074,-9.821015,2.0398598
6.255776,4.884162,-0.19357648,-0.6108625,-0.21391793,0.50757074,-9.821015,2.0398598
6.255442,4.884061,-0.18931544,-0.63003725,-0.21817899,0.45489833,-9.821015,2.0685902
6.255081,4.883951,-0.18931544,-0.63003725,-0.21817899,0.45489833,-9.821015,2.0685902
6.2547083,4.88384,-0.1871849,-0.65027726,-0.21817899,0.46447513,-9.849746,2.030283
6.2543125,4.8837223,-0.1871849,-0.65027726,-0.21817899,0.46447513,-9.849746,2.030283
6.2539067,4.8836036,-0.18398911,-0.67051727,-0.21817899,0.51235914,-9.80665,1.958457
6.253502,4.8834853,-0.18398911,-0.67051727,-0.21817899,0.51235914,-9.80665,1.958457
6.253115,4.8833766,-0.18079332,-0.69288784,-0.22030951,0.51235914,-9.849746,2.0015526
6.252715,4.883264,-0.18079332,-0.69288784,-0.22030951,0.51235914,-9.849746,2.0015526
6.2523346,4.88316,-0.17866279,-0.7152584,-0.22244005,0.5315128,-9.830592,2.0638018
6.2519193,4.883046,-0.17866279,-0.7152584,-0.22244005,0.5315128,-9.830592,2.0638018
6.251524,4.88294,-0.17759752,-0.7386942,-0.22563584,0.5506664,-9.840169,2.0446482
6.2511168,4.8828297,-0.17759752,-0.7386942,-0.22563584,0.5506664,-9.840169,2.0446482
6.2507153,4.882725,-0.175467,-0.7599995,-0.22989689,0.51714754,-9.835381,2.030283
6.2503076,4.882618,-0.175467,-0.7599995,-0.22989689,0.51714754,-9.835381,2.030283
6.249877,4.882509,-0.17120594,-0.78343534,-0.23415795,0.545878,-9.868899,1.9776106
6.2494407,4.882399,-0.17120594,-0.78343534,-0.23415795,0.545878,-9.868899,1.9776106
6.2489944,4.8822894,-0.16801015,-0.8068711,-0.23841901,0.5554548,-9.902418,1.9488802
6.2485576,4.882182,-0.16801015,-0.8068711,-0.23841901,0.5554548,-9.902418,1.9488802
6.2481008,4.8820734,-0.16587962,-0.82817644,-0.24268007,0.545878,-9.940725,1.9488802
6.2476563,4.8819675,-0.16587962,-0.82817644,-0.24268007,0.545878,-9.940725,1.9488802
6.2472177,4.881867,-0.16374908,-0.85161227,-0.24587587,0.51235914,-10.0269165,1.982399
6.2467775,4.8817663,-0.16374908,-0.85161227,-0.24587587,0.51235914,-10.0269165,1.982399
6.246341,4.881671,-0.15948802,-0.87504804,-0.24800639,0.49799395,-10.055647,1.9871874
6.2459073,4.8815756,-0.15948802,-0.87504804,-0.24800639,0.49799395,-10.055647,1.9871874
6.2454643,4.881482,-0.15522698,-0.90061444,-0.24800639,0.50757074,-10.084377,1.9728222
6.2450233,4.8813887,-0.15522698,-0.90061444,-0.24800639,0.50757074,-10.084377,1.9728222
6.2445803,4.8812976,-0.15203118,-0.9261808,-0.24694112,0.521936,-10.108319,1.9919758
6.244135,4.8812056,-0.15203118,-0.9261808,-0.24694112,0.521936,-10.108319,1.9919758
6.24371,4.88112,-0.14777012,-0.95068187,-0.2448106,0.47405192,-10.16578,2.0207062
6.243289,4.881035,-0.14777012,-0.95068187,-0.2448106,0.47405192,-10.16578,2.0207062
6.2428513,4.880954,-0.14031327,-0.9762482,-0.24268007,0.47884035,-10.223241,1.934515
6.2424173,4.880873,-0.14031327,-0.9762482,-0.24268007,0.47884035,-10.223241,1.934515
6.2419944,4.880801,-0.13179116,-0.99968404,-0.2416148,0.48362875,-10.223241,2.0733786
6.2415724,4.8807287,-0.13179116,-0.99968404,-0.2416148,0.48362875,-10.223241,2.0733786
6.24112,4.88066,-0.12326904,-1.0263156,-0.24374533,0.5410896,-10.266336,1.9967642
6.24067,4.8805914,-0.12326904,-1.0263156,-0.24374533,0.5410896,-10.266336,1.9967642
6.2401824,4.8805213,-0.11368166,-1.0529473,-0.2448106,0.63206923,-10.309433,1.9871874
6.239698,4.8804517,-0.11368166,-1.0529473,-0.2448106,0.63206923,-10.309433,1.9871874
6.2392006,4.8803883,-0.104094274,-1.0795789,-0.24907166,0.7326257,-10.304645,2.0829554
6.2387047,4.8803244,-0.104094274,-1.0795789,-0.24907166,0.7326257,-10.304645,2.0829554
6.2381682,4.880254,-0.0945069,-1.108341,-0.25759378,0.90021986,-10.251971,2.0590134
6.237637,4.8801837,-0.0945069,-1.108341,-0.25759378,0.90021986,-10.251971,2.0590134
6.237073,4.880118,-0.08385425,-1.1360378,-0.27250746,1.0103531,-10.247183,2.0973208
6.236514,4.8800526,-0.08385425,-1.1360378,-0.27250746,1.0103531,-10.247183,2.0973208
6.235934,4.8799944,-0.07320161,-1.1637347,-0.29168224,1.0342951,-10.199299,2.0829554
6.235347,4.8799353,-0.07320161,-1.1637347,-0.29168224,1.0342951,-10.199299,2.0829554
6.2347317,4.8798842,-0.0614837,-1.1946274,-0.3129875,0.94331545,-10.184934,2.0015526
6.2341237,4.879834,-0.0614837,-1.1946274,-0.3129875,0.94331545,-10.184934,2.0015526
6.2334666,4.8797827,-0.050831053,-1.2265854,-0.33855388,0.8619126,-10.28549,1.9153614
6.2328153,4.8797326,-0.050831053,-1.2265854,-0.33855388,0.8619126,-10.28549,1.9153614
6.232131,4.8796816,-0.042308938,-1.2606738,-0.35985917,0.7182605,-10.275913,1.8195933
6.231449,4.879632,-0.042308938,-1.2606738,-0.35985917,0.7182605,-10.275913,1.8195933
6.230741,4.879586,-0.035917353,-1.2947623,-0.37796864,0.6560113,-10.362105,1.8004397
6.230038,4.879543,-0.035917353,-1.2947623,-0.37796864,0.6560113,-10.362105,1.8004397
6.2294087,4.879348,-0.029525764,-1.3288507,-0.39394763,0.5793968,-10.323798,1.6232687
6.22879,4.879153,-0.029525764,-1.3288507,-0.39394763,0.5793968,-10.323798,1.6232687
6.228212,4.8789663,-0.022068914,-1.3640045,-0.4067308,0.48362875,-10.266336,1.5801731
6.227624,4.8787766,-0.022068914,-1.3640045,-0.4067308,0.48362875,-10.266336,1.5801731
6.227097,4.878624,-0.013546798,-1.4034193,-0.41631818,0.4213795,-10.251971,1.6136919
6.2265577,4.878468,-0.013546798,-1.4034193,-0.41631818,0.4213795,-10.251971,1.6136919
6.2259827,4.8783054,-0.0039594183,-1.4438993,-0.42590556,0.36391866,-10.184934,1.4891934
6.2254095,4.8781433,-0.0039594183,-1.4438993,-0.42590556,0.36391866,-10.184934,1.4891934
6.224832,4.8779936,0.0066932263,-1.4865099,-0.43229714,0.30645782,-10.160992,1.4700398
6.224258,4.877845,0.0066932263,-1.4865099,-0.43229714,0.30645782,-10.160992,1.4700398
6.2236586,4.877695,0.0141500775,-1.5333815,-0.43762347,0.2633622,-10.113108,1.4077905
6.223069,4.877548,0.0141500775,-1.5333815,-0.43762347,0.2633622,-10.113108,1.4077905
6.2224374,4.8773956,0.02160693,-1.5802531,-0.43975398,0.2825158,-10.022128,1.3982137
6.221866,4.8772573,0.02160693,-1.5802531,-0.43975398,0.2825158,-10.022128,1.3982137
6.2212753,4.8771257,0.02906378,-1.62819,-0.44081926,0.2825158,-9.988609,1.4413095
6.2206798,4.876992,0.02906378,-1.62819,-0.44081926,0.2825158,-9.988609,1.4413095
6.220063,4.87685,0.03652063,-1.6782575,-0.44188452,0.33039984,-9.935937,1.3599066
6.2194424,4.8767066,0.03652063,-1.6782575,-0.44188452,0.33039984,-9.935937,1.3599066
6.2187986,4.8765607,0.043977484,-1.7293901,-0.44188452,0.41180268,-9.916783,1.388637
6.2181587,4.876415,0.043977484,-1.7293901,-0.44188452,0.41180268,-9.916783,1.388637
6.217491,4.8762646,0.051434334,-1.7805228,-0.44188452,0.50757074,-9.825804,1.4030021
6.2168236,4.876113,0.051434334,-1.7805228,-0.44188452,0.50757074,-9.825804,1.4030021
6.216117,4.8759584,0.05995645,-1.8316555,-0.44188452,0.61291564,-9.811439,1.4556746
6.215415,4.875804,0.05995645,-1.8316555,-0.44188452,0.61291564,-9.811439,1.4556746
6.2146444,4.8756514,0.0674133,-1.8817229,-0.44188452,0.7086837,-9.749189,1.4748282
6.213878,4.875497,0.0674133,-1.8817229,-0.44188452,0.7086837,-9.749189,1.4748282
6.213029,4.8753757,0.07700068,-1.9307251,-0.44294977,0.866701,-9.730036,1.4700398
6.2121806,4.8752513,0.07700068,-1.9307251,-0.44294977,0.866701,-9.730036,1.4700398
6.211289,4.8751698,0.08658806,-1.9775968,-0.44614556,0.9768343,-9.753978,1.532289
6.2103963,4.8750863,0.08658806,-1.9775968,-0.44614556,0.9768343,-9.753978,1.532289
6.209489,4.875024,0.09830597,-2.0202074,-0.44934136,1.115698,-9.773131,1.5466543
6.20858,4.874959,0.09830597,-2.0202074,-0.44934136,1.115698,-9.773131,1.5466543
6.207659,4.8749194,0.11108914,-2.059622,-0.4546677,1.2354081,-9.825804,1.5993267
6.206736,4.874878,0.11108914,-2.059622,-0.4546677,1.2354081,-9.825804,1.5993267
6.205809,4.8748317,0.12387232,-2.094776,-0.45573297,1.3024458,-9.854534,1.5514427
6.2048826,4.8747835,0.12387232,-2.094776,-0.45573297,1.3024458,-9.854534,1.5514427
6.2039104,4.87476,0.13878602,-2.1267338,-0.45892876,1.364695,-9.921572,1.6184803
6.203009,4.8747363,0.13878602,-2.1267338,-0.45892876,1.364695,-9.921572,1.6184803
6.2020683,4.8747153,0.15583025,-2.1565611,-0.45892876,1.388637,-9.9550905,1.5849615
6.2011285,4.874692,0.15583025,-2.1565611,-0.45892876,1.388637,-9.9550905,1.5849615
6.2001905,4.8746786,0.175005,-2.184258,-0.45573297,1.3455414,-10.01734,1.5801731
6.1992507,4.8746634,0.175005,-2.184258,-0.45573297,1.3455414,-10.01734,1.5801731
6.1983156,4.8746543,0.1963103,-2.2076938,-0.44934136,1.3215994,-10.04607,1.5514427
6.1973805,4.8746433,0.1963103,-2.2076938,-0.44934136,1.3215994,-10.04607,1.5514427
6.1964703,4.874628,0.22187665,-2.2300644,-0.4365582,1.292869,-10.060435,1.460463
6.195561,4.87461,0.22187665,-2.2300644,-0.4365582,1.292869,-10.060435,1.460463
6.194676,4.874606,0.24744299,-2.2513697,-0.41738343,1.2018893,-10.113108,1.484405
6.1937923,4.8745985,0.24744299,-2.2513697,-0.41738343,1.2018893,-10.113108,1.484405
6.192953,4.8745966,0.27300933,-2.2694793,-0.39075184,1.1587936,-10.1226845,1.436521
6.192115,4.8745923,0.27300933,-2.2694793,-0.39075184,1.1587936,-10.1226845,1.436521
6.191331,4.874604,0.30283675,-2.285458,-0.35666338,1.1300632,-10.13705,1.3838485
6.190547,4.874614,0.30283675,-2.285458,-0.35666338,1.1300632,-10.13705,1.3838485
6.1898203,4.8746433,0.33266416,-2.2993066,-0.31724858,1.1109096,-10.117896,1.283292
6.189074,4.8746724,0.33266416,-2.2993066,-0.31724858,1.1109096,-10.117896,1.283292
6.1884127,4.8747234,0.3614263,-2.3110247,-0.274638,1.091756,-10.108319,1.3072342
6.1877327,4.874774,0.3614263,-2.3110247,-0.274638,1.091756,-10.108319,1.3072342
6.1870923,4.8748527,0.3912537,-2.320612,-0.22563584,1.1587936,-10.113108,1.2497733
6.1864514,4.8749304,0.3912537,-2.320612,-0.22563584,1.1587936,-10.113108,1.2497733
6.1858797,4.875032,0.42214635,-2.3301992,-0.17024209,1.115698,-10.132261,1.2018893
6.185308,4.8751326,0.42214635,-2.3301992,-0.17024209,1.115698,-10.132261,1.2018893
6.184803,4.8752613,0.4541043,-2.3344603,-0.11271781,1.067814,-10.0987425,1.1827357
6.1842995,4.8753886,0.4541043,-2.3344603,-0.11271781,1.067814,-10.0987425,1.1827357
6.183845,4.8755465,0.48606223,-2.3376563,-0.05412826,1.1348516,-10.151415,1.0965444
6.1833906,4.875703,0.48606223,-2.3376563,-0.05412826,1.1348516,-10.151415,1.0965444
6.1829967,4.875887,0.51588964,-2.3387215,0.00765708,1.1587936,-10.199299,1.0342951
6.1826034,4.87607,0.51588964,-2.3387215,0.00765708,1.1587936,-10.199299,1.0342951
6.182277,4.876278,0.5435865,-2.340852,0.071572945,1.1300632,-10.146626,0.9864111
6.181951,4.876485,0.5435865,-2.340852,0.071572945,1.1300632,-10.146626,0.9864111
6.181684,4.876716,0.56915283,-2.3419173,0.13548881,1.1683705,-10.156203,0.92416185
6.1814165,4.8769464,0.56915283,-2.3419173,0.13548881,1.1683705,-10.156203,0.92416185
6.181215,4.8771996,0.5936539,-2.3419173,0.20153521,1.1683705,-10.13705,0.8762778
6.1810126,4.8774524,0.5936539,-2.3419173,0.20153521,1.1683705,-10.13705,0.8762778
6.180876,4.8777237,0.613894,-2.3429825,0.26864687,1.1731589,-10.041282,0.80445176
6.180738,4.877994,0.613894,-2.3429825,0.26864687,1.1731589,-10.041282,0.80445176
6.1806583,4.878281,0.6309382,-2.3429825,0.3368238,1.2737153,-10.055647,0.7182605
6.180578,4.8785677,0.6309382,-2.3429825,0.3368238,1.2737153,-10.055647,0.7182605
6.180558,4.878873,0.6479824,-2.3419173,0.4092618,1.3838485,-9.9790325,0.6847417
6.1805377,4.879177,0.6479824,-2.3419173,0.4092618,1.3838485,-9.9790325,0.6847417
6.1805744,4.879497,0.66183084,-2.3376563,0.4806345,1.4891934,-9.811439,0.6991069
6.1806107,4.879817,0.66183084,-2.3376563,0.4806345,1.4891934,-9.811439,0.6991069
6.1807165,4.880148,0.6724835,-2.329134,0.5520072,1.508347,-9.739613,0.6751649
6.180821,4.88048,0.6724835,-2.329134,0.5520072,1.508347,-9.739613,0.6751649
6.180987,4.8808236,0.6810056,-2.3184814,0.6244452,1.6280571,-9.581595,0.6607997
6.1811514,4.8811674,0.6810056,-2.3184814,0.6244452,1.6280571,-9.581595,0.6607997
6.1813793,4.881521,0.6863319,-2.304633,0.69794846,1.757344,-9.423578,0.63206923
6.181607,4.881875,0.6863319,-2.304633,0.69794846,1.757344,-9.423578,0.63206923
6.1818986,4.882238,0.6884625,-2.2865236,0.77251697,1.8435353,-9.346964,0.7038953
6.18219,4.8826013,0.6884625,-2.2865236,0.77251697,1.8435353,-9.346964,0.7038953
6.1825466,4.88297,0.68739724,-2.268414,0.8460202,1.9967642,-9.208099,0.6847417
6.1829023,4.8833404,0.68739724,-2.268414,0.8460202,1.9967642,-9.208099,0.6847417
6.1833067,4.883731,0.6863319,-2.248174,0.9173929,2.2266076,-9.112331,0.92416185
6.1837096,4.884122,0.6863319,-2.248174,0.9173929,2.2266076,-9.112331,0.92416185
6.184171,4.8845263,0.6852667,-2.2268686,0.9845046,2.408567,-9.035717,1.0247183
6.1846323,4.8849316,0.6852667,-2.2268686,0.9845046,2.408567,-9.035717,1.0247183
6.186711,4.8866487,0.6852667,-2.2034328,1.0473552,2.6719291,-8.863335,1.1587936
6.186711,4.8866487,0.6852667,-2.2034328,1.0473552,2.6719291,-8.863335,1.1587936
6.186711,4.8866487,0.6852667,-2.2034328,1.0473552,2.6719291,-8.863335,1.1587936
6.187055,4.8869095,0.6852667,-2.179997,1.1038142,2.882619,-8.75799,1.1587936
6.187381,4.887144,0.6852667,-2.1523001,1.1517512,3.0454245,-8.686164,1.2976574
6.1879544,4.8875585,0.6852667,-2.1523001,1.1517512,3.0454245,-8.686164,1.2976574
6.188607,4.8880033,0.6820709,-2.1214075,1.1932964,3.1794999,-8.662222,1.3694834
6.188607,4.8880033,0.6820709,-2.1214075,1.1932964,3.1794999,-8.662222,1.3694834
6.189931,4.888905,0.67780983,-2.087319,1.2295154,3.2609026,-8.652645,1.3359646
6.1906333,4.8893585,0.67780983,-2.087319,1.2295154,3.2609026,-8.652645,1.3359646
6.1913447,4.8897996,0.67141825,-2.0500348,1.2593428,3.3135753,-8.710106,1.4413095
6.1920815,4.8902583,0.67141825,-2.0500348,1.2593428,3.3135753,-8.710106,1.4413095
6.192848,4.890716,0.66183084,-2.0095546,1.2827786,3.2848446,-8.700529,1.5035586
6.1936135,4.891175,0.66183084,-2.0095546,1.2827786,3.2848446,-8.700529,1.5035586
6.194407,4.891628,0.65117824,-1.9658788,1.304084,3.2321723,-8.748413,1.4987702
6.195201,4.892083,0.65117824,-1.9658788,1.304084,3.2321723,-8.748413,1.4987702
6.1962576,4.892657,0.63732976,-1.9222031,1.3211281,3.107674,-8.710106,1.4556746
6.196872,4.8929925,0.63732976,-1.9222031,1.3211281,3.107674,-8.710106,1.4556746
6.1978364,4.893485,0.6192203,-1.8763967,1.3371071,2.9783869,-8.714894,1.412579
6.1985607,4.893857,0.6192203,-1.8763967,1.3371071,2.9783869,-8.714894,1.412579
6.199396,4.8942595,0.6000455,-1.8316555,1.3541514,2.8682537,-8.738836,1.412579
6.200247,4.894671,0.6000455,-1.8316555,1.3541514,2.8682537,-8.738836,1.412579
6.20113,4.8950768,0.58193606,-1.7879797,1.369065,2.7820623,-8.767567,1.4556746
6.202006,4.895481,0.58193606,-1.7879797,1.369065,2.7820623,-8.767567,1.4556746
6.2029166,4.8958783,0.561696,-1.7453691,1.3818482,2.6431987,-8.695741,1.4748282
6.203816,4.8962717,0.561696,-1.7453691,1.3818482,2.6431987,-8.695741,1.4748282
6.204732,4.896654,0.5435865,-1.7059543,1.3925009,2.5330653,-8.604761,1.4891934
6.2056427,4.8970356,0.5435865,-1.7059543,1.3925009,2.5330653,-8.604761,1.4891934
6.2065887,4.897406,0.5265423,-1.6676048,1.4042188,2.3511062,-8.595184,1.436521
6.2075195,4.897773,0.5265423,-1.6676048,1.4042188,2.3511062,-8.595184,1.436521
6.2084765,4.8981304,0.50949806,-1.6313858,1.4148715,2.2649148,-8.556877,1.4413095
6.2094226,4.8984857,0.50949806,-1.6313858,1.4148715,2.2649148,-8.556877,1.4413095
6.2103868,4.8988366,0.49032328,-1.596232,1.4223282,2.5761611,-8.470686,1.5179238
6.2113485,4.8991885,0.49032328,-1.596232,1.4223282,2.5761611,-8.470686,1.5179238
6.2123184,4.899529,0.47008327,-1.5621437,1.4244589,2.9257145,-8.298303,1.5514427
6.21329,4.899872,0.47008327,-1.5621437,1.4244589,2.9257145,-8.298303,1.5514427
6.214259,4.9002028,0.44984323,-1.5301857,1.4159367,3.0262709,-8.236053,1.6184803
6.215225,4.900534,0.44984323,-1.5301857,1.4159367,3.0262709,-8.236053,1.6184803
6.216174,4.900848,0.42640743,-1.4960972,1.3967619,3.0597897,-8.121132,1.6519991
6.217126,4.901164,0.42640743,-1.4960972,1.3967619,3.0597897,-8.121132,1.6519991
6.21806,4.9014583,0.3997758,-1.4598782,1.3701303,3.0454245,-7.9726915,1.6136919
6.2189927,4.9017534,0.3997758,-1.4598782,1.3701303,3.0454245,-7.9726915,1.6136919
6.2199216,4.9020343,0.36994842,-1.4204634,1.3371071,3.0693667,-7.833828,1.6903064
6.2208056,4.902303,0.36994842,-1.4204634,1.3371071,3.0693667,-7.833828,1.6903064
6.2216797,4.902546,0.33799046,-1.3831792,1.2976923,3.0358477,-7.699753,1.5562311
6.2225547,4.90279,0.33799046,-1.3831792,1.2976923,3.0358477,-7.699753,1.5562311
6.2233963,4.903001,0.3017715,-1.3469602,1.251886,3.0550013,-7.5561004,1.4796166
6.2242274,4.9032097,0.3017715,-1.3469602,1.251886,3.0550013,-7.5561004,1.4796166
6.225018,4.9033837,0.26448724,-1.3128718,1.2039491,2.96881,-7.4986396,1.4269443
6.2258105,4.9035587,0.26448724,-1.3128718,1.2039491,2.96881,-7.4986396,1.4269443
6.2265673,4.9036922,0.2229419,-1.2787833,1.1602732,2.8538885,-7.4124484,1.340753
6.2273235,4.9038267,0.2229419,-1.2787833,1.1602732,2.8538885,-7.4124484,1.340753
6.228044,4.9039183,0.18033133,-1.2446948,1.1176627,2.657564,-7.2831616,1.2689269
6.228765,4.9040117,0.18033133,-1.2446948,1.1176627,2.657564,-7.2831616,1.2689269
6.229453,4.90406,0.13772075,-1.2116716,1.0771827,2.4899697,-7.1969705,1.1827357
6.23014,4.904109,0.13772075,-1.2116716,1.0771827,2.4899697,-7.1969705,1.1827357
6.2308,4.9041157,0.09617544,-1.1797137,1.0430942,2.3511062,-7.1634517,1.1348516
6.231461,4.904124,0.09617544,-1.1797137,1.0430942,2.3511062,-7.1634517,1.1348516
6.232101,4.9040866,0.054630127,-1.148821,1.0143319,2.303222,-7.120356,1.043872
6.232757,4.9040494,0.054630127,-1.148821,1.0143319,2.303222,-7.120356,1.043872
6.2333646,4.903982,0.013084813,-1.1189936,0.9877004,2.4756045,-7.101202,1.115698
6.2339745,4.9039154,0.013084813,-1.1189936,0.9877004,2.4756045,-7.101202,1.115698
6.234577,4.903815,-0.03059103,-1.0881009,0.95467716,2.719813,-7.043741,1.2497733
6.2351556,4.9037194,-0.03059103,-1.0881009,0.95467716,2.719813,-7.043741,1.2497733
6.2357144,4.9035864,-0.076397404,-1.0508167,0.9120666,2.906561,-6.9288197,1.3694834
6.2362685,4.9034553,-0.076397404,-1.0508167,0.9120666,2.906561,-6.9288197,1.3694834
6.2367826,4.9032817,-0.1275301,-1.0050104,0.8545423,2.992752,-6.799533,1.4796166
6.237294,4.903109,-0.1275301,-1.0050104,0.8545423,2.992752,-6.799533,1.4796166
6.237738,4.9028916,-0.18611965,-0.9528124,0.7735822,2.8682537,-6.799533,1.6519991
6.238183,4.902674,-0.18611965,-0.9528124,0.7735822,2.8682537,-6.799533,1.6519991
6.2385464,4.902402,-0.2500355,-0.8995491,0.67770845,2.6479871,-6.742072,1.70946
6.2389097,4.9021297,-0.2500355,-0.8995491,0.67770845,2.6479871,-6.742072,1.70946
6.239178,4.9017944,-0.3192777,-0.85054696,0.57118195,2.2744915,-6.9000893,1.7190368
6.239447,4.9014606,-0.3192777,-0.85054696,0.57118195,2.2744915,-6.9000893,1.7190368
6.2396173,4.9010563,-0.39171568,-0.8047406,0.46145973,2.006341,-7.0581064,1.6903064
6.2397876,4.9006534,-0.39171568,-0.8047406,0.46145973,2.006341,-7.0581064,1.6903064
6.239855,4.900172,-0.46202314,-0.7685216,0.35386804,1.6903064,-7.2687964,1.5514427
6.2399225,4.899691,-0.46202314,-0.7685216,0.35386804,1.6903064,-7.2687964,1.5514427
6.23989,4.8991456,-0.52806956,-0.74189,0.24734159,1.4556746,-7.383718,1.532289
6.2398586,4.8986006,-0.52806956,-0.74189,0.24734159,1.4556746,-7.383718,1.532289
6.239728,4.89799,-0.5887896,-0.7237805,0.14401093,1.2066777,-7.6231384,1.5035586
6.2395973,4.8973804,-0.5887896,-0.7237805,0.14401093,1.2066777,-7.6231384,1.5035586
6.239375,4.896719,-0.6431181,-0.7141931,0.04813713,1.0247183,-7.8050976,1.5227122
6.2391534,4.896058,-0.6431181,-0.7141931,0.04813713,1.0247183,-7.8050976,1.5227122
6.2388315,4.8953304,-0.68998975,-0.7099321,-0.04454088,0.82360536,-8.054094,1.6424223
6.2385526,4.8946967,-0.68998975,-0.7099321,-0.04454088,0.82360536,-8.054094,1.6424223
6.238158,4.893957,-0.72833925,-0.71099734,-0.1308273,0.7517793,-8.66701,1.6472107
6.2377625,4.893215,-0.72833925,-0.71099734,-0.1308273,0.7517793,-8.66701,1.6472107
6.2374763,4.892526,-0.7581667,-0.7184542,-0.20646107,-0.023942016,-11.190498,3.2465374
6.237187,4.8918285,-0.7581667,-0.7184542,-0.20646107,-0.023942016,-11.190498,3.2465374
6.2369137,4.891059,-0.7571014,-0.74189,-0.28422537,0.15801731,-9.902418,1.8339585
6.236639,4.8902903,-0.7571014,-0.74189,-0.28422537,0.15801731,-9.902418,1.8339585
6.236282,4.8894815,-0.72194767,-0.77704376,-0.347076,-0.81402856,-9.725247,1.1827357
6.2359257,4.888673,-0.72194767,-0.77704376,-0.347076,-0.81402856,-9.725247,1.1827357
6.2355256,4.8879547,-0.7059687,-0.8228501,-0.39714342,-0.80445176,-10.70687,2.1308396
6.235126,4.8872366,-0.7059687,-0.8228501,-0.39714342,-0.80445176,-10.70687,2.1308396
6.2346787,4.886522,-0.69851184,-0.8793091,-0.43442768,-1.0486604,-10.127473,2.0590134
6.234234,4.88581,-0.69851184,-0.8793091,-0.43442768,-1.0486604,-10.127473,2.0590134
6.2337356,4.8851166,-0.69212025,-0.9421597,-0.4663856,-0.9816227,-10.275913,2.303222
6.2332377,4.8844223,-0.69212025,-0.9421597,-0.4663856,-0.9816227,-10.275913,2.303222
6.2326913,4.8837404,-0.6931855,-1.0028799,-0.49621302,-0.5793968,-10.529699,2.384625
6.232145,4.8830576,-0.6931855,-1.0028799,-0.49621302,-0.5793968,-10.529699,2.384625
6.231558,4.8823786,-0.69425076,-1.0529473,-0.51858354,-0.22505496,-10.457873,2.2936451
6.2309723,4.881701,-0.69425076,-1.0529473,-0.51858354,-0.22505496,-10.457873,2.2936451
6.2303233,4.88104,-0.69638133,-1.0838399,-0.5388236,0.15801731,-10.553641,2.360683
6.2296734,4.880377,-0.69638133,-1.0838399,-0.5388236,0.15801731,-10.553641,2.360683
6.2289686,4.8797207,-0.70064235,-1.0944926,-0.56012887,0.39264908,-10.778696,2.504335
6.228263,4.8790617,-0.70064235,-1.0944926,-0.56012887,0.39264908,-10.778696,2.504335
6.227547,4.878402,-0.6995771,-1.0881009,-0.5793036,0.35434186,-10.754754,2.4660277
6.226835,4.8777432,-0.6995771,-1.0881009,-0.5793036,0.35434186,-10.754754,2.4660277
6.2261314,4.877084,-0.69425076,-1.0710567,-0.5920868,0.21547815,-10.927136,2.4851813
6.225429,4.876424,-0.69425076,-1.0710567,-0.5920868,0.21547815,-10.927136,2.4851813
6.2247496,4.8757634,-0.6846634,-1.0497514,-0.59954363,-0.023942016,-10.927136,2.4516625
6.224069,4.875101,-0.6846634,-1.0497514,-0.59954363,-0.023942016,-10.927136,2.4516625
6.2234116,4.874441,-0.6697497,-1.0273808,-0.6016742,-0.25857377,-11.118672,2.4181437
6.2227554,4.8737817,-0.6697497,-1.0273808,-0.6016742,-0.25857377,-11.118672,2.4181437
6.222104,4.873127,-0.64950967,-1.0082061,-0.5952826,-0.36391866,-11.152191,2.4037786
6.221379,4.872397,-0.64950967,-1.0082061,-0.5952826,-0.36391866,-11.152191,2.4037786
6.2207937,4.8717866,-0.62607384,-0.9879661,-0.5771731,-0.49320555,-11.252748,2.2984335
6.220254,4.8712225,-0.62607384,-0.9879661,-0.5771731,-0.49320555,-11.252748,2.2984335
6.2196856,4.870613,-0.598377,-0.9666608,-0.54841095,-0.5602432,-11.271901,2.2409728
6.2191143,4.8699994,-0.598377,-0.9666608,-0.54841095,-0.5602432,-11.271901,2.2409728
6.2185907,4.8694086,-0.5685496,-0.94109446,-0.50793093,-0.79487497,-11.262324,2.2218192
6.218073,4.868825,-0.5685496,-0.94109446,-0.50793093,-0.79487497,-11.262324,2.2218192
6.217613,4.8682666,-0.5355264,-0.9123323,-0.45573297,-1.0534488,-11.286267,2.1930888
6.217149,4.8677025,-0.5355264,-0.9123323,-0.45573297,-1.0534488,-11.286267,2.1930888
6.216757,4.8671713,-0.5014379,-0.8857007,-0.39394763,-1.2114661,-11.142614,2.0973208
6.216366,4.866641,-0.5014379,-0.8857007,-0.39394763,-1.2114661,-11.142614,2.0973208
6.216051,4.866146,-0.4630884,-0.8622649,-0.32150963,-1.292869,-11.104307,2.0398598
6.2157364,4.8656497,-0.4630884,-0.8622649,-0.32150963,-1.292869,-11.104307,2.0398598
6.215503,4.8651876,-0.42473888,-0.83989435,-0.2416148,-1.484405,-11.056423,2.030283
6.215273,4.864732,-0.42473888,-0.83989435,-0.2416148,-1.484405,-11.056423,2.030283
6.2151313,4.8643036,-0.38851988,-0.82178485,-0.15532838,-1.5370775,-10.931925,1.9153614
6.214989,4.8638725,-0.38851988,-0.82178485,-0.15532838,-1.5370775,-10.931925,1.9153614
6.2149415,4.8634787,-0.35230088,-0.80793643,-0.06371564,-1.6041151,-10.955867,1.8914193
6.214894,4.8630877,-0.35230088,-0.80793643,-0.06371564,-1.6041151,-10.955867,1.8914193
6.214945,4.862729,-0.31501663,-0.7962185,0.033223428,-1.5993267,-10.970232,1.8579005
6.214996,4.8623714,-0.31501663,-0.7962185,0.033223428,-1.5993267,-10.970232,1.8579005
6.215145,4.862048,-0.27773237,-0.7845006,0.13016249,-1.5897499,-10.965444,1.8004397
6.2152953,4.8617244,-0.27773237,-0.7845006,0.13016249,-1.5897499,-10.965444,1.8004397
6.215543,4.861432,-0.24044813,-0.77384794,0.2260363,-1.6519991,-10.888829,1.6807296
6.2157903,4.8611407,-0.24044813,-0.77384794,0.2260363,-1.6519991,-10.888829,1.6807296
6.216143,4.8608775,-0.20635967,-0.76745635,0.32191008,-1.5753847,-10.912771,1.70946
6.216478,4.860628,-0.20635967,-0.76745635,0.32191008,-1.5753847,-10.912771,1.70946
6.216911,4.8604016,-0.1722712,-0.7642606,0.41032705,-1.4317327,-10.860099,1.6280571
6.2173424,4.8601766,-0.1722712,-0.7642606,0.41032705,-1.4317327,-10.860099,1.6280571
6.217882,4.859969,-0.14137854,-0.7642606,0.4891566,-1.2066777,-10.874464,1.6089035
6.218375,4.85978,-0.14137854,-0.7642606,0.4891566,-1.2066777,-10.874464,1.6089035
6.2189555,4.859615,-0.11261639,-0.7631953,0.5594641,-0.90021986,-10.845734,1.6280571
6.2195287,4.8594527,-0.11261639,-0.7631953,0.5594641,-0.90021986,-10.845734,1.6280571
6.220375,4.8592677,-0.08598478,-0.7599995,0.61911887,-0.5746084,-10.769119,1.5897499
6.2210197,4.859128,-0.08598478,-0.7599995,0.61911887,-0.5746084,-10.769119,1.5897499
6.2215056,4.85905,-0.0614837,-0.7536079,0.67025155,-0.21068975,-10.697293,1.5945383
6.22218,4.8589416,-0.0614837,-0.7536079,0.67025155,-0.21068975,-10.697293,1.5945383
6.2229404,4.858842,-0.041243672,-0.74082476,0.7117969,0.11971009,-10.625467,1.5514427
6.2237754,4.858733,-0.041243672,-0.74082476,0.7117969,0.11971009,-10.625467,1.5514427
6.2244263,4.8586273,-0.0284605,-0.725911,0.7416243,0.46447513,-10.55843,1.4939818
6.2251816,4.8585033,-0.0284605,-0.725911,0.7416243,0.46447513,-10.55843,1.4939818
6.225834,4.858336,-0.01674259,-0.7035405,0.7650601,0.6847417,-10.5440645,1.4652514
6.2263217,4.8582125,-0.01674259,-0.7035405,0.7650601,0.6847417,-10.5440645,1.4652514
6.226892,4.858093,-0.008220476,-0.6790394,0.78103906,0.81881696,-10.424355,1.388637
6.227459,4.857975,-0.008220476,-0.6790394,0.78103906,0.81881696,-10.424355,1.388637
6.228013,4.857894,-0.0018288894,-0.6577341,0.78743064,1.0055647,-10.352529,1.3982137
6.228562,4.857815,-0.0018288894,-0.6577341,0.78743064,1.0055647,-10.352529,1.3982137
6.229131,4.857745,0.0045626974,-0.63642883,0.7863654,1.1971009,-10.228029,1.3455414
6.2296724,4.8576794,0.0045626974,-0.63642883,0.7863654,1.1971009,-10.228029,1.3455414
6.2302103,4.857627,0.00988902,-0.61831933,0.7746475,1.3311762,-10.084377,1.3359646
6.2307534,4.857575,0.00988902,-0.61831933,0.7746475,1.3311762,-10.084377,1.3359646
6.2312765,4.857526,0.013084813,-0.6012751,0.7554727,1.436521,-9.935937,1.283292
6.2318006,4.8574777,0.013084813,-0.6012751,0.7554727,1.436521,-9.935937,1.283292
6.2323008,4.8574286,0.0141500775,-0.58529615,0.7277759,1.532289,-9.763555,1.2114661
6.2328105,4.857379,0.0141500775,-0.58529615,0.7277759,1.532289,-9.763555,1.2114661
6.233279,4.8573313,0.013084813,-0.56718665,0.6936874,1.6184803,-9.610326,1.1683705
6.2337427,4.8572845,0.013084813,-0.56718665,0.6936874,1.6184803,-9.610326,1.1683705
6.2341723,4.857234,0.00988902,-0.55120766,0.65533787,1.6950948,-9.409213,1.1109096
6.234599,4.8571854,0.00988902,-0.55120766,0.65533787,1.6950948,-9.409213,1.1109096
6.2349963,4.8571224,0.003497433,-0.53735924,0.6148578,1.7381904,-9.294291,1.0007763
6.2354083,4.857058,0.003497433,-0.53735924,0.6148578,1.7381904,-9.294291,1.0007763
6.2357674,4.856982,-0.006089947,-0.52138025,0.5743778,1.733402,-9.188946,0.90979666
6.236131,4.8569055,-0.006089947,-0.52138025,0.5743778,1.733402,-9.188946,0.90979666
6.236454,4.856822,-0.017807856,-0.50646657,0.53283244,1.7525556,-9.030929,0.91937345
6.2367773,4.8567386,-0.017807856,-0.50646657,0.53283244,1.7525556,-9.030929,0.91937345
6.2370634,4.856639,-0.031656295,-0.49155286,0.4891566,1.7956513,-8.930372,0.8571242
6.237346,4.8565407,-0.031656295,-0.49155286,0.4891566,1.7956513,-8.930372,0.8571242
6.237591,4.8564262,-0.045504734,-0.47663915,0.44548076,1.8866309,-8.8777,0.7757214
6.237833,4.8563137,-0.045504734,-0.47663915,0.44548076,1.8866309,-8.8777,0.7757214
6.2380357,4.8561864,-0.0614837,-0.4606602,0.40287018,1.8914193,-8.805874,0.7757214
6.238239,4.856059,-0.0614837,-0.4606602,0.40287018,1.8914193,-8.805874,0.7757214
6.2384105,4.8559093,-0.077462666,-0.4425507,0.36239013,1.9009962,-8.801085,0.6847417
6.238579,4.855763,-0.077462666,-0.4425507,0.36239013,1.9009962,-8.801085,0.6847417
6.2387066,4.8556037,-0.093441635,-0.4244412,0.31977957,1.8866309,-8.7053175,0.7278373
6.2388344,4.855445,-0.093441635,-0.4244412,0.31977957,1.8866309,-8.7053175,0.7278373
6.2389264,4.8552628,-0.1094206,-0.40633172,0.27503845,1.8339585,-8.738836,0.62728083
6.2390184,4.855081,-0.1094206,-0.40633172,0.27503845,1.8339585,-8.738836,0.62728083
6.2390656,4.854889,-0.12539956,-0.39035273,0.23136261,1.8866309,-8.767567,0.7038953
6.239112,4.8547,-0.12539956,-0.39035273,0.23136261,1.8866309,-8.767567,0.7038953
6.2391143,4.8544984,-0.14350906,-0.37437376,0.18768677,1.8626889,-8.7292595,0.78529817
6.2391167,4.8542967,-0.14350906,-0.37437376,0.18768677,1.8626889,-8.7292595,0.78529817
6.239076,4.8540816,-0.16055329,-0.35626426,0.14294566,1.8243817,-8.820239,0.842759
6.2390356,4.8538666,-0.16055329,-0.35626426,0.14294566,1.8243817,-8.820239,0.842759
6.238955,4.8536325,-0.17653225,-0.3370895,0.09713929,1.7812861,-8.8777,0.80445176
6.238875,4.8533983,-0.17653225,-0.3370895,0.09713929,1.7812861,-8.8777,0.80445176
6.2387557,4.853148,-0.19038069,-0.31791475,0.05346345,1.6998832,-8.99741,0.80924016
6.238637,4.852898,-0.19038069,-0.31791475,0.05346345,1.6998832,-8.99741,0.80924016
6.238482,4.8526344,-0.20209861,-0.30087054,0.011918138,1.532289,-9.093178,0.8475474
6.2383265,4.8523707,-0.20209861,-0.30087054,0.011918138,1.532289,-9.093178,0.8475474
6.238137,4.852083,-0.21062072,-0.28595683,-0.025366118,1.4652514,-9.260772,0.81402856
6.237958,4.8518133,-0.21062072,-0.28595683,-0.025366118,1.4652514,-9.260772,0.81402856
6.23775,4.8515234,-0.21807757,-0.27104312,-0.058389317,1.3359646,-9.390059,0.82360536
6.2375355,4.851225,-0.21807757,-0.27104312,-0.058389317,1.3359646,-9.390059,0.82360536
6.237305,4.8509264,-0.22233863,-0.2561294,-0.08715145,1.2162545,-9.524135,0.8619126
6.2370796,4.8506346,-0.22233863,-0.2561294,-0.08715145,1.2162545,-9.524135,0.8619126
6.2368436,4.8503265,-0.22233863,-0.24121572,-0.10952201,0.9959879,-9.667787,0.90500826
6.236611,4.8500233,-0.22233863,-0.24121572,-0.10952201,0.9959879,-9.667787,0.90500826
6.2363853,4.8497066,-0.21807757,-0.22630201,-0.12869677,0.8523358,-9.801862,0.8283938
6.236157,4.8493853,-0.21807757,-0.22630201,-0.12869677,0.8523358,-9.801862,0.8283938
6.235915,4.849009,-0.21275125,-0.21351884,-0.14254521,0.6512229,-9.940725,0.8571242
6.2357326,4.8487244,-0.21275125,-0.21351884,-0.14254521,0.6512229,-9.940725,0.8571242
6.23556,4.8484244,-0.20635967,-0.20073566,-0.1489368,0.50757074,-10.012551,0.90979666
6.2353764,4.8481054,-0.20635967,-0.20073566,-0.1489368,0.50757074,-10.012551,0.90979666
6.2352366,4.8478074,-0.19677228,-0.19221355,-0.15213259,0.30645782,-10.113108,0.866701
6.2350955,4.847507,-0.19677228,-0.19221355,-0.15213259,0.30645782,-10.113108,0.866701
6.2349663,4.847216,-0.18825017,-0.18795249,-0.15213259,0.2633622,-10.175357,0.91458505
6.2348356,4.8469214,-0.18825017,-0.18795249,-0.15213259,0.2633622,-10.175357,0.91458505
6.234712,4.846642,-0.17759752,-0.1847567,-0.1489368,0.2681506,-10.156203,0.93373865
6.23459,4.846364,-0.17759752,-0.1847567,-0.1489368,0.2681506,-10.156203,0.93373865
6.2344837,4.846099,-0.16481435,-0.18369143,-0.14361048,0.20111294,-10.160992,0.92895025
6.2343793,4.8458366,-0.16481435,-0.18369143,-0.14361048,0.20111294,-10.160992,0.92895025
6.234305,4.8455977,-0.15096591,-0.18262617,-0.1372189,0.12449849,-10.151415,1.0103531
6.2342296,4.845356,-0.15096591,-0.18262617,-0.1372189,0.12449849,-10.151415,1.0103531
6.2341666,4.845133,-0.13711748,-0.18049563,-0.12656625,0.01436521,-10.113108,0.89543146
6.234103,4.8449073,-0.13711748,-0.18049563,-0.12656625,0.01436521,-10.113108,0.89543146
6.2340565,4.8446984,-0.12326904,-0.17729984,-0.11484833,0.02873042,-10.132261,0.94331545
6.23401,4.8444896,-0.12326904,-0.17729984,-0.11484833,0.02873042,-10.132261,0.94331545
6.233992,4.844303,-0.11048587,-0.1730388,-0.10099989,-0.08140286,-10.156203,0.9672575
6.2339745,4.844117,-0.11048587,-0.1730388,-0.10099989,-0.08140286,-10.156203,0.9672575
6.2339697,4.843941,-0.09770269,-0.16984299,-0.08502093,-0.1436521,-10.13705,0.89543146
6.2339654,4.8437653,-0.09770269,-0.16984299,-0.08502093,-0.1436521,-10.13705,0.89543146
6.2339973,4.8436184,-0.08385425,-0.1634514,-0.06691143,-0.31603462,-10.1226845,0.9624691
6.2340293,4.8434734,-0.08385425,-0.1634514,-0.06691143,-0.31603462,-10.1226845,0.9624691
6.234089,4.843347,-0.07000581,-0.15705982,-0.04454088,-0.47405192,-10.199299,0.9576807
6.234149,4.8432207,-0.07000581,-0.15705982,-0.04454088,-0.47405192,-10.199299,0.9576807
6.234243,4.8431096,-0.057222642,-0.14747244,-0.017909266,-0.59376204,-10.16578,0.9624691
6.234331,4.843005,-0.057222642,-0.14747244,-0.017909266,-0.59376204,-10.16578,0.9624691
6.234451,4.8429046,-0.046569996,-0.14214613,0.011918138,-0.7661445,-10.223241,0.866701
6.234571,4.842803,-0.046569996,-0.14214613,0.011918138,-0.7661445,-10.223241,0.866701
6.2347283,4.8427196,-0.034852087,-0.13575453,0.0460066,-0.842759,-10.223241,0.90500826
6.2348857,4.842636,-0.034852087,-0.13575453,0.0460066,-0.842759,-10.223241,0.90500826
6.2350807,4.8425703,-0.02313418,-0.13149348,0.08116033,-0.92416185,-10.237606,0.94810385
6.2352767,4.842504,-0.02313418,-0.13149348,0.08116033,-0.92416185,-10.237606,0.94810385
6.2355094,4.842452,-0.012481534,-0.13042821,0.11631405,-0.9911995,-10.280702,0.9864111
6.235742,4.8424006,-0.012481534,-0.13042821,0.11631405,-0.9911995,-10.280702,0.9864111
6.2360134,4.8423624,-0.0007636249,-0.13149348,0.15359831,-1.0247183,-10.271125,1.0055647
6.236284,4.8423247,-0.0007636249,-0.13149348,0.15359831,-1.0247183,-10.271125,1.0055647
6.236588,4.8423,0.010954284,-0.13468927,0.18768677,-0.9911995,-10.25676,1.0295067
6.2368927,4.842275,0.010954284,-0.13468927,0.18768677,-0.9911995,-10.25676,1.0295067
6.237229,4.8422594,0.022672193,-0.14108086,0.22070996,-0.9576807,-10.266336,1.0151415
6.2375636,4.842244,0.022672193,-0.14108086,0.22070996,-0.9576807,-10.266336,1.0151415
6.2379274,4.842244,0.03545537,-0.14853771,0.24627632,-0.9672575,-10.232818,1.0486604
6.2382855,4.842244,0.03545537,-0.14853771,0.24627632,-0.9672575,-10.232818,1.0486604
6.2386713,4.8422565,0.04610801,-0.15812509,0.2707774,-0.9864111,-10.247183,1.067814
6.2390556,4.842269,0.04610801,-0.15812509,0.2707774,-0.9864111,-10.247183,1.067814
6.2394595,4.842291,0.056760654,-0.16877773,0.2910174,-0.9864111,-10.117896,1.0534488
6.239863,4.8423133,0.056760654,-0.16877773,0.2910174,-0.9864111,-10.117896,1.0534488
6.2402816,4.842345,0.06634804,-0.18262617,0.3069964,-0.9768343,-9.993398,1.0486604
6.2406983,4.8423777,0.06634804,-0.18262617,0.3069964,-0.9768343,-9.993398,1.0486604
6.241128,4.8424206,0.075935416,-0.19753987,0.32084483,-0.9672575,-9.921572,1.067814
6.2415595,4.8424644,0.075935416,-0.19753987,0.32084483,-0.9672575,-9.921572,1.067814
6.2419963,4.8425083,0.08126174,-0.2145841,0.33256274,-1.0007763,-9.80665,1.0103531
6.242435,4.842553,0.08126174,-0.2145841,0.33256274,-1.0007763,-9.80665,1.0103531
6.2428823,4.842601,0.087653324,-0.23056307,0.34001958,-0.9624691,-9.696517,0.9768343
6.243334,4.8426495,0.087653324,-0.23056307,0.34001958,-0.9624691,-9.696517,0.9768343
6.2437773,4.8426905,0.089783855,-0.2476073,0.34641117,-0.866701,-9.629479,0.90500826
6.2442155,4.842731,0.089783855,-0.2476073,0.34641117,-0.866701,-9.629479,0.90500826
6.244658,4.8427725,0.09084912,-0.262521,0.35067225,-0.82360536,-9.581595,0.91458505
6.2451005,4.842814,0.09084912,-0.262521,0.35067225,-0.82360536,-9.581595,0.91458505
6.245544,4.842849,0.089783855,-0.27530417,0.35280275,-0.7517793,-9.485827,0.866701
6.245986,4.842883,0.089783855,-0.27530417,0.35280275,-0.7517793,-9.485827,0.866701
6.246428,4.8429184,0.08658806,-0.28915262,0.3517375,-0.6895301,-9.495404,0.93373865
6.2468715,4.8429537,0.08658806,-0.28915262,0.3517375,-0.6895301,-9.495404,0.93373865
6.2473006,4.8429756,0.08339227,-0.3019358,0.3485417,-0.60812724,-9.548077,0.8762778
6.2477307,4.842998,0.08339227,-0.3019358,0.3485417,-0.60812724,-9.548077,0.8762778
6.248159,4.8430195,0.08126174,-0.31471896,0.34747645,-0.51235914,-9.581595,0.93373865
6.2485876,4.8430405,0.08126174,-0.31471896,0.34747645,-0.51235914,-9.581595,0.93373865
6.2490077,4.8430557,0.07913121,-0.3253716,0.34321538,-0.47405192,-9.572019,0.91458505
6.2494273,4.8430705,0.07913121,-0.3253716,0.34321538,-0.47405192,-9.572019,0.91458505
6.249836,4.843078,0.075935416,-0.334959,0.33575854,-0.39264908,-9.533711,0.91458505
6.250242,4.843086,0.075935416,-0.334959,0.33575854,-0.39264908,-9.533711,0.91458505
6.2506347,4.8430853,0.07273962,-0.3434811,0.32510588,-0.33518824,-9.509769,0.90021986
6.251025,4.8430853,0.07273962,-0.3434811,0.32510588,-0.33518824,-9.509769,0.90021986
6.2513876,4.843069,0.07060909,-0.35200322,0.31445324,-0.29209262,-9.471462,0.78529817
6.2517495,4.8430533,0.07060909,-0.35200322,0.31445324,-0.29209262,-9.471462,0.78529817
6.252111,4.8430386,0.06634804,-0.35946006,0.30593112,-0.31124622,-9.509769,0.842759
6.2524705,4.8430233,0.06634804,-0.35946006,0.30593112,-0.31124622,-9.509769,0.842759
6.252819,4.8430033,0.06315224,-0.36798218,0.297409,-0.33518824,-9.543288,0.80924016
6.2531667,4.8429832,0.06315224,-0.36798218,0.297409,-0.33518824,-9.543288,0.80924016
6.2534957,4.842953,0.05995645,-0.37437376,0.2888869,-0.2777274,-9.481039,0.7613561
6.2538247,4.842923,0.05995645,-0.37437376,0.2888869,-0.2777274,-9.481039,0.7613561
6.2541447,4.842892,0.058891185,-0.38076535,0.28143004,-0.29209262,-9.524135,0.7565677
6.2544646,4.842861,0.058891185,-0.38076535,0.28143004,-0.29209262,-9.524135,0.7565677
6.2544646,4.842861,0.056760654,-0.38609168,0.27610373,-0.272939,-9.485827,0.79966336
6.2544646,4.842861,0.056760654,-0.38609168,0.27610373,-0.272939,-9.485827,0.79966336
6.255425,4.8427677,0.055695392,-0.391418,0.27184266,-0.22505496,-9.528923,0.79966336
6.2557335,4.8427315,0.055695392,-0.391418,0.27184266,-0.22505496,-9.528923,0.79966336
6.2557335,4.8427315,0.055695392,-0.391418,0.27184266,-0.22505496,-9.528923,0.79966336
6.2564154,4.842644,0.054630127,-0.3967443,0.2707774,-0.24420857,-9.56723,0.7613561
6.2566357,4.842617,0.054630127,-0.40207064,0.2707774,-0.25378537,-9.600749,0.770933
6.2569394,4.842579,0.054630127,-0.40207064,0.2707774,-0.25378537,-9.600749,0.770933
6.2572207,4.8425403,0.05782592,-0.40633172,0.27290794,-0.18195933,-9.629479,0.7469909
6.257512,4.8425007,0.05782592,-0.40633172,0.27290794,-0.18195933,-9.629479,0.7469909
6.2578053,4.8424625,0.058891185,-0.41059276,0.27503845,-0.12928689,-9.605537,0.82360536
6.2581,4.8424244,0.058891185,-0.41059276,0.27503845,-0.12928689,-9.605537,0.82360536
6.258375,4.8423796,0.05995645,-0.41378856,0.27823424,-0.05746084,-9.682152,0.7326257
6.258649,4.8423357,0.05995645,-0.41378856,0.27823424,-0.05746084,-9.682152,0.7326257
6.2589283,4.8422937,0.06315224,-0.4148538,0.28143004,-0.023942016,-9.715671,0.79008657
