Pitch,Roll,Gyro_X,Gyro_Y,Gyro_Z,Accel_X,Accel_Y,Accel_Z
0.007177365,4.596093,-0.06574476,-0.010053327,0.22816682,0.641646,-9.217676,-1.4221559
0.00741317,4.5958414,-0.07107108,-0.011118591,0.24521105,0.61770403,-9.212888,-1.4269443
0.0075415983,4.5957127,-0.07107108,-0.011118591,0.24521105,0.61770403,-9.212888,-1.4269443
0.0076928027,4.5955687,-0.07852793,-0.010053327,0.26119003,0.60812724,-9.212888,-1.4891934
0.007844206,4.5954247,-0.07852793,-0.010053327,0.26119003,0.60812724,-9.212888,-1.4891934
0.008013022,4.595271,-0.08598478,-0.010053327,0.27610373,0.61291564,-9.255983,-1.5275006
0.0081822,4.5951176,-0.08598478,-0.010053327,0.27610373,0.61291564,-9.255983,-1.5275006
0.008361873,4.5949597,-0.0945069,-0.008988062,0.2920827,0.60812724,-9.260772,-1.484405
0.008542004,4.5948014,-0.0945069,-0.008988062,0.2920827,0.60812724,-9.260772,-1.484405
0.008740558,4.5946336,-0.10089848,-0.0068575335,0.3069964,0.59855044,-9.208099,-1.5179238
0.008939623,4.5944653,-0.10089848,-0.0068575335,0.3069964,0.59855044,-9.208099,-1.5179238
0.009164509,4.5942793,-0.107290074,-0.00366174,0.31977957,0.545878,-9.232041,-1.532289
0.009389483,4.5940933,-0.107290074,-0.00366174,0.31977957,0.545878,-9.232041,-1.532289
0.00960905,4.593915,-0.11474692,-0.0015312112,0.3304322,0.49320555,-9.222465,-1.6041151
0.009843476,4.593724,-0.11474692,-0.0015312112,0.3304322,0.49320555,-9.222465,-1.6041151
0.010090562,4.5935254,-0.120073244,0.0016645822,0.34108487,0.49799395,-9.279925,-1.6136919
0.010336957,4.5933275,-0.120073244,0.0016645822,0.34108487,0.49799395,-9.279925,-1.6136919
0.010586439,4.593128,-0.12539956,0.003795111,0.35067225,0.49320555,-9.3182335,-1.5610195
0.010835999,4.592929,-0.12539956,0.003795111,0.35067225,0.49320555,-9.3182335,-1.5610195
0.011102836,4.5927196,-0.12966062,0.00592564,0.35919434,0.4309563,-9.313444,-1.5945383
0.011369167,4.5925107,-0.12966062,0.00592564,0.35919434,0.4309563,-9.313444,-1.5945383
0.011634524,4.5923033,-0.13179116,0.008056169,0.36452067,0.45968673,-9.385271,-1.5801731
0.011899456,4.592096,-0.13179116,0.008056169,0.36452067,0.45968673,-9.385271,-1.5801731
0.012173688,4.5918827,-0.13498695,0.010186698,0.369847,0.39743748,-9.457097,-1.5753847
0.012447189,4.5916705,-0.13498695,0.010186698,0.369847,0.39743748,-9.457097,-1.5753847
0.012722945,4.5914583,-0.13498695,0.013382491,0.3730428,0.3878607,-9.481039,-1.5705963
0.012998118,4.5912466,-0.13498695,0.013382491,0.3730428,0.3878607,-9.481039,-1.5705963
0.013272523,4.591041,-0.13179116,0.01551302,0.37730384,0.320823,-9.576807,-1.4987702
0.013546011,4.5908365,-0.13179116,0.01551302,0.37730384,0.320823,-9.576807,-1.4987702
0.013833525,4.5906277,-0.1275301,0.017643549,0.37836912,0.272939,-9.586384,-1.5514427
0.014120343,4.59042,-0.1275301,0.017643549,0.37836912,0.272939,-9.586384,-1.5514427
0.014394236,4.590226,-0.122203775,0.019774077,0.38049963,0.25857377,-9.65821,-1.460463
0.0146674905,4.5900335,-0.122203775,0.019774077,0.38049963,0.25857377,-9.65821,-1.460463
0.014967135,4.5898323,-0.11474692,0.021904606,0.38049963,0.20590134,-9.696517,-1.5897499
0.01526541,4.589632,-0.11474692,0.021904606,0.38049963,0.20590134,-9.696517,-1.5897499
0.015559373,4.5894423,-0.106224805,0.022969872,0.38049963,0.15801731,-9.768343,-1.5227122
0.015852528,4.5892525,-0.106224805,0.022969872,0.38049963,0.15801731,-9.768343,-1.5227122
0.016142257,4.5890718,-0.09876795,0.021904606,0.37943438,0.20590134,-9.782708,-1.5610195
0.016430994,4.588891,-0.09876795,0.021904606,0.37943438,0.20590134,-9.782708,-1.5610195
0.016724132,4.5887165,-0.09024584,0.021904606,0.37836912,0.16759412,-9.864111,-1.5753847
0.017016746,4.5885425,-0.09024584,0.021904606,0.37836912,0.16759412,-9.864111,-1.5753847
0.017299056,4.588382,-0.08065846,0.021904606,0.37730384,0.30166942,-9.811439,-1.6376339
0.017580532,4.5882225,-0.08065846,0.021904606,0.37730384,0.30166942,-9.811439,-1.6376339
0.017866174,4.588065,-0.07320161,0.024035135,0.37197754,0.05746084,-9.916783,-1.4796166
0.01815102,4.587909,-0.07320161,0.024035135,0.37197754,0.05746084,-9.916783,-1.4796166
0.018476544,4.587745,-0.06574476,0.022969872,0.36558592,-0.11971009,-10.079589,-1.4460979
0.0188001,4.5875816,-0.06574476,0.022969872,0.36558592,-0.11971009,-10.079589,-1.4460979
0.019111881,4.5874305,-0.05509211,0.017643549,0.36132488,-0.095768064,-10.079589,-1.4700398
0.019422011,4.58728,-0.05509211,0.017643549,0.36132488,-0.095768064,-10.079589,-1.4700398
0.01968159,4.5871577,-0.045504734,0.012317227,0.35706383,0.10534488,-10.031705,-1.508347
0.01994043,4.587036,-0.045504734,0.012317227,0.35706383,0.10534488,-10.031705,-1.508347
0.020177353,4.5869393,-0.032721557,0.009121433,0.35067225,0.17238252,-10.01734,-1.4796166
0.020414239,4.5868425,-0.032721557,0.009121433,0.35067225,0.17238252,-10.01734,-1.4796166
0.020654593,4.5867476,-0.022068914,0.00592564,0.34215012,0.1340753,-9.998186,-1.5131354
0.020894157,4.5866528,-0.022068914,0.00592564,0.34215012,0.1340753,-9.998186,-1.5131354
0.021129467,4.586565,-0.0114162695,0.0027298466,0.3304322,0.038307227,-10.036493,-1.4748282
0.021363532,4.5864773,-0.0114162695,0.0027298466,0.3304322,0.038307227,-10.036493,-1.4748282
0.021588186,4.5863986,-0.0007636249,0.0005993177,0.31658378,0.019153614,-10.031705,-1.4748282
0.021811662,4.5863204,-0.0007636249,0.0005993177,0.31658378,0.019153614,-10.031705,-1.4748282
0.02200038,4.5862722,0.012019549,-0.0015312112,0.3038006,0.0047884034,-10.089166,-1.3982137
0.022187784,4.5862246,0.012019549,-0.0015312112,0.3038006,0.0047884034,-10.089166,-1.3982137
0.022357702,4.5861955,0.024802722,-0.0025964756,0.2910174,0.009576807,-10.0748005,-1.3838485
0.022528796,4.5861664,0.024802722,-0.0025964756,0.2910174,0.009576807,-10.0748005,-1.3838485
0.022695057,4.586139,0.03652063,-0.0047270046,0.277169,0.009576807,-10.036493,-1.412579
0.022860374,4.5861125,0.03652063,-0.0047270046,0.277169,0.009576807,-10.036493,-1.412579
0.023014564,4.586096,0.047173277,-0.0047270046,0.26545107,0.090979666,-10.036493,-1.460463
0.023170339,4.5860796,0.047173277,-0.0047270046,0.26545107,0.090979666,-10.036493,-1.460463
0.023315705,4.5860915,0.05782592,-0.0047270046,0.25160265,-0.062249243,-10.108319,-1.3503298
0.023315705,4.5860915,0.05782592,-0.0047270046,0.25160265,-0.062249243,-10.108319,-1.3503298
0.02353259,4.5861363,0.0674133,-0.00366174,0.2377542,-0.19153613,-10.237606,-1.3072342
0.02353259,4.5861363,0.0674133,-0.00366174,0.2377542,-0.19153613,-10.237606,-1.3072342
0.02353259,4.5861363,0.0674133,-0.00366174,0.2377542,-0.19153613,-10.237606,-1.3072342
0.023802213,4.586332,0.074870154,-0.005792269,0.22816682,-0.090979666,-10.170568,-1.3024458
0.023892308,4.586363,0.08126174,-0.0068575335,0.21964471,0.32561144,-10.1226845,-1.5897499
0.023997637,4.5863833,0.08126174,-0.0068575335,0.21964471,0.32561144,-10.1226845,-1.5897499
0.024096731,4.586403,0.08445753,-0.00366174,0.21005733,0.46447513,-10.199299,-1.70946
0.02419526,4.586423,0.08445753,-0.00366174,0.21005733,0.46447513,-10.199299,-1.70946
0.024277935,4.5864434,0.08339227,0.0048603755,0.19514363,0.05746084,-10.127473,-1.4556746
0.02436069,4.586464,0.08339227,0.0048603755,0.19514363,0.05746084,-10.127473,-1.4556746
0.024670182,4.586577,0.082327,0.014447756,0.18129519,-0.5410896,-10.237606,-1.2258313
0.024980329,4.58669,0.082327,0.014447756,0.18129519,-0.5410896,-10.237606,-1.2258313
0.02526996,4.5868235,0.08339227,0.016578285,0.1749036,-0.78050977,-10.28549,-1.0726024
0.025559036,4.5869565,0.08339227,0.016578285,0.1749036,-0.78050977,-10.28549,-1.0726024
0.02581944,4.5871177,0.08552279,0.010186698,0.1749036,-0.59376204,-10.328587,-1.0151415
0.026079137,4.5872784,0.08552279,0.010186698,0.1749036,-0.59376204,-10.328587,-1.0151415
0.026256336,4.587467,0.09084912,-0.00046594674,0.17916466,-0.2681506,-10.28549,-1.0630256
0.026432706,4.5876565,0.09084912,-0.00046594674,0.17916466,-0.2681506,-10.28549,-1.0630256
0.0265087,4.587817,0.0972407,-0.010053327,0.18236046,0.01436521,-10.156203,-1.1013328
0.026584094,4.5879774,0.0972407,-0.010053327,0.18236046,0.01436521,-10.156203,-1.1013328
0.026625814,4.588077,0.09937123,-0.014314385,0.18129519,0.16759412,-10.0029745,-1.2497733
0.02666749,4.5881763,0.09937123,-0.014314385,0.18129519,0.16759412,-10.0029745,-1.2497733
0.026704667,4.588255,0.0972407,-0.012183856,0.1749036,0.11492168,-9.864111,-1.283292
0.026741957,4.5883327,0.0972407,-0.012183856,0.1749036,0.11492168,-9.864111,-1.283292
0.026785335,4.5883765,0.09297965,-0.008988062,0.16638148,0.02873042,-9.811439,-1.340753
0.026828788,4.5884204,0.09297965,-0.008988062,0.16638148,0.02873042,-9.811439,-1.340753
0.02686437,4.588455,0.08658806,-0.00366174,0.1567941,-0.047884032,-9.782708,-1.3120226
0.02690001,4.58849,0.08658806,-0.00366174,0.1567941,-0.047884032,-9.782708,-1.3120226
0.026908254,4.588545,0.07700068,-0.00046594674,0.14614145,-0.02873042,-9.768343,-1.2545617
0.026916612,4.5885987,0.07700068,-0.00046594674,0.14614145,-0.02873042,-9.768343,-1.2545617
0.026913755,4.5886555,0.06847856,0.0016645822,0.13761935,0.019153614,-9.816227,-1.2449849
0.026910972,4.5887117,0.06847856,0.0016645822,0.13761935,0.019153614,-9.816227,-1.2449849
0.026899258,4.5887794,0.05995645,0.003795111,0.12909722,0.07182605,-9.825804,-1.2018893
0.026887527,4.5888467,0.05995645,0.003795111,0.12909722,0.07182605,-9.825804,-1.2018893
0.026892602,4.588955,0.0524996,0.00592564,0.120575115,0.10055647,-9.844957,-1.0390835
0.026897304,4.58906,0.0524996,0.00592564,0.120575115,0.10055647,-9.844957,-1.0390835
0.02688516,4.589153,0.04610801,0.008056169,0.112053,0.110133275,-9.868899,-1.0773908
0.02687247,4.5892477,0.04610801,0.008056169,0.112053,0.110133275,-9.868899,-1.0773908
0.026859112,4.58934,0.039716423,0.012317227,0.10566141,0.1388637,-9.911995,-1.0390835
0.026845705,4.589432,0.039716423,0.012317227,0.10566141,0.1388637,-9.911995,-1.0390835
0.026831107,4.589526,0.03545537,0.018708814,0.09926982,0.1388637,-9.864111,-1.0007763
0.026816292,4.5896206,0.03545537,0.018708814,0.09926982,0.1388637,-9.864111,-1.0007763
0.026840491,4.5897408,0.033324838,0.0251004,0.09607403,-0.033518825,-9.907207,-0.92895025
0.026865033,4.589864,0.033324838,0.0251004,0.09607403,-0.033518825,-9.907207,-0.92895025
0.02691351,4.5899987,0.032259572,0.031491987,0.09713929,-0.110133275,-9.9550905,-0.91937345
0.026950726,4.590102,0.032259572,0.031491987,0.09713929,-0.110133275,-9.9550905,-0.91937345
0.026950277,4.590206,0.031194309,0.035753045,0.09713929,-0.033518825,-9.959879,-1.0342951
0.026949544,4.5903096,0.031194309,0.035753045,0.09713929,-0.033518825,-9.959879,-1.0342951
0.026906434,4.5903583,0.034390103,0.037883572,0.10033509,-0.0047884034,-9.92636,-1.1875241
0.026863296,4.590407,0.034390103,0.037883572,0.10033509,-0.0047884034,-9.92636,-1.1875241
0.02682826,4.5904226,0.037585896,0.037883572,0.10779194,0.095768064,-9.873688,-1.2641385
0.02679323,4.590439,0.037585896,0.037883572,0.10779194,0.095768064,-9.873688,-1.2641385
0.026771573,4.5904374,0.039716423,0.037883572,0.11311826,0.1436521,-9.945514,-1.3455414
0.026749918,4.5904365,0.039716423,0.037883572,0.11311826,0.1436521,-9.945514,-1.3455414
0.026721084,4.5904684,0.039716423,0.03681831,0.11631405,0.1388637,-9.998186,-1.2449849
0.026692273,4.5905,0.039716423,0.03681831,0.11631405,0.1388637,-9.998186,-1.2449849
0.02667132,4.5905604,0.040781688,0.035753045,0.120575115,0.22984336,-9.935937,-1.13964
0.026650397,4.5906205,0.040781688,0.035753045,0.120575115,0.22984336,-9.935937,-1.13964
0.026633238,4.590676,0.041846953,0.033622514,0.12590143,0.31124622,-9.883265,-1.1492168
0.026616044,4.5907307,0.041846953,0.033622514,0.12590143,0.31124622,-9.883265,-1.1492168
0.026600618,4.5907907,0.041846953,0.03681831,0.1269667,0.038307227,-9.873688,-1.163582
0.02658514,4.5908504,0.041846953,0.03681831,0.1269667,0.038307227,-9.873688,-1.163582
0.026588514,4.590839,0.04291222,0.04107937,0.13016249,0.46926352,-9.892841,-1.532289
0.026591877,4.5908275,0.04291222,0.04107937,0.13016249,0.46926352,-9.892841,-1.532289
0.026581502,4.590855,0.040781688,0.04427516,0.13548881,0.6847417,-9.854534,-1.283292
0.026571171,4.5908823,0.040781688,0.04427516,0.13548881,0.6847417,-9.854534,-1.283292
0.026570754,4.5909567,0.03652063,0.053862542,0.13442355,0.21068975,-9.92636,-1.0630256
0.02657021,4.5910306,0.03652063,0.053862542,0.13442355,0.21068975,-9.92636,-1.0630256
0.026667723,4.591164,0.03865116,0.060254127,0.13335828,-0.18195933,-9.959879,-0.91937345
0.026764827,4.591297,0.03865116,0.060254127,0.13335828,-0.18195933,-9.959879,-0.91937345
0.026894988,4.591439,0.045042746,0.060254127,0.13548881,-0.2825158,-10.084377,-0.8283938
0.02702484,4.5915794,0.045042746,0.060254127,0.13548881,-0.2825158,-10.084377,-0.8283938
0.02713374,4.591728,0.05356486,0.05173201,0.14188041,-0.1436521,-10.156203,-0.7374141
0.02724234,4.591876,0.05356486,0.05173201,0.14188041,-0.1436521,-10.156203,-0.7374141
0.027321283,4.5920277,0.0674133,0.040014103,0.15040252,0.095768064,-10.103531,-0.7326257
0.027399879,4.5921793,0.0674133,0.040014103,0.15040252,0.095768064,-10.103531,-0.7326257
0.027471343,4.59234,0.082327,0.029361458,0.15572885,0.2777274,-10.065224,-0.6607997
0.027542517,4.5925,0.082327,0.029361458,0.15572885,0.2777274,-10.065224,-0.6607997
0.027600553,4.592665,0.09511018,0.020839343,0.15785937,0.33518824,-10.0029745,-0.7613561
0.02765788,4.592828,0.09511018,0.020839343,0.15785937,0.33518824,-10.0029745,-0.7613561
0.027722374,4.5930057,0.104697555,0.016578285,0.15785937,0.32561144,-9.911995,-0.6991069
0.027786778,4.593183,0.104697555,0.016578285,0.15785937,0.32561144,-9.911995,-0.6991069
0.027856352,4.5933733,0.11215441,0.012317227,0.15253304,0.23942018,-9.80665,-0.6655881
0.027925808,4.593563,0.11215441,0.012317227,0.15253304,0.23942018,-9.80665,-0.6655881
0.028003344,4.593767,0.11748073,0.009121433,0.14614145,0.110133275,-9.825804,-0.6799533
0.028079458,4.593968,0.11748073,0.009121433,0.14614145,0.110133275,-9.825804,-0.6799533
0.028155843,4.5941753,0.120676525,0.0069909045,0.13974987,0,-9.773131,-0.7661445
0.02823208,4.5943832,0.120676525,0.0069909045,0.13974987,0,-9.773131,-0.7661445
0.028272063,4.594577,0.122807056,-0.00046594674,0.13655408,0.076614454,-9.739613,-0.89064306
0.02831158,4.59477,0.122807056,-0.00046594674,0.13655408,0.076614454,-9.739613,-0.89064306
0.028364299,4.5949755,0.12493758,-0.011118591,0.13229302,0.009576807,-9.744401,-0.8619126
0.028417218,4.595183,0.12493758,-0.011118591,0.13229302,0.009576807,-9.744401,-0.8619126
0.02852872,4.5954027,0.12493758,-0.0228365,0.12590143,-0.22505496,-9.768343,-0.79487497
0.028641151,4.595626,0.12493758,-0.0228365,0.12590143,-0.22505496,-9.768343,-0.79487497
0.028689956,4.5958323,0.12493758,-0.037750203,0.12270564,0.08619126,-9.801862,-0.7613561
0.028738603,4.5960393,0.12493758,-0.037750203,0.12270564,0.08619126,-9.801862,-0.7613561
0.028768174,4.5962358,0.12493758,-0.051598642,0.119509846,0.32561144,-9.821015,-0.6943185
0.028797504,4.596432,0.12493758,-0.051598642,0.119509846,0.32561144,-9.821015,-0.6943185
0.028821986,4.596628,0.12493758,-0.060120758,0.11418352,0.35434186,-9.753978,-0.6703765
0.02884622,4.596824,0.12493758,-0.060120758,0.11418352,0.35434186,-9.753978,-0.6703765
0.028863655,4.5970206,0.12493758,-0.06544708,0.106726676,0.272939,-9.624691,-0.7134721
0.02888079,4.597217,0.12493758,-0.06544708,0.106726676,0.272939,-9.624691,-0.7134721
0.028902372,4.597421,0.12493758,-0.06864287,0.09713929,0.20590134,-9.595961,-0.6512229
0.028923841,4.597626,0.12493758,-0.06864287,0.09713929,0.20590134,-9.595961,-0.6512229
0.028942201,4.597833,0.12387232,-0.06864287,0.088617176,0.10055647,-9.605537,-0.7086837
0.028960243,4.598039,0.12387232,-0.06864287,0.088617176,0.10055647,-9.605537,-0.7086837
0.028986208,4.5982485,0.120676525,-0.06970814,0.08329086,-0.04309563,-9.552865,-0.78050977
0.029011741,4.598458,0.120676525,-0.06970814,0.08329086,-0.04309563,-9.552865,-0.78050977
0.029025791,4.5986586,0.1153502,-0.07290393,0.0790298,-0.01436521,-9.576807,-0.79008657
0.029040856,4.5988803,0.1153502,-0.07290393,0.0790298,-0.01436521,-9.576807,-0.79008657
0.029020805,4.5990386,0.10895862,-0.07503446,0.07796454,0.11492168,-9.552865,-0.8619126
0.028998991,4.5992084,0.10895862,-0.07503446,0.07796454,0.11492168,-9.552865,-0.8619126
0.028951876,4.5993443,0.102567025,-0.077164985,0.075834006,0.31124622,-9.572019,-0.94331545
0.028904334,4.599481,0.102567025,-0.077164985,0.075834006,0.31124622,-9.572019,-0.94331545
0.028848354,4.5996003,0.09404491,-0.08036078,0.07050768,0.3878607,-9.600749,-0.9720459
0.028792271,4.59972,0.09404491,-0.08036078,0.07050768,0.3878607,-9.600749,-0.9720459
0.028727163,4.5998216,0.08552279,-0.08142605,0.0641161,0.39743748,-9.533711,-1.0103531
0.028661918,4.599923,0.08552279,-0.08142605,0.0641161,0.39743748,-9.533711,-1.0103531
0.028588261,4.599987,0.074870154,-0.08142605,0.056659244,0.35913026,-9.485827,-1.1300632
0.028514465,4.6000514,0.074870154,-0.08142605,0.056659244,0.35913026,-9.485827,-1.1300632
0.028432954,4.600099,0.062086977,-0.08249131,0.04813713,0.33997664,-9.41879,-1.1348516
0.028351475,4.600147,0.062086977,-0.08249131,0.04813713,0.33997664,-9.41879,-1.1348516
0.028263016,4.6001797,0.04823854,-0.08249131,0.040680278,0.29688102,-9.380483,-1.1300632
0.028174404,4.6002126,0.04823854,-0.08249131,0.040680278,0.29688102,-9.380483,-1.1300632
0.028077811,4.6002326,0.032259572,-0.08249131,0.033223428,0.2825158,-9.409213,-1.115698
0.027981142,4.600253,0.032259572,-0.08249131,0.033223428,0.2825158,-9.409213,-1.115698
0.027879497,4.600251,0.016280606,-0.08355658,0.02683184,0.2777274,-9.375694,-1.1348516
0.027777748,4.6002502,0.016280606,-0.08355658,0.02683184,0.2777274,-9.375694,-1.1348516
0.027670873,4.600241,0.0024321685,-0.0856871,0.022570781,0.32561144,-9.346964,-1.1109096
0.027563771,4.600232,0.0024321685,-0.0856871,0.022570781,0.32561144,-9.346964,-1.1109096
0.027458254,4.600194,-0.0114162695,-0.08675237,0.019374989,0.24899697,-9.394848,-1.1683705
0.027352303,4.600156,-0.0114162695,-0.08675237,0.019374989,0.24899697,-9.394848,-1.1683705
0.027249843,4.6000986,-0.022068914,-0.08888289,0.018309724,0.15801731,-9.466674,-1.1875241
0.027146565,4.6000414,-0.022068914,-0.08888289,0.018309724,0.15801731,-9.466674,-1.1875241
0.027050754,4.5999684,-0.031656295,-0.095274486,0.019374989,0.15801731,-9.600749,-1.2306197
0.026954096,4.5998955,-0.031656295,-0.095274486,0.019374989,0.15801731,-9.600749,-1.2306197
0.02686381,4.599808,-0.039113145,-0.1037966,0.020440254,0.12928689,-9.662998,-1.2545617
0.02677413,4.599722,-0.039113145,-0.1037966,0.020440254,0.12928689,-9.662998,-1.2545617
0.026690185,4.5996237,-0.04443947,-0.11444924,0.019374989,0.1340753,-9.77792,-1.3024458
0.026606163,4.5995255,-0.04443947,-0.11444924,0.019374989,0.1340753,-9.77792,-1.3024458
0.026507614,4.59945,-0.046569996,-0.12723242,0.020440254,0.08619126,-9.811439,-1.1971009
0.02640809,4.599374,-0.046569996,-0.12723242,0.020440254,0.08619126,-9.811439,-1.1971009
0.02632779,4.5992775,-0.046569996,-0.14214613,0.021505518,0.06703765,-9.811439,-1.2641385
0.026243309,4.5991774,-0.046569996,-0.14214613,0.021505518,0.06703765,-9.811439,-1.2641385
0.026192602,4.599061,-0.045504734,-0.15705982,0.020440254,0.038307227,-9.816227,-1.3742718
0.026140982,4.5989428,-0.045504734,-0.15705982,0.020440254,0.038307227,-9.816227,-1.3742718
0.026117781,4.598813,-0.042308938,-0.17090826,0.019374989,-0.0047884034,-9.811439,-1.4939818
0.026117781,4.598813,-0.042308938,-0.17090826,0.019374989,-0.0047884034,-9.811439,-1.4939818
0.026117781,4.598813,-0.042308938,-0.17090826,0.019374989,-0.0047884034,-9.811439,-1.4939818
0.026065238,4.598496,-0.041243672,-0.18795249,0.018309724,-0.009576807,-9.797073,-1.6519991
0.026033305,4.5982995,-0.041243672,-0.20712726,0.015113931,0.076614454,-9.864111,-1.5370775
0.025999116,4.598174,-0.041243672,-0.20712726,0.015113931,0.076614454,-9.864111,-1.5370775
0.025999116,4.598174,-0.041243672,-0.20712726,0.015113931,0.076614454,-9.864111,-1.5370775
0.02586261,4.597958,-0.04443947,-0.22736728,0.0065918155,0.14844051,-9.873688,-1.4173675
0.025764074,4.597873,-0.046569996,-0.24441151,-0.0072566224,0.19632454,-9.821015,-1.3072342
0.025661439,4.5977845,-0.046569996,-0.24441151,-0.0072566224,0.19632454,-9.821015,-1.3072342
0.025661439,4.5977845,-0.04763526,-0.2561294,-0.022170324,0.047884032,-9.749189,-1.2018893
0.0254128,4.5976334,-0.04763526,-0.2561294,-0.022170324,0.047884032,-9.749189,-1.2018893
0.025269702,4.5975676,-0.048700526,-0.2657168,-0.03814929,0.047884032,-9.682152,-1.1683705
0.025124615,4.5975013,-0.048700526,-0.2657168,-0.03814929,0.047884032,-9.682152,-1.1683705
0.024965474,4.5974827,-0.048700526,-0.27210838,-0.056258786,0.033518825,-9.667787,-1.067814
0.024805553,4.5974646,-0.048700526,-0.27210838,-0.056258786,0.033518825,-9.667787,-1.067814
0.024645561,4.597481,-0.045504734,-0.27636945,-0.076498814,0.1340753,-9.725247,-0.94331545
0.024485998,4.597497,-0.045504734,-0.27636945,-0.076498814,0.1340753,-9.725247,-0.94331545
0.024298338,4.5975137,-0.03804788,-0.2806305,-0.09886937,0.22505496,-9.758766,-0.94331545
0.024110796,4.5975304,-0.03804788,-0.2806305,-0.09886937,0.22505496,-9.758766,-0.94331545
0.02389304,4.5975437,-0.031656295,-0.28276104,-0.123370446,0.41180268,-9.844957,-0.93852705
0.023682103,4.5975575,-0.031656295,-0.28276104,-0.123370446,0.41180268,-9.844957,-0.93852705
0.023436517,4.5975804,-0.02313418,-0.28276104,-0.15106732,0.35434186,-9.964667,-0.9672575
0.023183858,4.597604,-0.02313418,-0.28276104,-0.15106732,0.35434186,-9.964667,-0.9672575
0.022909543,4.5976405,-0.013546798,-0.28169575,-0.18195999,0.047884032,-10.022128,-1.0582372
0.02263757,4.5976768,-0.013546798,-0.28169575,-0.18195999,0.047884032,-10.022128,-1.0582372
0.022384932,4.597763,-0.0050246827,-0.28169575,-0.21285266,-0.15801731,-10.070012,-1.0773908
0.022132447,4.5978503,-0.0050246827,-0.28169575,-0.21285266,-0.15801731,-10.070012,-1.0773908
0.021954801,4.5979567,0.0024321685,-0.28702208,-0.24054953,-0.25378537,-10.0748005,-1.0582372
0.021779312,4.5980625,0.0024321685,-0.28702208,-0.24054953,-0.25378537,-10.0748005,-1.0582372
0.021657964,4.5981436,0.012019549,-0.29874,-0.26505062,-0.5506664,-10.19451,-0.9816227
0.02153695,4.598224,0.012019549,-0.29874,-0.26505062,-0.5506664,-10.19451,-0.9816227
0.021384759,4.598324,0.020541664,-0.3136537,-0.28529066,-0.46447513,-10.204087,-0.9864111
0.021233108,4.5984225,0.020541664,-0.3136537,-0.28529066,-0.46447513,-10.204087,-0.9864111
0.020919712,4.5985513,0.02906378,-0.33176318,-0.30233487,-0.095768064,-10.151415,-0.93852705
0.020607505,4.5986805,0.02906378,-0.33176318,-0.30233487,-0.095768064,-10.151415,-0.93852705
0.020212144,4.5987787,0.037585896,-0.3466769,-0.31937912,0.15801731,-10.093954,-0.9864111
0.019817708,4.598877,0.037585896,-0.3466769,-0.31937912,0.15801731,-10.093954,-0.9864111
0.01942994,4.5990057,0.04610801,-0.35306847,-0.34068438,0.11971009,-10.0987425,-0.8810662
0.019042535,4.5991344,0.04610801,-0.35306847,-0.34068438,0.11971009,-10.0987425,-0.8810662
0.01865718,4.5992813,0.0524996,-0.355199,-0.36198968,0.02873042,-10.041282,-0.8475474
0.01827278,4.599428,0.0524996,-0.355199,-0.36198968,0.02873042,-10.041282,-0.8475474
0.017904093,4.5995893,0.05782592,-0.35626426,-0.3854255,-0.08140286,-9.988609,-0.7517793
0.01753646,4.599751,0.05782592,-0.35626426,-0.3854255,-0.08140286,-9.988609,-0.7517793
0.01716057,4.5999193,0.062086977,-0.35413375,-0.4099266,-0.15322891,-9.969456,-0.770933
0.016789712,4.6000857,0.062086977,-0.35413375,-0.4099266,-0.15322891,-9.969456,-0.770933
0.016404387,4.600253,0.06315224,-0.35306847,-0.43229714,-0.18674773,-9.916783,-0.6655881
0.016019462,4.600421,0.06315224,-0.35306847,-0.43229714,-0.18674773,-9.916783,-0.6655881
0.01559972,4.60059,0.06528277,-0.35306847,-0.45040664,-0.10534488,-9.844957,-0.6607997
0.015180748,4.6007595,0.06528277,-0.35306847,-0.45040664,-0.10534488,-9.844957,-0.6607997
0.014717912,4.6009254,0.06315224,-0.35306847,-0.47064665,0.009576807,-9.763555,-0.60812724
0.014261739,4.601089,0.06315224,-0.35306847,-0.47064665,0.009576807,-9.763555,-0.60812724
0.013761489,4.601247,0.061021715,-0.35200322,-0.49408248,0.10534488,-9.634268,-0.61770403
0.013260905,4.601405,0.061021715,-0.35200322,-0.49408248,0.10534488,-9.634268,-0.61770403
0.012727228,4.6015534,0.054630127,-0.34987268,-0.516453,0.18195933,-9.586384,-0.60333884
0.012194147,4.6017017,0.054630127,-0.34987268,-0.516453,0.18195933,-9.586384,-0.60333884
0.011646653,4.601844,0.04610801,-0.34561163,-0.5388236,0.17238252,-9.519346,-0.5315128
0.0110997185,4.601986,0.04610801,-0.34561163,-0.5388236,0.17238252,-9.519346,-0.5315128
0.010525955,4.6021156,0.03652063,-0.3402853,-0.5611941,0.22026655,-9.32781,-0.49320555
0.009951631,4.6022463,0.03652063,-0.3402853,-0.5611941,0.22026655,-9.32781,-0.49320555
0.009402511,4.602373,0.024802722,-0.334959,-0.5814342,-0.04309563,-9.32781,-0.45968673
0.008852545,4.602499,0.024802722,-0.334959,-0.5814342,-0.04309563,-9.32781,-0.45968673
0.008248335,4.602605,0.00988902,-0.33176318,-0.60060894,0.1340753,-9.303867,-0.56982
0.0076648695,4.602707,0.00988902,-0.33176318,-0.60060894,0.1340753,-9.303867,-0.56982
0.00699589,4.602773,-0.008220476,-0.32963267,-0.61445737,0.47405192,-9.232041,-0.59855044
0.0063059935,4.6028414,-0.008220476,-0.32963267,-0.61445737,0.47405192,-9.232041,-0.59855044
0.0056064124,4.6028757,-0.027395237,-0.32324108,-0.6283058,0.61770403,-9.193734,-0.6464345
0.0049127657,4.602909,-0.027395237,-0.32324108,-0.6283058,0.61770403,-9.193734,-0.6464345
0.004192788,4.602918,-0.04763526,-0.3136537,-0.6442848,0.62728083,-9.246407,-0.6895301
0.0034680753,4.602927,-0.04763526,-0.3136537,-0.6442848,0.62728083,-9.246407,-0.6895301
0.0027434647,4.6029267,-0.06787529,-0.30406633,-0.661329,0.62728083,-9.255983,-0.5793968
0.0020207642,4.6029263,-0.06787529,-0.30406633,-0.661329,0.62728083,-9.255983,-0.5793968
0.0012870318,4.6029115,-0.08811531,-0.2923484,-0.6762427,0.5506664,-9.32781,-0.5746084
0.0005561081,4.602896,-0.08811531,-0.2923484,-0.6762427,0.5506664,-9.32781,-0.5746084
6.2830024,4.602864,-0.107290074,-0.28169575,-0.68583006,0.5410896,-9.303867,-0.5602432
6.2822633,4.602831,-0.107290074,-0.28169575,-0.68583006,0.5410896,-9.303867,-0.5602432
6.2815385,4.6027894,-0.12539956,-0.27530417,-0.6911564,0.45489833,-9.323022,-0.46926352
6.280814,4.602748,-0.12539956,-0.27530417,-0.6911564,0.45489833,-9.323022,-0.46926352
6.2800975,4.6026936,-0.14137854,-0.26678208,-0.6911564,0.38307226,-9.270349,-0.47884035
6.2793813,4.602639,-0.14137854,-0.26678208,-0.6911564,0.38307226,-9.270349,-0.47884035
6.2786546,4.602567,-0.1541617,-0.26145574,-0.6879606,0.46447513,-9.241618,-0.51714754
6.277929,4.602495,-0.1541617,-0.26145574,-0.6879606,0.46447513,-9.241618,-0.51714754
6.277208,4.602409,-0.16587962,-0.2561294,-0.6794385,0.5363012,-9.193734,-0.46926352
6.2764874,4.602323,-0.16587962,-0.2561294,-0.6794385,0.5363012,-9.193734,-0.46926352
6.2757697,4.6022224,-0.17759752,-0.25293362,-0.6709164,0.6464345,-9.193734,-0.4213795
6.275053,4.6021223,-0.17759752,-0.25293362,-0.6709164,0.6464345,-9.193734,-0.4213795
6.274352,4.6020126,-0.18825017,-0.24441151,-0.65706795,0.6560113,-9.193734,-0.38307226
6.2736526,4.601903,-0.18825017,-0.24441151,-0.65706795,0.6560113,-9.193734,-0.38307226
6.272974,4.601786,-0.19783755,-0.23162833,-0.64108896,0.6368576,-9.270349,-0.33518824
6.272296,4.6016693,-0.19783755,-0.23162833,-0.64108896,0.6368576,-9.270349,-0.33518824
6.2716565,4.6015515,-0.20635967,-0.2145841,-0.6219142,0.46926352,-9.41879,-0.2777274
6.2710195,4.6014338,-0.20635967,-0.2145841,-0.6219142,0.46926352,-9.41879,-0.2777274
6.270422,4.6013107,-0.21488178,-0.19221355,-0.5974131,0.33518824,-9.624691,-0.23942018
6.269825,4.601188,-0.21488178,-0.19221355,-0.5974131,0.33518824,-9.624691,-0.23942018
6.269274,4.6010594,-0.22233863,-0.16877773,-0.5697163,0.15801731,-9.811439,-0.21547815
6.2687244,4.6009307,-0.22233863,-0.16877773,-0.5697163,0.15801731,-9.811439,-0.21547815
6.2682257,4.6007924,-0.23086074,-0.14534192,-0.53775835,-0.02873042,-10.0029745,-0.272939
6.2677283,4.6006546,-0.23086074,-0.14534192,-0.53775835,-0.02873042,-10.0029745,-0.272939
6.267272,4.600501,-0.24257866,-0.122971356,-0.4994088,-0.1388637,-10.208876,-0.31124622
6.266817,4.600347,-0.24257866,-0.122971356,-0.4994088,-0.1388637,-10.208876,-0.31124622
6.26642,4.6001844,-0.25429657,-0.10273133,-0.45999402,-0.24899697,-10.43872,-0.2777274
6.2660236,4.6000214,-0.25429657,-0.10273133,-0.45999402,-0.24899697,-10.43872,-0.2777274
6.26567,4.5998383,-0.26921028,-0.08142605,-0.42057922,-0.35913026,-10.601525,-0.320823
6.265316,4.5996556,-0.26921028,-0.08142605,-0.42057922,-0.35913026,-10.601525,-0.320823
6.2650137,4.59945,-0.2862545,-0.057990227,-0.38222972,-0.46926352,-10.845734,-0.45010993
6.2647214,4.5992517,-0.2862545,-0.057990227,-0.38222972,-0.46926352,-10.845734,-0.45010993
6.264465,4.599021,-0.3075598,-0.033489145,-0.34388018,-0.58897364,-11.032481,-0.48841715
6.2642,4.5987825,-0.3075598,-0.033489145,-0.34388018,-0.58897364,-11.032481,-0.48841715
6.2639923,4.5985174,-0.33099562,-0.010053327,-0.310857,-0.6751649,-11.137826,-0.6751649
6.2637854,4.5982537,-0.33099562,-0.010053327,-0.310857,-0.6751649,-11.137826,-0.6751649
6.263617,4.597946,-0.35975775,0.013382491,-0.28422537,-0.7517793,-11.310209,-0.8523358
6.2634478,4.597637,-0.35975775,0.013382491,-0.28422537,-0.7517793,-11.310209,-0.8523358
6.2632985,4.5972896,-0.39171568,0.03681831,-0.26931167,-0.82360536,-11.425131,-0.93373865
6.2631493,4.5969434,-0.39171568,0.03681831,-0.26931167,-0.82360536,-11.425131,-0.93373865
6.26301,4.5965514,-0.4268694,0.05918886,-0.26292008,-0.89543146,-11.51611,-1.0247183
6.262871,4.596162,-0.4268694,0.05918886,-0.26292008,-0.89543146,-11.51611,-1.0247183
6.262729,4.5957274,-0.46415368,0.08262468,-0.26505062,-0.94331545,-11.563994,-1.0821792
6.262588,4.5952954,-0.46415368,0.08262468,-0.26505062,-0.94331545,-11.563994,-1.0821792
6.2624335,4.5948114,-0.5046337,0.1060605,-0.27996433,-0.9768343,-11.631032,-1.1923125
6.2622786,4.594328,-0.5046337,0.1060605,-0.27996433,-0.9768343,-11.631032,-1.1923125
6.2620955,4.593794,-0.54511374,0.12949632,-0.30872646,-1.0582372,-11.712435,-1.3024458
6.261912,4.593261,-0.54511374,0.12949632,-0.30872646,-1.0582372,-11.712435,-1.3024458
6.261683,4.5926814,-0.5866591,0.15186687,-0.3524023,-1.1444284,-11.75553,-1.3551182
6.261454,4.592103,-0.5866591,0.15186687,-0.3524023,-1.1444284,-11.75553,-1.3551182
6.261163,4.591488,-0.6282044,0.17210689,-0.41099185,-1.1300632,-11.808203,-1.316811
6.260873,4.590874,-0.6282044,0.17210689,-0.41099185,-1.1300632,-11.808203,-1.316811
6.2605057,4.5902267,-0.6697497,0.18915112,-0.48342985,-1.1492168,-11.812991,-1.2401965
6.2601385,4.5895796,-0.6697497,0.18915112,-0.48342985,-1.1492168,-11.812991,-1.2401965
6.259681,4.5889077,-0.70703393,0.2051301,-0.56652045,-1.1731589,-11.808203,-1.1013328
6.259224,4.588237,-0.70703393,0.2051301,-0.56652045,-1.1731589,-11.808203,-1.1013328
6.2586546,4.5875535,-0.7400572,0.22430485,-0.6602637,-1.2258313,-11.870452,-0.7661445
6.2580843,4.58687,-0.7400572,0.22430485,-0.6602637,-1.2258313,-11.870452,-0.7661445
6.2573943,4.586176,-0.76455826,0.2466754,-0.7614639,-1.3599066,-12.119449,-0.37349546
6.2567043,4.585482,-0.76455826,0.2466754,-0.7614639,-1.3599066,-12.119449,-0.37349546
6.2567043,4.585482,-0.783733,0.27330703,-0.86905557,-1.6328455,-12.421119,-0.11971009
6.255106,4.5840697,-0.783733,0.27330703,-0.86905557,-1.6328455,-12.421119,-0.11971009
6.254174,4.583329,-0.79758143,0.3073955,-0.97451675,-2.0015526,-12.928689,0.02873042
6.2532597,4.582602,-0.79758143,0.3073955,-0.97451675,-2.0015526,-12.928689,0.02873042
6.2522445,4.581854,-0.8135604,0.345745,-1.0778474,-2.4851813,-13.532028,0
6.251235,4.5811105,-0.8135604,0.345745,-1.0778474,-2.4851813,-13.532028,0
6.2501235,4.5803304,-0.8327352,0.3851598,-1.1779822,-2.9975405,-14.053964,-0.32561144
6.249018,4.579556,-0.8327352,0.3851598,-1.1779822,-2.9975405,-14.053964,-0.32561144
6.247832,4.5787444,-0.8614973,0.41924825,-1.2727908,-3.265691,-14.4130945,-0.81402856
6.2466364,4.577927,-0.8614973,0.41924825,-1.2727908,-3.265691,-14.4130945,-0.81402856
6.2453575,4.5770535,-0.90410787,0.4448146,-1.3654689,-3.5434184,-14.66688,-1.364695
6.244066,4.5761724,-0.90410787,0.4448146,-1.3654689,-3.5434184,-14.66688,-1.364695
6.242639,4.5751877,-0.9616322,0.4629241,-1.4528205,-3.715801,-14.848839,-1.7429788
6.2413383,4.5742917,-0.9616322,0.4629241,-1.4528205,-3.715801,-14.848839,-1.7429788
6.239885,4.573269,-1.0319396,0.47038093,-1.543368,-3.7588966,-14.93503,-2.1643584
6.2384353,4.57225,-1.0319396,0.47038093,-1.543368,-3.7588966,-14.93503,-2.1643584
6.236885,4.571145,-1.1107692,0.46825042,-1.6413723,-3.514688,-14.853627,-2.2697031
6.2351203,4.5698886,-1.1107692,0.46825042,-1.6413723,-3.514688,-14.853627,-2.2697031
6.2334833,4.5687175,-1.1927946,0.4629241,-1.7510946,-3.3087866,-14.633361,-2.2505496
6.231803,4.5675163,-1.1927946,0.4629241,-1.7510946,-3.3087866,-14.633361,-2.2505496
6.231803,4.5675163,-1.1927946,0.4629241,-1.7510946,-3.3087866,-14.633361,-2.2505496
6.231803,4.5675163,-1.1927946,0.4629241,-1.7510946,-3.3087866,-14.633361,-2.2505496
6.2264247,4.563696,-1.27482,0.46718514,-1.8725346,-3.1747115,-14.326903,-2.1260512
6.2246594,4.5624714,-1.351519,0.4799683,-2.0056927,-2.9257145,-14.073117,-1.8100165
6.2246594,4.5624714,-1.351519,0.4799683,-2.0056927,-2.9257145,-14.073117,-1.8100165
6.2204733,4.55967,-1.4228916,0.4980778,-2.1537645,-2.6767175,-13.876793,-1.4221559
6.2184753,4.5583725,-1.4868076,0.5257747,-2.3199458,-2.633622,-13.718776,-1.2593501
6.2162294,4.5569277,-1.4868076,0.5257747,-2.3199458,-2.633622,-13.718776,-1.2593501
6.2138004,4.555426,-1.5443318,0.55986315,-2.4989102,-2.6719291,-13.67568,-1.2354081
6.211366,4.553922,-1.5443318,0.55986315,-2.4989102,-2.6719291,-13.67568,-1.2354081
6.208737,4.5523634,-1.5965297,0.59395164,-2.6885273,-2.7006595,-13.723564,-1.2976574
6.206128,4.5508175,-1.5965297,0.59395164,-2.6885273,-2.7006595,-13.723564,-1.2976574
6.2033005,4.549212,-1.6455319,0.62058324,-2.8898623,-2.7006595,-13.79539,-1.3503298
6.200478,4.54761,-1.6455319,0.62058324,-2.8898623,-2.7006595,-13.79539,-1.3503298
6.197446,4.545962,-1.6892078,0.6376275,-3.0965235,-2.5905263,-13.9438305,-1.3934253
6.194413,4.544314,-1.6892078,0.6376275,-3.0965235,-2.5905263,-13.9438305,-1.3934253
6.19117,4.542627,-1.7286226,0.6482801,-3.3063807,-2.4133554,-14.010868,-1.3694834
6.187927,4.5409403,-1.7286226,0.6482801,-3.3063807,-2.4133554,-14.010868,-1.3694834
6.1844716,4.53922,-1.7605805,0.65254116,-3.5194335,-2.2266076,-13.962984,-1.3742718
6.181016,4.537499,-1.7605805,0.65254116,-3.5194335,-2.2266076,-13.962984,-1.3742718
6.1773505,4.535755,-1.7808205,0.65254116,-3.7324865,-1.9776106,-13.891158,-1.4030021
6.173681,4.5340085,-1.7808205,0.65254116,-3.7324865,-1.9776106,-13.891158,-1.4030021
6.169812,4.5322495,-1.7925384,0.6493454,-3.9423435,-1.8818425,-13.728353,-1.4030021
6.1659403,4.5304875,-1.7925384,0.6493454,-3.9423435,-1.8818425,-13.728353,-1.4030021
6.1618695,4.528722,-1.7925384,0.64082325,-4.149005,-1.7956513,-13.364434,-1.3455414
6.1577907,4.526952,-1.7925384,0.64082325,-4.149005,-1.7956513,-13.364434,-1.3455414
6.153518,4.5251875,-1.7808205,0.62590957,-4.3535357,-1.3263878,-13.101071,-1.4508862
6.149246,4.5234213,-1.7808205,0.62590957,-4.3535357,-1.3263878,-13.101071,-1.4508862
6.144769,4.5216813,-1.7573847,0.6088653,-4.5506096,-0.5746084,-12.832921,-1.316811
6.140297,4.5199404,-1.7573847,0.6088653,-4.5506096,-0.5746084,-12.832921,-1.316811
6.135626,4.518236,-1.7254268,0.59821266,-4.7391615,-0.24899697,-12.607866,-0.9768343
6.1309557,4.5165286,-1.7254268,0.59821266,-4.7391615,-0.24899697,-12.607866,-0.9768343
6.1261053,4.5148554,-1.6870773,0.6088653,-4.915995,-0.39264908,-12.483368,-0.6895301
6.1212564,4.5131783,-1.6870773,0.6088653,-4.915995,-0.39264908,-12.483368,-0.6895301
6.116252,4.5115433,-1.6423361,0.6493454,-5.0661974,-0.81402856,-12.713211,-0.38307226
6.1112485,4.509905,-1.6423361,0.6493454,-5.0661974,-0.81402856,-12.713211,-0.38307226
6.106116,4.508315,-1.593334,0.6994128,-5.1897683,-0.9911995,-13.043611,-0.33039984
6.1009836,4.5067215,-1.593334,0.6994128,-5.1897683,-0.9911995,-13.043611,-0.33039984
6.095743,4.505175,-1.5443318,0.7281749,-5.294164,-1.0390835,-13.623008,-0.24899697
6.090503,4.503625,-1.5443318,0.7281749,-5.294164,-1.0390835,-13.623008,-0.24899697
6.085185,4.502114,-1.4985255,0.73989284,-5.375124,-1.0630256,-14.097059,-0.37828386
6.0798254,4.500587,-1.4985255,0.73989284,-5.375124,-1.0630256,-14.097059,-0.37828386
6.074512,4.4991055,-1.4601759,0.7473497,-5.430518,-1.0773908,-14.168885,-1.1444284
6.0691566,4.4976077,-1.4601759,0.7473497,-5.430518,-1.0773908,-14.168885,-1.1444284
6.063785,4.4961176,-1.428218,0.73989284,-5.4646063,-0.80924016,-13.972561,-1.9440918
6.063785,4.4961176,-1.428218,0.73989284,-5.4646063,-0.80924016,-13.972561,-1.9440918
6.052892,4.4930935,-1.4037169,0.70367384,-5.4923034,-0.6512229,-13.733141,-2.1691468
6.0476155,4.491628,-1.4037169,0.70367384,-5.4923034,-0.6512229,-13.733141,-2.1691468
6.04222,4.4901195,-1.387738,0.6461496,-5.515739,-0.6943185,-13.40753,-2.3894134
6.0368905,4.4886236,-1.387738,0.6461496,-5.515739,-0.6943185,-13.40753,-2.3894134
6.031517,4.487096,-1.3706937,0.5737116,-5.5327835,0.1436521,-12.713211,-2.6527755
6.026134,4.48556,-1.3706937,0.5737116,-5.5327835,0.1436521,-12.713211,-2.6527755
6.020755,4.4840136,-1.3525842,0.5087305,-5.546632,1.0534488,-11.798626,-2.6144683
6.0153766,4.4824624,-1.3525842,0.5087305,-5.546632,1.0534488,-11.798626,-2.6144683
6.0099964,4.480909,-1.3280832,0.46505463,-5.5668716,1.541866,-10.922348,-2.5474305
6.004601,4.4793453,-1.3280832,0.46505463,-5.5668716,1.541866,-10.922348,-2.5474305
5.9991994,4.4778028,-1.2886684,0.43948826,-5.591373,2.1547816,-10.127473,-2.4229321
5.9938,4.4762554,-1.2886684,0.43948826,-5.591373,2.1547816,-10.127473,-2.4229321
5.9883747,4.4747553,-1.2354051,0.41924825,-5.623331,2.552219,-9.490616,-2.2601264
5.9829507,4.4732523,-1.2354051,0.41924825,-5.623331,2.552219,-9.490616,-2.2601264
5.977212,4.471772,-1.1650977,0.4085956,-5.664876,2.944868,-8.949526,-2.1930888
5.971476,4.4703135,-1.1650977,0.4085956,-5.664876,2.944868,-8.949526,-2.1930888
5.9657254,4.4689713,-1.0809418,0.402204,-5.7106824,3.2609026,-8.528147,-1.8866309
5.9599833,4.467627,-1.0809418,0.402204,-5.7106824,3.2609026,-8.528147,-1.8866309
5.954203,4.4663653,-0.9861332,0.4032693,-5.752228,3.490746,-8.2169,-1.6519991
5.9484286,4.465099,-0.9861332,0.4032693,-5.752228,3.490746,-8.2169,-1.6519991
5.9426436,4.4639435,-0.88067204,0.40966088,-5.7905774,3.5625722,-8.231265,-1.3311762
5.936865,4.4627824,-0.88067204,0.40966088,-5.7905774,3.5625722,-8.231265,-1.3311762
5.931065,4.4617233,-0.7720151,0.41285667,-5.823601,3.5865142,-8.360553,-1.2880806
5.925272,4.460657,-0.7720151,0.41285667,-5.823601,3.5865142,-8.360553,-1.2880806
5.9194875,4.4596934,-0.66548866,0.41179138,-5.8427753,3.5003228,-8.671799,-1.2880806
5.91371,4.4587216,-0.66548866,0.41179138,-5.8427753,3.5003228,-8.671799,-1.2880806
5.9079633,4.4578457,-0.56109273,0.40753034,-5.8481016,3.2944214,-8.805874,-1.436521
5.9022236,4.45696,-0.56109273,0.40753034,-5.8481016,3.2944214,-8.805874,-1.436521
5.896557,4.456146,-0.4630884,0.3936819,-5.8353186,3.1603463,-8.810662,-1.8435353
5.890897,4.4553194,-0.4630884,0.3936819,-5.8353186,3.1603463,-8.810662,-1.8435353
5.8853283,4.4544983,-0.37360618,0.37024608,-5.8044257,3.442862,-8.686164,-2.2505496
5.8797603,4.4536676,-0.37360618,0.37024608,-5.8044257,3.442862,-8.686164,-2.2505496
5.8741,4.452775,-0.2894503,0.34041867,-5.7586193,3.715801,-8.346188,-2.3798366
5.8684745,4.451875,-0.2894503,0.34041867,-5.7586193,3.715801,-8.346188,-2.3798366
5.8627796,4.4510627,-0.21062072,0.31059128,-5.705356,4.003105,-7.9008656,-2.3654714
5.8570933,4.4502344,-0.21062072,0.31059128,-5.705356,4.003105,-7.9008656,-2.3654714
5.8514414,4.449503,-0.12859535,0.28182915,-5.6457014,4.213795,-7.321469,-2.2505496
5.845792,4.4487586,-0.12859535,0.28182915,-5.6457014,4.213795,-7.321469,-2.2505496
5.840198,4.448111,-0.043374203,0.25626278,-5.583916,4.405331,-6.766014,-2.0638018
5.834605,4.4474525,-0.043374203,0.25626278,-5.583916,4.405331,-6.766014,-2.0638018
5.829075,4.4468746,0.04610801,0.23176171,-5.5253267,4.697424,-6.167464,-1.9632454
5.8235455,4.4462867,0.04610801,0.23176171,-5.5253267,4.697424,-6.167464,-1.9632454
5.818079,4.445784,0.14198181,0.20726062,-5.467802,5.032612,-5.60722,-1.8722657
5.812613,4.4452715,0.14198181,0.20726062,-5.467802,5.032612,-5.60722,-1.8722657
5.8071823,4.444833,0.23892088,0.18489006,-5.411343,5.401319,-5.023035,-1.934515
5.801806,4.4443884,0.23892088,0.18489006,-5.411343,5.401319,-5.023035,-1.934515
5.7964644,4.444025,0.33479467,0.16784583,-5.359145,5.765238,-4.534618,-1.958457
5.791118,4.443651,0.33479467,0.16784583,-5.359145,5.765238,-4.534618,-1.958457
5.785824,4.4433584,0.42853796,0.15612793,-5.310143,6.0764837,-4.0222588,-2.0446482
5.78053,4.443055,0.42853796,0.15612793,-5.310143,6.0764837,-4.0222588,-2.0446482
5.7752867,4.442832,0.5169549,0.14547528,-5.262206,6.4260373,-3.5769374,-2.0733786
5.7700434,4.4425993,0.5169549,0.14547528,-5.262206,6.4260373,-3.5769374,-2.0733786
5.7648525,4.4424443,0.597915,0.13801843,-5.2163997,6.7468605,-3.2513258,-2.0111294
5.7596464,4.44228,0.597915,0.13801843,-5.2163997,6.7468605,-3.2513258,-2.0111294
5.754496,4.442179,0.670353,0.13269211,-5.1716585,6.813898,-3.0214825,-2.078167
5.749346,4.4420695,0.670353,0.13269211,-5.1716585,6.813898,-3.0214825,-2.078167
5.7442455,4.442017,0.73000777,0.12736578,-5.121591,6.8905125,-2.9400797,-2.0254946
5.739145,4.441955,0.73000777,0.12736578,-5.121591,6.8905125,-2.9400797,-2.0254946
5.7341013,4.4419384,0.7800752,0.12203947,-5.064067,6.9479733,-2.954445,-2.1021092
5.7290583,4.4419127,0.7800752,0.12203947,-5.064067,6.9479733,-2.954445,-2.1021092
5.7240815,4.4419165,0.81842476,0.116713144,-4.9969554,6.981492,-2.8491,-2.3080103
5.7191052,4.4419117,0.81842476,0.116713144,-4.9969554,6.981492,-2.8491,-2.3080103
5.7142053,4.4419317,0.8439911,0.11032156,-4.920256,7.0006456,-2.7150247,-2.3319526
5.709305,4.4419417,0.8439911,0.11032156,-4.920256,7.0006456,-2.7150247,-2.3319526
5.704495,4.4419627,0.8589048,0.1060605,-4.829709,7.029376,-2.5905263,-2.6048915
5.6996856,4.4419746,0.8589048,0.1060605,-4.829709,7.029376,-2.5905263,-2.6048915
5.6949744,4.4419994,0.86529636,0.102864705,-4.7285085,6.9144545,-2.4420857,-2.566584
5.6902633,4.4420166,0.86529636,0.102864705,-4.7285085,6.9144545,-2.4420857,-2.566584
5.685664,4.4420385,0.8642311,0.100734174,-4.6145253,6.8761473,-2.2840683,-2.6862943
5.6810656,4.442052,0.8642311,0.100734174,-4.6145253,6.8761473,-2.2840683,-2.6862943
5.676588,4.442072,0.8589048,0.09966891,-4.4898896,6.6893997,-2.1068976,-2.6910827
5.6721106,4.442084,0.8589048,0.09966891,-4.4898896,6.6893997,-2.1068976,-2.6910827
5.6677647,4.442105,0.84931743,0.100734174,-4.3535357,6.646304,-1.9680338,-2.6719291
5.663419,4.4421186,0.84931743,0.100734174,-4.3535357,6.646304,-1.9680338,-2.6719291
5.6592135,4.4421396,0.8375995,0.10392997,-4.2075944,6.6271505,-1.8291701,-2.7581203
5.655009,4.442154,0.8375995,0.10392997,-4.2075944,6.6271505,-1.8291701,-2.7581203
5.6509523,4.442175,0.82055527,0.10925629,-4.0541964,6.670246,-1.661576,-2.8921957
5.6468954,4.4421887,0.82055527,0.10925629,-4.0541964,6.670246,-1.661576,-2.8921957
5.64299,4.4422064,0.79925,0.11564788,-3.8976023,6.655881,-1.4460979,-3.0262709
5.639085,4.4422183,0.79925,0.11564788,-3.8976023,6.655881,-1.4460979,-3.0262709
5.6353292,4.4422383,0.7736836,0.12630053,-3.738878,6.766014,-1.2497733,-3.074155
5.631574,4.442253,0.7736836,0.12630053,-3.738878,6.766014,-1.2497733,-3.074155
5.627969,4.4422674,0.7385299,0.1390837,-3.581219,6.83784,-1.0199299,-3.1842883
5.6243634,4.4422765,0.7385299,0.1390837,-3.581219,6.83784,-1.0199299,-3.1842883
5.620905,4.442288,0.7001804,0.15612793,-3.4235597,6.9383965,-0.8762778,-3.217807
5.617447,4.4422946,0.7001804,0.15612793,-3.4235597,6.9383965,-0.8762778,-3.217807
5.614134,4.4423075,0.6565046,0.17849848,-3.2659006,7.1251445,-0.7613561,-3.1747115
5.6108203,4.442315,0.6565046,0.17849848,-3.2659006,7.1251445,-0.7613561,-3.1747115
5.6076465,4.442327,0.60856766,0.2051301,-3.1125026,7.249643,-0.78050977,-3.122039
5.604473,4.4423356,0.60856766,0.2051301,-3.1125026,7.249643,-0.78050977,-3.122039
5.601432,4.4423556,0.55850023,0.2381533,-2.9633656,7.2592196,-0.9816227,-2.8299465
5.59839,4.442373,0.55850023,0.2381533,-2.9633656,7.2592196,-0.9816227,-2.8299465
5.595477,4.442402,0.50630224,0.27650282,-2.8174243,7.144298,-1.412579,-2.5761611
5.5925636,4.442428,0.50630224,0.27650282,-2.8174243,7.144298,-1.412579,-2.5761611
5.589777,4.442461,0.4541043,0.3191134,-2.6746788,6.9479733,-1.8435353,-2.5953147
5.586991,4.4424915,0.4541043,0.3191134,-2.6746788,6.9479733,-1.8435353,-2.5953147
5.584335,4.4425244,0.39871055,0.36172396,-2.530868,6.679823,-2.1930888,-2.6288335
5.5816784,4.4425554,0.39871055,0.36172396,-2.530868,6.679823,-2.1930888,-2.6288335
5.5791583,4.4425826,0.34118626,0.402204,-2.3870573,6.4739213,-2.5234885,-2.767697
5.5765905,4.4426084,0.34118626,0.402204,-2.3870573,6.4739213,-2.5234885,-2.767697
5.5741816,4.442627,0.2825967,0.43416196,-2.2453773,6.26802,-2.657564,-2.801216
5.5741816,4.442627,0.2825967,0.43416196,-2.2453773,6.26802,-2.657564,-2.801216
5.5695286,4.442659,0.22507244,0.4597283,-2.1058276,6.157887,-2.695871,-2.6623523
5.5695286,4.442659,0.22507244,0.4597283,-2.1058276,6.157887,-2.695871,-2.6623523
5.564544,4.4426856,0.17074396,0.474642,-1.9758654,6.172252,-2.6479871,-2.4851813
5.562887,4.4426913,0.17074396,0.474642,-1.9758654,6.172252,-2.6479871,-2.4851813
5.560769,4.442696,0.119611256,0.48529464,-1.8565557,6.3302693,-2.4947581,-2.3080103
5.560769,4.442696,0.119611256,0.48529464,-1.8565557,6.3302693,-2.4947581,-2.3080103
5.55661,4.442706,0.07806595,0.4959473,-1.748964,6.5026517,-2.432509,-2.0590134
5.5548925,4.442716,0.07806595,0.4959473,-1.748964,6.5026517,-2.432509,-2.0590134
5.5530343,4.4427466,0.045042746,0.5097957,-1.6530902,6.631939,-2.3654714,-1.7525556
5.551174,4.4427776,0.045042746,0.5097957,-1.6530902,6.631939,-2.3654714,-1.7525556
5.5493855,4.4428267,0.019476399,0.5279052,-1.5721301,6.7612257,-2.5091233,-1.6328455
5.5476007,4.4428754,0.019476399,0.5279052,-1.5721301,6.7612257,-2.5091233,-1.6328455
5.5458646,4.4429464,0.00030163955,0.5492105,-1.502888,6.7085533,-2.6862943,-1.5466543
5.54414,4.443017,0.00030163955,0.5492105,-1.502888,6.7085533,-2.6862943,-1.5466543
5.542461,4.4431067,-0.01674259,0.5737116,-1.4464289,6.751649,-2.873042,-1.5610195
5.5407805,4.443197,-0.01674259,0.5737116,-1.4464289,6.751649,-2.873042,-1.5610195
5.5391426,4.4433017,-0.031656295,0.5992779,-1.3952962,6.6175733,-3.2273839,-1.6472107
5.537508,4.4434066,-0.031656295,0.5992779,-1.3952962,6.6175733,-3.2273839,-1.6472107
5.535901,4.4435363,-0.04443947,0.623779,-1.3526857,6.5696893,-3.4284968,-1.5993267
5.534299,4.443666,-0.04443947,0.623779,-1.3526857,6.5696893,-3.4284968,-1.5993267
5.5327263,4.4437923,-0.05509211,0.6418885,-1.317532,6.483498,-3.5865142,-1.8195933
5.5311565,4.443919,-0.05509211,0.6418885,-1.317532,6.483498,-3.5865142,-1.8195933
5.5296097,4.4440565,-0.06361423,0.65041065,-1.2877045,6.5696893,-3.8259344,-1.8004397
5.5280643,4.444195,-0.06361423,0.65041065,-1.2877045,6.5696893,-3.8259344,-1.8004397
5.526536,4.444357,-0.06467949,0.6482801,-1.269595,6.631939,-3.964798,-1.5705963
5.5250015,4.444521,-0.06467949,0.6482801,-1.269595,6.631939,-3.964798,-1.5705963
5.5234785,4.444697,-0.057222642,0.6333664,-1.2642686,6.8186865,-4.0414124,-1.4269443
5.521959,4.444874,-0.057222642,0.6333664,-1.2642686,6.8186865,-4.0414124,-1.4269443
5.5204387,4.445071,-0.04017841,0.6099306,-1.2674645,6.861782,-4.060566,-1.163582
5.5189233,4.4452696,-0.04017841,0.6099306,-1.2674645,6.861782,-4.060566,-1.163582
5.5174026,4.4454827,-0.0114162695,0.5811685,-1.281313,6.9144545,-3.9983168,-0.9576807
5.5158854,4.4456964,-0.0114162695,0.5811685,-1.281313,6.9144545,-3.9983168,-0.9576807
5.5143547,4.4459233,0.02906378,0.5460147,-1.305814,7.0245876,-3.9025488,-0.78050977
5.512874,4.446143,0.02906378,0.5460147,-1.305814,7.0245876,-3.9025488,-0.78050977
5.5113297,4.446381,0.07913121,0.50553465,-1.3388371,7.0964136,-3.8546648,-0.6607997
5.5097275,4.4466286,0.07913121,0.50553465,-1.3388371,7.0964136,-3.8546648,-0.6607997
5.508093,4.446892,0.13559023,0.46825042,-1.3750561,7.1059904,-3.7780502,-0.60333884
5.5065665,4.447139,0.13559023,0.46825042,-1.3750561,7.1059904,-3.7780502,-0.60333884
5.5049706,4.4474115,0.1963103,0.438423,-1.4112751,7.153875,-3.7110126,-0.641646
5.5033765,4.4476843,0.1963103,0.438423,-1.4112751,7.153875,-3.7110126,-0.641646
5.50174,4.447985,0.2623567,0.41072613,-1.4496247,7.28795,-3.6008794,-0.6655881
5.500117,4.448284,0.2623567,0.41072613,-1.4496247,7.28795,-3.6008794,-0.6655881
5.498456,4.4486074,0.32733783,0.38835558,-1.4837132,7.249643,-3.4524388,-0.80445176
5.4967923,4.448932,0.32733783,0.38835558,-1.4837132,7.249643,-3.4524388,-0.80445176
5.4951034,4.4492855,0.3912537,0.37663767,-1.5124753,7.2209125,-3.3758245,-1.0247183
5.4934106,4.4496393,0.3912537,0.37663767,-1.5124753,7.2209125,-3.3758245,-1.0247183
5.4916706,4.450032,0.45303902,0.36811554,-1.5337806,7.28795,-3.2130187,-1.2114661
5.48998,4.450414,0.45303902,0.36811554,-1.5337806,7.28795,-3.2130187,-1.2114661
5.488266,4.450838,0.51162857,0.3606587,-1.5497595,7.417237,-3.107674,-1.3120226
5.486541,4.4512653,0.51162857,0.3606587,-1.5497595,7.417237,-3.107674,-1.3120226
5.4848094,4.4517355,0.5680876,0.35213658,-1.5593469,7.455544,-2.9640217,-1.3311762
5.4830794,4.4522057,0.5680876,0.35213658,-1.5593469,7.455544,-2.9640217,-1.3311762
5.4813457,4.452707,0.6213508,0.33722287,-1.5657386,7.541735,-2.815581,-1.4221559
5.4796066,4.45321,0.6213508,0.33722287,-1.5657386,7.541735,-2.815581,-1.4221559
5.477879,4.4537425,0.674614,0.31165653,-1.5699996,7.61835,-2.6431987,-1.3311762
5.4761496,4.454275,0.674614,0.31165653,-1.5699996,7.61835,-2.6431987,-1.3311762
5.4744253,4.4548283,0.726812,0.27756807,-1.5721301,7.6614456,-2.5091233,-1.283292
5.472699,4.455383,0.726812,0.27756807,-1.5721301,7.6614456,-2.5091233,-1.283292
5.4709864,4.455961,0.77900994,0.2381533,-1.5721301,7.795521,-2.3511062,-1.0486604
5.469273,4.45654,0.77900994,0.2381533,-1.5721301,7.795521,-2.3511062,-1.0486604
5.467578,4.4571314,0.82907736,0.19980377,-1.5657386,7.896077,-2.2457612,-1.0342951
5.465881,4.457723,0.82907736,0.19980377,-1.5657386,7.896077,-2.2457612,-1.0342951
5.4642034,4.458336,0.87807953,0.16784583,-1.5529554,8.159439,-2.0733786,-1.0103531
5.4625254,4.4589486,0.87807953,0.16784583,-1.5529554,8.159439,-2.0733786,-1.0103531
5.4608727,4.4595804,0.9228207,0.14441001,-1.5359111,8.350976,-1.9153614,-1.1013328
5.4592185,4.4602127,0.9228207,0.14441001,-1.5359111,8.350976,-1.9153614,-1.1013328
5.457589,4.460869,0.96223545,0.12736578,-1.5146059,8.619126,-1.7429788,-1.1827357
5.4559593,4.461525,0.96223545,0.12736578,-1.5146059,8.619126,-1.7429788,-1.1827357
5.454355,4.4622116,0.99845445,0.117778406,-1.49117,8.743625,-1.7046716,-1.2449849
5.4527497,4.4628983,0.99845445,0.117778406,-1.49117,8.743625,-1.7046716,-1.2449849
5.451169,4.4636188,1.0304123,0.11351735,-1.466669,8.7771435,-1.7238252,-1.2401965
5.4495883,4.4643393,1.0304123,0.11351735,-1.466669,8.7771435,-1.7238252,-1.2401965
5.448001,4.465111,1.0549134,0.11245208,-1.4368415,8.844181,-1.757344,-1.2162545
5.446483,4.465848,1.0549134,0.11245208,-1.4368415,8.844181,-1.757344,-1.2162545
5.4449663,4.466629,1.077284,0.11351735,-1.4027531,8.896853,-1.7956513,-1.3263878
5.443449,4.4674106,1.077284,0.11351735,-1.4027531,8.896853,-1.7956513,-1.3263878
5.4419656,4.468228,1.0953935,0.11458261,-1.3633382,8.892065,-1.8100165,-1.2401965
5.440483,4.4690447,1.0953935,0.11458261,-1.3633382,8.892065,-1.8100165,-1.2401965
5.439042,4.4698896,1.1103072,0.11458261,-1.3207277,8.839393,-1.8148049,-1.2114661
5.4376006,4.4707346,1.1103072,0.11458261,-1.3207277,8.839393,-1.8148049,-1.2114661
5.4362035,4.4716063,1.1241556,0.11138682,-1.2759866,8.954314,-1.8866309,-1.1492168
5.434806,4.472479,1.1241556,0.11138682,-1.2759866,8.954314,-1.8866309,-1.1492168
5.433459,4.4733796,1.1401346,0.1060605,-1.2237886,8.944737,-1.9488802,-1.0869676
5.432113,4.4742804,1.1401346,0.1060605,-1.2237886,8.944737,-1.9488802,-1.0869676
5.4308257,4.475205,1.1582441,0.09753838,-1.165199,8.978256,-1.9440918,-1.1013328
5.4295387,4.4761305,1.1582441,0.09753838,-1.165199,8.978256,-1.9440918,-1.1013328
5.428313,4.477094,1.1774188,0.090081535,-1.104479,8.90643,-2.0111294,-0.8762778
5.427087,4.4780583,1.1774188,0.090081535,-1.104479,8.90643,-2.0111294,-0.8762778
5.4259286,4.479064,1.1987242,0.08368994,-1.0373673,8.820239,-2.0925324,-0.7182605
5.42477,4.4800696,1.1987242,0.08368994,-1.0373673,8.820239,-2.0925324,-0.7182605
5.423684,4.4811096,1.22216,0.074102566,-0.96492934,8.839393,-2.0446482,-0.6799533
5.4225984,4.48215,1.22216,0.074102566,-0.96492934,8.839393,-2.0446482,-0.6799533
5.421587,4.483218,1.2455958,0.06344992,-0.89036083,8.973468,-1.9297266,-0.7422025
5.420575,4.484288,1.2455958,0.06344992,-0.89036083,8.973468,-1.9297266,-0.7422025
5.4196434,4.485386,1.2690316,0.052797277,-0.81046605,9.030929,-1.8100165,-0.81402856
5.4187107,4.4864845,1.2690316,0.052797277,-0.81046605,9.030929,-1.8100165,-0.81402856
5.417863,4.487611,1.2892716,0.04214463,-0.72631013,9.126697,-1.6711528,-0.8619126
5.4170146,4.488738,1.2892716,0.04214463,-0.72631013,9.126697,-1.6711528,-0.8619126
5.416249,4.489902,1.3052506,0.031491987,-0.63895845,9.193734,-1.5993267,-0.81881696
5.4153996,4.491194,1.3052506,0.031491987,-0.63895845,9.193734,-1.5993267,-0.81881696
5.414791,4.4922647,1.3137727,0.022969872,-0.54841095,9.212888,-1.6567876,-0.78529817
5.414138,4.4934154,1.3137727,0.022969872,-0.54841095,9.212888,-1.6567876,-0.78529817
5.4135623,4.49461,1.3137727,0.018708814,-0.45360243,9.255983,-1.7381904,-0.8475474
5.4129853,4.495807,1.3137727,0.018708814,-0.45360243,9.255983,-1.7381904,-0.8475474
5.4125037,4.4970317,1.3052506,0.021904606,-0.35453284,9.232041,-2.0111294,-0.7661445
5.4120207,4.4982595,1.3052506,0.021904606,-0.35453284,9.232041,-2.0111294,-0.7661445
5.4116373,4.4995093,1.2850106,0.032557253,-0.2501369,9.102755,-2.360683,-0.7469909
5.411255,4.5007553,1.2850106,0.032557253,-0.2501369,9.102755,-2.360683,-0.7469909
5.410978,4.5020194,1.2509221,0.04853622,-0.1372189,9.016563,-2.777274,-0.78529817
5.4107013,4.503281,1.2509221,0.04853622,-0.1372189,9.016563,-2.777274,-0.78529817
5.4105344,4.504544,1.2051158,0.06344992,-0.020039797,8.887277,-3.083732,-0.8571242
5.410368,4.505804,1.2051158,0.06344992,-0.020039797,8.887277,-3.083732,-0.8571242
5.410316,4.5070477,1.1475915,0.07836362,0.10140035,8.724471,-3.3423057,-1.0103531
5.4102635,4.508288,1.1475915,0.07836362,0.10140035,8.724471,-3.3423057,-1.0103531
5.410332,4.5095057,1.0783492,0.09221206,0.22816682,8.513782,-3.5434184,-1.0773908
5.410401,4.5107203,1.0783492,0.09221206,0.22816682,8.513782,-3.5434184,-1.0773908
5.410595,4.511883,0.9995197,0.10712577,0.35919434,8.418014,-3.7684734,-1.2976574
5.4107895,4.5130467,0.9995197,0.10712577,0.35919434,8.418014,-3.7684734,-1.2976574
5.411114,4.5141582,0.91429853,0.12203947,0.49341768,8.346188,-3.8881836,-1.4317327
5.4114394,4.5152707,0.91429853,0.12203947,0.49341768,8.346188,-3.8881836,-1.4317327
5.4118958,4.5163307,0.82481635,0.13695318,0.627641,8.317456,-4.0557775,-1.532289
5.4123554,4.5173965,0.82481635,0.13695318,0.627641,8.317456,-4.0557775,-1.532289
5.412938,4.5183935,0.73426884,0.1508016,0.7576032,8.279149,-4.060566,-1.661576
5.4135227,4.519391,0.73426884,0.1508016,0.7576032,8.279149,-4.060566,-1.661576
5.4142265,4.520342,0.64372134,0.16251951,0.8790434,8.360553,-4.213795,-1.6567876
5.4149294,4.521289,0.64372134,0.16251951,0.8790434,8.360553,-4.213795,-1.6567876
5.4157386,4.522183,0.5531739,0.1689111,0.98876566,8.456321,-4.3287168,-1.6089035
5.4165463,4.5230737,0.5531739,0.1689111,0.98876566,8.456321,-4.3287168,-1.6089035
5.417442,4.523919,0.46688747,0.17530268,1.0814437,8.623915,-4.3478703,-1.4891934
5.418338,4.5247626,0.46688747,0.17530268,1.0814437,8.623915,-4.3478703,-1.4891934
5.4193063,4.5255556,0.38592738,0.17956375,1.1570774,8.944737,-4.3287168,-1.4317327
5.4202733,4.526345,0.38592738,0.17956375,1.1570774,8.944737,-4.3287168,-1.4317327
5.421296,4.527086,0.30922833,0.18808587,1.215667,9.217676,-4.271256,-1.3790601
5.422321,4.5278263,0.30922833,0.18808587,1.215667,9.217676,-4.271256,-1.3790601
5.4233828,4.5285254,0.23785561,0.20299956,1.2572123,9.3661175,-4.1946416,-1.3072342
5.424445,4.529222,0.23785561,0.20299956,1.2572123,9.3661175,-4.1946416,-1.3072342
5.4255314,4.5298824,0.17287448,0.22430485,1.2849091,9.275137,-4.2521024,-1.292869
5.426618,4.530541,0.17287448,0.22430485,1.2849091,9.275137,-4.2521024,-1.292869
5.427716,4.5311613,0.11002388,0.24347961,1.3008882,9.174581,-4.333505,-1.2497733
5.4288144,4.5317802,0.11002388,0.24347961,1.3008882,9.174581,-4.333505,-1.2497733
5.429916,4.5323567,0.051434334,0.25839332,1.3062145,9.059659,-4.55856,-1.2449849
5.431018,4.5329313,0.051434334,0.25839332,1.3062145,9.059659,-4.55856,-1.2449849
5.432119,4.5334644,-0.0028941538,0.2679807,1.3072797,9.150639,-4.76925,-1.2210429
5.433221,4.5339956,-0.0028941538,0.2679807,1.3072797,9.150639,-4.76925,-1.2210429
5.4343147,4.534468,-0.050831053,0.2679807,1.2998228,9.279925,-4.8937483,-1.316811
5.435409,4.5349393,-0.050831053,0.2679807,1.2998228,9.279925,-4.8937483,-1.316811
5.4364934,4.535355,-0.0945069,0.26585016,1.288105,9.246407,-5.0517654,-1.3694834
5.4375763,4.5357695,-0.0945069,0.26585016,1.288105,9.246407,-5.0517654,-1.3694834
5.43865,4.5361204,-0.13498695,0.26371965,1.2742565,9.165004,-5.243302,-1.5275006
5.4399176,4.536533,-0.13498695,0.26371965,1.2742565,9.165004,-5.243302,-1.5275006
5.440943,4.536815,-0.17120594,0.25413227,1.260408,9.021352,-5.3582234,-1.5562311
5.440943,4.536815,-0.17120594,0.25413227,1.260408,9.021352,-5.3582234,-1.5562311
5.442865,4.537341,-0.20422913,0.2381533,1.2454944,8.892065,-5.4683566,-1.5562311
5.444037,4.537599,-0.20422913,0.2381533,1.2454944,8.892065,-5.4683566,-1.5562311
5.4451876,4.5377817,-0.23086074,0.216848,1.235907,8.829816,-5.5976434,-1.6519991
5.4461203,4.537929,-0.23086074,0.216848,1.235907,8.829816,-5.5976434,-1.6519991
5.447132,4.5380325,-0.2532313,0.18915112,1.2295154,8.844181,-5.66947,-1.685518
5.44818,4.5381393,-0.2532313,0.18915112,1.2295154,8.844181,-5.66947,-1.685518
5.449234,4.538192,-0.26921028,0.15932372,1.2252543,8.853758,-5.717354,-1.733402
5.4502897,4.538244,-0.26921028,0.15932372,1.2252543,8.853758,-5.717354,-1.733402
5.4513493,4.538246,-0.28092816,0.12949632,1.224189,8.8777,-5.659893,-1.8100165
5.452423,4.538248,-0.28092816,0.12949632,1.224189,8.8777,-5.659893,-1.8100165
5.453476,4.5382137,-0.2862545,0.09860365,1.224189,8.944737,-5.650316,-1.8052281
5.4545403,4.5381784,-0.2862545,0.09860365,1.224189,8.944737,-5.650316,-1.8052281
5.4556108,4.538106,-0.28731975,0.06558045,1.224189,8.925584,-5.5880666,-1.8243817
5.45668,4.5380335,-0.28731975,0.06558045,1.224189,8.925584,-5.5880666,-1.8243817
5.4577575,4.537933,-0.28199345,0.031491987,1.2273849,8.973468,-5.4922986,-1.8195933
5.4588356,4.5378323,-0.28199345,0.031491987,1.2273849,8.973468,-5.4922986,-1.8195933
5.4599195,4.537704,-0.27347133,-0.0025964756,1.2295154,9.179369,-5.3247046,-1.9009962
5.4610043,4.537576,-0.27347133,-0.0025964756,1.2295154,9.179369,-5.3247046,-1.9009962
5.4620943,4.537433,-0.2596229,-0.033489145,1.231646,9.696517,-5.109226,-2.0254946
5.4631844,4.53729,-0.2596229,-0.033489145,1.231646,9.696517,-5.109226,-2.0254946
5.464276,4.537142,-0.24683972,-0.0558597,1.2305807,9.404425,-5.023035,-1.8818425
5.465367,4.536992,-0.24683972,-0.0558597,1.2305807,9.404425,-5.023035,-1.8818425
5.4664645,4.5368342,-0.23299128,-0.07609972,1.231646,9.078813,-4.9703627,-1.8387469
5.4675593,4.5366764,-0.23299128,-0.07609972,1.231646,9.078813,-4.9703627,-1.8387469
5.4686694,4.5365105,-0.21807757,-0.09953554,1.2401681,9.069236,-5.046977,-1.8387469
5.469778,4.5363445,-0.21807757,-0.09953554,1.2401681,9.069236,-5.046977,-1.8387469
5.4709024,4.536167,-0.20316388,-0.1251019,1.2508208,9.260772,-4.9799395,-1.9393034
5.472027,4.535989,-0.20316388,-0.1251019,1.2508208,9.260772,-4.9799395,-1.9393034
5.4731693,4.5357976,-0.18611965,-0.15066823,1.2636039,9.356541,-4.865018,-2.1021092
5.4743133,4.5356064,-0.18611965,-0.15066823,1.2636039,9.356541,-4.865018,-2.1021092
5.475481,4.5354085,-0.17014067,-0.17410405,1.2827786,9.337387,-4.88896,-2.1499932
5.476649,4.535211,-0.17014067,-0.17410405,1.2827786,9.337387,-4.88896,-2.1499932
5.477842,4.5350075,-0.15309644,-0.19540934,1.304084,9.279925,-4.8219223,-2.2457612
5.4790354,4.5348053,-0.15309644,-0.19540934,1.304084,9.279925,-4.8219223,-2.2457612
5.4802575,4.534606,-0.13392168,-0.2145841,1.3275198,9.193734,-4.735731,-2.2505496
5.4814787,4.534407,-0.13392168,-0.2145841,1.3275198,9.193734,-4.735731,-2.2505496
5.4827275,4.5342236,-0.11048587,-0.23056307,1.3541514,9.174581,-4.630386,-2.2218192
5.4839764,4.53404,-0.11048587,-0.23056307,1.3541514,9.174581,-4.630386,-2.2218192
5.485258,4.533881,-0.08385425,-0.24228097,1.3882399,9.121908,-4.4675803,-2.1739352
5.4865403,4.533723,-0.08385425,-0.24228097,1.3882399,9.121908,-4.4675803,-2.1739352
5.4878635,4.533589,-0.05402685,-0.25293362,1.4265894,9.093178,-4.4484267,-2.2170308
5.489187,4.533456,-0.05402685,-0.25293362,1.4265894,9.093178,-4.4484267,-2.2170308
5.49055,4.533361,-0.019938385,-0.26145574,1.4681346,9.069236,-4.3382936,-2.1164744
5.4919143,4.533267,-0.019938385,-0.26145574,1.4681346,9.069236,-4.3382936,-2.1164744
5.4933386,4.5332236,0.020541664,-0.26465154,1.5118105,9.165004,-4.367024,-2.0350714
5.4947968,4.53318,0.020541664,-0.26465154,1.5118105,9.165004,-4.367024,-2.0350714
5.4962187,4.5331974,0.06528277,-0.26465154,1.5597473,9.308656,-4.3526587,-1.9393034
5.4976435,4.5332155,0.06528277,-0.26465154,1.5597473,9.308656,-4.3526587,-1.9393034
5.499146,4.533308,0.11215441,-0.25825995,1.6140759,8.853758,-4.5298295,-1.6472107
5.500683,4.5334024,0.11215441,-0.25825995,1.6140759,8.853758,-4.5298295,-1.6472107
5.502179,4.53358,0.16222183,-0.24334624,1.6758612,8.389283,-4.8027687,-1.3311762
5.5037284,4.533764,0.16222183,-0.24334624,1.6758612,8.389283,-4.8027687,-1.3311762
5.505352,4.5340285,0.2144198,-0.22630201,1.7504297,8.0684595,-5.1523223,-1.316811
5.506976,4.5342927,0.2144198,-0.22630201,1.7504297,8.0684595,-5.1523223,-1.316811
5.508688,4.5346346,0.26448724,-0.21032305,1.8409772,7.8912888,-5.45878,-1.3359646
5.5104017,4.534976,0.26448724,-0.21032305,1.8409772,7.8912888,-5.45878,-1.3359646
5.512217,4.535381,0.31455466,-0.19327882,1.941112,7.762002,-5.765238,-1.4796166
5.5140285,4.535785,0.31455466,-0.19327882,1.941112,7.762002,-5.765238,-1.4796166
5.5159516,4.536237,0.36249155,-0.17729984,2.0487037,7.565677,-6.009446,-1.6759412
5.5178804,4.5366893,0.36249155,-0.17729984,2.0487037,7.565677,-6.009446,-1.6759412
5.5199428,4.5371904,0.4061674,-0.16238615,2.1605566,7.326257,-6.157887,-1.8435353
5.5220037,4.537691,0.4061674,-0.16238615,2.1605566,7.326257,-6.157887,-1.8435353
5.5241995,4.5382376,0.44664744,-0.15066823,2.2734747,7.129933,-6.2009826,-2.135628
5.526398,4.5387845,0.44664744,-0.15066823,2.2734747,7.129933,-6.2009826,-2.135628
5.528733,4.539385,0.48499697,-0.14214613,2.384262,6.8330517,-6.0764837,-2.504335
5.531066,4.5399833,0.48499697,-0.14214613,2.384262,6.8330517,-6.0764837,-2.504335
5.533513,4.5406313,0.5169549,-0.13255873,2.4939842,6.622362,-5.985504,-2.858677
5.535964,4.541279,0.5169549,-0.13255873,2.4939842,6.622362,-5.985504,-2.858677
5.5385227,4.541977,0.541456,-0.11977556,2.6037066,6.4978633,-5.9519854,-2.8107927
5.5410805,4.5426726,0.541456,-0.11977556,2.6037066,6.4978633,-5.9519854,-2.8107927
5.543738,4.5434113,0.557435,-0.108057655,2.7049067,6.435614,-5.9567738,-2.5091233
5.5463815,4.5441437,0.557435,-0.108057655,2.7049067,6.435614,-5.9567738,-2.5091233
5.549084,4.54492,0.56915283,-0.09633975,2.7975848,6.6750345,-5.770026,-2.2122424
5.551789,4.5456944,0.56915283,-0.09633975,2.7975848,6.6750345,-5.770026,-2.2122424
5.554544,4.546513,0.5798055,-0.08462184,2.8742838,6.909666,-5.45878,-2.087744
5.557299,4.547329,0.5798055,-0.08462184,2.8742838,6.909666,-5.45878,-2.087744
5.560087,4.5481787,0.58726233,-0.07290393,2.9328732,7.019799,-5.133168,-1.9728222
5.562881,4.5490265,0.58726233,-0.07290393,2.9328732,7.019799,-5.133168,-1.9728222
5.565749,4.5499153,0.59684974,-0.06331655,2.9733534,7.0245876,-4.831499,-1.8962077
5.568538,4.5507765,0.59684974,-0.06331655,2.9733534,7.0245876,-4.831499,-1.8962077
5.571376,4.5516715,0.6064371,-0.05372917,2.9946587,7.0820484,-4.596867,-1.8339585
5.5742164,4.5525637,0.6064371,-0.05372917,2.9946587,7.0820484,-4.596867,-1.8339585
5.577058,4.5534782,0.61708975,-0.043076526,3.0031807,7.1730285,-4.309563,-1.7908629
5.579903,4.55439,0.61708975,-0.043076526,3.0031807,7.1730285,-4.309563,-1.7908629
5.5827446,4.555318,0.6256119,-0.030293351,3.0031807,7.2544312,-4.0940847,-1.8052281
5.58559,4.5562434,0.6256119,-0.030293351,3.0031807,7.2544312,-4.0940847,-1.8052281
5.5884237,4.5571885,0.6298729,-0.01324912,2.9903975,7.350199,-3.8594532,-1.757344
5.591269,4.558133,0.6298729,-0.01324912,2.9903975,7.350199,-3.8594532,-1.757344
5.594036,4.559075,0.63306874,0.009121433,2.9712229,7.4124484,-3.7014358,-1.757344
5.5968394,4.560025,0.63306874,0.009121433,2.9712229,7.4124484,-3.7014358,-1.757344
5.599657,4.5610075,0.63306874,0.03468778,2.947787,7.3885064,-3.5769374,-1.6759412
5.6023917,4.5619564,0.63306874,0.03468778,2.947787,7.3885064,-3.5769374,-1.6759412
5.6051555,4.562942,0.63306874,0.062384658,2.9222207,7.3549876,-3.3806129,-1.661576
5.607889,4.563912,0.63306874,0.062384658,2.9222207,7.3549876,-3.3806129,-1.661576
5.6106033,4.564901,0.6320035,0.090081535,2.8977196,7.3166804,-3.1794999,-1.6232687
5.613326,4.5658884,0.6320035,0.090081535,2.8977196,7.3166804,-3.1794999,-1.6232687
5.6160235,4.566885,0.62880766,0.11458261,2.8721533,7.2831616,-2.9257145,-1.6376339
5.618746,4.5678864,0.62880766,0.11458261,2.8721533,7.2831616,-2.9257145,-1.6376339
5.6213903,4.568884,0.62880766,0.1390837,2.8519132,7.2927384,-2.6623523,-1.5466543
5.624052,4.5698843,0.62880766,0.1390837,2.8519132,7.2927384,-2.6623523,-1.5466543
5.626707,4.5709085,0.6320035,0.16038899,2.8369994,7.441179,-2.3942018,-1.412579
5.6293597,4.5719275,0.6320035,0.16038899,2.8369994,7.441179,-2.3942018,-1.412579
5.632002,4.5729628,0.6383951,0.17849848,2.8274121,7.7093296,-2.0111294,-1.4413095
5.6346393,4.573991,0.6383951,0.17849848,2.8274121,7.7093296,-2.0111294,-1.4413095
5.637283,4.575046,0.6458519,0.19341218,2.823151,7.8290396,-1.7142484,-1.2162545
5.639924,4.5760956,0.6458519,0.19341218,2.823151,7.8290396,-1.7142484,-1.2162545
5.6425633,4.5771656,0.6575698,0.2051301,2.8263469,7.967903,-1.5993267,-1.0247183
5.645211,4.5782337,0.6575698,0.2051301,2.8263469,7.967903,-1.5993267,-1.0247183
5.647868,4.5793266,0.6724835,0.21791327,2.8380647,8.1163435,-1.4939818,-0.90979666
5.650518,4.580411,0.6724835,0.21791327,2.8380647,8.1163435,-1.4939818,-0.90979666
5.6531925,4.581528,0.6884625,0.23389223,2.863631,7.9966335,-1.4796166,-0.6655881
5.655876,4.5826435,0.6884625,0.23389223,2.863631,7.9966335,-1.4796166,-0.6655881
5.6586018,4.583794,0.7055067,0.25093648,2.9062417,7.8146744,-1.4891934,-0.4213795
5.661323,4.584938,0.7055067,0.25093648,2.9062417,7.8146744,-1.4891934,-0.4213795
5.6641035,4.5861125,0.7246815,0.2647849,2.9669616,7.666234,-1.5275006,-0.35913026
5.6668906,4.5872846,0.7246815,0.2647849,2.9669616,7.666234,-1.5275006,-0.35913026
5.669758,4.588484,0.7417257,0.27437228,3.047922,7.551312,-1.6136919,-0.31603462
5.6726284,4.589679,0.7417257,0.27437228,3.047922,7.551312,-1.6136919,-0.31603462
5.675585,4.590894,0.7587699,0.2796986,3.149122,7.5082164,-1.7812861,-0.25857377
5.678554,4.5921087,0.7587699,0.2796986,3.149122,7.5082164,-1.7812861,-0.25857377
5.681642,4.593339,0.7715531,0.28076386,3.269497,7.3549876,-1.9536686,-0.34955344
5.684722,4.594559,0.7715531,0.28076386,3.269497,7.3549876,-1.9536686,-0.34955344
5.687946,4.595798,0.783271,0.2796986,3.4090464,7.129933,-2.1739352,-0.3878607
5.691174,4.5970316,0.783271,0.2796986,3.4090464,7.129933,-2.1739352,-0.3878607
5.694559,4.598271,0.7928584,0.27437228,3.5645752,6.8330517,-2.327164,-0.61291564
5.697928,4.599498,0.7928584,0.27437228,3.5645752,6.8330517,-2.327164,-0.61291564
5.7015133,4.6007423,0.80031526,0.2647849,3.7360828,6.5744777,-2.4708161,-0.7469909
5.705064,4.601968,0.80031526,0.2647849,3.7360828,6.5744777,-2.4708161,-0.7469909
5.70877,4.6031923,0.8077721,0.24880594,3.9203734,6.253655,-2.7246015,-0.62728083
5.7125025,4.6044183,0.8077721,0.24880594,3.9203734,6.253655,-2.7246015,-0.62728083
5.7164364,4.6056633,0.81735945,0.22643538,4.1131864,5.923255,-3.098097,-0.2873042
5.720367,4.6069,0.81735945,0.22643538,4.1131864,5.923255,-3.098097,-0.2873042
5.7245245,4.6081767,0.83333844,0.1987385,4.321978,5.530606,-3.7253778,0.2777274
5.7286825,4.6094456,0.83333844,0.1987385,4.321978,5.530606,-3.7253778,0.2777274
5.7330923,4.610764,0.85357845,0.17317216,4.5435534,4.9943047,-4.4723687,0.94331545
5.737511,4.6120768,0.85357845,0.17317216,4.5435534,4.9943047,-4.4723687,0.94331545
5.7422075,4.613432,0.8791448,0.1508016,4.7757807,4.4244847,-5.315128,1.4891934
5.746898,4.6147776,0.8791448,0.1508016,4.7757807,4.4244847,-5.315128,1.4891934
5.7518783,4.616162,0.9089722,0.1390837,5.022922,3.8546648,-6.1243677,1.7956513
5.7568483,4.6175346,0.9089722,0.1390837,5.022922,3.8546648,-6.1243677,1.7956513
5.7621026,4.618939,0.9366691,0.1358879,5.2785854,3.3518825,-6.9144545,1.8818425
5.7673564,4.6203346,0.9366691,0.1358879,5.2785854,3.3518825,-6.9144545,1.8818425
5.77291,4.621757,0.96010494,0.13801843,5.5395756,2.791639,-7.61835,1.7286136
5.7784576,4.623169,0.96010494,0.13801843,5.5395756,2.791639,-7.61835,1.7286136
5.784343,4.624607,0.9771491,0.14121422,5.7984347,2.4181437,-8.240842,1.3120226
5.7901344,4.626013,0.9771491,0.14121422,5.7984347,2.4181437,-8.240842,1.3120226
5.796267,4.6274233,0.9856713,0.1390837,6.048772,2.0829554,-8.901642,0.6943185
5.796267,4.6274233,0.9856713,0.1390837,6.048772,2.0829554,-8.901642,0.6943185
5.809432,4.6303406,0.98460597,0.13162684,6.2799344,1.6998832,-9.5385,-0.038307227
5.815794,4.631686,0.98460597,0.13162684,6.2799344,1.6998832,-9.5385,-0.038307227
5.821707,4.6328425,0.9750186,0.11458261,6.4897914,1.364695,-10.065224,-0.8571242
5.8280816,4.63408,0.9750186,0.11458261,6.4897914,1.364695,-10.065224,-0.8571242
5.835815,4.6354785,0.9590396,0.085820474,6.6719513,1.0247183,-10.424355,-1.4077905
5.835815,4.6354785,0.9590396,0.085820474,6.6719513,1.0247183,-10.424355,-1.4077905
5.8502164,4.637892,0.9366691,0.046405688,6.82535,0.81881696,-10.577583,-1.8291701
5.8571954,4.6390467,0.9366691,0.046405688,6.82535,0.81881696,-10.577583,-1.8291701
5.8571954,4.6390467,0.9366691,0.046405688,6.82535,0.81881696,-10.577583,-1.8291701
5.8674226,4.640628,0.912168,-0.0025964756,6.943594,0.6703765,-10.524911,-1.9440918
5.8779936,4.6422176,0.88766694,-0.05692496,7.0288153,0.7469909,-10.266336,-1.8004397
5.884963,4.643218,0.88766694,-0.05692496,7.0288153,0.7469909,-10.266336,-1.8004397
5.8913603,4.64409,0.8663616,-0.11125345,7.079948,0.93373865,-9.931149,-1.532289
5.898529,4.645061,0.8663616,-0.11125345,7.079948,0.93373865,-9.931149,-1.532289
5.9057536,4.646012,0.8525132,-0.15812509,7.092731,1.283292,-9.476251,-1.1013328
5.9129705,4.646955,0.8525132,-0.15812509,7.092731,1.283292,-9.476251,-1.1013328
5.9201846,4.647899,0.84505635,-0.19860514,7.069295,1.508347,-9.011775,-0.61291564
5.9274206,4.648841,0.84505635,-0.19860514,7.069295,1.508347,-9.011775,-0.61291564
5.934529,4.6498,0.8482521,-0.22417149,7.0064445,1.7908629,-8.508993,-0.22026655
5.9416656,4.650759,0.8482521,-0.22417149,7.0064445,1.7908629,-8.508993,-0.22026655
5.9487143,4.65176,0.8589048,-0.23695466,6.9052444,2.054225,-8.054094,0.01436521
5.955676,4.652748,0.8589048,-0.23695466,6.9052444,2.054225,-8.054094,0.01436521
5.962492,4.653775,0.8748838,-0.24015045,6.772086,2.2601264,-7.536947,0.17717093
5.9693007,4.6547995,0.8748838,-0.24015045,6.772086,2.2601264,-7.536947,0.17717093
5.975882,4.6558385,0.8940585,-0.23162833,6.610166,2.5187001,-7.0485296,0.2681506
5.98245,4.656872,0.8940585,-0.23162833,6.610166,2.5187001,-7.0485296,0.2681506
5.9888077,4.6579094,0.912168,-0.21564937,6.4184184,2.60968,-6.5696893,0.14844051
5.9951105,4.658932,0.912168,-0.21564937,6.4184184,2.60968,-6.5696893,0.14844051
6.0011916,4.6599483,0.92814696,-0.19434407,6.203235,2.7581203,-6.157887,0.033518825
6.007283,4.660961,0.92814696,-0.19434407,6.203235,2.7581203,-6.157887,0.033518825
6.013151,4.661953,0.9366691,-0.17090826,5.968877,2.906561,-5.779603,-0.19632454
6.018949,4.6629295,0.9366691,-0.17090826,5.968877,2.906561,-5.779603,-0.19632454
6.024529,4.663891,0.93773437,-0.15066823,5.7185397,3.0310593,-5.386954,-0.38307226
6.030103,4.664849,0.93773437,-0.15066823,5.7185397,3.0310593,-5.386954,-0.38307226
6.035428,4.6657844,0.9302775,-0.13042821,5.456485,3.2130187,-5.109226,-0.60333884
6.040742,4.666716,0.9302775,-0.13042821,5.456485,3.2130187,-5.109226,-0.60333884
6.045794,4.6676283,0.9132333,-0.11338398,5.1891036,3.3806129,-4.7740383,-0.6847417
6.0508513,4.6685395,0.9132333,-0.11338398,5.1891036,3.3806129,-4.7740383,-0.6847417
6.0556316,4.66942,0.88766694,-0.09633975,4.921722,3.4811692,-4.4436383,-0.770933
6.060417,4.6702995,0.88766694,-0.09633975,4.921722,3.4811692,-4.4436383,-0.770933
6.0650206,4.6711593,0.85464376,-0.079295516,4.6586018,3.5865142,-4.1180267,-0.8379706
6.0692987,4.671957,0.85464376,-0.079295516,4.6586018,3.5865142,-4.1180267,-0.8379706
6.07356,4.6727643,0.81522894,-0.064381815,4.4029384,3.6631286,-3.9552212,-0.770933
6.078001,4.6736045,0.81522894,-0.064381815,4.4029384,3.6631286,-3.9552212,-0.770933
6.08202,4.674371,0.77048784,-0.052663904,4.160058,3.6008794,-3.8259344,-0.6607997
6.08601,4.67513,0.77048784,-0.052663904,4.160058,3.6008794,-3.8259344,-0.6607997
6.089809,4.67586,0.7225509,-0.045207053,3.9363525,3.53863,-3.7732618,-0.37349546
6.0936313,4.6765943,0.7225509,-0.045207053,3.9363525,3.53863,-3.7732618,-0.37349546
6.0972333,4.67728,0.6756793,-0.04201126,3.7392786,3.2561142,-3.8019924,-0.2681506
6.1008353,4.677964,0.6756793,-0.04201126,3.7392786,3.2561142,-3.8019924,-0.2681506
6.104156,4.6785936,0.6320035,-0.043076526,3.572032,3.0550013,-3.8355112,-0.05267244
6.1077104,4.679266,0.6320035,-0.043076526,3.572032,3.0550013,-3.8355112,-0.05267244
6.111025,4.6798863,0.5957845,-0.047337584,3.4463308,2.834735,-3.8402996,0.076614454
6.1143427,4.6805058,0.5957845,-0.047337584,3.4463308,2.834735,-3.8402996,0.076614454
6.1175756,4.6811047,0.5670223,-0.05372917,3.36324,2.657564,-3.8786068,0.23463176
6.1208115,4.6817036,0.5670223,-0.05372917,3.36324,2.657564,-3.8786068,0.23463176
6.124007,4.682282,0.5435865,-0.062251285,3.3195643,2.6144683,-3.9217024,0.32561144
6.127203,4.6828604,0.5435865,-0.062251285,3.3195643,2.6144683,-3.9217024,0.32561144
6.1304016,4.6834335,0.5286728,-0.07290393,3.3153033,2.6001031,-3.9839516,0.58418524
6.133607,4.6840067,0.5286728,-0.07290393,3.3153033,2.6001031,-3.9839516,0.58418524
6.1368775,4.6845913,0.5222812,-0.08781763,3.3472612,2.4420857,-4.19943,0.93373865
6.140109,4.6851683,0.5222812,-0.08781763,3.3472612,2.4420857,-4.19943,0.93373865
6.14347,4.685773,0.5265423,-0.10060081,3.4154382,2.0733786,-4.745308,1.7956513
6.1468296,4.686377,0.5265423,-0.10060081,3.4154382,2.0733786,-4.745308,1.7956513
6.1503425,4.6870027,0.54039073,-0.10486186,3.5251603,1.3024458,-5.81791,3.0119057
6.1538515,4.6876273,0.54039073,-0.10486186,3.5251603,1.3024458,-5.81791,3.0119057
6.157549,4.6882753,0.56382656,-0.09633975,3.6806889,0.11492168,-7.3885064,4.3526587
6.1612463,4.688924,0.56382656,-0.09633975,3.6806889,0.11492168,-7.3885064,4.3526587
6.1651754,4.6896014,0.5936539,-0.06544708,3.8916113,-1.4413095,-9.165004,5.2624555
6.1691046,4.690279,0.5936539,-0.06544708,3.8916113,-1.4413095,-9.165004,5.2624555
6.173331,4.6909866,0.6213508,-0.015379649,4.1653843,-2.9640217,-10.922348,5.7748146
6.1775436,4.691691,0.6213508,-0.015379649,4.1653843,-2.9640217,-10.922348,5.7748146
6.1820974,4.692415,0.6405256,0.04214463,4.493486,-4.5058875,-12.603078,5.8801594
6.186655,4.6931396,0.6405256,0.04214463,4.493486,-4.5058875,-12.603078,5.8801594
6.1916027,4.6938677,0.6426561,0.09753838,4.869524,-5.434838,-14.073117,5.693412
6.19654,4.6945934,0.6426561,0.09753838,4.869524,-5.434838,-14.073117,5.693412
6.201911,4.695295,0.6202856,0.14547528,5.2828465,-6.4404025,-15.380352,5.1666875
6.2072716,4.6959944,0.6202856,0.14547528,5.2828465,-6.4404025,-15.380352,5.1666875
6.213081,4.696646,0.5798055,0.18275954,5.7142787,-7.2831616,-15.8304615,4.223372
6.21889,4.697297,0.5798055,0.18275954,5.7142787,-7.2831616,-15.8304615,4.223372
6.225145,4.6978827,0.5169549,0.19021639,6.1361237,-7.398083,-16.601395,3.8115692
6.2313743,4.6984644,0.5169549,0.19021639,6.1361237,-7.398083,-16.601395,3.8115692
6.2380204,4.6989584,0.4359948,0.19021639,6.5462503,-7.1107793,-16.678009,3.0262709
6.2444873,4.6994376,0.4359948,0.19021639,6.5462503,-7.1107793,-16.678009,3.0262709
6.251523,4.69982,0.340121,0.19554271,6.9329414,-7.819463,-16.606182,2.1068976
6.2587914,4.700213,0.340121,0.19554271,6.9329414,-7.819463,-16.606182,2.1068976
6.2661824,4.700476,0.22933349,0.19341218,7.277022,-7.5944076,-16.912642,1.6280571
6.2735367,4.7007365,0.22933349,0.19341218,7.277022,-7.5944076,-16.912642,1.6280571
6.2812347,4.7008743,0.11428493,0.1838248,7.5721,-7.493851,-17.108965,1.1252748
0.005793507,4.7010117,0.11428493,0.1838248,7.5721,-7.493851,-17.108965,1.1252748
0.013763817,4.7010226,0.0024321685,0.18062901,7.8149805,-7.469909,-16.859968,0.40222588
0.021694494,4.7010307,0.0024321685,0.18062901,7.8149805,-7.469909,-16.859968,0.40222588
0.02982612,4.7009177,-0.10196375,0.18595533,8.004598,-7.5082164,-16.414646,-0.40701428
0.03801476,4.7008014,-0.10196375,0.18595533,8.004598,-7.5082164,-16.414646,-0.40701428
0.04626708,4.7005677,-0.19996808,0.20086904,8.142016,-7.5944076,-15.988479,-1.2976574
0.05452765,4.7003307,-0.19996808,0.20086904,8.142016,-7.5944076,-15.988479,-1.2976574
0.06287843,4.69998,-0.29371136,0.22217433,8.228303,-7.651869,-15.500062,-2.1452048
0.07123725,4.6996245,-0.29371136,0.22217433,8.228303,-7.651869,-15.500062,-2.1452048
0.07967424,4.69916,-0.37999776,0.24134909,8.264522,-7.5465236,-14.93503,-3.0262709
0.07967424,4.69916,-0.37999776,0.24134909,8.264522,-7.5465236,-14.93503,-3.0262709
0.09649776,4.698144,-0.4598926,0.25519753,8.245347,-7.192182,-14.4370365,-3.620033
0.10487897,4.697576,-0.4598926,0.25519753,8.245347,-7.192182,-14.4370365,-3.620033
0.113111846,4.6969275,-0.5323306,0.26371965,8.172909,-6.6750345,-14.082694,-3.9121256
0.12133508,4.696275,-0.5323306,0.26371965,8.172909,-6.6750345,-14.082694,-3.9121256
0.12945749,4.6955495,-0.5919854,0.27224174,8.048273,-6.0142345,-13.661315,-3.9456444
0.13758627,4.6948185,-0.5919854,0.27224174,8.048273,-6.0142345,-13.661315,-3.9456444
0.14553413,4.6940303,-0.6367265,0.28822073,7.870374,-5.401319,-13.230358,-3.9791632
0.15347992,4.6932364,-0.6367265,0.28822073,7.870374,-5.401319,-13.230358,-3.9791632
0.1611675,4.6923985,-0.6697497,0.31698287,7.6392117,-4.8745947,-12.727576,-4.0222588
0.16886818,4.691553,-0.6697497,0.31698287,7.6392117,-4.8745947,-12.727576,-4.0222588
0.17627637,4.690677,-0.6878592,0.35107133,7.355851,-4.5441947,-12.425907,-4.036624
0.18368202,4.6897955,-0.6878592,0.35107133,7.355851,-4.5441947,-12.425907,-4.036624
0.19075884,4.6888924,-0.6974466,0.3851598,7.0245543,-4.4005427,-12.224793,-3.9600096
0.197826,4.687984,-0.6974466,0.3851598,7.0245543,-4.4005427,-12.224793,-3.9600096
0.20452198,4.687063,-0.6974466,0.41392192,6.6485157,-4.0462008,-12.100295,-3.7014358
0.21118185,4.686141,-0.6974466,0.41392192,6.6485157,-4.0462008,-12.100295,-3.7014358
0.21743742,4.685214,-0.691055,0.438423,6.2330627,-3.691859,-12.042834,-3.2800562
0.2236901,4.684281,-0.691055,0.438423,6.2330627,-3.691859,-12.042834,-3.2800562
0.22948639,4.6833515,-0.67827183,0.4661199,5.7856517,-3.3375173,-11.69807,-2.8107927
0.23527938,4.682417,-0.67827183,0.4661199,5.7856517,-3.3375173,-11.69807,-2.8107927
0.24059613,4.6814923,-0.6601623,0.4959473,5.312674,-3.145981,-11.377247,-2.1739352
0.24592479,4.6805596,-0.6601623,0.4959473,5.312674,-3.145981,-11.377247,-2.1739352
0.25073472,4.679644,-0.6409876,0.53003573,4.8183913,-3.107674,-10.960655,-1.6472107
0.25555936,4.6787195,-0.6409876,0.53003573,4.8183913,-3.107674,-10.960655,-1.6472107
0.25989345,4.6778145,-0.62074757,0.56838524,4.3070645,-3.1747115,-10.510546,-1.067814
0.2642263,4.6769023,-0.62074757,0.56838524,4.3070645,-3.1747115,-10.510546,-1.067814
0.2681075,4.6760335,-0.60157275,0.61419165,3.7882807,-3.1747115,-10.208876,-0.56982
0.2719852,4.675158,-0.60157275,0.61419165,3.7882807,-3.1747115,-10.208876,-0.56982
0.27533156,4.674412,-0.5877243,0.66106325,3.2684317,-3.1411927,-9.916783,-0.18195933
0.2786782,4.6736665,-0.5877243,0.66106325,3.2684317,-3.1411927,-9.916783,-0.18195933
0.28147286,4.672941,-0.57920223,0.7047391,2.7549741,-3.1555579,-9.792285,0.038307227
0.2842616,4.6722155,-0.57920223,0.7047391,2.7549741,-3.1555579,-9.792285,0.038307227
0.28652534,4.6714892,-0.57707167,0.7441539,2.251104,-3.1507695,-9.821015,0.17238252
0.28878453,4.6707616,-0.57707167,0.7441539,2.251104,-3.1507695,-9.821015,0.17238252
0.2905535,4.670026,-0.5802675,0.77611184,1.7674739,-3.2034419,-10.01734,0.20590134
0.29231882,4.6692886,-0.5802675,0.77611184,1.7674739,-3.2034419,-10.01734,0.20590134
0.29362383,4.6685395,-0.59092015,0.8006129,1.3126061,-3.289633,-10.251971,0.17238252
0.29492846,4.6677876,-0.59092015,0.8006129,1.3126061,-3.289633,-10.251971,0.17238252
0.2958131,4.667025,-0.6037033,0.8112656,0.8939571,-3.3566709,-10.457873,0.1340753
0.29669538,4.666261,-0.6037033,0.8112656,0.8939571,-3.3566709,-10.457873,0.1340753
0.2971928,4.665491,-0.6164865,0.80806977,0.51472294,-3.3997664,-10.682928,0.12449849
0.29769146,4.664716,-0.6164865,0.80806977,0.51472294,-3.3997664,-10.682928,0.12449849
0.29785728,4.6639433,-0.6250086,0.7910255,0.18236046,-3.4476504,-10.764331,0.14844051
0.29802018,4.6631794,-0.6250086,0.7910255,0.18236046,-3.4476504,-10.764331,0.14844051
0.2978957,4.6624064,-0.62713915,0.76119816,-0.09886937,-3.4763808,-10.912771,0.32561144
0.297775,4.661661,-0.62713915,0.76119816,-0.09886937,-3.4763808,-10.912771,0.32561144
0.29741243,4.660932,-0.61755174,0.7185876,-0.33003175,-3.41892,-11.080365,0.50278234
0.29704902,4.660202,-0.61755174,0.7185876,-0.33003175,-3.41892,-11.080365,0.50278234
0.29649448,4.659506,-0.5941159,0.6663896,-0.5089962,-3.3614593,-11.319786,0.79008657
0.29591867,4.6587834,-0.5941159,0.6663896,-0.5089962,-3.3614593,-11.319786,0.79008657
0.2952489,4.6581573,-0.55470115,0.6099306,-0.63576263,-3.371036,-11.525687,1.1779473
0.2952489,4.6581573,-0.55470115,0.6099306,-0.63576263,-3.371036,-11.525687,1.1779473
0.29387262,4.656939,-0.50037265,0.5524063,-0.7124617,-3.466804,-11.798626,1.4317327
0.29387262,4.656939,-0.50037265,0.5524063,-0.7124617,-3.466804,-11.798626,1.4317327
0.29236704,4.6558523,-0.43539152,0.49381676,-0.7412238,-3.572149,-12.105083,1.5897499
0.29162902,4.6553993,-0.43539152,0.49381676,-0.7412238,-3.572149,-12.105083,1.5897499
0.2908902,4.6550207,-0.3618883,0.43416196,-0.7252449,-3.8546648,-12.464214,1.6567876
0.29016125,4.6546474,-0.3618883,0.43416196,-0.7252449,-3.8546648,-12.464214,1.6567876
0.2894379,4.6543427,-0.2830587,0.37237662,-0.66772056,-4.1611223,-12.856863,1.661576
0.2888012,4.654074,-0.2830587,0.37237662,-0.66772056,-4.1611223,-12.856863,1.661576
0.2888012,4.654074,-0.2830587,0.37237662,-0.66772056,-4.1611223,-12.856863,1.661576
0.28765723,4.6537056,-0.20103334,0.3063302,-0.5771731,-4.5058875,-13.330915,1.6041151
0.2872171,4.6536226,-0.11687745,0.23602276,-0.4546677,-4.9081135,-13.958196,1.5945383
0.28678071,4.65354,-0.11687745,0.23602276,-0.4546677,-4.9081135,-13.958196,1.5945383
0.28651345,4.6535583,-0.032721557,0.16465004,-0.29913908,-5.2624555,-14.369999,1.4269443
0.28624585,4.653576,-0.032721557,0.16465004,-0.29913908,-5.2624555,-14.369999,1.4269443
0.28617167,4.6536913,0.047173277,0.0911468,-0.11697886,-5.3438582,-14.69561,0.9959879
0.2860976,4.6538067,0.047173277,0.0911468,-0.11697886,-5.3438582,-14.69561,0.9959879
0.28624234,4.654011,0.122807056,0.017643549,0.08222559,-5.5880666,-14.915876,0.6751649
0.28638703,4.654215,0.122807056,0.017643549,0.08222559,-5.5880666,-14.915876,0.6751649
0.28676903,4.654495,0.19098398,-0.05692496,0.29314795,-5.779603,-14.992491,0.2681506
0.28715086,4.6547747,0.19098398,-0.05692496,0.29314795,-5.779603,-14.992491,0.2681506
0.28776652,4.655129,0.25489986,-0.13255873,0.5019398,-5.7125654,-14.877569,-0.07182605
0.28837547,4.6554794,0.25489986,-0.13255873,0.5019398,-5.7125654,-14.877569,-0.07182605
0.28920013,4.655893,0.31561992,-0.20819251,0.70434004,-5.4300494,-14.633361,-0.39264908
0.29003993,4.656314,0.31561992,-0.20819251,0.70434004,-5.4300494,-14.633361,-0.39264908
0.29107487,4.656781,0.36994842,-0.27956524,0.88650024,-5.1475334,-14.135366,-0.61291564
0.29210794,4.6572475,0.36994842,-0.27956524,0.88650024,-5.1475334,-14.135366,-0.61291564
0.2933054,4.657772,0.42321163,-0.34454638,1.0409636,-4.6830587,-13.613431,-0.6943185
0.29450062,4.658295,0.42321163,-0.34454638,1.0409636,-4.6830587,-13.613431,-0.6943185
0.29581288,4.6588345,0.47647485,-0.3999401,1.1613384,-4.1946416,-13.086706,-0.770933
0.2971193,4.6593666,0.47647485,-0.3999401,1.1613384,-4.1946416,-13.086706,-0.770933
0.2982516,4.6600027,0.52973807,-0.44361597,1.2401681,-3.8067808,-12.612655,-0.6751649
0.29937145,4.6606183,0.52973807,-0.44361597,1.2401681,-3.8067808,-12.612655,-0.6751649
0.30052853,4.6613545,0.5861971,-0.4755739,1.2742565,-3.4476504,-12.129025,-0.5746084
0.30169514,4.662094,0.5861971,-0.4755739,1.2742565,-3.4476504,-12.129025,-0.5746084
0.302841,4.6628556,0.6394603,-0.49474865,1.2667997,-3.241749,-11.765107,-0.61770403
0.3039903,4.6636176,0.6394603,-0.49474865,1.2667997,-3.241749,-11.765107,-0.61770403
0.3050918,4.664436,0.690593,-0.50433606,1.2188628,-3.1555579,-11.420342,-0.58897364
0.30619666,4.665255,0.690593,-0.50433606,1.2188628,-3.1555579,-11.420342,-0.58897364
0.3072329,4.666073,0.7353341,-0.50433606,1.1336416,-3.064578,-11.123461,-0.7326257
0.3082744,4.6668944,0.7353341,-0.50433606,1.1336416,-3.064578,-11.123461,-0.7326257
0.30919996,4.667744,0.7715531,-0.500075,1.0143319,-3.0023289,-10.965444,-0.770933
0.3101294,4.668597,0.7715531,-0.500075,1.0143319,-3.0023289,-10.965444,-0.770933
0.3109266,4.669457,0.79711944,-0.49155286,0.86945605,-3.016694,-10.793061,-0.8379706
0.311727,4.67032,0.79711944,-0.49155286,0.86945605,-3.016694,-10.793061,-0.8379706
0.31237337,4.6711917,0.81309843,-0.48303074,0.7054053,-2.896984,-10.510546,-0.94810385
0.3130156,4.6720586,0.81309843,-0.48303074,0.7054053,-2.896984,-10.510546,-0.94810385
0.313477,4.6729374,0.81842476,-0.47450864,0.5253756,-2.6144683,-10.342952,-1.1252748
0.31394243,4.673824,0.81842476,-0.47450864,0.5253756,-2.6144683,-10.342952,-1.1252748
0.3142168,4.674705,0.81309843,-0.45852965,0.3368238,-2.3894134,-10.132261,-1.2593501
0.3142168,4.674705,0.81309843,-0.45852965,0.3368238,-2.3894134,-10.132261,-1.2593501
0.31460294,4.676429,0.7960542,-0.4329633,0.14294566,-2.3319526,-9.964667,-1.283292
0.31468004,4.6772637,0.7960542,-0.4329633,0.14294566,-2.3319526,-9.964667,-1.283292
0.3145692,4.678069,0.7694226,-0.40313593,-0.05199773,-2.3942018,-9.854534,-1.283292
0.31445822,4.6788774,0.7694226,-0.40313593,-0.05199773,-2.3942018,-9.854534,-1.283292
0.31416968,4.6796365,0.73426884,-0.36904746,-0.24054953,-2.4372973,-9.68694,-1.3838485
0.31388164,4.6803946,0.73426884,-0.36904746,-0.24054953,-2.4372973,-9.68694,-1.3838485
0.31341198,4.6811047,0.6937888,-0.33282846,-0.41844872,-2.4372973,-9.696517,-1.340753
0.3129433,4.6818132,0.6937888,-0.33282846,-0.41844872,-2.4372973,-9.696517,-1.340753
0.31230843,4.6824675,0.6490477,-0.2955442,-0.57823837,-2.3702598,-9.701305,-1.3072342
0.31167236,4.6831236,0.6490477,-0.2955442,-0.57823837,-2.3702598,-9.701305,-1.3072342
0.31088606,4.6837244,0.6032413,-0.25719467,-0.7209838,-2.3127987,-9.739613,-1.2545617
0.31009734,4.6843266,0.6032413,-0.25719467,-0.7209838,-2.3127987,-9.739613,-1.2545617
0.30918893,4.6848693,0.5595655,-0.21884516,-0.84561974,-2.3175871,-9.763555,-1.1827357
0.30827498,4.685415,0.5595655,-0.21884516,-0.84561974,-2.3175871,-9.763555,-1.1827357
0.30725953,4.685908,0.51802015,-0.1815609,-0.9457546,-2.4181437,-9.888053,-1.0630256
0.30624413,4.686401,0.51802015,-0.1815609,-0.9457546,-2.4181437,-9.888053,-1.0630256
0.30514765,4.686847,0.47967064,-0.14853771,-1.0224537,-2.4708161,-9.92636,-0.9528923
0.30405238,4.687292,0.47967064,-0.14853771,-1.0224537,-2.4708161,-9.92636,-0.9528923
0.30288434,4.687705,0.44558218,-0.12084083,-1.0767821,-2.27928,-9.92636,-0.89064306
0.30171725,4.6881166,0.44558218,-0.12084083,-1.0767821,-2.27928,-9.92636,-0.89064306
0.300511,4.6884947,0.41362426,-0.09633975,-1.1066096,-2.2026656,-9.9550905,-0.8331822
0.29929852,4.688874,0.41362426,-0.09633975,-1.1066096,-2.2026656,-9.9550905,-0.8331822
0.29807386,4.689225,0.38379684,-0.07503446,-1.1183275,-2.0925324,-10.0029745,-0.7182605
0.2968413,4.689578,0.38379684,-0.07503446,-1.1183275,-2.0925324,-10.0029745,-0.7182605
0.2956123,4.6899056,0.35716522,-0.054794434,-1.1108706,-2.1499932,-10.036493,-0.59855044
0.2943804,4.6902328,0.35716522,-0.054794434,-1.1108706,-2.1499932,-10.036493,-0.59855044
0.29316705,4.6905384,0.33159888,-0.03881547,-1.0863695,-2.1068976,-10.079589,-0.5267244
0.29195425,4.6908436,0.33159888,-0.03881547,-1.0863695,-2.1068976,-10.079589,-0.5267244
0.29077935,4.691124,0.30603254,-0.02496703,-1.0448242,-2.0590134,-10.04607,-0.48362875
0.28960484,4.691404,0.30603254,-0.02496703,-1.0448242,-2.0590134,-10.04607,-0.48362875
0.28847817,4.691669,0.283662,-0.01324912,-0.991561,-1.9440918,-10.007763,-0.41180268
0.28739336,4.6919236,0.283662,-0.01324912,-0.991561,-1.9440918,-10.007763,-0.41180268
0.28633273,4.6921616,0.25809565,-0.0047270046,-0.9287104,-1.8387469,-9.935937,-0.39743748
0.28522328,4.6924095,0.25809565,-0.0047270046,-0.9287104,-1.8387469,-9.935937,-0.39743748
0.28422853,4.692624,0.2325293,0.0027298466,-0.85733765,-1.7956513,-9.907207,-0.36391866
0.28324082,4.6928363,0.2325293,0.0027298466,-0.85733765,-1.7956513,-9.907207,-0.36391866
0.28232437,4.693018,0.20483242,0.009121433,-0.7795734,-1.6903064,-9.840169,-0.39264908
0.28140342,4.6931996,0.20483242,0.009121433,-0.7795734,-1.6903064,-9.840169,-0.39264908
0.2805645,4.693361,0.17820081,0.011251962,-0.6986132,-1.6328455,-9.725247,-0.32561144
0.2797272,4.6935215,0.17820081,0.011251962,-0.6986132,-1.6328455,-9.725247,-0.32561144
0.27897,4.693661,0.15263446,0.013382491,-0.61765313,-1.5179238,-9.586384,-0.2825158
0.27820978,4.6938014,0.15263446,0.013382491,-0.61765313,-1.5179238,-9.586384,-0.2825158
0.27753502,4.693932,0.12919864,0.01551302,-0.53775835,-1.4460979,-9.500193,-0.14844051
0.27685624,4.694063,0.12919864,0.01551302,-0.53775835,-1.4460979,-9.500193,-0.14844051
0.2762615,4.6941843,0.104697555,0.018708814,-0.45786348,-1.4173675,-9.399636,-0.0047884034
0.27566788,4.694306,0.104697555,0.018708814,-0.45786348,-1.4173675,-9.399636,-0.0047884034
0.27515033,4.6944065,0.08445753,0.022969872,-0.38116443,-1.316811,-9.370906,0.019153614
0.27463531,4.6945066,0.08445753,0.022969872,-0.38116443,-1.316811,-9.370906,0.019153614
0.27419165,4.694591,0.0674133,0.02723093,-0.30872646,-1.2976574,-9.3661175,0.047884032
0.27374783,4.694676,0.0674133,0.02723093,-0.30872646,-1.2976574,-9.3661175,0.047884032
0.27337298,4.6947556,0.054630127,0.030426722,-0.24374533,-1.3359646,-9.380483,0.12928689
0.27299654,4.694835,0.054630127,0.030426722,-0.24374533,-1.3359646,-9.380483,0.12928689
0.2726792,4.6948967,0.041846953,0.031491987,-0.18515578,-1.3551182,-9.399636,0.08619126
0.27236086,4.694959,0.041846953,0.031491987,-0.18515578,-1.3551182,-9.399636,0.08619126
0.2720987,4.695013,0.027998514,0.030426722,-0.13189256,-1.4652514,-9.356541,0.11492168
0.2718357,4.6950674,0.027998514,0.030426722,-0.13189256,-1.4652514,-9.356541,0.11492168
0.2716207,4.695109,0.016280606,0.0251004,-0.08395566,-1.5179238,-9.461885,0.08619126
0.27140474,4.6951504,0.016280606,0.0251004,-0.08395566,-1.5179238,-9.461885,0.08619126
0.27122983,4.695176,0.005627962,0.017643549,-0.04027982,-1.4317327,-9.557653,0.04309563
0.2710549,4.6952014,0.005627962,0.017643549,-0.04027982,-1.4317327,-9.557653,0.04309563
0.2709169,4.695221,-0.0071552116,0.009121433,-0.006191358,-1.2306197,-9.591172,0.1340753
0.2707784,4.695241,-0.0071552116,0.009121433,-0.006191358,-1.2306197,-9.591172,0.1340753
0.2706654,4.6952457,-0.019938385,0.0016645822,0.020440254,-1.2976574,-9.591172,0.076614454
0.270552,4.695251,-0.019938385,0.0016645822,0.020440254,-1.2976574,-9.591172,0.076614454
0.27045757,4.6952453,-0.033786822,-0.0025964756,0.03854975,-1.4077905,-9.615114,0.076614454
0.2703632,4.695239,-0.033786822,-0.0025964756,0.03854975,-1.4077905,-9.615114,0.076614454
0.27028978,4.6952295,-0.050831053,-0.005792269,0.05346345,-1.6184803,-9.696517,0.1436521
0.27021638,4.6952195,-0.050831053,-0.005792269,0.05346345,-1.6184803,-9.696517,0.1436521
0.27015457,4.6951947,-0.06681002,-0.008988062,0.06518136,-1.7142484,-9.706094,0.11492168
0.2700928,4.6951694,-0.06681002,-0.008988062,0.06518136,-1.7142484,-9.706094,0.11492168
0.27003047,4.695119,-0.08278899,-0.01324912,0.07050768,-1.70946,-9.720459,0.02873042
0.26997066,4.6950703,-0.08278899,-0.01324912,0.07050768,-1.70946,-9.720459,0.02873042
0.26990366,4.6949925,-0.09983322,-0.020705972,0.071572945,-1.6328455,-9.701305,-0.023942016
0.26983953,4.6949186,-0.09983322,-0.020705972,0.071572945,-1.6328455,-9.701305,-0.023942016
0.26976773,4.69482,-0.11687745,-0.02496703,0.06624663,-1.6089035,-9.662998,-0.08619126
0.26969665,4.6947217,-0.11687745,-0.02496703,0.06624663,-1.6089035,-9.662998,-0.08619126
0.26961273,4.694593,-0.13498695,-0.029228088,0.055593982,-1.5849615,-9.634268,-0.18195933
0.2695283,4.6944633,-0.13498695,-0.029228088,0.055593982,-1.5849615,-9.634268,-0.18195933
0.26942742,4.6943035,-0.15309644,-0.031358615,0.037484486,-1.5275006,-9.56723,-0.2873042
0.26932648,4.6941433,-0.15309644,-0.031358615,0.037484486,-1.5275006,-9.56723,-0.2873042
0.26920477,4.693964,-0.16587962,-0.033489145,0.015113931,-1.508347,-9.44752,-0.33997664
0.2690823,4.6937847,-0.16587962,-0.033489145,0.015113931,-1.508347,-9.44752,-0.33997664
0.26893708,4.693583,-0.17653225,-0.03242388,-0.012582945,-1.4508862,-9.375694,-0.44532153
0.26879135,4.6933813,-0.17653225,-0.03242388,-0.012582945,-1.4508862,-9.375694,-0.44532153
0.26861253,4.693175,-0.18505438,-0.030293351,-0.04454088,-1.4173675,-9.313444,-0.4165911
0.26843324,4.6929684,-0.18505438,-0.030293351,-0.04454088,-1.4173675,-9.313444,-0.4165911
0.26822242,4.6927466,-0.19038069,-0.02496703,-0.07969461,-1.3790601,-9.232041,-0.49799395
0.26801148,4.692525,-0.19038069,-0.02496703,-0.07969461,-1.3790601,-9.232041,-0.49799395
0.26776332,4.692297,-0.19251123,-0.018575443,-0.11804412,-1.3982137,-9.241618,-0.51714754
0.26751536,4.6920695,-0.19251123,-0.018575443,-0.11804412,-1.3982137,-9.241618,-0.51714754
0.26722953,4.6918387,-0.19144596,-0.010053327,-0.15639365,-1.412579,-9.255983,-0.5363012
0.26694214,4.6916065,-0.19144596,-0.010053327,-0.15639365,-1.412579,-9.255983,-0.5363012
0.2666238,4.691372,-0.18931544,-0.0047270046,-0.19474317,-1.3311762,-9.251195,-0.63206923
0.2663035,4.6911354,-0.18931544,-0.0047270046,-0.19474317,-1.3311762,-9.251195,-0.63206923
0.2659494,4.6909046,-0.18292385,0.0016645822,-0.22883163,-1.3503298,-9.217676,-0.62249243
0.2655942,4.690673,-0.18292385,0.0016645822,-0.22883163,-1.3503298,-9.217676,-0.62249243
0.26520464,4.6904497,-0.17759752,0.0069909045,-0.26185483,-1.3215994,-9.289502,-0.60333884
0.26520464,4.6904497,-0.17759752,0.0069909045,-0.26185483,-1.3215994,-9.289502,-0.60333884
0.26520464,4.6904497,-0.17759752,0.0069909045,-0.26185483,-1.3215994,-9.289502,-0.60333884
0.26520464,4.6904497,-0.17759752,0.0069909045,-0.26185483,-1.3215994,-9.289502,-0.60333884
0.26520464,4.6904497,-0.16161856,0.016578285,-0.310857,-1.2785037,-9.23683,-0.7230489
0.26301637,4.689341,-0.16161856,0.016578285,-0.310857,-1.2785037,-9.23683,-0.7230489
0.26301637,4.689341,-0.16161856,0.016578285,-0.310857,-1.2785037,-9.23683,-0.7230489
0.2623669,4.689051,-0.15203118,0.021904606,-0.3289665,-1.2689269,-9.227253,-0.641646
0.26164678,4.6887403,-0.14137854,0.02723093,-0.34388018,-1.2641385,-9.184157,-0.6368576
0.26116943,4.6885433,-0.14137854,0.02723093,-0.34388018,-1.2641385,-9.184157,-0.6368576
0.26071337,4.688364,-0.13179116,0.030426722,-0.3502718,-1.283292,-9.131485,-0.6512229
0.26023927,4.688177,-0.13179116,0.030426722,-0.3502718,-1.283292,-9.131485,-0.6512229
0.25976256,4.6880007,-0.122203775,0.035753045,-0.3492065,-1.2401965,-9.093178,-0.62728083
0.25928676,4.687825,-0.122203775,0.035753045,-0.3492065,-1.2401965,-9.093178,-0.62728083
0.25881162,4.6876664,-0.11048587,0.04214463,-0.34281492,-1.2497733,-9.069236,-0.545878
0.2583365,4.6875076,-0.11048587,0.04214463,-0.34281492,-1.2497733,-9.069236,-0.545878
0.25786906,4.687365,-0.09876795,0.049601484,-0.331097,-1.283292,-9.088389,-0.48362875
0.25740317,4.6872225,-0.09876795,0.049601484,-0.331097,-1.283292,-9.088389,-0.48362875
0.25695124,4.6870966,-0.08598478,0.053862542,-0.31511804,-1.2354081,-9.107543,-0.45489833
0.2564989,4.68697,-0.08598478,0.053862542,-0.31511804,-1.2354081,-9.107543,-0.45489833
0.25606492,4.686857,-0.07320161,0.0581236,-0.29487804,-1.283292,-9.083601,-0.4309563
0.2556335,4.6867447,-0.07320161,0.0581236,-0.29487804,-1.283292,-9.083601,-0.4309563
0.2552232,4.686642,-0.0614837,0.060254127,-0.27250746,-1.2737153,-9.126697,-0.4405331
0.25481254,4.6865396,-0.0614837,0.060254127,-0.27250746,-1.2737153,-9.126697,-0.4405331
0.25442523,4.686465,-0.04763526,0.060254127,-0.24694112,-1.2210429,-9.112331,-0.33997664
0.25403515,4.686389,-0.04763526,0.060254127,-0.24694112,-1.2210429,-9.112331,-0.33997664
0.25367466,4.686329,-0.032721557,0.0581236,-0.22137478,-1.2306197,-9.11712,-0.34955344
0.25331345,4.686268,-0.032721557,0.0581236,-0.22137478,-1.2306197,-9.11712,-0.34955344
0.25297624,4.6862307,-0.018873122,0.05173201,-0.19580843,-1.2210429,-9.11712,-0.2873042
0.25263956,4.6861935,-0.018873122,0.05173201,-0.19580843,-1.2210429,-9.11712,-0.2873042
0.2523304,4.686176,-0.0050246827,0.046405688,-0.16811156,-1.2018893,-9.126697,-0.25378537
0.25202045,4.6861577,-0.0050246827,0.046405688,-0.16811156,-1.2018893,-9.126697,-0.25378537
0.25174254,4.686169,0.008823755,0.038948838,-0.13934942,-1.2306197,-9.088389,-0.15322891
0.25146395,4.68618,0.008823755,0.038948838,-0.13934942,-1.2306197,-9.088389,-0.15322891
0.25121152,4.686203,0.020541664,0.030426722,-0.11271781,-1.2401965,-9.088389,-0.16759412
0.25095952,4.6862264,0.020541664,0.030426722,-0.11271781,-1.2401965,-9.088389,-0.16759412
0.25073454,4.6862664,0.032259572,0.019774077,-0.08608619,-1.2593501,-9.093178,-0.14844051
0.25050956,4.6863065,0.032259572,0.019774077,-0.08608619,-1.2593501,-9.093178,-0.14844051
0.2503123,4.6863728,0.04291222,0.010186698,-0.06371564,-1.2162545,-9.107543,-0.033518825
0.25011435,4.68644,0.04291222,0.010186698,-0.06371564,-1.2162545,-9.107543,-0.033518825
0.24994293,4.686524,0.0524996,-0.00046594674,-0.04027982,-1.2785037,-9.11712,0
0.24977112,4.686609,0.0524996,-0.00046594674,-0.04027982,-1.2785037,-9.11712,0
0.24961881,4.686701,0.05995645,-0.011118591,-0.020039797,-1.3455414,-9.112331,-0.033518825
0.24946633,4.6867924,0.05995645,-0.011118591,-0.020039797,-1.3455414,-9.112331,-0.033518825
0.24933441,4.686894,0.06634804,-0.0228365,0.00020022877,-1.388637,-9.165004,-0.038307227
0.24920003,4.686997,0.06634804,-0.0228365,0.00020022877,-1.388637,-9.165004,-0.038307227
0.24908827,4.6871157,0.07167436,-0.033489145,0.015113931,-1.4077905,-9.198523,0.02873042
0.24897762,4.687232,0.07167436,-0.033489145,0.015113931,-1.4077905,-9.198523,0.02873042
0.24887513,4.687346,0.073804885,-0.04201126,0.02896237,-1.4413095,-9.169792,-0.04309563
0.24877267,4.68746,0.073804885,-0.04201126,0.02896237,-1.4413095,-9.169792,-0.04309563
0.24867861,4.6875715,0.074870154,-0.048402846,0.039615013,-1.5035586,-9.212888,-0.08619126
0.24858478,4.6876826,0.074870154,-0.048402846,0.039615013,-1.5035586,-9.212888,-0.08619126
0.2485003,4.6877875,0.074870154,-0.0558597,0.05133292,-1.4748282,-9.260772,-0.12928689
0.24841525,4.6878934,0.074870154,-0.0558597,0.05133292,-1.4748282,-9.260772,-0.12928689
0.24833769,4.6879926,0.074870154,-0.060120758,0.059855036,-1.5131354,-9.270349,-0.17238252
0.24826021,4.6880913,0.074870154,-0.060120758,0.059855036,-1.5131354,-9.270349,-0.17238252
0.24818718,4.688175,0.07273962,-0.062251285,0.06624663,-1.5658079,-9.294291,-0.25378537
0.24811539,4.6882577,0.07273962,-0.062251285,0.06624663,-1.5658079,-9.294291,-0.25378537
0.24804929,4.6883326,0.07167436,-0.062251285,0.071572945,-1.5705963,-9.308656,-0.2873042
0.247983,4.6884074,0.07167436,-0.062251285,0.071572945,-1.5705963,-9.308656,-0.2873042
0.2479191,4.688478,0.06954383,-0.06118602,0.073703475,-1.5849615,-9.380483,-0.30166942
0.24785523,4.688548,0.06954383,-0.06118602,0.073703475,-1.5849615,-9.380483,-0.30166942
0.24778764,4.688617,0.06634804,-0.0558597,0.07050768,-1.6376339,-9.390059,-0.2777274
0.24772005,4.6886864,0.06634804,-0.0558597,0.07050768,-1.6376339,-9.390059,-0.2777274
0.24765238,4.6887336,0.06315224,-0.04946811,0.06837715,-1.6711528,-9.41879,-0.36870706
0.24758914,4.688778,0.06315224,-0.04946811,0.06837715,-1.6711528,-9.41879,-0.36870706
0.24751526,4.688829,0.05995645,-0.04201126,0.06305083,-1.6567876,-9.476251,-0.320823
0.24744076,4.68888,0.05995645,-0.04201126,0.06305083,-1.6567876,-9.476251,-0.320823
0.24736178,4.688923,0.058891185,-0.033489145,0.056659244,-1.661576,-9.452309,-0.33997664
0.24728265,4.6889663,0.058891185,-0.033489145,0.056659244,-1.661576,-9.452309,-0.33997664
0.24719498,4.688999,0.055695392,-0.023901764,0.047071867,-1.6807296,-9.485827,-0.36391866
0.24710704,4.6890326,0.055695392,-0.023901764,0.047071867,-1.6807296,-9.485827,-0.36391866
0.24700241,4.689069,0.051434334,-0.012183856,0.033223428,-1.7046716,-9.490616,-0.30645782
0.24689846,4.689104,0.051434334,-0.012183856,0.033223428,-1.7046716,-9.490616,-0.30645782
0.24677885,4.6891255,0.045042746,-0.0025964756,0.01724446,-1.6711528,-9.519346,-0.34476504
0.24665882,4.689147,0.045042746,-0.0025964756,0.01724446,-1.6711528,-9.519346,-0.34476504
0.24651958,4.6891646,0.03865116,0.0069909045,-0.0008650357,-1.6759412,-9.524135,-0.31603462
0.24637972,4.6891823,0.03865116,0.0069909045,-0.0008650357,-1.6759412,-9.524135,-0.31603462
0.24622297,4.6891837,0.032259572,0.016578285,-0.02110506,-1.6663644,-9.557653,-0.35913026
0.24606583,4.6891847,0.032259572,0.016578285,-0.02110506,-1.6663644,-9.557653,-0.35913026
0.24588548,4.689183,0.025867987,0.022969872,-0.04241035,-1.685518,-9.600749,-0.33039984
0.24570529,4.6891823,0.025867987,0.022969872,-0.04241035,-1.685518,-9.600749,-0.33039984
0.24549976,4.689188,0.018411135,0.029361458,-0.064780906,-1.6711528,-9.586384,-0.24899697
0.24529478,4.689194,0.018411135,0.029361458,-0.064780906,-1.6711528,-9.586384,-0.24899697
0.24506581,4.6892157,0.0141500775,0.035753045,-0.09034725,-1.6998832,-9.643845,-0.14844051
0.24483699,4.6892366,0.0141500775,0.035753045,-0.09034725,-1.6998832,-9.643845,-0.14844051
0.24459003,4.6892676,0.010954284,0.04107937,-0.11271781,-1.70946,-9.667787,-0.076614454
0.24434163,4.6892986,0.010954284,0.04107937,-0.11271781,-1.70946,-9.667787,-0.076614454
0.24407962,4.689331,0.0066932263,0.046405688,-0.13295783,-1.7238252,-9.682152,-0.038307227
0.24381658,4.6893644,0.0066932263,0.046405688,-0.13295783,-1.7238252,-9.682152,-0.038307227
0.2435379,4.6894026,0.005627962,0.050666746,-0.15319785,-1.7190368,-9.715671,0.009576807
0.24325928,4.6894407,0.005627962,0.050666746,-0.15319785,-1.7190368,-9.715671,0.009576807
0.24296696,4.689483,0.005627962,0.053862542,-0.16917682,-1.7621324,-9.725247,0.023942016
0.24267605,4.689525,0.005627962,0.053862542,-0.16917682,-1.7621324,-9.725247,0.023942016
0.24237682,4.6895757,0.0066932263,0.05918886,-0.18409052,-1.8052281,-9.706094,0.062249243
0.24207775,4.689626,0.0066932263,0.05918886,-0.18409052,-1.8052281,-9.706094,0.062249243
0.24176632,4.6896744,0.0077584907,0.062384658,-0.1936779,-1.8148049,-9.720459,0.038307227
0.24145404,4.689723,0.0077584907,0.062384658,-0.1936779,-1.8148049,-9.720459,0.038307227
0.24114351,4.689779,0.0077584907,0.06344992,-0.20113476,-1.7908629,-9.715671,0.10534488
0.24114351,4.689779,0.0077584907,0.06344992,-0.20113476,-1.7908629,-9.715671,0.10534488
0.24050823,4.689892,0.0066932263,0.062384658,-0.20646107,-1.7621324,-9.691729,0.110133275
0.24018942,4.689946,0.0066932263,0.062384658,-0.20646107,-1.7621324,-9.691729,0.110133275
0.23986858,4.6899867,0.0045626974,0.061319392,-0.21072213,-1.6807296,-9.691729,0.062249243
0.23986858,4.6899867,0.0045626974,0.061319392,-0.21072213,-1.6807296,-9.691729,0.062249243
0.23919952,4.690072,0.0024321685,0.060254127,-0.21391793,-1.6041151,-9.677363,0.110133275
0.2388747,4.690113,0.0024321685,0.060254127,-0.21391793,-1.6041151,-9.677363,0.110133275
0.23853362,4.690144,-0.0007636249,0.0581236,-0.21711372,-1.5658079,-9.691729,0.05267244
0.23818947,4.690175,-0.0007636249,0.0581236,-0.21711372,-1.5658079,-9.691729,0.05267244
0.23784772,4.690206,-0.0050246827,0.0581236,-0.22137478,-1.5610195,-9.634268,0.08619126
0.23750535,4.6902375,-0.0050246827,0.0581236,-0.22137478,-1.5610195,-9.634268,0.08619126
0.23715138,4.6902466,-0.013546798,0.05918886,-0.2235053,-1.5514427,-9.619903,-0.009576807
0.23679703,4.6902566,-0.013546798,0.05918886,-0.2235053,-1.5514427,-9.619903,-0.009576807
0.23645253,4.6902704,-0.02313418,0.05918886,-0.2235053,-1.5131354,-9.629479,0.110133275
0.23610847,4.6902847,-0.02313418,0.05918886,-0.2235053,-1.5131354,-9.629479,0.110133275
0.23576164,4.690288,-0.031656295,0.061319392,-0.2235053,-1.4556746,-9.591172,0.110133275
0.23541704,4.6902914,-0.031656295,0.061319392,-0.2235053,-1.4556746,-9.591172,0.110133275
0.2350714,4.690282,-0.043374203,0.06664571,-0.2235053,-1.4700398,-9.581595,0.10055647
0.23472135,4.690272,-0.043374203,0.06664571,-0.2235053,-1.4700398,-9.581595,0.10055647
0.23438019,4.690247,-0.056157377,0.071972035,-0.22137478,-1.4508862,-9.610326,0.095768064
0.23403567,4.6902223,-0.056157377,0.071972035,-0.22137478,-1.4508862,-9.610326,0.095768064
0.2336932,4.690185,-0.06574476,0.07729836,-0.21817899,-1.4317327,-9.672575,0.095768064
0.23335001,4.6901484,-0.06574476,0.07729836,-0.21817899,-1.4317327,-9.672575,0.095768064
0.23300241,4.690091,-0.077462666,0.07942889,-0.21711372,-1.4030021,-9.725247,0.038307227
0.23265623,4.690034,-0.077462666,0.07942889,-0.21711372,-1.4030021,-9.725247,0.038307227
0.23231523,4.689973,-0.08811531,0.08368994,-0.2149832,-1.4891934,-9.77792,0.07182605
0.23197614,4.689912,-0.08811531,0.08368994,-0.2149832,-1.4891934,-9.77792,0.07182605
0.23163947,4.6898403,-0.09770269,0.08475521,-0.21072213,-1.5035586,-9.773131,0.05746084
0.23130603,4.6897697,-0.09770269,0.08475521,-0.21072213,-1.5035586,-9.773131,0.05746084
0.23097938,4.689697,-0.106224805,0.08368994,-0.20752634,-1.5849615,-9.835381,0.076614454
0.23064747,4.6896224,-0.106224805,0.08368994,-0.20752634,-1.5849615,-9.835381,0.076614454
0.23032522,4.6895423,-0.11261639,0.08155942,-0.20006949,-1.5753847,-9.835381,0.07182605
0.23000516,4.689463,-0.11261639,0.08155942,-0.20006949,-1.5753847,-9.835381,0.07182605
0.22968861,4.6893754,-0.11900798,0.07836362,-0.1936779,-1.5179238,-9.868899,0.076614454
0.22937223,4.689288,-0.11900798,0.07836362,-0.1936779,-1.5179238,-9.868899,0.076614454
0.22907071,4.6892033,-0.124334306,0.07516783,-0.18515578,-1.5562311,-9.902418,0.11492168
0.22876891,4.6891174,-0.124334306,0.07516783,-0.18515578,-1.5562311,-9.902418,0.11492168
0.22847378,4.6890273,-0.12859535,0.069841504,-0.17663367,-1.5035586,-9.849746,0.11492168
0.2281756,4.688936,-0.12859535,0.069841504,-0.17663367,-1.5035586,-9.849746,0.11492168
0.22788621,4.688843,-0.13072589,0.06344992,-0.17130736,-1.5179238,-9.864111,0.076614454
0.22759432,4.6887493,-0.13072589,0.06344992,-0.17130736,-1.5179238,-9.864111,0.076614454
0.22730808,4.688656,-0.13285641,0.057058334,-0.1670463,-1.4508862,-9.792285,0.10534488
0.2270212,4.6885624,-0.13285641,0.057058334,-0.1670463,-1.4508862,-9.792285,0.10534488
0.22671598,4.688455,-0.1360522,0.050666746,-0.1638505,-1.4030021,-9.773131,0.07182605
0.22644514,4.6883607,-0.1360522,0.050666746,-0.1638505,-1.4030021,-9.773131,0.07182605
0.22615565,4.688253,-0.13711748,0.043209895,-0.16065471,-1.340753,-9.773131,0.023942016
0.22586742,4.6881456,-0.13711748,0.043209895,-0.16065471,-1.340753,-9.773131,0.023942016
0.22558047,4.688035,-0.13818274,0.03681831,-0.15639365,-1.3455414,-9.734824,-0.009576807
0.22529021,4.687923,-0.13818274,0.03681831,-0.15639365,-1.3455414,-9.734824,-0.009576807
0.22500072,4.687801,-0.13711748,0.031491987,-0.15426312,-1.3599066,-9.725247,-0.110133275
0.22471096,4.6876793,-0.13711748,0.031491987,-0.15426312,-1.3599066,-9.725247,-0.110133275
0.2244211,4.687564,-0.13498695,0.02723093,-0.15426312,-1.3359646,-9.600749,-0.08619126
0.22411865,4.6874437,-0.13498695,0.02723093,-0.15426312,-1.3359646,-9.600749,-0.08619126
0.22382073,4.687318,-0.13179116,0.022969872,-0.15639365,-1.3024458,-9.610326,-0.17238252
0.22353174,4.687196,-0.13179116,0.022969872,-0.15639365,-1.3024458,-9.610326,-0.17238252
0.22322784,4.6870704,-0.12859535,0.018708814,-0.15639365,-1.3024458,-9.595961,-0.18195933
0.22293639,4.68695,-0.12859535,0.018708814,-0.15639365,-1.3024458,-9.595961,-0.18195933
0.22264147,4.6868196,-0.12539956,0.016578285,-0.15639365,-1.2545617,-9.581595,-0.2633622
0.22235188,4.6866913,-0.12539956,0.016578285,-0.15639365,-1.2545617,-9.581595,-0.2633622
0.22235188,4.6866913,-0.12539956,0.016578285,-0.15639365,-1.2545617,-9.581595,-0.2633622
0.22176284,4.686439,-0.121138506,0.013382491,-0.15639365,-1.1683705,-9.591172,-0.272939
0.2214682,4.68632,-0.11687745,0.011251962,-0.15426312,-1.1492168,-9.595961,-0.25378537
0.22117409,4.686201,-0.11687745,0.011251962,-0.15426312,-1.1492168,-9.595961,-0.25378537
0.22088079,4.6860895,-0.11261639,0.010186698,-0.15426312,-1.1300632,-9.605537,-0.23463176
0.22058603,4.685978,-0.11261639,0.010186698,-0.15426312,-1.1300632,-9.605537,-0.23463176
0.22029294,4.6858635,-0.1094206,0.011251962,-0.15319785,-1.1492168,-9.653421,-0.2825158
0.21999963,4.685748,-0.1094206,0.011251962,-0.15319785,-1.1492168,-9.653421,-0.2825158
0.21970871,4.685638,-0.108355336,0.011251962,-0.15106732,-1.2066777,-9.634268,-0.25857377
0.2194178,4.6855283,-0.108355336,0.011251962,-0.15106732,-1.2066777,-9.634268,-0.25857377
0.2191331,4.685417,-0.10515954,0.012317227,-0.14361048,-1.2210429,-9.619903,-0.2825158
0.2188496,4.6853065,-0.10515954,0.012317227,-0.14361048,-1.2210429,-9.619903,-0.2825158
0.21857278,4.685193,-0.10515954,0.012317227,-0.1372189,-1.1587936,-9.639056,-0.30645782
0.21829548,4.685079,-0.10515954,0.012317227,-0.1372189,-1.1587936,-9.639056,-0.30645782
0.21802597,4.6849575,-0.106224805,0.012317227,-0.12976204,-1.1348516,-9.653421,-0.35913026
0.21775678,4.6848354,-0.106224805,0.012317227,-0.12976204,-1.1348516,-9.653421,-0.35913026
0.21749426,4.6847115,-0.108355336,0.011251962,-0.123370446,-1.1013328,-9.634268,-0.36391866
0.21723148,4.6845875,-0.108355336,0.011251962,-0.123370446,-1.1013328,-9.634268,-0.36391866
0.21697415,4.6844683,-0.11261639,0.008056169,-0.11697886,-1.1109096,-9.653421,-0.30645782
0.21671481,4.684348,-0.11261639,0.008056169,-0.11697886,-1.1109096,-9.653421,-0.30645782
0.21646678,4.684224,-0.11794271,0.0048603755,-0.10952201,-1.1109096,-9.629479,-0.31603462
0.21621755,4.6840997,-0.11794271,0.0048603755,-0.10952201,-1.1109096,-9.629479,-0.31603462
0.21597797,4.6839724,-0.12326904,0.0016645822,-0.09993463,-1.1300632,-9.615114,-0.30166942
0.21573806,4.683845,-0.12326904,0.0016645822,-0.09993463,-1.1300632,-9.615114,-0.30166942
0.21550788,4.683711,-0.12966062,-0.00046594674,-0.09034725,-1.0726024,-9.576807,-0.30645782
0.21527787,4.6835775,-0.12966062,-0.00046594674,-0.09034725,-1.0726024,-9.576807,-0.30645782
0.21505429,4.6834364,-0.1360522,-0.0047270046,-0.08395566,-1.067814,-9.572019,-0.32561144
0.21483067,4.683295,-0.1360522,-0.0047270046,-0.08395566,-1.067814,-9.572019,-0.32561144
0.21461584,4.683145,-0.14350906,-0.008988062,-0.075433545,-1.0534488,-9.56723,-0.33997664
0.21439944,4.6829944,-0.14350906,-0.008988062,-0.075433545,-1.0534488,-9.56723,-0.33997664
0.2141917,4.682845,-0.15203118,-0.012183856,-0.06904196,-1.0630256,-9.605537,-0.2873042
0.21398339,4.682696,-0.15203118,-0.012183856,-0.06904196,-1.0630256,-9.605537,-0.2873042
0.21378168,4.682544,-0.15842277,-0.01324912,-0.062650375,-1.0773908,-9.639056,-0.2633622
0.21358973,4.6824,-0.15842277,-0.01324912,-0.062650375,-1.0773908,-9.639056,-0.2633622
0.21338774,4.6822486,-0.15842277,-0.01324912,-0.062650375,-1.0773908,-9.639056,-0.2633622
0.21318537,4.6820865,-0.16374908,-0.01324912,-0.05412826,-1.067814,-9.629479,-0.24899697
0.21299867,4.681933,-0.17014067,-0.012183856,-0.048801936,-1.067814,-9.725247,-0.19632454
0.2128128,4.68178,-0.17014067,-0.012183856,-0.048801936,-1.067814,-9.725247,-0.19632454
0.21263178,4.6816225,-0.17440173,-0.010053327,-0.04454088,-1.1683705,-9.734824,-0.21068975
0.212447,4.681462,-0.17440173,-0.010053327,-0.04454088,-1.1683705,-9.734824,-0.21068975
0.21226835,4.6812973,-0.17653225,-0.008988062,-0.04027982,-1.292869,-9.696517,-0.24899697
0.21208972,4.681133,-0.17653225,-0.008988062,-0.04027982,-1.292869,-9.696517,-0.24899697
0.21191339,4.680953,-0.17972806,-0.011118591,-0.037084028,-1.3263878,-9.634268,-0.31603462
0.21171026,4.6807466,-0.17972806,-0.011118591,-0.037084028,-1.3263878,-9.634268,-0.31603462
0.21155551,4.6805754,-0.18292385,-0.016444914,-0.03282297,-1.2689269,-9.643845,-0.36870706
0.21138927,4.680391,-0.18292385,-0.016444914,-0.03282297,-1.2689269,-9.643845,-0.36870706
0.21121982,4.6802015,-0.1871849,-0.021771235,-0.029627176,-1.1971009,-9.639056,-0.34476504
0.2110546,4.6800175,-0.1871849,-0.021771235,-0.029627176,-1.1971009,-9.639056,-0.34476504
0.21088941,4.6798115,-0.19038069,-0.026032293,-0.028561912,-1.2018893,-9.586384,-0.4357447
0.21072383,4.679606,-0.19038069,-0.026032293,-0.028561912,-1.2018893,-9.586384,-0.4357447
0.2105558,4.679403,-0.19357648,-0.029228088,-0.03069244,-1.13964,-9.562442,-0.4165911
0.2103875,4.6791997,-0.19357648,-0.029228088,-0.03069244,-1.13964,-9.562442,-0.4165911
0.21021655,4.678998,-0.19570702,-0.03242388,-0.03282297,-1.1013328,-9.524135,-0.40222588
0.21004592,4.678797,-0.19570702,-0.03242388,-0.03282297,-1.1013328,-9.524135,-0.40222588
0.20986979,4.6785913,-0.19890282,-0.03455441,-0.03814929,-1.0965444,-9.5385,-0.41180268
0.20969371,4.6783857,-0.19890282,-0.03455441,-0.03814929,-1.0965444,-9.5385,-0.41180268
0.20951258,4.678165,-0.20209861,-0.03455441,-0.045606144,-1.0342951,-9.490616,-0.50278234
0.20933205,4.677945,-0.20209861,-0.03455441,-0.045606144,-1.0342951,-9.490616,-0.50278234
0.20914567,4.677721,-0.20422913,-0.03455441,-0.05199773,-1.0869676,-9.495404,-0.51235914
0.20895885,4.677496,-0.20422913,-0.03455441,-0.05199773,-1.0869676,-9.495404,-0.51235914
0.20876282,4.6772766,-0.20635967,-0.03455441,-0.05732405,-1.0821792,-9.524135,-0.45489833
0.20856982,4.677061,-0.20635967,-0.03455441,-0.05732405,-1.0821792,-9.524135,-0.45489833
0.20836918,4.6768403,-0.21062072,-0.033489145,-0.06371564,-1.1300632,-9.548077,-0.45010993
0.2081683,4.676619,-0.21062072,-0.033489145,-0.06371564,-1.1300632,-9.548077,-0.45010993
0.20796353,4.6763988,-0.21275125,-0.030293351,-0.06691143,-1.1444284,-9.600749,-0.4309563
0.20775908,4.67618,-0.21275125,-0.030293351,-0.06691143,-1.1444284,-9.600749,-0.4309563
0.20755471,4.6759396,-0.21701232,-0.026032293,-0.07010722,-1.1252748,-9.648633,-0.5363012
0.20735028,4.6757,-0.21701232,-0.026032293,-0.07010722,-1.1252748,-9.648633,-0.5363012
0.20714796,4.6754465,-0.22127336,-0.019640706,-0.07117249,-1.0821792,-9.691729,-0.61291564
0.20694558,4.6751933,-0.22127336,-0.019640706,-0.07117249,-1.0821792,-9.691729,-0.61291564
0.20673633,4.6749434,-0.22553442,-0.012183856,-0.07117249,-1.0390835,-9.773131,-0.5410896
0.20653015,4.674698,-0.22553442,-0.012183856,-0.07117249,-1.0390835,-9.773131,-0.5410896
0.20631732,4.6744685,-0.22766495,-0.00366174,-0.07330302,-1.283292,-9.787497,-0.3878607
0.20610407,4.6742387,-0.22766495,-0.00366174,-0.07330302,-1.283292,-9.787497,-0.3878607
0.20589897,4.673974,-0.22873022,0.003795111,-0.07436828,-1.5466543,-9.787497,-0.50757074
0.20569307,4.673709,-0.22873022,0.003795111,-0.07436828,-1.5466543,-9.787497,-0.50757074
0.20548627,4.6734486,-0.22766495,0.00592564,-0.07330302,-1.4652514,-9.720459,-0.50757074
0.20527881,4.673188,-0.22766495,0.00592564,-0.07330302,-1.4652514,-9.720459,-0.50757074
0.20508029,4.6729193,-0.2265997,0.00592564,-0.07010722,-1.316811,-9.667787,-0.59855044
0.20488125,4.6726503,-0.2265997,0.00592564,-0.07010722,-1.316811,-9.667787,-0.59855044
0.20468597,4.6723757,-0.22553442,0.0069909045,-0.06691143,-1.1971009,-9.576807,-0.6560113
0.2044932,4.672106,-0.22553442,0.0069909045,-0.06691143,-1.1971009,-9.576807,-0.6560113
0.20429514,4.671841,-0.22446916,0.010186698,-0.06691143,-1.1827357,-9.552865,-0.61291564
0.20409743,4.6715775,-0.22446916,0.010186698,-0.06691143,-1.1827357,-9.552865,-0.61291564
0.20389503,4.6713142,-0.2234039,0.014447756,-0.07010722,-1.1300632,-9.504981,-0.61291564
0.20369247,4.671052,-0.2234039,0.014447756,-0.07010722,-1.1300632,-9.504981,-0.61291564
0.20349124,4.670779,-0.22233863,0.018708814,-0.07436828,-1.1013328,-9.490616,-0.7038953
0.2032907,4.670507,-0.22233863,0.018708814,-0.07436828,-1.1013328,-9.490616,-0.7038953
0.20307855,4.6702414,-0.22127336,0.026165664,-0.08075987,-1.0295067,-9.495404,-0.6703765
0.20286621,4.669976,-0.22127336,0.026165664,-0.08075987,-1.0295067,-9.495404,-0.6703765
0.20265327,4.6697025,-0.21701232,0.032557253,-0.08502093,-1.043872,-9.476251,-0.7422025
0.20244084,4.66943,-0.21701232,0.032557253,-0.08502093,-1.043872,-9.476251,-0.7422025
0.20222795,4.6691604,-0.21168599,0.040014103,-0.09034725,-1.043872,-9.504981,-0.78050977
0.20201339,4.66889,-0.21168599,0.040014103,-0.09034725,-1.043872,-9.504981,-0.78050977
0.20179065,4.6686263,-0.2084902,0.047470953,-0.095673576,-1.0342951,-9.543288,-0.7469909
0.2015674,4.6683626,-0.2084902,0.047470953,-0.095673576,-1.0342951,-9.543288,-0.7469909
0.20134148,4.6680946,-0.20422913,0.054927804,-0.10206516,-1.0821792,-9.5385,-0.79008657
0.20111652,4.6678276,-0.20422913,0.054927804,-0.10206516,-1.0821792,-9.5385,-0.79008657
0.20088767,4.667562,-0.19890282,0.061319392,-0.106326215,-1.0773908,-9.605537,-0.81881696
0.20065796,4.667296,-0.19890282,0.061319392,-0.106326215,-1.0773908,-9.605537,-0.81881696
0.20042345,4.6670427,-0.19251123,0.06771098,-0.107391484,-1.0630256,-9.610326,-0.770933
0.20018739,4.6667876,-0.19251123,0.06771098,-0.107391484,-1.0630256,-9.610326,-0.770933
0.19995359,4.6665373,-0.18825017,0.074102566,-0.106326215,-1.1109096,-9.701305,-0.7661445
0.19971941,4.666287,-0.18825017,0.074102566,-0.106326215,-1.1109096,-9.701305,-0.7661445
0.19949357,4.666034,-0.18292385,0.07942889,-0.10206516,-1.1540052,-9.734824,-0.80924016
0.19926828,4.6657825,-0.18292385,0.07942889,-0.10206516,-1.1540052,-9.734824,-0.80924016
0.19904652,4.665536,-0.17759752,0.08368994,-0.09673884,-1.1731589,-9.773131,-0.79487497
0.19882439,4.665289,-0.17759752,0.08368994,-0.09673884,-1.1731589,-9.773131,-0.79487497
0.19860224,4.6650558,-0.17440173,0.085820474,-0.09034725,-1.163582,-9.753978,-0.7182605
0.19837925,4.664822,-0.17440173,0.085820474,-0.09034725,-1.163582,-9.753978,-0.7182605
0.19816427,4.6645927,-0.17014067,0.089016266,-0.08182514,-1.2114661,-9.773131,-0.7038953
0.19794914,4.664363,-0.17014067,0.089016266,-0.08182514,-1.2114661,-9.773131,-0.7038953
0.19773881,4.66415,-0.16481435,0.0911468,-0.07223775,-1.1971009,-9.835381,-0.6464345
0.19752802,4.6639366,-0.16481435,0.0911468,-0.07223775,-1.1971009,-9.835381,-0.6464345
0.19732325,4.6637354,-0.16055329,0.09221206,-0.062650375,-1.1875241,-9.916783,-0.60812724
0.19712697,4.6635423,-0.16055329,0.09221206,-0.062650375,-1.1875241,-9.916783,-0.60812724
0.19692285,4.663342,-0.16055329,0.09221206,-0.062650375,-1.1875241,-9.916783,-0.60812724
0.19672707,4.6631393,-0.1573575,0.09327733,-0.05519352,-1.1827357,-9.873688,-0.6368576
0.19653203,4.662937,-0.1573575,0.09327733,-0.05519352,-1.1827357,-9.873688,-0.6368576
0.19634773,4.6627383,-0.15309644,0.09327733,-0.04454088,-1.2210429,-9.849746,-0.6368576
0.19616291,4.6625385,-0.15309644,0.09327733,-0.04454088,-1.2210429,-9.849746,-0.6368576
0.19598697,4.662344,-0.14670485,0.09221206,-0.036018763,-1.2401965,-9.878476,-0.6464345
0.19580957,4.66216,-0.14031327,0.0911468,-0.029627176,-1.2066777,-9.844957,-0.59855044
0.1956376,4.661982,-0.14031327,0.0911468,-0.029627176,-1.2066777,-9.844957,-0.59855044
0.19546662,4.6618056,-0.14031327,0.0911468,-0.029627176,-1.2066777,-9.844957,-0.59855044
0.19530101,4.6616297,-0.13285641,0.087951005,-0.024300855,-1.1540052,-9.787497,-0.6368576
