Pitch,Roll,Gyro_X,Gyro_Y,Gyro_Z,Accel_X,Accel_Y,Accel_Z
0.02849701,4.7291727,-0.0007636249,-0.00366174,-0.006191358,-0.2777274,-9.65821,0.16280572
0.028529039,4.7292676,-0.0018288894,-0.0047270046,-0.006191358,-0.2825158,-9.624691,0.18195933
0.028560588,4.72936,-0.0018288894,-0.0047270046,-0.006191358,-0.2825158,-9.624691,0.18195933
0.028488547,4.729271,-0.0018288894,-0.00366174,-0.0072566224,-0.23942018,-9.639056,0.11492168
0.0284164,4.7291813,-0.0018288894,-0.00366174,-0.0072566224,-0.23942018,-9.639056,0.11492168
0.02840034,4.7290792,-0.0028941538,-0.00366174,-0.008321887,-0.272939,-9.610326,0.15801731
0.02838751,4.7289777,-0.0028941538,-0.00366174,-0.008321887,-0.272939,-9.610326,0.15801731
0.028322563,4.728883,-0.0039594183,-0.0047270046,-0.009387151,-0.23463176,-9.639056,0.095768064
0.028257698,4.7287874,-0.0039594183,-0.0047270046,-0.009387151,-0.23463176,-9.639056,0.095768064
0.028244574,4.7286844,-0.0039594183,-0.0047270046,-0.009387151,-0.2681506,-9.586384,0.08140286
0.028231531,4.7285814,-0.0039594183,-0.0047270046,-0.009387151,-0.2681506,-9.586384,0.08140286
0.028101433,4.728626,-0.0028941538,-0.0047270046,-0.0072566224,-0.22984336,-9.639056,0.17238252
0.027968422,4.7286716,-0.0028941538,-0.0047270046,-0.0072566224,-0.22984336,-9.639056,0.17238252
0.027826812,4.7286553,-0.0007636249,-0.0047270046,-0.006191358,-0.19632454,-9.634268,0.14844051
0.027682446,4.7286386,-0.0007636249,-0.0047270046,-0.006191358,-0.19632454,-9.634268,0.14844051
0.027549425,4.728597,-0.0007636249,-0.0047270046,-0.0051260935,-0.19632454,-9.624691,0.1340753
0.027416429,4.728556,-0.0007636249,-0.0047270046,-0.0051260935,-0.19632454,-9.624691,0.1340753
0.02733797,4.7284713,-0.0007636249,-0.00366174,-0.004060829,-0.21547815,-9.634268,0.10055647
0.027253777,4.72838,-0.0007636249,-0.00366174,-0.004060829,-0.21547815,-9.634268,0.10055647
0.027188784,4.728299,0.0024321685,-0.00366174,-0.0019303001,-0.22984336,-9.662998,0.110133275
0.027122304,4.728216,0.0024321685,-0.00366174,-0.0019303001,-0.22984336,-9.662998,0.110133275
0.026997844,4.7281747,0.0045626974,-0.0025964756,-0.0008650357,-0.22505496,-9.610326,0.1388637
0.02687337,4.728133,0.0045626974,-0.0025964756,-0.0008650357,-0.22505496,-9.610326,0.1388637
0.026830498,4.728046,0.0077584907,-0.0015312112,-0.0008650357,-0.21068975,-9.624691,0.04309563
0.026787778,4.727959,0.0077584907,-0.0015312112,-0.0008650357,-0.21068975,-9.624691,0.04309563
0.02665335,4.7279973,0.008823755,-0.00046594674,-0.0008650357,-0.20111294,-9.643845,0.16280572
0.02651897,4.728036,0.008823755,-0.00046594674,-0.0008650357,-0.20111294,-9.643845,0.16280572
0.02645687,4.727955,0.00988902,-0.0015312112,-0.0019303001,-0.22505496,-9.610326,0.10534488
0.026395725,4.727875,0.00988902,-0.0015312112,-0.0019303001,-0.22505496,-9.610326,0.10534488
0.02637473,4.727788,0.010954284,0.0005993177,0.00020022877,-0.22505496,-9.672575,0.009576807
0.026353795,4.727701,0.010954284,0.0005993177,0.00020022877,-0.22505496,-9.672575,0.009576807
0.026231473,4.7276683,0.012019549,0.0005993177,0.0033960221,-0.22984336,-9.619903,0.1388637
0.026109956,4.7276354,0.012019549,0.0005993177,0.0033960221,-0.22984336,-9.619903,0.1388637
0.0260162,4.7275767,0.012019549,0.0016645822,0.0044612866,-0.22026655,-9.600749,0.12449849
0.025922924,4.727518,0.012019549,0.0016645822,0.0044612866,-0.22026655,-9.600749,0.12449849
0.025850357,4.7274475,0.010954284,0.0027298466,0.0065918155,-0.21547815,-9.653421,0.110133275
0.025777724,4.7273765,0.010954284,0.0027298466,0.0065918155,-0.21547815,-9.653421,0.110133275
0.025660949,4.72734,0.00988902,0.0027298466,0.00765708,-0.18195933,-9.624691,0.11971009
0.025544357,4.7273035,0.00988902,0.0027298466,0.00765708,-0.18195933,-9.624691,0.11971009
0.02547284,4.727233,0.010954284,0.0005993177,0.0065918155,-0.19153613,-9.65821,0.08619126
0.025401076,4.7271614,0.010954284,0.0005993177,0.0065918155,-0.19153613,-9.65821,0.08619126
0.025465814,4.7270823,0.012019549,0.0027298466,0.008722344,-0.2777274,-9.591172,0.08619126
0.025530066,4.727003,0.012019549,0.0027298466,0.008722344,-0.2777274,-9.591172,0.08619126
0.025485259,4.726923,0.010954284,0.0027298466,0.010852873,-0.22984336,-9.615114,0.11492168
0.02544015,4.726843,0.010954284,0.0027298466,0.010852873,-0.22984336,-9.615114,0.11492168
0.02538852,4.7267656,0.010954284,0.003795111,0.011918138,-0.21068975,-9.662998,0.090979666
0.025336554,4.726688,0.010954284,0.003795111,0.011918138,-0.21068975,-9.662998,0.090979666
0.025341952,4.7265997,0.010954284,0.0048603755,0.012983402,-0.23942018,-9.634268,0.076614454
0.025347155,4.7265115,0.010954284,0.0048603755,0.012983402,-0.23942018,-9.634268,0.076614454
0.025353728,4.726621,0.010954284,0.0048603755,0.014048667,-0.24420857,-9.653421,0.1436521
0.025358047,4.726731,0.010954284,0.0048603755,0.014048667,-0.24420857,-9.653421,0.1436521
0.02523234,4.7267447,0.010954284,0.0027298466,0.014048667,-0.20111294,-9.619903,0.1388637
0.025106356,4.726758,0.010954284,0.0027298466,0.014048667,-0.20111294,-9.619903,0.1388637
0.02507892,4.726865,0.012019549,0.0027298466,0.014048667,-0.21547815,-9.667787,0.20111294
0.025051272,4.7269707,0.012019549,0.0027298466,0.014048667,-0.21547815,-9.667787,0.20111294
0.0250381,4.7270784,0.010954284,0.0027298466,0.015113931,-0.23463176,-9.624691,0.16280572
0.025024153,4.727186,0.010954284,0.0027298466,0.015113931,-0.23463176,-9.624691,0.16280572
0.025054425,4.7272954,0.010954284,0.0027298466,0.016179197,-0.24420857,-9.610326,0.16759412
0.025084162,4.7274046,0.010954284,0.0027298466,0.016179197,-0.24420857,-9.610326,0.16759412
0.02497601,4.7273726,0.012019549,0.0016645822,0.01724446,-0.23942018,-9.600749,0.1436521
0.024877226,4.7273293,0.012019549,0.0016645822,0.01724446,-0.23942018,-9.600749,0.1436521
0.024949742,4.72725,0.012019549,0.0005993177,0.018309724,-0.25857377,-9.595961,0.110133275
0.025021924,4.7271705,0.012019549,0.0005993177,0.018309724,-0.25857377,-9.595961,0.110133275
0.025093317,4.727277,0.0141500775,0.0005993177,0.021505518,-0.24899697,-9.600749,0.15801731
0.02516408,4.7273836,0.0141500775,0.0005993177,0.021505518,-0.24899697,-9.600749,0.15801731
0.025137767,4.727492,0.015215342,0.0005993177,0.022570781,-0.22984336,-9.619903,0.16759412
0.025110334,4.7275996,0.015215342,0.0005993177,0.022570781,-0.22984336,-9.619903,0.16759412
0.025132274,4.7277136,0.015215342,0.0005993177,0.022570781,-0.23942018,-9.543288,0.19153613
0.0251537,4.727828,0.015215342,0.0005993177,0.022570781,-0.23942018,-9.543288,0.19153613
0.025121745,4.727751,0.0141500775,0.0016645822,0.023636047,-0.21547815,-9.610326,0.10534488
0.025089508,4.727674,0.0141500775,0.0016645822,0.023636047,-0.21547815,-9.610326,0.10534488
0.025247145,4.7276607,0.015215342,0.0005993177,0.023636047,-0.2777274,-9.600749,0.1388637
0.025404338,4.7276464,0.015215342,0.0005993177,0.023636047,-0.2777274,-9.600749,0.1388637
0.025494775,4.7275734,0.015215342,0.0027298466,0.025766576,-0.25378537,-9.619903,0.1340753
0.025582887,4.7275,0.015215342,0.0027298466,0.025766576,-0.25378537,-9.619903,0.1340753
0.025715718,4.7274513,0.0141500775,0.003795111,0.024701312,-0.2633622,-9.576807,0.1340753
0.025847346,4.7274013,0.0141500775,0.003795111,0.024701312,-0.2633622,-9.576807,0.1340753
0.025858326,4.7273164,0.0141500775,0.003795111,0.025766576,-0.23463176,-9.610326,0.05267244
0.02586901,4.727232,0.0141500775,0.003795111,0.025766576,-0.23463176,-9.610326,0.05267244
0.025920916,4.727148,0.0141500775,0.0048603755,0.027897105,-0.2633622,-9.639056,0.08619126
0.025972314,4.727064,0.0141500775,0.0048603755,0.027897105,-0.2633622,-9.639056,0.08619126
0.026034549,4.7269807,0.013084813,0.0048603755,0.027897105,-0.29688102,-9.624691,0.009576807
0.026096517,4.7268972,0.013084813,0.0048603755,0.027897105,-0.29688102,-9.624691,0.009576807
0.026189111,4.726822,0.012019549,0.00592564,0.02683184,-0.2681506,-9.581595,0.11492168
0.026280416,4.7267456,0.012019549,0.00592564,0.02683184,-0.2681506,-9.581595,0.11492168
0.026283035,4.7266574,0.00988902,0.00592564,0.02683184,-0.23942018,-9.595961,0.08619126
0.026285212,4.72657,0.00988902,0.00592564,0.02683184,-0.23942018,-9.595961,0.08619126
0.026378106,4.7264905,0.008823755,0.0048603755,0.027897105,-0.2681506,-9.600749,0.11492168
0.026469994,4.726411,0.008823755,0.0048603755,0.027897105,-0.2681506,-9.600749,0.11492168
0.026505353,4.7263184,0.0066932263,0.0048603755,0.02896237,-0.25857377,-9.615114,0.07182605
0.026540145,4.7262263,0.0066932263,0.0048603755,0.02896237,-0.25857377,-9.615114,0.07182605
0.026544368,4.72633,0.0066932263,0.00592564,0.032158162,-0.24420857,-9.624691,0.17238252
0.026547803,4.726433,0.0066932263,0.00592564,0.032158162,-0.24420857,-9.624691,0.17238252
0.02663404,4.726347,0.0066932263,0.008056169,0.03428869,-0.25857377,-9.615114,0.12928689
0.026713932,4.72626,0.0066932263,0.008056169,0.03428869,-0.25857377,-9.615114,0.12928689
0.026700959,4.7261734,0.0066932263,0.009121433,0.035353955,-0.22026655,-9.634268,0.062249243
0.026687635,4.7260866,0.0066932263,0.009121433,0.035353955,-0.22026655,-9.634268,0.062249243
0.026640417,4.7260156,0.0077584907,0.010186698,0.037484486,-0.24420857,-9.653421,0.11971009
0.026591929,4.725945,0.0077584907,0.010186698,0.037484486,-0.24420857,-9.653421,0.11971009
0.026649669,4.725853,0.0066932263,0.010186698,0.03854975,-0.272939,-9.624691,0.04309563
0.026707044,4.725761,0.0066932263,0.010186698,0.03854975,-0.272939,-9.624691,0.04309563
0.02676247,4.7258644,0.005627962,0.011251962,0.039615013,-0.2633622,-9.68694,0.15801731
0.026816623,4.725968,0.005627962,0.011251962,0.039615013,-0.2633622,-9.68694,0.15801731
0.026957119,4.7259045,0.0066932263,0.011251962,0.041745543,-0.272939,-9.610326,0.11971009
0.02709738,4.7258387,0.0066932263,0.011251962,0.041745543,-0.272939,-9.610326,0.11971009
0.027031004,4.7259073,0.0077584907,0.012317227,0.041745543,-0.25378537,-9.643845,0.1340753
0.026960935,4.7259746,0.0077584907,0.012317227,0.041745543,-0.25378537,-9.643845,0.1340753
0.027125133,4.7260323,0.0077584907,0.013382491,0.04387607,-0.30166942,-9.667787,0.14844051
0.027289279,4.72609,0.0077584907,0.013382491,0.04387607,-0.30166942,-9.667787,0.14844051
0.027273927,4.7260084,0.0077584907,0.013382491,0.0460066,-0.25857377,-9.677363,0.12449849
0.02725476,4.7259283,0.0077584907,0.013382491,0.0460066,-0.25857377,-9.677363,0.12449849
0.02737621,4.72602,0.008823755,0.013382491,0.0460066,-0.29688102,-9.677363,0.16759412
0.027497033,4.7261124,0.008823755,0.013382491,0.0460066,-0.29688102,-9.677363,0.16759412
0.027685856,4.726126,0.008823755,0.013382491,0.04813713,-0.29688102,-9.677363,0.1340753
0.027873753,4.7261405,0.008823755,0.013382491,0.04813713,-0.29688102,-9.677363,0.1340753
0.02790148,4.726247,0.00988902,0.013382491,0.05133292,-0.25857377,-9.696517,0.18195933
0.027928455,4.7263546,0.00988902,0.013382491,0.05133292,-0.25857377,-9.696517,0.18195933
0.028056992,4.726448,0.010954284,0.014447756,0.052398186,-0.2825158,-9.677363,0.14844051
0.02818786,4.726546,0.010954284,0.014447756,0.052398186,-0.2825158,-9.677363,0.14844051
0.028224543,4.726655,0.012019549,0.013382491,0.05133292,-0.2633622,-9.672575,0.20111294
0.028260008,4.7267623,0.012019549,0.013382491,0.05133292,-0.2633622,-9.672575,0.20111294
0.028315831,4.7268734,0.013084813,0.011251962,0.052398186,-0.2777274,-9.68694,0.24420857
0.028371567,4.726985,0.013084813,0.011251962,0.052398186,-0.2777274,-9.68694,0.24420857
0.02839641,4.727098,0.016280606,0.012317227,0.054528717,-0.23942018,-9.715671,0.25857377
0.02842047,4.727209,0.016280606,0.012317227,0.054528717,-0.23942018,-9.715671,0.25857377
0.028456094,4.7273235,0.016280606,0.013382491,0.056659244,-0.25378537,-9.696517,0.24420857
0.028490957,4.727436,0.016280606,0.013382491,0.056659244,-0.25378537,-9.696517,0.24420857
0.028575422,4.72755,0.017345872,0.013382491,0.054528717,-0.29209262,-9.643845,0.20111294
0.028659273,4.727664,0.017345872,0.013382491,0.054528717,-0.29209262,-9.643845,0.20111294
0.028699717,4.7277822,0.019476399,0.011251962,0.054528717,-0.2633622,-9.677363,0.24420857
0.028739296,4.727899,0.019476399,0.011251962,0.054528717,-0.2633622,-9.677363,0.24420857
0.02886156,4.728006,0.020541664,0.010186698,0.056659244,-0.36391866,-9.672575,0.2633622
0.028983958,4.728113,0.020541664,0.010186698,0.056659244,-0.36391866,-9.672575,0.2633622
0.029088624,4.7282286,0.02160693,0.008056169,0.058789775,-0.29688102,-9.648633,0.18674773
0.029191904,4.7283435,0.02160693,0.008056169,0.058789775,-0.29688102,-9.648633,0.18674773
0.029118035,4.728473,0.022672193,0.0048603755,0.059855036,-0.21068975,-9.691729,0.19632454
0.02909216,4.7285175,0.022672193,0.0048603755,0.059855036,-0.21068975,-9.691729,0.19632454
0.029029327,4.728589,0.023737457,0.0016645822,0.058789775,-0.19632454,-9.739613,0.19153613
0.028965933,4.72866,0.023737457,0.0016645822,0.058789775,-0.19632454,-9.739613,0.19153613
0.029061094,4.7288213,0.024802722,0.0005993177,0.058789775,-0.2873042,-9.701305,0.20111294
0.02911477,4.7289143,0.024802722,0.0005993177,0.058789775,-0.2873042,-9.701305,0.20111294
0.02918381,4.7290287,0.025867987,-0.00046594674,0.059855036,-0.29209262,-9.710882,0.22026655
0.029257083,4.7291512,0.025867987,-0.00046594674,0.059855036,-0.29209262,-9.710882,0.22026655
0.029348364,4.729276,0.030129045,-0.00046594674,0.058789775,-0.32561144,-9.763555,0.2777274
0.029440587,4.729403,0.030129045,-0.00046594674,0.058789775,-0.32561144,-9.763555,0.2777274
0.029374808,4.7293916,0.033324838,-0.0015312112,0.058789775,-0.2777274,-9.797073,0.16280572
0.029309472,4.7293787,0.033324838,-0.0015312112,0.058789775,-0.2777274,-9.797073,0.16280572
0.02933402,4.729513,0.037585896,-0.0025964756,0.05772451,-0.272939,-9.682152,0.19632454
0.029356515,4.729646,0.037585896,-0.0025964756,0.05772451,-0.272939,-9.682152,0.19632454
0.029375691,4.729784,0.04291222,-0.0025964756,0.056659244,-0.2681506,-9.706094,0.21068975
0.029393412,4.729922,0.04291222,-0.0025964756,0.056659244,-0.2681506,-9.706094,0.21068975
0.029492782,4.7298765,0.04823854,-0.00366174,0.055593982,-0.29688102,-9.682152,0.1436521
0.02958963,4.72983,0.04823854,-0.00366174,0.055593982,-0.29688102,-9.682152,0.1436521
0.029735114,4.7299557,0.05036907,-0.00366174,0.054528717,-0.37828386,-9.68694,0.24420857
0.02988106,4.730081,0.05036907,-0.00366174,0.054528717,-0.37828386,-9.68694,0.24420857
0.030032061,4.730204,0.05356486,-0.0047270046,0.052398186,-0.35913026,-9.677363,0.22026655
0.03018367,4.7303276,0.05356486,-0.0047270046,0.052398186,-0.35913026,-9.677363,0.22026655
0.030316763,4.730464,0.056760654,-0.005792269,0.05026766,-0.320823,-9.672575,0.20111294
0.030450152,4.730601,0.056760654,-0.005792269,0.05026766,-0.320823,-9.672575,0.20111294
0.030510744,4.7307596,0.05995645,-0.005792269,0.049202394,-0.29688102,-9.68694,0.19153613
0.030568354,4.730919,0.05995645,-0.005792269,0.049202394,-0.29688102,-9.68694,0.19153613
0.030678358,4.7308908,0.061021715,-0.0047270046,0.04813713,-0.31124622,-9.68694,0.15801731
0.030785471,4.730862,0.061021715,-0.0047270046,0.04813713,-0.31124622,-9.68694,0.15801731
0.030913549,4.7310023,0.05995645,-0.0047270046,0.0460066,-0.33518824,-9.619903,0.21547815
0.03104211,4.731142,0.05995645,-0.0047270046,0.0460066,-0.33518824,-9.619903,0.21547815
0.031143514,4.731293,0.05995645,-0.0025964756,0.0460066,-0.33039984,-9.691729,0.22984336
0.031244658,4.731444,0.05995645,-0.0025964756,0.0460066,-0.33039984,-9.691729,0.22984336
0.03139392,4.731571,0.05782592,-0.0015312112,0.049202394,-0.35434186,-9.672575,0.22026655
0.031543363,4.731698,0.05782592,-0.0015312112,0.049202394,-0.35434186,-9.672575,0.22026655
0.03170819,4.7318106,0.055695392,-0.0015312112,0.049202394,-0.37349546,-9.701305,0.22026655
0.03187204,4.731922,0.055695392,-0.0015312112,0.049202394,-0.37349546,-9.701305,0.22026655
0.03205639,4.7320046,0.054630127,0.0005993177,0.05026766,-0.36391866,-9.706094,0.20111294
0.03224115,4.7320867,0.054630127,0.0005993177,0.05026766,-0.36391866,-9.706094,0.20111294
0.032419346,4.7321796,0.0524996,0.0027298466,0.05026766,-0.35913026,-9.730036,0.20590134
0.03259807,4.732271,0.0524996,0.0027298466,0.05026766,-0.35913026,-9.730036,0.20590134
0.032774296,4.732277,0.049303804,0.003795111,0.05026766,-0.4165911,-9.68694,0.15801731
0.03295042,4.732282,0.049303804,0.003795111,0.05026766,-0.4165911,-9.68694,0.15801731
0.033131946,4.732295,0.047173277,0.003795111,0.05026766,-0.37828386,-9.682152,0.17717093
0.033313025,4.7323065,0.047173277,0.003795111,0.05026766,-0.37828386,-9.682152,0.17717093
0.033411965,4.732445,0.04610801,0.0048603755,0.04813713,-0.34955344,-9.734824,0.23942018
0.033510584,4.732583,0.04610801,0.0048603755,0.04813713,-0.34955344,-9.734824,0.23942018
0.033562053,4.732527,0.04291222,0.0069909045,0.04813713,-0.33039984,-9.753978,0.090979666
0.03361307,4.73247,0.04291222,0.0069909045,0.04813713,-0.33039984,-9.753978,0.090979666
0.033670574,4.7324104,0.039716423,0.0069909045,0.049202394,-0.33518824,-9.744401,0.10534488
0.03372762,4.7323503,0.039716423,0.0069909045,0.049202394,-0.33518824,-9.744401,0.10534488
0.033739015,4.7322903,0.03545537,0.009121433,0.04813713,-0.31124622,-9.682152,0.15322891
0.033749647,4.73223,0.03545537,0.009121433,0.04813713,-0.31124622,-9.682152,0.15322891
0.033715773,4.7323437,0.032259572,0.011251962,0.04387607,-0.2825158,-9.691729,0.23942018
0.033681024,4.732457,0.032259572,0.011251962,0.04387607,-0.2825158,-9.691729,0.23942018
0.033651814,4.732399,0.027998514,0.013382491,0.041745543,-0.2681506,-9.68694,0.12449849
0.033622384,4.7323413,0.027998514,0.013382491,0.041745543,-0.2681506,-9.68694,0.12449849
0.033562712,4.7322955,0.024802722,0.01551302,0.039615013,-0.2825158,-9.720459,0.16280572
0.033503037,4.73225,0.024802722,0.01551302,0.039615013,-0.2825158,-9.720459,0.16280572
0.033553015,4.732371,0.022672193,0.016578285,0.037484486,-0.33039984,-9.739613,0.22505496
0.03360183,4.732492,0.022672193,0.016578285,0.037484486,-0.33039984,-9.739613,0.22505496
0.033734802,4.7324405,0.020541664,0.018708814,0.035353955,-0.35913026,-9.734824,0.17238252
0.033866648,4.7323885,0.020541664,0.018708814,0.035353955,-0.35913026,-9.734824,0.17238252
0.033877693,4.732503,0.017345872,0.019774077,0.033223428,-0.31603462,-9.730036,0.25378537
0.03388817,4.732618,0.017345872,0.019774077,0.033223428,-0.31603462,-9.730036,0.25378537
0.03380435,4.732686,0.0141500775,0.021904606,0.031092897,-0.30166942,-9.739613,0.21068975
0.033719268,4.732754,0.0141500775,0.021904606,0.031092897,-0.30166942,-9.739613,0.21068975
0.033738323,4.732864,0.012019549,0.022969872,0.031092897,-0.320823,-9.734824,0.25857377
0.03375686,4.732974,0.012019549,0.022969872,0.031092897,-0.320823,-9.734824,0.25857377
0.03371272,4.7330656,0.0077584907,0.022969872,0.027897105,-0.30166942,-9.77792,0.23463176
0.03366778,4.733157,0.0077584907,0.022969872,0.027897105,-0.30166942,-9.77792,0.23463176
0.033697136,4.73326,0.005627962,0.022969872,0.025766576,-0.33039984,-9.749189,0.2633622
0.033726063,4.733364,0.005627962,0.022969872,0.025766576,-0.33039984,-9.749189,0.2633622
0.033781387,4.733464,0.003497433,0.024035135,0.024701312,-0.34476504,-9.763555,0.25378537
0.033836093,4.733563,0.003497433,0.024035135,0.024701312,-0.34476504,-9.763555,0.25378537
0.033759397,4.7336326,0.0024321685,0.0251004,0.024701312,-0.32561144,-9.77792,0.21068975
0.03367997,4.7337,0.0024321685,0.0251004,0.024701312,-0.32561144,-9.77792,0.21068975
0.033748593,4.7336063,0.001366904,0.024035135,0.023636047,-0.33997664,-9.782708,0.18674773
0.033816237,4.733513,0.001366904,0.024035135,0.023636047,-0.33997664,-9.782708,0.18674773
0.033845764,4.73361,-0.0007636249,0.024035135,0.021505518,-0.33518824,-9.811439,0.24899697
0.033874765,4.733707,-0.0007636249,0.024035135,0.021505518,-0.33518824,-9.811439,0.24899697
0.033948418,4.7337956,-0.0018288894,0.024035135,0.018309724,-0.38307226,-9.830592,0.29209262
0.034021888,4.733884,-0.0018288894,0.024035135,0.018309724,-0.38307226,-9.830592,0.29209262
0.03405583,4.7339797,-0.0018288894,0.021904606,0.018309724,-0.34476504,-9.801862,0.2825158
0.034089595,4.734076,-0.0018288894,0.021904606,0.018309724,-0.34476504,-9.801862,0.2825158
0.03411586,4.7341743,-0.0018288894,0.020839343,0.019374989,-0.33997664,-9.782708,0.31603462
0.034141093,4.734269,-0.0018288894,0.020839343,0.019374989,-0.33997664,-9.782708,0.31603462
0.034162592,4.7343655,-0.0007636249,0.019774077,0.020440254,-0.33518824,-9.787497,0.29688102
0.034184128,4.734463,-0.0007636249,0.019774077,0.020440254,-0.33518824,-9.787497,0.29688102
0.034296926,4.734537,0.00030163955,0.017643549,0.021505518,-0.4213795,-9.739613,0.2873042
0.03441022,4.7346125,0.00030163955,0.017643549,0.021505518,-0.4213795,-9.739613,0.2873042
0.03454307,4.7346764,0.0024321685,0.018708814,0.023636047,-0.4261679,-9.725247,0.2681506
0.034675293,4.73474,0.0024321685,0.018708814,0.023636047,-0.4261679,-9.725247,0.2681506
0.034773912,4.734829,0.0045626974,0.018708814,0.025766576,-0.45489833,-9.797073,0.35434186
0.034871265,4.734917,0.0045626974,0.018708814,0.025766576,-0.45489833,-9.797073,0.35434186
0.034993544,4.7349977,0.008823755,0.019774077,0.027897105,-0.521936,-9.787497,0.35913026
0.035116293,4.735079,0.008823755,0.019774077,0.027897105,-0.521936,-9.787497,0.35913026
0.035228066,4.735171,0.013084813,0.019774077,0.030027634,-0.50757074,-9.773131,0.38307226
0.035340123,4.735264,0.013084813,0.019774077,0.030027634,-0.50757074,-9.773131,0.38307226
0.035450608,4.735364,0.017345872,0.019774077,0.035353955,-0.49320555,-9.825804,0.3878607
0.035560604,4.7354636,0.017345872,0.019774077,0.035353955,-0.49320555,-9.825804,0.3878607
0.03569039,4.7355604,0.023737457,0.020839343,0.037484486,-0.47884035,-9.825804,0.33039984
0.035820264,4.7356577,0.023737457,0.020839343,0.037484486,-0.47884035,-9.825804,0.33039984
0.03595568,4.735757,0.027998514,0.024035135,0.039615013,-0.5315128,-9.835381,0.36391866
0.036091093,4.735856,0.027998514,0.024035135,0.039615013,-0.5315128,-9.835381,0.36391866
0.036204286,4.7359734,0.033324838,0.0251004,0.040680278,-0.49799395,-9.907207,0.39743748
0.03631714,4.73609,0.033324838,0.0251004,0.040680278,-0.49799395,-9.907207,0.39743748
0.036449637,4.7362046,0.03865116,0.0251004,0.042810805,-0.48841715,-9.92636,0.34476504
0.036581237,4.736318,0.03865116,0.0251004,0.042810805,-0.48841715,-9.92636,0.34476504
0.036761213,4.736386,0.040781688,0.024035135,0.04387607,-0.48841715,-9.931149,0.2633622
0.036938813,4.736453,0.040781688,0.024035135,0.04387607,-0.48841715,-9.931149,0.2633622
0.03708992,4.7365603,0.04291222,0.0251004,0.044941336,-0.44532153,-9.940725,0.2873042
0.037240546,4.736667,0.04291222,0.0251004,0.044941336,-0.44532153,-9.940725,0.2873042
0.037346184,4.7367997,0.045042746,0.026165664,0.042810805,-0.4405331,-9.969456,0.33997664
0.037452057,4.7369328,0.045042746,0.026165664,0.042810805,-0.4405331,-9.969456,0.33997664
0.03761966,4.7370205,0.047173277,0.0251004,0.040680278,-0.48841715,-9.959879,0.2825158
0.03778763,4.737108,0.047173277,0.0251004,0.040680278,-0.48841715,-9.959879,0.2825158
0.037922263,4.7372265,0.047173277,0.0251004,0.03641922,-0.47884035,-10.0029745,0.320823
0.038056243,4.737343,0.047173277,0.0251004,0.03641922,-0.47884035,-10.0029745,0.320823
0.038158838,4.737477,0.049303804,0.024035135,0.032158162,-0.47405192,-9.9550905,0.36391866
0.038262002,4.737611,0.049303804,0.024035135,0.032158162,-0.47405192,-9.9550905,0.36391866
0.038325466,4.7377563,0.051434334,0.022969872,0.02683184,-0.4405331,-10.012551,0.40222588
0.038389284,4.7379026,0.051434334,0.022969872,0.02683184,-0.4405331,-10.012551,0.40222588
0.03845608,4.738047,0.051434334,0.020839343,0.022570781,-0.4357447,-10.022128,0.36391866
0.038522974,4.7381916,0.051434334,0.020839343,0.022570781,-0.4357447,-10.022128,0.36391866
0.038533457,4.738346,0.0524996,0.018708814,0.015113931,-0.37828386,-10.012551,0.40222588
0.03854321,4.7384925,0.0524996,0.018708814,0.015113931,-0.37828386,-10.012551,0.40222588
0.038577043,4.7386446,0.055695392,0.017643549,0.00765708,-0.4165911,-10.031705,0.37349546
0.038611628,4.7388,0.055695392,0.017643549,0.00765708,-0.4165911,-10.031705,0.37349546
0.03864645,4.7389555,0.061021715,0.016578285,-0.0008650357,-0.44532153,-10.012551,0.4213795
0.038681384,4.7391105,0.061021715,0.016578285,-0.0008650357,-0.44532153,-10.012551,0.4213795
0.038696088,4.7392693,0.06315224,0.01551302,-0.008321887,-0.4261679,-9.983821,0.4357447
0.03871102,4.7394285,0.06315224,0.01551302,-0.008321887,-0.4261679,-9.983821,0.4357447
0.038716074,4.7395916,0.06634804,0.014447756,-0.013648209,-0.4309563,-9.988609,0.50278234
0.038721252,4.7397547,0.06634804,0.014447756,-0.013648209,-0.4309563,-9.988609,0.50278234
0.038734097,4.739919,0.06847856,0.013382491,-0.018974531,-0.45010993,-9.998186,0.46447513
0.038747106,4.7400837,0.06847856,0.013382491,-0.018974531,-0.45010993,-9.998186,0.46447513
0.038731605,4.7402525,0.07167436,0.011251962,-0.02323559,-0.40222588,-9.983821,0.47405192
0.03871622,4.7404222,0.07167436,0.011251962,-0.02323559,-0.40222588,-9.983821,0.47405192
0.038706157,4.740595,0.074870154,0.008056169,-0.026431382,-0.4165911,-10.0029745,0.45489833
0.03869632,4.7407675,0.074870154,0.008056169,-0.026431382,-0.4165911,-10.0029745,0.45489833
0.038678903,4.740944,0.07806595,0.00592564,-0.028561912,-0.40701428,-10.0269165,0.45010993
0.038661744,4.7411194,0.07806595,0.00592564,-0.028561912,-0.40701428,-10.0269165,0.45010993
0.038652394,4.7412963,0.07913121,0.0048603755,-0.029627176,-0.4165911,-10.055647,0.4213795
0.038643435,4.7414727,0.07913121,0.0048603755,-0.029627176,-0.4165911,-10.055647,0.4213795
0.038630776,4.741652,0.08126174,0.0048603755,-0.028561912,-0.4213795,-10.0748005,0.48841715
0.03861837,4.7418313,0.08126174,0.0048603755,-0.028561912,-0.4213795,-10.0748005,0.48841715
0.038603164,4.7420135,0.08445753,0.00592564,-0.025366118,-0.41180268,-10.093954,0.50757074
0.03858815,4.742196,0.08445753,0.00592564,-0.025366118,-0.41180268,-10.093954,0.50757074
0.038594212,4.74238,0.087653324,0.00592564,-0.022170324,-0.4357447,-10.079589,0.45968673
0.03860058,4.7425647,0.087653324,0.00592564,-0.022170324,-0.4357447,-10.079589,0.45968673
0.03860058,4.7425647,0.087653324,0.00592564,-0.022170324,-0.4357447,-10.079589,0.45968673
0.038529046,4.742977,0.09084912,0.0048603755,-0.015778739,-0.37828386,-10.060435,0.36391866
0.03840723,4.7430387,0.09404491,0.003795111,-0.006191358,-0.29688102,-10.022128,0.29209262
0.038108718,4.743187,0.09617544,0.0016645822,-0.0008650357,-0.22026655,-9.959879,0.272939
0.038108718,4.743187,0.09617544,0.0016645822,-0.0008650357,-0.22026655,-9.959879,0.272939
0.03798508,4.743249,0.09617544,0.0016645822,-0.0008650357,-0.22026655,-9.959879,0.272939
0.03798508,4.743249,0.09617544,0.0016645822,-0.0008650357,-0.22026655,-9.959879,0.272939
0.037716683,4.743387,0.0972407,-0.0015312112,0.00020022877,-0.1436521,-9.950302,0.25857377
0.03762091,4.743417,0.09937123,-0.00366174,0.0044612866,-0.1436521,-9.868899,0.14844051
0.037529286,4.743445,0.09937123,-0.00366174,0.0044612866,-0.1436521,-9.868899,0.14844051
0.037418433,4.74349,0.09937123,-0.0068575335,0.0065918155,-0.110133275,-9.830592,0.18674773
0.03730732,4.743535,0.09937123,-0.0068575335,0.0065918155,-0.110133275,-9.830592,0.18674773
0.037211947,4.7435656,0.09937123,-0.011118591,0.0065918155,-0.08619126,-9.782708,0.11492168
0.037116807,4.743596,0.09937123,-0.011118591,0.0065918155,-0.08619126,-9.782708,0.11492168
0.0370122,4.7436285,0.09617544,-0.012183856,0.0044612866,-0.06703765,-9.730036,0.12928689
0.03690887,4.743661,0.09617544,-0.012183856,0.0044612866,-0.06703765,-9.730036,0.12928689
0.03680437,4.7436876,0.09297965,-0.015379649,0.0012654932,-0.038307227,-9.701305,0.10055647
0.036700416,4.7437143,0.09297965,-0.015379649,0.0012654932,-0.038307227,-9.701305,0.10055647
0.036611665,4.7437224,0.08871859,-0.017510178,-0.0051260935,-0.0047884034,-9.543288,-0.038307227
0.03652309,4.7437305,0.08871859,-0.017510178,-0.0051260935,-0.0047884034,-9.543288,-0.038307227
0.036412217,4.7437406,0.08126174,-0.020705972,-0.01151768,0.0047884034,-9.591172,0.04309563
0.03630153,4.743751,0.08126174,-0.020705972,-0.01151768,0.0047884034,-9.591172,0.04309563
0.036162473,4.7437725,0.07167436,-0.018575443,-0.017909266,-0.18674773,-9.720459,0.23463176
0.03602378,4.7437935,0.07167436,-0.018575443,-0.017909266,-0.18674773,-9.720459,0.23463176
0.035867665,4.7438326,0.061021715,-0.012183856,-0.018974531,-0.29209262,-9.763555,0.29688102
0.035716362,4.7438693,0.061021715,-0.012183856,-0.018974531,-0.29209262,-9.763555,0.29688102
0.035716362,4.7438693,0.05356486,-0.0068575335,-0.017909266,-0.2873042,-9.739613,0.2777274
0.035440084,4.743865,0.05356486,-0.0068575335,-0.017909266,-0.2873042,-9.739613,0.2777274
0.035345703,4.7438326,0.049303804,-0.0015312112,-0.015778739,-0.17717093,-9.677363,0.1340753
0.035252005,4.7438006,0.049303804,-0.0015312112,-0.015778739,-0.17717093,-9.677363,0.1340753
0.03518352,4.7437544,0.045042746,0.0027298466,-0.010452416,-0.15322891,-9.706094,0.009576807
0.03511548,4.7437086,0.045042746,0.0027298466,-0.010452416,-0.15322891,-9.706094,0.009576807
0.035052404,4.7436566,0.03865116,0.0069909045,-0.0029955646,-0.18195933,-9.667787,0.06703765
0.034988727,4.743604,0.03865116,0.0069909045,-0.0029955646,-0.18195933,-9.667787,0.06703765
0.03497197,4.7435303,0.030129045,0.012317227,0.0044612866,-0.2825158,-9.65821,0.033518825
0.034957584,4.743466,0.030129045,0.012317227,0.0044612866,-0.2825158,-9.65821,0.033518825
0.034974232,4.7433896,0.022672193,0.017643549,0.015113931,-0.33997664,-9.667787,0.1436521
0.034991086,4.7433114,0.022672193,0.017643549,0.015113931,-0.33997664,-9.667787,0.1436521
0.035025608,4.7432284,0.016280606,0.020839343,0.030027634,-0.34955344,-9.677363,0.047884032
0.035060417,4.743145,0.016280606,0.020839343,0.030027634,-0.34955344,-9.677363,0.047884032
0.03514577,4.7430553,0.008823755,0.024035135,0.04813713,-0.47884035,-9.615114,-0.08619126
0.03522981,4.7429676,0.008823755,0.024035135,0.04813713,-0.47884035,-9.615114,-0.08619126
0.035363395,4.742875,-0.0007636249,0.030426722,0.07050768,-0.6895301,-9.639056,-0.21547815
0.03549674,4.7427826,-0.0007636249,0.030426722,0.07050768,-0.6895301,-9.639056,-0.21547815
0.03566625,4.742684,-0.010351005,0.03468778,0.09713929,-0.8331822,-9.595961,-0.31124622
0.035836015,4.7425847,-0.010351005,0.03468778,0.09713929,-0.8331822,-9.595961,-0.31124622
0.036055338,4.742483,-0.019938385,0.037883572,0.13229302,-0.9864111,-9.595961,-0.31124622
0.036274545,4.7423816,-0.019938385,0.037883572,0.13229302,-0.9864111,-9.595961,-0.31124622
0.036547184,4.742276,-0.029525764,0.038948838,0.17596887,-1.0247183,-9.595961,-0.23942018
0.036821626,4.74217,-0.029525764,0.038948838,0.17596887,-1.0247183,-9.595961,-0.23942018
0.037156913,4.7420673,-0.03698262,0.037883572,0.22710156,-1.1540052,-9.5385,-0.19632454
0.03749412,4.7419634,-0.03698262,0.037883572,0.22710156,-1.1540052,-9.5385,-0.19632454
0.0379032,4.741866,-0.045504734,0.03681831,0.28462583,-1.5562311,-9.528923,-0.21068975
0.03831222,4.741769,-0.045504734,0.03681831,0.28462583,-1.5562311,-9.528923,-0.21068975
0.0387922,4.7416677,-0.05402685,0.031491987,0.3517375,-1.8770541,-9.471462,-0.2681506
0.03927215,4.741567,-0.05402685,0.031491987,0.3517375,-1.8770541,-9.471462,-0.2681506
0.039826095,4.7414594,-0.0614837,0.020839343,0.42524076,-1.9440918,-9.452309,-0.2873042
0.040378932,4.741352,-0.0614837,0.020839343,0.42524076,-1.9440918,-9.452309,-0.2873042
0.041020505,4.7412453,-0.07107108,0.010186698,0.50833136,-2.0350714,-9.423578,-0.17238252
0.04166207,4.7411385,-0.07107108,0.010186698,0.50833136,-2.0350714,-9.423578,-0.17238252
0.042394746,4.741024,-0.0795932,-0.0015312112,0.60100937,-1.5801731,-9.394848,-0.047884032
0.04312883,4.7409096,-0.0795932,-0.0015312112,0.60100937,-1.5801731,-9.394848,-0.047884032
0.043956537,4.740784,-0.089180574,-0.007922798,0.6968832,-1.3120226,-9.481039,0.01436521
0.04478419,4.7406588,-0.089180574,-0.007922798,0.6968832,-1.3120226,-9.481039,0.01436521
0.045713667,4.7405343,-0.09983322,-0.0025964756,0.7938222,-1.1971009,-9.428367,0.11971009
0.0466422,4.74041,-0.09983322,-0.0025964756,0.7938222,-1.1971009,-9.428367,0.11971009
0.047669355,4.7402825,-0.107290074,0.00592564,0.88969606,-1.2258313,-9.471462,0.14844051
0.048696503,4.740155,-0.107290074,0.00592564,0.88969606,-1.2258313,-9.471462,0.14844051
0.049817257,4.740033,-0.11261639,0.012317227,0.9813088,-1.4077905,-9.543288,0.19153613
0.05093917,4.73991,-0.11261639,0.012317227,0.9813088,-1.4077905,-9.543288,0.19153613
0.052154083,4.739789,-0.11368166,0.019774077,1.075052,-1.3072342,-9.533711,0.21547815
0.05336782,4.739668,-0.11368166,0.019774077,1.075052,-1.3072342,-9.533711,0.21547815
0.054679874,4.7395444,-0.11368166,0.02723093,1.1709259,-1.043872,-9.624691,0.22505496
0.055989306,4.739421,-0.11368166,0.02723093,1.1709259,-1.043872,-9.624691,0.22505496
0.0574012,4.7393093,-0.11474692,0.040014103,1.2699955,-0.80445176,-9.696517,0.2681506
0.05881163,4.739198,-0.11474692,0.040014103,1.2699955,-0.80445176,-9.696517,0.2681506
0.060236793,4.7391734,-0.11368166,0.062384658,1.369065,-0.7182605,-9.816227,0.49320555
0.061657153,4.73915,-0.11368166,0.062384658,1.369065,-0.7182605,-9.816227,0.49320555
0.06313149,4.739133,-0.11261639,0.089016266,1.4638736,-0.62249243,-9.849746,0.58897364
0.0645926,4.7391157,-0.11261639,0.089016266,1.4638736,-0.62249243,-9.849746,0.58897364
0.06608896,4.739088,-0.11048587,0.117778406,1.5554863,-0.4213795,-10.007763,0.58897364
0.06758216,4.739059,-0.11048587,0.117778406,1.5554863,-0.4213795,-10.007763,0.58897364
0.06911005,4.7389927,-0.108355336,0.14867108,1.6449685,-0.32561144,-10.036493,0.41180268
0.07063533,4.738925,-0.108355336,0.14867108,1.6449685,-0.32561144,-10.036493,0.41180268
0.07223163,4.738811,-0.106224805,0.1870206,1.7301897,-0.2825158,-10.132261,0.2777274
0.07382632,4.738698,-0.106224805,0.1870206,1.7301897,-0.2825158,-10.132261,0.2777274
0.07551001,4.7385445,-0.104094274,0.22963117,1.8100846,-0.2873042,-10.108319,0.1436521
0.07719289,4.7383933,-0.104094274,0.22963117,1.8100846,-0.2873042,-10.108319,0.1436521
0.079011455,4.7381864,-0.104094274,0.27224174,1.8867836,-0.545878,-10.189722,-0.009576807
0.08082549,4.7379813,-0.104094274,0.27224174,1.8867836,-0.545878,-10.189722,-0.009576807
0.08275356,4.737757,-0.106224805,0.3063302,1.9570911,-0.6799533,-10.079589,-0.10534488
0.08467657,4.737533,-0.106224805,0.3063302,1.9570911,-0.6799533,-10.079589,-0.10534488
0.08668298,4.737299,-0.11155113,0.33189657,2.0263333,-0.7517793,-10.031705,-0.10055647
0.0886838,4.7370653,-0.11155113,0.33189657,2.0263333,-0.7517793,-10.031705,-0.10055647
0.09075878,4.7368217,-0.11900798,0.34787554,2.098771,-0.78050977,-10.0029745,-0.08619126
0.09282773,4.736579,-0.11900798,0.34787554,2.098771,-0.78050977,-10.0029745,-0.08619126
0.09496435,4.736329,-0.12539956,0.35320187,2.1690786,-0.78050977,-10.055647,-0.12449849
0.09709338,4.7360797,-0.12539956,0.35320187,2.1690786,-0.78050977,-10.055647,-0.12449849
0.09924993,4.735843,-0.13072589,0.35213658,2.239386,-0.6655881,-10.103531,-0.019153614
0.10140032,4.735609,-0.13072589,0.35213658,2.239386,-0.6655881,-10.103531,-0.019153614
0.10357823,4.735421,-0.1360522,0.34681025,2.3096936,-0.6655881,-10.0987425,0.17717093
0.1057577,4.7352343,-0.1360522,0.34681025,2.3096936,-0.6655881,-10.0987425,0.17717093
0.10800672,4.735087,-0.13818274,0.33722287,2.3778706,-0.5746084,-10.01734,0.30645782
0.1102555,4.734939,-0.13818274,0.33722287,2.3778706,-0.5746084,-10.01734,0.30645782
0.11256735,4.7347603,-0.13285641,0.32657024,2.4417863,0.06703765,-10.055647,0.095768064
0.11487676,4.734581,-0.13285641,0.32657024,2.4417863,0.06703765,-10.055647,0.095768064
0.11744199,4.7343845,-0.12539956,0.3223092,2.4993107,0.51235914,-9.9550905,-0.076614454
0.11961619,4.734218,-0.12539956,0.3223092,2.4993107,0.51235914,-9.9550905,-0.076614454
0.12203256,4.7340374,-0.11474692,0.325505,2.5472476,0.80924016,-9.605537,-0.2633622
0.1244487,4.733857,-0.11474692,0.325505,2.5472476,0.80924016,-9.605537,-0.2633622
0.12691559,4.7336755,-0.09876795,0.33828816,2.5887928,0.92416185,-9.279925,-0.5506664
0.12938459,4.7334933,-0.09876795,0.33828816,2.5887928,0.92416185,-9.279925,-0.5506664
0.13189295,4.7333155,-0.08278899,0.3574629,2.6271424,1.0007763,-8.939949,-0.770933
0.13440585,4.733137,-0.08278899,0.3574629,2.6271424,1.0007763,-8.939949,-0.770933
0.13695896,4.732962,-0.06361423,0.37983346,2.662296,1.0007763,-8.662222,-1.0726024
0.13951664,4.7327867,-0.06361423,0.37983346,2.662296,1.0007763,-8.662222,-1.0726024
0.14211927,4.7326193,-0.04443947,0.402204,2.701711,0.91937345,-8.494628,-1.2593501
0.14472127,4.732451,-0.04443947,0.402204,2.701711,0.91937345,-8.494628,-1.2593501
0.14737491,4.732295,-0.02313418,0.4267051,2.7475173,0.9576807,-8.259995,-1.460463
0.15002789,4.7321377,-0.02313418,0.4267051,2.7475173,0.9576807,-8.259995,-1.460463
0.15277722,4.7319984,0.0024321685,0.44801039,2.8039763,1.091756,-8.231265,-1.6472107
0.15548259,4.73186,0.0024321685,0.44801039,2.8039763,1.091756,-8.231265,-1.6472107
0.1582264,4.731747,0.027998514,0.46718514,2.871088,1.2545617,-8.1642275,-1.6567876
0.16099468,4.7316318,0.027998514,0.46718514,2.871088,1.2545617,-8.1642275,-1.6567876
0.16385175,4.7315383,0.054630127,0.48529464,2.947787,1.292869,-8.154651,-1.7286136
0.16669689,4.7314444,0.054630127,0.48529464,2.947787,1.292869,-8.154651,-1.7286136
0.16963802,4.7313743,0.082327,0.4991431,3.0308776,1.4748282,-8.025364,-1.8100165
0.17256401,4.731304,0.082327,0.4991431,3.0308776,1.4748282,-8.025364,-1.8100165
0.17558376,4.7312565,0.10895862,0.5087305,3.1214252,1.5705963,-7.9008656,-1.9057846
0.17860612,4.731208,0.10895862,0.5087305,3.1214252,1.5705963,-7.9008656,-1.9057846
0.18173051,4.731183,0.13772075,0.5140568,3.22156,1.6089035,-7.61835,-2.0159178
0.18485445,4.7311573,0.13772075,0.5140568,3.22156,1.6089035,-7.61835,-2.0159178
0.18808776,4.7311544,0.16541763,0.51512206,3.3238254,1.6184803,-7.264008,-2.1883004
0.19133033,4.7311497,0.16541763,0.51512206,3.3238254,1.6184803,-7.264008,-2.1883004
0.1947297,4.7311735,0.1963103,0.51299155,3.431417,1.6280571,-6.871359,-2.2744915
0.19812861,4.7311954,0.1963103,0.51299155,3.431417,1.6280571,-6.871359,-2.2744915
0.2014914,4.7312517,0.23039876,0.50659996,3.5443351,1.6903064,-6.5265937,-2.1930888
0.20490214,4.7313075,0.23039876,0.50659996,3.5443351,1.6903064,-6.5265937,-2.1930888
0.20846586,4.7314024,0.26768303,0.5002083,3.6583183,1.7860745,-6.1530986,-2.1452048
0.21203282,4.731496,0.26768303,0.5002083,3.6583183,1.7860745,-6.1530986,-2.1452048
0.21570364,4.731633,0.30496728,0.49488202,3.7765627,1.9871874,-5.851429,-1.9488802
0.21936698,4.7317686,0.30496728,0.49488202,3.7765627,1.9871874,-5.851429,-1.9488802
0.22314411,4.7319407,0.34118626,0.4959473,3.8969376,2.087744,-5.482722,-1.8770541
0.2269552,4.732113,0.34118626,0.4959473,3.8969376,2.087744,-5.482722,-1.8770541
0.23083252,4.7323093,0.37420946,0.5076652,4.019443,2.1260512,-5.118803,-1.958457
0.23474486,4.7325063,0.37420946,0.5076652,4.019443,2.1260512,-5.118803,-1.958457
0.23878269,4.732712,0.3944495,0.53323156,4.141948,2.0973208,-4.663905,-2.030283
0.24283646,4.7329173,0.3944495,0.53323156,4.141948,2.0973208,-4.663905,-2.030283
0.24700387,4.7331038,0.39871055,0.5737116,4.264454,1.7956513,-4.2760444,-2.255338
0.25116265,4.733288,0.39871055,0.5737116,4.264454,1.7956513,-4.2760444,-2.255338
0.25573415,4.7334385,0.3827316,0.6248443,4.393351,1.3934253,-3.8738184,-2.4947581
0.25999448,4.7335763,0.3827316,0.6248443,4.393351,1.3934253,-3.8738184,-2.4947581
0.25999448,4.7335763,0.3465126,0.67491174,4.5286393,0.9864111,-3.5338416,-2.7581203
0.2689002,4.7337303,0.3465126,0.67491174,4.5286393,0.9864111,-3.5338416,-2.7581203
0.27359185,4.733727,0.2889883,0.7207181,4.667124,0.61770403,-3.2225955,-2.9783869
0.2785468,4.7337193,0.2889883,0.7207181,4.667124,0.61770403,-3.2225955,-2.9783869
0.28294796,4.7336245,0.21015874,0.7590676,4.812,0.33997664,-2.96881,-3.0502129
0.28761178,4.7335205,0.21015874,0.7590676,4.812,0.33997664,-2.96881,-3.0502129
0.29253504,4.7333026,0.11321967,0.7952866,4.9632673,0,-2.7820623,-2.9783869
0.2974379,4.7330813,0.11321967,0.7952866,4.9632673,0,-2.7820623,-2.9783869
0.3025576,4.732735,0.003497433,0.82617927,5.114535,-0.32561144,-2.7341783,-2.6910827
0.30765608,4.7323856,0.003497433,0.82617927,5.114535,-0.32561144,-2.7341783,-2.6910827
0.31293172,4.731909,-0.11368166,0.8538762,5.267933,-0.7038953,-2.777274,-2.27928
0.31819585,4.7314262,-0.11368166,0.8538762,5.267933,-0.7038953,-2.777274,-2.27928
0.32365543,4.7308164,-0.23086074,0.8826383,5.421331,-1.1444284,-2.8921957,-1.7381904
0.32909176,4.7302027,-0.23086074,0.8826383,5.421331,-1.1444284,-2.8921957,-1.7381904
0.33473364,4.7294674,-0.34484404,0.91992253,5.5694027,-1.8339585,-3.1172507,-1.2354081
0.34037358,4.728725,-0.34484404,0.91992253,5.5694027,-1.8339585,-3.1172507,-1.2354081
0.3462019,4.727884,-0.45563155,0.96572894,5.706822,-2.585738,-3.3375173,-0.7613561
0.3520345,4.727034,-0.45563155,0.96572894,5.706822,-2.585738,-3.3375173,-0.7613561
0.35801527,4.726083,-0.562158,1.0168616,5.8335886,-3.265691,-3.6774938,-0.48841715
0.36399496,4.7251225,-0.562158,1.0168616,5.8335886,-3.265691,-3.6774938,-0.48841715
0.37009612,4.724041,-0.66548866,1.0701249,5.9454412,-3.7828386,-4.050989,-0.39264908
0.37620214,4.722949,-0.66548866,1.0701249,5.9454412,-3.7828386,-4.050989,-0.39264908
0.38247532,4.7217073,-0.7656235,1.119127,6.0338583,-4.189853,-4.4963107,-0.49799395
0.38859263,4.7204857,-0.7656235,1.119127,6.0338583,-4.189853,-4.4963107,-0.49799395
0.39484778,4.719117,-0.86575836,1.1574765,6.0999045,-4.5777135,-4.984728,-0.60812724
0.4008143,4.717801,-0.86575836,1.1574765,6.0999045,-4.5777135,-4.984728,-0.60812724
0.40710202,4.716284,-0.96482795,1.1830429,6.142515,-4.7644615,-5.4444146,-0.8810662
0.41361964,4.714697,-0.96482795,1.1830429,6.142515,-4.7644615,-5.4444146,-0.8810662
0.41988268,4.7130566,-1.057506,1.191565,6.158494,-4.984728,-5.875371,-1.043872
0.42609933,4.7114143,-1.057506,1.191565,6.158494,-4.984728,-5.875371,-1.043872
0.43236086,4.7096577,-1.1448576,1.1798471,6.1521025,-5.1523223,-6.26802,-1.1109096
0.43872002,4.707858,-1.1448576,1.1798471,6.1521025,-5.1523223,-6.26802,-1.1109096
0.44491956,4.7060175,-1.2226219,1.1489544,6.119079,-5.233725,-6.579266,-1.0342951
0.4511474,4.704153,-1.2226219,1.1489544,6.119079,-5.233725,-6.579266,-1.0342951
0.4573144,4.7022395,-1.2886684,1.103148,6.0604897,-5.386954,-6.871359,-0.8762778
0.4634785,4.7003107,-1.2886684,1.103148,6.0604897,-5.386954,-6.871359,-0.8762778
0.46955556,4.6983786,-1.3387358,1.0520153,5.97953,-5.482722,-7.0820484,-0.45489833
0.475661,4.6964216,-1.3387358,1.0520153,5.97953,-5.482722,-7.0820484,-0.45489833
0.48166195,4.694484,-1.3728242,1.0030131,5.8804603,-5.66947,-7.2831616,-0.033518825
0.48766044,4.692534,-1.3728242,1.0030131,5.8804603,-5.66947,-7.2831616,-0.033518825
0.49352297,4.690609,-1.3930643,0.96146786,5.7611504,-5.932832,-7.431602,0.4357447
0.49938202,4.6886725,-1.3930643,0.96146786,5.7611504,-5.932832,-7.431602,0.4357447
0.5050981,4.6867375,-1.4015864,0.92950994,5.623731,-6.291962,-7.680599,0.5650316
0.5108104,4.684791,-1.4015864,0.92950994,5.623731,-6.291962,-7.680599,0.5650316
0.5163678,4.682841,-1.4037169,0.91140044,5.470333,-6.7468605,-8.015787,0.60812724
0.52192163,4.6808786,-1.4037169,0.91140044,5.470333,-6.7468605,-8.015787,0.60812724
0.52731246,4.6789036,-1.4026517,0.9039436,5.3030868,-7.1873937,-8.307879,0.49320555
0.5327,4.6769156,-1.4026517,0.9039436,5.3030868,-7.1873937,-8.307879,0.49320555
0.53791547,4.674905,-1.4037169,0.897552,5.123057,-7.5704656,-8.695741,0.20111294
0.5431278,4.672883,-1.4037169,0.897552,5.123057,-7.5704656,-8.695741,0.20111294
0.54815555,4.6708355,-1.4090432,0.8900951,4.9334397,-7.6614456,-9.030929,-0.07182605
0.55318,4.668778,-1.4090432,0.8900951,4.9334397,-7.6614456,-9.030929,-0.07182605
0.558004,4.66671,-1.4165001,0.88476884,4.7353005,-7.785944,-9.452309,-0.110133275
0.56282955,4.664629,-1.4165001,0.88476884,4.7353005,-7.785944,-9.452309,-0.110133275
0.567449,4.6625233,-1.4250222,0.8794425,4.535031,-8.030152,-9.77792,-0.320823
0.5720699,4.6604056,-1.4250222,0.8794425,4.535031,-8.030152,-9.77792,-0.320823
0.5764913,4.658271,-1.4314138,0.8677246,4.334761,-8.451532,-10.184934,-0.47405192
0.58091015,4.656125,-1.4314138,0.8677246,4.334761,-8.451532,-10.184934,-0.47405192
0.5851379,4.6539836,-1.4303485,0.84854984,4.1440787,-8.829816,-10.448297,-0.5506664
0.5893629,4.6518316,-1.4303485,0.84854984,4.1440787,-8.829816,-10.448297,-0.5506664
0.59340537,4.6497126,-1.4186306,0.82085294,3.962984,-9.006987,-10.682928,-0.51714754
0.5974448,4.6475844,-1.4186306,0.82085294,3.962984,-9.006987,-10.682928,-0.51714754
0.6013173,4.6455073,-1.39626,0.78463393,3.797868,-9.246407,-10.860099,-0.46926352
0.6051865,4.6434226,-1.39626,0.78463393,3.797868,-9.246407,-10.860099,-0.46926352
0.60889524,4.641421,-1.3589758,0.73989284,3.64447,-9.131485,-10.884041,-0.33997664
0.61259973,4.639413,-1.3589758,0.73989284,3.64447,-9.131485,-10.884041,-0.33997664
0.6161604,4.637503,-1.3046473,0.6919559,3.508116,-9.045294,-10.82658,-0.23942018
0.61971986,4.635585,-1.3046473,0.6919559,3.508116,-9.045294,-10.82658,-0.23942018
0.6231861,4.633759,-1.2354051,0.6429538,3.3845453,-8.825027,-10.635044,-0.17238252
0.62656164,4.631973,-1.2354051,0.6429538,3.3845453,-8.825027,-10.635044,-0.17238252
0.62986994,4.630286,-1.1491187,0.59608215,3.273758,-8.652645,-10.409989,-0.009576807
0.63315314,4.628604,-1.1491187,0.59608215,3.273758,-8.652645,-10.409989,-0.009576807
0.6363468,4.627046,-1.0511143,0.5545368,3.1757536,-8.513782,-10.180145,0.04309563
0.6395357,4.6254826,-1.0511143,0.5545368,3.1757536,-8.513782,-10.180145,0.04309563
0.6426387,4.6240587,-0.9435227,0.51299155,3.092663,-8.331821,-9.892841,0.1436521
0.64573723,4.6226296,-0.9435227,0.51299155,3.092663,-8.331821,-9.892841,0.1436521
0.64876413,4.6213427,-0.8284741,0.474642,3.0180945,-8.130709,-9.581595,0.1340753
0.65178716,4.620051,-0.8284741,0.474642,3.0180945,-8.130709,-9.581595,0.1340753
0.65474224,4.618907,-0.71022975,0.43629247,2.9509828,-7.9008656,-9.270349,0.11971009
0.6576994,4.6177564,-0.71022975,0.43629247,2.9509828,-7.9008656,-9.270349,0.11971009
0.6605985,4.6167517,-0.59305066,0.3990082,2.8934586,-7.632715,-8.901642,0.12449849
0.66349393,4.6157436,-0.59305066,0.3990082,2.8934586,-7.632715,-8.901642,0.12449849
0.6664661,4.6148386,-0.47693685,0.36491975,2.8423257,-7.335834,-8.513782,0.05267244
0.66931486,4.613966,-0.47693685,0.36491975,2.8423257,-7.335834,-8.513782,0.05267244
0.6722386,4.613197,-0.36827987,0.33189657,2.7965195,-7.1107793,-8.183381,0.01436521
0.6748644,4.612502,-0.36827987,0.33189657,2.7965195,-7.1107793,-8.183381,0.01436521
0.6775856,4.6118956,-0.2660145,0.3031344,2.75817,-6.8091097,-7.8146744,-0.04309563
0.6803478,4.6112757,-0.2660145,0.3031344,2.75817,-6.8091097,-7.8146744,-0.04309563
0.68308634,4.6107683,-0.1722712,0.27543753,2.7230163,-6.631939,-7.4603324,-0.023942016
0.6858301,4.6102576,-0.1722712,0.27543753,2.7230163,-6.631939,-7.4603324,-0.023942016
0.6885371,4.609852,-0.08811531,0.25093648,2.6921234,-6.493075,-7.264008,-0.02873042
0.69123596,4.6094446,-0.08811531,0.25093648,2.6921234,-6.493075,-7.264008,-0.02873042
0.6939237,4.609119,-0.015677327,0.23069644,2.662296,-6.445191,-6.943185,-0.009576807
0.69661146,4.6087914,-0.015677327,0.23069644,2.662296,-6.445191,-6.943185,-0.009576807
0.6993058,4.608533,0.04823854,0.21045642,2.6356645,-6.4547677,-6.6271505,0.019153614
0.7019739,4.608276,0.04823854,0.21045642,2.6356645,-6.4547677,-6.6271505,0.019153614
0.70463806,4.608075,0.10150176,0.19234692,2.613294,-6.564901,-6.3829417,0.033518825
0.707314,4.607872,0.10150176,0.19234692,2.613294,-6.564901,-6.3829417,0.033518825
0.70997816,4.607709,0.1451776,0.17317216,2.5962498,-6.6654577,-6.1100025,-0.076614454
0.7126546,4.607545,0.1451776,0.17317216,2.5962498,-6.6654577,-6.1100025,-0.076614454
0.7153195,4.6074185,0.17926607,0.15186687,2.5866623,-6.823475,-5.923255,-0.11492168
0.71800005,4.6072903,0.17926607,0.15186687,2.5866623,-6.823475,-5.923255,-0.11492168
0.7206667,4.6072125,0.20589767,0.12523526,2.5802708,-6.919243,-5.7365074,0
0.7232454,4.607136,0.20589767,0.12523526,2.5802708,-6.919243,-5.7365074,0
0.72590935,4.607107,0.22507244,0.09540785,2.5802708,-6.943185,-5.5880666,0.15801731
0.7286581,4.607076,0.22507244,0.09540785,2.5802708,-6.943185,-5.5880666,0.15801731
0.73132485,4.6070952,0.23785561,0.05918886,2.585597,-6.8905125,-5.449203,0.31124622
0.7339723,4.607114,0.23785561,0.05918886,2.585597,-6.8905125,-5.449203,0.31124622
0.7366467,4.6071777,0.24850826,0.021904606,2.5930538,-6.8330517,-5.3342814,0.39264908
0.7393446,4.6072416,0.24850826,0.021904606,2.5930538,-6.8330517,-5.3342814,0.39264908
0.7420165,4.6073475,0.25489986,-0.018575443,2.6005108,-6.823475,-5.185841,0.51714754
0.7446986,4.6074543,0.25489986,-0.018575443,2.6005108,-6.823475,-5.185841,0.51714754
0.7473862,4.607603,0.25809565,-0.059055492,2.605837,-6.885724,-5.109226,0.6751649
0.7500733,4.607752,0.25809565,-0.059055492,2.605837,-6.885724,-5.109226,0.6751649
0.7527655,4.60794,0.25809565,-0.10060081,2.6090329,-6.9383965,-5.0517654,0.78529817
0.75545996,4.608129,0.25809565,-0.10060081,2.6090329,-6.9383965,-5.0517654,0.78529817
0.7581591,4.60835,0.25489986,-0.14001559,2.6111634,-7.0341644,-5.0278234,0.80445176
0.7608578,4.6085715,0.25489986,-0.14001559,2.6111634,-7.0341644,-5.0278234,0.80445176
0.7635567,4.608819,0.24744299,-0.17410405,2.6090329,-7.120356,-5.0134583,0.8714894
0.76625264,4.609067,0.24744299,-0.17410405,2.6090329,-7.120356,-5.0134583,0.8714894
0.7689508,4.609331,0.23359455,-0.20393145,2.6026413,-7.2209125,-5.118803,0.842759
0.77164304,4.6095963,0.23359455,-0.20393145,2.6026413,-7.2209125,-5.118803,0.842759
0.7743352,4.609871,0.2144198,-0.23162833,2.589858,-7.350199,-5.209783,0.78529817
0.77701914,4.6101456,0.2144198,-0.23162833,2.589858,-7.350199,-5.209783,0.78529817
0.7796942,4.6104255,0.18991871,-0.2593252,2.5738792,-7.383718,-5.3247046,0.6703765
0.7823687,4.6107063,0.18991871,-0.2593252,2.5738792,-7.383718,-5.3247046,0.6703765
0.78502285,4.6109877,0.15796077,-0.28595683,2.5536392,-7.4603324,-5.48751,0.6751649
0.7876759,4.6112714,0.15796077,-0.28595683,2.5536392,-7.4603324,-5.48751,0.6751649
0.79030734,4.611546,0.12174179,-0.30939263,2.529138,-7.503428,-5.5976434,0.60333884
0.7929381,4.6118226,0.12174179,-0.30939263,2.529138,-7.503428,-5.5976434,0.60333884
0.79554474,4.612087,0.08019647,-0.334959,2.500376,-7.608773,-5.683835,0.5315128
0.7981511,4.6123524,0.08019647,-0.334959,2.500376,-7.608773,-5.683835,0.5315128
0.80072635,4.6126122,0.039716423,-0.3615906,2.4694831,-7.6470804,-5.779603,0.5267244
0.80330116,4.612874,0.039716423,-0.3615906,2.4694831,-7.6470804,-5.779603,0.5267244
0.80583674,4.613134,-0.0007636249,-0.38928747,2.4343295,-7.73806,-5.865794,0.6607997
0.80837125,4.6133966,-0.0007636249,-0.38928747,2.4343295,-7.73806,-5.865794,0.6607997
0.81086606,4.6136575,-0.04017841,-0.41698435,2.39598,-7.762002,-5.8945246,0.7469909
0.8133599,4.6139207,-0.04017841,-0.41698435,2.39598,-7.762002,-5.8945246,0.7469909
0.8158131,4.614182,-0.07426687,-0.44042018,2.3544347,-7.867347,-5.9663506,0.78050977
0.8182654,4.6144457,-0.07426687,-0.44042018,2.3544347,-7.867347,-5.9663506,0.78050977
0.82066613,4.614709,-0.104094274,-0.4574644,2.307563,-7.953538,-6.1195793,0.866701
0.8230657,4.614975,-0.104094274,-0.4574644,2.307563,-7.953538,-6.1195793,0.866701
0.8254068,4.6152363,-0.13179116,-0.4691823,2.2532346,-8.0445175,-6.291962,0.91458505
0.8277469,4.6155005,-0.13179116,-0.4691823,2.2532346,-8.0445175,-6.291962,0.91458505
0.8300234,4.61575,-0.16055329,-0.47131285,2.194645,-8.255207,-6.5696893,0.93852705
0.83229876,4.6160016,-0.16055329,-0.47131285,2.194645,-8.255207,-6.5696893,0.93852705
0.83449656,4.616234,-0.1871849,-0.46492124,2.1317945,-8.465898,-7.0485296,1.0390835
0.8366931,4.616469,-0.1871849,-0.46492124,2.1317945,-8.465898,-7.0485296,1.0390835
0.8388492,4.6166754,-0.21168599,-0.45000756,2.061487,-8.676587,-7.2113357,0.94331545
0.8412501,4.616909,-0.21168599,-0.45000756,2.061487,-8.676587,-7.2113357,0.94331545
0.8431167,4.617014,-0.2383176,-0.42870227,1.9879837,-9.323022,-6.3781533,0.33039984
0.8455057,4.617152,-0.2383176,-0.42870227,1.9879837,-9.323022,-6.3781533,0.33039984
0.8455057,4.617152,-0.2383176,-0.42870227,1.9879837,-9.323022,-6.3781533,0.33039984
0.84971017,4.6174064,-0.28412396,-0.41059276,1.8995668,-8.317456,-8.51857,1.3359646
0.8509045,4.61743,-0.33312613,-0.37756956,1.8004972,-8.848969,-9.849746,1.8100165
0.8528223,4.61747,-0.33312613,-0.37756956,1.8004972,-8.848969,-9.849746,1.8100165
0.8543217,4.6174393,-0.35443142,-0.32643688,1.7024928,-9.476251,-10.524911,1.5849615
0.85597414,4.617408,-0.35443142,-0.32643688,1.7024928,-9.476251,-10.524911,1.5849615
0.85754734,4.6173463,-0.3491051,-0.28169575,1.5991622,-10.520123,-10.702082,1.1348516
0.85912,4.617285,-0.3491051,-0.28169575,1.5991622,-10.520123,-10.702082,1.1348516
0.86065507,4.617222,-0.33099562,-0.24867256,1.4926357,-11.645397,-9.753978,0.023942016
0.86218774,4.617161,-0.33099562,-0.24867256,1.4926357,-11.645397,-9.753978,0.023942016
0.8636644,4.6170874,-0.3256693,-0.23908518,1.385044,-12.081141,-9.763555,-0.35434186
0.8651238,4.617017,-0.3256693,-0.23908518,1.385044,-12.081141,-9.763555,-0.35434186
0.8664146,4.6169806,-0.3395177,-0.25186837,1.272126,-11.923124,-10.16578,-0.25857377
0.8677063,4.6169453,-0.3395177,-0.25186837,1.272126,-11.923124,-10.16578,-0.25857377
0.86881465,4.616916,-0.3618883,-0.2742389,1.1453595,-11.640609,-10.79785,0.01436521
0.86992157,4.6168876,-0.3618883,-0.2742389,1.1453595,-11.640609,-10.79785,0.01436521
0.8708652,4.616866,-0.3821283,-0.29874,1.0047446,-11.233594,-11.190498,0.095768064
0.87180793,4.616845,-0.3821283,-0.29874,1.0047446,-11.233594,-11.190498,0.095768064
0.8725779,4.616835,-0.39597675,-0.31898,0.84495497,-10.927136,-11.631032,0.08140286
0.87334424,4.6168256,-0.39597675,-0.31898,0.84495497,-10.927136,-11.631032,0.08140286
0.87392443,4.616838,-0.40556413,-0.33922005,0.6627947,-10.654198,-11.990162,0.05267244
0.87450445,4.6168513,-0.40556413,-0.33922005,0.6627947,-10.654198,-11.990162,0.05267244
0.8748832,4.61689,-0.41089043,-0.355199,0.45932922,-10.529699,-12.306197,-0.062249243
0.8752485,4.616927,-0.41089043,-0.355199,0.45932922,-10.529699,-12.306197,-0.062249243
0.8753915,4.6169906,-0.41089043,-0.36691692,0.23562367,-10.510546,-12.454638,-0.2825158
0.87553453,4.617054,-0.41089043,-0.36691692,0.23562367,-10.510546,-12.454638,-0.2825158
0.8754349,4.6171446,-0.41089043,-0.3765043,-0.004060829,-10.496181,-12.411542,-0.48362875
0.8753351,4.617234,-0.41089043,-0.3765043,-0.004060829,-10.496181,-12.411542,-0.48362875
0.8749774,4.617348,-0.4119557,-0.391418,-0.2597243,-10.429143,-12.320562,-0.78529817
0.87461853,4.617462,-0.4119557,-0.391418,-0.2597243,-10.429143,-12.320562,-0.78529817
0.8739968,4.6176066,-0.4183473,-0.40739697,-0.5228446,-10.28549,-12.253524,-0.91937345
0.87337244,4.617751,-0.4183473,-0.40739697,-0.5228446,-10.28549,-12.253524,-0.91937345
0.8724674,4.6179256,-0.4268694,-0.42763698,-0.7955523,-10.16578,-12.133814,-1.1348516
0.8715845,4.6180944,-0.4268694,-0.42763698,-0.7955523,-10.16578,-12.133814,-1.1348516
0.87042904,4.6182933,-0.433261,-0.44894227,-1.0735863,-10.070012,-11.81778,-1.3215994
0.8692678,4.6184907,-0.433261,-0.44894227,-1.0735863,-10.070012,-11.81778,-1.3215994
0.8678302,4.618729,-0.43752205,-0.4723781,-1.3516203,-9.998186,-11.506534,-1.4173675
0.8663866,4.618965,-0.43752205,-0.4723781,-1.3516203,-9.998186,-11.506534,-1.4173675
0.8646815,4.619228,-0.4396526,-0.4936834,-1.6232628,-9.888053,-11.109096,-1.6041151
0.86298656,4.6194854,-0.4396526,-0.4936834,-1.6232628,-9.888053,-11.109096,-1.6041151
0.8610192,4.619778,-0.43752205,-0.50966233,-1.8927747,-9.873688,-10.697293,-1.6136919
0.8590583,4.6200647,-0.43752205,-0.50966233,-1.8927747,-9.873688,-10.697293,-1.6136919
0.8568436,4.62038,-0.43219572,-0.520315,-2.155895,-9.782708,-10.323798,-1.6376339
0.85461867,4.620691,-0.43219572,-0.520315,-2.155895,-9.782708,-10.323798,-1.6376339
0.8521637,4.621041,-0.4215431,-0.5256413,-2.406232,-9.56723,-10.084377,-1.5370775
0.84969723,4.621386,-0.4215431,-0.5256413,-2.406232,-9.56723,-10.084377,-1.5370775
0.84699166,4.6217737,-0.40449885,-0.5235108,-2.6437862,-9.409213,-9.945514,-1.412579
0.8442678,4.6221566,-0.40449885,-0.5235108,-2.6437862,-9.409213,-9.945514,-1.412579
0.8413539,4.62255,-0.38106304,-0.51072764,-2.8653612,-9.251195,-9.725247,-1.4652514
0.8384353,4.622936,-0.38106304,-0.51072764,-2.8653612,-9.251195,-9.725247,-1.4652514
0.8353058,4.6233406,-0.35336617,-0.4872918,-3.0730877,-9.064447,-9.639056,-1.436521
0.8321749,4.6237364,-0.35336617,-0.4872918,-3.0730877,-9.064447,-9.639056,-1.436521
0.8288407,4.624147,-0.32460403,-0.45213807,-3.2659006,-8.935161,-9.715671,-1.3694834
0.8255046,4.624549,-0.32460403,-0.45213807,-3.2659006,-8.935161,-9.715671,-1.3694834
0.82196456,4.6249704,-0.29477662,-0.40739697,-3.4501913,-8.820239,-9.80665,-1.1827357
0.8184427,4.6253815,-0.29477662,-0.40739697,-3.4501913,-8.820239,-9.80665,-1.1827357
0.8147199,4.6258,-0.2628187,-0.35413375,-3.6302211,-8.791509,-9.931149,-1.0534488
0.8109975,4.62621,-0.2628187,-0.35413375,-3.6302211,-8.791509,-9.931149,-1.0534488
0.8070887,4.6266317,-0.23405655,-0.2923484,-3.8081203,-8.604761,-10.0987425,-0.81881696
0.8031798,4.6270466,-0.23405655,-0.2923484,-3.8081203,-8.604761,-10.0987425,-0.81881696
0.799087,4.627448,-0.21062072,-0.21991043,-3.9902804,-8.542512,-10.228029,-0.60812724
0.7949943,4.6278443,-0.21062072,-0.21991043,-3.9902804,-8.542512,-10.228029,-0.60812724
0.7906961,4.628192,-0.19357648,-0.1368198,-4.178832,-8.6095495,-10.31901,-0.5554548
0.7864236,4.628534,-0.19357648,-0.1368198,-4.178832,-8.6095495,-10.31901,-0.5554548
0.7819324,4.6288033,-0.1871849,-0.04946811,-4.3769712,-8.78672,-10.366894,-0.61291564
0.77744156,4.62907,-0.1871849,-0.04946811,-4.3769712,-8.78672,-10.366894,-0.61291564
0.77273357,4.62924,-0.19464175,0.037883572,-4.587894,-8.916007,-10.251971,-0.7278373
0.7680166,4.629409,-0.19464175,0.037883572,-4.587894,-8.916007,-10.251971,-0.7278373
0.76307416,4.6294394,-0.21807757,0.12630053,-4.8094687,-9.150639,-10.309433,-0.90021986
0.7581323,4.6294656,-0.21807757,0.12630053,-4.8094687,-9.150639,-10.309433,-0.90021986
0.75297767,4.6293325,-0.2596229,0.21258694,-5.03424,-9.299079,-10.409989,-1.043872
0.7478289,4.6291904,-0.2596229,0.21258694,-5.03424,-9.299079,-10.409989,-1.043872
0.7424883,4.6288934,-0.31714717,0.29354703,-5.2632713,-9.414001,-10.357317,-1.0726024
0.73717254,4.6285853,-0.31714717,0.29354703,-5.2632713,-9.414001,-10.357317,-1.0726024
0.7316742,4.628151,-0.3853241,0.36811554,-5.495499,-9.476251,-10.342952,-1.1492168
0.726203,4.6277213,-0.3853241,0.36811554,-5.495499,-9.476251,-10.342952,-1.1492168
0.720514,4.6271863,-0.46202314,0.42990088,-5.7298574,-9.452309,-10.237606,-1.2401965
0.71484166,4.626661,-0.46202314,0.42990088,-5.7298574,-9.452309,-10.237606,-1.2401965
0.708987,4.626076,-0.5440485,0.4799683,-5.9684763,-9.3421755,-10.093954,-1.0486604
0.7031092,4.6255026,-0.5440485,0.4799683,-5.9684763,-9.3421755,-10.093954,-1.0486604
0.69702435,4.6248665,-0.6250086,0.5257747,-6.2070956,-9.217676,-9.983821,-0.94810385
0.69092816,4.624237,-0.6250086,0.5257747,-6.2070956,-9.217676,-9.983821,-0.94810385
0.6845843,4.623596,-0.70170766,0.5705158,-6.4446497,-9.102755,-9.92636,-0.61770403
0.6782366,4.6229534,-0.70170766,0.5705158,-6.4446497,-9.102755,-9.92636,-0.61770403
0.6716382,4.6222525,-0.7720151,0.61206114,-6.6800733,-8.892065,-9.758766,-0.39264908
0.6650302,4.6215496,-0.7720151,0.61206114,-6.6800733,-8.892065,-9.758766,-0.39264908
0.6581885,4.6208024,-0.82953936,0.6493454,-6.9080396,-8.853758,-9.864111,-0.090979666
0.65132374,4.6200523,-0.82953936,0.6493454,-6.9080396,-8.853758,-9.864111,-0.090979666
0.64423835,4.619262,-0.87428045,0.68556434,-7.13068,-8.748413,-9.902418,0.20111294
0.6371427,4.618472,-0.87428045,0.68556434,-7.13068,-8.748413,-9.902418,0.20111294
0.62969637,4.6176405,-0.9009121,0.7207181,-7.340537,-8.719683,-10.022128,0.5650316
0.6225171,4.6168404,-0.9009121,0.7207181,-7.340537,-8.719683,-10.022128,0.5650316
0.61500025,4.616012,-0.9136953,0.74948025,-7.5397415,-8.767567,-10.127473,0.81402856
0.6074866,4.6151857,-0.9136953,0.74948025,-7.5397415,-8.767567,-10.127473,0.81402856
0.5997873,4.614363,-0.9094342,0.77398133,-7.722967,-8.920795,-10.204087,1.0773908
0.59209085,4.6135426,-0.9094342,0.77398133,-7.722967,-8.920795,-10.204087,1.0773908
0.58424544,4.6127443,-0.89025944,0.7931561,-7.884887,-9.016563,-10.242394,1.3311762
0.5763632,4.611945,-0.89025944,0.7931561,-7.884887,-9.016563,-10.242394,1.3311762
0.5683252,4.6111856,-0.85404044,0.8038087,-8.023372,-9.016563,-10.070012,1.5945383
0.56035346,4.6104336,-0.85404044,0.8038087,-8.023372,-9.016563,-10.070012,1.5945383
0.55227077,4.609739,-0.80290776,0.809135,-8.135224,-9.112331,-10.01734,1.7860745
0.54416573,4.6090436,-0.80290776,0.809135,-8.135224,-9.112331,-10.01734,1.7860745
0.5359756,4.6084175,-0.7389919,0.8112656,-8.220446,-9.212888,-9.9790325,1.9919758
0.5277872,4.607793,-0.7389919,0.8112656,-8.220446,-9.212888,-9.9790325,1.9919758
0.51953834,4.607251,-0.6633581,0.81020033,-8.27797,-8.968679,-9.969456,2.1021092
0.51129097,4.6067104,-0.6633581,0.81020033,-8.27797,-8.968679,-9.969456,2.1021092
0.502974,4.6062546,-0.57920223,0.8112656,-8.312058,-8.959103,-10.0987425,2.2936451
0.4947082,4.605802,-0.57920223,0.8112656,-8.312058,-8.959103,-10.0987425,2.2936451
0.486426,4.605439,-0.48972002,0.81446135,-8.326972,-8.892065,-10.299856,2.3223755
0.47812864,4.6050754,-0.48972002,0.81446135,-8.326972,-8.892065,-10.299856,2.3223755
0.46983263,4.6047983,-0.4002378,0.8187224,-8.326972,-8.935161,-10.5919485,2.183512
0.46153808,4.604521,-0.4002378,0.8187224,-8.326972,-8.935161,-10.5919485,2.183512
0.45326054,4.604328,-0.31182083,0.8197877,-8.313124,-8.987833,-10.941502,1.9488802
0.44498438,4.6041346,-0.31182083,0.8197877,-8.313124,-8.987833,-10.941502,1.9488802
0.4366988,4.6040225,-0.2265997,0.81446135,-8.288623,-9.054871,-11.247959,1.5466543
0.42848882,4.6039095,-0.2265997,0.81446135,-8.288623,-9.054871,-11.247959,1.5466543
0.42029765,4.603873,-0.14990065,0.8016782,-8.252403,-9.169792,-11.63582,1.2162545
0.41207504,4.603833,-0.14990065,0.8016782,-8.252403,-9.169792,-11.63582,1.2162545
0.40395987,4.603862,-0.08278899,0.77930766,-8.203402,-9.188946,-11.87524,0.8379706
0.3958132,4.6038876,-0.08278899,0.77930766,-8.203402,-9.188946,-11.87524,0.8379706
0.3877487,4.6039724,-0.027395237,0.7462844,-8.148007,-9.088389,-11.980585,0.45968673
0.37967697,4.604054,-0.027395237,0.7462844,-8.148007,-9.088389,-11.980585,0.45968673
0.37167677,4.604189,0.017345872,0.7004781,-8.086223,-8.853758,-12.129025,0.1436521
0.36367726,4.6043205,0.017345872,0.7004781,-8.086223,-8.853758,-12.129025,0.1436521
0.35575137,4.6044984,0.05356486,0.6450843,-8.023372,-8.461109,-12.038046,-0.15801731
0.3478261,4.6046724,0.05356486,0.6450843,-8.023372,-8.461109,-12.038046,-0.15801731
0.33997533,4.6048756,0.07806595,0.5886253,-7.9615865,-8.030152,-11.990162,-0.5650316
0.3321249,4.605075,0.07806595,0.5886253,-7.9615865,-8.030152,-11.990162,-0.5650316
0.324342,4.6052957,0.09404491,0.5321663,-7.9040623,-7.7189064,-11.880029,-0.82360536
0.3165592,4.605512,0.09404491,0.5321663,-7.9040623,-7.7189064,-11.880029,-0.82360536
0.30883795,4.605739,0.102567025,0.47677252,-7.851864,-7.2304893,-11.702858,-1.0965444
0.3011089,4.6059623,0.102567025,0.47677252,-7.851864,-7.2304893,-11.702858,-1.0965444
0.29331177,4.606193,0.102567025,0.42563984,-7.811384,-6.8330517,-11.51611,-1.2162545
0.28511545,4.6064315,0.102567025,0.42563984,-7.811384,-6.8330517,-11.51611,-1.2162545
0.27798137,4.606635,0.09511018,0.37983346,-7.7804914,-6.4882865,-11.372458,-1.3311762
0.27027434,4.6068506,0.09511018,0.37983346,-7.7804914,-6.4882865,-11.372458,-1.3311762
0.26280433,4.607045,0.07806595,0.33722287,-7.761317,-6.2871737,-11.257536,-1.436521
0.2551439,4.60724,0.07806595,0.33722287,-7.761317,-6.2871737,-11.257536,-1.436521
0.24761018,4.607414,0.05356486,0.2978081,-7.7527943,-5.9998693,-11.224017,-1.4173675
0.24003074,4.607584,0.05356486,0.2978081,-7.7527943,-5.9998693,-11.224017,-1.4173675
0.23243454,4.6077204,0.022672193,0.25519753,-7.7506638,-5.6407394,-11.128249,-1.5658079
0.22483827,4.607853,0.022672193,0.25519753,-7.7506638,-5.6407394,-11.128249,-1.5658079
0.21722563,4.6079507,-0.014612063,0.21258694,-7.7559905,-5.401319,-11.061212,-1.5945383
0.20963573,4.608044,-0.014612063,0.21258694,-7.7559905,-5.401319,-11.061212,-1.5945383
0.20202346,4.608093,-0.058287904,0.16997637,-7.766643,-5.195418,-10.941502,-1.6807296
0.1944418,4.6081367,-0.058287904,0.16997637,-7.766643,-5.195418,-10.941502,-1.6807296
0.18573616,4.608136,-0.104094274,0.12630053,-7.7762303,-4.9559975,-10.79785,-1.6759412
0.1789331,4.6081324,-0.104094274,0.12630053,-7.7762303,-4.9559975,-10.79785,-1.6759412
0.17145102,4.6080756,-0.15522698,0.08049415,-7.7815566,-4.7309427,-10.606314,-1.7477672
0.16307114,4.6080065,-0.15522698,0.08049415,-7.7815566,-4.7309427,-10.606314,-1.7477672
0.15504324,4.60788,-0.2052944,0.03681831,-7.7815566,-4.3287168,-10.443508,-1.8291701
0.14819537,4.607768,-0.2052944,0.03681831,-7.7815566,-4.3287168,-10.443508,-1.8291701
0.14095597,4.6075997,-0.25429657,-0.0068575335,-7.7719693,-4.0557775,-10.170568,-1.8483237
0.13335271,4.607418,-0.25429657,-0.0068575335,-7.7719693,-4.0557775,-10.170568,-1.8483237
0.12599203,4.607197,-0.29903767,-0.044141788,-7.7527943,-3.7445314,-9.945514,-1.7717092
0.11842008,4.606964,-0.29903767,-0.044141788,-7.7527943,-3.7445314,-9.945514,-1.7717092
0.110911556,4.606688,-0.340583,-0.07396919,-7.722967,-3.5338416,-9.706094,-1.7046716
0.10335109,4.606405,-0.340583,-0.07396919,-7.722967,-3.5338416,-9.706094,-1.7046716
0.09588548,4.60609,-0.37360618,-0.09847028,-7.6771607,-3.2752678,-9.485827,-1.5658079
0.08836071,4.6057673,-0.37360618,-0.09847028,-7.6771607,-3.2752678,-9.485827,-1.5658079
0.08097964,4.6054187,-0.39917254,-0.11338398,-7.617506,-2.9735985,-9.313444,-1.4652514
0.07354728,4.605062,-0.39917254,-0.11338398,-7.617506,-2.9735985,-9.313444,-1.4652514
0.066207804,4.604681,-0.42473888,-0.122971356,-7.541872,-2.8538885,-9.232041,-1.3359646
0.058868833,4.604295,-0.42473888,-0.122971356,-7.541872,-2.8538885,-9.232041,-1.3359646
0.051601708,4.6038814,-0.4481747,-0.12829769,-7.449194,-2.7868507,-9.193734,-1.2545617
0.044364065,4.6034636,-0.4481747,-0.12829769,-7.449194,-2.7868507,-9.193734,-1.2545617
0.03721433,4.6030035,-0.47054526,-0.13042821,-7.344798,-2.753332,-9.136273,-1.4700398
0.03006529,4.6025376,-0.47054526,-0.13042821,-7.344798,-2.753332,-9.136273,-1.4700398
0.02303947,4.6020417,-0.49398106,-0.12936294,-7.2212276,-2.8682537,-8.992621,-1.4939818
0.016014274,4.60154,-0.49398106,-0.12936294,-7.2212276,-2.8682537,-8.992621,-1.4939818
0.009126674,4.600991,-0.521678,-0.13149348,-7.0795474,-3.040636,-8.834604,-1.8435353
0.002233097,4.6004353,-0.521678,-0.13149348,-7.0795474,-3.040636,-8.834604,-1.8435353
6.2786894,4.59983,-0.55470115,-0.13895033,-6.924019,-3.0597897,-8.470686,-2.135628
6.2719483,4.5992184,-0.55470115,-0.13895033,-6.924019,-3.0597897,-8.470686,-2.135628
6.2653913,4.598554,-0.59518117,-0.15386403,-6.7493153,-2.825158,-8.130709,-2.255338
6.258829,4.5978837,-0.59518117,-0.15386403,-6.7493153,-2.825158,-8.130709,-2.255338
6.252439,4.597145,-0.64418334,-0.1730388,-6.5565023,-2.3558946,-7.8529816,-2.3942018
6.246063,4.5964036,-0.64418334,-0.1730388,-6.5565023,-2.3558946,-7.8529816,-2.3942018
6.2398896,4.5955863,-0.70064235,-0.19327882,-6.3551674,-1.5849615,-7.4603324,-2.456451
6.2338724,4.5947847,-0.70064235,-0.19327882,-6.3551674,-1.5849615,-7.4603324,-2.456451
6.2278657,4.5938807,-0.763493,-0.21351884,-6.148506,-0.9720459,-7.129933,-2.3702598
6.2216935,4.5929465,-0.763493,-0.21351884,-6.148506,-0.9720459,-7.129933,-2.3702598
6.2152853,4.5918584,-0.82740885,-0.2326936,-5.9365187,-0.51235914,-6.6750345,-2.2936451
6.2101107,4.590975,-0.82740885,-0.2326936,-5.9365187,-0.51235914,-6.6750345,-2.2936451
6.204513,4.589914,-0.8913247,-0.24867256,-5.727727,-0.21068975,-6.3350577,-2.1068976
6.1988573,4.5888357,-0.8913247,-0.24867256,-5.727727,-0.21068975,-6.3350577,-2.1068976
6.1934543,4.5876975,-0.9552406,-0.26145574,-5.5178695,0.20590134,-6.05733,-1.9009962
6.1880555,4.5865545,-0.9552406,-0.26145574,-5.5178695,0.20590134,-6.05733,-1.9009962
6.1827917,4.585338,-1.0148954,-0.27104312,-5.305882,0.6943185,-5.741296,-1.7142484
6.177548,4.5841203,-1.0148954,-0.27104312,-5.305882,0.6943185,-5.741296,-1.7142484
6.1724753,4.582858,-1.0681586,-0.27849996,-5.091764,1.1683705,-5.530606,-1.541866
6.167396,4.581587,-1.0681586,-0.27849996,-5.091764,1.1683705,-5.530606,-1.541866
6.1624875,4.580283,-1.1160955,-0.27849996,-4.8808417,1.6519991,-5.3007627,-1.4700398
6.1576157,4.578983,-1.1160955,-0.27849996,-4.8808417,1.6519991,-5.3007627,-1.4700398
6.1528974,4.5776534,-1.1587061,-0.27530417,-4.6720495,2.078167,-5.118803,-1.3072342
6.147992,4.5762653,-1.1587061,-0.27530417,-4.6720495,2.078167,-5.118803,-1.3072342
6.143389,4.5748835,-1.1981208,-0.2657168,-4.4696493,2.4277205,-4.936844,-1.1875241
6.1385846,4.5734353,-1.1981208,-0.2657168,-4.4696493,2.4277205,-4.936844,-1.1875241
6.1346965,4.572189,-1.2332746,-0.25293362,-4.274706,2.7820623,-4.7979803,-1.13964
6.130424,4.570815,-1.2332746,-0.25293362,-4.274706,2.7820623,-4.7979803,-1.13964
6.1262774,4.569393,-1.263102,-0.23801991,-4.0850887,3.0071173,-4.5058875,-1.1683705
6.12212,4.567962,-1.263102,-0.23801991,-4.0850887,3.0071173,-4.5058875,-1.1683705
6.1181636,4.566524,-1.2886684,-0.22204095,-3.9007983,3.2848446,-4.3287168,-1.0630256
6.1142,4.5650787,-1.2886684,-0.22204095,-3.9007983,3.2848446,-4.3287168,-1.0630256
6.1104274,4.5636187,-1.3110389,-0.20712726,-3.722899,3.4237084,-4.2185836,-1.1013328
6.1066175,4.5621405,-1.3110389,-0.20712726,-3.722899,3.4237084,-4.2185836,-1.1013328
6.103017,4.560664,-1.3291484,-0.19114828,-3.5481956,3.514688,-4.0557775,-1.0726024
6.0994134,4.559182,-1.3291484,-0.19114828,-3.5481956,3.514688,-4.0557775,-1.0726024
6.095962,4.557691,-1.3419316,-0.17943038,-3.376688,3.6487634,-3.9360676,-0.94331545
6.0925083,4.5561953,-1.3419316,-0.17943038,-3.376688,3.6487634,-3.9360676,-0.94331545
6.0892324,4.5547094,-1.3472579,-0.16771246,-3.2083764,3.7828386,-3.8163576,-0.78529817
6.0859637,4.553224,-1.3472579,-0.16771246,-3.2083764,3.7828386,-3.8163576,-0.78529817
6.082852,4.5517454,-1.3451273,-0.15705982,-3.0443256,3.9456444,-3.6870706,-0.6991069
6.0797405,4.550264,-1.3451273,-0.15705982,-3.0443256,3.9456444,-3.6870706,-0.6991069
6.0767913,4.5488043,-1.3323442,-0.14853771,-2.8824053,4.10845,-3.6343982,-0.5793968
6.073843,4.5473423,-1.3323442,-0.14853771,-2.8824053,4.10845,-3.6343982,-0.5793968
6.0710506,4.5459003,-1.3131695,-0.14108086,-2.7226157,4.1946416,-3.5865142,-0.6751649
6.0682626,4.5444574,-1.3131695,-0.14108086,-2.7226157,4.1946416,-3.5865142,-0.6751649
6.065618,4.5430384,-1.2886684,-0.13149348,-2.570283,4.3622355,-3.5194764,-0.7469909
6.0629797,4.5416203,-1.2886684,-0.13149348,-2.570283,4.3622355,-3.5194764,-0.7469909
6.06048,4.540233,-1.2556452,-0.122971356,-2.4232764,4.572925,-3.4715924,-0.8571242
6.0579886,4.538849,-1.2556452,-0.122971356,-2.4232764,4.572925,-3.4715924,-0.8571242
6.0556235,4.537497,-1.2204914,-0.11231872,-2.2837267,4.663905,-3.490746,-0.94331545
6.0532637,4.5361466,-1.2204914,-0.11231872,-2.2837267,4.663905,-3.490746,-0.94331545
6.05103,4.534834,-1.1853377,-0.10060081,-2.1537645,4.7788267,-3.4763808,-1.0390835
6.0487995,4.533521,-1.1853377,-0.10060081,-2.1537645,4.7788267,-3.4763808,-1.0390835
6.046685,4.532245,-1.1480534,-0.091013424,-2.0291286,4.7500963,-3.53863,-1.163582
6.0445757,4.53097,-1.1480534,-0.091013424,-2.0291286,4.7500963,-3.53863,-1.163582
6.042574,4.52973,-1.1128997,-0.08249131,-1.91408,4.783615,-3.5434184,-1.2497733
6.0405784,4.5284925,-1.1128997,-0.08249131,-1.91408,4.783615,-3.5434184,-1.2497733
6.03868,4.5272856,-1.0798765,-0.07609972,-1.8064883,4.697424,-3.5865142,-1.3072342
6.036771,4.52607,-1.0798765,-0.07609972,-1.8064883,4.697424,-3.5865142,-1.3072342
6.03493,4.5248656,-1.0489838,-0.0707734,-1.7031577,4.5394063,-3.620033,-1.3934253
6.0331616,4.5237064,-1.0489838,-0.0707734,-1.7031577,4.5394063,-3.620033,-1.3934253
6.0314856,4.5225816,-1.017026,-0.06757761,-1.6072838,4.4196963,-3.6727054,-1.4221559
6.029798,4.521447,-1.017026,-0.06757761,-1.6072838,4.4196963,-3.6727054,-1.4221559
6.028195,4.520341,-0.98719853,-0.06864287,-1.5146059,4.3239284,-3.6870706,-1.4221559
6.0265794,4.519225,-0.98719853,-0.06864287,-1.5146059,4.3239284,-3.6870706,-1.4221559
6.025063,4.518146,-0.9573711,-0.07183866,-1.4240583,4.2281604,-3.7445314,-1.4508862
6.0235467,4.5170665,-0.9573711,-0.07183866,-1.4240583,4.2281604,-3.7445314,-1.4508862
6.022114,4.5160246,-0.9254132,-0.077164985,-1.3388371,4.1276035,-3.8307228,-1.340753
6.0206823,4.5149827,-0.9254132,-0.077164985,-1.3388371,4.1276035,-3.8307228,-1.340753
6.0193286,4.513974,-0.89025944,-0.08462184,-1.2557466,4.0892963,-3.8594532,-1.3263878
6.0179768,4.512966,-0.89025944,-0.08462184,-1.2557466,4.0892963,-3.8594532,-1.3263878
6.0167146,4.512003,-0.85190994,-0.09207869,-1.1747864,4.0653543,-3.9073372,-1.3742718
6.0154467,4.511034,-0.85190994,-0.09207869,-1.1747864,4.0653543,-3.9073372,-1.3742718
6.014253,4.5101123,-0.8103646,-0.09953554,-1.0991527,3.9695864,-3.9456444,-1.2689269
6.0130625,4.5091915,-0.8103646,-0.09953554,-1.0991527,3.9695864,-3.9456444,-1.2689269
6.011943,4.508317,-0.767754,-0.106992394,-1.0267147,3.940856,-4.0462008,-1.2258313
6.0108237,4.5074415,-0.767754,-0.106992394,-1.0267147,3.940856,-4.0462008,-1.2258313
6.009773,4.506613,-0.7230129,-0.11444924,-0.9596031,3.8833952,-4.1276035,-1.2401965
6.00872,4.505782,-0.7230129,-0.11444924,-0.9596031,3.8833952,-4.1276035,-1.2401965
6.007731,4.504998,-0.6772066,-0.12084083,-0.8967524,3.7780502,-4.2281604,-1.2593501
6.00674,4.504213,-0.6772066,-0.12084083,-0.8967524,3.7780502,-4.2281604,-1.2593501
6.0058074,4.5034714,-0.63140017,-0.1251019,-0.84135866,3.6870706,-4.31914,-1.3551182
6.0048738,4.5027285,-0.63140017,-0.1251019,-0.84135866,3.6870706,-4.31914,-1.3551182
6.003993,4.5020275,-0.5855938,-0.13042821,-0.790226,3.5865142,-4.3622355,-1.4508862
6.0031133,4.501326,-0.5855938,-0.13042821,-0.790226,3.5865142,-4.3622355,-1.4508862
6.0022798,4.5006695,-0.53872216,-0.13895033,-0.7412238,3.5817258,-4.4580035,-1.460463
6.0014486,4.500014,-0.53872216,-0.13895033,-0.7412238,3.5817258,-4.4580035,-1.460463
6.000664,4.4993896,-0.49504632,-0.14534192,-0.6964827,3.514688,-4.5154643,-1.6567876
5.999882,4.498766,-0.49504632,-0.14534192,-0.6964827,3.514688,-4.5154643,-1.6567876
5.9991407,4.498182,-0.45137048,-0.15386403,-0.65706795,3.41892,-4.582502,-1.685518
5.9983997,4.4975977,-0.45137048,-0.15386403,-0.65706795,3.41892,-4.582502,-1.685518
5.9976935,4.4970536,-0.41089043,-0.1634514,-0.62297946,3.41892,-4.630386,-1.6807296
5.996988,4.4965096,-0.41089043,-0.1634514,-0.62297946,3.41892,-4.630386,-1.6807296
5.996313,4.4960003,-0.37254092,-0.1730388,-0.59421736,3.3662477,-4.6830587,-1.7046716
5.9956374,4.4954896,-0.37254092,-0.1730388,-0.59421736,3.3662477,-4.6830587,-1.7046716
5.994989,4.4950204,-0.33525667,-0.1815609,-0.56865096,3.3279405,-4.76925,-1.6472107
5.99434,4.4945507,-0.33525667,-0.1815609,-0.56865096,3.3279405,-4.76925,-1.6472107
5.993718,4.494118,-0.29584187,-0.18795249,-0.54414994,3.289633,-4.7979803,-1.6663644
5.9930954,4.493685,-0.29584187,-0.18795249,-0.54414994,3.289633,-4.7979803,-1.6663644
5.9924946,4.493292,-0.2596229,-0.19327882,-0.52177936,3.2273839,-4.9081135,-1.6041151
5.991894,4.492899,-0.2596229,-0.19327882,-0.52177936,3.2273839,-4.9081135,-1.6041151
5.9913125,4.4925365,-0.2265997,-0.19647461,-0.50366986,3.1603463,-4.9559975,-1.6232687
5.9907312,4.4921737,-0.2265997,-0.19647461,-0.50366986,3.1603463,-4.9559975,-1.6232687
5.990168,4.4918437,-0.19251123,-0.19860514,-0.48662564,3.0789435,-5.046977,-1.6280571
5.989605,4.4915137,-0.19251123,-0.19860514,-0.48662564,3.0789435,-5.046977,-1.6280571
5.989061,4.4912157,-0.15842277,-0.1996704,-0.46851614,3.040636,-5.085284,-1.6519991
5.9885173,4.4909177,-0.15842277,-0.1996704,-0.46851614,3.040636,-5.085284,-1.6519991
5.987997,4.490645,-0.12539956,-0.20180093,-0.44934136,3.0454245,-5.185841,-1.757344
5.987477,4.4903727,-0.12539956,-0.20180093,-0.44934136,3.0454245,-5.185841,-1.757344
5.986978,4.490134,-0.09024584,-0.20180093,-0.42910135,3.074155,-5.161899,-1.8052281
5.9864793,4.489895,-0.09024584,-0.20180093,-0.42910135,3.074155,-5.161899,-1.8052281
5.986003,4.4896884,-0.058287904,-0.2028662,-0.4067308,3.0597897,-5.1906295,-1.8004397
5.985526,4.489482,-0.058287904,-0.2028662,-0.4067308,3.0597897,-5.1906295,-1.8004397
5.985075,4.4893045,-0.027395237,-0.20073566,-0.38329497,3.107674,-5.2002063,-1.8818425
5.984624,4.489126,-0.027395237,-0.20073566,-0.38329497,3.107674,-5.2002063,-1.8818425
5.984199,4.488975,0.0045626974,-0.19753987,-0.36198968,3.1603463,-5.2002063,-2.0350714
5.9837747,4.4888234,0.0045626974,-0.19753987,-0.36198968,3.1603463,-5.2002063,-2.0350714
5.983375,4.4887013,0.03545537,-0.19221355,-0.33855388,3.2465374,-5.185841,-2.15957
5.9829755,4.488579,0.03545537,-0.19221355,-0.33855388,3.2465374,-5.185841,-2.15957
5.9825997,4.4884877,0.06421751,-0.18688722,-0.3140528,3.2848446,-5.1810527,-2.207454
5.982225,4.488396,0.06421751,-0.18688722,-0.3140528,3.2848446,-5.1810527,-2.207454
5.981872,4.4883356,0.091914386,-0.17836511,-0.28848645,3.3518825,-5.1666875,-2.2649148
5.98152,4.488275,0.091914386,-0.17836511,-0.28848645,3.3518825,-5.1666875,-2.2649148
5.98152,4.488275,0.091914386,-0.17836511,-0.28848645,3.3518825,-5.1666875,-2.2649148
5.98152,4.488275,0.091914386,-0.17836511,-0.28848645,3.3518825,-5.1666875,-2.2649148
5.980216,4.488212,0.13559023,-0.1634514,-0.23522322,3.3518825,-5.1810527,-2.3894134
5.980216,4.488212,0.13559023,-0.1634514,-0.23522322,3.3518825,-5.1810527,-2.3894134
5.980004,4.488208,0.15476498,-0.1549293,-0.20433055,3.323152,-5.1906295,-2.4947581
5.9797573,4.4882126,0.15476498,-0.1549293,-0.20433055,3.323152,-5.1906295,-2.4947581
5.9795065,4.488239,0.16967869,-0.14640717,-0.17130736,3.3566709,-5.21936,-2.5234885
5.9792976,4.4882607,0.16967869,-0.14640717,-0.17130736,3.3566709,-5.21936,-2.5234885
5.979106,4.488301,0.18352713,-0.14001559,-0.13615362,3.3518825,-5.257667,-2.542642
5.978908,4.4883423,0.18352713,-0.14001559,-0.13615362,3.3518825,-5.257667,-2.542642
5.978747,4.4883986,0.19417977,-0.13149348,-0.09673884,3.3614593,-5.2768207,-2.6048915
5.9785876,4.488454,0.19417977,-0.13149348,-0.09673884,3.3614593,-5.2768207,-2.6048915
5.9784665,4.4885283,0.20589767,-0.12084083,-0.05412826,3.3566709,-5.4204726,-2.585738
5.978346,4.4886026,0.20589767,-0.12084083,-0.05412826,3.3566709,-5.4204726,-2.585738
5.9782715,4.4886923,0.2144198,-0.11231872,-0.004060829,3.347094,-5.5401826,-2.5761611
5.978199,4.48878,0.2144198,-0.11231872,-0.004060829,3.347094,-5.5401826,-2.5761611
5.978179,4.4888816,0.22187665,-0.10166607,0.049202394,3.3279405,-5.60722,-2.6384103
5.978159,4.488982,0.22187665,-0.10166607,0.049202394,3.3279405,-5.60722,-2.6384103
5.978189,4.4891014,0.22933349,-0.08994816,0.106726676,3.2800562,-5.78918,-2.504335
5.9782195,4.4892206,0.22933349,-0.08994816,0.106726676,3.2800562,-5.78918,-2.504335
5.9783096,4.4893537,0.23572509,-0.078230254,0.16957727,3.2752678,-5.865794,-2.5187001
5.9783998,4.4894867,0.23572509,-0.078230254,0.16957727,3.2752678,-5.865794,-2.5187001
5.9785557,4.4896345,0.2442472,-0.06757761,0.23668894,3.1986535,-6.0238113,-2.4899697
5.978712,4.4897833,0.2442472,-0.06757761,0.23668894,3.1986535,-6.0238113,-2.4899697
5.9789386,4.4899445,0.25063878,-0.0558597,0.3069964,3.145981,-6.2584434,-2.4995465
5.979166,4.490106,0.25063878,-0.0558597,0.3069964,3.145981,-6.2584434,-2.4995465
5.979457,4.490285,0.25703037,-0.04201126,0.37943438,3.122039,-6.3829417,-2.4133554
5.979749,4.490465,0.25703037,-0.04201126,0.37943438,3.122039,-6.3829417,-2.4133554
5.9801183,4.490655,0.2623567,-0.029228088,0.4540029,3.083732,-6.5601125,-2.480393
5.980487,4.4908442,0.2623567,-0.029228088,0.4540029,3.083732,-6.5601125,-2.480393
5.9809294,4.4910474,0.26768303,-0.015379649,0.5275061,3.040636,-6.7133417,-2.4947581
5.981371,4.4912496,0.26768303,-0.015379649,0.5275061,3.040636,-6.7133417,-2.4947581
5.9818883,4.4914627,0.27194408,-0.0015312112,0.60100937,3.0502129,-6.895301,-2.5905263
5.982406,4.4916763,0.27194408,-0.0015312112,0.60100937,3.0502129,-6.895301,-2.5905263
5.9829993,4.491899,0.27513987,0.011251962,0.6745126,3.0023289,-6.9144545,-2.657564
5.983596,4.4921236,0.27513987,0.011251962,0.6745126,3.0023289,-6.9144545,-2.657564
5.98425,4.492367,0.27513987,0.024035135,0.74268955,3.2704794,-7.2927384,-2.6288335
5.98425,4.492367,0.27513987,0.024035135,0.74268955,3.2704794,-7.2927384,-2.6288335
5.985577,4.4928412,0.27513987,0.04107937,0.80554014,2.7868507,-7.1634517,-2.753332
5.986295,4.4930696,0.27513987,0.04107937,0.80554014,2.7868507,-7.1634517,-2.753332
5.9870625,4.493312,0.27300933,0.052797277,0.85986865,2.96881,-7.9104424,-2.528277
5.987836,4.4935565,0.27300933,0.052797277,0.85986865,2.96881,-7.9104424,-2.528277
5.988593,4.4938383,0.27513987,0.062384658,0.90460974,3.3279405,-8.322245,-2.2744915
5.989352,4.4941206,0.27513987,0.062384658,0.90460974,3.3279405,-8.322245,-2.2744915
5.990159,4.4944153,0.28792304,0.08262468,0.9472203,3.1747115,-8.480263,-2.2697031
5.990967,4.494711,0.28792304,0.08262468,0.9472203,3.1747115,-8.480263,-2.2697031
5.9919,4.4950037,0.303902,0.11032156,0.98876566,2.7006595,-8.585608,-2.360683
5.992839,4.4952993,0.303902,0.11032156,0.98876566,2.7006595,-8.585608,-2.360683
5.993881,4.495633,0.32094625,0.13269211,1.0271151,2.2744915,-8.748413,-2.4516625
5.994926,4.495968,0.32094625,0.13269211,1.0271151,2.2744915,-8.748413,-2.4516625
5.9960566,4.496362,0.33585995,0.14121422,1.0569426,2.111686,-9.150639,-2.2888567
5.997171,4.4967494,0.33585995,0.14121422,1.0569426,2.111686,-9.150639,-2.2888567
5.998334,4.497203,0.34757784,0.14121422,1.0782479,2.111686,-9.653421,-2.1260512
5.999497,4.497655,0.34757784,0.14121422,1.0782479,2.111686,-9.653421,-2.1260512
6.0006676,4.498146,0.36036104,0.14014897,1.0899658,2.1260512,-10.012551,-2.0398598
6.0018406,4.498638,0.36036104,0.14014897,1.0899658,2.1260512,-10.012551,-2.0398598
6.003011,4.4991665,0.3784705,0.13801843,1.0931616,2.2409728,-10.381259,-1.9967642
6.004179,4.4996924,0.3784705,0.13801843,1.0931616,2.2409728,-10.381259,-1.9967642
6.0053406,4.5002437,0.40190634,0.13801843,1.0889004,2.2409728,-10.6398325,-2.006341
6.0065026,4.5007944,0.40190634,0.13801843,1.0889004,2.2409728,-10.6398325,-2.006341
6.007659,4.5013566,0.42640743,0.1390837,1.0825089,2.0254946,-10.845734,-2.0494366
6.008826,4.5019226,0.42640743,0.1390837,1.0825089,2.0254946,-10.845734,-2.0494366
6.00998,4.5025053,0.4541043,0.14121422,1.0739868,1.7429788,-10.912771,-2.0638018
6.0111337,4.503086,0.4541043,0.14121422,1.0739868,1.7429788,-10.912771,-2.0638018
6.0122766,4.503686,0.48286644,0.13801843,1.0612036,1.5514427,-11.123461,-2.1404164
6.013427,4.5042887,0.48286644,0.13801843,1.0612036,1.5514427,-11.123461,-2.1404164
6.014558,4.5049143,0.5105633,0.12949632,1.0462899,1.412579,-11.353305,-2.1308396
6.0156937,4.505541,0.5105633,0.12949632,1.0462899,1.412579,-11.353305,-2.1308396
6.016814,4.506193,0.5393255,0.116713144,1.0324415,1.436521,-11.592725,-2.1260512
6.0179377,4.5068455,0.5393255,0.116713144,1.0324415,1.436521,-11.592725,-2.1260512
6.019042,4.507533,0.56915283,0.102864705,1.0175278,1.4939818,-11.832145,-2.006341
6.0201488,4.5082216,0.56915283,0.102864705,1.0175278,1.4939818,-11.832145,-2.006341
6.0212407,4.508933,0.6000455,0.089016266,1.0026141,1.5227122,-11.947066,-2.0254946
6.0223365,4.5096464,0.6000455,0.089016266,1.0026141,1.5227122,-11.947066,-2.0254946
6.0234165,4.5103903,0.63306874,0.07836362,0.98556983,1.532289,-12.152967,-2.0207062
6.0244994,4.511135,0.63306874,0.07836362,0.98556983,1.532289,-12.152967,-2.0207062
6.0255723,4.5119095,0.66502666,0.07090677,0.96852565,1.5227122,-12.20564,-2.0446482
6.0266275,4.5126705,0.66502666,0.07090677,0.96852565,1.5227122,-12.20564,-2.0446482
6.0276747,4.513461,0.69591933,0.062384658,0.94935083,1.4891934,-12.248735,-2.0733786
6.0287223,4.5142503,0.69591933,0.062384658,0.94935083,1.4891934,-12.248735,-2.0733786
6.029758,4.5150776,0.72574675,0.053862542,0.9280456,1.460463,-12.325351,-2.006341
6.030787,4.515898,0.72574675,0.053862542,0.9280456,1.460463,-12.325351,-2.006341
6.0318027,4.5167284,0.75237834,0.046405688,0.905675,1.460463,-12.325351,-2.1978772
6.032818,4.5175567,0.75237834,0.046405688,0.905675,1.460463,-12.325351,-2.1978772
6.0338078,4.518407,0.7758142,0.03681831,0.87797815,1.4987702,-12.354081,-2.1739352
6.034806,4.5192623,0.7758142,0.03681831,0.87797815,1.4987702,-12.354081,-2.1739352
6.0357637,4.5201244,0.7981847,0.026165664,0.84815073,1.541866,-12.368446,-2.1691468
6.036728,4.5209904,0.7981847,0.026165664,0.84815073,1.541866,-12.368446,-2.1691468
6.0376635,4.52187,0.81949,0.01551302,0.8161928,1.5993267,-12.363658,-2.207454
6.038599,4.5227475,0.81949,0.01551302,0.8161928,1.5993267,-12.363658,-2.207454
6.0395,4.5236425,0.83866477,0.00592564,0.77890855,1.6424223,-12.363658,-2.1787236
6.040402,4.5245366,0.83866477,0.00592564,0.77890855,1.6424223,-12.363658,-2.1787236
6.041268,4.5254354,0.855709,-0.00366174,0.7394938,1.6950948,-12.3876,-2.255338
6.042135,4.526334,0.855709,-0.00366174,0.7394938,1.6950948,-12.3876,-2.255338
6.042965,4.5272346,0.8706227,-0.014314385,0.6990137,1.7142484,-12.406754,-2.3223755
6.0437946,4.5281334,0.8706227,-0.014314385,0.6990137,1.7142484,-12.406754,-2.3223755
6.0445848,4.5290375,0.88340586,-0.02496703,0.6564031,1.7717092,-12.35887,-2.327164
6.045375,4.52994,0.88340586,-0.02496703,0.6564031,1.7717092,-12.35887,-2.327164
6.0461287,4.530845,0.891928,-0.03455441,0.6180536,1.7669208,-12.330139,-2.3223755
6.0468826,4.531749,0.891928,-0.03455441,0.6180536,1.7669208,-12.330139,-2.3223755
6.047599,4.532646,0.8972543,-0.04201126,0.5797041,1.7525556,-12.29662,-2.3798366
6.048315,4.533541,0.8972543,-0.04201126,0.5797041,1.7525556,-12.29662,-2.3798366
6.048994,4.5344353,0.89938486,-0.04946811,0.5402893,1.8195933,-12.23437,-2.3463178
6.0496726,4.5353274,0.89938486,-0.04946811,0.5402893,1.8195933,-12.23437,-2.3463178
6.050312,4.536209,0.8972543,-0.052663904,0.5019398,1.8531121,-12.20564,-2.3702598
6.0509515,4.5370893,0.8972543,-0.052663904,0.5019398,1.8531121,-12.20564,-2.3702598
6.0515556,4.5379596,0.891928,-0.057990227,0.4657208,1.8531121,-12.143391,-2.360683
6.052159,4.538828,0.891928,-0.057990227,0.4657208,1.8531121,-12.143391,-2.360683
6.05273,4.5396867,0.8802101,-0.060120758,0.43163234,1.8818425,-12.081141,-2.2984335
6.053301,4.540543,0.8802101,-0.060120758,0.43163234,1.8818425,-12.081141,-2.2984335
6.0538363,4.541374,0.8642311,-0.060120758,0.3996744,1.9440918,-12.052411,-2.3319526
6.0543714,4.542204,0.8642311,-0.060120758,0.3996744,1.9440918,-12.052411,-2.3319526
6.0548773,4.5430174,0.8461216,-0.057990227,0.36878175,2.0015526,-11.956643,-2.2744915
6.05538,4.5438256,0.8461216,-0.057990227,0.36878175,2.0015526,-11.956643,-2.2744915
6.0558624,4.544622,0.8237511,-0.05372917,0.34215012,2.0398598,-11.8896055,-2.2888567
6.056331,4.545397,0.8237511,-0.05372917,0.34215012,2.0398598,-11.8896055,-2.2888567
6.056769,4.5461445,0.80031526,-0.047337584,0.313388,2.0254946,-11.870452,-2.2361844
6.0572124,4.5469017,0.80031526,-0.047337584,0.313388,2.0254946,-11.870452,-2.2361844
6.0576353,4.5476403,0.7715531,-0.03988073,0.2888869,2.0350714,-11.870452,-2.1691468
6.0580583,4.548378,0.7715531,-0.03988073,0.2888869,2.0350714,-11.870452,-2.1691468
6.0584517,4.549075,0.7395952,-0.031358615,0.26651633,2.0254946,-11.798626,-2.2026656
6.0588446,4.549771,0.7395952,-0.031358615,0.26651633,2.0254946,-11.798626,-2.2026656
6.059213,4.550431,0.7087025,-0.023901764,0.24734159,1.9871874,-11.736377,-2.231396
6.059581,4.5510902,0.7087025,-0.023901764,0.24734159,1.9871874,-11.736377,-2.231396
6.059936,4.5517263,0.6767446,-0.015379649,0.23029736,2.0207062,-11.611878,-2.1212628
6.0602903,4.5523615,0.6767446,-0.015379649,0.23029736,2.0207062,-11.611878,-2.1212628
6.0606174,4.552951,0.6426561,-0.010053327,0.21325313,2.006341,-11.530476,-2.1787236
6.0609436,4.5535398,0.6426561,-0.010053327,0.21325313,2.006341,-11.530476,-2.1787236
6.061255,4.554097,0.6096329,-0.0068575335,0.19727415,2.0111294,-11.415554,-2.1260512
6.061565,4.5546527,0.6096329,-0.0068575335,0.19727415,2.0111294,-11.415554,-2.1260512
6.0618534,4.55517,0.5755444,-0.00366174,0.18022992,2.0254946,-11.305421,-2.111686
6.062141,4.555687,0.5755444,-0.00366174,0.18022992,2.0254946,-11.305421,-2.111686
6.0624075,4.556166,0.54252124,-0.0025964756,0.16425095,2.0494366,-11.166556,-2.0829554
6.062673,4.5566444,0.54252124,-0.0025964756,0.16425095,2.0494366,-11.166556,-2.0829554
6.062915,4.5570817,0.5084328,-0.00046594674,0.15040252,2.0829554,-11.003751,-2.0638018
6.0631576,4.5575223,0.5084328,-0.00046594674,0.15040252,2.0829554,-11.003751,-2.0638018
6.0633826,4.5579333,0.47647485,0.0005993177,0.13335828,2.0925324,-10.860099,-2.0159178
6.0636015,4.558333,0.47647485,0.0005993177,0.13335828,2.0925324,-10.860099,-2.0159178
6.063796,4.5586953,0.44664744,0.0005993177,0.11524879,2.0973208,-10.721235,-1.9728222
6.0639935,4.559064,0.44664744,0.0005993177,0.11524879,2.0973208,-10.721235,-1.9728222
6.064163,4.5593977,0.4178853,0.0016645822,0.09820456,2.1260512,-10.582372,-1.9440918
6.0643325,4.559733,0.4178853,0.0016645822,0.09820456,2.1260512,-10.582372,-1.9440918
6.0644703,4.5600357,0.3912537,0.0027298466,0.0790298,2.183512,-10.448297,-1.8674773
6.064607,4.560337,0.3912537,0.0027298466,0.0790298,2.183512,-10.448297,-1.8674773
6.0647078,4.5606112,0.36675262,0.0048603755,0.058789775,2.1930888,-10.247183,-1.8291701
6.0648065,4.560881,0.36675262,0.0048603755,0.058789775,2.1930888,-10.247183,-1.8291701
6.064894,4.5611324,0.34438205,0.0069909045,0.040680278,2.1691468,-10.146626,-1.7669208
6.064982,4.561384,0.34438205,0.0069909045,0.040680278,2.1691468,-10.146626,-1.7669208
6.065036,4.5616164,0.3284031,0.010186698,0.021505518,2.1739352,-10.065224,-1.7860745
6.0650897,4.561849,0.3284031,0.010186698,0.021505518,2.1739352,-10.065224,-1.7860745
6.0650992,4.5620728,0.31242412,0.014447756,0.0023307577,2.1883004,-9.830592,-1.757344
6.0651083,4.5622854,0.31242412,0.014447756,0.0023307577,2.1883004,-9.830592,-1.757344
6.0651083,4.5622854,0.31242412,0.014447756,0.0023307577,2.1883004,-9.830592,-1.757344
6.065076,4.5627046,0.3007062,0.018708814,-0.013648209,2.1787236,-9.68694,-1.7669208
6.0650406,4.562878,0.28792304,0.022969872,-0.024300855,2.1930888,-9.576807,-1.7621324
6.065001,4.563072,0.28792304,0.022969872,-0.024300855,2.1930888,-9.576807,-1.7621324
6.064962,4.563258,0.2772704,0.02723093,-0.03282297,2.1404164,-9.481039,-1.7525556
6.064909,4.56351,0.2772704,0.02723093,-0.03282297,2.1404164,-9.481039,-1.7525556
6.064787,4.563767,0.2655525,0.032557253,-0.04027982,2.207454,-9.299079,-1.685518
6.064787,4.563767,0.2655525,0.032557253,-0.04027982,2.207454,-9.299079,-1.685518
6.0646954,4.5639286,0.25489986,0.037883572,-0.045606144,2.255338,-9.188946,-1.7956513
6.0646043,4.5640903,0.25489986,0.037883572,-0.045606144,2.255338,-9.188946,-1.7956513
6.064497,4.564246,0.24531247,0.04107937,-0.0498672,2.2505496,-9.021352,-1.7286136
6.064389,4.5644026,0.24531247,0.04107937,-0.0498672,2.2505496,-9.021352,-1.7286136
6.064267,4.564551,0.23465982,0.046405688,-0.05412826,2.303222,-8.848969,-1.7525556
6.0641446,4.5646996,0.23465982,0.046405688,-0.05412826,2.303222,-8.848969,-1.7525556
6.0640073,4.5648446,0.22507244,0.050666746,-0.05519352,2.3989902,-8.686164,-1.7812861
6.06387,4.564989,0.22507244,0.050666746,-0.05519352,2.3989902,-8.686164,-1.7812861
6.0637174,4.565133,0.2144198,0.053862542,-0.05412826,2.432509,-8.628703,-1.685518
6.0635643,4.5652766,0.2144198,0.053862542,-0.05412826,2.432509,-8.628703,-1.685518
6.0634155,4.5654087,0.20376715,0.057058334,-0.050932467,2.4516625,-8.470686,-1.7142484
6.0632668,4.5655413,0.20376715,0.057058334,-0.050932467,2.4516625,-8.470686,-1.7142484
6.063103,4.5656734,0.19204924,0.061319392,-0.0498672,2.4660277,-8.389283,-1.6089035
6.0629406,4.5658054,0.19204924,0.061319392,-0.0498672,2.4660277,-8.389283,-1.6089035
6.062796,4.565919,0.18246186,0.06558045,-0.04454088,2.4708161,-8.236053,-1.7286136
6.0626516,4.5660324,0.18246186,0.06558045,-0.04454088,2.4708161,-8.236053,-1.7286136
6.0625014,4.5661464,0.17287448,0.069841504,-0.037084028,2.4660277,-8.197746,-1.6136919
6.062351,4.5662603,0.17287448,0.069841504,-0.037084028,2.4660277,-8.197746,-1.6136919
6.0622063,4.5663705,0.16541763,0.073037304,-0.027496647,2.504335,-8.1163435,-1.6041151
6.0620613,4.5664806,0.16541763,0.073037304,-0.027496647,2.504335,-8.1163435,-1.6041151
6.0619197,4.566591,0.15796077,0.07836362,-0.016844003,2.528277,-8.082825,-1.5610195
6.0617785,4.566701,0.15796077,0.07836362,-0.016844003,2.528277,-8.082825,-1.5610195
6.06165,4.566807,0.15156919,0.08368994,-0.0029955646,2.480393,-8.020576,-1.5275006
6.061521,4.566912,0.15156919,0.08368994,-0.0029955646,2.480393,-8.020576,-1.5275006
6.061396,4.5670314,0.1483734,0.087951005,0.014048667,2.4851813,-7.9822683,-1.4173675
6.061271,4.56715,0.1483734,0.087951005,0.014048667,2.4851813,-7.9822683,-1.4173675
6.0611644,4.56727,0.14624287,0.0911468,0.033223428,2.4756045,-7.953538,-1.4030021
6.0610576,4.567389,0.14624287,0.0911468,0.033223428,2.4756045,-7.953538,-1.4030021
6.06096,4.5675316,0.14624287,0.09434259,0.05346345,2.4277205,-7.9391727,-1.2737153
6.0608625,4.5676737,0.14624287,0.09434259,0.05346345,2.4277205,-7.9391727,-1.2737153
6.0607924,4.5678043,0.14730814,0.09860365,0.075834006,2.4420857,-7.896077,-1.340753
6.0607224,4.567935,0.14730814,0.09860365,0.075834006,2.4420857,-7.896077,-1.340753
6.0606694,4.5680847,0.14943866,0.100734174,0.09926982,2.4420857,-7.8769236,-1.2593501
6.060616,4.5682344,0.14943866,0.100734174,0.09926982,2.4420857,-7.8769236,-1.2593501
6.060584,4.568401,0.15050393,0.102864705,0.12377091,2.4133554,-7.848193,-1.1875241
6.0605526,4.5685663,0.15050393,0.102864705,0.12377091,2.4133554,-7.848193,-1.1875241
6.0605445,4.5687513,0.15476498,0.104995236,0.148272,2.4277205,-7.848193,-1.1300632
6.060537,4.5689354,0.15476498,0.104995236,0.148272,2.4277205,-7.848193,-1.1300632
6.0605545,4.5691376,0.15796077,0.1060605,0.17170781,2.4277205,-7.8386164,-1.067814
6.060572,4.569339,0.15796077,0.1060605,0.17170781,2.4277205,-7.8386164,-1.067814
6.06061,4.569543,0.1632871,0.10712577,0.1930131,2.384625,-7.848193,-1.0869676
6.060647,4.5697465,0.1632871,0.10712577,0.1930131,2.384625,-7.848193,-1.0869676
6.0607123,4.5699773,0.16967869,0.1060605,0.21325313,2.408567,-7.8865004,-0.9959879
6.060777,4.5702076,0.16967869,0.1060605,0.21325313,2.408567,-7.8865004,-0.9959879
6.060866,4.5704536,0.17607027,0.1060605,0.23242788,2.4277205,-7.872135,-0.93852705
6.0609546,4.5706997,0.17607027,0.1060605,0.23242788,2.4277205,-7.872135,-0.93852705
6.061063,4.570958,0.18246186,0.10392997,0.24734159,2.3702598,-7.8625584,-0.91458505
6.0611706,4.5712166,0.18246186,0.10392997,0.24734159,2.3702598,-7.8625584,-0.91458505
6.06129,4.571474,0.18885344,0.10179944,0.26332054,2.3415294,-7.8912888,-0.9672575
6.0614085,4.5717306,0.18885344,0.10179944,0.26332054,2.3415294,-7.8912888,-0.9672575
6.061555,4.572008,0.19524503,0.09753838,0.27929953,2.2936451,-7.929596,-0.90979666
6.061701,4.572286,0.19524503,0.09753838,0.27929953,2.2936451,-7.929596,-0.90979666
6.061868,4.572581,0.20270188,0.09327733,0.28995216,2.2936451,-8.010999,-0.8619126
6.062035,4.572875,0.20270188,0.09327733,0.28995216,2.2936451,-8.010999,-0.8619126
6.0622168,4.5731773,0.20802821,0.089016266,0.29953954,2.27928,-8.00621,-0.8379706
6.0623975,4.573479,0.20802821,0.089016266,0.29953954,2.27928,-8.00621,-0.8379706
6.0626016,4.573792,0.21335453,0.08368994,0.313388,2.2601264,-8.087613,-0.81402856
6.062805,4.574105,0.21335453,0.08368994,0.313388,2.2601264,-8.087613,-0.81402856
6.0630374,4.574434,0.21974611,0.07942889,0.32404062,2.2170308,-8.178593,-0.7565677
6.063269,4.5747623,0.21974611,0.07942889,0.32404062,2.2170308,-8.178593,-0.7565677
6.0635395,4.5751333,0.22507244,0.0762331,0.33256274,2.2026656,-8.264784,-0.770933
6.063759,4.5754347,0.22507244,0.0762331,0.33256274,2.2026656,-8.264784,-0.770933
6.064024,4.5757785,0.23039876,0.069841504,0.34215012,2.1547816,-8.327033,-0.7613561
6.064288,4.5761213,0.23039876,0.069841504,0.34215012,2.1547816,-8.327033,-0.7613561
6.064587,4.576477,0.23679034,0.06344992,0.35067225,2.0685902,-8.346188,-0.6560113
6.064886,4.5768337,0.23679034,0.06344992,0.35067225,2.0685902,-8.346188,-0.6560113
6.0651784,4.577193,0.2442472,0.05918886,0.36025962,2.111686,-8.451532,-0.79966336
6.0654693,4.577551,0.2442472,0.05918886,0.36025962,2.111686,-8.451532,-0.79966336
6.0657597,4.5779095,0.2442472,0.05918886,0.36025962,2.111686,-8.451532,-0.79966336
6.0660815,4.5782766,0.24850826,0.053862542,0.36878175,2.0590134,-8.580819,-0.7565677
6.0664043,4.5786457,0.24850826,0.053862542,0.36878175,2.0590134,-8.580819,-0.7565677
6.0667453,4.579016,0.25170404,0.04853622,0.37836912,2.030283,-8.6813755,-0.7613561
6.067086,4.5793867,0.25170404,0.04853622,0.37836912,2.030283,-8.6813755,-0.7613561
6.0674567,4.5797644,0.2559651,0.04427516,0.38582596,1.9488802,-8.714894,-0.6847417
6.067826,4.580141,0.2559651,0.04427516,0.38582596,1.9488802,-8.714894,-0.6847417
6.0682106,4.5805235,0.26022616,0.040014103,0.3932828,1.9440918,-8.825027,-0.7374141
6.0685935,4.580905,0.26022616,0.040014103,0.3932828,1.9440918,-8.825027,-0.7374141
6.068998,4.581296,0.26448724,0.035753045,0.40180492,1.9201498,-8.858546,-0.7661445
6.0693917,4.5816774,0.26448724,0.035753045,0.40180492,1.9201498,-8.858546,-0.7661445
6.0698085,4.582059,0.26768303,0.032557253,0.4113923,1.8674773,-8.968679,-0.7326257
6.0702276,4.582443,0.26768303,0.032557253,0.4113923,1.8674773,-8.968679,-0.7326257
6.0706615,4.582828,0.26874828,0.028296193,0.42204496,1.8674773,-9.02614,-0.7613561
6.071098,4.5832157,0.26874828,0.028296193,0.42204496,1.8674773,-9.02614,-0.7613561
6.0715485,4.583602,0.26981354,0.026165664,0.4326976,1.8579005,-9.093178,-0.78050977
6.0719976,4.5839877,0.26981354,0.026165664,0.4326976,1.8579005,-9.093178,-0.78050977
6.0724764,4.584379,0.26981354,0.024035135,0.44228497,1.8243817,-9.165004,-0.79487497
6.0729485,4.584765,0.26981354,0.024035135,0.44228497,1.8243817,-9.165004,-0.79487497
6.0734243,4.585143,0.27194408,0.021904606,0.45187235,1.8004397,-9.241618,-0.770933
6.0739274,4.5855355,0.27194408,0.022969872,0.462525,1.7908629,-9.3182335,-0.7182605
6.0744123,4.5859146,0.27194408,0.022969872,0.462525,1.7908629,-9.3182335,-0.7182605
6.0749063,4.586301,0.27194408,0.022969872,0.462525,1.7908629,-9.3182335,-0.7182605
6.075419,4.586685,0.27194408,0.024035135,0.47424293,1.7908629,-9.356541,-0.79966336
6.0759315,4.58707,0.27194408,0.024035135,0.47424293,1.7908629,-9.356541,-0.79966336
6.0764422,4.5874577,0.27194408,0.024035135,0.4838303,1.8435353,-9.332599,-0.8283938
6.0769525,4.587845,0.27194408,0.024035135,0.4838303,1.8435353,-9.332599,-0.8283938
6.07747,4.5882316,0.26981354,0.024035135,0.49341768,1.8818425,-9.361329,-0.90500826
6.0779853,4.5886173,0.26981354,0.024035135,0.49341768,1.8818425,-9.361329,-0.90500826
6.0785065,4.5890026,0.26661775,0.024035135,0.503005,1.8914193,-9.385271,-0.8858546
6.079024,4.5893855,0.26661775,0.024035135,0.503005,1.8914193,-9.385271,-0.8858546
6.079552,4.589769,0.2655525,0.0251004,0.5104619,1.9057846,-9.404425,-0.9624691
6.080078,4.5901523,0.2655525,0.0251004,0.5104619,1.9057846,-9.404425,-0.9624691
6.0806227,4.5905313,0.26342195,0.028296193,0.5136577,1.8674773,-9.437943,-0.94810385
6.0811653,4.5909114,0.26342195,0.028296193,0.5136577,1.8674773,-9.437943,-0.94810385
6.081711,4.5912876,0.2591609,0.031491987,0.5168535,1.8722657,-9.476251,-0.9528923
6.0822544,4.591664,0.2591609,0.031491987,0.5168535,1.8722657,-9.476251,-0.9528923
6.0828466,4.5920224,0.2559651,0.03468778,0.51791877,1.8339585,-9.548077,-1.0390835
6.0834374,4.592381,0.2559651,0.03468778,0.51791877,1.8339585,-9.548077,-1.0390835
6.0840664,4.592709,0.25170404,0.040014103,0.5200493,1.8339585,-9.595961,-1.1013328
6.084696,4.5930367,0.25170404,0.040014103,0.5200493,1.8339585,-9.595961,-1.1013328
6.085286,4.593391,0.24637774,0.045340426,0.52431035,1.8387469,-9.624691,-1.0342951
6.0858755,4.5937457,0.24637774,0.045340426,0.52431035,1.8387469,-9.624691,-1.0342951
6.0865297,4.594037,0.2410514,0.052797277,0.5296367,1.8435353,-9.701305,-1.1348516
6.0871854,4.5943265,0.2410514,0.052797277,0.5296367,1.8435353,-9.701305,-1.1348516
6.08782,4.5946474,0.23465982,0.05918886,0.5338977,1.8004397,-9.758766,-1.0773908
6.0884547,4.594968,0.23465982,0.05918886,0.5338977,1.8004397,-9.758766,-1.0773908
6.089091,4.595283,0.2261377,0.06664571,0.5381588,1.7525556,-9.830592,-1.0486604
6.089727,4.595598,0.2261377,0.06664571,0.5381588,1.7525556,-9.830592,-1.0486604
6.090381,4.595889,0.21655032,0.07516783,0.54241985,1.7812861,-9.859323,-1.0965444
6.0910354,4.59618,0.21655032,0.07516783,0.54241985,1.7812861,-9.859323,-1.0965444
6.0916963,4.5964565,0.20589767,0.08049415,0.54668087,1.6759412,-9.9550905,-1.0726024
6.092357,4.596733,0.20589767,0.08049415,0.54668087,1.6759412,-9.9550905,-1.0726024
6.093032,4.596969,0.19204924,0.086885735,0.5498767,1.6711528,-10.01734,-1.1348516
6.0937066,4.597204,0.19204924,0.086885735,0.5498767,1.6711528,-10.01734,-1.1348516
6.094374,4.597452,0.17820081,0.09221206,0.55307245,1.6184803,-10.093954,-1.067814
6.0950475,4.597702,0.17820081,0.09221206,0.55307245,1.6184803,-10.093954,-1.067814
6.0957174,4.59791,0.16222183,0.09540785,0.5520072,1.5897499,-10.089166,-1.1204864
6.0963926,4.598119,0.16222183,0.09540785,0.5520072,1.5897499,-10.089166,-1.1204864
6.0970693,4.598311,0.14624287,0.09860365,0.55307245,1.5370775,-10.13705,-1.1204864
6.097745,4.598502,0.14624287,0.09860365,0.55307245,1.5370775,-10.13705,-1.1204864
6.0984225,4.598675,0.13026391,0.102864705,0.55307245,1.5466543,-10.170568,-1.1348516
6.099099,4.598846,0.13026391,0.102864705,0.55307245,1.5466543,-10.170568,-1.1348516
6.0997763,4.5990005,0.11428493,0.1060605,0.55307245,1.484405,-10.184934,-1.1348516
6.100454,4.5991545,0.11428493,0.1060605,0.55307245,1.484405,-10.184934,-1.1348516
6.1011295,4.5992956,0.0972407,0.10925629,0.55307245,1.484405,-10.175357,-1.1204864
6.101806,4.599437,0.0972407,0.10925629,0.55307245,1.484405,-10.175357,-1.1204864
6.102478,4.5995703,0.082327,0.11032156,0.5498767,1.4748282,-10.204087,-1.1013328
6.1031485,4.599703,0.082327,0.11032156,0.5498767,1.4748282,-10.204087,-1.1013328
6.103811,4.5998273,0.0674133,0.11032156,0.5434851,1.4460979,-10.16578,-1.0726024
6.104474,4.5999517,0.0674133,0.11032156,0.5434851,1.4460979,-10.16578,-1.0726024
6.105131,4.600065,0.054630127,0.11032156,0.5381588,1.4317327,-10.218452,-1.067814
6.105131,4.600065,0.054630127,0.11032156,0.5381588,1.4317327,-10.218452,-1.067814
6.105131,4.600065,0.054630127,0.11032156,0.5381588,1.4317327,-10.218452,-1.067814
6.107296,4.6003494,0.033324838,0.10925629,0.5232451,1.4221559,-10.156203,-1.0821792
6.107296,4.6003494,0.033324838,0.10925629,0.5232451,1.4221559,-10.156203,-1.0821792
6.107296,4.6003494,0.033324838,0.10925629,0.5232451,1.4221559,-10.156203,-1.0821792
6.109276,4.6006584,0.026933251,0.10925629,0.5136577,1.4221559,-10.0987425,-1.0151415
6.1096535,4.6007175,0.026933251,0.10925629,0.5136577,1.4221559,-10.0987425,-1.0151415
6.1102023,4.600814,0.023737457,0.10712577,0.50407034,1.4891934,-10.141838,-1.0055647
6.1107945,4.6009173,0.023737457,0.10712577,0.50407034,1.4891934,-10.141838,-1.0055647
6.1113706,4.601037,0.022672193,0.10392997,0.49128714,1.5610195,-10.093954,-0.9911995
6.1119466,4.6011577,0.022672193,0.10392997,0.49128714,1.5610195,-10.093954,-0.9911995
6.112516,4.601277,0.025867987,0.102864705,0.47850397,1.541866,-10.079589,-0.9959879
6.113083,4.6013966,0.025867987,0.102864705,0.47850397,1.541866,-10.079589,-0.9959879
6.113656,4.601508,0.02906378,0.10392997,0.46465552,1.5897499,-10.036493,-1.0534488
6.1142216,4.601619,0.02906378,0.10392997,0.46465552,1.5897499,-10.036493,-1.0534488
6.114774,4.601738,0.03652063,0.10392997,0.45187235,1.5897499,-10.041282,-1.0534488
6.115327,4.6018586,0.03652063,0.10392997,0.45187235,1.5897499,-10.041282,-1.0534488
6.1158733,4.601979,0.045042746,0.10392997,0.43695867,1.5897499,-10.070012,-1.067814
6.1164165,4.6020994,0.045042746,0.10392997,0.43695867,1.5897499,-10.070012,-1.067814
6.11695,4.602226,0.05356486,0.102864705,0.42417547,1.541866,-10.0748005,-1.0534488
6.117484,4.602353,0.05356486,0.102864705,0.42417547,1.541866,-10.0748005,-1.0534488
6.117966,4.60252,0.06315224,0.09966891,0.4092618,1.532289,-10.0987425,-0.9672575
6.1184464,4.602687,0.06315224,0.09966891,0.4092618,1.532289,-10.0987425,-0.9672575
6.1189623,4.602813,0.07273962,0.09647312,0.39434808,1.541866,-10.060435,-1.0773908
6.1194773,4.602938,0.07273962,0.09647312,0.39434808,1.541866,-10.060435,-1.0773908
6.1199756,4.6030817,0.082327,0.09327733,0.38049963,1.532289,-10.031705,-1.0630256
6.1204724,4.6032248,0.082327,0.09327733,0.38049963,1.532289,-10.031705,-1.0630256
6.1209717,4.60334,0.089783855,0.09221206,0.37091225,1.5227122,-9.993398,-1.091756
6.1214695,4.6034546,0.089783855,0.09221206,0.37091225,1.5227122,-9.993398,-1.091756
6.121955,4.603544,0.09937123,0.089016266,0.3634554,1.5466543,-10.036493,-1.1204864
6.1224375,4.603631,0.09937123,0.089016266,0.3634554,1.5466543,-10.036493,-1.1204864
6.122918,4.6037827,0.106828086,0.08475521,0.3549333,1.5275006,-9.988609,-1.0726024
6.1233974,4.6039324,0.106828086,0.08475521,0.3549333,1.5275006,-9.988609,-1.0726024
6.1238685,4.604036,0.11108914,0.08368994,0.34747645,1.5035586,-9.921572,-1.1013328
6.1243377,4.6041365,0.11108914,0.08368994,0.34747645,1.5035586,-9.921572,-1.1013328
6.124799,4.604317,0.11428493,0.085820474,0.34321538,1.4796166,-9.974244,-1.0390835
6.125277,4.6045036,0.11428493,0.085820474,0.34321538,1.4796166,-9.974244,-1.0390835
6.125739,4.6046214,0.11641546,0.086885735,0.34001958,1.3838485,-9.969456,-1.1061212
6.12619,4.604735,0.11641546,0.086885735,0.34001958,1.3838485,-9.969456,-1.1061212
6.1266522,4.6048555,0.118545994,0.087951005,0.33895433,1.4796166,-9.868899,-1.0773908
6.1271157,4.604974,0.118545994,0.087951005,0.33895433,1.4796166,-9.868899,-1.0773908
6.127534,4.605192,0.122807056,0.089016266,0.33895433,1.4891934,-9.868899,-1.0055647
6.127952,4.6054115,0.122807056,0.089016266,0.33895433,1.4891934,-9.868899,-1.0055647
6.1284165,4.605543,0.12600285,0.089016266,0.33788908,1.3934253,-9.883265,-1.0773908
6.1288905,4.6056757,0.12600285,0.089016266,0.33788908,1.3934253,-9.883265,-1.0773908
6.1293497,4.6058216,0.12919864,0.087951005,0.33895433,1.4030021,-9.835381,-1.0534488
6.1298175,4.6059685,0.12919864,0.087951005,0.33895433,1.4030021,-9.835381,-1.0534488
6.13027,4.606073,0.13239443,0.086885735,0.33895433,1.4030021,-9.792285,-1.091756
6.130717,4.6061735,0.13239443,0.086885735,0.33895433,1.4030021,-9.792285,-1.091756
6.131149,4.6062617,0.1366555,0.08475521,0.34001958,1.436521,-9.739613,-1.0821792
6.131578,4.606347,0.1366555,0.08475521,0.34001958,1.436521,-9.739613,-1.0821792
6.132006,4.606433,0.14198181,0.08262468,0.34428066,1.460463,-9.792285,-1.0773908
6.1324263,4.6065145,0.14198181,0.08262468,0.34428066,1.460463,-9.792285,-1.0773908
6.1328783,4.6066265,0.14943866,0.07942889,0.34747645,1.4460979,-9.734824,-1.0534488
6.1333265,4.6067324,0.14943866,0.07942889,0.34747645,1.4460979,-9.734824,-1.0534488
6.1337523,4.6068263,0.15583025,0.07942889,0.35067225,1.4173675,-9.720459,-1.0869676
6.1341696,4.6069164,0.15583025,0.07942889,0.35067225,1.4173675,-9.720459,-1.0869676
6.134634,4.607153,0.1632871,0.07836362,0.35599855,1.388637,-9.682152,-0.9911995
6.135095,4.607388,0.1632871,0.07836362,0.35599855,1.388637,-9.682152,-0.9911995
6.1355867,4.6075854,0.17180921,0.07729836,0.36132488,1.3982137,-9.610326,-1.0103531
6.13608,4.6077766,0.17180921,0.07729836,0.36132488,1.3982137,-9.610326,-1.0103531
6.1364822,4.6078796,0.18033133,0.0762331,0.36771646,1.4221559,-9.634268,-1.0390835
6.1368723,4.6079793,0.18033133,0.0762331,0.36771646,1.4221559,-9.634268,-1.0390835
6.1373763,4.6081805,0.18991871,0.0762331,0.37410805,1.364695,-9.576807,-1.0055647
6.1378794,4.608376,0.18991871,0.0762331,0.37410805,1.364695,-9.576807,-1.0055647
6.1383195,4.6085033,0.19737557,0.07516783,0.38156492,1.3982137,-9.581595,-1.0151415
6.138734,4.6086216,0.19737557,0.07516783,0.38156492,1.3982137,-9.581595,-1.0151415
6.1391015,4.608743,0.20483242,0.07516783,0.390087,1.3934253,-9.476251,-1.0390835
6.139463,4.6088653,0.20483242,0.07516783,0.390087,1.3934253,-9.476251,-1.0390835
6.139749,4.6090255,0.211224,0.07516783,0.40073967,1.4652514,-9.481039,-1.0390835
6.1400347,4.6091857,0.211224,0.07516783,0.40073967,1.4652514,-9.481039,-1.0390835
6.140483,4.609324,0.21548507,0.07729836,0.4113923,1.364695,-9.504981,-1.0103531
6.1409144,4.609459,0.21548507,0.07729836,0.4113923,1.364695,-9.504981,-1.0103531
6.141277,4.6096015,0.21974611,0.07836362,0.42097968,1.3790601,-9.44752,-1.0103531
6.141632,4.609746,0.21974611,0.07836362,0.42097968,1.3790601,-9.44752,-1.0103531
6.1421065,4.609895,0.22400717,0.07942889,0.43056706,1.3503298,-9.442732,-0.9768343
6.142491,4.6100397,0.22400717,0.07942889,0.43056706,1.3503298,-9.442732,-0.9768343
6.142933,4.6101856,0.22826824,0.08155942,0.44015446,1.340753,-9.44752,-1.0103531
6.1433635,4.6103315,0.22826824,0.08155942,0.44015446,1.340753,-9.44752,-1.0103531
6.1437883,4.6104813,0.22933349,0.085820474,0.44867656,1.3311762,-9.3661175,-0.9911995
6.1441956,4.6106296,0.22933349,0.085820474,0.44867656,1.3311762,-9.3661175,-0.9911995
6.1446276,4.6107793,0.23146403,0.087951005,0.45613343,1.3311762,-9.41879,-1.0103531
6.145052,4.6109295,0.23146403,0.087951005,0.45613343,1.3311762,-9.41879,-1.0103531
6.1454887,4.6110806,0.2325293,0.090081535,0.46465552,1.3215994,-9.414001,-0.9959879
6.145918,4.611233,0.2325293,0.090081535,0.46465552,1.3215994,-9.414001,-0.9959879
6.1464334,4.61158,0.23465982,0.09221206,0.4721124,1.292869,-9.404425,-0.93373865
6.146935,4.61193,0.23465982,0.09221206,0.4721124,1.292869,-9.404425,-0.93373865
6.1474295,4.612283,0.23572509,0.09434259,0.48276502,1.2785037,-9.423578,-0.8714894
6.147921,4.6126394,0.23572509,0.09434259,0.48276502,1.2785037,-9.423578,-0.8714894
6.148406,4.612794,0.23572509,0.09647312,0.4923524,1.2785037,-9.3661175,-0.9864111
6.1488833,4.6129484,0.23572509,0.09647312,0.4923524,1.2785037,-9.3661175,-0.9864111
6.14935,4.613106,0.23572509,0.09860365,0.5019398,1.2880806,-9.385271,-0.9911995
6.1498094,4.6132627,0.23572509,0.09860365,0.5019398,1.2880806,-9.385271,-0.9911995
6.1502967,4.6134167,0.23359455,0.10179944,0.5136577,1.283292,-9.390059,-1.043872
6.1507792,4.6135707,0.23359455,0.10179944,0.5136577,1.283292,-9.390059,-1.043872
6.1511583,4.613852,0.23039876,0.1060605,0.5253756,1.2785037,-9.375694,-0.92416185
6.1515326,4.614117,0.23039876,0.1060605,0.5253756,1.2785037,-9.375694,-0.92416185
6.151999,4.6142707,0.22400717,0.10925629,0.53602827,1.2785037,-9.3421755,-0.9768343
6.1524615,4.6144257,0.22400717,0.10925629,0.53602827,1.2785037,-9.3421755,-0.9768343
6.152954,4.614567,0.21548507,0.11351735,0.54881144,1.2880806,-9.3182335,-1.0390835
6.1534486,4.6147103,0.21548507,0.11351735,0.54881144,1.2880806,-9.3182335,-1.0390835
6.153937,4.6148562,0.20802821,0.118843675,0.5594641,1.3072342,-9.380483,-1.0151415
6.1543956,4.6149955,0.20802821,0.118843675,0.5594641,1.3072342,-9.380483,-1.0151415
6.1549087,4.6151195,0.19737557,0.12310473,0.5733125,1.2545617,-9.313444,-1.0007763
6.1554184,4.615245,0.19737557,0.12310473,0.5733125,1.2545617,-9.313444,-1.0007763
6.155971,4.615354,0.18565765,0.12843105,0.5860957,1.2354081,-9.370906,-1.0486604
6.1565247,4.6154647,0.18565765,0.12843105,0.5860957,1.2354081,-9.370906,-1.0486604
6.1570945,4.615562,0.17287448,0.13695318,0.6020746,1.2258313,-9.380483,-1.067814
6.1576605,4.615659,0.17287448,0.13695318,0.6020746,1.2258313,-9.380483,-1.067814
6.158281,4.6157436,0.15796077,0.14654055,0.61911887,1.1731589,-9.461885,-1.0630256
6.1588993,4.615828,0.15796077,0.14654055,0.61911887,1.1731589,-9.461885,-1.0630256
6.1595435,4.6158996,0.14304708,0.1571932,0.6361631,1.1444284,-9.466674,-1.0821792
6.1601844,4.6159706,0.14304708,0.1571932,0.6361631,1.1444284,-9.466674,-1.0821792
6.160845,4.616029,0.12813337,0.16997637,0.65214205,1.1492168,-9.485827,-1.0390835
6.1614957,4.616086,0.12813337,0.16997637,0.65214205,1.1492168,-9.485827,-1.0390835
6.1621833,4.616133,0.11215441,0.1838248,0.6670558,1.1204864,-9.504981,-1.0247183
6.162867,4.6161785,0.11215441,0.1838248,0.6670558,1.1204864,-9.504981,-1.0247183
6.163559,4.61621,0.09617544,0.19980377,0.67770845,1.1204864,-9.519346,-1.0151415
6.1642447,4.6162405,0.09617544,0.19980377,0.67770845,1.1204864,-9.519346,-1.0151415
6.1649227,4.616251,0.07700068,0.21578273,0.68836105,1.1348516,-9.56723,-1.0295067
6.165595,4.6162615,0.07700068,0.21578273,0.68836105,1.1348516,-9.56723,-1.0295067
6.166209,4.6162605,0.055695392,0.23069644,0.69581795,1.1923125,-9.639056,-1.0055647
6.1668167,4.6162605,0.055695392,0.23069644,0.69581795,1.1923125,-9.639056,-1.0055647
6.167488,4.6162324,0.03545537,0.24454488,0.69794846,1.1348516,-9.662998,-1.0103531
6.1681533,4.616204,0.03545537,0.24454488,0.69794846,1.1348516,-9.662998,-1.0103531
6.168817,4.6161566,0.015215342,0.25839332,0.7011442,1.1300632,-9.691729,-0.9864111
6.169469,4.61611,0.015215342,0.25839332,0.7011442,1.1300632,-9.691729,-0.9864111
6.1702056,4.6160536,-0.006089947,0.2711765,0.70220953,1.0821792,-9.744401,-0.9911995
6.1709337,4.6159935,-0.006089947,0.2711765,0.70220953,1.0821792,-9.744401,-0.9911995
6.1717434,4.615985,-0.026329972,0.28076386,0.7011442,1.067814,-9.830592,-0.9576807
6.1725497,4.615971,-0.026329972,0.28076386,0.7011442,1.067814,-9.830592,-0.9576807
6.1733365,4.6159163,-0.045504734,0.29035124,0.69794846,1.0151415,-9.849746,-0.9864111
6.1741214,4.615858,-0.045504734,0.29035124,0.69794846,1.0151415,-9.849746,-0.9864111
6.1747727,4.6159334,-0.06361423,0.29567757,0.6926221,1.0869676,-9.868899,-0.93852705
6.175388,4.6160026,-0.06361423,0.29567757,0.6926221,1.0869676,-9.868899,-0.93852705
6.1761065,4.6160507,-0.08065846,0.29887336,0.6851653,1.0486604,-9.902418,-0.91937345
6.1768394,4.616104,-0.08065846,0.29887336,0.6851653,1.0486604,-9.902418,-0.91937345
6.1775584,4.616123,-0.09557216,0.3010039,0.67770845,1.0055647,-9.959879,-0.90979666
6.1782784,4.616146,-0.09557216,0.3010039,0.67770845,1.0055647,-9.959879,-0.90979666
6.1789536,4.6161695,-0.108355336,0.3041997,0.6670558,0.9864111,-10.022128,-0.82360536
6.179631,4.6161942,-0.108355336,0.3041997,0.6670558,0.9864111,-10.022128,-0.82360536
6.180301,4.6162095,-0.11794271,0.3073955,0.6564031,0.9672575,-10.01734,-0.79487497
6.180963,4.6162252,-0.11794271,0.3073955,0.6564031,0.9672575,-10.01734,-0.79487497
6.1816077,4.616231,-0.12859535,0.3073955,0.64575046,0.9720459,-10.04607,-0.78050977
6.182247,4.6162367,-0.12859535,0.3073955,0.64575046,0.9720459,-10.04607,-0.78050977
6.182887,4.616233,-0.1360522,0.3073955,0.63190204,0.92416185,-10.055647,-0.7422025
6.1835237,4.616229,-0.1360522,0.3073955,0.63190204,0.92416185,-10.055647,-0.7422025
6.1841636,4.6162148,-0.14244379,0.30526495,0.6180536,0.89064306,-10.084377,-0.7661445
6.1848,4.616201,-0.14244379,0.30526495,0.6180536,0.89064306,-10.084377,-0.7661445
6.1854343,4.6161785,-0.14670485,0.3031344,0.60100937,0.8283938,-10.108319,-0.7278373
6.1864038,4.6161447,-0.14670485,0.3031344,0.60100937,0.8283938,-10.108319,-0.7278373
6.1864038,4.6161447,-0.14670485,0.3031344,0.60100937,0.8283938,-10.108319,-0.7278373
6.1864038,4.6161447,-0.14670485,0.3031344,0.60100937,0.8283938,-10.108319,-0.7278373
6.1864038,4.6161447,-0.14670485,0.3031344,0.60100937,0.8283938,-10.108319,-0.7278373
6.18861,4.6160827,-0.14350906,0.2796986,0.5381588,0.93373865,-10.213664,-0.6943185
6.189044,4.6160717,-0.14350906,0.2796986,0.5381588,0.93373865,-10.213664,-0.6943185
6.1895413,4.6160583,-0.14350906,0.2796986,0.5381588,0.93373865,-10.213664,-0.6943185
6.189962,4.6160507,-0.13711748,0.26904595,0.5136577,0.9624691,-10.1226845,-0.7326257
6.1904325,4.616042,-0.13711748,0.26904595,0.5136577,0.9624691,-10.1226845,-0.7326257
6.1908965,4.6160398,-0.12966062,0.25732806,0.4859608,0.92416185,-10.103531,-0.6607997
6.1913586,4.616037,-0.12966062,0.25732806,0.4859608,0.92416185,-10.103531,-0.6607997
6.1917906,4.616043,-0.11900798,0.24561015,0.45613343,0.92895025,-10.113108,-0.6799533
6.1922026,4.6160493,-0.11900798,0.24561015,0.45613343,0.92895025,-10.113108,-0.6799533
6.1926103,4.6160636,-0.1094206,0.2349575,0.426306,0.90979666,-10.084377,-0.7134721
6.1930323,4.6160784,-0.1094206,0.2349575,0.426306,0.90979666,-10.084377,-0.7134721
6.193406,4.6161056,-0.09557216,0.22537012,0.39541334,0.90979666,-10.0987425,-0.7422025
6.193776,4.6161323,-0.09557216,0.22537012,0.39541334,0.90979666,-10.0987425,-0.7422025
6.194141,4.616171,-0.08172372,0.21258694,0.36558592,0.866701,-10.065224,-0.79487497
6.1945057,4.61621,-0.08172372,0.21258694,0.36558592,0.866701,-10.065224,-0.79487497
6.194842,4.6162615,-0.06681002,0.2019343,0.3368238,0.842759,-10.060435,-0.7086837
6.195176,4.6163135,-0.06681002,0.2019343,0.3368238,0.842759,-10.060435,-0.7086837
6.1954994,4.616377,-0.05189632,0.19128166,0.30806166,0.80445176,-10.04607,-0.7374141
6.1958213,4.6164403,-0.05189632,0.19128166,0.30806166,0.80445176,-10.04607,-0.7374141
6.1961427,4.6165123,-0.03698262,0.18062901,0.28356057,0.78050977,-10.031705,-0.80445176
6.196463,4.6165843,-0.03698262,0.18062901,0.28356057,0.78050977,-10.031705,-0.80445176
6.196741,4.6166787,-0.018873122,0.16997637,0.26119003,0.8283938,-10.065224,-0.8283938
6.1970177,4.616773,-0.018873122,0.16997637,0.26119003,0.8283938,-10.065224,-0.8283938
6.1972647,4.616886,-0.0007636249,0.16145425,0.24201526,0.8379706,-10.04607,-0.81402856
6.19751,4.6169996,-0.0007636249,0.16145425,0.24201526,0.8379706,-10.04607,-0.81402856
6.1977415,4.6171284,0.016280606,0.15186687,0.22497103,0.81402856,-9.988609,-0.7517793
6.197972,4.6172576,0.016280606,0.15186687,0.22497103,0.81402856,-9.988609,-0.7517793
6.198166,4.617403,0.032259572,0.14334476,0.21005733,0.8571242,-9.969456,-0.79487497
6.198358,4.617548,0.032259572,0.14334476,0.21005733,0.8571242,-9.969456,-0.79487497
6.198563,4.6177087,0.049303804,0.1358879,0.19833942,0.81881696,-9.940725,-0.80445176
6.1987667,4.6178694,0.049303804,0.1358879,0.19833942,0.81881696,-9.940725,-0.80445176
6.1988864,4.618038,0.06528277,0.12949632,0.18768677,0.866701,-9.916783,-0.90021986
6.199002,4.6182055,0.06528277,0.12949632,0.18768677,0.866701,-9.916783,-0.90021986
6.199135,4.618396,0.08126174,0.12203947,0.17703412,0.8523358,-9.864111,-0.8810662
6.199264,4.6185846,0.08126174,0.12203947,0.17703412,0.8523358,-9.864111,-0.8810662
6.199424,4.618591,0.09511018,0.11564788,0.16851202,0.8283938,-9.816227,-0.9864111
6.19958,4.6185975,0.09511018,0.11564788,0.16851202,0.8283938,-9.816227,-0.9864111
6.1995993,4.61874,0.106828086,0.11245208,0.16531622,0.8283938,-9.739613,-0.91458505
6.1996136,4.6188607,0.106828086,0.11245208,0.16531622,0.8283938,-9.739613,-0.91458505
6.199757,4.61909,0.119611256,0.10819103,0.16212043,0.82360536,-9.768343,-0.89064306
6.1998944,4.619319,0.119611256,0.10819103,0.16212043,0.82360536,-9.768343,-0.89064306
6.1999745,4.6193743,0.13132916,0.10392997,0.16212043,0.8571242,-9.667787,-0.9576807
6.200054,4.619429,0.13132916,0.10392997,0.16212043,0.8571242,-9.667787,-0.9576807
6.2001815,4.6194816,0.14091654,0.10179944,0.16425095,0.8283938,-9.682152,-0.9672575
6.2003074,4.6195345,0.14091654,0.10179944,0.16425095,0.8283938,-9.682152,-0.9672575
6.200478,4.6195955,0.15050393,0.100734174,0.16744675,0.80445176,-9.677363,-0.92416185
6.2006416,4.619656,0.15050393,0.100734174,0.16744675,0.80445176,-9.677363,-0.92416185
6.2007885,4.6197276,0.16115656,0.09966891,0.17383833,0.80924016,-9.624691,-0.94810385
6.200933,4.6197996,0.16115656,0.09966891,0.17383833,0.80924016,-9.624691,-0.94810385
6.2010765,4.619883,0.17180921,0.09966891,0.18236046,0.80924016,-9.605537,-0.93852705
6.2012186,4.6199675,0.17180921,0.09966891,0.18236046,0.80924016,-9.605537,-0.93852705
6.2013316,4.6200714,0.1813966,0.09966891,0.1930131,0.82360536,-9.552865,-0.92895025
6.2014446,4.620176,0.1813966,0.09966891,0.1930131,0.82360536,-9.552865,-0.92895025
6.2015786,4.620284,0.18885344,0.100734174,0.20366573,0.8571242,-9.524135,-0.9911995
6.2017117,4.620392,0.18885344,0.100734174,0.20366573,0.8571242,-9.524135,-0.9911995
6.2018175,4.6205254,0.19737557,0.102864705,0.21218786,0.90021986,-9.471462,-0.9672575
6.2019234,4.62066,0.19737557,0.102864705,0.21218786,0.90021986,-9.471462,-0.9672575
6.202002,4.6208444,0.20483242,0.102864705,0.2228405,0.89064306,-9.44752,-0.89543146
6.2020817,4.6210275,0.20483242,0.102864705,0.2228405,0.89064306,-9.44752,-0.89543146
6.2022114,4.621173,0.21015874,0.102864705,0.23349315,0.90500826,-9.437943,-0.9720459
6.202341,4.6213174,0.21015874,0.102864705,0.23349315,0.90500826,-9.437943,-0.9720459
6.2024508,4.621495,0.21548507,0.102864705,0.24308053,0.89543146,-9.404425,-0.90979666
6.2025614,4.621671,0.21548507,0.102864705,0.24308053,0.89543146,-9.404425,-0.90979666
