Pitch,Roll,Gyro_X,Gyro_Y,Gyro_Z,Accel_X,Accel_Y,Accel_Z
6.234299,4.6675043,0.05995645,0.024035135,0.0012654932,0.36870706,-9.768343,-0.37349546
6.2343388,4.667657,0.05782592,0.019774077,-0.0072566224,0.4261679,-9.80665,-0.33518824
6.2343783,4.6678076,0.05782592,0.019774077,-0.0072566224,0.4261679,-9.80665,-0.33518824
6.2344456,4.667945,0.056760654,0.016578285,-0.015778739,0.41180268,-9.773131,-0.37349546
6.2345133,4.6680813,0.056760654,0.016578285,-0.015778739,0.41180268,-9.773131,-0.37349546
6.2345586,4.668222,0.054630127,0.012317227,-0.024300855,0.36391866,-9.77792,-0.29688102
6.2346044,4.6683626,0.054630127,0.012317227,-0.024300855,0.36391866,-9.77792,-0.29688102
6.2346373,4.6685038,0.05356486,0.0069909045,-0.031757705,0.38307226,-9.768343,-0.30645782
6.2346706,4.668646,0.05356486,0.0069909045,-0.031757705,0.38307226,-9.768343,-0.30645782
6.2346883,4.668791,0.05356486,0.0027298466,-0.03814929,0.36870706,-9.730036,-0.25857377
6.2347064,4.6689353,0.05356486,0.0027298466,-0.03814929,0.36870706,-9.730036,-0.25857377
6.2347574,4.6690617,0.0524996,-0.0015312112,-0.04454088,0.34476504,-9.773131,-0.32561144
6.2348075,4.669185,0.0524996,-0.0015312112,-0.04454088,0.34476504,-9.773131,-0.32561144
6.234816,4.6693273,0.0524996,-0.005792269,-0.048801936,0.37828386,-9.758766,-0.272939
6.234825,4.6694694,0.0524996,-0.005792269,-0.048801936,0.37828386,-9.758766,-0.272939
6.2348433,4.669606,0.0524996,-0.010053327,-0.053062994,0.37349546,-9.715671,-0.30166942
6.234863,4.669743,0.0524996,-0.010053327,-0.053062994,0.37349546,-9.715671,-0.30166942
6.2348623,4.6698847,0.051434334,-0.015379649,-0.056258786,0.40701428,-9.715671,-0.31124622
6.234863,4.670041,0.051434334,-0.015379649,-0.056258786,0.40701428,-9.715671,-0.31124622
6.234863,4.670041,0.051434334,-0.015379649,-0.056258786,0.40701428,-9.715671,-0.31124622
6.2348137,4.670336,0.051434334,-0.020705972,-0.060519844,0.4309563,-9.701305,-0.30645782
6.2347736,4.6704693,0.05356486,-0.026032293,-0.064780906,0.45010993,-9.615114,-0.320823
6.2347293,4.670618,0.05356486,-0.026032293,-0.064780906,0.45010993,-9.615114,-0.320823
6.234656,4.67077,0.054630127,-0.029228088,-0.06584617,0.47884035,-9.65821,-0.2873042
6.234656,4.67077,0.054630127,-0.029228088,-0.06584617,0.47884035,-9.65821,-0.2873042
6.2345,4.6710873,0.055695392,-0.03242388,-0.06584617,0.47884035,-9.595961,-0.34955344
6.23442,4.6712265,0.055695392,-0.03242388,-0.06584617,0.47884035,-9.595961,-0.34955344
6.2343645,4.6713805,0.056760654,-0.03455441,-0.062650375,0.46447513,-9.639056,-0.29209262
6.2343097,4.671534,0.056760654,-0.03455441,-0.062650375,0.46447513,-9.639056,-0.29209262
6.2342114,4.671686,0.05995645,-0.035619672,-0.060519844,0.49320555,-9.591172,-0.33518824
6.234114,4.671838,0.05995645,-0.035619672,-0.060519844,0.49320555,-9.591172,-0.33518824
6.234114,4.671838,0.05995645,-0.035619672,-0.060519844,0.49320555,-9.591172,-0.33518824
6.2337255,4.672084,0.06315224,-0.03988073,-0.059454583,0.5363012,-9.557653,-0.35913026
6.2335687,4.6721416,0.0674133,-0.040945996,-0.056258786,0.5410896,-9.562442,-0.38307226
6.233375,4.6722107,0.0674133,-0.040945996,-0.056258786,0.5410896,-9.562442,-0.38307226
6.23324,4.6723585,0.07167436,-0.040945996,-0.05412826,0.5793968,-9.514558,-0.2825158
6.2331038,4.6725082,0.07167436,-0.040945996,-0.05412826,0.5793968,-9.514558,-0.2825158
6.232917,4.672599,0.074870154,-0.040945996,-0.05199773,0.59376204,-9.509769,-0.36391866
6.2327285,4.6726894,0.074870154,-0.040945996,-0.05199773,0.59376204,-9.509769,-0.36391866
6.2325397,4.6727805,0.07913121,-0.040945996,-0.050932467,0.5554548,-9.471462,-0.36870706
6.2323523,4.6728687,0.07913121,-0.040945996,-0.050932467,0.5554548,-9.471462,-0.36870706
6.232166,4.6729345,0.082327,-0.04201126,-0.0498672,0.60333884,-9.490616,-0.3878607
6.231979,4.6729994,0.082327,-0.04201126,-0.0498672,0.60333884,-9.490616,-0.3878607
6.231802,4.673115,0.08339227,-0.043076526,-0.04773667,0.56982,-9.442732,-0.34955344
6.2316246,4.6732297,0.08339227,-0.043076526,-0.04773667,0.56982,-9.442732,-0.34955344
6.2314653,4.6733694,0.08658806,-0.044141788,-0.045606144,0.62249243,-9.457097,-0.30645782
6.2313056,4.6735086,0.08658806,-0.044141788,-0.045606144,0.62249243,-9.457097,-0.30645782
6.231131,4.673622,0.087653324,-0.045207053,-0.04241035,0.63206923,-9.399636,-0.33518824
6.230956,4.673735,0.087653324,-0.045207053,-0.04241035,0.63206923,-9.399636,-0.33518824
6.230781,4.6738353,0.08658806,-0.048402846,-0.039214555,0.6607997,-9.41879,-0.34476504
6.2306056,4.6739345,0.08658806,-0.048402846,-0.039214555,0.6607997,-9.41879,-0.34476504
6.2304306,4.6740313,0.087653324,-0.04946811,-0.03814929,0.63206923,-9.385271,-0.34955344
6.230255,4.6741266,0.087653324,-0.04946811,-0.03814929,0.63206923,-9.385271,-0.34955344
6.230082,4.67422,0.08871859,-0.051598642,-0.034953497,0.61291564,-9.409213,-0.35434186
6.229892,4.674322,0.08871859,-0.051598642,-0.034953497,0.61291564,-9.409213,-0.35434186
6.2297473,4.674433,0.08871859,-0.05372917,-0.03282297,0.6512229,-9.423578,-0.31603462
6.2295804,4.674561,0.08871859,-0.05372917,-0.03282297,0.6512229,-9.423578,-0.31603462
6.229417,4.6746387,0.087653324,-0.0558597,-0.031757705,0.6368576,-9.394848,-0.35913026
6.229248,4.6747184,0.087653324,-0.0558597,-0.031757705,0.6368576,-9.394848,-0.35913026
6.2290864,4.6748195,0.08658806,-0.05692496,-0.028561912,0.6799533,-9.385271,-0.33039984
6.228922,4.674921,0.08658806,-0.05692496,-0.028561912,0.6799533,-9.385271,-0.33039984
6.228758,4.6750216,0.08445753,-0.060120758,-0.027496647,0.6655881,-9.375694,-0.33039984
6.2285953,4.675121,0.08445753,-0.060120758,-0.027496647,0.6655881,-9.375694,-0.33039984
6.2284446,4.6751623,0.08339227,-0.060120758,-0.024300855,0.6751649,-9.351752,-0.39743748
6.2282925,4.6752033,0.08339227,-0.060120758,-0.024300855,0.6751649,-9.351752,-0.39743748
6.2281466,4.675324,0.082327,-0.060120758,-0.022170324,0.6751649,-9.394848,-0.29688102
6.2280006,4.675444,0.082327,-0.060120758,-0.022170324,0.6751649,-9.394848,-0.29688102
6.2278438,4.6755114,0.07806595,-0.06118602,-0.020039797,0.6560113,-9.390059,-0.35434186
6.2276864,4.6755776,0.07806595,-0.06118602,-0.020039797,0.6560113,-9.390059,-0.35434186
6.2275343,4.6756306,0.075935416,-0.06118602,-0.015778739,0.6512229,-9.3661175,-0.36391866
6.2273846,4.675682,0.075935416,-0.06118602,-0.015778739,0.6512229,-9.3661175,-0.36391866
6.2272406,4.6757793,0.073804885,-0.06118602,-0.012582945,0.6799533,-9.3421755,-0.31124622
6.227095,4.6758766,0.073804885,-0.06118602,-0.012582945,0.6799533,-9.3421755,-0.31124622
6.226991,4.675871,0.07060909,-0.062251285,-0.010452416,0.6512229,-9.394848,-0.4357447
6.2268863,4.675865,0.07060909,-0.062251285,-0.010452416,0.6512229,-9.394848,-0.4357447
6.2267494,4.6758943,0.06528277,-0.062251285,-0.006191358,0.6560113,-9.370906,-0.37349546
6.226614,4.6759233,0.06528277,-0.062251285,-0.006191358,0.6560113,-9.370906,-0.37349546
6.2264752,4.675992,0.061021715,-0.060120758,-0.0019303001,0.62728083,-9.399636,-0.33518824
6.226336,4.6760597,0.061021715,-0.060120758,-0.0019303001,0.62728083,-9.399636,-0.33518824
6.226201,4.6761084,0.054630127,-0.059055492,0.0023307577,0.641646,-9.41879,-0.34476504
6.2260656,4.6761556,0.054630127,-0.059055492,0.0023307577,0.641646,-9.41879,-0.34476504
6.2259316,4.6761947,0.049303804,-0.059055492,0.0044612866,0.61291564,-9.414001,-0.34476504
6.2257986,4.6762333,0.049303804,-0.059055492,0.0044612866,0.61291564,-9.414001,-0.34476504
6.22568,4.6762323,0.04291222,-0.059055492,0.00765708,0.62728083,-9.471462,-0.36870706
6.2255626,4.6762314,0.04291222,-0.059055492,0.00765708,0.62728083,-9.471462,-0.36870706
6.225444,4.6762342,0.037585896,-0.059055492,0.011918138,0.6368576,-9.481039,-0.36391866
6.2253246,4.6762366,0.037585896,-0.059055492,0.011918138,0.6368576,-9.481039,-0.36391866
6.2252235,4.676209,0.030129045,-0.059055492,0.014048667,0.58418524,-9.514558,-0.35913026
6.2251225,4.6761813,0.030129045,-0.059055492,0.014048667,0.58418524,-9.514558,-0.35913026
6.2250447,4.6761293,0.023737457,-0.060120758,0.01724446,0.6512229,-9.524135,-0.4165911
6.224967,4.6760783,0.023737457,-0.060120758,0.01724446,0.6512229,-9.524135,-0.4165911
6.224939,4.6759987,0.017345872,-0.059055492,0.019374989,0.62249243,-9.552865,-0.46926352
6.2249107,4.6759195,0.017345872,-0.059055492,0.019374989,0.62249243,-9.552865,-0.46926352
6.224907,4.6758285,0.00988902,-0.05692496,0.021505518,0.59855044,-9.572019,-0.48841715
6.2249026,4.6757374,0.00988902,-0.05692496,0.021505518,0.59855044,-9.572019,-0.48841715
6.2248883,4.675642,0.003497433,-0.05372917,0.024701312,0.62249243,-9.56723,-0.49799395
6.2248735,4.675547,0.003497433,-0.05372917,0.024701312,0.62249243,-9.56723,-0.49799395
6.2248807,4.6754436,-0.0028941538,-0.04946811,0.02683184,0.59376204,-9.605537,-0.50278234
6.224888,4.675339,-0.0028941538,-0.04946811,0.02683184,0.59376204,-9.605537,-0.50278234
6.224928,4.675229,-0.008220476,-0.047337584,0.027897105,0.5506664,-9.643845,-0.48362875
6.2249675,4.6751184,-0.008220476,-0.047337584,0.027897105,0.5506664,-9.643845,-0.48362875
6.2249875,4.6750035,-0.013546798,-0.044141788,0.030027634,0.58418524,-9.65821,-0.5410896
6.225008,4.674888,-0.013546798,-0.044141788,0.030027634,0.58418524,-9.65821,-0.5410896
6.2250423,4.674769,-0.017807856,-0.03881547,0.032158162,0.5650316,-9.706094,-0.46926352
6.2250767,4.6746492,-0.017807856,-0.03881547,0.032158162,0.5650316,-9.706094,-0.46926352
6.225143,4.6745286,-0.022068914,-0.033489145,0.033223428,0.51714754,-9.730036,-0.51714754
6.225209,4.6744075,-0.022068914,-0.033489145,0.033223428,0.51714754,-9.730036,-0.51714754
6.2252607,4.674282,-0.025264706,-0.031358615,0.031092897,0.5363012,-9.768343,-0.5315128
6.2253127,4.674155,-0.025264706,-0.031358615,0.031092897,0.5363012,-9.768343,-0.5315128
6.2253485,4.6740274,-0.027395237,-0.029228088,0.031092897,0.5602432,-9.801862,-0.60333884
6.2253847,4.6738973,-0.027395237,-0.029228088,0.031092897,0.5602432,-9.801862,-0.60333884
6.225408,4.67377,-0.0284605,-0.028162822,0.030027634,0.5746084,-9.821015,-0.45489833
6.2254314,4.6736403,-0.0284605,-0.028162822,0.030027634,0.5746084,-9.821015,-0.45489833
6.225432,4.673512,-0.029525764,-0.027097559,0.031092897,0.6560113,-9.854534,-0.6464345
6.225433,4.6733837,-0.029525764,-0.027097559,0.031092897,0.6560113,-9.854534,-0.6464345
6.225456,4.673251,-0.031656295,-0.02496703,0.031092897,0.59855044,-9.892841,-0.6799533
6.2254796,4.673118,-0.031656295,-0.02496703,0.031092897,0.59855044,-9.892841,-0.6799533
6.2255883,4.6730046,-0.031656295,-0.021771235,0.025766576,0.4213795,-9.998186,-0.545878
6.2256975,4.672891,-0.031656295,-0.021771235,0.025766576,0.4213795,-9.998186,-0.545878
6.22584,4.672808,-0.029525764,-0.020705972,0.022570781,0.35434186,-10.01734,-0.49320555
6.2259836,4.6727247,-0.029525764,-0.020705972,0.022570781,0.35434186,-10.01734,-0.49320555
6.226141,4.6726727,-0.025264706,-0.020705972,0.021505518,0.38307226,-10.055647,-0.4357447
6.226299,4.672621,-0.025264706,-0.020705972,0.021505518,0.38307226,-10.055647,-0.4357447
6.2264433,4.6725535,-0.018873122,-0.023901764,0.020440254,0.38307226,-9.998186,-0.46926352
6.2265887,4.672486,-0.018873122,-0.023901764,0.020440254,0.38307226,-9.998186,-0.46926352
6.226726,4.6724195,-0.0114162695,-0.026032293,0.018309724,0.41180268,-10.070012,-0.47405192
6.2268634,4.6723533,-0.0114162695,-0.026032293,0.018309724,0.41180268,-10.070012,-0.47405192
6.2269874,4.6724124,-0.0039594183,-0.028162822,0.01724446,0.4405331,-10.089166,-0.32561144
6.2271113,4.6724715,-0.0039594183,-0.028162822,0.01724446,0.4405331,-10.089166,-0.32561144
6.226991,4.672463,0.005627962,-0.029228088,0.01724446,0.56982,-10.060435,-0.40222588
6.2268705,4.6724534,0.005627962,-0.029228088,0.01724446,0.56982,-10.060435,-0.40222588
6.2269745,4.672542,0.0141500775,-0.029228088,0.014048667,0.51235914,-10.089166,-0.35434186
6.227079,4.6726313,0.0141500775,-0.029228088,0.014048667,0.51235914,-10.089166,-0.35434186
6.227111,4.6725545,0.022672193,-0.029228088,0.00765708,0.5602432,-10.0748005,-0.4261679
6.227143,4.6724777,0.022672193,-0.029228088,0.00765708,0.5602432,-10.0748005,-0.4261679
6.2271905,4.672414,0.031194309,-0.030293351,0.00020022877,0.5363012,-10.089166,-0.46447513
6.2272377,4.6723495,0.031194309,-0.030293351,0.00020022877,0.5363012,-10.089166,-0.46447513
6.2273016,4.6723003,0.03865116,-0.029228088,-0.006191358,0.48841715,-10.065224,-0.49799395
6.2273655,4.6722503,0.03865116,-0.029228088,-0.006191358,0.48841715,-10.065224,-0.49799395
6.2274384,4.6722164,0.047173277,-0.030293351,-0.012582945,0.49320555,-10.055647,-0.46926352
6.227511,4.6721816,0.047173277,-0.030293351,-0.012582945,0.49320555,-10.055647,-0.46926352
6.227611,4.672181,0.05356486,-0.031358615,-0.020039797,0.4165911,-10.084377,-0.46926352
6.2277117,4.6721807,0.05356486,-0.031358615,-0.020039797,0.4165911,-10.084377,-0.46926352
6.227809,4.6721916,0.05995645,-0.033489145,-0.027496647,0.4165911,-10.065224,-0.45968673
6.2279058,4.6722016,0.05995645,-0.033489145,-0.027496647,0.4165911,-10.065224,-0.45968673
6.228004,4.67223,0.06634804,-0.037750203,-0.033888236,0.3878607,-10.127473,-0.45489833
6.228102,4.672258,0.06634804,-0.037750203,-0.033888236,0.3878607,-10.127473,-0.45489833
6.228183,4.672383,0.073804885,-0.04201126,-0.03814929,0.4357447,-10.093954,-0.34955344
6.2282643,4.6725082,0.073804885,-0.04201126,-0.03814929,0.4357447,-10.093954,-0.34955344
6.228354,4.6726246,0.08019647,-0.04627232,-0.04027982,0.38307226,-10.060435,-0.34955344
6.2284446,4.672741,0.08019647,-0.04627232,-0.04027982,0.38307226,-10.060435,-0.34955344
6.228502,4.6728954,0.087653324,-0.04946811,-0.04241035,0.36870706,-10.132261,-0.2681506
6.2285595,4.673051,0.087653324,-0.04946811,-0.04241035,0.36870706,-10.132261,-0.2681506
6.2286277,4.6732035,0.09511018,-0.052663904,-0.04454088,0.33997664,-10.16578,-0.2825158
6.228697,4.673357,0.09511018,-0.052663904,-0.04454088,0.33997664,-10.16578,-0.2825158
6.228769,4.6735406,0.10363229,-0.05692496,-0.045606144,0.2777274,-10.132261,-0.23463176
6.2288256,4.6736856,0.10363229,-0.05692496,-0.045606144,0.2777274,-10.132261,-0.23463176
6.228885,4.6738553,0.11215441,-0.060120758,-0.046671405,0.2873042,-10.093954,-0.22984336
6.228946,4.6740274,0.11215441,-0.060120758,-0.046671405,0.2873042,-10.093954,-0.22984336
6.229,4.674216,0.12174179,-0.06331655,-0.046671405,0.29209262,-10.084377,-0.20590134
6.2290545,4.6744037,0.12174179,-0.06331655,-0.046671405,0.29209262,-10.084377,-0.20590134
6.229131,4.674576,0.1270681,-0.066512346,-0.046671405,0.29688102,-10.103531,-0.2825158
6.2292085,4.674748,0.1270681,-0.066512346,-0.046671405,0.29688102,-10.103531,-0.2825158
6.22927,4.6749415,0.13452496,-0.06864287,-0.0498672,0.29209262,-10.065224,-0.23463176
6.2293315,4.675135,0.13452496,-0.06864287,-0.0498672,0.29209262,-10.065224,-0.23463176
6.2293925,4.6753287,0.14091654,-0.07183866,-0.05412826,0.32561144,-10.070012,-0.2633622
6.229454,4.675523,0.14091654,-0.07183866,-0.05412826,0.32561144,-10.070012,-0.2633622
6.229488,4.6757426,0.14624287,-0.07503446,-0.05412826,0.35913026,-10.0029745,-0.20590134
6.2295275,4.675994,0.14624287,-0.07503446,-0.05412826,0.35913026,-10.0029745,-0.20590134
6.2295785,4.6761794,0.15156919,-0.079295516,-0.056258786,0.34476504,-10.01734,-0.25857377
6.2295785,4.6761794,0.15156919,-0.079295516,-0.056258786,0.34476504,-10.01734,-0.25857377
6.2295785,4.6761794,0.15156919,-0.079295516,-0.056258786,0.34476504,-10.01734,-0.25857377
6.2295785,4.6761794,0.15156919,-0.079295516,-0.056258786,0.34476504,-10.01734,-0.25857377
6.229822,4.6770744,0.15796077,-0.08781763,-0.07010722,0.34955344,-9.935937,-0.25378537
6.229861,4.67726,0.15796077,-0.08781763,-0.07010722,0.34955344,-9.935937,-0.25378537
6.229879,4.6774454,0.15902604,-0.091013424,-0.07330302,0.36870706,-9.916783,-0.22026655
6.2299037,4.6776896,0.15902604,-0.091013424,-0.07330302,0.36870706,-9.916783,-0.22026655
6.2299438,4.6778803,0.16115656,-0.09420922,-0.078629345,0.4213795,-9.864111,-0.29688102
6.229988,4.6780825,0.16115656,-0.09420922,-0.078629345,0.4213795,-9.864111,-0.29688102
6.2300324,4.6782746,0.16009131,-0.09740501,-0.08821672,0.4309563,-9.868899,-0.31124622
6.230078,4.678465,0.16009131,-0.09740501,-0.08821672,0.4309563,-9.868899,-0.31124622
6.2299905,4.6787186,0.15902604,-0.09953554,-0.10099989,0.51714754,-9.844957,-0.272939
6.2299056,4.6789684,0.15902604,-0.09953554,-0.10099989,0.51714754,-9.844957,-0.272939
6.2299056,4.6789684,0.15902604,-0.09953554,-0.10099989,0.51714754,-9.844957,-0.272939
6.2296405,4.6790924,0.15902604,-0.09953554,-0.10952201,0.5267244,-9.811439,-0.35434186
6.2296295,4.6792564,0.16009131,-0.09740501,-0.11697886,0.48362875,-9.744401,-0.29688102
6.229617,4.67948,0.16009131,-0.09740501,-0.11697886,0.48362875,-9.744401,-0.29688102
6.229637,4.679637,0.16009131,-0.09633975,-0.123370446,0.46926352,-9.773131,-0.320823
6.2296567,4.67979,0.16009131,-0.09633975,-0.123370446,0.46926352,-9.773131,-0.320823
6.2296686,4.6799254,0.16115656,-0.09633975,-0.12869677,0.44532153,-9.77792,-0.33039984
6.2296796,4.6800585,0.16115656,-0.09633975,-0.12869677,0.44532153,-9.77792,-0.33039984
6.2296906,4.6802125,0.16115656,-0.095274486,-0.13189256,0.4213795,-9.720459,-0.31603462
6.229702,4.6803637,0.16115656,-0.095274486,-0.13189256,0.4213795,-9.720459,-0.31603462
6.229652,4.6805997,0.16115656,-0.09633975,-0.13508835,0.4405331,-9.667787,-0.23463176
6.2296042,4.6808343,0.16115656,-0.09633975,-0.13508835,0.4405331,-9.667787,-0.23463176
6.2295485,4.680908,0.16222183,-0.09740501,-0.13615362,0.50278234,-9.758766,-0.33039984
6.229492,4.6809826,0.16222183,-0.09740501,-0.13615362,0.50278234,-9.758766,-0.33039984
6.2292743,4.6810584,0.16009131,-0.09633975,-0.13508835,0.5554548,-9.720459,-0.33518824
6.2290606,4.681132,0.16009131,-0.09633975,-0.13508835,0.5554548,-9.720459,-0.33518824
6.229003,4.681367,0.15689552,-0.095274486,-0.13615362,0.50278234,-9.701305,-0.2777274
6.228951,4.681599,0.15689552,-0.095274486,-0.13615362,0.50278234,-9.701305,-0.2777274
6.2288074,4.681649,0.15476498,-0.09420922,-0.13828415,0.5315128,-9.662998,-0.37349546
6.2286654,4.6816998,0.15476498,-0.09420922,-0.13828415,0.5315128,-9.662998,-0.37349546
6.2283926,4.6818566,0.15156919,-0.09207869,-0.13615362,0.5602432,-9.605537,-0.29209262
6.22812,4.6820083,0.15156919,-0.09207869,-0.13615362,0.5602432,-9.605537,-0.29209262
6.227855,4.682118,0.1483734,-0.08994816,-0.13508835,0.58897364,-9.581595,-0.30645782
6.227593,4.6822243,0.1483734,-0.08994816,-0.13508835,0.58897364,-9.581595,-0.30645782
6.227377,4.6822824,0.14304708,-0.08781763,-0.13508835,0.63206923,-9.581595,-0.38307226
6.2271624,4.6823397,0.14304708,-0.08781763,-0.13508835,0.63206923,-9.581595,-0.38307226
6.226889,4.6824656,0.1366555,-0.0856871,-0.13615362,0.6751649,-9.533711,-0.29209262
6.226616,4.6825905,0.1366555,-0.0856871,-0.13615362,0.6751649,-9.533711,-0.29209262
6.2263484,4.6826854,0.13026391,-0.08249131,-0.13615362,0.7278373,-9.519346,-0.32561144
6.226082,4.68278,0.13026391,-0.08249131,-0.13615362,0.7278373,-9.519346,-0.32561144
6.2258105,4.6828756,0.12387232,-0.08036078,-0.1372189,0.7182605,-9.509769,-0.31124622
6.2255397,4.682971,0.12387232,-0.08036078,-0.1372189,0.7182605,-9.509769,-0.31124622
6.2252727,4.683047,0.11641546,-0.08036078,-0.13828415,0.770933,-9.495404,-0.33997664
6.225006,4.6831217,0.11641546,-0.08036078,-0.13828415,0.770933,-9.495404,-0.33997664
6.2247434,4.683184,0.11108914,-0.078230254,-0.13934942,0.7182605,-9.504981,-0.33518824
6.2244806,4.6832457,0.11108914,-0.078230254,-0.13934942,0.7182605,-9.504981,-0.33518824
6.2242174,4.6833916,0.105762824,-0.078230254,-0.14147994,0.7422025,-9.514558,-0.21068975
6.223954,4.6835375,0.105762824,-0.078230254,-0.14147994,0.7422025,-9.514558,-0.21068975
6.223741,4.6837187,0.10150176,-0.079295516,-0.14361048,0.6368576,-9.485827,-0.18674773
6.223528,4.6839004,0.10150176,-0.079295516,-0.14361048,0.6368576,-9.485827,-0.18674773
6.223336,4.6840854,0.09830597,-0.08142605,-0.14254521,0.61770403,-9.504981,-0.18195933
6.2231455,4.684271,0.09830597,-0.08142605,-0.14254521,0.61770403,-9.504981,-0.18195933
6.2229743,4.684459,0.09830597,-0.08355658,-0.1372189,0.61770403,-9.490616,-0.1436521
6.222804,4.6846476,0.09830597,-0.08355658,-0.1372189,0.61770403,-9.490616,-0.1436521
6.2225757,4.6848125,0.09937123,-0.08675237,-0.1308273,0.6895301,-9.562442,-0.18674773
6.2223496,4.6849756,0.09937123,-0.08675237,-0.1308273,0.6895301,-9.562442,-0.18674773
6.222088,4.685082,0.09937123,-0.08994816,-0.12550098,0.7230489,-9.548077,-0.24899697
6.221826,4.6851873,0.09937123,-0.08994816,-0.12550098,0.7230489,-9.548077,-0.24899697
6.2216077,4.6853485,0.09937123,-0.091013424,-0.120174654,0.7230489,-9.543288,-0.16759412
6.221389,4.6855106,0.09937123,-0.091013424,-0.120174654,0.7230489,-9.543288,-0.16759412
6.221175,4.6856713,0.1004365,-0.091013424,-0.11271781,0.6895301,-9.514558,-0.19153613
6.220961,4.685832,0.1004365,-0.091013424,-0.11271781,0.6895301,-9.514558,-0.19153613
6.22099,4.6858954,0.09830597,-0.09207869,-0.107391484,0.46926352,-9.466674,-0.2777274
6.221019,4.685958,0.09830597,-0.09207869,-0.107391484,0.46926352,-9.466674,-0.2777274
6.221051,4.6860094,0.0972407,-0.09420922,-0.09886937,0.49799395,-9.44752,-0.2777274
6.2210827,4.68606,0.0972407,-0.09420922,-0.09886937,0.49799395,-9.44752,-0.2777274
6.220868,4.6861897,0.09404491,-0.09740501,-0.09034725,0.7422025,-9.514558,-0.20111294
6.2206535,4.6863184,0.09404491,-0.09740501,-0.09034725,0.7422025,-9.514558,-0.20111294
6.2204485,4.6864395,0.08871859,-0.09953554,-0.07969461,0.8762778,-9.500193,-0.16280572
6.220243,4.6865606,0.08871859,-0.09953554,-0.07969461,0.8762778,-9.500193,-0.16280572
6.2200365,4.6866603,0.08339227,-0.09740501,-0.07330302,0.8858546,-9.442732,-0.19632454
6.2198296,4.6867595,0.08339227,-0.09740501,-0.07330302,0.8858546,-9.442732,-0.19632454
6.2196283,4.6868563,0.07913121,-0.095274486,-0.0679767,0.8379706,-9.466674,-0.20111294
6.2194266,4.686953,0.07913121,-0.095274486,-0.0679767,0.8379706,-9.466674,-0.20111294
6.2192287,4.68704,0.073804885,-0.09420922,-0.06371564,0.92416185,-9.471462,-0.19632454
6.219031,4.687126,0.073804885,-0.09420922,-0.06371564,0.92416185,-9.471462,-0.19632454
6.2188334,4.68721,0.0674133,-0.09207869,-0.06371564,0.89064306,-9.428367,-0.19153613
6.218636,4.6872935,0.0674133,-0.09207869,-0.06371564,0.89064306,-9.428367,-0.19153613
6.218458,4.687402,0.062086977,-0.08781763,-0.06158511,0.866701,-9.519346,-0.12928689
6.218279,4.6875105,0.062086977,-0.08781763,-0.06158511,0.866701,-9.519346,-0.12928689
6.2180867,4.6875873,0.055695392,-0.0856871,-0.06158511,0.8810662,-9.452309,-0.18195933
6.217871,4.687672,0.055695392,-0.0856871,-0.06158511,0.8810662,-9.452309,-0.18195933
6.217871,4.687672,0.055695392,-0.0856871,-0.06158511,0.8810662,-9.452309,-0.18195933
6.217517,4.6878395,0.04823854,-0.08249131,-0.062650375,0.8619126,-9.485827,-0.14844051
6.2173257,4.687906,0.04291222,-0.079295516,-0.062650375,0.8714894,-9.471462,-0.17717093
6.217133,4.687973,0.04291222,-0.079295516,-0.062650375,0.8714894,-9.471462,-0.17717093
6.216946,4.6880465,0.037585896,-0.077164985,-0.060519844,0.8571242,-9.495404,-0.15801731
6.2167616,4.68812,0.037585896,-0.077164985,-0.060519844,0.8571242,-9.495404,-0.15801731
6.216593,4.6882,0.030129045,-0.07609972,-0.056258786,0.8810662,-9.586384,-0.11492168
6.216424,4.688281,0.030129045,-0.07609972,-0.056258786,0.8810662,-9.586384,-0.11492168
6.21625,4.688348,0.024802722,-0.07183866,-0.053062994,0.91937345,-9.581595,-0.12449849
6.216075,4.688415,0.024802722,-0.07183866,-0.053062994,0.91937345,-9.581595,-0.12449849
6.2159142,4.6884856,0.020541664,-0.066512346,-0.04773667,0.9528923,-9.615114,-0.08619126
6.215752,4.6885557,0.020541664,-0.066512346,-0.04773667,0.9528923,-9.615114,-0.08619126
6.215616,4.6886387,0.015215342,-0.06118602,-0.04241035,0.90021986,-9.643845,-0.04309563
6.2154794,4.688722,0.015215342,-0.06118602,-0.04241035,0.90021986,-9.643845,-0.04309563
6.2153482,4.6888003,0.010954284,-0.05692496,-0.037084028,0.93373865,-9.639056,-0.019153614
6.2152176,4.688879,0.010954284,-0.05692496,-0.037084028,0.93373865,-9.639056,-0.019153614
6.2150993,4.6889553,0.0066932263,-0.050533377,-0.028561912,0.91458505,-9.710882,-0.023942016
6.2149796,4.689033,0.0066932263,-0.050533377,-0.028561912,0.91458505,-9.710882,-0.023942016
6.2148995,4.6891212,0.003497433,-0.04627232,-0.018974531,0.8571242,-9.639056,0.05267244
6.214819,4.6892095,0.003497433,-0.04627232,-0.018974531,0.8571242,-9.639056,0.05267244
6.2147646,4.689299,0.001366904,-0.043076526,-0.006191358,0.8619126,-9.682152,0.1436521
6.21471,4.689389,0.001366904,-0.043076526,-0.006191358,0.8619126,-9.682152,0.1436521
6.2146697,4.689478,-0.0007636249,-0.04201126,0.005526551,0.82360536,-9.677363,0.090979666
6.214629,4.6895666,-0.0007636249,-0.04201126,0.005526551,0.82360536,-9.677363,0.090979666
6.214618,4.6896577,-0.0018288894,-0.04201126,0.020440254,0.78529817,-9.662998,0.1388637
6.2146072,4.689749,-0.0018288894,-0.04201126,0.020440254,0.78529817,-9.662998,0.1388637
6.214595,4.6898346,-0.0028941538,-0.044141788,0.03641922,0.8571242,-9.648633,0.1388637
6.2145824,4.68992,-0.0028941538,-0.044141788,0.03641922,0.8571242,-9.648633,0.1388637
6.214595,4.6900043,-0.006089947,-0.047337584,0.05133292,0.8523358,-9.672575,0.22505496
6.2146077,4.690089,-0.006089947,-0.047337584,0.05133292,0.8523358,-9.672575,0.22505496
6.2146363,4.690171,-0.009285741,-0.050533377,0.06624663,0.8283938,-9.648633,0.18674773
6.214665,4.6902523,-0.009285741,-0.050533377,0.06624663,0.8283938,-9.648633,0.18674773
6.2146983,4.690326,-0.014612063,-0.054794434,0.08116033,0.81881696,-9.677363,0.076614454
6.2147317,4.6904,-0.014612063,-0.054794434,0.08116033,0.81881696,-9.677363,0.076614454
6.2147727,4.6904655,-0.019938385,-0.06118602,0.09607403,0.8810662,-9.662998,0.1340753
6.214813,4.6905313,-0.019938385,-0.06118602,0.09607403,0.8810662,-9.662998,0.1340753
6.214864,4.6905885,-0.026329972,-0.066512346,0.10992247,0.91937345,-9.672575,0.15801731
6.214914,4.6906457,-0.026329972,-0.066512346,0.10992247,0.91937345,-9.672575,0.15801731
6.214983,4.690696,-0.034852087,-0.06970814,0.12377091,0.8858546,-9.653421,0.14844051
6.2150517,4.690746,-0.034852087,-0.06970814,0.12377091,0.8858546,-9.653421,0.14844051
6.2151237,4.6907825,-0.045504734,-0.07183866,0.13548881,0.866701,-9.667787,0.06703765
6.2151957,4.6908193,-0.045504734,-0.07183866,0.13548881,0.866701,-9.667787,0.06703765
6.2152867,4.690847,-0.058287904,-0.07290393,0.14294566,0.8283938,-9.677363,0.076614454
6.215377,4.690874,-0.058287904,-0.07290393,0.14294566,0.8283938,-9.677363,0.076614454
6.215439,4.690869,-0.075332135,-0.07396919,0.15146779,0.78529817,-9.696517,-0.10534488
6.2155004,4.690863,-0.075332135,-0.07396919,0.15146779,0.78529817,-9.696517,-0.10534488
6.2156343,4.6908627,-0.092376366,-0.07609972,0.1599899,0.7086837,-9.677363,-0.023942016
6.2157674,4.690862,-0.092376366,-0.07609972,0.1599899,0.7086837,-9.677363,-0.023942016
6.21599,4.690838,-0.11155113,-0.077164985,0.17064254,0.58418524,-9.667787,-0.08140286
6.2162104,4.690814,-0.11155113,-0.077164985,0.17064254,0.58418524,-9.667787,-0.08140286
6.2165337,4.6906943,-0.12966062,-0.079295516,0.18342571,0.47884035,-9.725247,-0.19153613
6.216857,4.690575,-0.12966062,-0.079295516,0.18342571,0.47884035,-9.725247,-0.19153613
6.2171946,4.6904087,-0.14883539,-0.08142605,0.1962089,0.4405331,-9.715671,-0.22984336
6.2175317,4.6902437,-0.14883539,-0.08142605,0.1962089,0.4405331,-9.715671,-0.22984336
6.217874,4.690029,-0.16694488,-0.08675237,0.21325313,0.45489833,-9.768343,-0.2777274
6.218217,4.689816,-0.16694488,-0.08675237,0.21325313,0.45489833,-9.768343,-0.2777274
6.2185926,4.6896257,-0.18611965,-0.09207869,0.23242788,0.51714754,-9.835381,-0.22026655
6.218967,4.6894383,-0.18611965,-0.09207869,0.23242788,0.51714754,-9.835381,-0.22026655
6.219296,4.6891365,-0.19996808,-0.09420922,0.25692895,0.59855044,-9.907207,-0.2825158
6.219609,4.688848,-0.19996808,-0.09420922,0.25692895,0.59855044,-9.907207,-0.2825158
6.220004,4.688571,-0.21168599,-0.09207869,0.28249532,0.5410896,-9.998186,-0.2873042
6.220399,4.688295,-0.21168599,-0.09207869,0.28249532,0.5410896,-9.998186,-0.2873042
6.2207913,4.6879864,-0.22020811,-0.08781763,0.3101922,0.5602432,-10.0987425,-0.320823
6.221186,4.687676,-0.22020811,-0.08781763,0.3101922,0.5602432,-10.0987425,-0.320823
6.2215443,4.6873465,-0.2265997,-0.08142605,0.34001958,0.59855044,-10.103531,-0.4213795
6.2215443,4.6873465,-0.2265997,-0.08142605,0.34001958,0.59855044,-10.103531,-0.4213795
6.2215443,4.6873465,-0.2265997,-0.08142605,0.34001958,0.59855044,-10.103531,-0.4213795
6.2215443,4.6873465,-0.2265997,-0.08142605,0.34001958,0.59855044,-10.103531,-0.4213795
6.2231216,4.6859126,-0.23192601,-0.0558597,0.40500072,0.59376204,-10.242394,-0.48841715
6.2233944,4.6856937,-0.23192601,-0.0558597,0.40500072,0.59376204,-10.242394,-0.48841715
6.2238812,4.685352,-0.23299128,-0.03881547,0.44121972,0.545878,-10.299856,-0.50278234
6.2243376,4.68503,-0.23299128,-0.03881547,0.44121972,0.545878,-10.299856,-0.50278234
6.2249484,4.684718,-0.23299128,-0.019640706,0.4806345,0.3878607,-10.338163,-0.4213795
6.2255425,4.6844144,-0.23299128,-0.019640706,0.4806345,0.3878607,-10.338163,-0.4213795
6.226172,4.6841383,-0.22873022,0.0048603755,0.5253756,0.31603462,-10.376471,-0.4213795
6.226872,4.6838307,-0.22873022,0.0048603755,0.5253756,0.31603462,-10.376471,-0.4213795
6.227505,4.683642,-0.22127336,0.029361458,0.575443,0.11971009,-10.371682,-0.2777274
6.228209,4.683432,-0.22127336,0.029361458,0.575443,0.11971009,-10.371682,-0.2777274
6.2289815,4.683238,-0.20955546,0.05173201,0.6340326,-0.08619126,-10.405201,-0.24420857
6.229751,4.6830454,-0.20955546,0.05173201,0.6340326,-0.08619126,-10.405201,-0.24420857
6.2305884,4.6828766,-0.19464175,0.07090677,0.7032748,-0.41180268,-10.381259,-0.15322891
6.2314215,4.682709,-0.19464175,0.07090677,0.7032748,-0.41180268,-10.381259,-0.15322891
6.232343,4.682557,-0.17653225,0.086885735,0.7863654,-0.78050977,-10.366894,-0.11971009
6.233258,4.6824064,-0.17653225,0.086885735,0.7863654,-0.78050977,-10.366894,-0.11971009
6.2342772,4.6822815,-0.15522698,0.09647312,0.8833045,-1.067814,-10.400413,-0.01436521
6.235285,4.6821585,-0.15522698,0.09647312,0.8833045,-1.067814,-10.400413,-0.01436521
6.2364044,4.6820745,-0.13072589,0.09966891,0.9919614,-1.1492168,-10.424355,0.23463176
6.2375174,4.681991,-0.13072589,0.09966891,0.9919614,-1.1492168,-10.424355,0.23463176
6.23874,4.6819444,-0.10196375,0.09647312,1.1144669,-1.1109096,-10.55843,0.34955344
6.239969,4.681898,-0.10196375,0.09647312,1.1144669,-1.1109096,-10.55843,0.34955344
6.241308,4.681896,-0.07107108,0.0911468,1.2454944,-0.8810662,-10.716447,0.521936
6.242655,4.681895,-0.07107108,0.0911468,1.2454944,-0.8810662,-10.716447,0.521936
6.2441173,4.6819353,-0.03804788,0.090081535,1.3786525,-0.7326257,-10.860099,0.6560113
6.2455745,4.681976,-0.03804788,0.090081535,1.3786525,-0.7326257,-10.860099,0.6560113
6.2471724,4.682058,-0.0018288894,0.09221206,1.5192673,-0.5602432,-10.960655,0.63206923
6.248768,4.6821394,-0.0018288894,0.09221206,1.5192673,-0.5602432,-10.960655,0.63206923
6.2504888,4.68226,0.034390103,0.10179944,1.6577517,-0.37828386,-11.066,0.49799395
6.2522206,4.6823816,0.034390103,0.10179944,1.6577517,-0.37828386,-11.066,0.49799395
6.2540755,4.6825423,0.07273962,0.11990894,1.7951708,-0.23463176,-11.022904,0.35913026
6.2559586,4.682707,0.07273962,0.11990894,1.7951708,-0.23463176,-11.022904,0.35913026
6.258139,4.6829166,0.11002388,0.1390837,1.9261984,-0.23942018,-10.955867,0.18195933
6.260037,4.6831007,0.11002388,0.1390837,1.9261984,-0.23942018,-10.955867,0.18195933
6.262154,4.6832643,0.1451776,0.15825845,2.0561607,-0.37828386,-10.845734,-0.22984336
6.264313,4.683431,0.1451776,0.15825845,2.0561607,-0.37828386,-10.845734,-0.22984336
6.266612,4.68357,0.17607027,0.17317216,2.1871881,-0.5506664,-10.635044,-0.545878
6.268919,4.683707,0.17607027,0.17317216,2.1871881,-0.5506664,-10.635044,-0.545878
6.271348,4.6838455,0.20057136,0.18275954,2.323542,-0.81402856,-10.481815,-0.8762778
6.273773,4.683983,0.20057136,0.18275954,2.323542,-0.81402856,-10.481815,-0.8762778
6.2763314,4.6841364,0.22400717,0.1838248,2.4630916,-1.0151415,-10.275913,-1.0869676
6.278886,4.6842885,0.22400717,0.1838248,2.4630916,-1.0151415,-10.275913,-1.0869676
6.281581,4.684446,0.2442472,0.17317216,2.6037066,-0.7134721,-10.0508585,-1.2354081
0.001053723,4.6846,0.2442472,0.17317216,2.6037066,-0.7134721,-10.0508585,-1.2354081
0.0038104518,4.6847615,0.26342195,0.15506266,2.750713,-0.2681506,-9.888053,-1.4269443
0.0065952647,4.6849236,0.26342195,0.15506266,2.750713,-0.2681506,-9.888053,-1.4269443
0.009445663,4.685102,0.28153145,0.13801843,2.8977196,0.22505496,-9.730036,-1.4269443
0.012313865,4.685281,0.28153145,0.13801843,2.8977196,0.22505496,-9.730036,-1.4269443
0.015291142,4.685486,0.30283675,0.117778406,3.0383344,0.6895301,-9.634268,-1.6184803
0.018263843,4.685691,0.30283675,0.117778406,3.0383344,0.6895301,-9.634268,-1.6184803
0.021346418,4.6859217,0.32414204,0.09540785,3.1704273,1.2737153,-9.514558,-1.9057846
0.02443411,4.6861534,0.32414204,0.09540785,3.1704273,1.2737153,-9.514558,-1.9057846
0.027632762,4.6864147,0.3465126,0.07729836,3.293998,1.958457,-9.313444,-2.1164744
0.030824356,4.6866746,0.3465126,0.07729836,3.293998,1.958457,-9.313444,-2.1164744
0.03412962,4.6869555,0.36781788,0.071972035,3.4058506,2.2409728,-9.069236,-2.3415294
0.037434313,4.687237,0.36781788,0.071972035,3.4058506,2.2409728,-9.069236,-2.3415294
0.04083313,4.6875353,0.3848621,0.071972035,3.5049202,2.705448,-8.643068,-2.5570073
0.04423149,4.6878343,0.3848621,0.071972035,3.5049202,2.705448,-8.643068,-2.5570073
0.04772425,4.6881437,0.4008411,0.0762331,3.5944026,2.657564,-8.101978,-2.767697
0.05121658,4.6884527,0.4008411,0.0762331,3.5944026,2.657564,-8.101978,-2.767697
0.054792963,4.6887717,0.41362426,0.08368994,3.677493,2.5905263,-7.675811,-2.7724855
0.058368888,4.6890907,0.41362426,0.08368994,3.677493,2.5905263,-7.675811,-2.7724855
0.062017534,4.6894197,0.4242769,0.089016266,3.7531269,2.825158,-7.029376,-2.8634653
0.06566585,4.6897483,0.4242769,0.089016266,3.7531269,2.825158,-7.029376,-2.8634653
0.06939562,4.69008,0.432799,0.09540785,3.8276954,2.408567,-6.7468605,-2.8203697
0.07312493,4.6904116,0.432799,0.09540785,3.8276954,2.408567,-6.7468605,-2.8203697
0.076925434,4.690753,0.44025585,0.09434259,3.9043944,2.504335,-6.3446345,-2.6479871
0.08072179,4.6910934,0.44025585,0.09434259,3.9043944,2.504335,-6.3446345,-2.6479871
0.084596455,4.69145,0.44984323,0.09434259,3.9842894,2.9017725,-5.9663506,-2.5330653
0.08846695,4.6918054,0.44984323,0.09434259,3.9842894,2.9017725,-5.9663506,-2.5330653
0.092417575,4.692172,0.4573001,0.100734174,4.0695105,3.0885203,-5.722142,-2.408567
0.09636803,4.6925373,0.4573001,0.100734174,4.0695105,3.0885203,-5.722142,-2.408567
0.100402854,4.692918,0.46369168,0.116713144,4.1621885,3.4332852,-5.568913,-2.135628
0.10443763,4.6932974,0.46369168,0.116713144,4.1621885,3.4332852,-5.568913,-2.135628
0.10856649,4.6936803,0.469018,0.14973634,4.2580624,3.466804,-5.3678,-2.0638018
0.1126953,4.694062,0.469018,0.14973634,4.2580624,3.466804,-5.3678,-2.0638018
0.11693073,4.6944356,0.47114852,0.19341218,4.362458,2.9975405,-5.1140146,-2.0015526
0.12116609,4.694808,0.47114852,0.19341218,4.362458,2.9975405,-5.1140146,-2.0015526
0.12552726,4.695165,0.47327906,0.23921856,4.4807024,2.6527755,-4.7548847,-2.231396
0.1298883,4.695521,0.47327906,0.23921856,4.4807024,2.6527755,-4.7548847,-2.231396
0.13438664,4.6958647,0.4743443,0.29141653,4.614926,2.336741,-4.31914,-2.1643584
0.1388893,4.696208,0.4743443,0.29141653,4.614926,2.336741,-4.31914,-2.1643584
0.14355437,4.696535,0.47647485,0.3425492,4.7715197,1.7046716,-3.9264908,-2.0446482
0.14821444,4.696861,0.47647485,0.3425492,4.7715197,1.7046716,-3.9264908,-2.0446482
0.15308498,4.6971703,0.4775401,0.3851598,4.9515495,1.1204864,-3.5482068,-1.958457
0.15795511,4.6974773,0.4775401,0.3851598,4.9515495,1.1204864,-3.5482068,-1.958457
0.16305028,4.697773,0.48286644,0.41605246,5.155015,0.45489833,-3.3087866,-1.8291701
0.16813464,4.6980667,0.48286644,0.41605246,5.155015,0.45489833,-3.3087866,-1.8291701
0.1734285,4.6983643,0.4956496,0.43416196,5.388308,0.20590134,-3.083732,-1.5801731
0.17878555,4.6986623,0.4956496,0.43416196,5.388308,0.20590134,-3.083732,-1.5801731
0.18437336,4.6989756,0.51375914,0.4416188,5.646102,0.21068975,-2.9640217,-1.3838485
0.18992119,4.6992836,0.51375914,0.4416188,5.646102,0.21068975,-2.9640217,-1.3838485
0.19576348,4.69962,0.53612965,0.4416188,5.9241357,0.33997664,-2.8060043,-1.1540052
0.20160495,4.699953,0.53612965,0.4416188,5.9241357,0.33997664,-2.8060043,-1.1540052
0.20771562,4.7003293,0.5648918,0.4448146,6.210692,0.63206923,-2.6862943,-0.90500826
0.2138745,4.7007055,0.5648918,0.4448146,6.210692,0.63206923,-2.6862943,-0.90500826
0.22068712,4.701161,0.597915,0.44907564,6.500444,0.94331545,-2.585738,-0.6703765
0.22676113,4.701564,0.597915,0.44907564,6.500444,0.94331545,-2.585738,-0.6703765
0.23329403,4.7020288,0.6320035,0.45866305,6.7848697,1.4652514,-2.4468741,-0.5315128
0.23983388,4.7024913,0.6320035,0.45866305,6.7848697,1.4652514,-2.4468741,-0.5315128
0.24679653,4.7029924,0.6660919,0.47890306,7.0639687,1.7381904,-2.1021092,-0.5315128
0.25371104,4.703487,0.6660919,0.47890306,7.0639687,1.7381904,-2.1021092,-0.5315128
0.26091582,4.7039976,0.6991151,0.510861,7.3324156,1.4987702,-1.7381904,-0.545878
0.26808506,4.704502,0.6991151,0.510861,7.3324156,1.4987702,-1.7381904,-0.545878
0.27553943,4.7050223,0.7246815,0.5492105,7.589144,1.163582,-1.4030021,-0.40222588
0.2829868,4.7055383,0.7246815,0.5492105,7.589144,1.163582,-1.4030021,-0.40222588
0.29068092,4.706023,0.74598676,0.58436424,7.8352203,0.58897364,-0.93373865,-0.47884035
0.29840612,4.7065063,0.74598676,0.58436424,7.8352203,0.58897364,-0.93373865,-0.47884035
0.3064523,4.706941,0.76409626,0.6109958,8.070643,0.11971009,-0.45968673,-0.5746084
0.3144742,4.70737,0.76409626,0.6109958,8.070643,0.11971009,-0.45968673,-0.5746084
0.32277733,4.7077894,0.77687943,0.623779,8.287958,-0.33518824,0.04309563,-0.8331822
0.33115575,4.708207,0.77687943,0.623779,8.287958,-0.33518824,0.04309563,-0.8331822
0.33967683,4.708657,0.783271,0.62271374,8.491424,-0.7661445,0.5410896,-1.0342951
0.34802705,4.7090926,0.783271,0.62271374,8.491424,-0.7661445,0.5410896,-1.0342951
0.3567918,4.7095585,0.78433627,0.6067348,8.682106,-1.2066777,0.80445176,-1.2018893
0.36582032,4.7100334,0.78433627,0.6067348,8.682106,-1.2066777,0.80445176,-1.2018893
0.3747789,4.7105026,0.77687943,0.57797265,8.858939,-1.6328455,0.89064306,-1.2976574
0.38370222,4.710965,0.77687943,0.57797265,8.858939,-1.6328455,0.89064306,-1.2976574
0.39282596,4.7114396,0.76409626,0.5385579,9.027251,-1.7908629,0.866701,-1.115698
0.4020051,4.711912,0.76409626,0.5385579,9.027251,-1.7908629,0.866701,-1.115698
0.41130394,4.7123957,0.7449215,0.50127363,9.184911,-2.006341,0.6512229,-0.7565677
0.42060354,4.7128754,0.7449215,0.50127363,9.184911,-2.006341,0.6512229,-0.7565677
0.43002018,4.713371,0.7214857,0.47570726,9.328721,-2.480393,0.39743748,-0.23463176
0.43950385,4.713866,0.7214857,0.47570726,9.328721,-2.480393,0.39743748,-0.23463176
0.44905755,4.7143507,0.690593,0.46825042,9.459748,-3.098097,0.110133275,0.23463176
0.45863107,4.7148333,0.690593,0.46825042,9.459748,-3.098097,0.110133275,0.23463176
0.46831596,4.7152815,0.6522435,0.4842294,9.574798,-3.845088,-0.2825158,0.6703765
0.47800156,4.715726,0.6522435,0.4842294,9.574798,-3.845088,-0.2825158,0.6703765
0.48776385,4.7160993,0.6032413,0.5247094,9.669605,-4.6782703,-0.7278373,0.866701
0.49756584,4.7164702,0.6032413,0.5247094,9.669605,-4.6782703,-0.7278373,0.866701
0.5074206,4.7167463,0.541456,0.5790379,9.739913,-5.693412,-1.2354081,1.0342951
0.5173349,4.7170186,0.541456,0.5790379,9.739913,-5.693412,-1.2354081,1.0342951
0.52843714,4.7171845,0.46475694,0.63656217,9.781459,-6.919243,-1.9009962,0.8714894
0.5373014,4.717311,0.46475694,0.63656217,9.781459,-6.919243,-1.9009962,0.8714894
0.5470296,4.717316,0.37420946,0.6823686,9.796372,-8.001422,-2.7341783,0.51235914
0.55688715,4.717314,0.37420946,0.6823686,9.796372,-8.001422,-2.7341783,0.51235914
0.5668594,4.7171726,0.26981354,0.7058044,9.786785,-8.820239,-3.7110126,0.15801731
0.57674265,4.717022,0.26981354,0.7058044,9.786785,-8.820239,-3.7110126,0.15801731
0.5866033,4.7167425,0.15476498,0.7047391,9.751631,-9.155427,-4.6686935,-0.0047884034
0.59651333,4.7164497,0.15476498,0.7047391,9.751631,-9.155427,-4.6686935,-0.0047884034
0.606528,4.716038,0.03652063,0.675977,9.687716,-8.887277,-5.7029886,-0.02873042
0.61698455,4.7155952,0.03652063,0.675977,9.687716,-8.887277,-5.7029886,-0.02873042
0.6259364,4.7151275,-0.076397404,0.6269748,9.589711,-8.810662,-6.4978633,-0.04309563
0.63566625,4.7146072,-0.076397404,0.6269748,9.589711,-8.810662,-6.4978633,-0.04309563
0.64523435,4.714013,-0.17759752,0.5651895,9.4565525,-9.337387,-6.9000893,-0.20111294
0.65511876,4.7133856,-0.17759752,0.5651895,9.4565525,-9.337387,-6.9000893,-0.20111294
0.66452736,4.7127438,-0.26068816,0.49062097,9.297829,-10.357317,-6.909666,-0.15322891
0.66452736,4.7127438,-0.26068816,0.49062097,9.297829,-10.357317,-6.909666,-0.15322891
0.6861198,4.7112246,-0.32886508,0.402204,9.110342,-11.520899,-6.7851677,0.10055647
0.6926389,4.710755,-0.32886508,0.402204,9.110342,-11.520899,-6.7851677,0.10055647
0.70213276,4.710096,-0.38319355,0.3073955,8.903681,-12.320562,-6.7564373,0.8523358
0.71086746,4.709481,-0.38319355,0.3073955,8.903681,-12.320562,-6.7564373,0.8523358
0.7206218,4.7088275,-0.4268694,0.21897852,8.677844,-12.756307,-7.0724716,1.6711528
0.7282824,4.708308,-0.4268694,0.21897852,8.677844,-12.756307,-7.0724716,1.6711528
0.73667014,4.7077627,-0.4630884,0.14547528,8.427507,-12.86644,-7.6231384,2.2697031
0.74518466,4.707204,-0.4630884,0.14547528,8.427507,-12.86644,-7.6231384,2.2697031
0.75343734,4.706666,-0.49824214,0.09327733,8.145212,-13.115437,-8.499416,2.743755
0.76165557,4.706126,-0.49824214,0.09327733,8.145212,-13.115437,-8.499416,2.743755
0.7774304,4.705049,-0.53446114,0.0581236,7.8235025,-13.474567,-9.519346,2.8203697
0.7774304,4.705049,-0.53446114,0.0581236,7.8235025,-13.474567,-9.519346,2.8203697
0.7850041,4.7044854,-0.57920223,0.033622514,7.4666386,-14.097059,-10.5919485,2.5474305
0.7926124,4.7039165,-0.57920223,0.033622514,7.4666386,-14.097059,-10.5919485,2.5474305
0.79971987,4.7033277,-0.63566124,0.008056169,7.0788827,-14.580688,-11.621455,2.1212628
0.806838,4.7027354,-0.63566124,0.008056169,7.0788827,-14.580688,-11.621455,2.1212628
0.8135536,4.7021165,-0.7059687,-0.027097559,6.666625,-14.820108,-12.670115,1.6328455
0.82027084,4.701494,-0.7059687,-0.027097559,6.666625,-14.820108,-12.670115,1.6328455
0.82652783,4.7008514,-0.7869288,-0.07183866,6.2394543,-15.006856,-13.651738,1.3359646
0.8328081,4.700203,-0.7869288,-0.07183866,6.2394543,-15.006856,-13.651738,1.3359646
0.8385595,4.699527,-0.8710847,-0.1251019,5.8026958,-14.915876,-14.480132,1.1252748
0.844287,4.6988473,-0.8710847,-0.1251019,5.8026958,-14.915876,-14.480132,1.1252748
0.8495493,4.698126,-0.95097953,-0.1847567,5.35635,-14.743494,-15.1936035,0.91458505
0.85480344,4.6974,-0.95097953,-0.1847567,5.35635,-14.743494,-15.1936035,0.91458505
0.85959023,4.6966515,-1.017026,-0.24334624,4.9025474,-14.5567465,-15.528792,0.6512229
0.86437595,4.6959,-1.017026,-0.24334624,4.9025474,-14.5567465,-15.528792,0.6512229
0.8687026,4.695153,-1.0670934,-0.29980525,4.44981,-14.111424,-15.763424,0.545878
0.873029,4.694405,-1.0670934,-0.29980525,4.44981,-14.111424,-15.763424,0.545878
0.8769007,4.693674,-1.097986,-0.3466769,3.999203,-13.713987,-15.768212,0.33997664
0.8807727,4.6929417,-1.097986,-0.3466769,3.999203,-13.713987,-15.768212,0.33997664
0.8841949,4.692216,-1.1086386,-0.37543905,3.5507267,-13.455414,-15.490485,-0.10534488
0.8876106,4.691492,-1.1086386,-0.37543905,3.5507267,-13.455414,-15.490485,-0.10534488
0.8905959,4.690778,-1.0969207,-0.39035273,3.1171641,-13.40753,-15.045163,-0.5506664
0.893581,4.690065,-1.0969207,-0.39035273,3.1171641,-13.40753,-15.045163,-0.5506664
0.89614815,4.6893644,-1.0681586,-0.3967443,2.6931887,-13.13459,-14.422671,-1.0342951
0.898715,4.6886654,-1.0681586,-0.3967443,2.6931887,-13.13459,-14.422671,-1.0342951
0.90128195,4.6879673,-1.0681586,-0.3967443,2.6931887,-13.13459,-14.422671,-1.0342951
0.9034493,4.6873026,-1.0234175,-0.39887485,2.2851925,-12.684481,-13.814544,-1.4269443
0.9056142,4.68664,-1.0234175,-0.39887485,2.2851925,-12.684481,-13.814544,-1.4269443
0.90741444,4.686017,-0.96482795,-0.39567906,1.900632,-12.310986,-13.139379,-1.7812861
0.90920824,4.685398,-0.96482795,-0.39567906,1.900632,-12.310986,-13.139379,-1.7812861
0.9106574,4.6848288,-0.8913247,-0.38396114,1.5416379,-11.9135475,-12.425907,-2.1164744
0.91210616,4.6842604,-0.8913247,-0.38396114,1.5416379,-11.9135475,-12.425907,-2.1164744
0.91323876,4.6837516,-0.8061035,-0.36691692,1.2114059,-11.496957,-11.741165,-2.3894134
0.9143684,4.6832457,-0.8061035,-0.36691692,1.2114059,-11.496957,-11.741165,-2.3894134
0.9152175,4.6828055,-0.70703393,-0.3434811,0.9152624,-11.085154,-10.927136,-2.5809495
0.9160665,4.682366,-0.70703393,-0.3434811,0.9152624,-11.085154,-10.927136,-2.5809495
0.9166622,4.682002,-0.59518117,-0.31471896,0.6489463,-10.7116585,-10.1226845,-2.6431987
0.91725767,4.6816387,-0.59518117,-0.31471896,0.6489463,-10.7116585,-10.1226845,-2.6431987
0.9176336,4.6813545,-0.47267577,-0.2806305,0.4145881,-10.362105,-9.303867,-2.6671407
0.91800916,4.6810713,-0.47267577,-0.2806305,0.4145881,-10.362105,-9.303867,-2.6671407
0.91819984,4.6808705,-0.33845246,-0.23908518,0.21431838,-9.921572,-8.408437,-2.6001031
0.91839087,4.680669,-0.33845246,-0.23908518,0.21431838,-9.921572,-8.408437,-2.6001031
0.91839087,4.680669,-0.33845246,-0.23908518,0.21431838,-9.921572,-8.408437,-2.6001031
0.91846746,4.6804256,-0.19996808,-0.19221355,0.0460066,-9.548077,-7.608773,-2.5139117
0.9183778,4.6803827,-0.0614837,-0.14108086,-0.093543045,-9.126697,-6.95755,-2.3175871
0.9182874,4.6803393,-0.0614837,-0.14108086,-0.093543045,-9.126697,-6.95755,-2.3175871
0.918106,4.6803613,0.07700068,-0.08142605,-0.19900422,-8.820239,-6.3206925,-2.1260512
0.917924,4.680383,0.07700068,-0.08142605,-0.19900422,-8.820239,-6.3206925,-2.1260512
0.91769755,4.680463,0.21015874,-0.017510178,-0.27037695,-8.714894,-5.6215854,-2.006341
0.9174717,4.680542,0.21015874,-0.017510178,-0.27037695,-8.714894,-5.6215854,-2.006341
0.91722137,4.680669,0.33266416,0.049601484,-0.31511804,-8.604761,-5.0278234,-1.8531121
0.91697127,4.6807957,0.33266416,0.049601484,-0.31511804,-8.604761,-5.0278234,-1.8531121
0.9167211,4.680957,0.44025585,0.116713144,-0.33322755,-8.283937,-4.4101195,-1.6184803
0.9164711,4.681118,0.44025585,0.116713144,-0.33322755,-8.283937,-4.4101195,-1.6184803
0.9162345,4.681296,0.5318686,0.18489006,-0.3289665,-7.8386164,-3.845088,-1.4413095
0.9159986,4.681473,0.5318686,0.18489006,-0.3289665,-7.8386164,-3.845088,-1.4413095
0.9157987,4.6816483,0.6043066,0.253067,-0.30659592,-7.326257,-3.4476504,-1.1252748
0.91559756,4.681824,0.6043066,0.253067,-0.30659592,-7.326257,-3.4476504,-1.1252748
0.91544765,4.6819954,0.6575698,0.3223092,-0.26931167,-6.8330517,-3.0262709,-0.7326257
0.9152976,4.6821675,0.6575698,0.3223092,-0.26931167,-6.8330517,-3.0262709,-0.7326257
0.91520154,4.6823006,0.6937888,0.3968777,-0.22030951,-6.6079965,-2.6671407,-0.5363012
0.9151052,4.6824336,0.6937888,0.3968777,-0.22030951,-6.6079965,-2.6671407,-0.5363012
0.91506475,4.6825085,0.7129636,0.47251147,-0.16491576,-6.5026517,-2.3080103,-0.35913026
0.9150244,4.682583,0.7129636,0.47251147,-0.16491576,-6.5026517,-2.3080103,-0.35913026
0.9150443,4.6825743,0.7129636,0.54708,-0.10206516,-6.4739213,-2.0207062,-0.21068975
0.9150646,4.6825657,0.7129636,0.54708,-0.10206516,-6.4739213,-2.0207062,-0.21068975
0.9151515,4.6824536,0.6937888,0.6173874,-0.031757705,-6.579266,-1.9153614,-0.110133275
0.9152387,4.6823416,0.6937888,0.6173874,-0.031757705,-6.579266,-1.9153614,-0.110133275
0.915395,4.6821113,0.654374,0.68023807,0.040680278,-6.83784,-1.7764976,-0.038307227
0.9155511,4.681881,0.654374,0.68023807,0.040680278,-6.83784,-1.7764976,-0.038307227
0.9157765,4.6815295,0.597915,0.732436,0.11311826,-7.16824,-1.6663644,0.07182605
0.91600144,4.681178,0.597915,0.732436,0.11311826,-7.16824,-1.6663644,0.07182605
0.91629755,4.68071,0.52760756,0.772916,0.18768677,-7.465121,-1.70946,0.22026655
0.916597,4.6802344,0.52760756,0.772916,0.18768677,-7.465121,-1.70946,0.22026655
0.9169768,4.679634,0.44451693,0.7995477,0.26545107,-7.6710224,-1.8531121,0.2825158
0.9173369,4.679063,0.44451693,0.7995477,0.26545107,-7.6710224,-1.8531121,0.2825158
0.91777647,4.678379,0.35609996,0.8165919,0.34321538,-7.8386164,-2.0254946,0.46447513
0.91821665,4.6776924,0.35609996,0.8165919,0.34321538,-7.8386164,-2.0254946,0.46447513
0.91873574,4.6769056,0.26342195,0.82404876,0.42417547,-8.12592,-2.3702598,0.63206923
0.9192587,4.676111,0.26342195,0.82404876,0.42417547,-8.12592,-2.3702598,0.63206923
0.9198508,4.6752453,0.17180921,0.8197877,0.503005,-8.322245,-2.7389667,0.8379706
0.92043686,4.6743855,0.17180921,0.8197877,0.503005,-8.322245,-2.7389667,0.8379706
0.92110056,4.6734505,0.082327,0.804874,0.57863885,-8.595184,-3.1268275,1.0007763
0.92175645,4.6725235,0.082327,0.804874,0.57863885,-8.595184,-3.1268275,1.0007763
0.9224696,4.671562,0.001366904,0.77824235,0.6468158,-8.796297,-3.5817258,1.364695
0.92318195,4.670599,0.001366904,0.77824235,0.6468158,-8.796297,-3.5817258,1.364695
0.92394996,4.669625,-0.07000581,0.73776233,0.7117969,-9.054871,-3.940856,1.5705963
0.92471856,4.668646,-0.07000581,0.73776233,0.7117969,-9.054871,-3.940856,1.5705963
0.9255388,4.6676826,-0.12859535,0.68556434,0.77251697,-9.251195,-4.3526587,1.7956513
0.92635804,4.666717,-0.12859535,0.68556434,0.77251697,-9.251195,-4.3526587,1.7956513
0.92722523,4.6657915,-0.175467,0.619518,0.82364964,-9.524135,-4.596867,1.9728222
0.9280916,4.6648636,-0.175467,0.619518,0.82364964,-9.524135,-4.596867,1.9728222
0.9289961,4.6640067,-0.2084902,0.5428189,0.8673255,-9.509769,-4.793192,2.1260512
0.92990947,4.6631384,-0.2084902,0.5428189,0.8673255,-9.509769,-4.793192,2.1260512
0.93084145,4.662372,-0.23192601,0.45546725,0.8971529,-9.533711,-5.0038815,2.2457612
0.9317688,4.661607,-0.23192601,0.45546725,0.8971529,-9.533711,-5.0038815,2.2457612
0.93270946,4.6609607,-0.24364392,0.35959345,0.91632766,-9.524135,-5.243302,2.480393
0.9336531,4.660311,-0.24364392,0.35959345,0.91632766,-9.524135,-5.243302,2.480393
0.93460137,4.659794,-0.24577445,0.26052386,0.92271924,-9.514558,-5.511452,2.542642
0.9355717,4.6592636,-0.24577445,0.26052386,0.92271924,-9.514558,-5.511452,2.542642
0.93649685,4.6588945,-0.24044813,0.16038899,0.91632766,-9.662998,-5.779603,2.5570073
0.9374418,4.658517,-0.24044813,0.16038899,0.91632766,-9.662998,-5.779603,2.5570073
0.9383679,4.6582956,-0.22766495,0.057058334,0.8992834,-9.821015,-5.9807158,2.4899697
0.9392921,4.658075,-0.22766495,0.057058334,0.8992834,-9.821015,-5.9807158,2.4899697
0.94020563,4.6580153,-0.21062072,-0.047337584,0.87371707,-9.998186,-6.2105594,2.4181437
0.9411112,4.657956,-0.21062072,-0.047337584,0.87371707,-9.998186,-6.2105594,2.4181437
0.9419837,4.658061,-0.19251123,-0.15066823,0.8406939,-10.01734,-6.421249,2.3463178
0.9428586,4.6581674,-0.19251123,-0.15066823,0.8406939,-10.01734,-6.421249,2.3463178
0.9436891,4.6584344,-0.17759752,-0.25293362,0.79701805,-10.01734,-6.679823,2.1404164
0.9445205,4.658704,-0.17759752,-0.25293362,0.79701805,-10.01734,-6.679823,2.1404164
0.9452939,4.659131,-0.16268381,-0.35093796,0.74268955,-9.998186,-6.9383965,1.958457
0.9460664,4.659559,-0.16268381,-0.35093796,0.74268955,-9.998186,-6.9383965,1.958457
0.946771,4.660129,-0.15203118,-0.4393549,0.67983896,-9.988609,-7.2783732,1.7621324
0.94747746,4.660703,-0.15203118,-0.4393549,0.67983896,-9.988609,-7.2783732,1.7621324
0.94809765,4.6613955,-0.1456396,-0.5181845,0.6063357,-10.041282,-7.5704656,1.5801731
0.94871926,4.662092,-0.1456396,-0.5181845,0.6063357,-10.041282,-7.5704656,1.5801731
0.94923794,4.662887,-0.14244379,-0.5863614,0.5200493,-10.0987425,-7.9248075,1.3694834
0.94975996,4.6636896,-0.14244379,-0.5863614,0.5200493,-10.0987425,-7.9248075,1.3694834
0.95017433,4.6645775,-0.14457433,-0.6449509,0.42097968,-10.184934,-8.1163435,1.1540052
0.9505875,4.6654663,-0.14457433,-0.6449509,0.42097968,-10.184934,-8.1163435,1.1540052
0.9508742,4.6664243,-0.15309644,-0.7003447,0.31125745,-10.25676,-8.461109,0.9720459
0.9511597,4.6673837,-0.15309644,-0.7003447,0.31125745,-10.25676,-8.461109,0.9720459
0.9513077,4.6684084,-0.16374908,-0.75573844,0.19194783,-10.247183,-8.652645,0.7134721
0.95145524,4.6694365,-0.16374908,-0.75573844,0.19194783,-10.247183,-8.652645,0.7134721
0.9514574,4.670509,-0.17759752,-0.8090017,0.06305083,-10.079589,-8.7532015,0.5554548
0.95145833,4.6715755,-0.17759752,-0.8090017,0.06305083,-10.079589,-8.7532015,0.5554548
0.9513074,4.6727467,-0.19144596,-0.86013436,-0.077564076,-9.864111,-8.863335,0.5650316
0.9511647,4.6738405,-0.19144596,-0.86013436,-0.077564076,-9.864111,-8.863335,0.5650316
0.9508616,4.675029,-0.20422913,-0.91126704,-0.22883163,-9.773131,-8.896853,0.50757074
0.9505569,4.676215,-0.20422913,-0.91126704,-0.22883163,-9.773131,-8.896853,0.50757074
0.9500911,4.677458,-0.2084902,-0.96133447,-0.3886213,-9.605537,-8.925584,0.47405192
0.9496213,4.6787043,-0.2084902,-0.96133447,-0.3886213,-9.605537,-8.925584,0.47405192
0.9489858,4.680011,-0.2052944,-1.0071409,-0.54841095,-9.404425,-8.853758,0.37349546
0.9483488,4.6813135,-0.2052944,-1.0071409,-0.54841095,-9.404425,-8.853758,0.37349546
0.9475423,4.6826744,-0.19144596,-1.0497514,-0.71033114,-9.184157,-8.834604,0.22984336
0.9467347,4.6840286,-0.16587962,-1.0891662,-0.87757766,-8.99741,-8.853758,0.17238252
0.9457054,4.6855297,-0.16587962,-1.0891662,-0.87757766,-8.99741,-8.853758,0.17238252
0.94444937,4.6870465,-0.12859535,-1.1221894,-1.0458895,-9.3182335,-7.762002,-0.58418524
0.9434228,4.688278,-0.12859535,-1.1221894,-1.0458895,-9.3182335,-7.762002,-0.58418524
0.9422483,4.689679,-0.12859535,-1.1221894,-1.0458895,-9.3182335,-7.762002,-0.58418524
0.9409728,4.6911716,-0.092376366,-1.1562779,-1.2173971,-8.288726,-9.035717,0.033518825
0.9396178,4.692747,-0.092376366,-1.1562779,-1.2173971,-8.288726,-9.035717,0.033518825
0.9396178,4.692747,-0.092376366,-1.1562779,-1.2173971,-8.288726,-9.035717,0.033518825
0.9396178,4.692747,-0.092376366,-1.1562779,-1.2173971,-8.288726,-9.035717,0.033518825
0.9347212,4.697973,0.022672193,-1.1679958,-1.5614774,-8.350976,-9.3661175,-0.320823
0.9335184,4.6991253,0.022672193,-1.1679958,-1.5614774,-8.350976,-9.3661175,-0.320823
0.9317099,4.700695,0.10789335,-1.1477557,-1.7148756,-9.006987,-8.614338,-1.1683705
0.92992073,4.7022367,0.10789335,-1.1477557,-1.7148756,-9.006987,-8.614338,-1.1683705
0.92804486,4.7037945,0.18672292,-1.1307116,-1.857621,-9.629479,-7.7189064,-2.0015526
0.9261742,4.7053375,0.18672292,-1.1307116,-1.857621,-9.629479,-7.7189064,-2.0015526
0.9241552,4.7069263,0.2442472,-1.1243199,-1.9961053,-9.270349,-7.560889,-2.0973208
0.9221377,4.708503,0.2442472,-1.1243199,-1.9961053,-9.270349,-7.560889,-2.0973208
0.9199721,4.710101,0.28153145,-1.1243199,-2.1345897,-8.532935,-7.6135616,-1.9153614
0.9177803,4.711707,0.28153145,-1.1243199,-2.1345897,-8.532935,-7.6135616,-1.9153614
0.91542035,4.713318,0.3070978,-1.108341,-2.2794657,-7.675811,-7.9343843,-1.5610195
0.9130573,4.714917,0.3070978,-1.108341,-2.2794657,-7.675811,-7.9343843,-1.5610195
0.91050625,4.7165074,0.3284031,-1.0689262,-2.4307332,-7.1826053,-8.197746,-1.2976574
0.90796953,4.7180753,0.3284031,-1.0689262,-2.4307332,-7.1826053,-8.197746,-1.2976574
0.9052556,4.7195873,0.34970838,-1.0018145,-2.583066,-7.1347213,-8.437167,-1.1444284
0.9025514,4.7210803,0.34970838,-1.0018145,-2.583066,-7.1347213,-8.437167,-1.1444284
0.89968884,4.722473,0.37207893,-0.91126704,-2.7343335,-7.2831616,-8.532935,-1.067814
0.89683425,4.7238493,0.37207893,-0.91126704,-2.7343335,-7.2831616,-8.532935,-1.067814
0.89382553,4.725104,0.3944495,-0.80793643,-2.8802748,-7.4842744,-8.523358,-1.115698
0.89084077,4.726337,0.3944495,-0.80793643,-2.8802748,-7.4842744,-8.523358,-1.115698
0.88769543,4.727436,0.41042846,-0.6971489,-3.026216,-7.6949644,-8.523358,-1.2258313
0.88447887,4.7285495,0.41042846,-0.6971489,-3.026216,-7.6949644,-8.523358,-1.2258313
0.88127506,4.7294693,0.4178853,-0.58210033,-3.1764183,-7.8865004,-8.690952,-1.13964
0.8780396,4.73039,0.4178853,-0.58210033,-3.1764183,-7.8865004,-8.690952,-1.13964
0.8746115,4.731183,0.41682005,-0.47024757,-3.320229,-7.905654,-8.829816,-1.0582372
0.8711364,4.7319803,0.41682005,-0.47024757,-3.320229,-7.905654,-8.829816,-1.0582372
0.86754143,4.7326317,0.41042846,-0.3583948,-3.4640398,-7.8529816,-9.016563,-0.93373865
0.8639725,4.733272,0.41042846,-0.3583948,-3.4640398,-7.8529816,-9.016563,-0.93373865
0.8598565,4.7338214,0.4008411,-0.24547677,-3.60572,-7.8912888,-9.078813,-0.8475474
0.85647106,4.734269,0.4008411,-0.24547677,-3.60572,-7.8912888,-9.078813,-0.8475474
0.85647106,4.734269,0.3912537,-0.133624,-3.743139,-7.848193,-9.11712,-0.7230489
0.848762,4.7349777,0.3912537,-0.133624,-3.743139,-7.848193,-9.11712,-0.7230489
0.84472704,4.735194,0.37740526,-0.0228365,-3.8816235,-7.905654,-9.141062,-0.60333884
0.8407894,4.7354035,0.37740526,-0.0228365,-3.8816235,-7.905654,-9.141062,-0.60333884
0.8366875,4.7354856,0.36355683,0.08475521,-4.017977,-8.00621,-9.045294,-0.4405331
0.8325375,4.735568,0.36355683,0.08475521,-4.017977,-8.00621,-9.045294,-0.4405331
0.8282862,4.7355227,0.34757784,0.19128166,-4.1522007,-8.197746,-8.916007,-0.25857377
0.8240237,4.7354784,0.34757784,0.19128166,-4.1522007,-8.197746,-8.916007,-0.25857377
0.81962335,4.7352996,0.33159888,0.29248178,-4.2810974,-8.322245,-8.801085,-0.22505496
0.8152611,4.7351236,0.33159888,0.29248178,-4.2810974,-8.322245,-8.801085,-0.22505496
0.81072164,4.7348247,0.31455466,0.38835558,-4.4014726,-8.571242,-8.686164,-0.07182605
0.8062599,4.734531,0.31455466,0.38835558,-4.4014726,-8.571242,-8.686164,-0.07182605
0.8016238,4.734169,0.29964095,0.47677252,-4.516521,-8.576031,-8.537724,0.110133275
0.7969767,4.7337995,0.29964095,0.47677252,-4.516521,-8.576031,-8.537724,0.110133275
0.79238665,4.733555,0.283662,0.5587979,-4.6273084,-8.791509,-8.542512,0.44532153
0.7878119,4.7333136,0.283662,0.5587979,-4.6273084,-8.791509,-8.542512,0.44532153
0.78314257,4.732986,0.27194408,0.6312359,-4.727443,-8.925584,-8.494628,0.6799533
0.7785002,4.7326636,0.27194408,0.6312359,-4.727443,-8.925584,-8.494628,0.6799533
0.77372473,4.732274,0.26129144,0.696217,-4.8211865,-8.987833,-8.446744,1.091756
0.76896346,4.7318926,0.26129144,0.696217,-4.8211865,-8.987833,-8.446744,1.091756
0.7641227,4.731449,0.25063878,0.75800234,-4.906408,-9.169792,-8.504205,1.4748282
0.75929505,4.7310143,0.25063878,0.75800234,-4.906408,-9.169792,-8.504205,1.4748282
0.754357,4.730518,0.23998614,0.8165919,-4.9884334,-9.409213,-8.647857,1.7046716
0.7494409,4.7300324,0.23998614,0.8165919,-4.9884334,-9.409213,-8.647857,1.7046716
0.7444338,4.729491,0.22933349,0.87518144,-5.0672626,-9.562442,-8.863335,1.8579005
0.7394538,4.728962,0.22933349,0.87518144,-5.0672626,-9.562442,-8.863335,1.8579005
0.73435324,4.72837,0.21335453,0.9327057,-5.1471577,-9.768343,-9.169792,1.9057846
0.72928053,4.727792,0.21335453,0.9327057,-5.1471577,-9.768343,-9.169792,1.9057846
0.7241248,4.7271447,0.18778819,0.9870342,-5.229183,-10.199299,-9.533711,1.7956513
0.71899164,4.726511,0.18778819,0.9870342,-5.229183,-10.199299,-9.533711,1.7956513
0.7137563,4.7258005,0.15050393,1.0317754,-5.3197303,-10.630256,-9.883265,1.5658079
0.708538,4.725104,0.15050393,1.0317754,-5.3197303,-10.630256,-9.883265,1.5658079
0.7032212,4.7243333,0.1004365,1.0658637,-5.414539,-10.884041,-10.25676,1.4077905
0.6979003,4.723573,0.1004365,1.0658637,-5.414539,-10.884041,-10.25676,1.4077905
0.69248235,4.7227483,0.037585896,1.0914301,-5.515739,-10.884041,-10.721235,1.3742718
0.6870929,4.7219396,0.037585896,1.0914301,-5.515739,-10.884041,-10.721235,1.3742718
0.6815731,4.721035,-0.035917353,1.1084744,-5.6243963,-11.372458,-10.998962,1.1587936
0.6760206,4.7201376,-0.035917353,1.1084744,-5.6243963,-11.372458,-10.998962,1.1587936
0.67043096,4.719163,-0.120073244,1.1084744,-5.7469015,-11.75553,-11.15698,0.90500826
0.66482943,4.7181997,-0.120073244,1.1084744,-5.7469015,-11.75553,-11.15698,0.90500826
0.65906924,4.717159,-0.21168599,1.0903648,-5.8747334,-11.884817,-11.252748,0.79008657
0.65333134,4.716136,-0.21168599,1.0903648,-5.8747334,-11.884817,-11.252748,0.79008657
0.6474422,4.715044,-0.31395137,1.0594722,-6.0142827,-11.923124,-11.238382,0.7565677
0.6415639,4.713968,-0.31395137,1.0594722,-6.0142827,-11.923124,-11.238382,0.7565677
0.6355204,4.7128386,-0.4215431,1.0126005,-6.1623545,-11.808203,-11.310209,0.89064306
0.62948817,4.7117257,-0.4215431,1.0126005,-6.1623545,-11.808203,-11.310209,0.89064306
0.6232815,4.7105646,-0.53020006,0.95614153,-6.3178835,-11.789049,-11.358093,1.091756
0.61709917,4.709421,-0.53020006,0.95614153,-6.3178835,-11.789049,-11.358093,1.091756
0.61070997,4.7082243,-0.63566124,0.8922257,-6.486195,-11.693281,-11.281479,1.1013328
0.6043454,4.707045,-0.63566124,0.8922257,-6.486195,-11.693281,-11.281479,1.1013328
0.59779155,4.7058277,-0.73473084,0.82085294,-6.660898,-11.645397,-11.238382,1.163582
0.59126335,4.704628,-0.73473084,0.82085294,-6.660898,-11.645397,-11.238382,1.163582
0.5843472,4.7033525,-0.8263436,0.74308866,-6.839863,-11.573571,-10.994174,0.93373865
0.5777999,4.7021565,-0.8263436,0.74308866,-6.839863,-11.573571,-10.994174,0.93373865
0.570902,4.7009077,-0.9115647,0.66106325,-7.0241537,-11.425131,-10.922348,0.8523358
0.56400347,4.69967,-0.9115647,0.66106325,-7.0241537,-11.425131,-10.922348,0.8523358
0.556937,4.698421,-0.98719853,0.5769074,-7.208444,-11.281479,-10.802638,0.7661445
0.5498345,4.697175,-0.98719853,0.5769074,-7.208444,-11.281479,-10.802638,0.7661445
0.5425702,4.6959176,-1.0553755,0.49168622,-7.3895392,-11.061212,-10.654198,0.47884035
0.535298,4.694668,-1.0553755,0.49168622,-7.3895392,-11.061212,-10.654198,0.47884035
0.5278705,4.6934195,-1.1118344,0.4053998,-7.5631776,-10.788273,-10.5440645,0.2777274
0.5204351,4.692177,-1.1118344,0.4053998,-7.5631776,-10.788273,-10.5440645,0.2777274
0.5128572,4.6909437,-1.1587061,0.3223092,-7.731489,-10.376471,-10.338163,0.11492168
0.50523335,4.6897097,-1.1587061,0.3223092,-7.731489,-10.376471,-10.338163,0.11492168
0.49747488,4.688487,-1.1938598,0.24561015,-7.892344,-9.964667,-10.108319,-0.10534488
0.48971638,4.68727,-1.1938598,0.24561015,-7.892344,-9.964667,-10.108319,-0.10534488
0.48181078,4.6860633,-1.2172956,0.17636795,-8.042546,-9.476251,-9.888053,-0.38307226
0.47390532,4.684861,-1.2172956,0.17636795,-8.042546,-9.476251,-9.888053,-0.38307226
0.46588755,4.683684,-1.226883,0.11458261,-8.181031,-8.944737,-9.710882,-0.5602432
0.45781374,4.6825027,-1.226883,0.11458261,-8.181031,-8.944737,-9.710882,-0.5602432
0.44965947,4.6813507,-1.2204914,0.06344992,-8.302471,-8.408437,-9.380483,-0.8379706
0.4414893,4.6802,-1.2204914,0.06344992,-8.302471,-8.408437,-9.380483,-0.8379706
0.43323103,4.6790857,-1.1981208,0.0251004,-8.406867,-7.9726915,-9.069236,-1.0295067
0.4249649,4.6779747,-1.1981208,0.0251004,-8.406867,-7.9726915,-9.069236,-1.0295067
0.41661316,4.676903,-1.1629672,0.0016645822,-8.491023,-7.3166804,-8.686164,-1.1587936
0.40825394,4.6758323,-1.1629672,0.0016645822,-8.491023,-7.3166804,-8.686164,-1.1587936
0.39986077,4.6748137,-1.1107692,-0.007922798,-8.554938,-6.766014,-8.418014,-1.3072342
0.3913342,4.6737814,-1.1107692,-0.007922798,-8.554938,-6.766014,-8.418014,-1.3072342
0.38291267,4.672825,-1.0447228,-0.005792269,-8.597549,-6.2249246,-8.159439,-1.3838485
0.37445858,4.6718664,-1.0447228,-0.005792269,-8.597549,-6.2249246,-8.159439,-1.3838485
0.3660047,4.670973,-0.96695846,0.009121433,-8.615659,-5.616797,-7.833828,-1.4700398
0.35751864,4.6700773,-0.96695846,0.009121433,-8.615659,-5.616797,-7.833828,-1.4700398
0.3490576,4.6692543,-0.8796068,0.038948838,-8.6103325,-5.1140146,-7.6135616,-1.4508862
0.34054774,4.668428,-0.8796068,0.038948838,-8.6103325,-5.1140146,-7.6135616,-1.4508862
0.3321241,4.667681,-0.783733,0.08049415,-8.576244,-4.735731,-7.350199,-1.4939818
0.32363495,4.6669292,-0.783733,0.08049415,-8.576244,-4.735731,-7.350199,-1.4939818
0.31519717,4.6662555,-0.68359816,0.12843105,-8.516589,-4.3382936,-7.2448545,-1.4891934
0.3068121,4.6655865,-0.68359816,0.12843105,-8.516589,-4.3382936,-7.2448545,-1.4891934
0.29853022,4.6650066,-0.5802675,0.1838248,-8.430303,-4.012682,-7.0964136,-1.2880806
0.29015064,4.664421,-0.5802675,0.1838248,-8.430303,-4.012682,-7.0964136,-1.2880806
0.28197,4.663922,-0.47587156,0.24241436,-8.321646,-3.667917,-6.9958572,-1.2785037
0.2737588,4.6634226,-0.47587156,0.24241436,-8.321646,-3.667917,-6.9958572,-1.2785037
0.26571757,4.6630116,-0.37254092,0.3031344,-8.189553,-3.41892,-6.9767036,-1.1587936
0.25761393,4.6625986,-0.37254092,0.3031344,-8.189553,-3.41892,-6.9767036,-1.1587936
0.24971238,4.662273,-0.2713408,0.3606587,-8.031894,-3.107674,-6.9527617,-1.0295067
0.24176542,4.661948,-0.2713408,0.3606587,-8.031894,-3.107674,-6.9527617,-1.0295067
0.23402429,4.6617146,-0.17653225,0.41285667,-7.85506,-2.8538885,-6.9240313,-0.80445176
0.22629249,4.6614847,-0.17653225,0.41285667,-7.85506,-2.8538885,-6.9240313,-0.80445176
0.21875587,4.6613436,-0.08811531,0.4597283,-7.655855,-2.5617957,-6.9623384,-0.61291564
0.21116747,4.661204,-0.08811531,0.4597283,-7.655855,-2.5617957,-6.9623384,-0.61291564
0.20349418,4.661155,-0.010351005,0.5023389,-7.4385414,-2.4372973,-6.967127,-0.4261679
0.1963988,4.661112,-0.010351005,0.5023389,-7.4385414,-2.4372973,-6.967127,-0.4261679
0.18944845,4.6611447,0.056760654,0.5364273,-7.2052484,-2.2409728,-6.981492,-0.30166942
0.18241318,4.6611786,0.056760654,0.5364273,-7.2052484,-2.2409728,-6.981492,-0.30166942
0.17544106,4.6612964,0.11321967,0.55773264,-6.9559765,-1.9967642,-7.0245876,-0.15322891
0.16868262,4.6614094,0.11321967,0.55773264,-6.9559765,-1.9967642,-7.0245876,-0.15322891
0.16208284,4.6615973,0.15689552,0.56732,-6.694987,-1.8148049,-6.9862804,0.08619126
0.15550655,4.661783,0.15689552,0.56732,-6.694987,-1.8148049,-6.9862804,0.08619126
0.14908871,4.6620216,0.18885344,0.56625473,-6.42441,-1.532289,-6.9719152,0.21068975
0.1427335,4.662257,0.18885344,0.56625473,-6.42441,-1.532289,-6.9719152,0.21068975
0.13659969,4.662527,0.211224,0.55347157,-6.147441,-1.3024458,-6.83784,0.39264908
0.13037893,4.662801,0.211224,0.55347157,-6.147441,-1.3024458,-6.83784,0.39264908
0.124024846,4.663112,0.2229419,0.531101,-5.866211,-1.0055647,-6.7372837,0.58418524
0.124024846,4.663112,0.2229419,0.531101,-5.866211,-1.0055647,-6.7372837,0.58418524
0.124024846,4.663112,0.2229419,0.531101,-5.866211,-1.0055647,-6.7372837,0.58418524
0.124024846,4.663112,0.2229419,0.531101,-5.866211,-1.0055647,-6.7372837,0.58418524
0.10009215,4.6643624,0.21974611,0.47038093,-5.3037515,-0.2681506,-6.3685765,0.89543146
0.09582477,4.6645947,0.21974611,0.47038093,-5.3037515,-0.2681506,-6.3685765,0.89543146
0.091528945,4.66483,0.21015874,0.43522722,-5.0321093,0.06703765,-6.2392898,0.8858546
0.091528945,4.66483,0.21015874,0.43522722,-5.0321093,0.06703765,-6.2392898,0.8858546
0.081324205,4.6653805,0.19417977,0.3968777,-4.7679234,0.48841715,-6.0764837,1.0726024
0.07684176,4.6656237,0.19417977,0.3968777,-4.7679234,0.48841715,-6.0764837,1.0726024
0.0715027,4.6659064,0.17393975,0.3574629,-4.5154557,0.7134721,-6.0142345,1.1923125
0.0715027,4.6659064,0.17393975,0.3574629,-4.5154557,0.7134721,-6.0142345,1.1923125
0.06331806,4.6663375,0.15156919,0.31804812,-4.275771,0.93852705,-5.9567738,1.2785037
0.059005328,4.666558,0.15156919,0.31804812,-4.275771,0.93852705,-5.9567738,1.2785037
0.054880373,4.6667523,0.12493758,0.27543753,-4.053131,1.1061212,-5.841852,1.2497733
0.050756153,4.666948,0.12493758,0.27543753,-4.053131,1.1061212,-5.841852,1.2497733
0.04682205,4.6671143,0.09511018,0.23389223,-3.8454044,1.2114661,-5.899313,1.2354081
0.042908244,4.66728,0.09511018,0.23389223,-3.8454044,1.2114661,-5.899313,1.2354081
0.039169744,4.6674166,0.062086977,0.19341218,-3.6547222,1.2306197,-5.913678,1.2976574
0.03542817,4.667554,0.062086977,0.19341218,-3.6547222,1.2306197,-5.913678,1.2976574
0.031885184,4.667655,0.026933251,0.1539974,-3.4800189,1.2066777,-5.9519854,1.1683705
0.028328657,4.667757,0.026933251,0.1539974,-3.4800189,1.2066777,-5.9519854,1.1683705
0.024922948,4.6678166,-0.012481534,0.11138682,-3.3223596,1.2737153,-6.009446,0.9911995
0.021517873,4.6678767,-0.012481534,0.11138682,-3.3223596,1.2737153,-6.009446,0.9911995
0.018251149,4.6678925,-0.05189632,0.06877624,-3.1764183,1.3982137,-6.0381765,0.8523358
0.014985021,4.6679087,-0.05189632,0.06877624,-3.1764183,1.3982137,-6.0381765,0.8523358
0.011841587,4.667878,-0.091311105,0.026165664,-3.0453908,1.4748282,-6.042965,0.6703765
0.008698619,4.6678486,-0.091311105,0.026165664,-3.0453908,1.4748282,-6.042965,0.6703765
0.0056630415,4.667769,-0.13072589,-0.018575443,-2.9282117,1.5849615,-6.009446,0.47405192
0.0026278042,4.66769,-0.13072589,-0.018575443,-2.9282117,1.5849615,-6.009446,0.47405192
6.28287,4.667552,-0.16907541,-0.06331655,-2.8195548,1.6807296,-5.923255,0.15322891
6.279932,4.6674137,-0.16907541,-0.06331655,-2.8195548,1.6807296,-5.923255,0.15322891
6.27709,4.667232,-0.2052944,-0.106992394,-2.71942,1.8052281,-5.841852,0.07182605
6.274248,4.66705,-0.2052944,-0.106992394,-2.71942,1.8052281,-5.841852,0.07182605
6.2714944,4.6668224,-0.2383176,-0.14853771,-2.6288724,1.9057846,-5.717354,-0.07182605
6.2687373,4.666594,-0.2383176,-0.14853771,-2.6288724,1.9057846,-5.717354,-0.07182605
6.2660685,4.6663256,-0.26707974,-0.18688722,-2.5457819,2.0733786,-5.60722,-0.20590134
6.2633967,4.6660566,-0.26707974,-0.18688722,-2.5457819,2.0733786,-5.60722,-0.20590134
6.2607994,4.665747,-0.29584187,-0.22204095,-2.4722786,2.231396,-5.449203,-0.34955344
6.2582016,4.6654377,-0.29584187,-0.22204095,-2.4722786,2.231396,-5.449203,-0.34955344
6.255675,4.6650953,-0.3224735,-0.25186837,-2.4030364,2.360683,-5.291186,-0.41180268
6.253148,4.6647525,-0.3224735,-0.25186837,-2.4030364,2.360683,-5.291186,-0.41180268
6.25069,4.6643734,-0.34803984,-0.2774347,-2.3359246,2.3989902,-5.161899,-0.545878
6.248232,4.663994,-0.34803984,-0.2774347,-2.3359246,2.3989902,-5.161899,-0.545878
6.2458377,4.6635847,-0.37467146,-0.29447892,-2.2730742,2.4420857,-5.0613422,-0.56982
6.2434435,4.6631746,-0.37467146,-0.29447892,-2.2730742,2.4420857,-5.0613422,-0.56982
6.241112,4.662732,-0.40130305,-0.30406633,-2.2112887,2.4181437,-5.0038815,-0.641646
6.2387743,4.6622868,-0.40130305,-0.30406633,-2.2112887,2.4181437,-5.0038815,-0.641646
6.2365093,4.6618123,-0.42793468,-0.30726212,-2.1505687,2.4277205,-4.912902,-0.7086837
6.2342424,4.661336,-0.42793468,-0.30726212,-2.1505687,2.4277205,-4.912902,-0.7086837
6.232037,4.6608315,-0.4566968,-0.30619684,-2.0866528,2.4037786,-4.903325,-0.6847417
6.2298317,4.660325,-0.4566968,-0.30619684,-2.0866528,2.4037786,-4.903325,-0.6847417
6.227695,4.6597795,-0.48545894,-0.29874,-2.018476,2.384625,-4.879383,-0.8475474
6.2255626,4.659234,-0.48545894,-0.29874,-2.018476,2.384625,-4.879383,-0.8475474
6.2234993,4.6586494,-0.5195474,-0.28915262,-1.9481685,2.3702598,-4.927267,-0.91937345
6.2214365,4.658064,-0.5195474,-0.28915262,-1.9481685,2.3702598,-4.927267,-0.91937345
6.2194495,4.657439,-0.55683166,-0.27317366,-1.8725346,2.3127987,-4.9655743,-0.93373865
6.217465,4.656815,-0.55683166,-0.27317366,-1.8725346,2.3127987,-4.9655743,-0.93373865
6.2155595,4.6561465,-0.5941159,-0.25506416,-1.7915746,2.3463178,-5.056554,-1.0534488
6.213656,4.6554785,-0.5941159,-0.25506416,-1.7915746,2.3463178,-5.056554,-1.0534488
6.211834,4.654769,-0.6324654,-0.23482412,-1.7106144,2.384625,-5.070919,-1.1348516
6.2100124,4.654059,-0.6324654,-0.23482412,-1.7106144,2.384625,-5.070919,-1.1348516
6.2082753,4.6533074,-0.6729455,-0.2113883,-1.6264586,2.4899697,-5.1379566,-1.2258313
6.2065396,4.6525564,-0.6729455,-0.2113883,-1.6264586,2.4899697,-5.1379566,-1.2258313
6.2048917,4.6517644,-0.71236026,-0.18688722,-1.5380416,2.4995465,-5.195418,-1.2880806
6.2032304,4.650965,-0.71236026,-0.18688722,-1.5380416,2.4995465,-5.195418,-1.2880806
6.2016754,4.650144,-0.7507098,-0.16132088,-1.4506899,2.5570073,-5.3342814,-1.2545617
6.2001133,4.649318,-0.7507098,-0.16132088,-1.4506899,2.5570073,-5.3342814,-1.2545617
6.1986327,4.6484575,-0.78905934,-0.13788506,-1.3644035,2.5953147,-5.3965306,-1.2258313
6.1971526,4.6475964,-0.78905934,-0.13788506,-1.3644035,2.5953147,-5.3965306,-1.2258313
6.195753,4.6467056,-0.8220825,-0.11338398,-1.281313,2.5713725,-5.530606,-1.1923125
6.194354,4.6458144,-0.8220825,-0.11338398,-1.281313,2.5713725,-5.530606,-1.1923125
6.193034,4.6448946,-0.8529752,-0.08781763,-1.2003528,2.5570073,-5.6120086,-1.1971009
6.1917143,4.6439753,-0.8529752,-0.08781763,-1.2003528,2.5570073,-5.6120086,-1.1971009
6.1904697,4.6430283,-0.88067204,-0.062251285,-1.124719,2.5187001,-5.765238,-1.2210429
6.189225,4.6420813,-0.88067204,-0.062251285,-1.124719,2.5187001,-5.765238,-1.2210429
6.188054,4.641114,-0.9051731,-0.036684938,-1.0490853,2.3989902,-5.884948,-1.1492168
6.186883,4.640147,-0.9051731,-0.036684938,-1.0490853,2.3989902,-5.884948,-1.1492168
6.1857786,4.639163,-0.92434794,-0.01324912,-0.98090833,2.360683,-6.0477533,-1.163582
6.1846747,4.638178,-0.92434794,-0.01324912,-0.98090833,2.360683,-6.0477533,-1.163582
6.1836257,4.637184,-0.9392616,0.0069909045,-0.9223188,2.303222,-6.2249246,-1.0869676
6.1825767,4.6361904,-0.9392616,0.0069909045,-0.9223188,2.303222,-6.2249246,-1.0869676
6.181581,4.6351843,-0.9520448,0.024035135,-0.86905557,2.2505496,-6.4404025,-1.115698
6.1805854,4.6341777,-0.9520448,0.024035135,-0.86905557,2.2505496,-6.4404025,-1.115698
6.1796317,4.6331677,-0.96269745,0.03681831,-0.8232492,2.1930888,-6.5696893,-1.0295067
6.178679,4.6321583,-0.96269745,0.03681831,-0.8232492,2.1930888,-6.5696893,-1.0295067
6.178679,4.6321583,-0.96269745,0.03681831,-0.8232492,2.1930888,-6.5696893,-1.0295067
6.1768847,4.6301713,-0.96695846,0.046405688,-0.7838344,2.1452048,-6.703765,-1.0295067
6.175901,4.6290474,-0.9680238,0.05173201,-0.7518765,2.1452048,-6.919243,-1.0103531
6.1746287,4.6275954,-0.9680238,0.05173201,-0.7518765,2.1452048,-6.919243,-1.0103531
6.174164,4.6270466,-0.9658932,0.052797277,-0.7241796,2.1883004,-7.053318,-1.0726024
6.173322,4.626053,-0.9658932,0.052797277,-0.7241796,2.1883004,-7.053318,-1.0726024
6.1725082,4.625067,-0.9595016,0.05173201,-0.7007438,2.0973208,-7.1395097,-1.0821792
6.171675,4.6240587,-0.9595016,0.05173201,-0.7007438,2.0973208,-7.1395097,-1.0821792
6.1708436,4.623041,-0.9477837,0.047470953,-0.68156904,2.0015526,-7.240066,-1.0486604
6.1700506,4.6220713,-0.9477837,0.047470953,-0.68156904,2.0015526,-7.240066,-1.0486604
6.169258,4.621105,-0.9318048,0.040014103,-0.661329,1.9776106,-7.2831616,-0.9624691
6.168454,4.6201262,-0.9318048,0.040014103,-0.661329,1.9776106,-7.2831616,-0.9624691
6.1676717,4.619173,-0.91049945,0.031491987,-0.64321953,1.9488802,-7.3645644,-0.9528923
6.1669025,4.6182365,-0.91049945,0.031491987,-0.64321953,1.9488802,-7.3645644,-0.9528923
6.166139,4.6173296,-0.88599837,0.021904606,-0.6261753,1.9919758,-7.445967,-0.842759
6.16538,4.616429,-0.88599837,0.021904606,-0.6261753,1.9919758,-7.445967,-0.842759
6.164629,4.615562,-0.8583015,0.011251962,-0.6101963,1.9393034,-7.5561004,-0.7230489
6.163883,4.614702,-0.8583015,0.011251962,-0.6101963,1.9393034,-7.5561004,-0.7230489
6.1631556,4.6138706,-0.824213,0.0016645822,-0.5920868,1.8483237,-7.675811,-0.7661445
6.162427,4.6130385,-0.824213,0.0016645822,-0.5920868,1.8483237,-7.675811,-0.7661445
6.1617203,4.6122556,-0.78479826,-0.008988062,-0.5718468,1.6998832,-7.848193,-0.7278373
6.1610126,4.6114726,-0.78479826,-0.008988062,-0.5718468,1.6998832,-7.848193,-0.7278373
6.160332,4.6107373,-0.7443182,-0.021771235,-0.5494762,1.6759412,-7.97748,-0.7182605
6.1596518,4.6100025,-0.7443182,-0.021771235,-0.5494762,1.6759412,-7.97748,-0.7182605
6.159,4.609316,-0.6995771,-0.035619672,-0.52390987,1.5801731,-8.078036,-0.7278373
6.1583495,4.608631,-0.6995771,-0.035619672,-0.52390987,1.5801731,-8.078036,-0.7278373
6.1577263,4.6079845,-0.6527055,-0.048402846,-0.49408248,1.4987702,-8.2169,-0.79487497
6.157103,4.607338,-0.6527055,-0.048402846,-0.49408248,1.4987702,-8.2169,-0.79487497
6.1565127,4.606741,-0.60263807,-0.06331655,-0.4631898,1.4652514,-8.355764,-0.82360536
6.1559234,4.6061463,-0.60263807,-0.06331655,-0.4631898,1.4652514,-8.355764,-0.82360536
6.1553674,4.6055975,-0.5515053,-0.079295516,-0.4301666,1.436521,-8.451532,-0.8523358
6.154812,4.605051,-0.5515053,-0.079295516,-0.4301666,1.436521,-8.451532,-0.8523358
6.154291,4.604556,-0.50037265,-0.09420922,-0.39820868,1.4460979,-8.552089,-0.866701
6.153771,4.604063,-0.50037265,-0.09420922,-0.39820868,1.4460979,-8.552089,-0.866701
6.1532807,4.6035986,-0.44923997,-0.110188186,-0.36412022,1.4269443,-8.6334915,-0.92895025
6.1527925,4.6031375,-0.44923997,-0.110188186,-0.36412022,1.4269443,-8.6334915,-0.92895025
6.1523404,4.6027412,-0.397042,-0.12723242,-0.331097,1.3599066,-8.7771435,-0.92895025
6.1518908,4.602348,-0.397042,-0.12723242,-0.331097,1.3599066,-8.7771435,-0.92895025
6.1514807,4.6020174,-0.3437788,-0.14321138,-0.29807383,1.3694834,-8.78672,-0.91458505
6.1510715,4.6016884,-0.3437788,-0.14321138,-0.29807383,1.3694834,-8.78672,-0.91458505
6.1506996,4.6014147,-0.29051554,-0.15705982,-0.26505062,1.3263878,-8.887277,-0.94331545
6.150328,4.601143,-0.29051554,-0.15705982,-0.26505062,1.3263878,-8.887277,-0.94331545
6.1500745,4.600972,-0.23725234,-0.16984299,-0.23202743,1.2545617,-9.02614,-0.90021986
6.149828,4.6008053,-0.23725234,-0.16984299,-0.23202743,1.2545617,-9.02614,-0.90021986
6.1496735,4.6006927,-0.18505438,-0.1815609,-0.20220003,1.2066777,-9.107543,-0.93373865
6.1495185,4.6005793,-0.18505438,-0.1815609,-0.20220003,1.2066777,-9.107543,-0.93373865
6.1495028,4.6004443,-0.13392168,-0.19434407,-0.17343788,1.0821792,-9.193734,-1.0007763
6.149487,4.60031,-0.13392168,-0.19434407,-0.17343788,1.0821792,-9.193734,-1.0007763
6.1495,4.6002226,-0.08491952,-0.20606199,-0.145741,1.1109096,-9.279925,-1.0151415
6.149513,4.6001368,-0.08491952,-0.20606199,-0.145741,1.1109096,-9.279925,-1.0151415
6.149558,4.6000776,-0.03698262,-0.21564937,-0.11910939,1.0390835,-9.3421755,-1.0390835
6.1496034,4.6000195,-0.03698262,-0.21564937,-0.11910939,1.0390835,-9.3421755,-1.0390835
6.1496553,4.5999413,0.0077584907,-0.22630201,-0.092477776,1.0342951,-9.428367,-1.1731589
6.149707,4.599864,0.0077584907,-0.22630201,-0.092477776,1.0342951,-9.428367,-1.1731589
6.1497645,4.5998077,0.05036907,-0.23588939,-0.0679767,1.043872,-9.490616,-1.2497733
6.1498194,4.599755,0.05036907,-0.23588939,-0.0679767,1.043872,-9.490616,-1.2497733
6.1498885,4.599735,0.09297965,-0.24547677,-0.04454088,1.0726024,-9.557653,-1.283292
6.1499577,4.599715,0.09297965,-0.24547677,-0.04454088,1.0726024,-9.557653,-1.283292
6.1500454,4.5997305,0.13132916,-0.25293362,-0.022170324,1.0534488,-9.639056,-1.340753
6.150133,4.5997453,0.13132916,-0.25293362,-0.022170324,1.0534488,-9.639056,-1.340753
6.150225,4.5997896,0.16754816,-0.2593252,-0.0029955646,1.0869676,-9.65821,-1.3838485
6.1503167,4.5998335,0.16754816,-0.2593252,-0.0029955646,1.0869676,-9.65821,-1.3838485
6.150416,4.5999074,0.20163663,-0.26465154,0.014048667,1.115698,-9.725247,-1.4269443
6.1505117,4.599979,0.20163663,-0.26465154,0.014048667,1.115698,-9.725247,-1.4269443
6.1505117,4.599979,0.20163663,-0.26465154,0.014048667,1.115698,-9.725247,-1.4269443
6.15086,4.6003404,0.2655525,-0.26784733,0.042810805,1.0821792,-9.811439,-1.4508862
6.1508985,4.600381,0.2655525,-0.26784733,0.042810805,1.0821792,-9.811439,-1.4508862
6.1508985,4.600381,0.2655525,-0.26784733,0.042810805,1.0821792,-9.811439,-1.4508862
6.1512547,4.6007624,0.2953799,-0.26784733,0.052398186,1.0103531,-9.89763,-1.5227122
6.151355,4.600878,0.2953799,-0.26784733,0.052398186,1.0103531,-9.89763,-1.5227122
6.1515164,4.601076,0.32307678,-0.26784733,0.061985567,1.0055647,-9.950302,-1.4987702
6.1516833,4.6012826,0.32307678,-0.26784733,0.061985567,1.0055647,-9.950302,-1.4987702
6.151849,4.601496,0.34864312,-0.26678208,0.071572945,0.9816227,-10.01734,-1.508347
6.1520343,4.601737,0.34864312,-0.26678208,0.071572945,0.9816227,-10.01734,-1.508347
6.1522183,4.6020045,0.37420946,-0.26465154,0.0790298,0.9768343,-10.079589,-1.6280571
6.1523623,4.6022143,0.37420946,-0.26465154,0.0790298,0.9768343,-10.079589,-1.6280571
6.1525545,4.602495,0.39871055,-0.262521,0.087551914,0.9624691,-10.141838,-1.5514427
6.152745,4.6027746,0.39871055,-0.262521,0.087551914,0.9624691,-10.141838,-1.5514427
6.1529503,4.6030846,0.42321163,-0.2593252,0.09607403,0.94331545,-10.228029,-1.5514427
6.153152,4.6033897,0.42321163,-0.2593252,0.09607403,0.94331545,-10.228029,-1.5514427
6.1533527,4.6037164,0.44664744,-0.2561294,0.10140035,0.94810385,-10.247183,-1.6041151
6.153554,4.604046,0.44664744,-0.2561294,0.10140035,0.94810385,-10.247183,-1.6041151
6.1537566,4.604397,0.46795273,-0.25506416,0.103530884,0.9576807,-10.299856,-1.6136919
6.153956,4.6047435,0.46795273,-0.25506416,0.103530884,0.9576807,-10.299856,-1.6136919
6.154169,4.6051164,0.49032328,-0.25186837,0.10779194,0.90979666,-10.31901,-1.5658079
6.154383,4.6054916,0.49032328,-0.25186837,0.10779194,0.90979666,-10.31901,-1.5658079
6.1546016,4.6058884,0.5105633,-0.24973783,0.11311826,0.9624691,-10.366894,-1.5227122
6.154819,4.606284,0.5105633,-0.24973783,0.11311826,0.9624691,-10.366894,-1.5227122
6.155053,4.606705,0.52973807,-0.24867256,0.119509846,0.91458505,-10.352529,-1.4796166
6.1552796,4.607113,0.52973807,-0.24867256,0.119509846,0.91458505,-10.352529,-1.4796166
6.155504,4.607547,0.5489128,-0.24654204,0.12270564,0.93373865,-10.362105,-1.541866
6.1557364,4.6079955,0.5489128,-0.24654204,0.12270564,0.93373865,-10.362105,-1.541866
6.155971,4.608448,0.56595707,-0.24547677,0.13016249,0.8858546,-10.309433,-1.5466543
6.156204,4.6088996,0.56595707,-0.24547677,0.13016249,0.8858546,-10.309433,-1.5466543
6.156455,4.6093726,0.58193606,-0.24547677,0.1386846,0.93852705,-10.309433,-1.4173675
6.1567054,4.609847,0.58193606,-0.24547677,0.1386846,0.93852705,-10.309433,-1.4173675
6.156987,4.6103597,0.5936539,-0.24228097,0.14720672,0.9528923,-10.251971,-1.3024458
6.157254,4.610847,0.5936539,-0.24228097,0.14720672,0.9528923,-10.251971,-1.3024458
6.1575212,4.6113405,0.6043066,-0.23908518,0.1567941,0.94810385,-10.280702,-1.364695
6.1577888,4.6118383,0.6043066,-0.23908518,0.1567941,0.94810385,-10.280702,-1.364695
6.1580634,4.612342,0.61069816,-0.23588939,0.16531622,0.9864111,-10.261548,-1.3215994
6.1583366,4.6128445,0.61069816,-0.23588939,0.16531622,0.9864111,-10.261548,-1.3215994
6.1586914,4.6134977,0.613894,-0.23056307,0.17277306,1.0342951,-10.189722,-1.283292
6.1588893,4.6138644,0.613894,-0.23056307,0.17277306,1.0342951,-10.189722,-1.283292
6.159164,4.6143622,0.6160245,-0.22417149,0.18022992,1.0390835,-10.237606,-1.2737153
6.159439,4.6148624,0.6160245,-0.22417149,0.18022992,1.0390835,-10.237606,-1.2737153
6.1597333,4.615374,0.61495924,-0.21671464,0.18768677,1.067814,-10.218452,-1.1923125
6.160025,4.615885,0.61495924,-0.21671464,0.18768677,1.067814,-10.218452,-1.1923125
6.1603417,4.6164055,0.61069816,-0.21032305,0.19194783,1.0247183,-10.175357,-1.1348516
6.160656,4.6169243,0.61069816,-0.21032305,0.19194783,1.0247183,-10.175357,-1.1348516
6.160948,4.6174226,0.60537183,-0.20499672,0.19940469,1.0726024,-10.16578,-1.1923125
6.1612344,4.617915,0.60537183,-0.20499672,0.19940469,1.0726024,-10.16578,-1.1923125
6.1615653,4.6184287,0.597915,-0.19647461,0.204731,1.0726024,-10.204087,-1.0726024
6.1618934,4.6189394,0.597915,-0.19647461,0.204731,1.0726024,-10.204087,-1.0726024
6.1622386,4.619458,0.58832765,-0.18795249,0.20686153,1.1061212,-10.247183,-1.0199299
6.162582,4.619975,0.58832765,-0.18795249,0.20686153,1.1061212,-10.247183,-1.0199299
6.1628933,4.620456,0.577675,-0.17836511,0.20686153,1.0726024,-10.228029,-1.0965444
6.1632013,4.6209345,0.577675,-0.17836511,0.20686153,1.0726024,-10.228029,-1.0965444
6.1635437,4.6214323,0.5648918,-0.17090826,0.20579627,1.0390835,-10.34774,-1.0390835
6.163881,4.621923,0.5648918,-0.17090826,0.20579627,1.0390835,-10.34774,-1.0390835
6.164215,4.622403,0.5510434,-0.1634514,0.20153521,1.0103531,-10.390836,-1.0486604
6.164548,4.6228833,0.5510434,-0.1634514,0.20153521,1.0103531,-10.390836,-1.0486604
6.1648808,4.623351,0.53399915,-0.15705982,0.19727415,0.92895025,-10.43872,-1.0726024
6.1652102,4.6238165,0.53399915,-0.15705982,0.19727415,0.92895025,-10.43872,-1.0726024
6.165526,4.624255,0.5169549,-0.15279876,0.19194783,0.91937345,-10.510546,-1.1109096
6.1658416,4.6246943,0.5169549,-0.15279876,0.19194783,0.91937345,-10.510546,-1.1109096
6.166152,4.6251183,0.49991068,-0.14960296,0.18555625,0.93373865,-10.520123,-1.0869676
6.1664615,4.625542,0.49991068,-0.14960296,0.18555625,0.93373865,-10.520123,-1.0869676
6.1667633,4.625945,0.4807359,-0.14853771,0.17916466,0.92416185,-10.491392,-1.0869676
6.167059,4.6263413,0.4807359,-0.14853771,0.17916466,0.92416185,-10.491392,-1.0869676
6.1673594,4.6267323,0.46262643,-0.14853771,0.17170781,0.92416185,-10.5440645,-1.0582372
6.167663,4.6271286,0.46262643,-0.14853771,0.17170781,0.92416185,-10.5440645,-1.0582372
6.167951,4.627495,0.44345164,-0.14853771,0.16531622,0.9576807,-10.534488,-1.0486604
6.1682363,4.627858,0.44345164,-0.14853771,0.16531622,0.9576807,-10.534488,-1.0486604
6.168526,4.628214,0.42640743,-0.14853771,0.16105516,1.0055647,-10.572795,-1.0007763
6.168814,4.6285677,0.42640743,-0.14853771,0.16105516,1.0055647,-10.572795,-1.0007763
6.16909,4.6288967,0.40936318,-0.14747244,0.1567941,0.9864111,-10.520123,-1.0199299
6.1693635,4.6292253,0.40936318,-0.14747244,0.1567941,0.9864111,-10.520123,-1.0199299
6.169626,4.629531,0.3912537,-0.14747244,0.15146779,1.0247183,-10.524911,-1.0055647
6.1698875,4.6298347,0.3912537,-0.14747244,0.15146779,1.0247183,-10.524911,-1.0055647
6.170116,4.6301107,0.37740526,-0.14640717,0.1450762,1.0007763,-10.524911,-1.1109096
6.1703434,4.6303864,0.37740526,-0.14640717,0.1450762,1.0007763,-10.524911,-1.1109096
6.1705666,4.6306467,0.3614263,-0.14427665,0.13974987,0.9959879,-10.481815,-1.0965444
6.1707883,4.630906,0.3614263,-0.14427665,0.13974987,0.9959879,-10.481815,-1.0965444
6.17099,4.631145,0.34544733,-0.14001559,0.13548881,0.9864111,-10.500969,-1.1971009
6.171191,4.6313834,0.34544733,-0.14001559,0.13548881,0.9864111,-10.500969,-1.1971009
6.1713867,4.631608,0.33159888,-0.13468927,0.13122776,1.0007763,-10.448297,-1.1587936
6.1715813,4.6318326,0.33159888,-0.13468927,0.13122776,1.0007763,-10.448297,-1.1587936
6.1717787,4.632047,0.31775045,-0.12936294,0.12483617,0.94810385,-10.43872,-1.1683705
6.171975,4.6322613,0.31775045,-0.12936294,0.12483617,0.94810385,-10.43872,-1.1683705
6.1721473,4.632456,0.30283675,-0.124036625,0.11737932,0.9768343,-10.400413,-1.2354081
6.172319,4.6326504,0.30283675,-0.124036625,0.11737932,0.9768343,-10.400413,-1.2354081
6.1724873,4.632831,0.28792304,-0.11977556,0.112053,1.0055647,-10.419566,-1.1540052
6.1726546,4.633012,0.28792304,-0.11977556,0.112053,1.0055647,-10.419566,-1.1540052
6.172816,4.6331806,0.27087882,-0.11338398,0.106726676,1.0007763,-10.429143,-1.2162545
6.1729665,4.6333385,0.27087882,-0.11338398,0.106726676,1.0007763,-10.429143,-1.2162545
6.1731215,4.6334877,0.2559651,-0.108057655,0.10033509,0.9864111,-10.46745,-1.1827357
6.1732764,4.6336374,0.2559651,-0.108057655,0.10033509,0.9864111,-10.46745,-1.1827357
6.1734233,4.6337724,0.2410514,-0.10060081,0.09500877,0.9816227,-10.433931,-1.2018893
6.1735697,4.6339073,0.2410514,-0.10060081,0.09500877,0.9816227,-10.433931,-1.2018893
6.1737256,4.634033,0.22720297,-0.093143955,0.09287824,0.91937345,-10.371682,-1.1875241
6.1738815,4.6341586,0.22720297,-0.093143955,0.09287824,0.91937345,-10.371682,-1.1875241
6.174028,4.6342683,0.21228927,-0.08781763,0.087551914,0.92895025,-10.34774,-1.1875241
6.1741743,4.6343784,0.21228927,-0.08781763,0.087551914,0.92895025,-10.34774,-1.1875241
6.1743293,4.634478,0.1963103,-0.08142605,0.08222559,0.91458505,-10.314221,-1.0965444
6.1744833,4.6345773,0.1963103,-0.08142605,0.08222559,0.91458505,-10.314221,-1.0965444
6.174639,4.6346645,0.18033133,-0.07503446,0.07689927,0.8619126,-10.304645,-1.115698
6.174794,4.6347513,0.18033133,-0.07503446,0.07689927,0.8619126,-10.304645,-1.115698
6.174924,4.634815,0.16435237,-0.06970814,0.071572945,0.91937345,-10.280702,-1.1587936
6.1750536,4.6348796,0.16435237,-0.06970814,0.071572945,0.91937345,-10.280702,-1.1587936
6.1751747,4.6349263,0.14730814,-0.06331655,0.06624663,0.90500826,-10.232818,-1.1875241
6.175296,4.6349735,0.14730814,-0.06331655,0.06624663,0.90500826,-10.232818,-1.1875241
6.1754017,4.635004,0.13239443,-0.057990227,0.059855036,0.94331545,-10.189722,-1.1731589
6.175507,4.6350346,0.13239443,-0.057990227,0.059855036,0.94331545,-10.189722,-1.1731589
6.1756015,4.63505,0.11748073,-0.052663904,0.05133292,0.93373865,-10.117896,-1.1923125
6.1756954,4.635065,0.11748073,-0.052663904,0.05133292,0.93373865,-10.117896,-1.1923125
6.1757803,4.6350646,0.10150176,-0.048402846,0.044941336,0.9528923,-10.089166,-1.1587936
6.175865,4.6350636,0.10150176,-0.048402846,0.044941336,0.9528923,-10.089166,-1.1587936
6.1759486,4.635051,0.08658806,-0.044141788,0.03641922,0.91937345,-10.04607,-1.1444284
6.176032,4.635037,0.08658806,-0.044141788,0.03641922,0.91937345,-10.04607,-1.1444284
6.176089,4.6350074,0.07273962,-0.03988073,0.025766576,0.9816227,-10.055647,-1.1540052
6.176145,4.6349773,0.07273962,-0.03988073,0.025766576,0.9816227,-10.055647,-1.1540052
6.176199,4.6349373,0.061021715,-0.03455441,0.016179197,0.94331545,-9.983821,-1.1492168
6.176253,4.634897,0.061021715,-0.03455441,0.016179197,0.94331545,-9.983821,-1.1492168
6.1762943,4.634845,0.049303804,-0.028162822,0.008722344,0.94810385,-9.935937,-1.1683705
6.1763363,4.6347923,0.049303804,-0.028162822,0.008722344,0.94810385,-9.935937,-1.1683705
6.176374,4.6347303,0.037585896,-0.023901764,0.00020022877,0.91937345,-9.945514,-1.1923125
6.176411,4.634668,0.037585896,-0.023901764,0.00020022877,0.91937345,-9.945514,-1.1923125
6.1764536,4.634599,0.027998514,-0.018575443,-0.006191358,0.8858546,-9.911995,-1.1348516
6.1764965,4.6345305,0.027998514,-0.018575443,-0.006191358,0.8858546,-9.911995,-1.1348516
6.176521,4.6344495,0.017345872,-0.016444914,-0.016844003,0.90979666,-9.801862,-1.1109096
6.176546,4.634369,0.017345872,-0.016444914,-0.016844003,0.90979666,-9.801862,-1.1109096
6.1765566,4.63428,0.00988902,-0.012183856,-0.027496647,0.91937345,-9.797073,-1.115698
6.1765676,4.6341915,0.00988902,-0.012183856,-0.027496647,0.91937345,-9.797073,-1.115698
6.176554,4.634096,0.005627962,-0.008988062,-0.039214555,0.9576807,-9.710882,-1.1061212
6.176541,4.634002,0.005627962,-0.008988062,-0.039214555,0.9576807,-9.710882,-1.1061212
6.1765237,4.6339054,0.0024321685,-0.00366174,-0.046671405,0.9624691,-9.706094,-1.0342951
6.176507,4.633809,0.0024321685,-0.00366174,-0.046671405,0.9624691,-9.706094,-1.0342951
6.1765003,4.6337113,-0.0028941538,0.0016645822,-0.053062994,0.90979666,-9.715671,-1.043872
6.176493,4.633613,-0.0028941538,0.0016645822,-0.053062994,0.90979666,-9.715671,-1.043872
6.1764755,4.6335106,-0.0071552116,0.00592564,-0.060519844,0.94331545,-9.710882,-0.9911995
6.1764574,4.6334076,-0.0071552116,0.00592564,-0.060519844,0.94331545,-9.710882,-0.9911995
6.176423,4.633296,-0.010351005,0.012317227,-0.07010722,0.90500826,-9.701305,-1.1252748
6.176391,4.633193,-0.010351005,0.012317227,-0.07010722,0.90500826,-9.701305,-1.1252748
6.1763597,4.633089,-0.0114162695,0.018708814,-0.077564076,0.90021986,-9.710882,-1.0630256
6.1763287,4.632985,-0.0114162695,0.018708814,-0.077564076,0.90021986,-9.710882,-1.0630256
6.1763005,4.632882,-0.014612063,0.020839343,-0.08715145,0.91458505,-9.68694,-0.9624691
6.176274,4.6327825,-0.014612063,0.020839343,-0.08715145,0.91458505,-9.68694,-0.9624691
6.1762433,4.6326795,-0.01674259,0.022969872,-0.09673884,0.8810662,-9.696517,-0.9864111
6.176213,4.6325765,-0.01674259,0.022969872,-0.09673884,0.8810662,-9.696517,-0.9864111
6.176163,4.6324687,-0.017807856,0.024035135,-0.104195684,0.93852705,-9.730036,-0.9576807
6.176114,4.632361,-0.017807856,0.024035135,-0.104195684,0.93852705,-9.730036,-0.9576807
6.176044,4.6322503,-0.017807856,0.022969872,-0.1159136,0.93852705,-9.701305,-0.9959879
6.175974,4.6321397,-0.017807856,0.022969872,-0.1159136,0.93852705,-9.701305,-0.9959879
6.175974,4.6321397,-0.017807856,0.022969872,-0.1159136,0.93852705,-9.701305,-0.9959879
6.1758184,4.6318855,-0.018873122,0.020839343,-0.123370446,0.93373865,-9.710882,-0.9624691
6.175749,4.631794,-0.017807856,0.018708814,-0.1308273,0.9576807,-9.682152,-0.9624691
6.1756735,4.6316953,-0.017807856,0.018708814,-0.1308273,0.9576807,-9.682152,-0.9624691
6.1756735,4.6316953,-0.017807856,0.018708814,-0.13615362,0.9959879,-9.648633,-0.9576807
6.175444,4.6314583,-0.015677327,0.018708814,-0.13615362,0.9959879,-9.648633,-0.9576807
6.1753454,4.6313553,-0.0114162695,0.014447756,-0.14147994,0.9528923,-9.600749,-1.0007763
6.1752443,4.63125,-0.0114162695,0.014447756,-0.14147994,0.9528923,-9.600749,-1.0007763
6.1752443,4.63125,-0.0114162695,0.014447756,-0.14147994,0.9528923,-9.600749,-1.0007763
6.1750703,4.631055,-0.0071552116,0.012317227,-0.14254521,0.9672575,-9.576807,-0.90500826
6.174983,4.630961,-0.0039594183,0.010186698,-0.14361048,0.9816227,-9.528923,-0.8714894
6.174895,4.630865,-0.0039594183,0.010186698,-0.14361048,0.9816227,-9.528923,-0.8714894
6.1748667,4.6308107,0.0024321685,0.010186698,-0.14254521,0.90979666,-9.528923,-0.842759
6.174839,4.630756,0.0024321685,0.010186698,-0.14254521,0.90979666,-9.528923,-0.842759
6.174802,4.6306973,0.008823755,0.011251962,-0.13934942,0.93852705,-9.509769,-0.842759
6.174766,4.630639,0.008823755,0.011251962,-0.13934942,0.93852705,-9.509769,-0.842759
6.174713,4.630574,0.015215342,0.012317227,-0.13615362,0.93373865,-9.519346,-0.8810662
6.1746607,4.63051,0.015215342,0.012317227,-0.13615362,0.93373865,-9.519346,-0.8810662
6.174626,4.630461,0.020541664,0.01551302,-0.1340231,0.92895025,-9.504981,-0.8571242
6.174591,4.6304126,0.020541664,0.01551302,-0.1340231,0.92895025,-9.504981,-0.8571242
6.17452,4.6303473,0.023737457,0.019774077,-0.1308273,0.93373865,-9.485827,-0.93373865
6.1744494,4.630282,0.023737457,0.019774077,-0.1308273,0.93373865,-9.485827,-0.93373865
6.1743627,4.6302137,0.025867987,0.021904606,-0.12656625,0.9864111,-9.500193,-0.90979666
6.1742764,4.630145,0.025867987,0.021904606,-0.12656625,0.9864111,-9.500193,-0.90979666
6.1741734,4.630076,0.027998514,0.024035135,-0.12550098,1.0007763,-9.514558,-0.9672575
6.1740713,4.630007,0.027998514,0.024035135,-0.12550098,1.0007763,-9.514558,-0.9672575
6.1739936,4.629945,0.030129045,0.02723093,-0.124435715,0.9672575,-9.504981,-0.93373865
6.173917,4.6298833,0.030129045,0.02723093,-0.124435715,0.9672575,-9.504981,-0.93373865
6.1738176,4.6298184,0.031194309,0.030426722,-0.123370446,1.0055647,-9.519346,-0.9528923
6.1737185,4.6297536,0.031194309,0.030426722,-0.123370446,1.0055647,-9.519346,-0.9528923
6.173589,4.629687,0.031194309,0.031491987,-0.11910939,1.0630256,-9.509769,-0.93852705
6.17346,4.6296206,0.031194309,0.031491987,-0.11910939,1.0630256,-9.509769,-0.93852705
6.1733317,4.629553,0.030129045,0.033622514,-0.11697886,1.0630256,-9.461885,-0.9672575
6.173205,4.629486,0.030129045,0.033622514,-0.11697886,1.0630256,-9.461885,-0.9672575
6.1730747,4.6294184,0.02906378,0.035753045,-0.11484833,1.0726024,-9.461885,-0.9576807
6.1729455,4.62935,0.02906378,0.035753045,-0.11484833,1.0726024,-9.461885,-0.9576807
6.17283,4.6292825,0.02906378,0.03681831,-0.11271781,1.0534488,-9.476251,-0.90500826
6.1727157,4.629214,0.02906378,0.03681831,-0.11271781,1.0534488,-9.476251,-0.90500826
6.172589,4.6291456,0.027998514,0.037883572,-0.11058728,1.067814,-9.433155,-0.90500826
6.1724625,4.629077,0.027998514,0.037883572,-0.11058728,1.067814,-9.433155,-0.90500826
6.172367,4.629009,0.027998514,0.037883572,-0.107391484,1.0342951,-9.385271,-0.8714894
6.1722736,4.628941,0.027998514,0.037883572,-0.107391484,1.0342951,-9.385271,-0.8714894
6.1720743,4.6288986,0.027998514,0.037883572,-0.10099989,1.1061212,-9.394848,-0.8283938
6.171876,4.6288557,0.027998514,0.037883572,-0.10099989,1.1061212,-9.394848,-0.8283938
6.1717625,4.628785,0.025867987,0.03681831,-0.093543045,1.0582372,-9.3421755,-0.8379706
6.1716504,4.628715,0.025867987,0.03681831,-0.093543045,1.0582372,-9.3421755,-0.8379706
6.171459,4.628673,0.026933251,0.037883572,-0.09034725,1.1252748,-9.41879,-0.8379706
6.1712685,4.628631,0.026933251,0.037883572,-0.09034725,1.1252748,-9.41879,-0.8379706
6.171104,4.628577,0.026933251,0.038948838,-0.08608619,1.1109096,-9.32781,-0.8475474
6.17094,4.628523,0.026933251,0.038948838,-0.08608619,1.1109096,-9.32781,-0.8475474
6.170746,4.628615,0.027998514,0.038948838,-0.08075987,1.1109096,-9.414001,-0.7661445
6.1705523,4.6287074,0.027998514,0.038948838,-0.08075987,1.1109096,-9.414001,-0.7661445
6.1704187,4.628832,0.02906378,0.038948838,-0.077564076,1.0869676,-9.394848,-0.7517793
6.170287,4.6289573,0.02906378,0.038948838,-0.077564076,1.0869676,-9.394848,-0.7517793
6.170178,4.629088,0.030129045,0.038948838,-0.07330302,1.1013328,-9.351752,-0.6703765
6.170069,4.629218,0.030129045,0.038948838,-0.07330302,1.1013328,-9.351752,-0.6703765
6.1699452,4.6293473,0.033324838,0.037883572,-0.07010722,1.1204864,-9.3661175,-0.6847417
6.1698213,4.629477,0.033324838,0.037883572,-0.07010722,1.1204864,-9.3661175,-0.6847417
6.1697273,4.629615,0.03652063,0.035753045,-0.06584617,1.1013328,-9.394848,-0.6703765
6.169634,4.6297526,0.03652063,0.035753045,-0.06584617,1.1013328,-9.394848,-0.6703765
6.169553,4.629895,0.040781688,0.035753045,-0.059454583,1.0965444,-9.375694,-0.6464345
6.169472,4.630038,0.040781688,0.035753045,-0.059454583,1.0965444,-9.375694,-0.6464345
6.16939,4.6301837,0.045042746,0.033622514,-0.053062994,1.1013328,-9.351752,-0.6607997
6.169308,4.63033,0.045042746,0.033622514,-0.053062994,1.1013328,-9.351752,-0.6607997
6.169245,4.630482,0.05036907,0.032557253,-0.0498672,1.0965444,-9.3421755,-0.5267244
6.169182,4.6306343,0.05036907,0.032557253,-0.0498672,1.0965444,-9.3421755,-0.5267244
6.169134,4.6307936,0.056760654,0.032557253,-0.045606144,1.067814,-9.313444,-0.5746084
6.169086,4.6309533,0.056760654,0.032557253,-0.045606144,1.067814,-9.313444,-0.5746084
6.16902,4.631118,0.06421751,0.029361458,-0.039214555,1.1109096,-9.375694,-0.63206923
6.168954,4.631283,0.06421751,0.029361458,-0.039214555,1.1109096,-9.375694,-0.63206923
6.168899,4.631454,0.06954383,0.02723093,-0.03282297,1.091756,-9.284714,-0.6368576
6.168844,4.6316247,0.06954383,0.02723093,-0.03282297,1.091756,-9.284714,-0.6368576
6.1688023,4.631803,0.07700068,0.026165664,-0.02323559,1.0965444,-9.308656,-0.60333884
6.1687603,4.6319833,0.07700068,0.026165664,-0.02323559,1.0965444,-9.308656,-0.60333884
6.168709,4.632166,0.08552279,0.0251004,-0.016844003,1.1109096,-9.294291,-0.63206923
6.1686573,4.632351,0.08552279,0.0251004,-0.016844003,1.1109096,-9.294291,-0.63206923
6.1685915,4.6325364,0.091914386,0.022969872,-0.009387151,1.13964,-9.275137,-0.62728083
6.1685257,4.6327224,0.091914386,0.022969872,-0.009387151,1.13964,-9.275137,-0.62728083
6.16851,4.6329207,0.0972407,0.021904606,0.00020022877,1.091756,-9.279925,-0.59376204
6.1684947,4.6331196,0.0972407,0.021904606,0.00020022877,1.091756,-9.279925,-0.59376204
6.1684914,4.633325,0.10363229,0.022969872,0.008722344,1.0869676,-9.289502,-0.59376204
6.168488,4.6335306,0.10363229,0.022969872,0.008722344,1.0869676,-9.289502,-0.59376204
6.168467,4.633739,0.10895862,0.024035135,0.015113931,1.1204864,-9.299079,-0.60333884
6.1684456,4.6339464,0.10895862,0.024035135,0.015113931,1.1204864,-9.299079,-0.60333884
6.1684327,4.6341596,0.11321967,0.0251004,0.020440254,1.1300632,-9.323022,-0.56982
6.1684194,4.634372,0.11321967,0.0251004,0.020440254,1.1300632,-9.323022,-0.56982
6.1683493,4.6345673,0.11748073,0.026165664,0.024701312,1.1348516,-9.303867,-0.6799533
6.1682754,4.6347694,0.11748073,0.026165664,0.024701312,1.1348516,-9.303867,-0.6799533
6.168262,4.6349816,0.119611256,0.028296193,0.030027634,1.0965444,-9.294291,-0.6751649
6.168245,4.6352296,0.119611256,0.028296193,0.030027634,1.0965444,-9.294291,-0.6751649
6.1682587,4.635425,0.119611256,0.028296193,0.03428869,1.091756,-9.32781,-0.6464345
6.168274,4.635643,0.119611256,0.028296193,0.03428869,1.091756,-9.32781,-0.6464345
6.1682377,4.635849,0.119611256,0.028296193,0.03854975,1.1348516,-9.3182335,-0.6512229
6.1682,4.6360555,0.119611256,0.028296193,0.03854975,1.1348516,-9.3182335,-0.6512229
6.1681867,4.6362724,0.118545994,0.028296193,0.040680278,1.1300632,-9.303867,-0.61770403
6.1681724,4.636485,0.118545994,0.028296193,0.040680278,1.1300632,-9.303867,-0.61770403
6.1681943,4.6367035,0.11641546,0.028296193,0.042810805,1.1013328,-9.351752,-0.61291564
6.1682158,4.636922,0.11641546,0.028296193,0.042810805,1.1013328,-9.351752,-0.61291564
6.168238,4.637137,0.11321967,0.029361458,0.04387607,1.1061212,-9.380483,-0.60333884
6.16826,4.6373525,0.11321967,0.029361458,0.04387607,1.1061212,-9.380483,-0.60333884
6.1683116,4.6375647,0.11002388,0.028296193,0.04387607,1.0773908,-9.423578,-0.58418524
6.168363,4.6377788,0.11002388,0.028296193,0.04387607,1.0773908,-9.423578,-0.58418524
6.168418,4.6379895,0.10789335,0.029361458,0.047071867,1.067814,-9.414001,-0.51714754
6.1684732,4.6382017,0.10789335,0.029361458,0.047071867,1.067814,-9.414001,-0.51714754
6.168546,4.6384068,0.10363229,0.02723093,0.049202394,1.0582372,-9.457097,-0.5793968
6.1686187,4.638611,0.10363229,0.02723093,0.049202394,1.0582372,-9.457097,-0.5793968
6.168658,4.638812,0.09937123,0.026165664,0.05026766,1.1061212,-9.461885,-0.5315128
6.1686964,4.6390147,0.09937123,0.026165664,0.05026766,1.1061212,-9.461885,-0.5315128
6.168771,4.6392093,0.09511018,0.024035135,0.04813713,1.0582372,-9.504981,-0.5746084
6.1688457,4.639405,0.09511018,0.024035135,0.04813713,1.0582372,-9.504981,-0.5746084
6.168926,4.6395974,0.091914386,0.022969872,0.05026766,1.043872,-9.485827,-0.5506664
6.169006,4.6397896,0.091914386,0.022969872,0.05026766,1.043872,-9.485827,-0.5506664
6.169069,4.63998,0.08658806,0.022969872,0.05026766,1.0773908,-9.581595,-0.5315128
6.16913,4.640167,0.08658806,0.022969872,0.05026766,1.0773908,-9.581595,-0.5315128
6.1692085,4.6403494,0.082327,0.022969872,0.05133292,1.0486604,-9.581595,-0.5267244
6.169287,4.640532,0.082327,0.022969872,0.05133292,1.0486604,-9.581595,-0.5267244
6.1693597,4.6407094,0.07700068,0.021904606,0.052398186,1.0582372,-9.605537,-0.50757074
6.1694326,4.6408877,0.07700068,0.021904606,0.052398186,1.0582372,-9.605537,-0.50757074
6.169506,4.641062,0.07273962,0.022969872,0.054528717,1.0726024,-9.643845,-0.545878
6.1695795,4.6412363,0.07273962,0.022969872,0.054528717,1.0726024,-9.643845,-0.545878
6.169659,4.641406,0.06847856,0.0251004,0.055593982,1.0582372,-9.667787,-0.51714754
6.1697383,4.6415753,0.06847856,0.0251004,0.055593982,1.0582372,-9.667787,-0.51714754
6.169815,4.641743,0.06634804,0.028296193,0.058789775,1.0630256,-9.691729,-0.48362875
6.169892,4.6419115,0.06634804,0.028296193,0.058789775,1.0630256,-9.691729,-0.48362875
6.169985,4.642076,0.06421751,0.031491987,0.0641161,1.0342951,-9.763555,-0.45489833
6.1700783,4.642241,0.06421751,0.031491987,0.0641161,1.0342951,-9.763555,-0.45489833
6.170194,4.642399,0.062086977,0.033622514,0.06624663,0.94331545,-9.758766,-0.39743748
6.17031,4.642558,0.062086977,0.033622514,0.06624663,0.94331545,-9.758766,-0.39743748
6.1704297,4.6427135,0.05995645,0.037883572,0.06624663,0.9720459,-9.763555,-0.46447513
6.170549,4.6428695,0.05995645,0.037883572,0.06624663,0.9720459,-9.763555,-0.46447513
6.1706533,4.6430254,0.056760654,0.04214463,0.06731189,0.9624691,-9.840169,-0.33518824
6.170758,4.6431828,0.056760654,0.04214463,0.06731189,0.9624691,-9.840169,-0.33518824
6.170867,4.6433372,0.055695392,0.04427516,0.06624663,0.93852705,-9.864111,-0.33039984
6.170975,4.6434917,0.055695392,0.04427516,0.06624663,0.93852705,-9.864111,-0.33039984
6.1710815,4.6436443,0.05356486,0.046405688,0.0641161,0.9576807,-9.9790325,-0.34955344
6.171188,4.6437974,0.05356486,0.046405688,0.0641161,0.9576807,-9.9790325,-0.34955344
6.1713033,4.6439424,0.049303804,0.04853622,0.059855036,0.92895025,-9.983821,-0.39264908
6.171418,4.644087,0.049303804,0.04853622,0.059855036,0.92895025,-9.983821,-0.39264908
6.171524,4.6442266,0.04291222,0.04853622,0.05346345,0.92895025,-10.065224,-0.36391866
6.1716294,4.644366,0.04291222,0.04853622,0.05346345,0.92895025,-10.065224,-0.36391866
6.171742,4.644497,0.037585896,0.04853622,0.049202394,0.94810385,-10.103531,-0.45010993
6.1718545,4.644627,0.037585896,0.04853622,0.049202394,0.94810385,-10.103531,-0.45010993
6.1719575,4.644752,0.032259572,0.045340426,0.042810805,0.89064306,-10.13705,-0.35434186
6.172061,4.6448784,0.032259572,0.045340426,0.042810805,0.89064306,-10.13705,-0.35434186
6.172153,4.645,0.026933251,0.043209895,0.03428869,0.92416185,-10.156203,-0.38307226
6.1722455,4.645121,0.026933251,0.043209895,0.03428869,0.92416185,-10.156203,-0.38307226
6.172326,4.645237,0.02160693,0.040014103,0.025766576,0.94810385,-10.151415,-0.40222588
6.172407,4.6453533,0.02160693,0.040014103,0.025766576,0.94810385,-10.151415,-0.40222588
6.1724887,4.645462,0.017345872,0.037883572,0.01724446,0.90021986,-10.132261,-0.3878607
6.17257,4.6455708,0.017345872,0.037883572,0.01724446,0.90021986,-10.132261,-0.3878607
6.1726456,4.645689,0.013084813,0.035753045,0.008722344,0.90021986,-10.127473,-0.35434186
6.172708,4.6457872,0.013084813,0.035753045,0.008722344,0.90021986,-10.127473,-0.35434186
6.1727924,4.645913,0.00988902,0.031491987,-0.0008650357,0.8523358,-10.1226845,-0.34476504
6.1728425,4.6459875,0.00988902,0.031491987,-0.0008650357,0.8523358,-10.1226845,-0.34476504
6.1728826,4.646084,0.0066932263,0.028296193,-0.009387151,0.93373865,-10.0269165,-0.36391866
6.172925,4.646187,0.0066932263,0.028296193,-0.009387151,0.93373865,-10.0269165,-0.36391866
6.172925,4.646187,0.0066932263,0.028296193,-0.009387151,0.93373865,-10.0269165,-0.36391866
6.172925,4.646187,0.0066932263,0.028296193,-0.009387151,0.93373865,-10.0269165,-0.36391866
6.173057,4.646502,0.005627962,0.0251004,-0.026431382,0.94810385,-9.969456,-0.2777274
6.1730647,4.6465816,0.005627962,0.0251004,-0.026431382,0.94810385,-9.969456,-0.2777274
6.173056,4.6466856,0.0077584907,0.022969872,-0.033888236,0.9911995,-9.974244,-0.25857377
6.173048,4.6467924,0.0077584907,0.022969872,-0.033888236,0.9911995,-9.974244,-0.25857377
6.1730304,4.6469,0.008823755,0.019774077,-0.04027982,1.0103531,-9.907207,-0.30645782
6.1730127,4.647008,0.008823755,0.019774077,-0.04027982,1.0103531,-9.907207,-0.30645782
6.1729946,4.6471186,0.012019549,0.017643549,-0.048801936,0.9720459,-9.878476,-0.2873042
6.172977,4.6472282,0.012019549,0.017643549,-0.048801936,0.9720459,-9.878476,-0.2873042
6.1729465,4.647341,0.0141500775,0.016578285,-0.05732405,0.9864111,-9.840169,-0.2873042
6.1729155,4.647454,0.0141500775,0.016578285,-0.05732405,0.9864111,-9.840169,-0.2873042
6.1728663,4.647569,0.016280606,0.013382491,-0.06371564,1.0295067,-9.835381,-0.25857377
6.172817,4.6476846,0.016280606,0.013382491,-0.06371564,1.0295067,-9.835381,-0.25857377
6.172766,4.6478033,0.020541664,0.010186698,-0.06904196,1.0007763,-9.758766,-0.21547815
6.1727157,4.6479216,0.020541664,0.010186698,-0.06904196,1.0007763,-9.758766,-0.21547815
6.1726847,4.6480403,0.023737457,0.008056169,-0.07117249,0.93852705,-9.782708,-0.29209262
6.1726537,4.648159,0.023737457,0.008056169,-0.07117249,0.93852705,-9.782708,-0.29209262
6.1725965,4.648284,0.026933251,0.0048603755,-0.07436828,1.0055647,-9.744401,-0.20590134
6.172539,4.6484084,0.026933251,0.0048603755,-0.07436828,1.0055647,-9.744401,-0.20590134
6.172485,4.6485357,0.030129045,0.0005993177,-0.078629345,0.9720459,-9.701305,-0.20590134
6.172431,4.648662,0.030129045,0.0005993177,-0.078629345,0.9720459,-9.701305,-0.20590134
6.1723723,4.6487894,0.031194309,-0.0047270046,-0.07969461,0.9911995,-9.68694,-0.21547815
6.1723137,4.648917,0.031194309,-0.0047270046,-0.07969461,0.9911995,-9.68694,-0.21547815
6.1722455,4.649047,0.033324838,-0.008988062,-0.08182514,1.0199299,-9.576807,-0.25378537
6.1721773,4.649177,0.033324838,-0.008988062,-0.08182514,1.0199299,-9.576807,-0.25378537
6.1720924,4.649309,0.03545537,-0.01324912,-0.0828904,1.0773908,-9.581595,-0.2681506
6.1720076,4.6494417,0.03545537,-0.01324912,-0.0828904,1.0773908,-9.581595,-0.2681506
6.171926,4.6495733,0.03545537,-0.019640706,-0.08182514,1.0630256,-9.485827,-0.23463176
6.1718445,4.649705,0.03545537,-0.019640706,-0.08182514,1.0630256,-9.485827,-0.23463176
6.1717563,4.6498375,0.037585896,-0.0228365,-0.08182514,1.0821792,-9.433155,-0.25378537
6.171637,4.6500177,0.037585896,-0.0228365,-0.08182514,1.0821792,-9.433155,-0.25378537
6.1715674,4.6501184,0.03865116,-0.028162822,-0.08075987,1.0869676,-9.351752,-0.29209262
6.171481,4.650244,0.03865116,-0.028162822,-0.08075987,1.0869676,-9.351752,-0.29209262
6.1713786,4.650374,0.040781688,-0.03242388,-0.07969461,1.1109096,-9.26556,-0.33039984
6.171275,4.6505055,0.040781688,-0.03242388,-0.07969461,1.1109096,-9.26556,-0.33039984
6.1711493,4.6506367,0.043977484,-0.035619672,-0.078629345,1.1683705,-9.26556,-0.34476504
6.171023,4.6507683,0.043977484,-0.035619672,-0.078629345,1.1683705,-9.26556,-0.34476504
6.170887,4.650898,0.047173277,-0.03988073,-0.07436828,1.2114661,-9.184157,-0.32561144
6.170752,4.6510277,0.047173277,-0.03988073,-0.07436828,1.2114661,-9.184157,-0.32561144
6.1706114,4.651155,0.049303804,-0.043076526,-0.06904196,1.2641385,-9.174581,-0.31124622
6.1704707,4.6512823,0.049303804,-0.043076526,-0.06904196,1.2641385,-9.174581,-0.31124622
6.1703396,4.6514153,0.0524996,-0.045207053,-0.062650375,1.2545617,-9.150639,-0.29688102
6.170211,4.6515465,0.0524996,-0.045207053,-0.062650375,1.2545617,-9.150639,-0.29688102
6.1700497,4.651659,0.055695392,-0.048402846,-0.058389317,1.2545617,-9.074024,-0.4213795
6.169888,4.651772,0.055695392,-0.048402846,-0.058389317,1.2545617,-9.074024,-0.4213795
6.1697226,4.6518793,0.058891185,-0.04946811,-0.0498672,1.3072342,-9.059659,-0.4261679
6.169559,4.6519847,0.058891185,-0.04946811,-0.0498672,1.3072342,-9.059659,-0.4261679
6.1694274,4.6521125,0.062086977,-0.051598642,-0.041345086,1.2976574,-9.045294,-0.34476504
6.1692953,4.652241,0.062086977,-0.051598642,-0.041345086,1.2976574,-9.045294,-0.34476504
6.1691604,4.6523657,0.06528277,-0.05372917,-0.033888236,1.3120226,-9.054871,-0.37349546
6.169026,4.65249,0.06528277,-0.05372917,-0.033888236,1.3120226,-9.054871,-0.37349546
6.168897,4.652613,0.06847856,-0.054794434,-0.02323559,1.3311762,-9.030929,-0.37828386
6.168768,4.652736,0.06847856,-0.054794434,-0.02323559,1.3311762,-9.030929,-0.37828386
6.168639,4.652848,0.07060909,-0.054794434,-0.010452416,1.3311762,-9.074024,-0.4309563
6.1685104,4.6529593,0.07060909,-0.054794434,-0.010452416,1.3311762,-9.074024,-0.4309563
6.1683908,4.6530657,0.07167436,-0.05692496,0.0033960221,1.3215994,-9.074024,-0.45010993
6.168271,4.6531725,0.07167436,-0.05692496,0.0033960221,1.3215994,-9.074024,-0.45010993
6.1681714,4.653288,0.07060909,-0.057990227,0.015113931,1.3263878,-9.097966,-0.4213795
6.168071,4.6534033,0.07060909,-0.057990227,0.015113931,1.3263878,-9.097966,-0.4213795
6.167977,4.653511,0.06847856,-0.05692496,0.02683184,1.2976574,-9.160215,-0.45489833
6.167884,4.653618,0.06847856,-0.05692496,0.02683184,1.2976574,-9.160215,-0.45489833
6.167801,4.6537147,0.06528277,-0.054794434,0.042810805,1.283292,-9.14585,-0.47405192
6.1677175,4.653811,0.06528277,-0.054794434,0.042810805,1.283292,-9.14585,-0.47405192
6.167642,4.653894,0.061021715,-0.05372917,0.055593982,1.2306197,-9.155427,-0.50278234
6.167567,4.6539764,0.061021715,-0.05372917,0.055593982,1.2306197,-9.155427,-0.50278234
6.167508,4.6540627,0.054630127,-0.051598642,0.06837715,1.2210429,-9.227253,-0.49799395
6.16745,4.6541486,0.054630127,-0.051598642,0.06837715,1.2210429,-9.227253,-0.49799395
6.167397,4.6541715,0.047173277,-0.04946811,0.08222559,1.2210429,-9.289502,-0.5602432
6.167344,4.6541944,0.047173277,-0.04946811,0.08222559,1.2210429,-9.289502,-0.5602432
6.1673093,4.6541915,0.037585896,-0.047337584,0.0939435,1.2210429,-9.332599,-0.5793968
6.167275,4.6541886,0.037585896,-0.047337584,0.0939435,1.2210429,-9.332599,-0.5793968
6.1672792,4.6541433,0.027998514,-0.045207053,0.104596145,1.1731589,-9.385271,-0.59855044
6.1672835,4.6540985,0.027998514,-0.045207053,0.104596145,1.1731589,-9.385271,-0.59855044
6.1673427,4.6540184,0.016280606,-0.043076526,0.112053,1.1587936,-9.466674,-0.641646
6.167401,4.653939,0.016280606,-0.043076526,0.112053,1.1587936,-9.466674,-0.641646
6.1675053,4.653842,0.0066932263,-0.040945996,0.119509846,1.1252748,-9.504981,-0.6560113
6.167609,4.6537457,0.0066932263,-0.040945996,0.119509846,1.1252748,-9.504981,-0.6560113
6.1677103,4.65364,-0.0039594183,-0.03881547,0.12590143,1.1252748,-9.466674,-0.641646
6.16781,4.6535344,-0.0039594183,-0.03881547,0.12590143,1.1252748,-9.466674,-0.641646
6.167871,4.6534295,-0.014612063,-0.037750203,0.13016249,1.1348516,-9.552865,-0.59376204
6.167929,4.6533265,-0.014612063,-0.037750203,0.13016249,1.1348516,-9.552865,-0.59376204
6.1680946,4.6532016,-0.024199443,-0.035619672,0.13335828,1.0869676,-9.5385,-0.62728083
6.168258,4.6530766,-0.024199443,-0.035619672,0.13335828,1.0869676,-9.5385,-0.62728083
6.1684422,4.652945,-0.034852087,-0.03455441,0.13335828,1.043872,-9.524135,-0.6751649
6.168626,4.6528134,-0.034852087,-0.03455441,0.13335828,1.043872,-9.524135,-0.6751649
6.1688533,4.6526914,-0.043374203,-0.035619672,0.13335828,1.0007763,-9.586384,-0.6560113
6.169079,4.6525707,-0.043374203,-0.035619672,0.13335828,1.0007763,-9.586384,-0.6560113
6.1693177,4.6524463,-0.05402685,-0.035619672,0.13335828,1.0295067,-9.533711,-0.61291564
6.1695557,4.652322,-0.05402685,-0.035619672,0.13335828,1.0295067,-9.533711,-0.61291564
6.1697526,4.6521683,-0.0614837,-0.036684938,0.13016249,1.0486604,-9.629479,-0.6512229
6.1699476,4.6520147,-0.0614837,-0.036684938,0.13016249,1.0486604,-9.629479,-0.6512229
6.170186,4.6518807,-0.06787529,-0.035619672,0.1269667,1.0103531,-9.595961,-0.62728083
6.1704235,4.6517477,-0.06787529,-0.035619672,0.1269667,1.0103531,-9.595961,-0.62728083
6.170626,4.6515894,-0.07213634,-0.035619672,0.12270564,1.0630256,-9.667787,-0.62249243
6.1708283,4.6514316,-0.07213634,-0.035619672,0.12270564,1.0630256,-9.667787,-0.62249243
6.170967,4.651255,-0.07426687,-0.033489145,0.120575115,1.0773908,-9.65821,-0.6799533
6.1711044,4.6510787,-0.07426687,-0.033489145,0.120575115,1.0773908,-9.65821,-0.6799533
6.171215,4.6509004,-0.075332135,-0.030293351,0.11524879,1.0965444,-9.672575,-0.6703765
6.1713233,4.6507225,-0.075332135,-0.030293351,0.11524879,1.0965444,-9.672575,-0.6703765
6.171521,4.6505694,-0.07426687,-0.027097559,0.10779194,1.0630256,-9.753978,-0.63206923
6.171719,4.6504164,-0.07426687,-0.027097559,0.10779194,1.0630256,-9.753978,-0.63206923
6.1718106,4.650242,-0.07213634,-0.02496703,0.10140035,1.1013328,-9.749189,-0.6703765
6.1719017,4.6500654,-0.07213634,-0.02496703,0.10140035,1.1013328,-9.749189,-0.6703765
6.1720076,4.649898,-0.06681002,-0.0228365,0.09820456,1.091756,-9.758766,-0.62249243
6.172106,4.64973,-0.06681002,-0.0228365,0.09820456,1.091756,-9.758766,-0.62249243
6.172315,4.6496105,-0.062548965,-0.019640706,0.0939435,1.0390835,-9.797073,-0.641646
6.172527,4.6494904,-0.062548965,-0.019640706,0.0939435,1.0390835,-9.797073,-0.641646
6.1727066,4.649354,-0.057222642,-0.016444914,0.09074771,1.0582372,-9.892841,-0.6607997
6.1728854,4.6492186,-0.057222642,-0.016444914,0.09074771,1.0582372,-9.892841,-0.6607997
6.1730547,4.649084,-0.052961584,-0.011118591,0.088617176,1.0247183,-9.945514,-0.7086837
6.1732254,4.6489477,-0.052961584,-0.011118591,0.088617176,1.0247183,-9.945514,-0.7086837
6.173386,4.6488147,-0.048700526,-0.007922798,0.08648665,0.9864111,-9.950302,-0.7613561
6.173547,4.6486816,-0.048700526,-0.007922798,0.08648665,0.9864111,-9.950302,-0.7613561
6.173738,4.648569,-0.045504734,-0.00366174,0.08648665,0.9672575,-10.0269165,-0.7278373
6.1739287,4.6484575,-0.045504734,-0.00366174,0.08648665,0.9672575,-10.0269165,-0.7278373
6.1741176,4.648343,-0.043374203,-0.00046594674,0.088617176,0.9911995,-10.041282,-0.7230489
6.1743035,4.64823,-0.043374203,-0.00046594674,0.088617176,0.9911995,-10.041282,-0.7230489
6.174489,4.648117,-0.04017841,0.0027298466,0.09181297,0.9576807,-10.079589,-0.7613561
6.174675,4.648004,-0.04017841,0.0027298466,0.09181297,0.9576807,-10.079589,-0.7613561
6.174899,4.647931,-0.04017841,0.0048603755,0.09287824,0.92895025,-10.089166,-0.6943185
6.175123,4.6478586,-0.04017841,0.0048603755,0.09287824,0.92895025,-10.089166,-0.6943185
6.1753206,4.6477547,-0.039113145,0.008056169,0.09287824,0.94331545,-10.156203,-0.7565677
6.1755176,4.6476517,-0.039113145,0.008056169,0.09287824,0.94331545,-10.156203,-0.7565677
6.175728,4.647558,-0.03804788,0.011251962,0.09287824,0.91937345,-10.127473,-0.7422025
6.175934,4.647466,-0.03804788,0.011251962,0.09287824,0.91937345,-10.127473,-0.7422025
6.176118,4.6473584,-0.03698262,0.013382491,0.089682445,0.91937345,-10.156203,-0.79487497
6.176302,4.64725,-0.03698262,0.013382491,0.089682445,0.91937345,-10.156203,-0.79487497
6.1765084,4.647163,-0.03698262,0.01551302,0.088617176,0.90979666,-10.156203,-0.7422025
6.176715,4.6470757,-0.03698262,0.01551302,0.088617176,0.90979666,-10.156203,-0.7422025
6.176903,4.646973,-0.03698262,0.017643549,0.08648665,0.90979666,-10.113108,-0.7757214
6.1770916,4.64687,-0.03698262,0.017643549,0.08648665,0.90979666,-10.113108,-0.7757214
6.177319,4.6467524,-0.03698262,0.019774077,0.08435612,0.8379706,-10.0987425,-0.80445176
6.177477,4.6466713,-0.03698262,0.019774077,0.08435612,0.8379706,-10.0987425,-0.80445176
6.1776567,4.646572,-0.03698262,0.020839343,0.08009506,0.8619126,-10.0987425,-0.79966336
6.177839,4.646471,-0.03698262,0.020839343,0.08009506,0.8619126,-10.0987425,-0.79966336
6.1780233,4.646384,-0.032721557,0.020839343,0.07263821,0.8619126,-10.093954,-0.770933
6.1782084,4.646296,-0.032721557,0.020839343,0.07263821,0.8619126,-10.093954,-0.770933
6.1783924,4.6462193,-0.029525764,0.021904606,0.0641161,0.8619126,-10.0508585,-0.7469909
6.178576,4.6461425,-0.029525764,0.021904606,0.0641161,0.8619126,-10.0508585,-0.7469909
6.1787567,4.646079,-0.025264706,0.019774077,0.05346345,0.8379706,-10.0269165,-0.7326257
6.178941,4.646015,-0.025264706,0.019774077,0.05346345,0.8379706,-10.0269165,-0.7326257
6.1791105,4.6459627,-0.021003649,0.017643549,0.042810805,0.842759,-9.940725,-0.7134721
6.179283,4.645909,-0.021003649,0.017643549,0.042810805,0.842759,-9.940725,-0.7134721
6.1794405,4.645829,-0.015677327,0.016578285,0.031092897,0.866701,-9.911995,-0.7469909
6.179583,4.645757,-0.015677327,0.016578285,0.031092897,0.866701,-9.911995,-0.7469909
6.179583,4.645757,-0.015677327,0.016578285,0.031092897,0.866701,-9.911995,-0.7469909
6.1798472,4.645645,-0.0071552116,0.014447756,0.019374989,0.91458505,-9.868899,-0.7086837
6.1798873,4.6455293,0.0024321685,0.011251962,0.00765708,1.0007763,-9.816227,-0.7326257
6.1799116,4.6454573,0.0024321685,0.011251962,0.00765708,1.0007763,-9.816227,-0.7326257
6.179829,4.645383,0.0141500775,0.0069909045,-0.0051260935,1.1061212,-9.749189,-0.7613561
6.179829,4.645383,0.0141500775,0.0069909045,-0.0051260935,1.1061212,-9.749189,-0.7613561
6.1796403,4.6452465,0.027998514,0.003795111,-0.017909266,1.1492168,-9.701305,-0.7086837
6.1795273,4.645229,0.027998514,0.003795111,-0.017909266,1.1492168,-9.701305,-0.7086837
6.179373,4.6452303,0.043977484,0.0005993177,-0.029627176,1.2306197,-9.648633,-0.7230489
6.1792164,4.6452312,0.043977484,0.0005993177,-0.029627176,1.2306197,-9.648633,-0.7230489
6.179039,4.6452713,0.061021715,-0.0025964756,-0.04027982,1.2306197,-9.629479,-0.6799533
6.178862,4.6453114,0.061021715,-0.0025964756,-0.04027982,1.2306197,-9.629479,-0.6799533
6.178677,4.645369,0.07806595,-0.005792269,-0.04773667,1.1923125,-9.586384,-0.6703765
6.178492,4.645426,0.07806595,-0.005792269,-0.04773667,1.1923125,-9.586384,-0.6703765
6.1783066,4.6454926,0.09297965,-0.007922798,-0.050932467,1.1587936,-9.591172,-0.6703765
6.178119,4.645559,0.09297965,-0.007922798,-0.050932467,1.1587936,-9.591172,-0.6703765
6.1779313,4.6456804,0.10895862,-0.008988062,-0.050932467,1.091756,-9.629479,-0.6368576
6.1777425,4.6458006,0.10895862,-0.008988062,-0.050932467,1.091756,-9.629479,-0.6368576
6.1777925,4.645994,0.122807056,-0.011118591,-0.04773667,0.9624691,-9.648633,-0.59855044
6.1778436,4.6461854,0.122807056,-0.011118591,-0.04773667,0.9624691,-9.648633,-0.59855044
6.1779313,4.64636,0.13452496,-0.011118591,-0.04027982,0.8810662,-9.639056,-0.59376204
6.1780195,4.6465335,0.13452496,-0.011118591,-0.04027982,0.8810662,-9.639056,-0.59376204
6.1781116,4.6467276,0.14411235,-0.010053327,-0.028561912,0.8858546,-9.653421,-0.5793968
6.178205,4.646921,0.14411235,-0.010053327,-0.028561912,0.8858546,-9.653421,-0.5793968
6.178323,4.6471024,0.15050393,-0.011118591,-0.015778739,0.90979666,-9.682152,-0.60812724
6.178441,4.647281,0.15050393,-0.011118591,-0.015778739,0.90979666,-9.682152,-0.60812724
6.178574,4.6474614,0.15263446,-0.012183856,-0.0019303001,0.9672575,-9.624691,-0.61770403
6.178709,4.6476374,0.15263446,-0.012183856,-0.0019303001,0.9672575,-9.624691,-0.61770403
6.178853,4.647825,0.15263446,-0.01324912,0.012983402,0.91937345,-9.624691,-0.59855044
