Pitch,Roll,Gyro_X,Gyro_Y,Gyro_Z,Accel_X,Accel_Y,Accel_Z
0.5352132,2.3937597,-3.5420406,-0.7541229,-0.45215935,8.653038,-14.54266,2.2023735
0.53605443,2.3902168,-3.5420406,-0.7541229,-0.45215935,8.660158,-14.561724,2.1788597
0.5369066,2.3865976,-3.5963693,-0.7509271,-0.46174672,8.509348,-14.547605,2.3559093
0.5369066,2.3865976,-3.5963693,-0.7509271,-0.46174672,8.509348,-14.547605,2.3559093
0.5369066,2.3865976,-3.656024,-0.7509271,-0.46920356,8.509348,-14.547605,2.3559093
0.5395324,2.3753266,-3.656024,-0.7509271,-0.46920356,8.411821,-14.583515,2.419529
0.5395324,2.3753266,-3.7167442,-0.7541229,-0.47026885,8.411821,-14.583515,2.419529
0.54044163,2.371365,-3.7167442,-0.7541229,-0.47026885,8.323726,-14.532535,2.5414276
0.5413029,2.367608,-3.776399,-0.75944924,-0.47239935,8.330993,-14.5521965,2.5161934
0.54214144,2.3639088,-3.776399,-0.75944924,-0.47239935,8.338064,-14.5236,2.6636982
0.5430107,2.3600695,-3.8360536,-0.7669061,-0.47346464,8.3453865,-14.543502,2.6378117
0.5438872,2.356156,-3.8360536,-0.7669061,-0.47346464,8.381498,-14.496667,2.7694073
0.54477775,2.3521743,-3.893578,-0.7754282,-0.47559515,8.388993,-14.517103,2.7424507
0.5457385,2.3478415,-3.893578,-0.7754282,-0.47559515,8.435387,-14.486561,2.9046116
0.54699636,2.3421588,-3.9468412,-0.78608084,-0.47985622,8.445964,-14.515366,2.8659592
0.5478453,2.3383079,-3.9468412,-0.78608084,-0.47985622,8.457885,-14.477293,2.9163074
0.54912955,2.332475,-3.9958434,-0.79779875,-0.4862478,8.430359,-14.401095,2.8811874
0.54912955,2.332475,-3.9958434,-0.79779875,-0.4862478,8.430359,-14.401095,2.8811874
0.5509112,2.324377,-4.0437803,-0.81271243,-0.49370465,8.421362,-14.326199,2.9069424
0.5518164,2.3202672,-4.0437803,-0.81271243,-0.49370465,8.42895,-14.346309,2.8785896
0.5518164,2.3202672,-4.0437803,-0.81271243,-0.49370465,8.42895,-14.346309,2.8785896
0.5529857,2.3150096,-4.0895867,-0.83188725,-0.5043573,8.290303,-14.27124,2.7655525
0.5546131,2.3077157,-4.134328,-0.8531925,-0.5160752,8.150694,-14.200865,2.6429882
0.5555635,2.3034773,-4.134328,-0.8531925,-0.5160752,8.158647,-14.220974,2.6133919
0.5565469,2.299159,-4.178004,-0.88088936,-0.52672786,7.893921,-14.121538,2.6501293
0.5575173,2.294889,-4.178004,-0.88088936,-0.52672786,7.902029,-14.141449,2.6201153
0.558521,2.2905378,-4.220614,-0.91284734,-0.5363152,7.771545,-14.017875,2.5271568
0.55952734,2.286166,-4.220614,-0.91284734,-0.5363152,7.779938,-14.037897,2.4962234
0.5605583,2.2817228,-4.261094,-0.9469358,-0.539511,7.8986664,-13.689347,2.4646845
0.5615815,2.2773025,-4.261094,-0.9469358,-0.539511,7.907193,-13.709251,2.43324
0.5626242,2.2728302,-4.3058352,-0.9767632,-0.5405763,7.4418197,-13.43231,2.152319
0.56366825,2.2683408,-4.3058352,-0.9767632,-0.5405763,7.4505095,-13.452175,2.1202173
0.56473076,2.2638025,-4.3516417,-1.0129821,-0.54164153,7.440187,-13.4529,2.1163874
0.56579447,2.259247,-4.3516417,-1.0129821,-0.54164153,7.4490285,-13.472695,2.0836391
0.5668769,2.2546313,-4.397448,-1.056658,-0.54164153,7.951221,-13.339327,2.150917
0.56796145,2.249993,-4.397448,-1.056658,-0.54164153,7.9602213,-13.359119,2.1174183
0.5690523,2.2453172,-4.441124,-1.0939423,-0.5341847,8.165591,-13.302285,2.1170912
0.5701519,2.24059,-4.441124,-1.0939423,-0.5341847,8.174704,-13.322111,2.0828075
0.5712495,2.2358377,-4.4794736,-1.1173781,-0.52353203,7.9970446,-13.413711,2.0961723
0.5723491,2.231062,-4.4794736,-1.1173781,-0.52353203,8.006143,-13.433407,2.0614119
0.573442,2.2262623,-4.5124965,-1.1386834,-0.51074886,8.096584,-13.5536175,2.323328
0.57454216,2.221415,-4.5124965,-1.1386834,-0.51074886,8.105674,-13.573284,2.287943
0.57563686,2.2165601,-4.5359325,-1.1621192,-0.49690044,7.784311,-13.487473,2.070485
0.5767361,2.211666,-4.5359325,-1.1621192,-0.49690044,7.7933826,-13.50698,2.034647
0.5778323,2.2067733,-4.546585,-1.1940771,-0.48305202,7.7976303,-13.59333,2.089714
0.578933,2.201841,-4.546585,-1.1940771,-0.48305202,7.8066998,-13.612617,2.0534554
0.5800392,2.1968944,-4.546585,-1.2388183,-0.46920356,8.016923,-13.550341,1.9834929
0.5811443,2.1919332,-4.546585,-1.2388183,-0.46920356,8.026016,-13.569337,1.9468765
0.5822682,2.1868916,-4.536998,-1.2846246,-0.45215935,8.226791,-13.401676,1.8042374
0.5833663,2.1819448,-4.536998,-1.2846246,-0.45215935,8.235813,-13.420217,1.7675877
0.584472,2.1769624,-4.5210185,-1.32617,-0.4329846,8.173064,-13.223205,1.5630026
0.5855793,2.1719496,-4.5210185,-1.32617,-0.4329846,8.182148,-13.241595,1.5257359
0.58668846,2.1669316,-4.502909,-1.3687805,-0.41274455,7.9997053,-13.197539,1.3782196
0.5877922,2.1619134,-4.502909,-1.3687805,-0.41274455,8.008745,-13.215544,1.3407764
0.5889054,2.1568625,-4.480539,-1.4135216,-0.39250454,7.8215313,-13.175981,1.207241
0.5900114,2.151816,-4.480539,-1.4135216,-0.39250454,7.8305807,-13.193676,1.1694679
0.5911215,2.146759,-4.4549723,-1.4635891,-0.37013397,7.7247286,-13.192026,1.1411076
0.59222865,2.1416862,-4.4549723,-1.4635891,-0.37013397,7.7337737,-13.2094,1.1030111
0.5933374,2.136608,-4.4262104,-1.5189828,-0.34456763,7.675783,-13.245724,0.9786062
0.5944407,2.1315236,-4.4262104,-1.5189828,-0.34456763,7.684784,-13.262728,0.9403086
0.5955515,2.126413,-4.3899913,-1.5775723,-0.32006654,7.736929,-13.222126,0.8490629
0.5966542,2.1213064,-4.3899913,-1.5775723,-0.32006654,7.7459097,-13.238785,0.810483
0.5977592,2.1161976,-4.349511,-1.6382924,-0.2945002,7.7501087,-13.1403,0.68561935
0.5988602,2.1110725,-4.349511,-1.6382924,-0.2945002,7.759062,-13.156601,0.64678574
0.599962,2.105946,-4.3100963,-1.701143,-0.26786858,7.72013,-13.105642,0.5360565
0.6010572,2.1008139,-4.3100963,-1.701143,-0.26786858,7.729025,-13.121553,0.49707413
0.6021605,2.095663,-4.2664204,-1.7682546,-0.24336751,7.6948786,-13.15164,0.2759161
0.6032568,2.090506,-4.2664204,-1.7682546,-0.24336751,7.703766,-13.167195,0.23663425
0.6043576,2.0853457,-4.220614,-1.8374969,-0.21993169,7.7892942,-13.129841,0.08712292
0.60545003,2.080184,-4.220614,-1.8374969,-0.21993169,7.7981343,-13.1449795,0.04770565
0.6065459,2.0750074,-4.1737423,-1.9035432,-0.1954306,7.850095,-13.092893,-0.22172451
0.60763085,2.0698395,-4.1737423,-1.9035432,-0.1954306,7.858865,-13.107637,-0.26126766
0.6087198,2.064649,-4.123675,-1.9663938,-0.16986425,7.8006206,-13.093486,-0.38244438
0.6097975,2.0594678,-4.123675,-1.9663938,-0.16986425,7.8093157,-13.107859,-0.42217445
0.6108718,2.0542827,-4.071477,-2.027114,-0.14429791,7.942477,-13.122034,-0.64872265
0.61193615,2.0490956,-4.071477,-2.027114,-0.14429791,7.9510565,-13.136038,-0.68855095
0.6129979,2.0439,-4.0160832,-2.084638,-0.11979683,8.098467,-13.135492,-0.934392
0.6140473,2.038713,-4.0160832,-2.084638,-0.11979683,8.106907,-13.149109,-0.97428703
0.6150874,2.0335298,-3.9574938,-2.1347055,-0.09423048,8.244555,-13.148169,-1.224865
0.6161139,2.0283604,-3.9574938,-2.1347055,-0.09423048,8.252802,-13.161385,-1.2646646
0.61713177,2.0231829,-3.893578,-2.1783814,-0.0697294,8.452514,-13.140929,-1.500864
0.618136,2.0180197,-3.893578,-2.1783814,-0.0697294,8.460567,-13.153784,-1.5406542
0.6191247,2.0128803,-3.8232706,-2.2146006,-0.04629358,8.6839695,-13.185566,-1.8196974
0.62010145,2.0077448,-3.8232706,-2.2146006,-0.04629358,8.691795,-13.198019,-1.8593016
0.62106186,2.0026522,-3.7455063,-2.244428,-0.02711882,8.900597,-13.200615,-2.2289925
0.62200946,1.9975691,-3.7455063,-2.244428,-0.02711882,8.9081745,-13.2126045,-2.2682304
0.6229415,1.9925114,-3.6624155,-2.2678638,-0.0079440605,9.246031,-13.272261,-2.6185207
0.6238608,1.9874628,-3.6624155,-2.2678638,-0.0079440605,9.253372,-13.283852,-2.6575165
0.6247599,1.9824901,-3.5676072,-2.2838426,0.006969642,9.538275,-13.304671,-3.1125364
0.6256485,1.9775108,-3.5676072,-2.2838426,0.006969642,9.54537,-13.3157835,-3.1510134
0.62652045,1.9726223,-3.4653416,-2.2923648,0.015491758,9.815681,-13.383953,-3.629365
0.6273805,1.9677372,-3.4653416,-2.2923648,0.015491758,9.822533,-13.394517,-3.667159
0.628242,1.962869,-3.3524237,-2.2944953,0.019752815,9.953894,-13.471858,-4.2268
0.62908673,1.9580333,-3.3524237,-2.2944953,0.019752815,9.960617,-13.481956,-4.2642584
0.6299132,1.9533659,-3.2256572,-2.289169,0.01868755,9.962402,-13.54892,-4.8990135
0.6307096,1.9488095,-3.2256572,-2.289169,0.01868755,9.968738,-13.558077,-4.9343557
0.6315107,1.9442917,-3.088238,-2.2753205,0.01868755,9.908058,-13.6579,-5.50097
0.6323023,1.939768,-3.088238,-2.2753205,0.01868755,9.914349,-13.666643,-5.536105
0.633079,1.9353985,-2.9380357,-2.2540152,0.01868755,9.853476,-13.765838,-5.9962597
0.6338437,1.9310416,-2.9380357,-2.2540152,0.01868755,9.859536,-13.773924,-6.030154
0.6345912,1.9268444,-2.7750504,-2.220992,0.019752815,9.92292,-13.9586735,-6.354932
0.6353286,1.9226509,-2.7750504,-2.220992,0.019752815,9.928762,-13.966152,-6.3875856
0.6360387,1.9186599,-2.5982163,-2.1741204,0.024013873,9.967907,-14.231661,-6.5479736
0.63673896,1.914677,-2.5982163,-2.1741204,0.024013873,9.973447,-14.238494,-6.5790186
0.637405,1.9108956,-2.4064689,-2.108074,0.034666516,10.127159,-14.603985,-6.709059
0.6380603,1.9071292,-2.4064689,-2.108074,0.034666516,10.132338,-14.610241,-6.7384233
0.6386697,1.9036189,-2.1987422,-2.0239182,0.047449693,10.31911,-14.927219,-6.6460934
0.63927186,1.9001083,-2.1987422,-2.0239182,0.047449693,10.323871,-14.932893,-6.673459
0.6398263,1.896866,-1.9739714,-1.9237833,0.06129813,10.519787,-15.335486,-6.602972
0.6403736,1.8936307,-1.9739714,-1.9237833,0.06129813,10.524099,-15.340575,-6.6282043
0.6408644,1.8907127,-1.7289606,-1.8055389,0.07621183,10.844004,-15.828735,-6.564769
0.6413487,1.887801,-1.7289606,-1.8055389,0.07621183,10.847834,-15.833223,-6.5874596
0.64177835,1.8852179,-1.4658403,-1.6723809,0.09112553,11.00444,-16.378227,-6.4256516
0.64220226,1.88264,-1.4658403,-1.6723809,0.09112553,11.00778,-16.382107,-6.4457483
0.6425621,1.8804425,-1.18248,-1.5264397,0.10923503,11.07766,-16.84986,-6.28092
0.64291894,1.8782436,-1.18248,-1.5264397,0.10923503,11.080469,-16.853115,-6.2980595
0.6432088,1.8764466,-0.8778143,-1.370911,0.13054031,11.039652,-17.396841,-6.1013775
0.6434947,1.8746597,-0.8778143,-1.370911,0.13054031,11.041903,-17.399452,-6.115308
0.64370924,1.8732961,-0.5507781,-1.2079256,0.15610667,10.966974,-17.832403,-5.886509
0.6439215,1.8719376,-0.5507781,-1.2079256,0.15610667,10.968652,-17.834389,-5.897085
0.6440612,1.8710333,-0.20456716,-1.0396138,0.18167302,10.806948,-18.261875,-5.6886444
0.6442002,1.8701288,-0.20456716,-1.0396138,0.18167302,10.808036,-18.263191,-5.695694
0.64426273,1.8697048,0.15975328,-0.8659757,0.20936988,10.68882,-18.637316,-5.4164734
0.6443249,1.8692795,0.15975328,-0.8659757,0.20936988,10.68931,-18.63795,-5.419777
0.6443097,1.8693564,0.5400527,-0.68488073,0.23706676,10.531168,-19.025715,-5.170183
0.6442944,1.8694328,0.5400527,-0.68488073,0.23706676,10.53105,-19.025627,-5.1695766
0.6442025,1.8700281,0.9331353,-0.4995247,0.26263312,10.324426,-19.455723,-4.8872166
0.64411104,1.870623,0.9331353,-0.4995247,0.26263312,10.323705,-19.454857,-4.8825855
0.64394987,1.8717433,1.3347399,-0.31310344,0.28180787,10.020766,-20.013401,-4.567423
0.64378923,1.8728641,1.3347399,-0.31310344,0.28180787,10.019505,-20.01169,-4.5587177
0.6435634,1.8745221,1.7427362,-0.12881267,0.29459104,9.845345,-20.4927,-4.3686924
0.64333785,1.8761799,1.7427362,-0.12881267,0.29459104,9.843569,-20.490055,-4.3558464
0.643056,1.8783643,2.152863,0.046955958,0.30098262,9.640236,-20.869526,-3.936718
0.64277434,1.880546,2.152863,0.046955958,0.30098262,9.63802,-20.86589,-3.9198399
0.6424434,1.8832648,2.5619247,0.21526775,0.29885212,9.506126,-21.21553,-3.7216892
0.6421123,1.8859801,2.5619247,0.21526775,0.29885212,9.503519,-21.210785,-3.7007313
0.64174163,1.8892063,2.9645946,0.3782532,0.29033,9.112734,-21.635895,-3.3119755
0.64136916,1.892438,2.9645946,0.3782532,0.29033,9.109798,-21.629963,-3.2870998
0.6409647,1.8961626,3.3598077,0.5284555,0.27648154,8.675652,-22.360294,-2.8802109
0.64055896,1.8998822,3.3598077,0.5284555,0.27648154,8.672453,-22.353127,-2.8516579
0.6401297,1.9041013,3.7486293,0.6616135,0.254111,8.376974,-22.952818,-2.4602222
0.6396984,1.9083147,3.7486293,0.6616135,0.254111,8.373568,-22.94426,-2.4279919
0.6392559,1.9129866,4.1374507,0.77559686,0.22534886,8.250367,-23.475506,-2.21517
0.63880926,1.917666,4.1374507,0.77559686,0.22534886,8.246838,-23.465488,-2.1794987
0.63834846,1.922817,4.5262723,0.8757317,0.1997825,8.281502,-23.904202,-1.9152851
0.6378849,1.9279505,4.5262723,0.8757317,0.1997825,8.277841,-23.892666,-1.8762894
0.6374093,1.9335519,4.9182897,0.9662792,0.17421617,8.020296,-24.353725,-1.6088009
0.63692856,1.9391564,4.9182897,0.9662792,0.17421617,8.016493,-24.34051,-1.5663948
0.6364428,1.9451743,5.313503,1.046174,0.14758456,7.8689947,-24.69458,-1.4970627
0.63595057,1.9511954,5.313503,1.046174,0.14758456,7.8651,-24.679695,-1.4516983
0.6354479,1.9576888,5.7108464,1.1143509,0.124148734,7.5594487,-24.845133,-1.4891167
0.6349386,1.9641794,5.7108464,1.1143509,0.124148734,7.5554147,-24.828331,-1.4404373
0.63442266,1.9711134,6.10819,1.1665488,0.10177818,7.460351,-24.905643,-1.4939365
0.63442266,1.9711134,6.10819,1.1665488,0.10177818,7.460351,-24.905643,-1.4939365
0.63442266,1.9711134,6.10819,1.1665488,0.10177818,7.460351,-24.905643,-1.4939365
0.63286483,1.9930011,6.503403,1.1985068,0.07834236,7.634743,-24.82542,-1.4126282
0.63230276,2.0007467,6.892225,1.2198122,0.052776013,7.4962068,-24.75511,-1.4606533
0.63230276,2.0007467,6.892225,1.2198122,0.052776013,7.4962068,-24.75511,-1.4606533
0.6317246,2.009142,7.273589,1.2293996,0.03253599,7.491618,-24.730122,-1.3987637
0.6312065,2.0171397,7.273589,1.2293996,0.03253599,7.152315,-24.70565,-1.3831635
0.6306845,2.0250604,7.6400404,1.2230079,0.013361229,6.7561493,-24.538948,-1.5315342
0.6301615,2.0335422,7.6400404,1.2230079,0.013361229,6.7519217,-24.51141,-1.4700775
0.62962997,2.0420032,7.992643,1.1995721,-0.009009325,6.7519217,-24.51141,-1.4700775
0.6291135,2.0509014,7.992643,1.1995721,-0.009009325,6.76218,-24.27097,-1.4345093
0.62808204,2.0689704,8.32394,1.1633531,-0.02924935,7.9462833,-23.370693,-1.232933
0.62808204,2.0689704,8.32394,1.1633531,-0.02924935,7.9462833,-23.370693,-1.232933
0.62710536,2.0870879,8.62541,1.1335257,-0.043097787,5.8603363,-22.697403,-1.5589561
0.62710536,2.0870879,8.62541,1.1335257,-0.043097787,5.8603363,-22.697403,-1.5589561
0.6261254,2.106225,8.8832035,1.102633,-0.06333781,4.5740213,-22.94655,-1.6300955
0.6256647,2.1155229,8.8832035,1.102633,-0.06333781,4.570345,-22.910702,-1.5651407
0.6252462,2.1253672,9.118628,1.0046287,-0.09316522,6.20464,-22.809486,-1.1377888
0.6248189,2.135198,9.118628,1.0046287,-0.09316522,6.2012324,-22.769936,-1.0699959
0.62445617,2.1451988,9.332746,0.8906454,-0.11340524,7.0889792,-22.436563,-1.0686779
0.62408465,2.1552062,9.332746,0.8906454,-0.11340524,7.0860157,-22.394608,-1.0006428
0.6237575,2.1653428,9.523428,0.8150116,-0.12299262,6.4896398,-22.159632,-1.1525822
0.6234226,2.1754665,9.523428,0.8150116,-0.12299262,6.4869633,-22.115583,-1.084734
0.62312245,2.1858497,9.69174,0.75429153,-0.13471054,5.9386897,-21.753447,-1.058836
0.62282133,2.196015,9.69174,0.75429153,-0.13471054,5.9362803,-21.707644,-0.9917259
0.62256193,2.2063785,9.83555,0.68078834,-0.1474937,6.164054,-20.989641,-0.9909649
0.6222954,2.2167506,9.83555,0.68078834,-0.1474937,6.1619205,-20.941296,-0.92358017
0.62207097,2.227204,9.95486,0.6072851,-0.15388529,6.069148,-20.044107,-0.97602844
0.62184036,2.2376454,9.95486,0.6072851,-0.15388529,6.067302,-19.993847,-0.9093342
0.62165004,2.2481616,10.042212,0.5380429,-0.15708108,5.5103264,-19.051685,-1.149291
0.62145424,2.2586553,10.042212,0.5380429,-0.15708108,5.5087566,-18.9996,-1.0834513
0.6213045,2.2691894,10.095475,0.46453962,-0.16347267,5.186735,-18.003094,-1.1760893
0.6211497,2.279701,10.095475,0.46453962,-0.16347267,5.1855006,-17.949352,-1.1113768
0.6210529,2.290207,10.1135845,0.38038373,-0.17519058,5.0410705,-16.86041,-1.2821226
0.6209512,2.3007226,10.1135845,0.38038373,-0.17519058,5.0402555,-16.805061,-1.218729
0.6209115,2.3111677,10.092279,0.28983626,-0.18690848,5.2362647,-15.710079,-1.1374159
0.62086785,2.3215816,10.092279,0.28983626,-0.18690848,5.235915,-15.653719,-1.0760126
0.6208917,2.3319693,10.036885,0.20035404,-0.20075692,4.92965,-14.643696,-1.1065941
0.62091213,2.342316,10.036885,0.20035404,-0.20075692,4.9298086,-14.5861845,-1.0470209
0.62099874,2.352553,9.943142,0.11619815,-0.2167359,4.619258,-13.417499,-1.1038494
0.62108386,2.3629549,9.943142,0.11619815,-0.2167359,4.61994,-13.358203,-1.0454254
0.6212383,2.3732488,9.81318,0.02565067,-0.23271486,4.6977873,-12.068031,-1.1752615
0.62137717,2.3826663,9.81318,0.02565067,-0.23271486,4.698901,-12.013052,-1.1237249
0.6215935,2.3924584,9.644868,-0.0680926,-0.2561507,5.2369313,-10.738847,-1.1954985
0.6218184,2.4027467,9.644868,-0.0680926,-0.2561507,5.238731,-10.677424,-1.1407156
0.6221076,2.4124177,9.433946,-0.16183588,-0.28810862,5.7725563,-9.426577,-1.2577343
0.6223933,2.4220326,9.433946,-0.16183588,-0.28810862,5.774838,-9.367914,-1.2080183
0.6227492,2.4314108,9.179347,-0.2513181,-0.32645813,6.4959536,-8.12244,-1.2849092
0.6231059,2.4408479,9.179347,-0.2513181,-0.32645813,6.4988003,-8.063693,-1.2375698
0.62353116,2.449926,8.882138,-0.3312129,-0.37119925,6.870899,-6.914722,-1.2934923
0.6239547,2.459006,8.882138,-0.3312129,-0.37119925,6.8742847,-6.857111,-1.2493687
0.6244414,2.4677255,8.540189,-0.39725932,-0.42339718,7.1463203,-5.5896773,-1.2030792
0.624928,2.4764738,8.540189,-0.39725932,-0.42339718,7.1502047,-5.533185,-1.1619415
0.62547874,2.4847665,8.152432,-0.45904467,-0.48411727,7.441909,-4.3489447,-1.1669197
0.6260352,2.4931707,8.152432,-0.45904467,-0.48411727,7.4463453,-4.293745,-1.1287642
0.62665933,2.5010934,7.716739,-0.5176342,-0.5480331,8.20789,-3.0200465,-0.83991146
0.627277,2.5089567,7.716739,-0.5176342,-0.5480331,8.212807,-2.9675412,-0.8055353
0.6279533,2.516338,7.236305,-0.56131005,-0.6066227,7.5957007,-1.3997774,-1.3247752
0.6286267,2.5237076,7.236305,-0.56131005,-0.6066227,7.601063,-1.3498144,-1.293778
0.62934965,2.5305636,6.700477,-0.59113747,-0.65562487,7.2237473,-0.8958132,-1.3040524
0.6300741,2.5374506,6.700477,-0.59113747,-0.65562487,7.229499,-0.8484485,-1.2762375
0.6308585,2.5437758,6.1231036,-0.63268274,-0.70249647,7.6475406,-0.65596914,-1.3569045
0.6316405,2.550098,6.1231036,-0.63268274,-0.70249647,7.653755,-0.61182404,-1.3325281
0.63249713,2.5558069,5.5169683,-0.68914175,-0.74510705,9.513668,-0.4564438,-1.4599466
0.6333531,2.5615249,5.5169683,-0.68914175,-0.74510705,9.520456,-0.41582608,-1.4391336
0.6342589,2.5666208,4.8852663,-0.726426,-0.78558713,9.561159,-0.029540062,-2.2020092
0.63516325,2.57172,4.8852663,-0.726426,-0.78558713,9.568326,0.0072808266,-2.1845555
0.6360998,2.576184,4.2290635,-0.7402745,-0.82393664,9.934867,0.7008276,-2.8118143
0.6370341,2.580647,4.2290635,-0.7402745,-0.82393664,9.942259,0.7336049,-2.797585
0.63801134,2.5844564,3.5483596,-0.7605145,-0.86867774,10.443197,1.0973654,-2.9971461
0.6389867,2.5882654,3.5483596,-0.7605145,-0.86867774,10.450901,1.1259551,-2.9861422
0.63999933,2.591426,2.8399587,-0.77116716,-0.905962,10.085398,1.3993201,-3.3851423
0.64098567,2.5945106,2.8399587,-0.77116716,-0.905962,10.093186,1.4231105,-3.3773966
0.6420047,2.5969253,2.1102524,-0.778624,-0.93898517,9.622372,1.6292448,-3.722199
0.64302474,2.5993466,2.1102524,-0.778624,-0.93898517,9.630409,1.6486828,-3.717482
0.64407754,2.6010354,1.3656327,-0.8009946,-0.9688126,9.767987,1.6680648,-3.9505887
0.6451297,2.602726,1.3656327,-0.8009946,-0.9688126,9.776265,1.6826689,-3.949091
0.64622325,2.6036744,0.6135559,-0.83188725,-0.9965095,10.129626,1.4960623,-3.9364638
0.64731413,2.6046221,0.6135559,-0.83188725,-0.9965095,10.138187,1.5057693,-3.9382105
0.6484454,2.6048281,-0.13852076,-0.8617146,-1.01888,10.194955,1.1227322,-3.7851357
0.6495768,2.6050353,-0.13852076,-0.8617146,-1.01888,10.203819,1.1275692,-3.79009
0.6507404,2.6045063,-0.8831406,-0.8894115,-1.0380548,9.9735155,0.60082674,-3.5539556
0.6518751,2.6039906,-0.8831406,-0.8894115,-1.0380548,9.982395,0.6008258,-3.5618358
0.6530725,2.6027339,-1.6149774,-0.9181736,-1.055099,9.632624,0.20819473,-3.1660047
0.6543024,2.6014426,-1.6149774,-0.9181736,-1.055099,9.642235,0.20332265,-3.1774983
0.6555374,2.599475,-2.3255086,-0.9522621,-1.0689474,9.369352,-0.29923177,-2.6746063
0.656766,2.5975184,-2.3255086,-0.9522621,-1.0689474,9.378929,-0.30848074,-2.688807
0.6580395,2.5948539,-3.0094085,-0.9906116,-1.0732086,9.197315,-0.7675731,-2.1985464
0.6593194,2.5921772,-3.0094085,-0.9906116,-1.0732086,9.207275,-0.78133464,-2.215979
0.6606265,2.5888488,-3.6634808,-1.0278959,-1.0721432,8.987596,-1.3642795,-1.6759996
0.6619388,2.5855083,-3.6634808,-1.0278959,-1.0721432,8.997786,-1.3821611,-1.6963968
0.66327447,2.5815513,-4.2855954,-1.0630496,-1.0657517,8.730417,-2.0407767,-1.0635042
0.6646129,2.5775871,-4.2855954,-1.0630496,-1.0657517,8.74079,-2.0624473,-1.0867414
0.66599584,2.572959,-4.8704257,-1.097138,-1.0519032,8.775442,-2.7441885,-0.26071358
0.667364,2.5683815,-4.8704257,-1.097138,-1.0519032,8.786022,-2.7694728,-0.28684998
0.6687434,2.563267,-5.41371,-1.1248349,-1.0274022,8.638657,-3.6024847,0.44115162
0.67012966,2.558127,-5.41371,-1.1248349,-1.0274022,8.649353,-3.6309938,0.4123106
0.67153054,2.552472,-5.910124,-1.1472055,-0.99864,8.439888,-4.486167,1.1280508
0.672933,2.5468116,-5.910124,-1.1472055,-0.99864,8.450682,-4.517537,1.0966015
0.67435324,2.540665,-6.357535,-1.1663803,-0.96455157,8.418509,-5.461497,1.8480835
0.6757734,2.5345182,-6.357535,-1.1663803,-0.96455157,8.42942,-5.4954023,1.8140812
0.67720425,2.5279586,-6.7538133,-1.1866202,-0.9208757,8.426029,-6.522794,2.553728
0.67863864,2.5213785,-6.7538133,-1.1866202,-0.9208757,8.437026,-6.558808,2.517334
0.6800842,2.5143874,-7.0989585,-1.205795,-0.8729388,8.419363,-7.49246,2.986393
0.68153197,2.5073812,-7.0989585,-1.205795,-0.8729388,8.430431,-7.5304375,2.9475594
0.6829781,2.5000336,-7.394037,-1.2260351,-0.81967556,8.355284,-8.422511,3.4192924
0.6844255,2.4926693,-7.394037,-1.2260351,-0.81967556,8.366329,-8.461983,3.3783264
0.68586546,2.4849937,-7.6433086,-1.2484056,-0.76108605,8.2719555,-9.345758,3.5320034
0.6873047,2.4773083,-7.6433086,-1.2484056,-0.76108605,8.282905,-9.38644,3.489028
0.6887303,2.4693515,-7.8499703,-1.2761025,-0.70036596,8.384723,-10.184959,3.30091
0.6901547,2.461385,-7.8499703,-1.2761025,-0.70036596,8.395536,-10.226557,3.2561016
0.69156194,2.4531753,-8.020412,-1.3101909,-0.63431954,8.755764,-10.963539,3.0040064
0.6929671,2.4449553,-8.020412,-1.3101909,-0.63431954,8.766405,-11.005825,2.9574547
0.69435227,2.4365218,-8.162092,-1.3432142,-0.5672079,8.958849,-11.652314,2.7229042
0.6957342,2.4280772,-8.162092,-1.3432142,-0.5672079,8.969294,-11.695068,2.6747332
0.6970934,2.419446,-8.278207,-1.3751721,-0.49796572,8.912516,-12.34184,2.385994
0.6984472,2.4108124,-8.278207,-1.3751721,-0.49796572,8.922718,-12.384817,2.3363476
0.69977343,2.4020116,-8.36982,-1.4049995,-0.4287235,8.84652,-12.825787,1.7780981
0.7010949,2.3931994,-8.36982,-1.4049995,-0.4287235,8.856461,-12.868891,1.7270317
0.702385,2.384239,-8.439061,-1.4348269,-0.35841608,9.009808,-13.309862,1.291935
0.70367426,2.3752308,-8.439061,-1.4348269,-0.35841608,9.019484,-13.353128,1.2393227
0.70491284,2.3661942,-8.49126,-1.4582627,-0.2913044,9.493248,-13.913387,0.82253075
0.7061207,2.3573186,-8.49126,-1.4582627,-0.2913044,9.502298,-13.95524,0.7703037
0.7073115,2.3481374,-8.524282,-1.4678501,-0.22738853,9.851184,-14.529766,0.22776985
0.7085228,2.3387241,-8.524282,-1.4678501,-0.22738853,9.860239,-14.573336,0.17197037
0.7096482,2.329477,-8.53387,-1.4571974,-0.168799,10.457619,-15.405954,0.17455101
0.7107598,2.3202653,-8.53387,-1.4571974,-0.168799,10.46591,-15.447805,0.11956978
0.7118105,2.311014,-8.518956,-1.4252396,-0.1176663,9.6932335,-15.705069,-1.099287
0.7128631,2.3016596,-8.518956,-1.4252396,-0.1176663,9.701073,-15.746794,-1.1554813
0.71383846,2.2924607,-8.481672,-1.3890206,-0.07825151,10.187172,-16.587215,-1.5460148
0.7148082,2.2832243,-8.481672,-1.3890206,-0.07825151,10.194382,-16.627628,-1.6018791
0.71571666,2.274048,-8.419887,-1.3389531,-0.04842411,10.143665,-17.414486,-2.0357666
0.71661633,2.264863,-8.419887,-1.3389531,-0.04842411,10.150345,-17.453888,-2.0917091
0.71745646,2.255788,-8.325078,-1.2878205,-0.02711882,10.506133,-17.894741,-2.7935276
0.71828824,2.2467048,-8.325078,-1.2878205,-0.02711882,10.512292,-17.932909,-2.849247
0.71906686,2.2377667,-8.200442,-1.2334919,-0.013270383,10.934649,-18.870363,-3.3303814
0.71983725,2.2288213,-8.200442,-1.2334919,-0.013270383,10.940354,-18.907148,-3.3856564
0.72054845,2.2200668,-8.043848,-1.1663803,-0.0036830027,11.553739,-19.278048,-3.9665928
0.7212521,2.2113056,-8.043848,-1.1663803,-0.0036830027,11.558942,-19.313326,-4.0210915
0.7218896,2.2027826,-7.861688,-1.0737022,0.0016433196,11.669001,-20.089607,-4.4524784
0.7218896,2.2027826,-7.861688,-1.0737022,0.0016433196,11.67404,-20.126078,-4.510357
0.7231001,2.1856992,-7.6539617,-0.9565232,0.0037738485,11.472034,-20.59737,-4.995199
0.7236351,2.1776586,-7.6539617,-0.9565232,0.0037738485,11.47598,-20.628532,-5.04578
0.724099,2.1698198,-7.422799,-0.8265609,0.0059043774,11.268709,-21.171173,-5.4063454
0.7245632,2.1618822,-7.422799,-0.8265609,0.0059043774,11.272133,-21.201458,-5.456484
0.7249513,2.1542935,-7.1703315,-0.6934028,0.0037738485,11.198372,-21.527208,-5.734268
0.7253338,2.1467242,-7.1703315,-0.6934028,0.0037738485,11.201195,-21.555656,-5.7822685
0.7256399,2.1395113,-6.898689,-0.55491847,0.0016433196,11.4332905,-21.903557,-5.8998146
0.7259428,2.1323037,-6.898689,-0.55491847,0.0016433196,11.435514,-21.93029,-5.9456806
0.726167,2.1254787,-6.612133,-0.40578145,-0.0015524738,11.5472975,-22.161545,-5.931593
0.726167,2.1254787,-6.612133,-0.40578145,-0.0015524738,11.5472975,-22.161545,-5.931593
0.726167,2.1254787,-6.313859,-0.24066544,-0.006878796,11.5472975,-22.161545,-5.931593
0.726595,2.1059074,-6.313859,-0.24066544,-0.006878796,11.607912,-22.521082,-5.7401257
0.7266488,2.1000535,-6.005997,-0.061701015,-0.013270383,11.416766,-22.920906,-5.279413
0.7266488,2.1000535,-6.005997,-0.061701015,-0.013270383,11.417198,-22.944023,-5.3199825
0.7267073,2.0937047,-6.005997,-0.061701015,-0.013270383,11.417198,-22.944023,-5.3199825
0.7267073,2.0937047,-6.005997,-0.061701015,-0.013270383,11.417198,-22.944023,-5.3199825
0.7267073,2.0937047,-6.005997,-0.061701015,-0.013270383,11.417198,-22.944023,-5.3199825
0.72622544,2.0746958,-5.3465986,0.32179418,-0.015400912,10.910875,-23.628357,-3.711609
0.7260888,2.0691214,-5.3465986,0.32179418,-0.015400912,10.909865,-23.648842,-3.7471638
0.7260888,2.0691214,-4.985474,0.5188681,-0.004748267,10.909865,-23.648842,-3.7471638
0.7258479,2.064237,-4.6009135,0.7148768,0.009100171,10.754864,-24.050396,-2.6431713
0.72521585,2.056407,-4.6009135,0.7148768,0.009100171,10.577831,-24.454641,-1.3034649
0.7247971,2.0530505,-4.187591,0.91301596,0.03040546,10.795013,-24.92825,0.1315918
0.7247971,2.0530505,-4.187591,0.91301596,0.03040546,10.795013,-24.92825,0.1315918
0.72384477,2.0467424,-3.7433758,1.1143509,0.0591676,10.797571,-25.290377,1.4339561
0.7233212,2.0439692,-3.7433758,1.1143509,0.0591676,10.793712,-25.302757,1.417326
0.7226662,2.04175,-3.2629414,1.3178165,0.093256064,10.640438,-25.601303,2.520382
0.72201186,2.0395246,-3.2629414,1.3178165,0.093256064,10.635606,-25.612537,2.5076523
0.7212387,2.0379586,-2.746288,1.5191514,0.13160558,10.107958,-25.895178,3.4955845
0.7204676,2.0363922,-2.746288,1.5191514,0.13160558,10.102259,-25.90486,3.4874954
0.7195778,2.0355024,-2.1891549,1.7034422,0.17208563,9.798797,-26.200277,4.33654
0.7186912,2.0346127,-2.1891549,1.7034422,0.17208563,9.792231,-26.208363,4.3332176
0.71769273,2.034421,-1.5958025,1.8653624,0.21469621,9.454436,-26.186052,4.7993183
0.71668965,2.0342257,-1.5958025,1.8653624,0.21469621,9.446997,-26.192503,4.8009224
0.7155988,2.034742,-0.9683618,2.003847,0.25837207,9.323976,-25.928942,5.123541
0.71449965,2.0352588,-0.9683618,2.003847,0.25837207,9.315813,-25.933563,5.130146
0.7133063,2.036493,-0.31855047,2.122091,0.30417842,9.124975,-26.027298,5.395588
0.71211344,2.0377202,-0.31855047,2.122091,0.30417842,9.116095,-26.030045,5.407196
0.71082944,2.0396714,0.35150087,2.2211607,0.35211533,8.416994,-25.906353,5.5771294
0.70954174,2.0416164,0.35150087,2.2211607,0.35211533,8.40739,-25.907146,5.5938034
0.7081716,2.0442731,1.0364659,2.294664,0.40537855,7.8991604,-25.743132,5.462244
0.70679533,2.0469253,1.0364659,2.294664,0.40537855,7.8888683,-25.741894,5.483906
0.7053395,2.0502787,1.7288878,2.3372746,0.46290284,7.7869873,-25.365108,5.3237286
0.70388216,2.0536137,1.7288878,2.3372746,0.46290284,7.776062,-25.36177,5.3501873
0.7023557,2.0576248,2.422375,2.3521883,0.52362293,7.6401043,-25.011566,5.060528
0.70082176,2.061626,2.422375,2.3521883,0.52362293,7.6285763,-25.006046,5.091654
0.69922507,2.0662732,3.1062748,2.3489923,0.58860403,7.204756,-24.668003,4.883051
0.6976201,2.07091,3.1062748,2.3489923,0.58860403,7.1926622,-24.66024,4.9185944
0.69596004,2.0761595,3.7741957,2.3244913,0.65465045,7.0939445,-24.29121,4.704582
0.69429106,2.081397,3.7741957,2.3244913,0.65465045,7.0813313,-24.28115,4.744276
0.6925775,2.0872195,4.4229417,2.278685,0.71963155,6.7714825,-23.833149,4.3665676
0.6908574,2.093017,4.4229417,2.278685,0.71963155,6.7584486,-23.820715,4.4100685
0.689126,2.0988078,4.4229417,2.278685,0.71963155,6.745308,-23.808067,4.453537
0.68735915,2.1051397,5.0471864,2.2158344,0.78567797,6.8611665,-23.434082,4.1127586
0.68558425,2.1114516,5.0471864,2.2158344,0.78567797,6.8476577,-23.418993,4.159691
0.68378514,2.1182747,5.6405387,2.1327438,0.84852856,6.742964,-23.152653,3.6114292
0.68197817,2.1250772,5.6405387,2.1327438,0.84852856,6.7291713,-23.135036,3.6615467
0.68016195,2.1323354,6.2019334,2.0336742,0.9103139,6.4854426,-22.71777,3.202219
0.6783364,2.1395793,6.2019334,2.0336742,0.9103139,6.4714684,-22.6976,3.2551022
0.67651707,2.1472347,6.7281737,1.9154298,0.9689034,6.165425,-22.30652,2.5587292
0.674689,2.1548753,6.7281737,1.9154298,0.9689034,6.1513877,-22.283764,2.613968
0.6728872,2.162869,7.2181954,1.7726843,1.0253625,5.816712,-21.856644,1.9003143
0.6710743,2.1708648,7.2181954,1.7726843,1.0253625,5.8027496,-21.831264,1.9575043
0.6693062,2.1791651,7.6698675,1.6065031,1.0807562,5.1666203,-21.03286,1.0011721
0.6675317,2.1874516,7.6698675,1.6065031,1.0807562,5.152919,-21.004923,1.0597544
0.665812,2.1959956,8.077864,1.4179513,1.1350847,5.987168,-19.337362,0.3103428
0.6640876,2.2045264,8.077864,1.4179513,1.1350847,5.9738145,-19.306934,0.36990356
0.6624211,2.2132583,8.415553,1.2368563,1.1851522,6.4253664,-17.646656,-0.6470938
0.66075164,2.221978,8.415553,1.2368563,1.1851522,6.412404,-17.613914,-0.58698845
0.6591944,2.230815,8.682934,1.0323256,1.2213712,2.6605554,-18.230701,-1.0822592
0.6576362,2.2396414,8.682934,1.0323256,1.2213712,2.648429,-18.19573,-1.0223932
0.65620387,2.2485251,8.905575,0.7915758,1.2426764,3.8774629,-18.10662,-1.1305037
0.654771,2.2574086,8.905575,0.7915758,1.2426764,3.866286,-18.069601,-1.0712976
0.6535095,2.2662952,9.1015835,0.49969336,1.2586554,4.4837193,-17.628971,-1.6211348
0.6522515,2.2751741,9.1015835,0.49969336,1.2586554,4.4738846,-17.590015,-1.5632105
0.6511632,2.284049,9.27309,0.21739827,1.2703733,5.8157024,-16.769241,-1.4631777
0.6500814,2.2929087,9.27309,0.21739827,1.2703733,5.807229,-16.728477,-1.406682
0.64915836,2.3017745,9.411575,-0.018025171,1.2799606,4.8614707,-16.437439,-1.4229298
0.6482425,2.3106353,9.411575,-0.018025171,1.2799606,4.854289,-16.394865,-1.3677568
0.6474843,2.3194828,9.519167,-0.23427385,1.2778301,4.4221706,-15.728657,-1.2226648
0.64673483,2.3283262,9.519167,-0.23427385,1.2778301,4.4162865,-15.684419,-1.168972
0.6461571,2.337127,9.594801,-0.46117517,1.265047,4.76609,-15.026263,-1.0495596
0.64558935,2.3459249,9.594801,-0.46117517,1.265047,4.7616305,-14.980512,-0.9976187
0.645195,2.3546498,9.634215,-0.68275017,1.249068,5.2708926,-14.459911,-0.7891731
0.6448123,2.3633733,9.634215,-0.68275017,1.249068,5.2678776,-14.412867,-0.7392082
0.6446031,2.3720093,9.641672,-0.8840852,1.2235017,5.285391,-14.097008,-0.36523533
0.6444064,2.3806443,9.641672,-0.8840852,1.2235017,5.283844,-14.048824,-0.3173418
0.644376,2.3891833,9.620367,-1.0641148,1.1872827,5.6044273,-13.559572,0.09760857
0.64435875,2.3977222,9.620367,-1.0641148,1.1872827,5.60429,-13.510406,0.1433773
0.64449704,2.4061632,9.57456,-1.2207087,1.1425415,5.8256464,-12.704237,0.36470413
0.644649,2.414605,9.57456,-1.2207087,1.1425415,5.8268414,-12.654212,0.4083748
0.6449445,2.4229457,9.493601,-1.3496058,1.0903436,5.2880735,-11.320571,0.18230152
0.64525366,2.4312878,9.493601,-1.3496058,1.0903436,5.2905045,-11.269825,0.22389507
0.645695,2.4394965,9.365768,-1.4561322,1.0296235,4.9875126,-10.021935,0.37870026
0.64614975,2.4477067,9.365768,-1.4561322,1.0296235,4.9910913,-9.970778,0.41810322
0.64674586,2.455745,9.180412,-1.5488102,0.9593161,3.4634817,-8.909475,-0.013706207
0.6473545,2.4637773,9.180412,-1.5488102,0.9593161,3.4682636,-8.85824,0.023237228
0.64809144,2.4715862,8.936467,-1.6617283,0.88155174,4.0821695,-7.4620867,-0.20530796
0.6488403,2.4793897,8.936467,-1.6617283,0.88155174,4.088045,-7.4112196,-0.1709876
0.6488403,2.4793897,8.936467,-1.6617283,0.88155174,4.088045,-7.4112196,-0.1709876
0.6506069,2.4945123,8.62328,-1.7746463,0.79633063,5.0691433,-6.2765307,-0.614758
0.6506069,2.4945123,8.223805,-1.8673242,0.7025873,5.0691433,-6.2765307,-0.614758
0.65258205,2.508538,8.223805,-1.8673242,0.7025873,6.1188936,-5.295622,-1.1524329
0.65369296,2.5151207,7.731653,-1.9408275,0.60245246,6.82668,-4.4839907,-1.8122468
0.65481603,2.5217192,7.731653,-1.9408275,0.60245246,6.835452,-4.4382305,-1.7876377
0.65606177,2.5277631,7.151084,-2.0132656,0.49273023,8.138034,-3.974069,-2.2165709
0.6573188,2.5338216,7.151084,-2.0132656,0.49273023,8.147835,-3.9310603,-2.1956758
0.65869546,2.5392382,6.489555,-2.076116,0.38407326,9.925468,-3.7958956,-2.5184813
0.66008115,2.5446622,6.489555,-2.076116,0.38407326,9.936241,-3.7563548,-2.5015726
0.6615598,2.5494025,5.7598486,-2.1070087,0.27648154,10.914996,-3.677754,-2.9719706
0.6630449,2.5541446,5.7598486,-2.1070087,0.27648154,10.9265175,-3.6421745,-2.958969
0.6645933,2.5581822,4.9779444,-2.099552,0.16569404,11.417358,-3.826383,-3.3325748
0.6661482,2.5622256,4.9779444,-2.099552,0.16569404,11.429394,-3.7950394,-3.3232775
0.66773856,2.5655448,4.1640825,-2.0622678,0.051710747,11.523087,-4.1992116,-3.4562435
0.66933554,2.5688713,4.1640825,-2.0622678,0.051710747,11.535426,-4.172355,-3.4504585
0.67095023,2.5714822,3.3395677,-2.0026128,-0.056946225,11.409017,-4.801305,-3.6011
0.67256093,2.5740833,3.3395677,-2.0026128,-0.056946225,11.421421,-4.7791114,-3.5986195
0.6741661,2.5759864,2.5267708,-1.9216528,-0.15495056,11.218285,-5.446215,-3.7714577
0.6757727,2.5778897,2.5267708,-1.9216528,-0.15495056,11.230629,-5.4285774,-3.7719784
0.6773504,2.579107,1.7427362,-1.8247137,-0.2465633,12.138166,-5.71716,-3.8614006
0.6789292,2.5803242,1.7427362,-1.8247137,-0.2465633,12.150261,-5.7040744,-3.8646822
0.68045026,2.580916,0.9949206,-1.701143,-0.32645813,11.0126915,-6.346457,-4.143174
0.68197155,2.5815072,0.9949206,-1.701143,-0.32645813,11.024319,-6.33762,-4.148757
0.6834248,2.581507,0.28332394,-1.5637239,-0.39783084,10.202227,-7.328815,-3.7350235
0.68487793,2.5815058,0.28332394,-1.5637239,-0.39783084,10.213305,-7.324022,-3.7426882
0.6862811,2.5809374,-0.37607473,-1.4550669,-0.46281198,10.257513,-8.084398,-3.297491
0.6876842,2.580368,-0.37607473,-1.4550669,-0.46281198,10.268188,-8.08341,-3.3072119
0.68904394,2.5792768,-0.97155756,-1.3677152,-0.5214015,10.580193,-8.066747,-3.1368637
0.69040346,2.5781837,-0.97155756,-1.3677152,-0.5214015,10.590509,-8.069221,-3.14849
0.6917151,2.5766168,-1.5116466,-1.2856898,-0.57146895,10.614827,-7.495465,-3.0660238
0.69302666,2.5750482,-1.5116466,-1.2856898,-0.57146895,10.624756,-7.5010786,-3.0793505
0.6942853,2.5730402,-2.0112557,-1.1983382,-0.6204711,11.232832,-6.8727736,-2.7685804
0.6955438,2.5710301,-2.0112557,-1.1983382,-0.6204711,11.242342,-6.881292,-2.783453
0.6967396,2.568623,-2.483168,-1.097138,-0.6673428,11.241798,-6.5812473,-2.330367
0.69793576,2.5662138,-2.483168,-1.097138,-0.6673428,11.250816,-6.5924006,-2.3465862
0.6990615,2.563428,-2.9359052,-0.9788937,-0.7110186,10.98636,-6.67794,-2.0192385
0.7001855,2.560645,-2.9359052,-0.9788937,-0.7110186,10.994822,-6.6915684,-2.0366716
0.70123357,2.5575135,-3.3705332,-0.85851884,-0.7504334,10.7010355,-6.966154,-2.0072975
0.7022824,2.5543795,-3.3705332,-0.85851884,-0.7504334,10.708917,-6.9820976,-2.0258722
0.70326596,2.5509148,-3.7838557,-0.7487966,-0.79091346,10.414631,-7.2636175,-2.074256
0.7042515,2.5474439,-3.7838557,-0.7487966,-0.79091346,10.422023,-7.2817135,-2.0939999
0.70517755,2.5436559,-4.1769385,-0.649727,-0.8281977,10.543893,-7.555687,-2.4212837
0.70610404,2.5398688,-4.1769385,-0.649727,-0.8281977,10.550836,-7.5757627,-2.442172
0.7069809,2.5357635,-4.5529766,-0.56131005,-0.8612209,10.911739,-7.909121,-2.6270342
0.7078675,2.531619,-4.5529766,-0.56131005,-0.8612209,10.91837,-7.931326,-2.6493912
0.70871246,2.5271363,-4.917297,-0.47715417,-0.8910483,11.05876,-8.309975,-2.7640476
0.70953137,2.5228014,-4.917297,-0.47715417,-0.8910483,11.064877,-8.333352,-2.7870483
0.71031123,2.5181353,-5.2720304,-0.39299825,-0.91661465,10.860008,-8.789718,-2.806591
0.7111009,2.5134242,-5.2720304,-0.39299825,-0.91661465,10.865894,-8.815224,-2.8312807
0.711847,2.5084293,-5.612915,-0.3141687,-0.9357894,10.292056,-9.287783,-2.7134533
0.71259713,2.5034266,-5.612915,-0.3141687,-0.9357894,10.297642,-9.314899,-2.739459
0.71330804,2.4981487,-5.9346247,-0.24599177,-0.94324625,9.824097,-9.975726,-2.4505758
0.71402115,2.492879,-5.9346247,-0.24599177,-0.94324625,9.829402,-10.004261,-2.4778452
0.7147028,2.4873168,-6.2328987,-0.18953276,-0.94111574,9.77701,-10.838928,-1.9796848
0.7153877,2.481758,-6.2328987,-0.18953276,-0.94111574,9.782091,-10.86893,-2.0084133
0.71604127,2.4759433,-6.50028,-0.14266111,-0.92833257,9.446966,-11.618631,-1.4876442
0.7166985,2.4701257,-6.50028,-0.14266111,-0.92833257,9.451851,-11.649877,-1.5177326
0.7173199,2.464078,-6.7325077,-0.1011158,-0.905962,9.274494,-12.132513,-1.1035671
0.7179453,2.4580274,-6.7325077,-0.1011158,-0.905962,9.279138,-12.164829,-1.1349277
0.7179453,2.4580274,-6.7325077,-0.1011158,-0.905962,9.279138,-12.164829,-1.1349277
0.7179453,2.4580274,-6.934908,-0.06276628,-0.8771998,9.279138,-12.164829,-1.1349277
0.71923035,2.4443247,-7.111742,-0.025482023,-0.8452419,9.968605,-11.869069,-1.2347164
0.72022885,2.4323752,-7.111742,-0.025482023,-0.8452419,9.975992,-11.932324,-1.2968378
0.72022885,2.4323752,-7.111742,-0.025482023,-0.8452419,9.975992,-11.932324,-1.2968378
0.7207607,2.4251096,-7.2789884,0.026715934,-0.8068924,9.988207,-12.449556,-1.1765156
0.72164226,2.4122162,-7.438778,0.10234971,-0.77280396,9.12932,-13.393488,-0.79857635
0.7220744,2.4054258,-7.438778,0.10234971,-0.77280396,9.132509,-13.428888,-0.8342171
0.722456,2.3985548,-7.5815234,0.16413505,-0.7483029,8.397911,-14.379273,-0.40576553
0.722456,2.3985548,-7.5815234,0.16413505,-0.7483029,8.397911,-14.379273,-0.40576553
0.7228457,2.3916268,-7.5815234,0.16413505,-0.7483029,8.400791,-14.415088,-0.44234562
0.72339046,2.3809824,-7.699768,0.19822352,-0.72699755,8.060045,-14.958246,-0.30243587
0.7239123,2.370503,-7.786054,0.20674562,-0.70462704,8.126139,-15.160031,-0.18128395
0.7242497,2.3636744,-7.786054,0.20674562,-0.70462704,8.128628,-15.194471,-0.21805668
0.7242497,2.3636744,-7.786054,0.20674562,-0.70462704,8.128628,-15.194471,-0.21805668
0.7249447,2.349314,-7.8457093,0.20568037,-0.68438697,7.946999,-15.673118,-0.16198063
0.7249447,2.349314,-7.8457093,0.20568037,-0.68438697,7.946999,-15.673118,-0.16198063
0.72561467,2.3350546,-7.881928,0.20674562,-0.6673428,8.98623,-15.700083,0.28642273
0.72594684,2.3278456,-7.8947115,0.21526775,-0.6471027,8.050149,-16.783752,0.58646584
0.72628635,2.320576,-7.8947115,0.21526775,-0.6471027,8.052647,-16.818726,0.5459385
0.72662103,2.3133307,-7.882993,0.21739827,-0.63218904,6.7574515,-16.130249,-0.53855133
0.7269607,2.3060763,-7.882993,0.21739827,-0.63218904,6.759947,-16.164534,-0.57948303
0.7273369,2.2988212,-7.8552966,0.17159191,-0.6311238,6.2551394,-16.188759,-0.96557903
0.7277225,2.291462,-7.8552966,0.17159191,-0.6311238,6.2579746,-16.222704,-1.0077534
0.72814417,2.2841518,-7.8222733,0.10767604,-0.6289932,7.606616,-16.586313,-0.42276192
0.7285621,2.2769704,-7.8222733,0.10767604,-0.6289932,7.609682,-16.618603,-0.46455097
0.72902834,2.2696877,-7.7743363,0.046955958,-0.6300585,8.39362,-17.5223,0.18221474
0.7294989,2.2623954,-7.7743363,0.046955958,-0.6300585,8.39707,-17.554207,0.1391468
0.7300082,2.2551432,-7.707225,0.0011495883,-0.6332543,7.7974625,-18.260565,0.25873375
0.7305217,2.247873,-7.707225,0.0011495883,-0.6332543,7.8012266,-18.291487,0.21519661
0.7310654,2.240681,-7.611351,-0.030808344,-0.6396459,7.426932,-18.80998,0.46866608
0.73161244,2.2334862,-7.611351,-0.030808344,-0.6396459,7.430933,-18.839722,0.4250145
0.7321936,2.2263963,-7.486715,-0.06489681,-0.6492333,6.8940997,-19.629839,0.7886658
0.73277897,2.2192893,-7.486715,-0.06489681,-0.6492333,6.8983803,-19.658333,0.744997
0.73339945,2.212324,-7.3269253,-0.107507385,-0.6577554,6.7018046,-20.044817,0.99393463
0.734023,2.2053475,-7.3269253,-0.107507385,-0.6577554,6.7063637,-20.071884,0.9505367
0.73468906,2.1985245,-7.1351776,-0.16183588,-0.66840804,6.8836102,-20.16478,0.99868774
0.7353571,2.1916976,-7.1351776,-0.16183588,-0.66840804,6.8884892,-20.190334,0.95568085
0.7360745,2.1850383,-6.922125,-0.22575174,-0.68225646,7.238484,-20.272062,1.0665569
0.73679423,2.1783683,-6.922125,-0.22575174,-0.68225646,7.2437305,-20.296059,1.0239983
0.73679423,2.1783683,-6.922125,-0.22575174,-0.68225646,7.2437305,-20.296059,1.0239983
0.73818225,2.1666555,-6.688832,-0.2864718,-0.69823545,7.5890326,-20.38466,1.0155201
0.7391363,2.1588526,-6.440625,-0.33760452,-0.71527964,8.352538,-20.41109,1.228239
0.7399335,2.1526818,-6.440625,-0.33760452,-0.71527964,8.358332,-20.431452,1.1879177
0.740758,2.1467283,-6.1796355,-0.3674319,-0.72486705,8.397842,-20.249422,1.1774559
0.74159396,2.1406908,-6.1796355,-0.3674319,-0.72486705,8.403913,-20.268509,1.1376247
0.74243915,2.1349223,-5.907993,-0.37595403,-0.7301934,8.390885,-20.190472,1.219017
0.7432859,2.129143,-5.907993,-0.37595403,-0.7301934,8.397026,-20.207996,1.1805649
0.7441352,2.1236734,-5.625698,-0.37488878,-0.73658496,8.130235,-20.214504,1.2157497
0.7449934,2.118144,-5.625698,-0.37488878,-0.73658496,8.136444,-20.230541,1.1786499
0.7458499,2.1129496,-5.327424,-0.371693,-0.7440418,8.506556,-20.364826,1.5074825
0.74670935,2.1077352,-5.327424,-0.371693,-0.7440418,8.512768,-20.379253,1.4722157
0.7475665,2.1028543,-5.0131707,-0.36423612,-0.7483029,8.56205,-20.191158,1.4054565
0.74842757,2.0979502,-5.0131707,-0.36423612,-0.7483029,8.568261,-20.204056,1.3720169
0.7492822,2.0933907,-4.681874,-0.3503877,-0.7504334,8.742016,-19.880383,1.393383
0.75013757,2.0888278,-4.681874,-0.3503877,-0.7504334,8.748172,-19.891743,1.3620129
0.7509855,2.084618,-4.3345976,-0.33334345,-0.7525639,9.122984,-19.52824,1.4477806
0.7518308,2.0804222,-4.3345976,-0.33334345,-0.7525639,9.129063,-19.538065,1.4186974
0.7526609,2.0766003,-3.9766686,-0.30671185,-0.7504334,9.288255,-19.12037,1.5164833
0.75349635,2.0727525,-3.9766686,-0.30671185,-0.7504334,9.294252,-19.128784,1.4895782
0.7543013,2.0693142,-3.6112828,-0.26729706,-0.7419113,9.357487,-18.810246,1.5227966
0.75510836,2.065867,-3.6112828,-0.26729706,-0.7419113,9.363272,-18.817238,1.498476
0.7558841,2.0628266,-3.2395055,-0.21616437,-0.7344544,9.555575,-18.526066,1.6587772
0.7566838,2.0596933,-3.2395055,-0.21616437,-0.7344544,9.561299,-18.531866,1.6364517
0.7573945,2.0571637,-2.8613367,-0.15437903,-0.72273654,9.7483425,-18.272736,1.828907
0.758131,2.0545435,-2.8613367,-0.15437903,-0.72273654,9.75361,-18.277065,1.8100224
0.75881684,2.052367,-2.4757109,-0.078745246,-0.70675755,9.887794,-18.09821,1.9760551
0.75950116,2.050196,-2.4757109,-0.078745246,-0.70675755,9.892675,-18.10126,1.960165
0.76013464,2.0484662,-2.084759,0.008606439,-0.68864805,9.753544,-18.036095,2.1483517
0.76076746,2.046739,-2.084759,0.008606439,-0.68864805,9.758057,-18.037931,2.1354427
0.761342,2.0454714,-1.68635,0.09702339,-0.6652122,9.465269,-18.148733,2.3794117
0.761917,2.0442033,-1.68635,0.09702339,-0.6652122,9.469364,-18.14938,2.3695946
0.7624351,2.043396,-1.2783537,0.17372243,-0.6396459,9.410803,-18.168018,2.496954
0.7629538,2.0425892,-1.2783537,0.17372243,-0.6396459,9.414494,-18.167488,2.4902344
0.7634193,2.0422382,-0.8597048,0.2344425,-0.6108837,9.494415,-18.20411,2.6828957
0.763885,2.0418873,-0.8597048,0.2344425,-0.6108837,9.497726,-18.202415,2.6792374
0.76429695,2.041995,-0.4282727,0.2855752,-0.57573,9.318693,-17.993668,2.918064
0.764709,2.0421033,-0.4282727,0.2855752,-0.57573,9.321622,-17.990824,2.9174824
0.7650633,2.0426702,0.015942577,0.32818577,-0.53098893,8.993734,-17.919804,3.3221874
0.7654171,2.0432377,0.015942577,0.32818577,-0.53098893,8.996248,-17.915825,3.3246841
0.7657115,2.0442595,0.46867996,0.35907844,-0.47772568,8.529073,-17.83891,3.6318913
0.76600516,2.0452821,0.46867996,0.35907844,-0.47772568,8.531156,-17.833817,3.637436
0.76623946,2.0467522,0.93100476,0.37718794,-0.4170056,7.8145566,-17.736649,4.2397337
0.76647294,2.048223,0.93100476,0.37718794,-0.4170056,7.8162117,-17.730446,4.2482615
0.7666453,2.0501323,1.4050474,0.37612268,-0.34989396,7.9610853,-17.51727,4.815193
0.766817,2.052043,1.4050474,0.37612268,-0.34989396,7.962302,-17.509975,4.8266582
0.7669302,2.0543861,1.8886775,0.35801318,-0.27532545,7.8433957,-17.324417,5.137889
0.76704246,2.0567298,1.8886775,0.35801318,-0.27532545,7.844189,-17.316,5.15222
0.76709545,2.059505,2.3797643,0.32818577,-0.1986264,8.605921,-16.372736,5.3178616
0.7671472,2.0622773,2.3797643,0.32818577,-0.1986264,8.606287,-16.363182,5.335024
0.7671499,2.065474,2.865525,0.29942364,-0.1176663,6.6382723,-16.505674,5.20652
0.7671515,2.0686738,2.865525,0.29942364,-0.1176663,6.6382847,-16.494873,5.22645
0.76711434,2.0722666,3.344894,0.23870356,-0.042032525,6.66675,-16.50684,5.272853
0.76707655,2.0758595,3.344894,0.23870356,-0.042032525,6.666483,-16.494793,5.295274
0.7670187,2.0798106,3.8263936,0.13324238,0.033601254,7.5136213,-16.500702,5.14277
0.7669605,2.0837622,3.8263936,0.13324238,0.033601254,7.5132074,-16.487358,5.1673756
0.7668866,2.0880656,4.3078933,0.021389613,0.110300295,8.159119,-16.223778,4.9547396
0.7668128,2.092369,4.3078933,0.021389613,0.110300295,8.158596,-16.209078,4.9814577
0.7667233,2.097043,4.7819357,-0.06702734,0.1880646,6.7501726,-16.355843,4.2682476
0.7666346,2.1017172,4.7819357,-0.06702734,0.1880646,6.7495418,-16.33966,4.2971535
0.76653177,2.1067462,5.246391,-0.16183588,0.26050258,6.796699,-16.619022,3.8541536
0.76643044,2.111775,5.246391,-0.16183588,0.26050258,6.7959795,-16.601337,3.8851051
0.7663224,2.1171265,5.700194,-0.27901497,0.33933216,6.972385,-16.83134,3.348136
0.76621634,2.1224778,5.700194,-0.27901497,0.33933216,6.9716325,-16.81216,3.3808784
0.76610035,2.1281345,6.138017,-0.39619404,0.42561856,6.942081,-16.83002,2.673193
0.7659875,2.133791,6.138017,-0.39619404,0.42561856,6.9412813,-16.80936,2.7075844
0.7658662,2.13973,6.5534706,-0.5144384,0.51616603,6.499888,-16.725224,1.8050518
0.7657492,2.1456692,6.5534706,-0.5144384,0.51616603,6.499055,-16.703094,1.8409033
0.76563203,2.1518564,6.942292,-0.64227015,0.604583,6.2588034,-16.81865,0.9778805
0.7655199,2.1580434,6.942292,-0.64227015,0.604583,6.2580104,-16.79508,1.0149193
0.76542175,2.1644344,7.3034167,-0.78821135,0.6876736,6.788824,-17.03854,0.49750233
0.76532966,2.170825,7.3034167,-0.78821135,0.6876736,6.788174,-17.013577,0.535367
0.7652618,2.1773953,7.6400404,-0.9384137,0.7686337,6.749382,-17.212557,-0.13945198
0.76520157,2.183966,7.6400404,-0.9384137,0.7686337,6.7489543,-17.186186,-0.10099316
0.76517576,2.1907005,7.9542933,-1.0886159,0.8410717,6.624274,-17.220943,-0.8855009
0.76515883,2.197435,7.9542933,-1.0886159,0.8410717,6.6241555,-17.193138,-0.8466196
0.7651934,2.2043085,8.244045,-1.2452098,0.9007265,6.729743,-17.259972,-1.3532257
0.765238,2.211182,8.244045,-1.2452098,0.9007265,6.730062,-17.230715,-1.3141861
0.76535124,2.2181733,8.509296,-1.4060647,0.9465329,6.9319754,-17.377485,-1.6101637
0.7654758,2.225165,8.509296,-1.4060647,0.9465329,6.932863,-17.346752,-1.571208
0.76568097,2.2322588,8.750046,-1.5658544,0.9795561,7.2982354,-17.31966,-1.848278
0.7658987,2.2393537,8.750046,-1.5658544,0.9795561,7.299781,-17.28744,-1.8095922
0.766202,2.2465374,8.962033,-1.7139262,1.0019267,7.5509257,-17.244522,-1.9721365
0.766519,2.2537222,8.962033,-1.7139262,1.0019267,7.553177,-17.21084,-1.9338646
0.76691425,2.260986,9.142063,-1.8396274,1.0189708,7.824125,-16.893608,-2.0202637
0.7673237,2.268251,9.142063,-1.8396274,1.0189708,7.827025,-16.858547,-1.9824858
0.767813,2.2755845,9.284808,-1.9440233,1.0211014,7.787394,-16.549557,-2.0981922
0.76831746,2.2829196,9.284808,-1.9440233,1.0211014,7.790964,-16.513159,-2.0610151
0.7689006,2.2903047,9.384943,-2.0281792,1.0072529,8.068028,-16.02097,-1.9667549
0.7694993,2.2976916,9.384943,-2.0281792,1.0072529,8.07226,-15.983336,-1.9303141
0.7701757,2.3051074,9.440337,-2.09103,0.9827519,7.8328304,-15.849154,-1.8225565
0.7708675,2.312525,9.440337,-2.09103,0.9827519,7.83772,-15.81041,-1.7869959
0.7716309,2.319952,9.4541855,-2.132575,0.9465329,7.8239517,-15.737499,-1.598814
0.7724102,2.3273818,9.4541855,-2.132575,0.9465329,7.829446,-15.697781,-1.5642481
0.77326274,2.3348012,9.429685,-2.160272,0.8964655,7.696589,-15.829897,-1.290988
0.7741311,2.3422232,9.429685,-2.160272,0.8964655,7.7026978,-15.789318,-1.2575502
0.7750596,2.3496187,9.365768,-2.1645331,0.8410717,7.479388,-15.935104,-1.1674032
0.77600324,2.3570175,9.365768,-2.1645331,0.8410717,7.4860163,-15.893841,-1.1351252
0.7769927,2.3643746,9.266699,-2.1464236,0.7835474,7.0045466,-15.8236265,-1.1084042
0.7779977,2.3717427,9.266699,-2.1464236,0.7835474,7.011595,-15.781813,-1.0772676
0.7790307,2.3790278,9.12928,-2.1134005,0.7249579,7.1289635,-15.486303,-1.133213
0.7800959,2.3864412,9.12928,-2.1134005,0.7249579,7.136417,-15.443587,-1.1028633
0.78117734,2.3937254,8.944989,-2.0654635,0.66104203,7.2110133,-14.898481,-1.236373
0.7822518,2.4008775,8.944989,-2.0654635,0.66104203,7.2185173,-14.856701,-1.2080145
0.78332347,2.4078422,8.705305,-2.0004823,0.5949956,7.398376,-14.087894,-1.4154902
0.78441566,2.4148674,8.705305,-2.0004823,0.5949956,7.405991,-14.046358,-1.388484
0.78551656,2.421776,8.40064,-1.9248486,0.5204271,7.629126,-13.023618,-1.7885675
0.78662366,2.4286613,8.40064,-1.9248486,0.5204271,7.63683,-12.982449,-1.7629433
0.7877132,2.4352763,8.024601,-1.8364316,0.439467,7.883812,-11.94187,-2.299014
0.7888212,2.4419487,8.024601,-1.8364316,0.439467,7.8915014,-11.901556,-2.2749834
0.7888212,2.4419487,8.024601,-1.8364316,0.439467,7.8915014,-11.901556,-2.2749834
0.7888212,2.4419487,7.571863,-1.7448188,0.3531806,7.8915014,-11.901556,-2.2749834
0.7920532,2.4600086,7.0434923,-1.6532061,0.25943732,9.522783,-9.889788,-4.171218
0.7920532,2.4600086,7.0434923,-1.6532061,0.25943732,9.522783,-9.889788,-4.171218
0.7932025,2.466354,6.4437485,-1.5637239,0.16249825,9.530718,-9.850609,-4.1499863
0.7942773,2.4719028,6.4437485,-1.5637239,0.16249825,10.02655,-9.179102,-5.535039
0.79529905,2.4771538,5.7758274,-1.4827638,0.060232863,10.03359,-9.146229,-5.518284
0.79529905,2.4771538,5.7758274,-1.4827638,0.060232863,10.03359,-9.146229,-5.518284
0.79799014,2.4896603,5.0503826,-1.4113911,-0.04842411,10.607565,-8.587747,-6.917156
0.7985009,2.491731,5.0503826,-1.4113911,-0.04842411,11.02766,-8.358773,-8.343135
0.7995978,2.4961712,5.0503826,-1.4113911,-0.04842411,11.035189,-8.329807,-8.33092
0.80173874,2.5035033,4.280196,-1.3432142,-0.15388529,11.270117,-8.15123,-9.529226
0.80279946,2.5064812,3.4801826,-1.2686456,-0.2593465,11.334832,-7.9053373,-10.643637
0.80279946,2.5064812,3.4801826,-1.2686456,-0.2593465,11.334832,-7.9053373,-10.643637
0.8049516,2.5112386,2.66419,-1.181294,-0.35841608,11.34474,-7.7121067,-11.378928
0.80599433,2.5135436,2.66419,-1.181294,-0.35841608,11.351844,-7.695046,-11.375664
0.80704117,2.5152462,1.8450017,-1.0790286,-0.44896355,11.574454,-7.556799,-11.662183
0.80808735,2.5169482,1.8450017,-1.0790286,-0.44896355,11.581572,-7.5430565,-11.661434
0.80909735,2.5179949,1.0375311,-0.9650453,-0.5373805,11.688988,-7.4133754,-11.557764
0.80909735,2.5179949,1.0375311,-0.9650453,-0.5373805,11.688988,-7.4133754,-11.557764
0.8110726,2.519899,0.25030077,-0.8478662,-0.6226016,12.463753,-7.126521,-11.350977
0.8120606,2.5203087,0.25030077,-0.8478662,-0.6226016,12.470444,-7.120159,-11.355095
0.81297225,2.5200996,-0.5102981,-0.72109973,-0.7099533,12.299436,-7.1749773,-10.906318
0.81388485,2.5198905,-0.5102981,-0.72109973,-0.7099533,12.305605,-7.172326,-10.912445
0.81388485,2.5198905,-0.5102981,-0.72109973,-0.7099533,12.305605,-7.172326,-10.912445
0.8156015,2.5183465,-1.2368084,-0.5868764,-0.8005008,11.881449,-7.5136075,-10.104904
0.8164057,2.517067,-1.9185777,-0.46117517,-0.89637464,12.241213,-7.828486,-9.113841
0.8172201,2.5157733,-1.9185777,-0.46117517,-0.89637464,12.246696,-7.8321342,-9.123683
0.8179823,2.514006,-2.5492141,-0.33014765,-0.98585683,12.534345,-7.919962,-8.124736
0.8179823,2.514006,-2.5492141,-0.33014765,-0.98585683,12.534345,-7.919962,-8.124736
0.8194573,2.5100787,-3.1308486,-0.18420643,-1.0689474,11.351948,-7.8823876,-7.5933924
0.8201676,2.5078685,-3.1308486,-0.18420643,-1.0689474,11.356718,-7.891335,-7.606286
0.82079667,2.505351,-3.6709378,-0.04572205,-1.1488423,10.958715,-7.816058,-6.8394403
0.8214369,2.5027971,-3.6709378,-0.04572205,-1.1488423,10.963013,-7.827075,-6.8533344
0.8220385,2.4998584,-4.1769385,0.06719598,-1.220215,10.775501,-7.9695625,-5.9492054
0.822641,2.4969306,-4.1769385,0.06719598,-1.220215,10.779535,-7.982644,-5.9644403
0.823213,2.4936326,-4.652046,0.16200452,-1.2756088,10.49127,-8.40958,-4.8509617
0.8237889,2.490334,-4.652046,0.16200452,-1.2756088,10.495129,-8.424634,-4.8676147
0.8243445,2.4866815,-5.0920005,0.24509515,-1.3192846,9.747057,-9.068865,-3.5640383
0.8248991,2.4830644,-5.0920005,0.24509515,-1.3192846,9.750761,-9.085553,-3.5819616
0.8254401,2.4790962,-5.493605,0.31646788,-1.3459163,8.925977,-9.951621,-2.3563194
0.8259868,2.475123,-5.493605,0.31646788,-1.3459163,8.929626,-9.970051,-2.3757792
0.8265211,2.47083,-5.8504686,0.3686658,-1.3576341,8.545328,-10.813723,-1.3191652
0.8270607,2.4665403,-5.8504686,0.3686658,-1.3576341,8.548923,-10.833641,-1.3400383
0.82759345,2.461944,-6.1572647,0.40062377,-1.3565688,8.389666,-11.673894,-0.48595428
0.8281319,2.457351,-6.1572647,0.40062377,-1.3565688,8.393251,-11.695169,-0.5082531
0.828667,2.452481,-6.4171896,0.41340694,-1.3437856,8.478214,-12.493486,0.35406303
0.82920885,2.4476097,-6.4171896,0.41340694,-1.3437856,8.481815,-12.515926,0.3303814
0.82974523,2.4424958,-6.632373,0.41873327,-1.3224804,8.509325,-13.200293,1.0621662
0.83028877,2.4373808,-6.632373,0.41873327,-1.3224804,8.512932,-13.223688,1.0372238
0.83081925,2.4320517,-6.8070765,0.42086378,-1.288392,8.607436,-13.774803,1.7583151
0.8313569,2.4267209,-6.8070765,0.42086378,-1.288392,8.610999,-13.799012,1.7322502
0.83187807,2.4212155,-6.94343,0.42299432,-1.2479119,8.188289,-14.403411,2.0980453
0.83240694,2.4157033,-6.94343,0.42299432,-1.2479119,8.19179,-14.428246,2.0709925
0.832916,2.4100542,-7.047826,0.42299432,-1.204236,7.9318,-15.023504,2.4838524
0.833433,2.4043977,-7.047826,0.42299432,-1.204236,7.935219,-15.048765,2.4559727
0.83392346,2.3986197,-7.116003,0.41873327,-1.1499076,8.106057,-15.4959545,2.7052908
0.83442056,2.3928392,-7.116003,0.41873327,-1.1499076,8.1093445,-15.521561,2.6766996
0.8348843,2.3869572,-7.152222,0.41660273,-1.0859917,8.098046,-16.069578,3.0307646
0.8353538,2.3810847,-7.152222,0.41660273,-1.0859917,8.101146,-16.095398,3.001628
0.8357826,2.375152,-7.1532874,0.42299432,-1.0199453,7.8214607,-16.619518,3.3170614
0.8362268,2.369093,-7.1532874,0.42299432,-1.0199453,7.8243885,-16.64597,3.2869148
0.8366023,2.363259,-7.119199,0.4357775,-0.9475073,7.625752,-17.121634,3.569275
0.836991,2.3573103,-7.119199,0.4357775,-0.9475073,7.6283154,-17.147472,3.5396519
0.83731985,2.3513775,-7.0499563,0.45282173,-0.869743,7.5538664,-17.508547,3.9220629
0.83765477,2.3454375,-7.0499563,0.45282173,-0.869743,7.556072,-17.534248,3.8924656
0.8379259,2.339548,-6.9455605,0.47306174,-0.793044,7.792491,-17.73704,4.1362343
0.8382021,2.3336687,-6.9455605,0.47306174,-0.793044,7.7943087,-17.762405,4.106943
0.83841175,2.3278797,-6.8124027,0.50075865,-0.72060597,8.078202,-17.988647,4.351207
0.8386265,2.3220894,-6.8124027,0.50075865,-0.72060597,8.079617,-18.013586,4.3223743
0.83877176,2.316449,-6.6472864,0.53591233,-0.6534943,8.439703,-18.181705,4.6104994
0.83892304,2.3107798,-6.6472864,0.53591233,-0.6534943,8.440698,-18.206108,4.5822916
0.8390031,2.3053064,-6.455539,0.5806534,-0.5927743,8.642338,-18.617727,4.919174
0.83908796,2.2998328,-6.455539,0.5806534,-0.5927743,8.642895,-18.641312,4.891981
0.83910483,2.2945795,-6.23929,0.63178617,-0.54164153,8.772293,-18.683313,4.8804474
0.8391264,2.2893257,-6.23929,0.63178617,-0.54164153,8.772432,-18.706,4.854395
0.83909136,2.2843194,-6.001736,0.67865777,-0.50222677,8.820087,-18.67991,4.8632545
0.839061,2.279313,-6.001736,0.67865777,-0.50222677,8.819887,-18.701561,4.838463
0.8389838,2.2745712,-5.7492685,0.7202031,-0.4713341,8.982185,-18.755741,4.910877
0.8389107,2.2698295,-5.7492685,0.7202031,-0.4713341,8.981707,-18.776272,4.8874035
0.8387959,2.2653706,-5.4818873,0.7606831,-0.446833,9.335292,-18.671236,5.013891
0.8386851,2.260925,-5.4818873,0.7606831,-0.446833,9.334564,-18.690523,4.991905
0.8385328,2.2567525,-5.202788,0.8011632,-0.42126667,9.228218,-18.761486,5.167734
0.83838475,2.2525885,-5.202788,0.8011632,-0.42126667,9.227243,-18.779636,5.1471863
0.83820313,2.2487361,-4.9077096,0.8373822,-0.40102664,8.842974,-18.830122,5.310259
0.83802545,2.244884,-4.9077096,0.8373822,-0.40102664,8.841804,-18.847,5.291296
0.83782446,2.2413554,-4.594522,0.86294854,-0.38504767,8.366432,-19.025423,5.489518
0.8376268,2.237827,-4.594522,0.86294854,-0.38504767,8.365129,-19.040962,5.472186
0.83742553,2.2346263,-4.256833,0.8618833,-0.37652555,8.593647,-19.20836,5.9162035
0.83722734,2.231423,-4.256833,0.8618833,-0.37652555,8.592342,-19.22248,5.9004526
0.8370341,2.2285697,-3.8882515,0.8459043,-0.36800346,8.926258,-19.316513,6.154608
0.8368437,2.2257192,-3.8882515,0.8459043,-0.36800346,8.925001,-19.329079,6.140568
0.8366549,2.223211,-3.4877121,0.8277948,-0.35628554,9.00037,-19.464727,6.406008
0.8366549,2.223211,-3.4877121,0.8277948,-0.35628554,9.00037,-19.464727,6.406008
0.8362845,2.2185588,-3.0562801,0.8096853,-0.34563288,9.141582,-19.744022,6.526888
0.8361122,2.2165585,-3.0562801,0.8096853,-0.34563288,9.140445,-19.752975,6.5171127
0.8359418,2.2149413,-2.5939553,0.78838,-0.3360455,9.359587,-19.889671,6.5189114
0.8357705,2.2133043,-2.5939553,0.78838,-0.3360455,9.358457,-19.897152,6.511017
0.83560055,2.2121382,-2.1039336,0.7692053,-0.32219708,9.692524,-19.854866,6.371521
0.83542764,2.2109475,-2.1039336,0.7692053,-0.32219708,9.691381,-19.860577,6.3659763
0.83525866,2.2102797,-1.5926068,0.75535685,-0.30621812,9.345503,-19.959969,6.1477013
0.83508694,2.2096007,-1.5926068,0.75535685,-0.30621812,9.344367,-19.963646,6.1448517
0.8349058,2.2094238,-1.0631703,0.7404431,-0.2827823,9.041502,-19.955826,5.7424755
0.8347262,2.209248,-1.0631703,0.7404431,-0.2827823,9.040317,-19.957573,5.742321
0.8345399,2.2095685,-0.52095073,0.70955044,-0.2529549,9.010353,-19.943031,5.534136
0.83435434,2.209887,-0.52095073,0.70955044,-0.2529549,9.009129,-19.942865,5.5366364
0.8341673,2.2106912,0.029791016,0.66267884,-0.2167359,8.816356,-20.02219,5.594391
0.83397985,2.2114954,0.029791016,0.66267884,-0.2167359,8.815117,-20.02011,5.5994663
0.8337901,2.2127738,0.5869243,0.6051545,-0.17092952,8.631903,-20.04489,5.6357994
0.83359945,2.2140543,0.5869243,0.6051545,-0.17092952,8.630642,-20.040926,5.6434097
0.8334085,2.2158022,1.1515145,0.5337818,-0.1176663,8.394745,-20.01594,5.8019314
0.83321697,2.217546,1.1515145,0.5337818,-0.1176663,8.393482,-20.010113,5.8119936
0.8330306,2.2197447,1.7182351,0.4506912,-0.061207283,8.224651,-19.968895,6.044673
0.83284116,2.2219596,1.7182351,0.4506912,-0.061207283,8.223398,-19.961117,6.0571814
0.8326652,2.2245817,2.2870865,0.35588264,-0.0015524738,7.9445057,-19.903711,6.1052704
0.83248675,2.2272246,2.2870865,0.35588264,-0.0015524738,7.943321,-19.894077,6.119939
0.83232754,2.2303023,2.857003,0.24509515,0.0591676,7.8225594,-19.781975,6.175084
0.8321678,2.2333732,2.857003,0.24509515,0.0591676,7.8215,-19.7704,6.1918564
0.8320351,2.2368655,3.4237235,0.12152447,0.1220182,7.58599,-19.766472,6.071804
0.83190197,2.2403574,3.4237235,0.12152447,0.1220182,7.5851088,-19.752907,6.090578
0.8318,2.2442458,3.9840527,-0.011633585,0.18912986,7.335433,-19.5938,5.9388256
0.83169836,2.2481384,3.9840527,-0.011633585,0.18912986,7.3347588,-19.578245,5.959423
0.8316372,2.252419,4.5315986,-0.15437903,0.25304574,7.1332436,-19.417109,5.608283
0.831579,2.2566013,4.5315986,-0.15437903,0.25304574,7.1328573,-19.399925,5.630043
0.83157015,2.26125,5.05997,-0.30138552,0.31057,6.8454943,-19.198442,5.112797
0.831563,2.2659962,5.05997,-0.30138552,0.31057,6.8454475,-19.178387,5.137047
0.83161247,2.2709877,5.568101,-0.4515878,0.36596376,6.6686034,-18.869547,4.6019297
0.8316644,2.2759545,5.568101,-0.4515878,0.36596376,6.6689487,-18.847979,4.6268053
0.83178526,2.281273,6.0496006,-0.60605115,0.41177014,6.506943,-18.556244,3.9299698
0.8319105,2.2866187,6.0496006,-0.60605115,0.41177014,6.5077734,-18.53238,3.9561682
0.8321032,2.2922354,6.5002074,-0.7637103,0.45331544,8.055706,-17.03678,3.0638895
0.83230096,2.2978532,6.5002074,-0.7637103,0.45331544,8.057015,-17.01104,3.0908098
0.83258027,2.3037512,6.9039426,-0.9011294,0.4874039,5.453973,-17.491049,2.1034174
0.8328648,2.3096504,6.9039426,-0.9011294,0.4874039,5.455858,-17.463295,2.1309834
0.8332481,2.3157725,7.2661324,-1.0619843,0.50338286,6.334669,-17.481743,1.8908138
0.83363706,2.3218899,7.2661324,-1.0619843,0.50338286,6.337243,-17.452137,1.9185505
0.8341541,2.3281927,7.6006255,-1.2558625,0.50977445,7.7101455,-17.262836,1.3813133
0.8346787,2.3344975,7.6006255,-1.2558625,0.50977445,7.713615,-17.231344,1.4088678
0.8353222,2.3409715,7.9020953,-1.4263048,0.51297027,8.517525,-17.064219,0.9288206
0.8359741,2.3474483,7.9020953,-1.4263048,0.51297027,8.521829,-17.030954,0.9560833
0.836731,2.354106,8.170542,-1.5530713,0.5044481,8.239518,-17.187687,0.7248373
0.8374963,2.36076,8.170542,-1.5530713,0.5044481,8.24456,-17.152695,0.7518406
0.83836085,2.3676,8.40277,-1.6564019,0.4852734,8.034771,-17.07786,0.67835903
0.8392342,2.3744366,8.40277,-1.6564019,0.4852734,8.040518,-17.041145,0.70509243
0.8402064,2.381428,8.600909,-1.7522757,0.45438072,8.372512,-16.706163,0.6024246
0.84118843,2.3884234,8.600909,-1.7522757,0.45438072,8.378959,-16.667835,0.6287079
0.8422646,2.3955524,8.756437,-1.8321705,0.41390067,8.740356,-16.135044,0.5685749
0.8433515,2.4026868,8.756437,-1.8321705,0.41390067,8.747473,-16.09523,0.5942764
0.84451663,2.4099436,8.87042,-1.8822379,0.36702904,8.78382,-15.561086,0.5718651
0.8456922,2.4172063,8.87042,-1.8822379,0.36702904,8.7915,-15.519924,0.59696674
0.8456922,2.4172063,8.87042,-1.8822379,0.36702904,8.7915,-15.519924,0.59696674
0.8478075,2.4297786,8.938598,-1.9014127,0.31270054,8.5993805,-14.897287,0.6391392
0.8478075,2.4297786,8.956707,-1.8971517,0.2509152,8.5993805,-14.897287,0.6391392
0.8508459,2.4472413,8.956707,-1.8971517,0.2509152,8.532939,-14.312567,0.82947254
0.8508459,2.4472413,8.956707,-1.8758464,0.18699934,8.532939,-14.312567,0.82947254
0.8523391,2.4556162,8.925815,-1.8758464,0.18699934,8.355873,-13.894955,0.8746691
0.8536209,2.4627588,8.844854,-1.8396274,0.11882241,8.364164,-13.853089,0.8964462
0.8549495,2.4700506,8.844854,-1.8396274,0.11882241,8.314564,-13.344516,1.0742035
0.85632104,2.477539,8.844854,-1.8396274,0.11882241,8.314564,-13.344516,1.0742035
0.85879636,2.49087,8.720219,-1.7906252,0.048514955,8.210796,-12.958861,1.2174168
0.85919344,2.492998,8.549776,-1.7299051,-0.01966197,8.213345,-12.946182,1.2233295
0.8605549,2.500242,8.549776,-1.7299051,-0.01966197,7.6043797,-12.534202,1.1809311
0.8619722,2.5077577,8.337789,-1.660663,-0.08038204,7.4929495,-12.144083,1.3254642
0.8647255,2.5222714,8.337789,-1.660663,-0.08038204,7.501787,-12.100265,1.3441992
0.8647255,2.5222714,8.337789,-1.660663,-0.08038204,7.501787,-12.100265,1.3441992
0.8675039,2.536832,8.0895815,-1.5860945,-0.13577579,7.3088083,-11.744183,1.5289183
0.8675039,2.536832,8.0895815,-1.5860945,-0.13577579,7.3088083,-11.744183,1.5289183
0.87017226,2.5508337,7.804091,-1.5019386,-0.18690848,6.9043827,-11.1901,1.2559547
0.87147295,2.5577424,7.484512,-1.4188479,-0.22525801,7.621309,-10.147444,0.7549248
0.872777,2.56466,7.484512,-1.4188479,-0.22525801,7.6295643,-10.105442,0.7707186
0.8740158,2.571334,7.1223216,-1.3314962,-0.2529549,7.455437,-9.198245,-0.061790466
0.8752626,2.5780435,7.1223216,-1.3314962,-0.2529549,7.4633055,-9.157476,-0.04699421
0.87644255,2.58444,6.708999,-1.2377529,-0.28065175,6.948805,-8.893539,-0.67477226
0.87762606,2.5908513,6.708999,-1.2377529,-0.28065175,6.9562473,-8.854521,-0.6611681
0.87874997,2.5968766,6.2594576,-1.169576,-0.3094139,7.873105,-8.434696,-1.180234
0.8798698,2.6028795,6.2594576,-1.169576,-0.3094139,7.880131,-8.398047,-1.1680851
0.8809527,2.6085167,5.7800884,-1.1205739,-0.3360455,8.485475,-7.597335,-2.0956354
0.88203037,2.6141274,5.7800884,-1.1205739,-0.3360455,8.492217,-7.562905,-2.084938
0.88306004,2.619316,5.274088,-1.0641148,-0.36267713,8.723703,-6.6450644,-3.234254
0.8840858,2.62449,5.274088,-1.0641148,-0.36267713,8.73011,-6.6131554,-3.2249842
0.8850677,2.6292129,4.739325,-1.0065906,-0.39463505,9.301264,-5.683626,-4.260866
0.8860419,2.633903,4.739325,-1.0065906,-0.39463505,9.307329,-5.654512,-4.253085
0.88697165,2.6381207,4.170474,-0.94160944,-0.42446247,10.529367,-4.675235,-5.1659527
0.88789225,2.642301,4.170474,-0.94160944,-0.42446247,10.535082,-4.649082,-5.1596317
0.88875115,2.6459928,3.5675342,-0.85425776,-0.45215935,10.468586,-3.9841716,-6.241431
0.8896029,2.6496587,3.5675342,-0.85425776,-0.45215935,10.473869,-3.961074,-6.236391
0.8903915,2.6527953,2.9305062,-0.7637103,-0.48411727,10.847456,-3.2946613,-7.142358
0.8911759,2.6559196,2.9305062,-0.7637103,-0.48411727,10.85231,-3.2747712,-7.13861
0.8919182,2.658466,2.260455,-0.6923376,-0.52672786,11.852896,-2.9852545,-8.0461035
0.89265615,2.6610003,2.260455,-0.6923376,-0.52672786,11.857446,-2.9687655,-8.0438595
0.8933559,2.6629298,1.5627066,-0.62416065,-0.56933844,12.752417,-2.9126322,-8.794903
0.8940523,2.6648521,1.5627066,-0.62416065,-0.56933844,12.7567005,-2.899653,-8.794201
0.8947189,2.6661847,0.84684885,-0.5506574,-0.61727536,13.100782,-3.062396,-9.192421
0.8954052,2.6675594,0.84684885,-0.5506574,-0.61727536,13.105013,-3.0524619,-9.193237
0.8960019,2.6682336,0.12140376,-0.47715417,-0.67373437,13.056009,-3.247794,-9.319923
0.8966008,2.668912,0.12140376,-0.47715417,-0.67373437,13.059684,-3.2419863,-9.322126
0.89718986,2.6689956,-0.6029761,-0.41430354,-0.73658496,12.7951565,-3.4405806,-9.22058
0.89777833,2.66908,-0.6029761,-0.41430354,-0.73658496,12.798769,-3.4380589,-9.224375
0.8983505,2.6685586,-1.3135074,-0.36210558,-0.79943556,12.414415,-3.6352253,-8.80837
0.89892286,2.668038,-1.3135074,-0.36210558,-0.79943556,12.417921,-3.6360564,-8.8137455
0.8994845,2.6669276,-1.9984725,-0.31842974,-0.85589457,11.827593,-3.9848938,-8.083288
0.9000445,2.6658218,-1.9984725,-0.31842974,-0.85589457,11.831026,-3.9889357,-8.090219
0.9006011,2.6641445,-2.6514797,-0.2779497,-0.9080925,10.967721,-4.4126697,-7.0740194
0.9011564,2.6624737,-2.6514797,-0.2779497,-0.9080925,10.971121,-4.4197617,-7.0825186
0.9017082,2.660268,-3.2586803,-0.2449265,-0.9475073,10.347202,-4.96125,-6.024704
0.9022615,2.6580622,-3.2586803,-0.2449265,-0.9475073,10.350584,-4.9711914,-6.03473
0.9028134,2.6553614,-3.813683,-0.21936016,-0.97520417,10.100159,-5.577535,-4.9735746
0.9033662,2.6526654,-3.813683,-0.21936016,-0.97520417,10.103525,-5.5900455,-4.9850435
0.90392375,2.6494899,-4.312227,-0.20018539,-0.99118316,9.920177,-6.1653137,-4.0594254
0.904482,2.6463258,-4.312227,-0.20018539,-0.99118316,9.92357,-6.1802197,-4.0723515
0.9050499,2.6427345,-4.7543116,-0.18846749,-0.99970526,9.907867,-6.9538846,-3.1050043
0.90561986,2.6391487,-4.7543116,-0.18846749,-0.99970526,9.911332,-6.9708786,-3.1193295
0.9062099,2.6351836,-5.1367416,-0.1852717,-1.0071621,9.890974,-7.7606783,-2.0336304
0.90682167,2.6310937,-5.1367416,-0.1852717,-1.0071621,9.894682,-7.7800417,-2.0498505
0.9074152,2.6269388,-5.4627123,-0.1852717,-1.0060968,9.591827,-8.656858,-1.0367022
0.90803224,2.6226447,-5.4627123,-0.1852717,-1.0060968,9.595566,-8.677107,-1.0537138
0.9086708,2.6180692,-5.73542,-0.19272855,-0.99864,9.331278,-9.541411,-0.056656837
0.9093139,2.613487,-5.73542,-0.19272855,-0.99864,9.335167,-9.562873,-0.07488251
0.9099869,2.6086216,-5.9548645,-0.2119033,-0.9847916,9.123754,-10.418767,0.70060825
0.910661,2.6037726,-5.9548645,-0.2119033,-0.9847916,9.127822,-10.44127,0.68116856
0.91136,2.5986867,-6.125307,-0.24066544,-0.9602905,9.194291,-11.192615,1.4172955
0.91206396,2.5935922,-6.125307,-0.24066544,-0.9602905,9.198534,-11.216018,1.3966885
0.9128004,2.5882146,-6.254204,-0.2726234,-0.92833257,9.17902,-11.934927,1.9829884
0.9135124,2.583034,-6.254204,-0.2726234,-0.92833257,9.18331,-11.9584675,1.9618378
0.91425663,2.5775607,-6.3490124,-0.30564657,-0.88998306,9.20693,-12.529102,2.40868
0.9150015,2.5721052,-6.3490124,-0.30564657,-0.88998306,9.2114,-12.553614,2.386197
0.915749,2.566519,-6.4129286,-0.33334345,-0.8452419,9.302079,-13.081402,2.6791887
0.91650325,2.5609064,-6.4129286,-0.33334345,-0.8452419,9.306598,-13.106356,2.6558867
0.91725194,2.5551784,-6.452343,-0.3525182,-0.79730505,9.425999,-13.691988,2.9625149
0.91800356,2.5494456,-6.452343,-0.3525182,-0.79730505,9.430496,-13.717222,2.9385815
0.9187396,2.5436304,-6.466192,-0.36210558,-0.74723756,9.420526,-14.259911,3.0915136
0.9194784,2.5378106,-6.466192,-0.36210558,-0.74723756,9.424936,-14.285294,3.0671082
0.9201891,2.5319428,-6.4576697,-0.36210558,-0.6961049,9.721266,-14.550283,3.0952635
0.9209053,2.526047,-6.4576697,-0.36210558,-0.6961049,9.725532,-14.575795,3.0704784
0.9215836,2.520149,-6.431038,-0.3525182,-0.6471027,10.088701,-14.835944,3.0936794
0.92226493,2.5142403,-6.431038,-0.3525182,-0.6471027,10.0927515,-14.861327,3.0688057
0.92289716,2.5083423,-6.3894925,-0.3226908,-0.60129637,10.211428,-15.063883,3.0202026
0.9235311,2.5024397,-6.3894925,-0.3226908,-0.60129637,10.215189,-15.089109,2.9953823
0.92410445,2.4965808,-6.3362293,-0.27581918,-0.5608163,10.386188,-15.281837,2.8321056
0.9246805,2.490712,-6.3362293,-0.27581918,-0.5608163,10.389599,-15.306841,2.8075027
0.92519295,2.4849274,-6.274444,-0.21829489,-0.5299236,10.335176,-15.661986,2.6541843
0.9257082,2.4791336,-6.274444,-0.21829489,-0.5299236,10.338224,-15.686604,2.6299744
0.9261599,2.4734395,-6.19881,-0.15437903,-0.50648785,10.522855,-16.084402,2.505827
0.92661345,2.4677422,-6.19881,-0.15437903,-0.50648785,10.525538,-16.10856,2.4820976
0.9270086,2.4621723,-6.1103935,-0.08726736,-0.4926394,10.5087185,-16.40042,2.4016075
0.92740583,2.4565997,-6.1103935,-0.08726736,-0.4926394,10.511062,-16.423988,2.3784313
0.9277469,2.4511795,-6.0081277,-0.018025171,-0.48518252,10.426882,-16.657692,2.159727
0.9280902,2.445757,-6.0081277,-0.018025171,-0.48518252,10.428906,-16.68057,2.137207
0.92838055,2.4405096,-5.892014,0.050151754,-0.48198673,10.488084,-16.788986,1.9862766
0.9286737,2.4352555,-5.892014,0.050151754,-0.48198673,10.489809,-16.811104,1.9644718
0.92891836,2.4301853,-5.7673783,0.12045921,-0.48518252,10.37154,-16.889988,1.7855453
0.929165,2.4251187,-5.7673783,0.12045921,-0.48518252,10.372993,-16.91127,1.764534
0.9293629,2.4202538,-5.63422,0.19289719,-0.49050885,10.340641,-16.836033,1.6535149
0.92956364,2.415388,-5.63422,0.19289719,-0.49050885,10.341822,-16.856445,1.633358
0.9297171,2.4107313,-5.496801,0.26533517,-0.49690044,10.280476,-16.9144,1.4753437
0.9298732,2.406073,-5.496801,0.26533517,-0.49690044,10.281397,-16.93394,1.456089
0.92998505,2.4016292,-5.357251,0.33777314,-0.50648785,10.296417,-16.895235,1.4234829
0.9300995,2.3971844,-5.357251,0.33777314,-0.50648785,10.29709,-16.913895,1.4051437
0.9301728,2.3929632,-5.2145057,0.4112764,-0.5203363,10.158662,-16.965246,1.3256168
0.9302489,2.3887415,-5.2145057,0.4112764,-0.5203363,10.159107,-16.982986,1.3082371
0.930287,2.3847463,-5.068565,0.48264912,-0.53524995,10.044411,-17.090876,1.2631912
0.930328,2.3807507,-5.068565,0.48264912,-0.53524995,10.04465,-17.107702,1.246788
0.93033767,2.3769805,-4.9183626,0.546565,-0.55122894,9.886686,-17.056639,1.2505684
0.9303501,2.3732097,-4.9183626,0.546565,-0.55122894,9.886765,-17.07254,1.2351246
0.9303357,2.3696637,-4.7628336,0.60408926,-0.5672079,9.862738,-17.135473,1.2398415
0.9303245,2.366121,-4.7628336,0.60408926,-0.5672079,9.862669,-17.150434,1.2253437
0.9302894,2.3628016,-4.598783,0.659483,-0.5821216,9.493756,-17.494946,1.3076229
0.9302571,2.359485,-4.598783,0.659483,-0.5821216,9.493567,-17.508984,1.2940836
0.93019915,2.3563957,-4.4198184,0.7084852,-0.5885132,9.464494,-17.842997,1.6885939
0.9301442,2.3533068,-4.4198184,0.7084852,-0.5885132,9.464172,-17.856134,1.6760397
0.9300629,2.3504572,-4.2184834,0.74896526,-0.58744794,9.482845,-17.672064,1.8800621
0.92998433,2.347602,-4.2184834,0.74896526,-0.58744794,9.482387,-17.684298,1.8685417
0.9298756,2.345004,-3.9958434,0.78838,-0.5789258,9.347672,-17.417881,1.9875154
0.92976946,2.342401,-3.9958434,0.78838,-0.5789258,9.347046,-17.429176,1.9771318
0.92976946,2.342401,-3.9958434,0.78838,-0.5789258,9.347046,-17.429176,1.9771318
0.9294956,2.3376844,-3.7550936,0.824599,-0.5672079,9.513028,-17.344692,2.4279528
0.92932856,2.33563,-3.4919732,0.860818,-0.55549,10.139324,-17.071512,2.9947567
0.9291628,2.3335688,-3.4919732,0.860818,-0.55549,10.138348,-17.080847,2.9868908
0.9289573,2.3318355,-3.208613,0.9140812,-0.54270685,9.265648,-16.854435,3.0955467
0.9287529,2.330097,-3.208613,0.9140812,-0.54270685,9.264444,-16.862661,3.0892334
0.9285117,2.328696,-2.9060779,0.96201813,-0.5341847,9.258235,-16.711704,3.4436798
0.9282725,2.3272989,-2.9060779,0.96201813,-0.5341847,9.256826,-16.71873,3.4389915
0.9280087,2.3262439,-2.5875638,0.9971719,-0.5299236,8.9248705,-16.748453,3.7423477
0.9277466,2.3251905,-2.5875638,0.9971719,-0.5299236,8.923325,-16.754215,3.7392368
0.9274669,2.3244865,-2.2498748,1.0195425,-0.5256626,8.950405,-16.83049,4.1303673
0.9271885,2.3237832,-2.2498748,1.0195425,-0.5256626,8.948759,-16.834927,4.128829
0.9269036,2.3234339,-1.8951418,1.0269992,-0.5224668,8.750755,-16.972052,4.4927826
0.9266197,2.323084,-1.8951418,1.0269992,-0.5224668,8.749076,-16.975094,4.492794
0.92633605,2.3230977,-1.5233645,1.0248687,-0.519271,8.699514,-17.14905,4.7912655
0.9260521,2.3231108,-1.5233645,1.0248687,-0.519271,8.697836,-17.150627,4.792842
0.92577475,2.3234892,-1.1345431,1.009955,-0.51500994,8.897307,-17.279978,5.241287
0.92549694,2.3238657,-1.1345431,1.009955,-0.51500994,8.895666,-17.280046,5.2444105
0.92549694,2.3238657,-1.1345431,1.009955,-0.51500994,8.895666,-17.280046,5.2444105
0.92494345,2.3253927,-0.7308078,0.989715,-0.50648785,8.992943,-17.545181,5.6945076
0.92467433,2.3265102,-0.31002834,0.9716055,-0.4894436,8.948256,-17.858221,6.3089113
0.92440957,2.327604,-0.31002834,0.9716055,-0.4894436,8.946688,-17.855288,6.315054
0.9241331,2.3291233,0.12779534,0.9524307,-0.46707305,8.796608,-18.482744,6.964737
0.9238549,2.3306446,0.12779534,0.9524307,-0.46707305,8.794958,-18.478119,6.9727745
0.9235669,2.3325765,0.59544647,0.9321907,-0.43618038,8.91296,-19.094347,7.7152624
0.9232757,2.3345146,0.59544647,0.9321907,-0.43618038,8.91123,-19.088053,7.725155
0.9232757,2.3345146,0.59544647,0.9321907,-0.43618038,8.91123,-19.088053,7.725155
0.92267925,2.3391585,1.0918597,0.9098202,-0.39996138,8.984304,-19.565516,8.160083
0.9223311,2.342115,1.6234267,0.8885149,-0.35628554,9.197713,-19.890436,8.457103
0.9220054,2.344935,1.6234267,0.8885149,-0.35628554,9.195776,-19.880566,8.470891
0.9220054,2.344935,1.6234267,0.8885149,-0.35628554,9.195776,-19.880566,8.470891
0.9220054,2.344935,1.6234267,0.8885149,-0.35628554,9.195776,-19.880566,8.470891
0.9209142,2.356052,2.7792385,0.8416432,-0.24549803,8.111894,-21.104279,9.357124
0.92069805,2.358223,2.7792385,0.8416432,-0.24549803,8.109321,-21.088415,9.377699
0.92006254,2.3649244,3.4024184,0.7990327,-0.18158217,8.49468,-21.3779,9.485268
0.92006254,2.3649244,3.4024184,0.7990327,-0.18158217,8.49468,-21.3779,9.485268
0.9193581,2.3724654,3.4024184,0.7990327,-0.18158217,8.4904785,-21.349554,9.520613
0.91922,2.3740106,4.050099,0.76174843,-0.103817865,8.647673,-21.262272,9.192605
0.91922,2.3740106,4.050099,0.76174843,-0.103817865,8.647673,-21.262272,9.192605
0.9180076,2.3874502,4.709498,0.73618203,-0.020727234,8.065824,-21.086182,8.804707
0.9178895,2.3887773,4.709498,0.73618203,-0.020727234,8.065118,-21.08103,8.810814
0.916868,2.4004126,5.3699617,0.71274626,0.063428655,7.738184,-20.800753,8.260616
0.9163326,2.406612,6.0187078,0.67652726,0.1518456,7.6631536,-20.416973,7.7044983
0.9157684,2.4131129,6.0187078,0.67652726,0.1518456,7.659772,-20.390934,7.7338047
0.9157684,2.4131129,6.0187078,0.67652726,0.1518456,7.659772,-20.390934,7.7338047
0.9157684,2.4131129,6.0187078,0.67652726,0.1518456,7.659772,-20.390934,7.7338047
0.91394013,2.4347231,7.23524,0.5785229,0.33294058,7.4285316,-19.63702,6.541754
0.9133529,2.4418042,7.23524,0.5785229,0.33294058,7.4250016,-19.607517,6.572771
0.9127224,2.449671,7.788112,0.5146071,0.42561856,7.282347,-19.397173,6.080158
0.9120909,2.4575393,7.788112,0.5146071,0.42561856,7.278544,-19.363695,6.114029
0.91146094,2.4657516,8.302635,0.44003853,0.51616603,7.375304,-19.151129,5.6940556
0.9108297,2.4739823,8.302635,0.44003853,0.51616603,7.371499,-19.115332,5.7287836
0.91021466,2.4825115,8.776677,0.35375214,0.60245246,7.4204593,-18.948431,5.30935
0.9096013,2.4910345,8.776677,0.35375214,0.60245246,7.4167547,-18.910501,5.3444815
0.909016,2.499801,9.209175,0.26000884,0.6866084,7.2408333,-18.923603,5.097499
0.90843123,2.5086055,9.209175,0.26000884,0.6866084,7.2372947,-18.883503,5.132841
0.9078871,2.5176227,9.604388,0.15454768,0.76543796,7.775092,-18.702965,4.7852755
0.90734833,2.5266166,9.604388,0.15454768,0.76543796,7.7718267,-18.66103,4.8203077
0.9068536,2.5358493,9.960186,0.05121702,0.83894116,7.778404,-18.210352,4.2617655
0.9063653,2.5450585,9.960186,0.05121702,0.83894116,7.775445,-18.166426,4.296482
0.9063653,2.5450585,9.960186,0.05121702,0.83894116,7.775445,-18.166426,4.296482
0.90547675,2.5640254,10.271243,-0.04146099,0.9071181,7.3438807,-18.0217,3.91109
0.9050923,2.5734718,10.535429,-0.13200846,0.96783817,7.3942194,-17.917618,3.5712051
0.9047104,2.5830576,10.535429,-0.13200846,0.96783817,7.3918967,-17.86993,3.6048164
0.9043905,2.5924523,10.749547,-0.21829489,1.023232,7.227147,-17.69814,3.2634811
0.90407264,2.6020463,10.749547,-0.21829489,1.023232,7.2252107,-17.64948,3.295807
0.90380454,2.6116667,10.916794,-0.29392865,1.0722342,6.9937363,-17.600159,2.910839
0.90354455,2.621343,10.916794,-0.29392865,1.0722342,6.9921546,-17.55019,2.942111
0.90333396,2.6310432,11.038234,-0.35784453,1.108453,6.4641466,-17.513958,2.6183023
0.9031337,2.6407514,11.038234,-0.35784453,1.108453,6.4629245,-17.46297,2.648302
0.90298533,2.6504765,11.114933,-0.41962987,1.1329541,6.2226,-17.047482,2.01192
0.902848,2.6601808,11.114933,-0.41962987,1.1329541,6.2217693,-16.995693,2.0405016
0.9027697,2.6699011,11.145825,-0.48354575,1.144672,6.431979,-16.15803,1.378684
0.9027025,2.679631,11.145825,-0.48354575,1.144672,6.4315677,-16.1053,1.4058361
0.90268517,2.6892986,11.123455,-0.5378742,1.1393458,7.4274473,-14.271192,0.062483788
0.9026793,2.6989567,11.123455,-0.5378742,1.1393458,7.427413,-14.218132,0.087999344
0.9027155,2.7085867,11.030777,-0.57302797,1.1159099,7.2073717,-12.699597,-1.2233295
0.9027633,2.718198,11.030777,-0.57302797,1.1159099,7.207655,-12.646147,-1.1993399
0.90286016,2.7276852,10.856073,-0.6071164,1.063712,7.7445498,-11.668851,-2.263483
0.9029681,2.7371738,10.856073,-0.6071164,1.063712,7.7452044,-11.615468,-2.2412443
0.9031382,2.746471,10.60041,-0.649727,0.9827519,8.751812,-10.456654,-3.2977962
0.90331864,2.7557697,10.60041,-0.649727,0.9827519,8.752907,-10.403741,-3.277525
0.9035677,2.7648656,10.268047,-0.6934028,0.8719644,9.798296,-8.72834,-4.537203
0.9038253,2.7739456,10.268047,-0.6934028,0.8719644,9.799862,-8.676121,-4.518956
0.904152,2.7827542,9.85366,-0.72323024,0.73134947,10.204084,-7.1694384,-5.5796595
0.90448636,2.791566,9.85366,-0.72323024,0.73134947,10.206113,-7.1182694,-5.5634804
0.90489936,2.8000393,9.352985,-0.7519924,0.5630377,11.080112,-5.6561365,-5.8890038
0.905318,2.8085158,9.352985,-0.7519924,0.5630377,11.082663,-5.606454,-5.8750114
0.9058056,2.8166509,8.764959,-0.762645,0.37555113,10.597197,-4.337431,-6.4611692
0.9062962,2.8247738,8.764959,-0.762645,0.37555113,10.600178,-4.289444,-6.4492226
0.90685654,2.8324423,8.095973,-0.77329767,0.17528142,11.345781,-3.1760373,-6.922661
0.90741783,2.8400927,8.095973,-0.77329767,0.17528142,11.349182,-3.130503,-6.9128704
0.90805614,2.847277,7.3556147,-0.7871461,-0.030314613,12.047373,-2.407499,-7.278326
0.90869325,2.854438,7.3556147,-0.7871461,-0.030314613,12.051222,-2.364562,-7.2706385
0.9093954,2.8610806,6.554536,-0.7903419,-0.24017172,12.534304,-1.9222512,-7.762619
0.91009617,2.8677225,6.554536,-0.7903419,-0.24017172,12.538543,-1.8821692,-7.756874
0.9108497,2.8737674,5.7065854,-0.78821135,-0.45215935,12.997992,-1.5437777,-8.269899
0.91160107,2.8798127,5.7065854,-0.78821135,-0.45215935,13.00252,-1.5070682,-8.266
0.9124122,2.8852675,4.826677,-0.7903419,-0.66627747,13.783128,-1.1815968,-8.732947
0.9132197,2.8907237,4.826677,-0.7903419,-0.66627747,13.7879925,-1.1482396,-8.730796
0.91407484,2.8955338,3.920137,-0.78927666,-0.8793304,14.171417,-0.9174621,-9.09406
0.9149287,2.9003606,3.920137,-0.78927666,-0.8793304,14.176544,-0.88773155,-9.093531
0.91582555,2.9045248,2.994422,-0.7871461,-1.0902528,14.258528,-0.76604176,-9.137506
0.91671747,2.908692,2.994422,-0.7871461,-1.0902528,14.263878,-0.74014544,-9.138466
0.91765654,2.9122036,2.0612504,-0.78821135,-1.292653,14.020493,-0.61266685,-9.054604
0.9185908,2.9157186,2.0612504,-0.78821135,-1.292653,14.0260725,-0.5905533,-9.05698
0.9195549,2.9185612,1.1355355,-0.78181976,-1.4886616,13.39019,-0.5531812,-8.715791
0.92051756,2.9214163,1.1355355,-0.78181976,-1.4886616,13.395927,-0.53492093,-8.719401
0.9214975,2.9236069,0.2279302,-0.7658408,-1.6718872,12.635613,-0.54446673,-8.19255
0.92247784,2.9258125,0.2279302,-0.7658408,-1.6718872,12.641441,-0.5300045,-8.197231
0.92346084,2.9273543,-0.650913,-0.74347025,-1.8380684,11.972111,-0.5194135,-7.6042633
0.9244421,2.9289043,-0.650913,-0.74347025,-1.8380684,11.97794,-0.50880027,-7.609848
0.92541796,2.9298227,-1.4924719,-0.70831656,-1.9808139,11.131376,-0.7604406,-6.8213224
0.92639387,2.930749,-1.4924719,-0.70831656,-1.9808139,11.13715,-0.75347376,-6.8276772
0.927357,2.9310625,-2.2892897,-0.67209756,-2.1033192,10.568231,-1.2289181,-5.987154
0.9283264,2.9313836,-2.2892897,-0.67209756,-2.1033192,10.57395,-1.2254708,-5.9942245
0.9292791,2.9311137,-3.0339096,-0.6433354,-2.2045193,10.531682,-1.6468383,-5.3602533
0.93023705,2.9308476,-3.0339096,-0.6433354,-2.2045193,10.5373125,-1.6467898,-5.3679686
0.93023705,2.9308476,-3.7273967,-0.6284217,-2.28761,10.5373125,-1.6467898,-5.3679686
0.9314276,2.9298196,-3.7273967,-0.6284217,-2.28761,10.486856,-2.0337992,-4.779873
0.93317854,2.9279335,-4.3718815,-0.6230954,-2.3504605,10.367838,-2.4439158,-3.8907232
0.9341297,2.9266071,-4.3718815,-0.6230954,-2.3504605,10.373405,-2.4499025,-3.899724
0.93513167,2.924715,-4.9694953,-0.629487,-2.3909407,10.020134,-2.9282713,-2.9234295
0.9361427,2.9228175,-4.9694953,-0.629487,-2.3909407,10.026036,-2.9373567,-2.9336424
0.937181,2.9204214,-5.521302,-0.6454659,-2.4101155,9.543672,-3.4807067,-1.8577538
0.9382256,2.918026,-5.521302,-0.6454659,-2.4101155,9.549756,-3.4924803,-1.8689137
0.93930686,2.9151359,-6.0262375,-0.66677123,-2.407985,9.211273,-3.9857833,-1.0095406
0.9403947,2.9122486,-6.0262375,-0.66677123,-2.407985,9.217586,-4.0001574,-1.0217476
0.94152755,2.9088757,-6.488562,-0.6934028,-2.3845491,9.176264,-4.7162313,-0.06773949
0.9426655,2.9055114,-6.488562,-0.6934028,-2.3845491,9.182856,-4.733064,-0.081067085
0.943851,2.901657,-6.909342,-0.72109973,-2.3366122,9.151398,-5.5569305,0.8238802
0.9450425,2.8978117,-6.909342,-0.72109973,-2.3366122,9.158272,-5.5761905,0.8093462
0.94627196,2.893491,-7.28538,-0.7477313,-2.2663047,9.117466,-6.4071736,1.67484
0.9475155,2.889153,-7.28538,-0.7477313,-2.2663047,9.124617,-6.4288745,1.6590443
0.9487845,2.884347,-7.615612,-0.77116716,-2.1778877,9.213297,-7.1616907,2.3701115
0.9500603,2.8795493,-7.615612,-0.77116716,-2.1778877,9.220606,-7.1856313,2.3531904
0.9513494,2.8743002,-7.8989725,-0.79140717,-2.0756223,9.682881,-7.939737,2.9866
0.95264626,2.8690596,-7.8989725,-0.79140717,-2.0756223,9.690277,-7.9657955,2.9686022
0.95394236,2.8634007,-8.139722,-0.80419034,-1.9605738,9.826953,-8.7601385,3.4286737
0.9552629,2.8576758,-8.139722,-0.80419034,-1.9605738,9.834461,-8.788477,3.4094534
0.95653975,2.851702,-8.338926,-0.80738616,-1.8380684,9.817768,-9.584239,3.8927975
0.9578404,2.8456569,-8.338926,-0.80738616,-1.8380684,9.825134,-9.614013,3.8728848
0.95911145,2.839273,-8.495521,-0.8020598,-1.7091714,9.808384,-10.449951,4.1301947
0.95911145,2.839273,-8.495521,-0.8020598,-1.7091714,9.808384,-10.449951,4.1301947
0.96167517,2.8261745,-8.609504,-0.794603,-1.5728176,10.000014,-11.170061,4.5620975
0.96291524,2.819535,-8.609504,-0.794603,-1.5728176,10.006988,-11.202389,4.540882
0.96412176,2.8125646,-8.685138,-0.7839503,-1.4343332,10.262761,-11.791808,4.7441854
0.96533775,2.8055792,-8.685138,-0.7839503,-1.4343332,10.269577,-11.825606,4.722109
0.96649367,2.7983694,-8.724552,-0.76157975,-1.292653,10.343079,-12.334583,4.8434973
0.96765745,2.7911434,-8.724552,-0.76157975,-1.292653,10.349586,-12.369341,4.820915
0.96874887,2.7837214,-8.732009,-0.7285566,-1.1488423,10.312576,-12.869571,4.836567
0.9698466,2.7762907,-8.732009,-0.7285566,-1.1488423,10.31869,-12.905121,4.8136015
0.970868,2.7686977,-8.714965,-0.6934028,-1.0103579,10.491959,-13.27669,4.7092285
0.9718945,2.7610953,-8.714965,-0.6934028,-1.0103579,10.49766,-13.312865,4.685953
0.97284174,2.7533727,-8.67342,-0.6550533,-0.88252616,10.852462,-13.641756,4.4568586
0.97379357,2.745641,-8.67342,-0.6550533,-0.88252616,10.857728,-13.678349,4.433345
0.97466123,2.7378237,-8.61483,-0.6103122,-0.7642818,11.250386,-14.045805,4.256789
0.9755331,2.7299974,-8.61483,-0.6103122,-0.7642818,11.2552,-14.082657,4.233139
0.97631586,2.722127,-8.540261,-0.5559837,-0.6577554,11.297827,-14.636938,3.9990978
0.9771018,2.7142484,-8.540261,-0.5559837,-0.6577554,11.302155,-14.673867,3.975422
0.9777963,2.7063646,-8.446518,-0.49526364,-0.55975103,10.740946,-14.734842,3.7462387
0.9784945,2.698466,-8.446518,-0.49526364,-0.55975103,10.744783,-14.771715,3.7226257
0.9790977,2.690602,-8.335731,-0.4313478,-0.47346464,11.365798,-15.32088,3.5415
0.9797026,2.6827395,-8.335731,-0.4313478,-0.47346464,11.369116,-15.357458,3.5181065
0.9802201,2.6749442,-8.216421,-0.36636665,-0.39996138,10.399904,-15.580553,2.8679657
0.9807406,2.6671271,-8.216421,-0.36636665,-0.39996138,10.402755,-15.616785,2.844761
0.98118496,2.6593943,-8.084329,-0.3141687,-0.333915,10.433918,-16.188986,2.5874186
0.9816315,2.6516562,-8.084329,-0.3141687,-0.333915,10.43636,-16.224703,2.5644197
0.982023,2.644008,-7.938387,-0.28114548,-0.27852124,10.807211,-16.60955,2.4891167
0.98241615,2.6363554,-7.938387,-0.28114548,-0.27852124,10.809356,-16.644663,2.466199
0.9827564,2.6288216,-7.7796626,-0.24599177,-0.23271486,11.146402,-17.16764,2.3527393
0.98309827,2.6212769,-7.7796626,-0.24599177,-0.23271486,11.148268,-17.202063,2.3299713
0.9833813,2.6139023,-7.6017637,-0.20125066,-0.19223481,11.173753,-17.614012,2.168974
0.9836656,2.6065173,-7.6017637,-0.20125066,-0.19223481,11.175304,-17.647545,2.1465645
0.98389167,2.5993316,-7.4036245,-0.1490527,-0.16347267,10.96106,-17.938787,2.0482712
0.98411894,2.5921435,-7.4036245,-0.1490527,-0.16347267,10.9622965,-17.971292,2.0263462
0.98411894,2.5921435,-7.4036245,-0.1490527,-0.16347267,10.9622965,-17.971292,2.0263462
0.98411894,2.5921435,-7.4036245,-0.1490527,-0.16347267,10.9622965,-17.971292,2.0263462
0.98411894,2.5921435,-7.4036245,-0.1490527,-0.16347267,10.9622965,-17.971292,2.0263462
0.98411894,2.5921435,-6.955148,-0.036134668,-0.14323264,10.9622965,-17.971292,2.0263462
0.98468333,2.5597334,-6.7058764,0.0277812,-0.14323264,11.381963,-17.926258,1.5016956
0.984708,2.5574746,-6.7058764,0.0277812,-0.14323264,11.382096,-17.936409,1.4947586
0.9847691,2.551961,-6.449147,0.10021918,-0.14855897,11.382429,-17.961119,1.2443657
0.9847809,2.5461037,-6.449147,0.10021918,-0.14855897,11.741624,-17.58049,1.2443657
0.984795,2.5399132,-6.1913533,0.18437508,-0.16027687,11.741697,-17.608257,1.2252827
0.984748,2.5342462,-6.1913533,0.18437508,-0.16027687,11.7031355,-17.825386,1.1123066
0.9847016,2.528465,-5.9303637,0.27811834,-0.1805169,11.702882,-17.851389,1.0945854
0.9845939,2.5231466,-5.9303637,0.27811834,-0.1805169,11.611317,-18.04791,1.1264706
0.98448616,2.517738,-5.6608515,0.36547002,-0.20927905,11.107128,-18.194725,1.0239906
0.9841833,2.5080967,-5.6608515,0.36547002,-0.20927905,11.1062975,-18.21685,1.0093575
0.9841833,2.5080967,-5.6608515,0.36547002,-0.20927905,11.1062975,-18.21685,1.0093575
0.9837989,2.4990213,-5.3774915,0.44110382,-0.24336751,11.262222,-17.875376,0.8723049
0.9835806,2.4949424,-5.085609,0.5039544,-0.2763907,11.998449,-17.439322,0.95614624
0.98335975,2.4907603,-5.085609,0.5039544,-0.2763907,11.997242,-17.458586,0.9438057
0.9831027,2.4869893,-4.7894654,0.5785229,-0.30728337,11.478692,-17.356497,1.0239639
0.98284847,2.4832227,-4.7894654,0.5785229,-0.30728337,11.477304,-17.37405,1.0130711
0.98255205,2.4798641,-4.489061,0.6616135,-0.33817604,10.709541,-17.36129,1.1426077
0.982258,2.4765065,-4.489061,0.6616135,-0.33817604,10.707941,-17.377218,1.1332169
0.98193675,2.4735546,-4.178004,0.7244642,-0.37013397,10.845048,-17.362791,1.2641754
0.9816167,2.4705913,-4.178004,0.7244642,-0.37013397,10.843298,-17.37712,1.256175
0.9812776,2.4680526,-3.8509674,0.77559686,-0.39570034,11.190994,-17.499842,1.647129
0.9809384,2.4654984,-3.8509674,0.77559686,-0.39570034,11.18914,-17.512487,1.6405678
0.9805701,2.4633646,-3.5058217,0.8341864,-0.4138098,10.904607,-17.863457,2.1383762
0.9802037,2.4612308,-3.5058217,0.8341864,-0.4138098,10.902598,-17.874432,2.13336
0.97980356,2.459536,-3.1372402,0.8959717,-0.4287235,10.483815,-18.24284,2.8004284
0.97940505,2.4578404,-3.1372402,0.8959717,-0.4287235,10.481628,-18.252108,2.7970877
0.9789733,2.456595,-2.7398965,0.9481697,-0.43618038,10.369129,-18.336246,3.3796864
0.9785432,2.4553487,-2.7398965,0.9481697,-0.43618038,10.366766,-18.343767,3.378069
0.9780804,2.4545522,-2.3201823,0.989715,-0.4329846,10.43605,-18.148434,3.9001522
0.97761875,2.453755,-2.3201823,0.989715,-0.4329846,10.433509,-18.154213,3.900279
0.977123,2.4534118,-1.8834239,1.0269992,-0.42233193,10.339802,-18.028954,4.3810434
0.9766275,2.4530675,-1.8834239,1.0269992,-0.42233193,10.337074,-18.032984,4.382963
0.9760964,2.4531753,-1.4349476,1.0600225,-0.40315717,10.018112,-18.035276,4.9134054
0.9755651,2.4532814,-1.4349476,1.0600225,-0.40315717,10.015182,-18.037575,4.917121
0.97500813,2.453837,-0.9736881,1.0781319,-0.38291714,9.787052,-18.14822,5.415781
0.97445065,2.45439,-0.9736881,1.0781319,-0.38291714,9.783973,-18.14874,5.4212275
0.97387695,2.4553757,-0.50710225,1.0770667,-0.3573508,9.809531,-17.836239,5.595888
0.9732951,2.45637,-0.50710225,1.0770667,-0.3573508,9.806313,-17.83498,5.603038
0.9732951,2.45637,-0.50710225,1.0770667,-0.3573508,9.806313,-17.83498,5.603038
0.9725044,2.458297,-0.037320644,1.057892,-0.333915,9.773205,-17.476433,5.758423
0.9715741,2.460828,0.42606938,1.0280645,-0.3147402,9.293991,-17.250034,5.9694614
0.9710145,2.4626126,0.42606938,1.0280645,-0.3147402,9.290882,-17.24519,5.979224
0.97046673,2.4648001,0.8841331,0.98545396,-0.29236966,9.268686,-17.18105,6.181855
0.9699141,2.466998,0.8841331,0.98545396,-0.29236966,9.2656145,-17.17432,6.192997
0.96939707,2.4695559,1.3336747,0.9247339,-0.27106437,8.68334,-16.950329,6.2530413
0.9688774,2.472113,1.3336747,0.9247339,-0.27106437,8.680445,-16.941792,6.265189
0.9684002,2.4750187,1.7768247,0.84803486,-0.24869382,8.907629,-16.49094,6.0819407
0.9679216,2.477919,1.7768247,0.84803486,-0.24869382,8.904959,-16.48061,6.0949726
0.96748495,2.4811459,2.2103875,0.7670747,-0.22312748,9.697399,-15.549206,5.9939165
0.9670466,2.4843702,2.2103875,0.7670747,-0.22312748,9.694949,-15.537142,6.0077467
0.9666422,2.4879239,2.6205142,0.7084852,-0.1954306,7.8252106,-15.944777,5.869217
0.96623534,2.4914744,2.6205142,0.7084852,-0.1954306,7.822937,-15.930992,5.8838806
0.9658785,2.4953144,3.0167925,0.62219876,-0.17092952,8.285416,-15.944342,5.8799963
0.96551925,2.4991555,3.0167925,0.62219876,-0.17092952,8.283403,-15.928899,5.895239
0.9652238,2.5032551,3.413071,0.5124765,-0.14216739,9.454912,-15.859242,5.556533
0.9649269,2.5073571,3.413071,0.5124765,-0.14216739,9.453247,-15.842188,5.5721235
0.9646758,2.5117364,3.8029578,0.4261901,-0.10807892,9.609857,-15.579376,5.2291307
0.96442306,2.5161138,3.8029578,0.4261901,-0.10807892,9.60844,-15.560712,5.2451973
0.96418846,2.520792,4.187518,0.3750574,-0.06759887,8.788307,-15.30588,4.653923
0.963943,2.5256505,4.187518,0.3750574,-0.06759887,8.78693,-15.284819,4.671342
0.9637263,2.5304594,4.5624914,0.32818577,-0.024988292,8.369123,-14.789705,4.0993395
0.963502,2.5354161,4.5624914,0.32818577,-0.024988292,8.367861,-14.767914,4.1167345
0.9632983,2.540628,4.9182897,0.26640043,0.021883344,8.3332,-14.045641,3.5122108
0.96309423,2.545828,4.9182897,0.26640043,0.021883344,8.332052,-14.022432,3.5300274
0.9629144,2.5512686,5.246391,0.19715825,0.07301604,8.350195,-13.557361,2.8252697
0.96273386,2.5567076,5.246391,0.19715825,0.07301604,8.34918,-13.532725,2.8434286
0.9625848,2.5623274,5.5446653,0.12152447,0.12627926,8.262153,-13.296307,2.359024
0.9624356,2.5679457,5.5446653,0.12152447,0.12627926,8.261315,-13.270475,2.3772554
0.96233094,2.5737147,5.8152423,0.03523805,0.17528142,8.145801,-13.0999775,1.9118652
0.9622264,2.579483,5.8152423,0.03523805,0.17528142,8.145215,-13.073025,1.9299545
0.96217924,2.5853686,6.060253,-0.06489681,0.22215307,8.235927,-12.911085,1.4642067
0.96213293,2.5912535,6.060253,-0.06489681,0.22215307,8.235667,-12.883111,1.481925
0.9621556,2.5972228,6.2839584,-0.17781484,0.27115524,8.360293,-12.73463,1.0922327
0.96217954,2.603192,6.2839584,-0.17781484,0.27115524,8.360427,-12.7057495,1.1093721
0.96228504,2.609219,6.484228,-0.30138552,0.3137658,8.533403,-12.254776,0.6806164
0.96239257,2.6152472,6.484228,-0.30138552,0.3137658,8.534009,-12.225073,0.6969881
0.9625897,2.621338,6.6589317,-0.428152,0.34891954,8.865517,-11.739712,0.38711452
0.9627889,2.627418,6.6589317,-0.428152,0.34891954,8.866639,-11.709205,0.40261936
0.9630802,2.6335244,6.8027425,-0.5506574,0.37874693,8.882642,-11.371665,0.16356754
0.963375,2.6396332,6.8027425,-0.5506574,0.37874693,8.884293,-11.340484,0.17808247
0.9637562,2.6457396,6.9167256,-0.665706,0.4064438,9.068395,-10.968925,0.014613152
0.9641427,2.6518736,6.9167256,-0.665706,0.4064438,9.070563,-10.937122,0.02814579
0.9646111,2.6579568,6.9966207,-0.7722324,0.42987964,9.346127,-10.641834,0.035964012
0.9650836,2.6640491,6.9966207,-0.7722324,0.42987964,9.348782,-10.609791,0.04836178
0.9656283,2.6701102,7.0445576,-0.8617146,0.45438072,9.323099,-10.41478,0.007276535
0.96617794,2.6761813,7.0445576,-0.8617146,0.45438072,9.32617,-10.382459,0.01864338
0.9667827,2.6821885,7.0658627,-0.9320221,0.4788818,9.257729,-10.240084,0.09628296
0.9673928,2.6882057,7.0658627,-0.9320221,0.4788818,9.261136,-10.207731,0.10666084
0.9680542,2.69416,7.063732,-0.99167687,0.49805656,9.255253,-10.165903,0.31262875
0.96872085,2.700125,7.063732,-0.99167687,0.49805656,9.25897,-10.133553,0.32204723
0.9694271,2.7060108,7.0402966,-1.0385485,0.51616603,9.28206,-10.12059,0.38824368
0.97013825,2.7119014,7.0402966,-1.0385485,0.51616603,9.286012,-10.088413,0.39674282
0.9708811,2.7177088,6.99449,-1.072637,0.5332103,8.983684,-10.085264,0.5482664
0.97162867,2.7235205,6.99449,-1.072637,0.5332103,8.987834,-10.053329,0.5559101
0.9723995,2.7292292,6.9295087,-1.0992686,0.54918927,8.85804,-10.012255,0.6635084
0.97317743,2.734954,6.9295087,-1.0992686,0.54918927,8.862343,-9.980643,0.67033005
0.9739679,2.7405574,6.844288,-1.1173781,0.56623346,8.608147,-9.662298,0.67181396
0.97476494,2.7461767,6.844288,-1.1173781,0.56623346,8.612552,-9.631155,0.67787457
0.97557366,2.7516742,6.7377615,-1.1259001,0.58434296,7.6114483,-9.638904,0.6019993
0.97638524,2.7571652,6.7377615,-1.1259001,0.58434296,7.615924,-9.60837,0.6073055
0.9771988,2.762506,6.606734,-1.1354876,0.60245246,7.9651694,-9.157225,0.49239826
0.9780169,2.7678509,6.606734,-1.1354876,0.60245246,7.9696717,-9.127428,0.49699688
0.97883,2.773024,6.4480095,-1.1376181,0.62056196,7.36122,-8.590964,-0.011239052
0.97964895,2.7782116,6.4480095,-1.1376181,0.62056196,7.3657146,-8.56199,-0.0072984695
0.9804449,2.7831862,6.2509356,-1.1344223,0.6354757,7.7483606,-7.6100225,-0.6932888
0.9812452,2.7881646,6.2509356,-1.1344223,0.6354757,7.752742,-7.5821967,-0.68992615
0.98201764,2.7928739,6.0101857,-1.1354876,0.64080197,9.025894,-6.310859,-1.6734133
0.9827953,2.7975912,6.0101857,-1.1354876,0.64080197,9.030142,-6.284466,-1.6706553
0.98355186,2.8020024,5.708716,-1.1269655,0.6322799,10.063773,-5.2062697,-2.650052
0.9843112,2.8064115,5.708716,-1.1269655,0.6322799,10.067914,-5.1815386,-2.6479692
0.9850603,2.8104753,5.3380036,-1.1120517,0.604583,11.010513,-4.4882517,-3.4462032
0.9858129,2.8145416,5.3380036,-1.1120517,0.604583,11.0146055,-4.4653378,-3.4448996
0.9865618,2.8182194,4.8980494,-1.0950075,0.5609072,11.842274,-3.9656076,-3.9997997
0.9873152,2.8219066,4.8980494,-1.0950075,0.5609072,11.846365,-3.9446783,-3.9993458
0.98806983,2.8251693,4.4027014,-1.0768981,0.5055134,12.750671,-3.5189333,-4.4833326
0.98882705,2.828434,4.4027014,-1.0768981,0.5055134,12.754776,-3.500208,-4.483778
0.98958296,2.8312597,3.8626125,-1.052397,0.439467,13.175452,-3.40236,-4.757949
0.99034256,2.8340926,3.8626125,-1.052397,0.439467,13.17955,-3.3858888,-4.7592516
0.9910891,2.8364725,3.288435,-1.0140474,0.36596376,13.31765,-3.6303716,-4.794759
0.9918398,2.8388631,3.288435,-1.0140474,0.36596376,13.321702,-3.616233,-4.7968025
0.99256814,2.8408062,2.696148,-0.9607842,0.28606892,13.411804,-4.0306344,-4.593525
0.99329585,2.8427463,2.696148,-0.9607842,0.28606892,13.415719,-4.018901,-4.596175
0.99398667,2.8442588,2.100665,-0.8894115,0.20084777,13.443367,-4.59365,-4.278412
0.9946783,2.8457718,2.100665,-0.8894115,0.20084777,13.447084,-4.584222,-4.281498
0.9953132,2.846876,1.5158349,-0.79779875,0.11562662,13.31641,-5.2474136,-3.8107347
0.9959494,2.8479817,1.5158349,-0.79779875,0.11562662,13.31981,-5.2402267,-3.8140469
0.9965116,2.848704,0.95550585,-0.6880765,0.036797047,13.059458,-6.006119,-3.1613636
0.9970746,2.8494275,0.95550585,-0.6880765,0.036797047,13.0624695,-6.0010757,-3.1647024
0.99754953,2.8497958,0.4292652,-0.5655711,-0.035640936,12.772909,-6.7258997,-2.5693464
0.9980247,2.8501644,0.4292652,-0.5655711,-0.035640936,12.775439,-6.722887,-2.572545
0.9984076,2.8502073,-0.0596912,-0.44093516,-0.102752596,12.42314,-7.3107324,-2.0440016
0.9987908,2.8502502,-0.0596912,-0.44093516,-0.102752596,12.4251795,-7.3096023,-2.0469723
0.9990821,2.8499885,-0.506037,-0.32162553,-0.1592116,12.259136,-7.832181,-1.6905518
0.9993737,2.8497264,-0.506037,-0.32162553,-0.1592116,12.26069,-7.8328238,-1.693264
0.9995811,2.8491857,-0.91296804,-0.21296857,-0.21140957,12.228276,-8.3330765,-1.5377178
0.9997884,2.8486454,-0.91296804,-0.21296857,-0.21140957,12.229385,-8.335333,-1.5401878
0.99992406,2.8478496,-1.2847453,-0.11922529,-0.261477,12.206158,-8.655095,-1.5233364
1.0000603,2.8470495,-1.2847453,-0.11922529,-0.261477,12.206881,-8.658838,-1.5256491
1.0001365,2.8460145,-1.6256299,-0.03933046,-0.31154442,11.97266,-8.912916,-1.5900993
1.0002116,2.8449998,-1.6256299,-0.03933046,-0.31154442,11.973061,-8.917894,-1.592267
1.0002381,2.8437865,-1.9420135,0.0277812,-0.35841608,11.81039,-9.067648,-1.6039448
1.000265,2.842553,-1.9420135,0.0277812,-0.35841608,11.810535,-9.073847,-1.6060839
1.0002538,2.8411107,-2.2413528,0.08317495,-0.40209192,11.733864,-9.196119,-1.593894
1.0002437,2.8396685,-2.2413528,0.08317495,-0.40209192,11.733803,-9.203465,-1.5960884
1.0001998,2.8380222,-2.5257785,0.13324238,-0.44044143,11.637809,-9.369941,-1.4163876
1.0001571,2.8363762,-2.5257785,0.13324238,-0.44044143,11.637583,-9.378393,-1.4186745
1.0001571,2.8363762,-2.5257785,0.13324238,-0.44044143,11.637583,-9.378393,-1.4186745
1.00006,2.8338068,-2.7952902,0.1779835,-0.47559515,11.440737,-9.683752,-1.2257051
0.99992085,2.8305974,-3.0488234,0.22378986,-0.50542253,11.468725,-10.01639,-0.94249916
0.99992085,2.8305974,-3.0488234,0.22378986,-0.50542253,11.468725,-10.01639,-0.94249916
0.99992085,2.8305974,-3.0488234,0.22378986,-0.50542253,11.468725,-10.01639,-0.94249916
0.99971914,2.8263402,-3.2885077,0.26426992,-0.5320542,11.467655,-10.038444,-0.9478836
0.99955916,2.8233688,-3.506887,0.30368468,-0.5544247,11.4807415,-10.726551,0.14336014
0.99947816,2.8220072,-3.506887,0.30368468,-0.5544247,11.4807415,-10.726551,0.14336014
0.9993318,2.819518,-3.7007651,0.34736055,-0.5704037,11.479961,-10.739506,0.14033508
0.9991678,2.8170402,-3.7007651,0.34736055,-0.5704037,11.25882,-11.236071,0.74076843
0.9989871,2.8142786,-3.8680117,0.3899711,-0.5853174,11.257858,-11.250479,0.73747826
0.9988064,2.8117824,-3.8680117,0.3899711,-0.5853174,11.003113,-11.78548,1.4097681
0.9986203,2.80918,-3.8680117,0.3899711,-0.5853174,11.002121,-11.799091,1.4067192
0.9983898,2.8062382,-4.006496,0.43045115,-0.5970353,10.88118,-12.302943,2.05939
0.99797696,2.8008957,-4.006496,0.43045115,-0.5970353,10.878983,-12.330949,2.0531702
0.99775845,2.7982426,-4.115153,0.46453962,-0.60555744,10.686279,-12.876398,2.6917686
0.99749994,2.7953258,-4.1897216,0.49756283,-0.60981846,10.478998,-13.384976,3.258338
0.99724495,2.7924237,-4.1897216,0.49756283,-0.60981846,10.477635,-13.400259,3.2550392
0.9969684,2.7894838,-4.2333975,0.526325,-0.611949,10.370812,-13.861111,3.7354212
0.9966953,2.7865562,-4.2333975,0.526325,-0.611949,10.369354,-13.876567,3.7321243
0.99640274,2.7836094,-4.2451153,0.54976076,-0.60981846,10.228927,-14.323128,4.0688686
0.9961132,2.780669,-4.2451153,0.54976076,-0.60981846,10.227379,-14.33869,4.0655756
0.99580306,2.7777042,-4.2259407,0.5689355,-0.6044921,10.2017765,-14.651308,4.3735924
0.9955022,2.774807,-4.2259407,0.5689355,-0.6044921,10.20017,-14.666679,4.3703766
0.99518794,2.7719455,-4.1801343,0.58384925,-0.5970353,10.222426,-14.897388,4.6258516
0.99487454,2.7690725,-4.1801343,0.58384925,-0.5970353,10.220747,-14.912671,4.6226826
0.9945464,2.7662542,-4.111957,0.5976977,-0.5863827,10.175896,-15.08095,4.701089
0.9942226,2.7634509,-4.111957,0.5976977,-0.5863827,10.174156,-15.095915,4.69804
0.9938853,2.7607148,-4.0246053,0.61048084,-0.5767953,10.177134,-15.196774,4.9920673
0.9935529,2.7580035,-4.0246053,0.61048084,-0.5767953,10.175349,-15.211299,4.9891806
0.9932058,2.755358,-3.9223402,0.6211335,-0.5661426,10.178275,-15.326102,5.0439606
0.99285656,2.7526813,-3.9223402,0.6211335,-0.5661426,10.176397,-15.340508,5.0411844
0.9924994,2.750145,-3.805161,0.6328514,-0.5544247,10.155325,-15.478739,5.230262
0.992146,2.7476192,-3.805161,0.6328514,-0.5544247,10.153423,-15.492408,5.227749
0.99177825,2.745196,-3.6773293,0.6435041,-0.54164153,10.156233,-15.711513,5.3643885
0.9914102,2.7427585,-3.6773293,0.6435041,-0.54164153,10.15425,-15.724791,5.3620987
0.9910353,2.7404687,-3.5388448,0.6520262,-0.53311944,10.238422,-15.9336815,5.4367504
0.9906625,2.7381794,-3.5388448,0.6520262,-0.53311944,10.236411,-15.946242,5.434739
0.9902842,2.7360404,-3.3886425,0.659483,-0.5320542,10.191276,-16.168766,5.5384054
0.98990697,2.7338974,-3.3886425,0.659483,-0.5320542,10.189239,-16.18062,5.536684
0.98952496,2.7319052,-3.2341793,0.66480935,-0.5320542,10.124927,-16.2923,5.4969807
0.9891486,2.729933,-3.2341793,0.66480935,-0.5320542,10.12289,-16.303308,5.4955606
0.9887701,2.7281163,-3.071194,0.66693985,-0.5363152,10.053804,-16.32313,5.427433
0.98838973,2.7262833,-3.071194,0.66693985,-0.5363152,10.05175,-16.33347,5.4263077
0.98802197,2.7246654,-2.9039474,0.6658746,-0.54270685,10.054546,-16.246931,5.238778
0.9876548,2.7230427,-2.9039474,0.6658746,-0.54270685,10.052557,-16.256191,5.237973
0.98729354,2.721591,-2.7356355,0.6616135,-0.5522942,10.007501,-16.130512,4.993267
0.9869337,2.7201402,-2.7356355,0.6616135,-0.5522942,10.00555,-16.138899,4.99275
0.98658544,2.718869,-2.5694542,0.65522194,-0.56507736,9.92705,-16.045805,4.8584614
0.98623854,2.7175977,-2.5694542,0.65522194,-0.56507736,9.925167,-16.053268,4.858222
0.9859056,2.7165024,-2.4054036,0.6456346,-0.5767953,9.832376,-15.935314,4.6236267
0.9855737,2.7154067,-2.4054036,0.6456346,-0.5767953,9.83057,-15.941863,4.6236467
0.9852569,2.7144885,-2.2445486,0.6360472,-0.59170896,9.723503,-15.846925,4.3605833
0.9849407,2.7135699,-2.2445486,0.6360472,-0.59170896,9.721786,-15.852548,4.3608713
0.9846456,2.712825,-2.0858243,0.62219876,-0.60768795,9.662719,-15.804567,4.347022
0.98434937,2.7120755,-2.0858243,0.62219876,-0.60768795,9.661106,-15.809288,4.347534
0.98407954,2.7115014,-1.9249693,0.603024,-0.62579745,9.650061,-15.784321,4.3243
0.9838102,2.7109268,-1.9249693,0.603024,-0.62579745,9.648592,-15.788088,4.324998
0.9835636,2.7105255,-1.763049,0.5849145,-0.6417764,9.61852,-15.589806,4.1391764
0.98331773,2.710124,-1.763049,0.5849145,-0.6417764,9.617177,-15.592637,4.140091
0.9830985,2.7098958,-1.597933,0.56360924,-0.6566901,9.424446,-15.40777,4.0645866
0.98287815,2.709666,-1.597933,0.56360924,-0.6566901,9.423244,-15.409664,4.0657005
0.9826876,2.7096107,-1.4317518,0.5380429,-0.67373437,9.585008,-14.960482,3.8946018
0.9824973,2.709555,-1.4317518,0.5380429,-0.67373437,9.583965,-14.961412,3.8958902
0.9823377,2.7096674,-1.2677011,0.50928074,-0.6897133,9.75548,-14.420311,3.729743
0.9821779,2.7097793,-1.2677011,0.50928074,-0.6897133,9.754605,-14.420302,3.731184
0.982046,2.7100558,-1.110042,0.4869102,-0.7035617,9.174493,-13.954906,3.6849146
0.98191357,2.7103333,-1.110042,0.4869102,-0.7035617,9.173766,-13.953982,3.686533
0.9818032,2.7107677,-0.965166,0.4719965,-0.7174102,8.421385,-14.19641,3.6021566
0.98168963,2.7112122,-0.965166,0.4719965,-0.7174102,8.420763,-14.194591,3.6040144
0.98162776,2.7117724,-0.81602895,0.42192906,-0.7344544,9.674987,-14.172864,3.8020763
0.9815642,2.712341,-0.81602895,0.42192906,-0.7344544,9.674639,-14.170254,3.8038435
0.98154783,2.7130408,-0.6647614,0.3729269,-0.74510705,9.6793375,-14.027966,3.4607897
0.9815309,2.7137463,-0.6647614,0.3729269,-0.74510705,9.679242,-14.024513,3.4625168
0.9815367,2.7146046,-0.5124286,0.34949106,-0.7525639,9.463797,-13.594056,3.181902
0.98154175,2.715463,-0.5124286,0.34949106,-0.7525639,9.463827,-13.589764,3.1838112
0.98156756,2.7164755,-0.3686179,0.32925105,-0.76534706,9.3586235,-13.172831,2.7693129
0.98159254,2.7174883,-0.3686179,0.32925105,-0.76534706,9.358763,-13.167699,2.771411
0.98164165,2.7186463,-0.2397209,0.30474997,-0.7845219,9.823503,-12.611097,2.2708597
0.98164165,2.7186463,-0.2397209,0.30474997,-0.7845219,9.823503,-12.611097,2.2708597
0.98175,2.721049,-0.13532497,0.28664047,-0.8047619,9.962956,-12.124698,1.7199736
0.98181516,2.7223308,-0.13532497,0.28664047,-0.8047619,9.963317,-12.11808,1.7223454
0.9818939,2.723719,-0.058625933,0.2770531,-0.8271324,9.824879,-11.809219,1.2412109
0.9819714,2.7251167,-0.058625933,0.2770531,-0.8271324,9.825306,-11.801977,1.2437277
0.98206383,2.7265923,-0.010689033,0.26640043,-0.8516335,9.835386,-11.54051,0.8440666
0.9821545,2.7280655,-0.010689033,0.26640043,-0.8516335,9.835878,-11.532843,0.8466234
0.98226726,2.7295892,0.013812049,0.24722567,-0.8761346,9.917899,-11.256695,0.49956512
0.9823786,2.7311168,0.013812049,0.24722567,-0.8761346,9.918513,-11.248683,0.5020685
0.9825155,2.732665,0.015942577,0.2259204,-0.8995704,9.727724,-11.0681,0.2697773
0.98265153,2.7342234,0.015942577,0.2259204,-0.8995704,9.728466,-11.059847,0.27213192
0.98281676,2.7357829,-0.0021669175,0.20141931,-0.9240715,9.595287,-11.017976,0.030044556
0.98298025,2.737343,-0.0021669175,0.20141931,-0.9240715,9.596181,-11.0096245,0.032172203
0.9831819,2.7388923,-0.03412485,0.16733085,-0.9517684,10.013875,-10.9389515,-0.06658554
0.9831819,2.7388923,-0.03412485,0.16733085,-0.9517684,10.013875,-10.9389515,-0.06658554
0.9833816,2.7404366,-0.03412485,0.16733085,-0.9517684,10.014959,-10.930559,-0.06479645
0.9838564,2.7434635,-0.07993122,0.13111185,-0.9762694,10.142048,-10.909057,-0.334898
0.9841271,2.7449381,-0.13532497,0.101284444,-1.0007706,9.961567,-10.967827,-0.5014267
0.9843974,2.746419,-0.13532497,0.101284444,-1.0007706,9.963035,-10.959533,-0.5003643
0.98470706,2.7478578,-0.19604504,0.06719598,-1.0252717,10.031759,-11.037518,-0.6050396
0.98501533,2.7492998,-0.19604504,0.06719598,-1.0252717,10.033436,-11.029301,-0.60436916
0.9853638,2.7506797,-0.26422197,0.028846465,-1.0465769,10.164618,-11.011696,-0.69512653
0.98571163,2.7520645,-0.26422197,0.028846465,-1.0465769,10.166513,-11.00365,-0.6948986
0.9860965,2.7533894,-0.33559468,-0.0052419985,-1.0678822,10.058466,-11.0341,-0.8339596
0.9864802,2.7547178,-0.33559468,-0.0052419985,-1.0678822,10.0605545,-11.026232,-0.8341465
0.98689955,2.7559876,-0.41548952,-0.035069402,-1.091318,9.842556,-11.095167,-0.99754524
0.9873174,2.7572608,-0.41548952,-0.035069402,-1.091318,9.844829,-11.08748,-0.9981308
0.9877678,2.7584653,-0.5017759,-0.063831545,-1.1126233,9.808958,-11.099195,-1.181078
0.98821694,2.7596734,-0.5017759,-0.063831545,-1.1126233,9.811396,-11.091746,-1.1820574
0.98869073,2.7608008,-0.59445393,-0.08726736,-1.1296675,9.871419,-11.118154,-1.4084578
0.9891633,2.7619307,-0.59445393,-0.08726736,-1.1296675,9.873971,-11.111038,-1.4097986
0.9896582,2.762975,-0.6956541,-0.107507385,-1.1467117,9.981991,-11.295826,-1.7179489
0.99015176,2.7640219,-0.6956541,-0.107507385,-1.1467117,9.984661,-11.289072,-1.7196321
0.990665,2.7649703,-0.8053763,-0.12987794,-1.1648213,10.710478,-10.775189,-2.0041904
0.9911815,2.7659302,-0.8053763,-0.12987794,-1.1648213,10.713259,-10.768814,-2.0062466
0.9917011,2.7667897,-0.92681646,-0.13520426,-1.1786697,10.1845455,-10.446905,-2.3724499
0.9922176,2.7676485,-0.92681646,-0.13520426,-1.1786697,10.187323,-10.441048,-2.3747177
0.9927408,2.7683985,-1.0610398,-0.1373348,-1.1946486,10.209293,-10.162778,-2.243184
0.993262,2.7691493,-1.0610398,-0.1373348,-1.1946486,10.212093,-10.157454,-2.2457151
0.9937975,2.7697754,-1.2059158,-0.14798744,-1.2074318,9.913307,-9.898931,-2.2007198
0.9943315,2.770403,-1.2059158,-0.14798744,-1.2074318,9.916169,-9.894196,-2.203601
0.9948867,2.7708828,-1.3593138,-0.16503167,-1.215954,10.153774,-9.540583,-1.957943
0.9954369,2.7713616,-1.3593138,-0.16503167,-1.215954,10.156721,-9.536549,-1.9612474
0.99600464,2.7716904,-1.5148424,-0.17888011,-1.2223456,9.733591,-9.557155,-1.4813538
0.9965772,2.7720246,-1.5148424,-0.17888011,-1.2223456,9.736656,-9.55378,-1.485115
0.9971806,2.772205,-1.6629142,-0.20444645,-1.2319329,10.065495,-9.598963,-0.9195967
0.99777937,2.7723866,-1.6629142,-0.20444645,-1.2319329,10.068686,-9.596273,-0.9238653
0.99841356,2.7724273,-1.7939417,-0.23427385,-1.2415203,10.598795,-9.493621,-0.3540678
0.9990474,2.7724705,-1.7939417,-0.23427385,-1.2415203,10.602167,-9.491515,-0.3588791
0.999707,2.772393,-1.9100555,-0.2534486,-1.2479119,10.653563,-9.437257,0.24400902
1.0003653,2.7723184,-1.9100555,-0.2534486,-1.2479119,10.657064,-9.435659,0.23878288
1.0010397,2.7721515,-2.0037987,-0.26197073,-1.2532382,10.564873,-9.420105,0.7934952
1.0017141,2.771987,-2.0037987,-0.26197073,-1.2532382,10.568451,-9.4189,0.78796864
1.0023952,2.7717507,-2.077302,-0.26516652,-1.256434,10.528967,-9.216913,1.1892662
1.0030767,2.7715173,-2.077302,-0.26516652,-1.256434,10.532572,-9.2160225,1.1835461
1.0037602,2.7712173,-2.1337612,-0.26303598,-1.2543035,10.77082,-9.086162,1.8145437
1.0044427,2.7709208,-2.1337612,-0.26303598,-1.2543035,10.774424,-9.085571,1.8086929
1.0051192,2.7705688,-2.1710453,-0.2545139,-1.2425855,10.811515,-9.109206,2.3486614
1.005795,2.77022,-2.1710453,-0.2545139,-1.2425855,10.815076,-9.108883,2.342762
1.0064495,2.769837,-2.1934159,-0.2300128,-1.2255414,10.440237,-9.238075,2.8541098
1.007104,2.7694561,-2.1934159,-0.2300128,-1.2255414,10.443686,-9.237963,2.8483143
1.0077293,2.7690573,-2.1987422,-0.19912013,-1.204236,9.963339,-9.391251,3.2209845
1.0083545,2.768661,-2.1987422,-0.19912013,-1.204236,9.966623,-9.391294,3.2153845
1.0089482,2.7682445,-2.1827633,-0.17568432,-1.1744087,10.213945,-9.324488,3.6122093
1.0095422,2.7678297,-2.1827633,-0.17568432,-1.1744087,10.217062,-9.324705,3.6068115
1.0101085,2.7674115,-2.145479,-0.15650955,-1.1424507,10.478599,-9.085601,3.821888
1.0106739,2.766996,-2.145479,-0.15650955,-1.1424507,10.481552,-9.085901,3.8167057
1.0112042,2.7665875,-2.093281,-0.13200846,-1.1041012,10.55615,-8.8707905,3.9650383
1.0117335,2.7661815,-2.093281,-0.13200846,-1.1041012,10.558915,-8.871143,3.9601536
1.0122229,2.7657866,-2.032561,-0.10431159,-1.0604254,10.571044,-8.61299,4.0370045
1.0127115,2.7653937,-2.032561,-0.10431159,-1.0604254,10.573589,-8.613398,4.0324583
1.0140312,2.7642539,-1.9025987,-0.054244164,-0.96987784,10.949169,-8.284459,3.9194717
1.0140312,2.7642539,-1.9025987,-0.054244164,-0.96987784,10.949169,-8.284459,3.9194717
1.0140312,2.7642539,-1.9025987,-0.054244164,-0.96987784,10.949169,-8.284459,3.9194717
1.0144429,2.7638836,-1.9025987,-0.054244164,-0.96987784,10.951307,-8.284982,3.9155645
1.0144429,2.7638836,-1.9025987,-0.054244164,-0.96987784,10.951307,-8.284982,3.9155645
1.0151623,2.7631764,-1.8376175,-0.027612552,-0.9198104,10.916738,-8.190407,3.7793312
1.0151623,2.7631764,-1.7694407,0.0011495883,-0.8676125,10.916738,-8.190407,3.7793312
1.0154964,2.76281,-1.7694407,0.0011495883,-0.8676125,10.92805,-8.124104,3.6802702
1.0159547,2.7622116,-1.7012637,0.030976992,-0.8111535,11.169843,-7.823899,3.4552898
1.0160286,2.7621152,-1.7012637,0.030976992,-0.8111535,11.170227,-7.824133,3.4545288
1.0162817,2.761786,-1.6362826,0.06719598,-0.75149864,11.171539,-7.824933,3.451933
1.0164907,2.7614474,-1.6362826,0.06719598,-0.75149864,10.837432,-7.8163366,3.301218
1.0166999,2.761109,-1.573432,0.10448024,-0.6897133,10.838515,-7.817314,3.2989435
1.0168544,2.7607532,-1.573432,0.10448024,-0.6897133,10.968605,-7.7562957,3.2300215
1.0170931,2.7600658,-1.5105814,0.13963397,-0.6247322,10.984205,-7.7205467,3.193327
1.0170931,2.7600658,-1.5105814,0.13963397,-0.6247322,10.9846945,-7.721991,3.1918879
1.0172219,2.759337,-1.4456003,0.17691822,-0.5576205,10.884312,-7.7954693,3.0759916
1.0172219,2.759337,-1.4456003,0.17691822,-0.5576205,10.884312,-7.7954693,3.0759916
1.0172619,2.75891,-1.4456003,0.17691822,-0.5576205,10.8845215,-7.7973943,3.0748644
1.017217,2.7582219,-1.3795539,0.21420248,-0.4894436,10.812462,-7.877451,3.021206
1.0171366,2.7578382,-1.3081812,0.24829094,-0.42233193,10.783315,-7.8939085,2.9732037
1.0170553,2.75745,-1.3081812,0.24829094,-0.42233193,10.782894,-7.896026,2.9730806
1.0169207,2.7570486,-1.2325474,0.27811834,-0.35202447,10.796567,-7.9606237,3.016449
1.0167863,2.7566464,-1.2325474,0.27811834,-0.35202447,10.795866,-7.962976,3.0167027
1.0166019,2.7562342,-1.1537178,0.30261943,-0.28065175,10.679994,-7.9798985,2.9024143
1.0164185,2.7558231,-1.1537178,0.30261943,-0.28065175,10.679045,-7.9824476,2.903036
1.0161927,2.7554107,-1.069562,0.32179418,-0.21460536,10.572529,-8.028234,2.8560963
1.0159664,2.754997,-1.069562,0.32179418,-0.21460536,10.571354,-8.030933,2.8570385
1.0157077,2.7545838,-0.9832755,0.33138156,-0.15388529,10.407209,-8.124714,2.843872
1.0154526,2.754176,-0.9832755,0.33138156,-0.15388529,10.405883,-8.127478,2.8450441
1.0151759,2.7537766,-0.8937933,0.3335121,-0.09849154,10.323046,-8.302654,2.8416166
1.0148989,2.7533767,-0.8937933,0.3335121,-0.09849154,10.321609,-8.30545,2.8429756
1.014608,2.7529862,-0.8011153,0.3271205,-0.045228317,10.238695,-8.432746,2.8444576
1.0143178,2.752596,-0.8011153,0.3271205,-0.045228317,10.237185,-8.435545,2.845933
1.0140257,2.7522233,-0.7041762,0.31007627,0.002708584,10.096804,-8.629799,2.7804155
1.0137337,2.7518501,-0.7041762,0.31007627,0.002708584,10.095286,-8.63252,2.7819376
1.01345,2.7514954,-0.6051066,0.2855752,0.046384428,10.045924,-8.932009,2.8552513
1.0131663,2.7511406,-0.6051066,0.2855752,0.046384428,10.044445,-8.934618,2.856739
1.0128989,2.7508097,-0.50284123,0.252552,0.08579921,9.990384,-9.176482,2.8485727
1.0126319,2.7504787,-0.50284123,0.252552,0.08579921,9.988991,-9.178925,2.8499746
1.012388,2.7501767,-0.39738002,0.21313721,0.1220182,9.954201,-9.382271,2.8081608
1.012144,2.7498746,-0.39738002,0.21313721,0.1220182,9.95293,-9.384503,2.8094416
1.0119226,2.7496,-0.2897883,0.17159191,0.1550414,9.961353,-9.5637045,2.8297586
1.0117042,2.7493293,-0.2897883,0.17159191,0.1550414,9.96021,-9.565703,2.8308973
1.011516,2.7490993,-0.18219662,0.12791605,0.18380354,10.064571,-9.7397995,2.7457
1.0113297,2.7488713,-0.18219662,0.12791605,0.18380354,10.0636,-9.741491,2.7466784
1.0111729,2.7486808,-0.07673543,0.08317495,0.20936988,10.110664,-9.953602,2.733139
1.0110154,2.7484894,-0.07673543,0.08317495,0.20936988,10.109844,-9.955027,2.7339706
1.0108899,2.7483463,0.024464693,0.039499108,0.22854465,10.228902,-10.109347,2.5287542
1.0107653,2.7482042,0.024464693,0.039499108,0.22854465,10.228245,-10.110434,2.5294247
1.0106732,2.7481163,0.1171427,-0.002046205,0.23813203,10.294801,-10.235649,2.328843
1.0105798,2.7480273,0.1171427,-0.002046205,0.23813203,10.294313,-10.236378,2.3293848
1.010521,2.7479978,0.1981028,-0.040395726,0.2391973,10.303585,-10.351629,2.095148
1.0104628,2.7479687,0.1981028,-0.040395726,0.2391973,10.303278,-10.351958,2.0955381
1.0104363,2.7480059,0.26734498,-0.07341892,0.2296099,10.307928,-10.423689,1.8180885
1.0104098,2.748043,0.26734498,-0.07341892,0.2296099,10.307789,-10.4235935,1.818366
1.0104152,2.7481413,0.32273874,-0.105376855,0.21469621,10.470626,-10.499717,1.3923578
1.0104204,2.7482395,0.32273874,-0.105376855,0.21469621,10.470654,-10.499224,1.3925123
1.0104594,2.748394,0.360023,-0.13520426,0.1912604,10.585778,-10.598911,1.0142374
1.0104988,2.7485485,0.360023,-0.13520426,0.1912604,10.585981,-10.598039,1.0142422
1.0105735,2.748756,0.38345882,-0.16503167,0.16036773,10.773121,-10.639894,0.58312607
1.0106486,2.7489645,0.38345882,-0.16503167,0.16036773,10.773516,-10.638647,0.58296776
1.0107672,2.7492344,0.39091566,-0.1937938,0.11775714,10.783708,-10.684849,0.256979
1.0108798,2.7494912,0.39091566,-0.1937938,0.11775714,10.784301,-10.68325,0.25662804
1.0110358,2.7498007,0.38239354,-0.22042541,0.07088551,10.718075,-10.762662,-0.026474953
1.0111927,2.7501118,0.38239354,-0.22042541,0.07088551,10.718895,-10.76066,-0.02706337
1.0113931,2.7504563,0.35895774,-0.24918756,0.02081808,10.652908,-10.825396,-0.22424412
1.0115958,2.7508044,0.35895774,-0.24918756,0.02081808,10.653965,-10.8230715,-0.22511673
1.0118423,2.7511828,0.32593453,-0.27581918,-0.032445144,10.669613,-10.897078,-0.40822697
1.0120882,2.7515607,0.32593453,-0.27581918,-0.032445144,10.670899,-10.894472,-0.40937328
1.0123713,2.751956,0.2822587,-0.29818973,-0.0846431,10.6196995,-10.973072,-0.5544281
1.0126569,2.7523556,0.2822587,-0.29818973,-0.0846431,10.621193,-10.970239,-0.5558424
1.0126569,2.7523556,0.2822587,-0.29818973,-0.0846431,10.621193,-10.970239,-0.5558424
1.0133061,2.753199,0.23432179,-0.31736448,-0.14003685,10.667666,-11.040733,-0.5735588
1.0136654,2.7536407,0.18105857,-0.3322782,-0.1954306,10.664748,-11.185912,-0.5946188
1.0140257,2.7540836,0.18105857,-0.3322782,-0.1954306,10.66662,-11.182641,-0.5965328
1.0144119,2.7545376,0.12673008,-0.34186557,-0.24549803,10.721302,-11.3372555,-0.5603237
1.0147998,2.754994,0.12673008,-0.34186557,-0.24549803,10.723318,-11.333836,-0.5624304
1.0152085,2.7554686,0.0724016,-0.3439961,-0.2945002,10.682346,-11.454764,-0.6077595
1.0156176,2.7559447,0.0724016,-0.3439961,-0.2945002,10.684465,-11.45119,-0.6100006
1.016041,2.7564368,0.019138372,-0.34186557,-0.34030658,10.839893,-11.533685,-0.6841488
1.0164644,2.7569296,0.019138372,-0.34186557,-0.34030658,10.842089,-11.529987,-0.686471
1.0168943,2.7574408,-0.03412485,-0.3344087,-0.38398242,11.18429,-11.535762,-1.1006165
1.0173233,2.7579517,-0.03412485,-0.3344087,-0.38398242,11.18651,-11.531965,-1.1029549
1.0177491,2.758481,-0.09164913,-0.31842974,-0.426593,11.36109,-11.499365,-1.598444
1.0181819,2.759021,-0.09164913,-0.31842974,-0.426593,11.363331,-11.495421,-1.6007614
1.0186132,2.7595835,-0.15769553,-0.29925498,-0.47346464,11.49963,-11.462651,-2.1106033
1.019024,2.7601206,-0.15769553,-0.29925498,-0.47346464,11.501746,-11.4587965,-2.1127663
1.0194348,2.7606778,-0.2365251,-0.27688444,-0.5224668,11.451193,-11.397387,-2.560214
1.0198494,2.7612422,-0.2365251,-0.27688444,-0.5224668,11.453334,-11.393396,-2.5623589
1.020257,2.7618117,-0.32813784,-0.2513181,-0.5725342,11.321354,-11.298426,-2.9714603
1.0206625,2.7623806,-0.32813784,-0.2513181,-0.5725342,11.323446,-11.294445,-2.9735336
1.0210644,2.7629368,-0.4314685,-0.22681701,-0.6183406,11.162701,-11.170829,-2.989974
