Pitch,Roll,Gyro_X,Gyro_Y,Gyro_Z,Accel_X,Accel_Y,Accel_Z
5.693793,3.1775918,0.33978298,-0.4398699,-0.5501637,-12.542099,-5.327185,7.087515
5.694333,3.1776073,0.3269998,-0.50698155,-0.51714045,-12.508948,-5.173723,6.95638
5.694864,3.1776228,0.3269998,-0.50698155,-0.51714045,-12.504604,-5.173493,6.95928
5.695466,3.1776414,0.31102082,-0.5719627,-0.4862478,-12.475729,-5.000835,6.756647
5.696069,3.1776607,0.31102082,-0.5719627,-0.4862478,-12.470797,-5.0005636,6.7599363
5.6969194,3.1776826,0.28865027,-0.6369438,-0.4532246,-12.415938,-4.789523,6.4820366
5.69815,3.177706,0.2588229,-0.69872916,-0.41913614,-12.262193,-4.67417,6.23015
5.698873,3.1777163,0.2588229,-0.69872916,-0.41913614,-12.256263,-4.6739435,6.23407
5.6996727,3.1777108,0.22260389,-0.75944924,-0.38824347,-12.058161,-4.5349703,6.008567
5.6996727,3.1777108,0.22260389,-0.75944924,-0.38824347,-12.058161,-4.5349703,6.008567
5.700527,3.1777053,0.17679751,-0.81590825,-0.3573508,-12.051143,-4.5348473,6.013191
5.70135,3.1776762,0.17679751,-0.81590825,-0.3573508,-11.871998,-4.4774666,5.797388
5.702353,3.1776414,0.17679751,-0.81590825,-0.3573508,-11.8637495,-4.4775567,5.8028126
5.7032146,3.1775792,0.12140376,-0.86704093,-0.32858866,-11.713007,-4.5114183,5.7308645
5.704041,3.17752,0.05748789,-0.91497785,-0.30195704,-11.706206,-4.5117464,5.7353325
5.704984,3.1774118,0.05748789,-0.91497785,-0.30195704,-11.479996,-4.594559,5.577915
5.705924,3.1773045,0.05748789,-0.91497785,-0.30195704,-11.479996,-4.594559,5.577915
5.7069707,3.1771393,-0.011754298,-0.9565232,-0.27426016,-11.222364,-4.667548,5.3872538
5.7079573,3.176984,-0.08419228,-0.99167687,-0.2497591,-11.214222,-4.6686416,5.392579
5.708997,3.1767728,-0.08419228,-0.99167687,-0.2497591,-10.947063,-4.8760915,5.278492
5.7100396,3.1765614,-0.16089132,-1.0193738,-0.22525801,-10.938446,-4.877643,5.2841167
5.711112,3.176293,-0.16089132,-1.0193738,-0.22525801,-10.642273,-5.1525993,5.103156
5.712182,3.1760256,-0.23545983,-1.0353527,-0.20182219,-10.633418,-5.1546144,5.1089344
5.7132707,3.1757011,-0.23545983,-1.0353527,-0.20182219,-10.461597,-5.4204636,5.0286093
5.714357,3.175378,-0.30683255,-1.0417444,-0.17519058,-10.452594,-5.422944,5.03446
5.715451,3.1750045,-0.30683255,-1.0417444,-0.17519058,-10.180159,-5.717939,4.887123
5.7165446,3.1746314,-0.37074843,-1.0396138,-0.15175477,-10.171079,-5.720839,4.8930054
5.717635,3.1742127,-0.37074843,-1.0396138,-0.15175477,-10.037527,-6.1024146,4.874936
5.7187376,3.1737897,-0.4250769,-1.0289612,-0.1293842,-10.028361,-6.1057353,4.880851
5.719806,3.1733394,-0.4250769,-1.0289612,-0.1293842,-9.904553,-6.478009,4.776454
5.7208877,3.1728837,-0.4250769,-1.0289612,-0.1293842,-9.895552,-6.481617,4.7822475
5.721946,3.1724033,-0.46555695,-1.0097864,-0.11127471,-9.699995,-6.873307,4.7974987
5.7230043,3.1719236,-0.46555695,-1.0097864,-0.11127471,-9.6911745,-6.8771334,4.803153
5.7240334,3.1714327,-0.48899278,-0.98102427,-0.09742627,-9.548515,-7.2545557,4.5835905
5.725063,3.1709423,-0.48899278,-0.98102427,-0.09742627,-9.53993,-7.2584906,4.5890846
5.726053,3.1704514,-0.49858016,-0.94374,-0.086773634,-9.459833,-7.6071997,4.5847797
5.7270436,3.1699607,-0.49858016,-0.94374,-0.086773634,-9.451559,-7.6111507,4.590046
5.727996,3.1694748,-0.49431908,-0.8979336,-0.08251257,-9.410076,-7.8209724,4.542425
5.7289305,3.1689985,-0.49431908,-0.8979336,-0.08251257,-9.402262,-7.8248262,4.5473843
5.7298255,3.1685307,-0.48047066,-0.84893143,-0.085708365,-9.409139,-8.015359,4.4563513
5.73072,3.1680634,-0.4612959,-0.7935377,-0.09529574,-9.401645,-8.019145,4.461075
5.7315574,3.167611,-0.4612959,-0.7935377,-0.09529574,-9.471244,-8.252667,4.4702816
5.7323956,3.1671584,-0.43892536,-0.73281765,-0.11020945,-9.464215,-8.256349,4.474698
5.733173,3.1667204,-0.43892536,-0.73281765,-0.11020945,-9.443334,-8.317377,4.483577
5.733951,3.166282,-0.43892536,-0.73281765,-0.11020945,-9.4368,-8.320956,4.487669
5.7346754,3.1658463,-0.41975057,-0.67209756,-0.13151474,-9.430724,-8.3197365,4.548937
5.7353835,3.1654203,-0.41975057,-0.67209756,-0.13151474,-9.424778,-8.323225,4.5526533
5.736034,3.1649885,-0.40590215,-0.60924697,-0.1592116,-9.414525,-8.216638,4.7140856
5.7366834,3.1645575,-0.40270635,-0.54533106,-0.19116955,-9.409065,-8.220184,4.71749
5.7372713,3.1641066,-0.40270635,-0.54533106,-0.19116955,-9.566928,-8.166445,4.9791527
5.7378573,3.1636574,-0.40270635,-0.54533106,-0.19116955,-9.561999,-8.1701565,4.982234
5.7383776,3.1631794,-0.4101632,-0.48248047,-0.22419274,-9.725214,-8.217212,5.415928
5.7388964,3.162703,-0.4101632,-0.48248047,-0.22419274,-9.720846,-8.221162,5.4186583
5.739355,3.1621847,-0.42614216,-0.42282566,-0.2593465,-9.985133,-8.445743,5.895133
5.7398124,3.1616688,-0.44851273,-0.36956245,-0.2945002,-9.981289,-8.450045,5.897558
5.7402124,3.161107,-0.44851273,-0.36956245,-0.2945002,-10.226913,-8.7755575,6.474289
5.740612,3.1605465,-0.46662223,-0.32482132,-0.32539287,-10.223545,-8.780236,6.476408
5.7409644,3.1599445,-0.46662223,-0.32482132,-0.32539287,-10.47915,-9.201872,7.076848
5.741316,3.1593451,-0.46662223,-0.32482132,-0.32539287,-10.476186,-9.206887,7.078717
5.7417135,3.1585515,-0.47407907,-0.28860235,-0.34882867,-10.779295,-9.639715,7.7560186
5.742226,3.1574645,-0.46555695,-0.26197073,-0.3690687,-10.995235,-10.055852,8.347744
5.742226,3.1574645,-0.46555695,-0.26197073,-0.3690687,-10.995235,-10.055852,8.347744
5.742773,3.156227,-0.43572956,-0.2449265,-0.38504767,-11.196522,-10.468472,8.877395
5.742773,3.156227,-0.43572956,-0.2449265,-0.38504767,-11.196522,-10.468472,8.877395
5.74329,3.1550577,-0.3803358,-0.23746964,-0.39889613,-11.331029,-10.775187,9.473915
5.74329,3.1550577,-0.3803358,-0.23746964,-0.39889613,-11.331029,-10.775187,9.473915
5.743799,3.1540015,-0.30044097,-0.23853491,-0.4084835,-11.503897,-10.999544,9.888403
5.743799,3.1540015,-0.30044097,-0.23853491,-0.4084835,-11.503897,-10.999544,9.888403
5.744314,3.153118,-0.19817558,-0.24599177,-0.4138098,-11.638411,-10.987825,10.288536
5.744314,3.153118,-0.19817558,-0.24599177,-0.4138098,-11.638411,-10.987825,10.288536
5.744849,3.1524518,-0.0746049,-0.25877494,-0.4170056,-11.715294,-11.012569,10.578604
5.744849,3.1524518,-0.0746049,-0.25877494,-0.4170056,-11.715294,-11.012569,10.578604
5.745415,3.1520462,0.066010006,-0.2779497,-0.4170056,-11.83501,-10.94414,10.825699
5.745415,3.1520462,0.066010006,-0.2779497,-0.4170056,-11.83501,-10.94414,10.825699
5.7460213,3.1519337,0.2194081,-0.29925498,-0.4148751,-11.8298855,-10.758311,11.039448
5.7460213,3.1519337,0.2194081,-0.29925498,-0.4148751,-11.8298855,-10.758311,11.039448
5.746671,3.152136,0.3781325,-0.3226908,-0.4084835,-11.877066,-10.402224,11.224665
5.746671,3.152136,0.3781325,-0.3226908,-0.4084835,-11.877066,-10.402224,11.224665
5.747368,3.1526663,0.54111797,-0.34612662,-0.40102664,-11.82329,-10.009838,11.467537
5.747368,3.1526663,0.54111797,-0.34612662,-0.40102664,-11.82329,-10.009838,11.467537
5.74811,3.1535318,0.70516866,-0.36956245,-0.38930875,-11.831377,-9.566731,11.605253
5.74811,3.1535318,0.70516866,-0.36956245,-0.38930875,-11.831377,-9.566731,11.605253
5.7488976,3.1547377,0.8702847,-0.39299825,-0.3754603,-12.068914,-9.369726,12.006517
5.7488976,3.1547377,0.8702847,-0.39299825,-0.3754603,-12.068914,-9.369726,12.006517
5.749731,3.1562948,1.0375311,-0.41643408,-0.3509592,-12.315637,-9.327747,12.431877
5.749731,3.1562948,1.0375311,-0.41643408,-0.3509592,-12.315637,-9.327747,12.431877
5.750616,3.1582263,1.2111692,-0.4451962,-0.317936,-12.47573,-9.383137,12.910097
5.750616,3.1582263,1.2111692,-0.4451962,-0.317936,-12.47573,-9.383137,12.910097
5.7515607,3.1605554,1.3997211,-0.47928467,-0.27745596,-12.874735,-9.597939,13.297533
5.7515607,3.1605554,1.3997211,-0.47928467,-0.27745596,-12.874735,-9.597939,13.297533
5.7525797,3.1633334,1.6095783,-0.52083,-0.2284538,-12.66019,-9.799323,13.881527
5.7525797,3.1633334,1.6095783,-0.52083,-0.2284538,-12.66019,-9.799323,13.881527
5.753681,3.166617,1.8450017,-0.5623753,-0.16773373,-13.311635,-9.881458,14.044374
5.753681,3.166617,1.8450017,-0.5623753,-0.16773373,-13.311635,-9.881458,14.044374
5.7542624,3.1684194,2.1102524,-0.613508,-0.0995568,-13.871277,-9.872516,14.365477
5.7548795,3.1704702,2.1102524,-0.613508,-0.0995568,-13.871277,-9.872516,14.365477
5.7555027,3.1725414,2.4032001,-0.68488073,-0.02924935,-13.865979,-9.854829,14.368034
5.7562017,3.1749523,2.4032001,-0.68488073,-0.02924935,-13.869615,-9.834227,14.595894
5.7569003,3.1773624,2.7238448,-0.7690366,0.051710747,-13.863673,-9.813618,14.598642
5.757684,3.1801343,2.7238448,-0.7690366,0.051710747,-13.627156,-9.703711,14.750069
5.75847,3.1829107,3.0657947,-0.8531925,0.13906243,-13.620466,-9.679935,14.753002
5.7593436,3.1860726,3.0657947,-0.8531925,0.13906243,-13.847654,-9.442153,14.679529
5.7602177,3.1892328,3.421593,-0.93308735,0.2296099,-13.840202,-9.415047,14.682577
5.761177,3.1927927,3.421593,-0.93308735,0.2296099,-14.34917,-9.279148,14.532557
5.7621365,3.196347,3.7816525,-1.0183085,0.32761425,-14.340988,-9.248623,14.535652
5.763193,3.2003312,3.7816525,-1.0183085,0.32761425,-14.580964,-9.0324135,14.280317
5.764247,3.2042968,4.139581,-1.1099212,0.439467,-14.5719595,-8.998287,14.283394
5.765403,3.2086823,4.139581,-1.1099212,0.439467,-14.432797,-8.836019,13.970549
5.766557,3.2130556,4.4879227,-1.1962076,0.5598419,-14.42292,-8.798315,13.973566
5.7678156,3.217857,4.4879227,-1.1962076,0.5598419,-14.766493,-8.689845,13.545671
5.770429,3.2278457,4.8245463,-1.2761025,0.6919347,-14.887752,-8.6849165,13.168253
5.770429,3.2278457,4.8245463,-1.2761025,0.6919347,-14.887752,-8.6849165,13.168253
5.7724624,3.2356184,5.141995,-1.3549321,0.83041906,-14.870305,-8.617624,13.172007
5.7731996,3.238443,5.141995,-1.3549321,0.83041906,-15.041149,-8.607507,12.5651
5.774647,3.2439764,5.4413342,-1.4326963,0.9784908,-15.028712,-8.55951,12.567282
5.7762003,3.2499027,5.4413342,-1.4326963,0.9784908,-15.494202,-8.589462,12.004284
5.777763,3.2558403,5.7204337,-1.5136565,1.1382805,-15.480751,-8.53785,12.006014
5.779429,3.2621212,5.7204337,-1.5136565,1.1382805,-15.653145,-8.545439,11.308439
5.781108,3.2684193,5.980358,-1.6052692,1.3065922,-15.63867,-8.490569,11.309645
5.7829037,3.2750432,5.980358,-1.6052692,1.3065922,-15.355023,-8.337022,10.879687
5.784696,3.2816188,6.2189775,-1.696882,1.4738388,-15.33954,-8.279596,10.880312
5.786616,3.2885203,6.2189775,-1.696882,1.4738388,-15.423494,-8.405992,10.234264
5.7885504,3.2954326,6.436291,-1.785299,1.6442811,-15.406754,-8.345483,10.234255
5.7906117,3.3026433,6.436291,-1.785299,1.6442811,-15.264391,-8.282264,9.486959
5.792679,3.3098285,6.6323,-1.8737159,1.8147234,-15.246457,-8.2192,9.486214
5.794876,3.3172886,6.6323,-1.8737159,1.8147234,-14.920915,-8.302064,8.857859
5.797085,3.3247364,6.6323,-1.8737159,1.8147234,-14.9017105,-8.236529,8.856311
5.7994237,3.3324337,6.8070035,-1.9600023,1.9809047,-14.230131,-8.312349,8.380348
5.8017673,3.3400943,6.962532,-2.0345707,2.1406944,-14.209702,-8.244768,8.377933
5.804235,3.347989,6.962532,-2.0345707,2.1406944,-13.584827,-8.553308,7.704688
5.806716,3.3558686,6.962532,-2.0345707,2.1406944,-13.5631485,-8.483628,7.701291
5.806716,3.3558686,6.962532,-2.0345707,2.1406944,-13.5631485,-8.483628,7.701291
5.806716,3.3558686,7.0999513,-2.0963562,2.2930272,-13.5631485,-8.483628,7.701291
5.806716,3.3558686,7.221391,-2.1464236,2.4347074,-13.5631485,-8.483628,7.701291
5.818794,3.392732,7.221391,-2.1464236,2.4347074,-12.039845,-8.52532,6.3240223
5.8207307,3.3984945,7.324722,-2.1815772,2.5593433,-11.52001,-8.234657,5.5773144
5.823476,3.406606,7.324722,-2.1815772,2.5593433,-11.495824,-8.162503,5.570486
5.8262477,3.4147096,7.405682,-2.2018173,2.666935,-10.944636,-7.549264,4.68204
5.8291225,3.4230483,7.405682,-2.2018173,2.666935,-10.919232,-7.474988,4.673841
5.835068,3.4400759,7.456815,-2.2039478,2.7574825,-10.430833,-6.753381,3.7549453
5.835068,3.4400759,7.456815,-2.2039478,2.7574825,-10.430833,-6.753381,3.7549453
5.8381004,3.4486485,7.466402,-2.1911647,2.8309858,-9.786218,-5.896409,2.8970132
5.8411293,3.4571414,7.466402,-2.1911647,2.8309858,-9.759298,-5.8206367,2.8860698
5.844128,3.4654686,7.421661,-2.1624026,2.8821185,-9.373478,-5.0950966,2.0271707
5.8476048,3.47504,7.421661,-2.1624026,2.8821185,-9.342488,-5.0096674,2.0133452
5.850773,3.4836607,7.317265,-2.1165962,2.9108806,-9.271111,-4.3197975,1.1287231
5.8531423,3.4900625,7.146823,-2.0622678,2.9236636,-9.249927,-4.2626495,1.1185241
5.856147,3.4980536,7.146823,-2.0622678,2.9236636,-8.91658,-3.3006406,0.26260746
5.859214,3.5061471,6.906073,-2.003678,2.9183373,-8.889092,-3.2283688,0.24867558
5.862253,3.5139859,6.906073,-2.003678,2.9183373,-8.402125,-2.3059874,-0.4212371
5.8652997,3.5217822,6.5918202,-1.9397622,2.8863795,-8.374748,-2.2363367,-0.43563187
5.8683143,3.5292633,6.5918202,-1.9397622,2.8863795,-7.8352585,-1.0633001,-1.0578529
5.871338,3.5367115,6.2029986,-1.866259,2.8309858,-7.808013,-0.9966979,-1.0724097
5.87429,3.543726,6.2029986,-1.866259,2.8309858,-7.350419,-0.1150527,-1.5124642
5.877273,3.550766,5.7470655,-1.7821031,2.7532215,-7.3234673,-0.052021742,-1.5268769
5.880129,3.5572276,5.7470655,-1.7821031,2.7532215,-6.9049854,0.6332413,-1.951974
5.883002,3.5636868,5.233608,-1.6904904,2.6605434,-6.8789654,0.6911806,-1.965673
5.8857684,3.5695963,5.233608,-1.6904904,2.6605434,-6.3798237,1.5919039,-2.4282498
5.888542,3.5754862,4.673279,-1.588225,2.550821,-6.3546424,1.644885,-2.4410205
5.8911805,3.580765,4.673279,-1.588225,2.550821,-6.0242076,2.6071537,-2.9694371
5.8938265,3.5860322,4.0767307,-1.4827638,2.4229894,-6.0001326,2.654716,-2.980962
5.896319,3.5906458,4.0767307,-1.4827638,2.4229894,-5.579995,3.5729015,-3.4983203
5.8988175,3.5952497,3.453551,-1.3783679,2.2759829,-5.5572147,3.614707,-3.508308
5.9011583,3.5991814,3.453551,-1.3783679,2.2759829,-5.215029,4.134347,-3.9616833
5.903502,3.603101,2.813327,-1.2771678,2.1183238,-4.9533625,4.6982613,-4.3446984
5.9056883,3.6063378,2.813327,-1.2771678,2.1183238,-4.93252,4.7294226,-4.3511586
5.907966,3.6096966,2.1656463,-1.1844897,1.9478815,-4.93252,4.7294226,-4.3511586
5.9099298,3.6121426,2.1656463,-1.1844897,1.9478815,-4.632016,4.9632854,-4.6614513
5.9119244,3.6146193,1.5147697,-1.0982033,1.7625254,-4.613733,4.9867496,-4.665409
5.913783,3.6164222,1.5147697,-1.0982033,1.7625254,-4.5775313,4.9518166,-4.7724094
5.9156523,3.6182303,0.87134993,-1.0183085,1.563321,-4.5603704,4.9696035,-4.774126
5.9173613,3.619338,0.87134993,-1.0183085,1.563321,-4.6260777,4.794661,-4.806963
5.9190707,3.6204429,0.23751758,-0.94480526,1.3555944,-4.610364,4.8064413,-4.8063087
5.9206214,3.620857,0.23751758,-0.94480526,1.3555944,-4.7014475,4.55375,-4.9373207
5.9221735,3.6212695,-0.3856621,-0.8755631,1.1489332,-4.6871605,4.5596137,-4.934276
5.923571,3.6210036,-0.3856621,-0.8755631,1.1489332,-4.789217,4.334623,-4.823499
5.924969,3.6207364,-0.99925447,-0.80632085,0.9422718,-4.776332,4.3346653,-4.8180804
5.926217,3.6198025,-0.99925447,-0.80632085,0.9422718,-5.066502,4.0704284,-4.767207
5.927464,3.6188684,-1.6000636,-0.7338829,0.73348,-5.055002,4.0647492,-4.759441
5.9285526,3.6172845,-1.6000636,-0.7338829,0.73348,-5.4759173,3.9577053,-4.6105657
5.9296412,3.6156993,-2.19022,-0.66251016,0.5268187,-5.465866,3.9463897,-4.600576
5.9305725,3.6134725,-2.19022,-0.66251016,0.5268187,-5.433327,3.814608,-4.3346033
5.931505,3.6112416,-2.7665281,-0.5890069,0.32335317,-5.424711,3.7976825,-4.3224363
5.932281,3.6083887,-2.7665281,-0.5890069,0.32335317,-5.4702177,3.5885968,-4.2603135
5.933058,3.605534,-3.3268573,-0.5144384,0.1220182,-5.4630413,3.5662007,-4.2461233
5.9336815,3.6020713,-3.3268573,-0.5144384,0.1220182,-5.5626173,3.227242,-4.067162
5.934307,3.5986063,-3.869077,-0.44413096,-0.072925195,-5.5568337,3.1994467,-4.0510902
5.9347897,3.5945601,-3.869077,-0.44413096,-0.072925195,-5.7630615,2.6972852,-3.8799546
5.935273,3.5905151,-4.388926,-0.3855414,-0.26041174,-5.7585864,2.6643186,-3.8621874
5.935629,3.5859125,-4.388926,-0.3855414,-0.26041174,-6.028235,2.2864535,-3.550632
5.9359875,3.5813022,-4.8832088,-0.33334345,-0.4329846,-6.0249176,2.2484114,-3.5312963
5.936233,3.576168,-4.8832088,-0.33334345,-0.4329846,-6.5110645,1.7220911,-3.1513128
5.936482,3.5710251,-5.347664,-0.29499394,-0.5949048,-6.5087614,1.6792192,-3.1306305
5.936635,3.5653973,-5.347664,-0.29499394,-0.5949048,-6.986185,1.0095217,-2.783
5.936791,3.5598044,-5.778031,-0.27049285,-0.7419113,-6.9847407,0.96249247,-2.7613688
5.9368715,3.5537162,-5.778031,-0.27049285,-0.7419113,-7.367066,0.17841148,-2.0584433
5.9369574,3.547605,-6.1721787,-0.25770968,-0.87400407,-7.366272,0.12662745,-2.0356812
5.93698,3.5411127,-6.1721787,-0.25770968,-0.87400407,-8.194458,-0.6325226,-1.3464677
5.937008,3.5346212,-6.5333033,-0.26090547,-0.982661,-8.194197,-0.6879182,-1.3231909
5.9369965,3.527733,-6.5333033,-0.26090547,-0.982661,-8.792855,-1.3358846,-0.298235
5.936991,3.5208526,-6.857144,-0.2779497,-1.0668169,-8.792902,-1.3949709,-0.27446592
5.9369698,3.5136287,-6.857144,-0.2779497,-1.0668169,-9.152233,-1.9647722,0.7795062
5.9369555,3.5064054,-7.1500916,-0.30138552,-1.1307328,-9.152364,-2.0271616,0.8035406
5.9369354,3.498876,-7.1500916,-0.30138552,-1.1307328,-9.578716,-3.0309114,1.9821017
5.936924,3.4913397,-7.4068203,-0.32056028,-1.1669518,-9.578823,-3.096365,2.006215
5.936914,3.4835534,-7.4068203,-0.32056028,-1.1669518,-10.043392,-3.9638433,3.3186965
5.936913,3.4757595,-7.6220036,-0.33547398,-1.1754739,-10.043404,-4.0319014,3.3426194
5.9369206,3.4677417,-7.6220036,-0.33547398,-1.1754739,-10.316271,-5.0023165,4.5590124
5.9369373,3.4597402,-7.7924457,-0.34186557,-1.1616255,-10.316113,-5.0725527,4.5825167
5.9369645,3.4515643,-7.7924457,-0.34186557,-1.1616255,-10.765973,-5.857971,5.9323688
5.9370008,3.4433887,-7.913886,-0.33973503,-1.1286023,-10.765635,-5.930094,5.955272
5.937047,3.4351013,-7.913886,-0.33973503,-1.1286023,-11.373335,-6.601939,7.2612104
5.9371066,3.4263084,-7.9884543,-0.3344087,-1.0806653,-11.372782,-6.6798916,7.284602
5.937173,3.418279,-7.9884543,-0.3344087,-1.0806653,-11.985089,-7.230095,8.445049
5.937249,3.4100573,-8.014021,-0.3322782,-1.014619,-11.98438,-7.303316,8.465778
5.937346,3.401749,-8.014021,-0.3322782,-1.014619,-12.275579,-7.8323784,9.597097
5.9374514,3.393424,-7.993781,-0.3322782,-0.93472415,-12.274602,-7.9068403,9.616948
5.937581,3.3850963,-7.993781,-0.3322782,-0.93472415,-12.484086,-8.4363785,10.699289
5.937719,3.3768022,-7.93093,-0.3290824,-0.8452419,-12.482814,-8.510873,10.717949
5.937879,3.3685849,-7.93093,-0.3290824,-0.8452419,-12.773424,-8.934364,11.808494
5.9380455,3.3604007,-7.8275995,-0.32056028,-0.7461723,-12.771884,-9.008146,11.825791
5.93823,3.3523057,-7.8275995,-0.32056028,-0.7461723,-12.942555,-9.421228,12.867077
5.93842,3.3442514,-7.8275995,-0.32056028,-0.7461723,-12.940798,-9.494101,12.883006
5.9386234,3.3363216,-7.683789,-0.30884236,-0.64390695,-13.163965,-9.934668,13.851058
5.9388313,3.3284473,-7.498433,-0.29499394,-0.5384458,-13.162041,-10.006144,13.865562
5.9390483,3.320788,-7.498433,-0.29499394,-0.5384458,-13.380301,-10.31041,14.741098
5.939269,3.3131366,-7.498433,-0.28434128,-0.4319193,-13.378253,-10.380068,14.754185
5.939501,3.3057039,-7.272597,-0.28434128,-0.4319193,-13.457511,-10.763868,15.7337055
5.939735,3.2983088,-7.0084114,-0.27901497,-0.32539287,-13.455343,-10.831381,15.745415
5.939982,3.291208,-7.0084114,-0.27901497,-0.32539287,-13.476997,-11.059084,16.503254
5.940229,3.2841716,-6.7101374,-0.27688444,-0.2167359,-13.453116,-11.319315,17.13121
5.9404917,3.2774284,-6.7101374,-0.27688444,-0.2167359,-13.453116,-11.319315,17.13121
5.9407597,3.2705977,-6.3809705,-0.27581918,-0.10914418,-13.450637,-11.381954,17.14045
5.941037,3.264208,-6.3809705,-0.27581918,-0.10914418,-13.352295,-11.57467,17.78565
5.941314,3.2578447,-6.0262375,-0.27901497,-0.004748267,-13.349726,-11.633129,17.793585
5.9416075,3.2518406,-6.0262375,-0.27901497,-0.004748267,-13.361369,-11.918169,18.375437
5.9419026,3.2458072,-5.645938,-0.28114548,0.095386595,-13.358635,-11.973684,18.382395
5.9422073,3.2402196,-5.645938,-0.28114548,0.095386595,-13.269617,-12.317225,18.891422
5.9425116,3.2346323,-5.243268,-0.28540656,0.19232565,-13.266793,-12.368709,18.897371
5.9428277,3.2294822,-5.243268,-0.28540656,0.19232565,-13.010082,-12.641247,19.35284
5.943142,3.2243373,-4.819293,-0.2928634,0.27967733,-13.007164,-12.688706,19.35794
5.94347,3.2196429,-4.819293,-0.2928634,0.27967733,-13.080736,-13.368887,19.721632
5.9437966,3.2149487,-4.372947,-0.30564657,0.35957217,-13.077704,-13.412234,19.725994
5.9441366,3.2107255,-4.372947,-0.30564657,0.35957217,-11.077785,-13.537429,20.18
5.944474,3.206511,-3.9074264,-0.30351606,0.43627122,-11.074652,-13.576384,20.18373
5.9448204,3.2027845,-3.9074264,-0.30351606,0.43627122,-13.920538,-13.6251955,19.181461
5.9451647,3.1990583,-3.4269922,-0.33014765,0.49592602,-10.988226,-14.158736,19.939287
5.9455314,3.1958346,-3.4269922,-0.33014765,0.49592602,-10.988226,-14.158736,19.939287
5.945896,3.192611,-2.930579,-0.35145295,0.55238503,-10.9848385,-14.188563,19.942043
5.946285,3.1899037,-2.930579,-0.35145295,0.55238503,-11.675547,-14.807371,19.815271
5.946672,3.1871967,-2.4160562,-0.35358348,0.604583,-11.671951,-14.832424,19.817703
5.9470654,3.1850226,-2.4160562,-0.35358348,0.604583,-12.865402,-14.90043,19.345837
5.947457,3.182848,-1.8855544,-0.38660666,0.6418673,-12.861762,-14.920565,19.347958
5.9478836,3.1812172,-1.8855544,-0.38660666,0.6418673,-13.437193,-15.146336,18.947723
5.9483094,3.1795862,-1.340139,-0.4665015,0.6738252,-13.433238,-15.161429,18.949688
5.948814,3.1785114,-1.340139,-0.4665015,0.6738252,-12.60973,-15.286268,18.678751
5.949318,3.1774366,-0.7830058,-0.56344056,0.70152205,-12.605042,-15.29619,18.68074
5.9499197,3.176928,-0.7830058,-0.56344056,0.70152205,-12.465373,-15.257753,18.19922
5.950521,3.1764188,-0.2216114,-0.66251016,0.7217621,-12.459782,-15.262423,18.201319
5.9512234,3.176477,-0.2216114,-0.66251016,0.7217621,-12.592112,-15.008009,17.571476
5.9519258,3.1765347,0.3365872,-0.77116716,0.7366758,-12.585581,-15.0074005,17.573711
5.95274,3.1771548,0.3365872,-0.77116716,0.7366758,-12.917975,-14.632833,16.77166
5.9535537,3.1777728,0.88519835,-0.89047676,0.7505242,-12.910406,-14.626995,16.774048
5.954489,3.178942,0.88519835,-0.89047676,0.7505242,-13.098014,-14.074913,15.804577
5.955427,3.180111,1.4125043,-1.0225695,0.76011163,-13.089279,-14.063912,15.807129
5.9565,3.1818087,1.4125043,-1.0225695,0.76011163,-12.945208,-13.406334,14.799553
5.9575744,3.183505,1.9057217,-1.1578581,0.76756847,-12.935193,-13.390394,14.802282
5.958789,3.185694,1.9057217,-1.1578581,0.76756847,-13.0723095,-12.622841,13.699095
5.960005,3.1878812,2.3563285,-1.2910162,0.7750253,-13.0609665,-12.60229,13.701975
5.962683,3.1930914,2.3563285,-1.2910162,0.7750253,-13.27538,-11.892506,12.893894
5.964183,3.196125,2.7568681,-1.4305658,0.78567797,-13.079412,-11.203159,12.341572
5.964183,3.196125,2.7568681,-1.4305658,0.78567797,-13.079412,-11.203159,12.341572
5.9657226,3.1992319,3.10734,-1.5658544,0.7995264,-13.065025,-11.173904,12.344681
5.9673643,3.202612,3.10734,-1.5658544,0.7995264,-13.236421,-10.6632185,11.993488
5.9690003,3.205972,3.4098752,-1.7000778,0.8133748,-13.221111,-10.631527,11.996487
5.970784,3.2096493,3.4098752,-1.7000778,0.8133748,-13.482142,-10.185023,11.674001
5.9725795,3.2133417,3.6697996,-1.8396274,0.826158,-13.465328,-10.150146,11.6769905
5.9745097,3.2172728,3.6697996,-1.8396274,0.826158,-13.159934,-9.686809,11.440623
5.9764404,3.2211962,3.8924398,-1.974916,0.83681065,-13.141829,-9.64968,11.44351
5.978512,3.2253423,3.8924398,-1.974916,0.83681065,-12.744104,-9.165082,11.32674
5.988081,3.244139,4.242912,-2.21247,0.85705066,-12.199249,-8.263506,11.112938
5.988081,3.244139,4.242912,-2.21247,0.85705066,-12.199249,-8.263506,11.112938
5.988081,3.244139,4.242912,-2.21247,0.85705066,-12.199249,-8.263506,11.112938
5.988081,3.244139,4.242912,-2.21247,0.85705066,-12.199249,-8.263506,11.112938
5.9896374,3.247131,4.242912,-2.21247,0.85705066,-12.184598,-8.235024,11.114438
5.9920263,3.2516623,4.380331,-2.3115396,0.86344224,-12.04237,-7.90454,10.944189
5.9946623,3.2566483,4.380331,-2.3115396,0.86344224,-12.017519,-7.856991,10.946278
5.997103,3.2612066,4.5007057,-2.4010217,0.8698338,-11.831678,-7.612364,10.833081
5.9996204,3.2658968,4.5007057,-2.4010217,0.8698338,-11.807909,-7.5675564,10.8346
6.0021973,3.2706523,4.6104283,-2.478786,0.8772907,-11.601596,-7.3640623,10.759315
6.004834,3.2755086,4.6104283,-2.478786,0.8772907,-11.576655,-7.317585,10.76039
6.007489,3.2803721,4.714824,-2.5437672,0.8858128,-11.4797,-7.28059,10.694181
6.0102143,3.2853532,4.714824,-2.5437672,0.8858128,-11.45389,-7.2328606,10.694731
6.01298,3.2903988,4.8170896,-2.6002262,0.8943349,-11.058965,-7.1701126,10.728499
6.015655,3.2952693,4.8170896,-2.6002262,0.8943349,-11.033587,-7.1233816,10.728444
6.015655,3.2952693,4.8170896,-2.6002262,0.8943349,-11.033587,-7.1233816,10.728444
6.0235295,3.3096123,5.023751,-2.6854475,0.9017918,-11.126374,-7.5171623,11.004277
6.024227,3.3108873,5.023751,-2.6854475,0.9017918,-11.119736,-7.5049067,11.003975
6.026727,3.3154511,5.023751,-2.6854475,0.9017918,-11.095951,-7.461053,11.002743
6.0296063,3.3207552,5.1356034,-2.7184706,0.9071181,-10.862635,-7.8937063,11.383983
6.032468,3.3260171,5.257044,-2.7408412,0.91137916,-10.835367,-7.8431187,11.381822
6.035366,3.3314228,5.257044,-2.7408412,0.91137916,-10.774211,-8.408873,11.814898
6.0382643,3.336818,5.257044,-2.7408412,0.91137916,-10.746557,-8.357004,11.811873
6.0411716,3.3423421,5.3891363,-2.748298,0.918836,-10.752308,-8.701365,12.047676
6.0440817,3.3478613,5.5340123,-2.7451022,0.9284234,-10.724501,-8.648329,12.043699
6.0470004,3.35354,5.5340123,-2.7451022,0.9284234,-11.161061,-9.302487,12.259304
6.049913,3.3591967,5.696998,-2.7408412,0.9401413,-11.133188,-9.248171,12.254278
6.052817,3.3650043,5.696998,-2.7408412,0.9401413,-10.569074,-9.647364,12.569345
6.055726,3.370813,5.874897,-2.7227316,0.9582508,-10.541197,-9.591661,12.563185
6.0586147,3.3767817,5.874897,-2.7227316,0.9582508,-10.633205,-9.879257,12.613674
6.061517,3.3827698,6.06771,-2.6929042,0.9774256,-10.605356,-9.821924,12.606247
6.0643964,3.3889518,6.06771,-2.6929042,0.9774256,-10.702204,-9.978308,12.650577
6.0681543,3.3970063,6.06771,-2.6929042,0.9774256,-10.666091,-9.90136,12.63903
6.070244,3.4016793,6.273306,-2.656685,0.9976656,-10.8566885,-9.971718,12.512083
6.073063,3.4079762,6.273306,-2.656685,0.9976656,-10.829567,-9.911715,12.501949
6.0758467,3.414467,6.4884896,-2.6215315,1.0157751,-10.654331,-9.711111,12.409378
6.078675,3.4210522,6.4884896,-2.6215315,1.0157751,-10.627088,-9.648529,12.397547
6.0814776,3.4278562,6.7058034,-2.5853126,1.0370804,-10.911322,-9.516972,12.106863
6.0842853,3.4346626,6.7058034,-2.5853126,1.0370804,-10.88425,-9.452503,12.093387
6.0870695,3.4416869,6.922052,-2.5522892,1.0573204,-10.771193,-9.319078,11.863241
6.0898557,3.4487064,7.13404,-2.5192661,1.0786257,-10.744295,-9.252821,11.848042
6.092617,3.4559324,7.13404,-2.5192661,1.0786257,-10.808601,-8.983671,11.573064
6.095389,3.4631755,7.13404,-2.5192661,1.0786257,-10.781814,-8.915575,11.556051
6.098131,3.4706035,7.3385706,-2.486243,1.1009963,-10.70741,-8.663958,11.130818
6.1008787,3.4780343,7.3385706,-2.486243,1.1009963,-10.680831,-8.594397,11.112009
6.103606,3.4856575,7.529253,-2.4553502,1.120171,-10.606548,-8.451408,10.680138
6.1063356,3.4932764,7.529253,-2.4553502,1.120171,-10.580114,-8.380423,10.659459
6.109044,3.501064,7.703956,-2.4255228,1.140411,-10.343181,-8.188353,10.254475
6.11176,3.5088632,7.703956,-2.4255228,1.140411,-10.3168545,-8.116058,10.231904
6.1144514,3.5168047,7.86055,-2.393565,1.1595858,-10.343426,-8.013931,9.667049
6.1171503,3.524758,7.86055,-2.393565,1.1595858,-10.317243,-7.940605,9.642594
6.1198235,3.532842,7.996904,-2.3594763,1.1755648,-10.018355,-7.76577,9.047144
6.122499,3.5409217,7.996904,-2.3594763,1.1755648,-9.9923725,-7.6917152,9.0208435
6.1251526,3.549129,8.115149,-2.3232574,1.1872827,-9.842094,-7.382123,8.265516
6.1278024,3.557316,8.115149,-2.3232574,1.1872827,-9.816337,-7.3075686,8.237406
6.1304274,3.565607,8.209957,-2.2838426,1.1947395,-9.508301,-6.834903,7.3749866
6.133054,3.5738945,8.209957,-2.2838426,1.1947395,-9.482752,-6.759944,7.34506
6.1356454,3.5822513,8.279199,-2.2369711,1.1968701,-9.079247,-5.947235,6.289392
6.1382413,3.5906126,8.279199,-2.2369711,1.1968701,-9.053978,-5.87216,6.257725
6.1407924,3.598989,8.313288,-2.1858382,1.1915437,-8.904633,-4.9832144,5.2627654
6.143345,3.607362,8.304766,-2.1272488,1.1755648,-8.879767,-4.9086113,5.229604
6.1458497,3.615731,8.304766,-2.1272488,1.1755648,-8.381305,-3.8144197,4.3816743
6.148353,3.6240883,8.241915,-2.0665288,1.1478679,-8.356897,-3.7405462,4.3471375
6.1508045,3.6323826,8.241915,-2.0665288,1.1478679,-8.055265,-2.6380424,3.3784127
6.153257,3.6406736,8.116214,-2.003678,1.1095184,-8.0313425,-2.5653667,3.3427734
6.155648,3.648827,8.116214,-2.003678,1.1095184,-7.299322,-1.3785071,2.5456986
6.15804,3.6569774,7.922335,-1.9280443,1.0583856,-7.2759714,-1.307672,2.5093536
6.1603584,3.6649084,7.922335,-1.9280443,1.0583856,-6.353115,0.16395998,1.5061108
6.162677,3.6728358,7.650693,-1.8332359,0.991274,-6.330471,0.23226881,1.4695387
6.164888,3.68045,7.650693,-1.8332359,0.991274,-5.518781,1.5952379,0.36602497
6.1670985,3.6880608,7.29596,-1.7320356,0.9039223,-5.4971795,1.660243,0.3297969
6.1691623,3.6952634,7.29596,-1.7320356,0.9039223,-4.557634,3.086175,-0.80156875
6.171226,3.702471,7.29596,-1.7320356,0.9039223,-4.537454,3.1471968,-0.83688915
6.173099,3.7091808,6.8549404,-1.6223135,0.7973959,-3.503995,4.7312336,-2.1727066
6.174972,3.7158961,6.8549404,-1.6223135,0.66636837,-3.485677,4.787588,-2.2065127
6.1766424,3.7220645,6.3276343,-1.5008733,0.66636837,-2.6600935,5.993118,-3.7702656
6.1783104,3.7282324,6.3276343,-1.5008733,0.5151008,-2.64377,6.044437,-3.8020732
6.17976,3.7337792,5.718303,-1.36665,0.5151008,-1.7197881,7.182139,-5.348943
6.181207,3.7393258,5.718303,-1.36665,0.5151008,-1.7056222,7.2279205,-5.3781633
6.182425,3.7441819,5.0301423,-1.2196435,0.33826688,-1.3585134,8.225521,-7.185295
6.183638,3.7490282,4.2695436,-1.0673107,0.1401277,-1.3466372,8.265227,-7.211303
6.184603,3.7531114,4.2695436,-1.0673107,0.1401277,-0.7146921,9.26102,-9.024279
6.1855664,3.7571948,3.4407678,-0.90645576,-0.072925195,-0.70526266,9.294239,-9.046545
6.186267,3.7604418,3.4407678,-0.90645576,-0.072925195,-0.056756973,10.158534,-10.826537
6.186965,3.763689,2.5438151,-0.72323024,-0.29663074,-0.049918175,10.184792,-10.844492
6.187381,3.766033,2.5438151,-0.72323024,-0.29663074,0.16005707,10.945866,-12.466472
6.187795,3.7683768,1.5850772,-0.5176342,-0.5320542,0.164114,10.964708,-12.479606
6.1879034,3.769756,1.5850772,-0.5176342,-0.5320542,0.1603899,11.784945,-14.101148
6.1880116,3.7711368,1.5850772,-0.5176342,-0.7706734,0.16144562,11.795942,-14.109023
6.187803,3.771494,0.5688148,-0.30138552,-0.7706734,0.28389835,12.483383,-15.317913
6.1875935,3.771851,0.5688148,-0.30138552,-0.7706734,0.28185177,12.486107,-15.320137
6.1870627,3.7711358,-0.4975149,-0.078745246,-1.0103579,0.36763287,12.906311,-16.120869
6.186533,3.77042,-0.4975149,-0.078745246,-1.0103579,0.36244202,12.900351,-16.117142
6.185676,3.7685893,-1.6043247,0.15135187,-1.2511077,0.35883522,12.909302,-16.303593
6.1848183,3.7667518,-1.6043247,0.15135187,-1.2511077,0.3504324,12.89423,-16.29372
6.1836367,3.7637837,-2.7324398,0.3878406,-1.4886616,-0.077721596,12.4869,-15.875455
6.182466,3.760832,-3.857359,0.62645984,-1.7123672,-0.08918762,12.462723,-15.859585
6.1809754,3.756734,-3.857359,0.62645984,-1.7123672,-1.0279398,11.672575,-14.750608
6.1794896,3.7526338,-3.857359,0.8554917,-1.921159,-1.0424824,11.638899,-14.728746
6.17771,3.7474368,-4.9481897,0.8554917,-1.921159,-2.0941896,10.73421,-13.015652
6.175937,3.7422366,-5.983627,1.0717404,-2.1150372,-2.1115417,10.691256,-12.988314
6.173898,3.7360132,-5.983627,1.0717404,-2.1150372,-2.864112,9.270222,-10.93515
6.171857,3.7297547,-5.983627,1.0717404,-2.1150372,-2.884076,9.218173,-10.902868
6.169576,3.7225375,-6.94343,1.2741406,-2.2886753,-3.7443438,7.448472,-8.668148
6.1673074,3.715323,-6.94343,1.2741406,-2.2886753,-3.7665224,7.3879814,-8.631802
6.164834,3.7072442,-7.8116207,1.4605619,-2.4431386,-4.8920274,5.428544,-6.25966
6.162372,3.6991606,-7.8116207,1.4605619,-2.4431386,-4.9160805,5.360162,-6.220045
6.1597424,3.6903358,-8.576481,1.6288737,-2.5731008,-6.143652,3.3027701,-3.7018433
6.157123,3.6814969,-8.576481,1.6288737,-2.5731008,-6.1692266,3.2272844,-3.659899
6.1543574,3.6720643,-9.226292,1.7758802,-2.6721704,-7.445992,1.125625,-1.1020103
6.151608,3.6626356,-9.226292,1.7758802,-2.6721704,-7.4728174,1.0442941,-1.0588789
6.1487083,3.652702,-9.761055,1.9026467,-2.7382169,-8.770024,-1.0912733,1.6432025
6.145823,3.6427612,-9.761055,1.9026467,-2.7659137,-8.798158,-1.1779037,1.6868212
6.142818,3.632414,-10.181834,2.0113037,-2.7659137,-9.938353,-3.183897,4.4222956
6.1398277,3.6220582,-10.181834,2.0113037,-2.7659137,-9.96748,-3.275054,4.465704
6.1367583,3.6113975,-10.490761,2.1039817,-2.7520652,-10.969409,-5.2942886,7.1429315
6.133705,3.6007273,-10.490761,2.1039817,-2.698802,-10.999128,-5.389118,7.1854906
6.1306076,3.5898623,-10.6889,2.1838765,-2.698802,-11.766672,-6.989687,9.641052
6.1275263,3.5789871,-10.784774,2.2563145,-2.60932,-12.128439,-8.598568,11.743128
6.1244254,3.568024,-10.784774,2.2563145,-2.60932,-12.128439,-8.598568,11.743128
6.12134,3.5570502,-10.789035,2.326622,-2.484684,-12.15841,-8.697838,11.782259
6.118251,3.5460844,-10.789035,2.326622,-2.484684,-12.456552,-9.539652,13.625385
6.1151767,3.535108,-10.714466,2.3990598,-2.3334165,-12.486387,-9.63975,13.662152
6.112114,3.5242562,-10.714466,2.3990598,-2.3334165,-12.779452,-10.146109,15.047603
6.1090527,3.5133507,-10.570656,2.4736283,-2.1640394,-12.809129,-10.246298,15.08173
6.1059947,3.5026104,-10.570656,2.4736283,-2.1640394,-13.154795,-10.56081,16.162762
6.1029487,3.4918606,-10.570656,2.4736283,-2.1640394,-13.184287,-10.66024,16.194008
6.0999103,3.4813497,-10.368256,2.5471315,-1.9776181,-13.405224,-10.858349,17.185791
6.096883,3.4708292,-10.116853,2.6163738,-1.7784135,-13.434511,-10.956274,17.214035
6.093862,3.4605896,-10.116853,2.6163738,-1.7784135,-13.612152,-10.965683,18.193188
6.0908504,3.4503412,-10.116853,2.6163738,-1.7784135,-13.641251,-11.061596,18.218414
6.0878453,3.4404156,-9.82497,2.6802897,-1.5770786,-13.703786,-10.972786,19.175386
6.0846734,3.4299054,-9.493673,2.7356834,-1.3810699,-13.734392,-11.071638,19.198887
6.081821,3.4207745,-9.493673,2.7356834,-1.3810699,-13.828939,-10.994926,19.989117
6.0788655,3.4112914,-9.493673,2.7356834,-1.3810699,-13.857423,-11.08449,20.00825
6.075886,3.4021118,-9.126157,2.7857509,-1.1935834,-13.991469,-11.099571,20.815723
6.072913,3.3929338,-8.723487,2.8294268,-1.0178148,-14.020087,-11.186577,20.832224
6.069944,3.384189,-8.723487,2.8294268,-1.0178148,-14.077382,-11.216982,21.660862
6.066968,3.375411,-8.723487,2.8294268,-1.0178148,-14.10599,-11.300463,21.674711
6.0640006,3.367104,-8.289925,2.86245,-0.8590904,-14.029157,-11.484959,22.582174
6.061041,3.3588073,-8.289925,2.86245,-0.8590904,-14.057576,-11.564074,22.59344
6.058084,3.3509867,-7.824404,2.8848205,-0.7142144,-13.937506,-11.820734,23.551126
6.055134,3.343176,-7.824404,2.8848205,-0.7142144,-13.965793,-11.895384,23.560017
6.0521917,3.3358722,-7.32586,2.895473,-0.5853174,-13.859909,-12.19993,24.525013
6.049253,3.3285704,-7.32586,2.895473,-0.5853174,-13.888047,-12.26984,24.531713
6.0463414,3.3218346,-6.795358,2.8944077,-0.4681383,-13.767464,-12.578636,25.379663
6.043418,3.315067,-6.795358,2.8944077,-0.4681383,-13.7954235,-12.643536,25.384373
6.040533,3.3088923,-6.2360945,2.8773637,-0.36267713,-13.626662,-13.071533,26.287903
6.0376444,3.3027072,-6.2360945,2.8773637,-0.36267713,-13.654242,-13.130917,26.290785
6.0348086,3.297142,-5.645938,2.843275,-0.26786858,-13.614265,-13.596235,27.096886
6.0319686,3.2915676,-5.645938,2.843275,-0.26786858,-13.641338,-13.6498165,27.098137
6.0319686,3.2915676,-5.645938,2.843275,-0.26786858,-13.641338,-13.6498165,27.098137
6.0319686,3.2915676,-5.645938,2.843275,-0.26786858,-13.641338,-13.6498165,27.098137
6.021555,3.2750108,-4.3793387,2.7133129,-0.114470504,-14.113958,-14.963507,28.435423
6.019463,3.271816,-3.6975694,2.6078517,-0.05055464,-14.339733,-15.25766,28.70705
6.0185595,3.270559,-3.6975694,2.6078517,-0.05055464,-14.348321,-15.269802,28.706291
6.0155935,3.2664344,-3.6975694,2.6078517,-0.05055464,-14.376473,-15.309608,28.703629
6.0131254,3.2635252,-2.9859726,2.4651062,0.006969642,-14.1892,-15.969873,29.256084
6.0108566,3.2608504,-2.9859726,2.4651062,0.006969642,-14.210712,-15.99576,29.253191
6.0086374,3.2587686,-2.2488096,2.302121,0.064493924,-15.989079,-15.728735,28.335077
6.0063815,3.2566524,-2.2488096,2.302121,0.064493924,-16.010437,-15.74934,28.331394
6.004293,3.255282,-1.496733,2.1188953,0.12095294,-15.441231,-15.600067,28.049557
6.0021625,3.253884,-1.496733,2.1188953,0.12095294,-15.461378,-15.613853,28.045292
6.0003276,3.2532907,-0.73719937,1.8845371,0.17741196,-15.186626,-16.031786,27.926006
5.99848,3.2526932,-0.73719937,1.8845371,0.17741196,-15.20408,-16.037956,27.921562
5.99848,3.2526932,-0.73719937,1.8845371,0.17741196,-15.20408,-16.037956,27.921562
5.9944806,3.2531445,0.7893246,1.400907,0.3052437,-15.624899,-15.867365,27.186989
5.9930778,3.2541428,0.7893246,1.400907,0.3052437,-16.820864,-15.738747,26.085474
5.992351,3.2546604,0.7893246,1.400907,0.3052437,-16.827719,-15.734123,26.08288
5.9913764,3.2562604,1.5456623,1.1143509,0.36915955,-16.760288,-15.503981,25.22131
5.9904504,3.257782,2.2870865,0.7926411,0.42987964,-16.769014,-15.490042,25.217062
5.989729,3.2602572,2.2870865,0.7926411,0.42987964,-16.50287,-15.285168,24.364746
5.989008,3.2627358,3.010401,0.45708278,0.48314285,-16.509659,-15.262234,24.359905
5.98863,3.265944,3.010401,0.45708278,0.48314285,-16.604202,-15.227591,23.483643
5.988254,3.2691433,3.7081492,0.11513288,0.5300145,-16.607738,-15.197844,23.478796
5.988226,3.2730448,3.7081492,0.11513288,0.5300145,-16.698984,-15.137489,22.703041
5.9881997,3.2769542,4.3771353,-0.23107806,0.5715598,-16.699232,-15.101023,22.698076
5.9885263,3.2815275,4.3771353,-0.23107806,0.5715598,-16.825445,-14.900217,21.744984
5.988857,3.2861233,4.3771353,-0.23107806,0.5715598,-16.822332,-14.857243,21.739786
5.9895453,3.2913828,5.016294,-0.5783543,0.60671353,-16.935558,-14.616425,20.537369
5.9902253,3.2965524,5.6181684,-0.9192389,0.6344104,-16.929153,-14.567999,20.531881
5.9912524,3.302334,5.6181684,-0.9192389,0.6344104,-16.809338,-13.929558,19.281208
5.9922814,3.3081079,6.180628,-1.2558625,0.65465045,-16.799643,-13.875395,19.275219
5.993655,3.3144548,6.180628,-1.2558625,0.65465045,-16.628675,-13.312971,18.00958
5.9950314,3.3207986,6.691955,-1.5807681,0.6695641,-16.615696,-13.253386,18.002895
5.996734,3.3276381,6.691955,-1.5807681,0.6695641,-16.101627,-12.3462925,16.669458
5.9984403,3.3344738,7.1457577,-1.886499,0.6738252,-16.085522,-12.282017,16.661942
6.000454,3.341743,7.1457577,-1.886499,0.6738252,-16.722507,-11.591095,14.9828205
6.00247,3.3490076,7.540971,-2.1869037,0.6695641,-16.703455,-11.5227375,14.974328
6.0047836,3.356644,7.540971,-2.1869037,0.6695641,-16.260195,-10.660717,13.710771
6.007099,3.3642747,7.873333,-2.4777207,0.6621073,-16.238281,-10.588861,13.701174
6.0096993,3.3722134,7.873333,-2.4777207,0.6621073,-15.38526,-9.86282,12.632807
6.0123005,3.380146,8.144976,-2.7355149,0.6535852,-15.360605,-9.788094,12.6220255
6.0151534,3.3883257,8.144976,-2.7355149,0.6535852,-14.806818,-8.944838,11.571547
6.0180063,3.3964992,8.359094,-2.9506981,0.6397367,-14.77974,-8.867849,11.55946
6.021066,3.4048622,8.359094,-2.9506981,0.6397367,-14.381966,-8.085148,10.689564
6.024125,3.4132192,8.517818,-3.1339238,0.62056196,-14.3528805,-8.006464,10.676043
6.0273557,3.421711,8.517818,-3.1339238,0.62056196,-13.900763,-7.4333076,10.092004
6.030584,3.4301968,8.62541,-3.288387,0.5949956,-13.870014,-7.3534927,10.076998
6.0339494,3.4387584,8.62541,-3.288387,0.5949956,-13.421348,-6.875558,9.572895
6.037311,3.447314,8.694653,-3.4098272,0.56729877,-13.389275,-6.795209,9.556404
6.040785,3.4559352,8.694653,-3.4098272,0.56729877,-12.996975,-6.470085,9.184814
6.0442514,3.4645426,8.729806,-3.4993093,0.53427553,-12.96385,-6.3894234,9.166765
6.0477896,3.4731653,8.729806,-3.4993093,0.53427553,-12.848604,-6.050127,8.592547
6.051323,3.4817832,8.730871,-3.557899,0.5023176,-12.81478,-5.9695835,8.572954
6.054898,3.4903855,8.730871,-3.557899,0.5023176,-12.9095955,-5.7432957,7.985985
6.0584164,3.4988635,8.698914,-3.5919874,0.47249022,-13.397108,-5.8026323,7.193324
6.0620036,3.507416,8.698914,-3.5919874,0.47249022,-13.397108,-5.8026323,7.193324
6.0656414,3.5161016,8.633932,-3.610097,0.45225018,-13.36217,-5.722044,7.1704016
6.0692277,3.5245762,8.633932,-3.610097,0.45225018,-13.7347145,-5.801589,6.1896267
6.0727887,3.5330052,8.535928,-3.6207495,0.4458586,-13.700459,-5.7237234,6.165843
6.0763755,3.5413837,8.535928,-3.6207495,0.4458586,-12.574178,-5.253829,5.231708
6.0799575,3.549768,8.401705,-3.6079664,0.44159755,-12.539668,-5.1767397,5.2065554
6.0835247,3.558015,8.401705,-3.6079664,0.44159755,-11.743917,-4.545617,3.988814
6.0870695,3.5662274,8.223805,-3.5600295,0.43520597,-11.709717,-4.470495,3.9627318
6.090581,3.5742838,8.223805,-3.5600295,0.43520597,-11.010231,-3.7170248,2.413757
6.09408,3.5823305,7.9990344,-3.4865263,0.4245533,-10.976422,-3.643816,2.3867943
6.097513,3.5901487,7.9990344,-3.4865263,0.4245533,-9.841902,-2.730116,0.775002
6.100934,3.5979576,7.7284575,-3.3906524,0.40857434,-8.473983,-1.4373717,-0.80235755
6.104279,3.6055074,7.7284575,-3.3906524,0.40857434,-8.473983,-1.4373717,-0.80235755
6.1076055,3.613033,7.405682,-3.2745385,0.38087747,-8.441763,-1.3697038,-0.8300649
6.1108217,3.6202126,7.405682,-3.2745385,0.38087747,-6.9549165,0.19823372,-2.4898634
6.1140265,3.6273832,7.0296435,-3.1371195,0.33613637,-6.9238415,0.26232636,-2.5173564
6.117075,3.6341472,7.0296435,-3.1371195,0.33613637,-5.8839135,1.8309526,-3.9228387
6.1201143,3.6409101,6.5960813,-2.9751992,0.27435103,-5.8544087,1.8910205,-3.949767
6.122952,3.6472147,6.5960813,-2.9751992,0.27435103,-4.6584797,3.392941,-5.3495874
6.1257753,3.6535065,6.1007333,-2.7909086,0.19445619,-4.6310472,3.448474,-5.375526
6.1283684,3.6592941,6.1007333,-2.7909086,0.19445619,-3.6290097,4.8353567,-6.6926413
6.1309533,3.6650822,5.547861,-2.579986,0.096451856,-3.6038737,4.8861194,-6.717263
6.13328,3.670313,5.547861,-2.579986,0.096451856,-2.7289023,6.0714955,-7.7597656
6.1355996,3.6755445,4.9417253,-2.345628,-0.014335647,-2.7063298,6.117097,-7.7826467
6.137641,3.680171,4.9417253,-2.345628,-0.014335647,-1.9442534,7.019223,-8.507031
6.1398025,3.6850855,4.9417253,-2.345628,-0.014335647,-1.9232068,7.061825,-8.529051
6.141581,3.6891546,4.284457,-2.09103,-0.13790633,-1.1684699,7.753002,-9.122102
6.1431894,3.6928473,3.5856438,-1.8193873,-0.2731949,-1.1527967,7.78485,-9.13899
6.144586,3.6960783,3.5856438,-1.8193873,-0.2731949,-0.6028886,8.3824625,-9.556131
6.145998,3.6993568,2.849546,-1.5338964,-0.4170056,-0.5891266,8.4106045,-9.571372
6.147086,3.7019074,2.849546,-1.5338964,-0.4170056,-0.30079365,8.72934,-9.588118
6.1481695,3.7044563,2.0900126,-1.2398835,-0.56507736,-0.29022837,8.751144,-9.600132
6.148924,3.7062593,2.0900126,-1.2398835,-0.56507736,-0.09133959,9.058628,-9.570375
6.149671,3.7080522,1.3134347,-0.94160944,-0.7142144,-0.08405018,9.073915,-9.5789175
6.150085,3.709077,1.3134347,-0.94160944,-0.7142144,0.02533102,9.154463,-9.368351
6.1505003,3.7101083,0.5262042,-0.6454659,-0.86228615,0.029378414,9.163232,-9.3733
6.1505833,3.710353,0.5262042,-0.6454659,-0.86228615,0.01103735,9.155729,-8.886083
6.1506658,3.710598,-0.25569987,-0.35464874,-1.0114232,0.0118432045,9.157795,-8.887275
6.150425,3.7100642,-0.25569987,-0.35464874,-1.0114232,-0.18915033,8.86622,-8.092146
6.1501875,3.7095368,-1.0237556,-0.076614715,-1.1562991,-0.6062832,8.395476,-7.2719154
6.1496406,3.7082386,-1.0237556,-0.076614715,-1.1562991,-0.6062832,8.395476,-7.2719154
6.1490893,3.7069256,-1.7619838,0.1865056,-1.2947835,-0.6116586,8.384282,-7.2656584
6.1482563,3.7048888,-1.7619838,0.1865056,-1.2947835,-1.1656585,7.7252645,-6.1929407
6.14743,3.7028613,-2.4618626,0.43045115,-1.4226153,-1.1737175,7.7079554,-6.1833334
6.1463394,3.700129,-2.4618626,0.43045115,-1.4226153,-1.8403614,6.980716,-5.054717
6.145244,3.6973758,-3.1148696,0.659483,-1.5397943,-1.851037,6.9571576,-5.0417824
6.1439247,3.6939993,-3.1148696,0.659483,-1.5397943,-2.8981924,6.209968,-4.0012765
6.1426086,3.6906211,-3.7146134,0.8704054,-1.6420597,-2.911013,6.1809754,-3.9855897
6.141086,3.686656,-3.7146134,0.8704054,-1.6420597,-3.7829719,5.1844206,-2.875543
6.1395645,3.6826808,-3.7146134,0.8704054,-1.6420597,-3.7977917,5.1501703,-2.8573627
6.1378427,3.678134,-4.2589636,1.062153,-1.7198241,-4.039612,4.3926563,-1.4768302
6.1361494,3.6736479,-4.7489853,1.2539006,-1.7752178,-4.056094,4.353833,-1.4566791
6.1324873,3.6639009,-4.7489853,1.2539006,-1.7752178,-4.93449,3.5413373,-0.4128039
6.1324873,3.6639009,-5.185744,1.4349955,-1.8156978,-4.93449,3.5413373,-0.4128039
6.1303997,3.6583688,-5.185744,1.4349955,-1.8156978,-5.9172635,2.7173645,0.51143765
6.1283903,3.653027,-5.572435,1.589459,-1.8423295,-5.9368052,2.6706483,0.5343425
6.126227,3.6473072,-5.572435,1.589459,-1.8423295,-6.5180774,1.8064462,1.6933849
6.1240706,3.6415896,-5.9069276,1.710899,-1.8497863,-6.539032,1.7561541,1.7172322
6.121794,3.6355565,-5.9069276,1.710899,-1.8497863,-6.9298496,0.88411903,3.020539
6.1195273,3.6295319,-6.1913533,1.8131645,-1.8423295,-6.9518642,0.8308258,3.0449378
6.117158,3.6232314,-6.1913533,1.8131645,-1.8423295,-7.5207386,0.013576984,4.3341846
6.114796,3.6169333,-6.4214506,1.9037119,-1.8199589,-8.21379,-0.8284006,5.767858
6.112353,3.6104193,-6.4214506,1.9037119,-1.8199589,-8.21379,-0.8284006,5.767858
6.109914,3.6039004,-6.6004148,1.9868026,-1.7816094,-8.237432,-0.886714,5.7925544
6.1074095,3.5972135,-6.6004148,1.9868026,-1.7816094,-8.999115,-1.7128496,7.249161
6.1049123,3.5905285,-6.7271814,2.061371,-1.7283461,-9.023303,-1.7729826,7.2735634
6.1023602,3.5837135,-6.7271814,2.061371,-1.7283461,-9.47897,-2.3516035,8.815875
6.099815,3.5769002,-6.8028154,2.1316786,-1.659104,-9.5036,-2.4132214,8.839777
6.0972333,3.5700219,-6.8028154,2.1316786,-1.659104,-10.347388,-2.987955,10.180199
6.0946555,3.5631382,-6.829447,2.19879,-1.5770786,-10.37231,-3.0505314,10.203335
6.0920477,3.5562427,-6.829447,2.19879,-1.5770786,-10.651295,-3.678423,11.624183
6.0894437,3.549342,-6.8070765,2.258445,-1.4865311,-10.676447,-3.7414799,11.646331
6.086819,3.5424783,-6.8070765,2.258445,-1.4865311,-11.013027,-4.27841,13.061216
6.084198,3.53561,-6.737834,2.314904,-1.3863963,-11.038319,-4.3414745,13.082198
6.0815654,3.5288346,-6.737834,2.314904,-1.3863963,-11.542549,-4.8731174,14.380817
6.0789323,3.5220475,-6.6185246,2.3649714,-1.280935,-11.567924,-4.935728,14.400474
6.0762897,3.5153916,-6.6185246,2.3649714,-1.280935,-11.952511,-5.394726,15.506116
6.073654,3.5087442,-6.455539,2.400125,-1.1754739,-11.977882,-5.45632,15.524279
6.0710206,3.5022717,-6.455539,2.400125,-1.1754739,-12.257007,-5.822912,16.537373
6.0683837,3.4957812,-6.2520733,2.4214303,-1.0668169,-12.282366,-5.883301,16.554054
6.0631943,3.4833615,-6.2520733,2.4214303,-1.0668169,-12.461518,-6.348797,17.508568
6.060608,3.4773633,-6.0102587,2.4299526,-0.95816,-12.61563,-6.6348057,18.33167
6.060608,3.4773633,-6.0102587,2.4299526,-0.95816,-12.61563,-6.6348057,18.33167
6.0579834,3.471271,-5.738616,2.4256916,-0.8526988,-12.64081,-6.691923,18.345333
6.055435,3.465559,-5.738616,2.4256916,-0.8526988,-12.732285,-6.874895,19.037552
6.0528893,3.4598486,-5.4382114,2.407582,-0.7525639,-12.756679,-6.928606,19.049412
6.0503883,3.4544501,-5.4382114,2.407582,-0.7525639,-12.890766,-7.099224,19.759205
6.0478873,3.4490485,-5.115436,2.3745587,-0.6577554,-12.914704,-7.1502,19.76954
6.0454454,3.4439847,-5.115436,2.3745587,-0.6577554,-13.115238,-7.1741543,20.377275
6.042993,3.438898,-4.770291,2.326622,-0.5682732,-13.138682,-7.222307,20.386183
6.040623,3.4342012,-4.770291,2.326622,-0.5682732,-12.194067,-7.6595116,21.437763
6.038253,3.429502,-4.4038396,2.2765546,-0.47985622,-12.2167015,-7.7041187,21.445208
6.0359535,3.4251735,-4.4038396,2.2765546,-0.47985622,-14.168373,-7.6399612,21.418045
6.026946,3.409206,-3.6304576,2.1316786,-0.32645813,-13.459336,-8.8602085,23.152466
6.026946,3.409206,-3.6304576,2.1316786,-0.32645813,-13.459336,-8.8602085,23.152466
6.026946,3.409206,-3.6304576,2.1316786,-0.32645813,-13.459336,-8.8602085,23.152466
6.026946,3.409206,-3.6304576,2.1316786,-0.32645813,-13.459336,-8.8602085,23.152466
6.024764,3.4055781,-3.6304576,2.1316786,-0.32645813,-13.480098,-8.894951,23.156252
6.0224233,3.4019723,-3.2150044,2.0379353,-0.2497591,-13.42096,-9.178604,23.561668
6.0207276,3.3993602,-3.2150044,2.0379353,-0.2497591,-13.437078,-9.203711,23.56385
6.0181456,3.39575,-2.7793114,1.9388657,-0.17519058,-14.299575,-9.655151,23.681046
6.0169535,3.394083,-2.7793114,1.9388657,-0.17519058,-14.3109,-9.671251,23.682037
6.015154,3.3918412,-2.3255086,1.8120992,-0.10701366,-14.409382,-10.12398,23.836031
6.013108,3.3892932,-2.3255086,1.8120992,-0.10701366,-14.428789,-10.148722,23.836802
6.011765,3.3878481,-1.8567923,1.6576358,-0.042032525,-14.149427,-10.421442,23.807993
6.009654,3.3855765,-1.8567923,1.6576358,-0.042032525,-14.169436,-10.443691,23.807793
6.0087204,3.384766,-1.3710318,1.4839977,0.01868755,-14.07772,-10.681576,23.591751
6.0069427,3.3832228,-1.3710318,1.4839977,0.01868755,-14.094551,-10.696911,23.590643
6.0055194,3.3823717,-0.87461853,1.2986417,0.07514657,-14.18943,-10.753525,23.157887
6.0048428,3.3819675,-0.37287894,1.1005025,0.1220182,-14.195832,-10.757679,23.157032
6.0038233,3.381737,-0.37287894,1.1005025,0.1220182,-14.171956,-10.798759,22.599411
6.0028,3.381506,0.12992588,0.8874496,0.15717193,-14.294613,-10.857061,21.818762
6.001992,3.3817742,0.12992588,0.8874496,0.15717193,-14.294613,-10.857061,21.818762
6.0009336,3.383167,0.63060015,0.659483,0.18167302,-14.12745,-10.840176,21.027514
6.000795,3.38335,0.63060015,0.659483,0.18167302,-14.128762,-10.838593,21.026728
6.0002584,3.3840563,1.121687,0.42299432,0.19871724,-14.133834,-10.832468,21.023708
5.999914,3.3853028,1.121687,0.42299432,0.19871724,-14.113144,-10.85478,20.282534
5.9995713,3.3865445,1.5989256,0.18437508,0.20404357,-14.116381,-10.843624,20.27877
5.999462,3.38825,1.5989256,0.18437508,0.20404357,-14.146144,-10.823286,19.532373
5.999354,3.389956,2.055924,-0.05637469,0.19765198,-14.147164,-10.807735,19.528126
5.99948,3.3921027,2.055924,-0.05637469,0.19765198,-14.299206,-10.787996,18.714214
5.9996057,3.3942494,2.490552,-0.2928634,0.18699934,-14.298015,-10.768267,18.7095
5.999959,3.396809,2.490552,-0.2928634,0.18699934,-14.237216,-10.749405,18.134544
6.000313,3.3993685,2.9006786,-0.52296054,0.17208563,-14.233874,-10.725769,18.129353
6.0008864,3.4023175,2.9006786,-0.52296054,0.17208563,-14.123109,-10.731947,17.453354
6.001482,3.4053779,2.9006786,-0.52296054,0.17208563,-14.117481,-10.703592,17.447437
6.0022483,3.408642,3.2809782,-0.73707867,0.1518456,-13.990525,-10.52483,16.747046
6.003014,3.4119022,3.2809782,-0.73707867,0.1518456,-13.983287,-10.4945545,16.740871
6.003971,3.4155107,3.6271892,-0.9362831,0.125214,-13.840159,-10.240715,15.723848
6.0049305,3.4191294,3.6271892,-0.9362831,0.125214,-13.8310795,-10.207066,15.717026
6.0060635,3.423052,3.9361157,-1.1195086,0.09112553,-13.518689,-9.725218,14.718522
6.0071936,3.426966,3.9361157,-1.1195086,0.09112553,-13.507996,-9.688801,14.7110815
6.008474,3.43112,4.200301,-1.2878205,0.04958022,-12.95957,-9.166485,13.678501
6.009753,3.4352727,4.200301,-1.2878205,0.04958022,-12.947451,-9.127825,13.670448
6.011168,3.4396162,4.41655,-1.4422837,0.002708584,-12.780812,-8.603727,12.599008
6.0125813,3.443959,4.41655,-1.4422837,0.002708584,-12.767413,-8.563295,12.590389
6.0141144,3.448444,4.5848618,-1.5839639,-0.051619902,-12.503879,-8.057041,11.609431
6.0156426,3.452919,4.5848618,-1.5839639,-0.051619902,-12.489381,-8.015383,11.600313
6.017285,3.4575086,4.7073674,-1.7149915,-0.10807892,-12.210431,-7.4889984,10.695494
6.018921,3.462088,4.7073674,-1.7149915,-0.10807892,-12.194893,-7.446377,10.68589
6.020652,3.4667258,4.7851315,-1.8311052,-0.16347267,-11.905512,-6.876457,9.895607
6.0223756,3.4713535,4.7851315,-1.8311052,-0.16347267,-11.889126,-6.833398,9.885621
6.024176,3.4759996,4.8213506,-1.9301748,-0.2167359,-11.632582,-6.4358015,9.382312
6.0259748,3.48065,4.8213506,-1.9301748,-0.2167359,-11.615468,-6.3925514,9.371957
6.027825,3.4852726,4.823481,-2.0090044,-0.27106437,-11.334497,-5.9664736,8.75824
6.0296726,3.4898999,4.823481,-2.0090044,-0.27106437,-11.3169,-5.9234657,8.747599
6.0315533,3.4944828,4.7968493,-2.0654635,-0.32539287,-11.035619,-5.6989107,8.143181
6.0334296,3.4990654,4.7968493,-2.0654635,-0.32539287,-11.017735,-5.6563597,8.132284
6.0353165,3.503581,4.7457166,-2.0984867,-0.38185188,-10.942282,-5.4755783,7.3265305
6.037198,3.508097,4.7457166,-2.0984867,-0.38185188,-10.924324,-5.4337063,7.3154063
6.039071,3.5125341,4.6754093,-2.1091392,-0.4383109,-10.49464,-5.1387978,6.404092
6.0409355,3.5169625,4.6754093,-2.1091392,-0.4383109,-10.476834,-5.097802,6.3927875
6.0427737,3.5212955,4.5848618,-2.0984867,-0.49476993,-9.8128395,-4.7416887,5.1126184
6.044606,3.5256286,4.5848618,-2.0984867,-0.49476993,-9.795319,-4.7016563,5.1011515
6.0463924,3.5298357,4.473009,-2.063333,-0.55122894,-8.887597,-3.7721844,3.3660052
6.048177,3.534052,4.473009,-2.063333,-0.55122894,-8.870526,-3.7333221,3.3544507
6.049894,3.5381045,4.3291984,-2.0004823,-0.6108837,-7.7431793,-2.4989018,1.346398
6.0516043,3.5421538,4.3291984,-2.0004823,-0.6108837,-7.7268014,-2.4616637,1.3349231
6.0532265,3.5459855,4.138516,-1.9088696,-0.6758649,-6.4806447,-0.951633,-0.90749085
6.0548415,3.5498137,4.138516,-1.9088696,-0.6758649,-6.465165,-0.9165065,-0.9186694
6.0563183,3.5533245,3.8839178,-1.7927557,-0.7483029,-4.8995667,0.7485088,-3.2993398
6.0577893,3.5568352,3.5504901,-1.6521409,-0.83778507,-3.599543,2.3318691,-5.4455194
6.0590615,3.5599575,3.5504901,-1.6521409,-0.83778507,-3.599543,2.3318691,-5.4455194
6.060328,3.5630803,3.5504901,-1.6521409,-0.83778507,-3.587389,2.360357,-5.4552126
6.0613723,3.5657551,3.1286454,-1.4870249,-0.942181,-2.8686838,3.6153169,-7.43172
6.062412,3.568431,3.1286454,-1.4870249,-0.942181,-2.8587034,3.6396418,-7.440276
6.0632167,3.5705836,2.6205142,-1.3048646,-1.0582948,-2.238059,4.6934633,-8.879007
6.0640163,3.5727324,2.6205142,-1.3048646,-1.0582948,-2.2303796,4.7129316,-8.886055
6.0645776,3.5742936,2.032488,-1.104595,-1.179735,-2.196257,5.5889645,-10.035673
6.065135,3.5758526,2.032488,-1.104595,-1.179735,-2.1909018,5.603057,-10.040886
6.0654364,3.576754,1.3816116,-0.88728094,-1.3054361,-2.1832185,6.3485937,-10.666438
6.0657372,3.577658,1.3816116,-0.88728094,-1.3054361,-2.1803312,6.356741,-10.669527
6.065769,3.577863,0.68492866,-0.64866173,-1.4268763,-2.4529629,6.899643,-10.909718
6.0658007,3.5780678,0.68492866,-0.64866173,-1.4268763,-2.4526591,6.901453,-10.910494
6.0655546,3.5775447,-0.043712232,-0.39619404,-1.5419248,-2.6274042,7.246233,-10.6359005
6.06531,3.5770216,-0.043712232,-0.39619404,-1.5419248,-2.6297545,7.241459,-10.634251
6.0647836,3.575757,-0.7883321,-0.13200846,-1.6505818,-2.9125419,7.3161583,-9.864004
6.064258,3.574489,-0.7883321,-0.13200846,-1.6505818,-2.9175887,7.304637,-9.859904
6.063379,3.5723097,-1.5308214,0.13963397,-1.7507167,-3.0744743,7.0789347,-8.622238
6.0626326,3.5704513,-2.254136,0.4112764,-1.84446,-3.0816379,7.0620413,-8.61626
6.0615783,3.5677874,-2.254136,0.4112764,-1.84446,-3.8626928,6.4680085,-7.0131903
6.060509,3.5650725,-2.9422967,0.67333144,-1.9264853,-3.8729553,6.4433117,-7.0045567
6.059188,3.561686,-2.9422967,0.67333144,-1.9264853,-4.7523317,5.6128197,-5.0497937
6.057867,3.5582829,-3.5782597,0.9140812,-1.9914665,-4.765003,5.581816,-5.0391717
6.056327,3.5542743,-3.5782597,0.9140812,-1.9914665,-5.526764,4.448721,-2.848069
6.054795,3.5502663,-4.1492414,1.13033,-2.037273,-5.5414534,4.412135,-2.835852
6.053068,3.5457218,-4.1492414,1.13033,-2.037273,-6.3480825,3.1256235,-0.5045984
6.0513487,3.541174,-4.642459,1.3263385,-2.066035,-6.3645535,3.0840168,-0.49112082
6.049444,3.5361867,-4.642459,1.3263385,-2.066035,-7.5032744,1.6736143,2.0229037
6.047547,3.5311952,-5.0515203,1.5042378,-2.0681655,-7.5214353,1.6278102,2.0371485
6.045469,3.525839,-5.0515203,1.5042378,-2.0681655,-8.384073,0.18512917,4.561164
6.0433974,3.5204775,-5.3689694,1.6618968,-2.0468602,-8.403875,0.13575935,4.5757766
6.0411677,3.5148282,-5.3689694,1.6618968,-2.0468602,-9.00458,-1.4342995,7.119014
6.038947,3.5091782,-5.5926747,1.8067728,-2.00638,-9.025785,-1.4865026,7.1336436
6.036596,3.5033312,-5.5926747,1.8067728,-2.00638,-9.483973,-3.0633602,9.638262
6.0342326,3.4974303,-5.721572,1.9399309,-1.9413991,-9.506515,-3.1180658,9.652689
6.031779,3.491464,-5.721572,1.9399309,-1.9413991,-9.697508,-4.720167,11.864616
6.029341,3.4855144,-5.759921,2.0645669,-1.8572432,-9.720732,-4.7755146,11.878251
6.0268006,3.479521,-5.759921,2.0645669,-1.8572432,-9.701824,-6.2487698,13.873781
6.024254,3.4734907,-5.707723,2.1838765,-1.7645651,-9.726057,-6.3050604,13.886611
6.021638,3.4675694,-5.707723,2.1838765,-1.7645651,-9.545032,-7.682085,15.612774
6.019027,3.461641,-5.5735,2.3053167,-1.6665608,-9.569841,-7.737627,15.624336
6.016334,3.4558754,-5.5735,2.3053167,-1.6665608,-9.379932,-8.88356,16.798378
6.013651,3.4501147,-5.3647084,2.4256916,-1.5685565,-9.405388,-8.937733,16.808464
6.0108743,3.4445696,-5.3647084,2.4256916,-1.5685565,-9.144411,-9.986063,17.746273
6.008096,3.4390066,-5.0920005,2.5492623,-1.4726827,-9.010815,-10.892372,18.240662
6.005262,3.4338052,-5.0920005,2.5492623,-1.4726827,-9.010815,-10.892372,18.240662
6.002405,3.4285502,-4.763899,2.6760287,-1.3821352,-9.037834,-10.942211,18.247421
5.999466,3.4236732,-4.763899,2.6760287,-1.3821352,-8.95548,-11.759649,18.75541
5.996515,3.4187653,-4.387861,2.8070562,-1.2990446,-8.983346,-11.806444,18.760353
5.993474,3.4142816,-4.387861,2.8070562,-1.2990446,-8.983301,-12.500689,18.998287
5.9904294,3.409783,-3.970277,2.9380836,-1.2244761,-9.031934,-13.167032,19.15591
5.9872956,3.4057496,-3.970277,2.9380836,-1.2244761,-9.031934,-13.167032,19.15591
5.9841413,3.4016826,-3.5164742,3.0659153,-1.1616255,-9.061608,-13.206343,19.157036
5.9808903,3.3981056,-3.5164742,3.0659153,-1.1616255,-9.216661,-13.739264,19.247446
5.9776406,3.3945236,-3.0285833,3.1884208,-1.1094275,-9.247172,-13.774216,19.246655
5.9742966,3.3914602,-3.0285833,3.1884208,-1.1094275,-9.460494,-14.206745,19.24416
5.9709334,3.3883739,-2.51193,3.3024042,-1.071078,-9.492005,-14.237255,19.241465
5.9674807,3.3858309,-2.51193,3.3024042,-1.071078,-9.974427,-14.468796,18.930614
5.964029,3.383284,-1.9750367,3.4014738,-1.0412506,-10.0067005,-14.494463,18.926058
5.9605,3.3812938,-1.9750367,3.4014738,-1.0412506,-10.413151,-14.8407345,18.996464
5.956949,3.3792887,-1.4210992,3.4813685,-1.0231411,-10.446263,-14.861534,18.990063
5.9533315,3.3778517,-1.4210992,3.4813685,-1.0231411,-9.685088,-14.4031925,18.795307
5.9497175,3.3764136,-0.8629006,3.5591328,-1.0135537,-9.718712,-14.418896,18.787165
5.946039,3.3755417,-0.8629006,3.5591328,-1.0135537,-11.768808,-14.261951,17.810211
5.94221,3.374632,-0.8629006,3.5591328,-1.0135537,-11.804338,-14.273058,17.799967
5.938549,3.3743143,-0.3110936,3.5921562,-1.01888,-11.062547,-14.364912,17.788864
5.934925,3.3739986,0.23325653,3.5932214,-1.0305979,-11.096087,-14.370544,17.77776
5.9312277,3.3742142,0.23325653,3.5932214,-1.0305979,-11.096743,-14.199099,17.25758
5.9237995,3.3751662,0.75949717,3.5804381,-1.0412506,-11.782965,-13.980959,16.809412
5.9237995,3.3751662,0.75949717,3.5804381,-1.0412506,-11.782965,-13.980959,16.809412
5.92008,3.375906,1.266563,3.539958,-1.0572295,-11.8172035,-13.977335,16.795254
5.9164205,3.3771381,1.266563,3.539958,-1.0572295,-12.5116415,-13.768198,16.210297
5.912739,3.3783789,1.7480626,3.4685855,-1.0753391,-12.545436,-13.760178,16.194935
5.909137,3.3800838,1.7480626,3.4685855,-1.0753391,-12.621548,-13.68578,15.877064
5.9055276,3.3817937,2.2039957,3.3673854,-1.0891875,-12.654586,-13.673664,15.86069
5.9020243,3.3839414,2.2039957,3.3673854,-1.0891875,-12.73449,-13.705536,15.350395
5.898503,3.386102,2.6322322,3.2555325,-1.095579,-12.766629,-13.689518,15.333075
5.8951063,3.3886695,2.6322322,3.2555325,-1.095579,-12.677878,-13.751286,14.66394
5.891695,3.39125,3.0380979,3.1319618,-1.0987749,-12.708925,-13.731655,14.645805
5.8884144,3.394218,3.0380979,3.1319618,-1.0987749,-12.915918,-13.694237,13.889713
5.8851266,3.397195,3.424789,2.999869,-1.095579,-12.945765,-13.671223,13.870829
5.881981,3.4005377,3.424789,2.999869,-1.095579,-13.098778,-13.525276,13.118849
5.8720503,3.412247,3.7976315,2.8603194,-1.0881222,-13.427961,-12.9879,12.335623
5.8720503,3.412247,3.7976315,2.8603194,-1.0881222,-13.427961,-12.9879,12.335623
5.8720503,3.412247,3.7976315,2.8603194,-1.0881222,-13.427961,-12.9879,12.335623
5.8698044,3.4154398,4.154495,2.7047908,-1.0742738,-13.759452,-12.392727,11.859664
5.8661194,3.4206834,4.154495,2.7047908,-1.0742738,-13.792636,-12.351307,11.832711
5.8641167,3.4239628,4.4996405,2.5332832,-1.055099,-13.623898,-11.492012,11.409841
5.8610454,3.4289947,4.4996405,2.5332832,-1.055099,-13.651484,-11.452099,11.385292
5.8539643,3.4429379,5.14306,2.170028,-1.0210105,-13.815498,-9.468597,11.359804
5.8539643,3.4429379,5.14306,2.170028,-1.0210105,-13.815498,-9.468597,11.359804
5.8539643,3.4429379,5.14306,2.170028,-1.0210105,-13.815498,-9.468597,11.359804
5.851598,3.448032,5.427486,1.9868026,-1.014619,-13.836663,-9.428043,11.336909
5.849457,3.453275,5.427486,1.9868026,-1.014619,-14.253223,-8.414061,11.477047
5.8472857,3.4585917,5.427486,1.9868026,-1.014619,-14.272598,-8.371717,11.453817
5.8436356,3.468738,5.6788883,1.7971854,-1.0167495,-14.362593,-7.44322,11.688487
5.8425827,3.471665,5.6788883,1.7971854,-1.0167495,-14.371967,-7.419981,11.675896
5.841431,3.4753072,5.9036593,1.6001115,-1.0231411,-13.984774,-6.552946,11.948069
5.8391204,3.4826145,5.9036593,1.6001115,-1.0231411,-14.005318,-6.494869,11.917368
5.8378425,3.4872155,6.0964723,1.4051682,-1.0359243,-13.772464,-5.7782507,12.042166
5.8363748,3.492492,6.0964723,1.4051682,-1.0359243,-13.78549,-5.736349,12.02033
5.8349037,3.4984899,6.260523,1.2208774,-1.0572295,-13.654889,-5.075694,12.043897
5.832534,3.5081303,6.260523,1.2208774,-1.0572295,-13.675891,-4.9993687,12.004187
5.83066,3.5167518,6.3958116,1.0429782,-1.0859917,-13.596715,-4.3756895,11.87326
5.83066,3.5167518,6.3958116,1.0429782,-1.0859917,-13.596715,-4.3756895,11.87326
5.8282723,3.5291317,6.502338,0.8789275,-1.1136886,-13.531643,-3.7320194,11.545222
5.8282723,3.5291317,6.502338,0.8789275,-1.1136886,-13.531643,-3.7320194,11.545222
5.826127,3.5416257,6.5832977,0.73085576,-1.1339285,-13.670305,-3.1260796,11.010651
5.826127,3.5416257,6.5832977,0.73085576,-1.1339285,-13.670305,-3.1260796,11.010651
5.825151,3.54798,6.6323,0.603024,-1.1445812,-13.765113,-2.884613,10.333519
5.8242016,3.5541298,6.651475,0.49117124,-1.1467117,-13.773487,-2.836481,10.308123
5.8233356,3.560391,6.651475,0.49117124,-1.1467117,-13.584803,-2.6965075,9.516223
5.822464,3.566654,6.6493444,0.39955848,-1.1392549,-13.592485,-2.6476965,9.490135
5.821677,3.5729141,6.6493444,0.39955848,-1.1392549,-13.197195,-2.3595228,8.5207815
5.8208866,3.579163,6.6216474,0.32498997,-1.123276,-13.204161,-2.3110485,8.494469
5.8201737,3.5853767,6.6216474,0.32498997,-1.123276,-12.659769,-1.7936354,7.08924
5.8194532,3.5916104,6.6216474,0.32498997,-1.123276,-12.666108,-1.7455206,7.062664
5.818799,3.5977683,6.5651884,0.27172676,-1.1041012,-12.044586,-0.8648815,5.393935
5.818143,3.6038966,6.471445,0.2376383,-1.0881222,-12.050358,-0.81784153,5.367444
5.8175316,3.6099672,6.471445,0.2376383,-1.0881222,-11.385355,0.32519722,3.5071192
5.816918,3.6160147,6.33083,0.2227246,-1.0817306,-11.390752,0.37132978,3.4805593
5.816334,3.6218863,6.33083,0.2227246,-1.0817306,-10.529185,1.589133,1.5631351
5.8157406,3.627794,6.133756,0.22698565,-1.0891875,-10.534394,1.6338725,1.5366926
5.815146,3.6334546,6.133756,0.22698565,-1.0891875,-9.5771475,2.7587013,-0.31816435
5.8145485,3.6390991,5.8695707,0.25042146,-1.1147538,-9.5823965,2.8010602,-0.344028
5.8139076,3.6444783,5.8695707,0.25042146,-1.1147538,-8.496264,3.693462,-2.0834248
5.813263,3.6498477,5.8695707,0.25042146,-1.1147538,-8.50192,3.7332938,-2.1087534
5.812534,3.6549244,5.532947,0.2940973,-1.1648213,-7.5554256,4.349946,-3.5411522
5.811822,3.6598468,5.532947,0.2940973,-1.1648213,-7.5616655,4.385925,-3.5652072
5.8110003,3.6644077,5.126016,0.35694793,-1.2340635,-6.9798946,4.7922764,-4.727916
5.8101735,3.668974,4.6562347,0.43471223,-1.3224804,-6.987139,4.825038,-4.751173
5.809229,3.6730285,4.6562347,0.43471223,-1.3224804,-6.511783,5.1312733,-5.653826
5.808273,3.677116,4.1278634,0.5252597,-1.4279416,-6.52015,5.159889,-5.6757274
5.8071823,3.6806288,4.1278634,0.5252597,-1.4279416,-6.1609864,5.365738,-6.356474
5.8060865,3.6841455,3.5515554,0.6253946,-1.5472512,-6.1705647,5.3895526,-6.376542
5.8048368,3.6870558,3.5515554,0.6253946,-1.5472512,-5.798414,5.571193,-6.9978857
5.803582,3.6899695,2.9368978,0.7340515,-1.6772134,-5.809369,5.5899644,-7.015977
5.8021646,3.6922328,2.9368978,0.7340515,-1.6772134,-5.6780887,5.7997704,-7.29515
5.800746,3.6944938,2.2924128,0.8437738,-1.8199589,-5.6904583,5.8131685,-7.3109922
5.799149,3.6960847,2.2924128,0.8437738,-1.8199589,-5.6325493,5.811545,-7.425044
5.7975564,3.6976686,1.6266224,0.95562655,-1.969096,-5.646413,5.819409,-7.4385223
5.7957916,3.698555,1.6266224,0.95562655,-1.969096,-6.0161066,5.5487304,-7.2483754
5.794026,3.6994395,0.9501795,1.0610877,-2.118233,-6.031452,5.5509415,-7.2593594
5.792095,3.6996117,0.9501795,1.0610877,-2.118233,-6.3642464,5.236229,-6.8176293
5.790165,3.6997812,0.2758671,1.1558963,-2.263109,-6.380986,5.2327204,-6.826023
5.788084,3.6992407,0.2758671,1.1558963,-2.263109,-6.7533584,4.74477,-6.0752096
5.7860036,3.6986961,-0.38459685,1.2389868,-2.4058545,-6.7713594,4.735617,-6.080984
5.7837934,3.6974578,-0.38459685,1.2389868,-2.4058545,-7.2022686,4.127276,-5.06423
5.781569,3.6962056,-1.0194944,1.3114249,-2.5422082,-7.221467,4.1125517,-5.0674562
5.779234,3.6942918,-1.0194944,1.3114249,-2.5422082,-7.811422,3.436682,-3.851945
5.7768974,3.6923676,-1.6203036,1.3710797,-2.6721704,-7.8315454,3.4167392,-3.852731
5.7744546,3.6898115,-1.6203036,1.3710797,-2.6721704,-8.304425,2.6343935,-2.5281672
5.772019,3.68725,-2.178502,1.4211471,-2.7925453,-8.304425,2.6343935,-2.5281672
5.7694817,3.6840975,-2.178502,1.4211471,-2.7925453,-8.742774,1.7908971,-1.0641849
5.766952,3.6809387,-2.6887639,1.4626924,-2.9022677,-8.764437,1.7613953,-1.0607619
5.7643332,3.6772447,-2.6887639,1.4626924,-2.9022677,-9.294403,0.9472225,0.35703564
5.761723,3.6735432,-3.1500235,1.4989114,-2.9981413,-9.31669,0.9135189,0.36212826
5.7590246,3.6693525,-3.1500235,1.4989114,-2.9981413,-10.82889,0.09069157,1.5275407
5.7563286,3.6651402,-3.5580196,1.513825,-3.085493,-10.851837,0.052999496,1.534018
5.753576,3.6605148,-3.5580196,1.513825,-3.085493,-8.059653,-1.1849885,3.5528846
5.7508316,3.6558752,-3.9127526,1.5361956,-3.1483436,-8.082938,-1.2259741,3.5604396
5.7480273,3.6508217,-3.9127526,1.5361956,-3.1483436,-12.425833,-1.9980116,4.3305216
5.7452335,3.6457522,-4.2184834,1.5756104,-3.201607,-12.449463,-2.0423174,4.339038
5.742384,3.6403668,-4.2184834,1.5756104,-3.201607,-14.288324,-4.258258,5.698601
5.7393756,3.6346385,-4.2184834,1.5756104,-3.201607,-14.313681,-4.307991,5.7081327
5.736624,3.629069,-4.445385,1.5031725,-3.2506092,-10.769474,-4.887453,8.1167965
5.733861,3.623437,-4.6094356,1.4499092,-3.262327,-10.79268,-4.935913,8.126312
5.731172,3.6176286,-4.6094356,1.4499092,-3.262327,-14.521451,-5.952773,8.418982
5.7284465,3.6116953,-4.7148967,1.376406,-3.270849,-14.544268,-6.0034084,8.429063
5.7257833,3.6055853,-4.7148967,1.376406,-3.270849,-17.10438,-7.448662,9.359083
5.7231417,3.5994747,-4.7532463,1.2017026,-3.2804365,-17.126417,-7.500448,9.369413
5.7206616,3.593257,-4.7532463,1.2017026,-3.2804365,-16.57247,-8.500792,10.591966
5.718194,3.5870147,-4.7298107,0.9662792,-3.2729797,-16.592995,-8.5532055,10.602793
5.715951,3.580722,-4.7298107,0.9662792,-3.2729797,-14.562187,-8.792248,11.706211
5.713723,3.5744123,-4.652046,0.7628137,-3.2452826,-14.580663,-8.844662,11.717611
5.711706,3.5681329,-4.652046,0.7628137,-3.2452826,-13.615746,-8.661776,12.328089
5.709701,3.5618248,-4.542324,0.623264,-3.2111943,-13.632326,-8.71373,12.339777
5.7078533,3.555601,-4.542324,0.623264,-3.2111943,-13.159175,-8.678553,13.02674
5.706022,3.5493622,-4.414492,0.5433692,-3.1685836,-13.174286,-8.72966,13.038298
5.704294,3.5432415,-4.414492,0.5433692,-3.1685836,-13.05924,-9.009531,13.968996
5.7025824,3.5371072,-4.265355,0.5124765,-3.1110594,-13.073327,-9.05965,13.980091
5.7009363,3.5311344,-4.265355,0.5124765,-3.1110594,-13.262915,-9.195076,14.700008
5.697749,3.51949,-4.094913,0.5146071,-3.036491,-13.280625,-9.23707,15.379899
5.697749,3.51949,-4.094913,0.5146071,-3.036491,-13.280625,-9.23707,15.379899
5.6961355,3.5135565,-3.9010348,0.5433692,-2.9512699,-13.293852,-9.285551,15.38954
5.6945763,3.5079968,-3.9010348,0.5433692,-2.9512699,-13.50773,-9.383747,15.9151745
5.6930423,3.5024645,-3.6815903,0.5891756,-2.8564613,-13.520281,-9.429029,15.923433
5.6915016,3.4971764,-3.6815903,0.5891756,-2.8564613,-13.595121,-9.501188,16.404732
5.6899667,3.4918509,-3.4365795,0.6413735,-2.7520652,-13.607651,-9.544897,16.411842
5.6884375,3.4868636,-3.4365795,0.6413735,-2.7520652,-13.505198,-9.471077,16.709873
5.6869183,3.4818606,-3.172394,0.70102835,-2.6434083,-13.517572,-9.5122795,16.715673
5.6853924,3.4772038,-3.172394,0.70102835,-2.6434083,-13.261836,-9.239578,16.883076
5.6838818,3.4725513,-2.891164,0.7702705,-2.5304904,-13.274122,-9.278065,16.887539
5.6823435,3.4682353,-2.891164,0.7702705,-2.5304904,-13.114227,-9.012325,16.818941
5.680818,3.4639182,-2.6024776,0.8491001,-2.4154418,-13.126604,-9.048231,16.822052
5.679262,3.4599683,-2.6024776,0.8491001,-2.4154418,-13.263716,-8.741371,16.517433
5.6776996,3.4559736,-2.6024776,0.8491001,-2.4154418,-13.276358,-8.7748165,16.51918
5.6761,3.4523485,-2.310595,0.9300602,-2.2993279,-13.375488,-8.460709,16.150959
5.6745567,3.4488294,-2.0229735,1.0067593,-2.1757572,-13.387953,-8.490425,16.151344
5.672959,3.4456258,-2.0229735,1.0067593,-2.1757572,-13.443941,-8.086824,15.671691
5.671363,3.4424078,-1.7438743,1.0781319,-2.0511212,-13.456802,-8.114265,15.670815
5.6697407,3.4395564,-1.7438743,1.0781319,-2.0511212,-13.512957,-7.7318954,15.04154
5.6681237,3.4366977,-1.7438743,1.0781319,-2.0511212,-13.525962,-7.7565565,15.039482
5.666452,3.4341483,-1.4818193,1.1473742,-1.9264853,-13.271233,-7.4245634,14.332417
5.6648073,3.431627,-1.2368084,1.21129,-1.8018494,-13.284431,-7.4466314,14.329256
5.6631727,3.4294858,-1.2368084,1.21129,-1.8018494,-13.101202,-7.0970345,13.678763
5.661528,3.4273212,-1.0109724,1.2688143,-1.6814746,-13.1143675,-7.1163177,13.674637
5.659855,3.4254556,-1.0109724,1.2688143,-1.6814746,-13.213933,-6.764616,13.095003
5.6581845,3.4235847,-0.8011153,1.3156859,-1.5642954,-13.227271,-6.781642,13.089947
5.6565056,3.4220085,-0.8011153,1.3156859,-1.5642954,-13.355583,-6.298414,12.4425
5.654829,3.4204273,-0.61256343,1.3433828,-1.4556384,-13.368942,-6.3131924,12.436665
5.653158,3.4191117,-0.61256343,1.3433828,-1.4556384,-13.23858,-5.842285,11.903512
5.6514893,3.4177916,-0.4431864,1.3540355,-1.3555036,-13.2518425,-5.8550215,11.8970585
5.6498384,3.4167097,-0.4431864,1.3540355,-1.3555036,-12.915387,-5.4109993,11.521448
5.6481895,3.4156241,-0.29617992,1.3540355,-1.2606951,-12.92846,-5.4218893,11.5145235
5.6465673,3.4147496,-0.29617992,1.3540355,-1.2606951,-12.634848,-5.119869,11.181661
5.644947,3.413873,-0.16941343,1.3497744,-1.1712128,-12.647658,-5.129101,11.174393
5.643355,3.413183,-0.16941343,1.3497744,-1.1712128,-12.507004,-4.9884205,10.946588
5.641763,3.41249,-0.06395225,1.3412523,-1.0902528,-12.519559,-4.996193,10.939028
5.6402016,3.4119573,-0.06395225,1.3412523,-1.0902528,-12.551016,-5.146349,10.600883
5.638645,3.411424,0.029791016,1.3210123,-1.0167495,-12.563267,-5.152849,10.593145
5.6371245,3.4110312,0.029791016,1.3210123,-1.0167495,-12.584796,-5.407215,10.345872
5.6356044,3.4106371,0.11607744,1.2911849,-0.9485726,-12.596737,-5.4126015,10.338012
5.634135,3.410374,0.11607744,1.2911849,-0.9485726,-12.431093,-5.761675,10.066777
5.6326623,3.4101088,0.1981028,1.2539006,-0.885722,-12.442631,-5.7660046,10.058876
5.631245,3.4099655,0.1981028,1.2539006,-0.885722,-12.424993,-6.1715565,9.797238
5.6298275,3.4098206,0.2822587,1.207029,-0.8271324,-12.436071,-6.1748962,9.789371
5.628473,3.4097946,0.2822587,1.207029,-0.8271324,-12.470594,-6.5842533,9.441626
5.6271176,3.4097676,0.37280616,1.1495047,-0.7759997,-12.481167,-6.586611,9.4338455
5.6258326,3.409859,0.37280616,1.1495047,-0.7759997,-12.381046,-6.975834,9.067085
5.624548,3.4099495,0.4676147,1.082393,-0.7323239,-12.391048,-6.9771976,9.059441
5.6233406,3.4101548,0.4676147,1.082393,-0.7323239,-12.366922,-7.2888365,8.731182
5.6221333,3.4103596,0.4676147,1.082393,-0.7323239,-12.376305,-7.289236,8.72373
5.6221333,3.4103596,0.4676147,1.082393,-0.7323239,-12.376305,-7.289236,8.72373
5.6221333,3.4103596,0.4676147,1.082393,-0.7323239,-12.376305,-7.289236,8.72373
5.618123,3.4120083,0.6678844,0.92792964,-0.6652122,-11.914196,-7.7143364,8.103151
5.6169386,3.4125535,0.77228034,0.84696954,-0.6417764,-12.033498,-7.875003,7.625828
5.6169386,3.4125535,0.77228034,0.84696954,-0.6417764,-12.033498,-7.875003,7.625828
5.6157966,3.4131918,0.77228034,0.84696954,-0.6417764,-12.042327,-7.8721075,7.6178064
5.6150393,3.4137414,0.87454575,0.76174843,-0.6268627,-12.19183,-8.146983,7.4733553
5.6141915,3.4143562,0.87454575,0.76174843,-0.6268627,-12.198378,-8.143805,7.467101
5.6134176,3.4150763,0.97787637,0.66693985,-0.6183406,-12.606573,-8.1397295,7.0923405
5.61264,3.4158,0.97787637,0.66693985,-0.6183406,-12.612573,-8.135643,7.086258
5.6119804,3.416593,1.0833375,0.5582829,-0.6204711,-12.493158,-7.857914,6.5779343
5.611306,3.4174027,1.0833375,0.5582829,-0.6204711,-12.498348,-7.853034,6.5722675
5.6107526,3.4182723,1.1792114,0.44216907,-0.62366694,-11.726887,-7.4213486,6.3804264
5.6101985,3.419143,1.1792114,0.44216907,-0.62366694,-11.731157,-7.4158344,6.375327
5.609766,3.420026,1.2633673,0.33990368,-0.6268627,-11.2987385,-6.98386,6.1745863
5.6093173,3.4209409,1.2633673,0.33990368,-0.6268627,-11.302189,-6.9778566,6.170004
5.6088448,3.422133,1.3262179,0.2674657,-0.63218904,-11.506935,-6.5388937,5.915683
5.6085367,3.4229083,1.3262179,0.2674657,-0.63218904,-11.509302,-6.5336914,5.9122143
5.6082163,3.4238653,1.3688284,0.21207196,-0.6396459,-11.581363,-6.209178,5.7844687
5.607883,3.4248583,1.3688284,0.21207196,-0.6396459,-11.581363,-6.209178,5.7844687
5.6073136,3.4268112,1.3901337,0.16413505,-0.6492333,-11.346313,-5.8605785,5.7816906
5.6073136,3.4268112,1.391199,0.12898132,-0.6577554,-11.346313,-5.8605785,5.7816906
5.607046,3.4278274,1.391199,0.12898132,-0.6577554,-11.113736,-5.5997753,5.7204523
5.606786,3.428813,1.3784158,0.11193709,-0.66414696,-11.115732,-5.5929747,5.716774
5.6065407,3.4297762,1.3784158,0.11193709,-0.66414696,-11.165497,-5.452241,5.6461897
5.606295,3.4307394,1.3528495,0.10767604,-0.6630817,-11.167379,-5.445587,5.6426325
5.6060524,3.4316797,1.3528495,0.10767604,-0.6630817,-11.102205,-5.3481216,5.677449
5.6058106,3.4326134,1.3176957,0.11513288,-0.6566901,-11.104057,-5.341689,5.67397
5.6055646,3.4335208,1.3176957,0.11513288,-0.6566901,-10.900045,-5.0242167,5.541233
5.605317,3.4353094,1.2761505,0.12898132,-0.6471027,-10.66447,-4.5618763,5.251795
5.605063,3.4353094,1.2761505,0.12898132,-0.6471027,-10.66447,-4.5618763,5.251795
5.604783,3.4362729,1.2761505,0.12898132,-0.6471027,-10.66661,-4.5553083,5.2479973
5.6045303,3.4370735,1.2282135,0.14922135,-0.63751537,-10.505745,-3.7885427,4.890381
5.6042733,3.4378848,1.1664282,0.1747877,-0.6268627,-10.507712,-3.783061,4.8870516
5.6039977,3.4386635,1.1664282,0.1747877,-0.6268627,-10.500246,-2.9590397,4.385683
5.603719,3.4394493,1.1664282,0.1747877,-0.6268627,-10.502379,-2.953793,4.3822794
5.6034284,3.4401577,1.0833375,0.19822352,-0.6215364,-10.356163,-2.2787633,3.8522382
5.603138,3.4408646,1.0833375,0.19822352,-0.6215364,-10.358385,-2.2741218,3.8489246
5.6028366,3.4414604,0.97787637,0.21739827,-0.62366694,-10.308016,-1.6574001,3.4100575
5.602536,3.4420552,0.97787637,0.21739827,-0.62366694,-10.310316,-1.6536064,3.4069319
5.6022263,3.442508,0.8479141,0.22698565,-0.63751537,-10.20734,-1.3204675,3.0832539
5.6019177,3.4429588,0.8479141,0.22698565,-0.63751537,-10.2097,-1.3177428,3.0804033
5.6016016,3.443242,0.69451606,0.23018144,-0.65562487,-10.125924,-1.1390882,3.001275
5.6012864,3.443524,0.69451606,0.23018144,-0.65562487,-10.128336,-1.1376119,2.998774
5.600963,3.4436126,0.52087796,0.22911619,-0.6811912,-10.245724,-1.2381186,2.9248314
5.600641,3.4437008,0.52087796,0.22911619,-0.6811912,-10.248187,-1.238071,2.9227195
5.6003094,3.4435778,0.3333914,0.22485512,-0.71314913,-10.29381,-1.3640761,3.0886297
5.5999784,3.4434545,0.3333914,0.22485512,-0.71314913,-10.296335,-1.3655849,3.0869436
5.599642,3.4431095,0.13631746,0.216333,-0.7461723,-10.318058,-1.5698342,3.3299394
5.599306,3.4427648,0.13631746,0.216333,-0.7461723,-10.32062,-1.5729651,3.3287263
5.598965,3.442191,-0.06714805,0.20674562,-0.77813023,-10.385468,-1.745367,3.6200867
5.5986257,3.4416184,-0.06714805,0.20674562,-0.77813023,-10.38806,-1.7501631,3.6193657
5.5982738,3.440816,-0.27061355,0.20248458,-0.8100882,-10.491297,-1.9912834,3.9877872
5.5979233,3.4400156,-0.27061355,0.20248458,-0.8100882,-10.493964,-1.9977546,3.9874926
5.597562,3.438991,-0.47194853,0.20035404,-0.83778507,-10.563757,-2.1591048,4.327613
5.5972013,3.4379656,-0.47194853,0.20035404,-0.83778507,-10.566502,-2.1672292,4.3277454
5.596833,3.4367225,-0.671153,0.19715825,-0.8633514,-10.540575,-2.3062363,4.663492
5.596466,3.43548,-0.671153,0.19715825,-0.8633514,-10.543369,-2.31595,4.664048
5.5960937,3.434024,-0.86077005,0.1897014,-0.88891774,-10.598877,-2.513977,5.0385237
5.595724,3.4325743,-1.0397345,0.1779835,-0.9155494,-10.6016865,-2.5252004,5.039485
5.5953536,3.4309156,-1.0397345,0.1779835,-0.9155494,-10.767308,-2.7438498,5.3281813
5.594985,3.4292574,-1.2059158,0.15987399,-0.942181,-10.77011,-2.756587,5.3295527
5.5946226,3.4274037,-1.2059158,0.15987399,-0.942181,-10.883001,-2.9526997,5.661769
5.5942616,3.4255505,-1.2059158,0.15987399,-0.942181,-10.885739,-2.9668446,5.663556
5.593915,3.4235156,-1.3582486,0.13324238,-0.97094315,-11.051181,-3.3079033,6.0728054
5.59357,3.4214816,-1.4935372,0.09915392,-0.99757475,-11.053798,-3.3233385,6.075017
5.5932474,3.4192789,-1.4935372,0.09915392,-0.99757475,-11.214264,-3.7421951,6.4559574
5.592928,3.4170837,-1.6107162,0.059739135,-1.0199453,-11.216687,-3.7587667,6.458579
5.592637,3.4147298,-1.6107162,0.059739135,-1.0199453,-11.458313,-4.183464,6.8112116
5.592349,3.4123821,-1.7076553,0.016063292,-1.0401853,-11.460497,-4.2010994,6.8142548
5.592098,3.4099104,-1.7076553,0.016063292,-1.0401853,-11.735344,-4.621814,7.071518
5.591849,3.4074376,-1.7076553,0.016063292,-1.0401853,-11.73723,-4.6403093,7.074955
5.5916414,3.4048607,-1.7875501,-0.032938875,-1.0561643,-11.915976,-5.1335526,7.5480785
5.5914373,3.4022906,-1.8482702,-0.08833262,-1.0700127,-11.9175205,-5.1526976,7.551879
5.5912814,3.399622,-1.8482702,-0.08833262,-1.0700127,-11.741531,-5.5412025,7.9104595
5.5911283,3.3969607,-1.8482702,-0.08833262,-1.0700127,-11.742691,-5.560951,7.9146547
5.5910215,3.394234,-1.8919461,-0.1373348,-1.0774696,-11.791387,-6.03601,8.249589
5.5909014,3.3910983,-1.9217734,-0.17674957,-1.0827959,-11.792294,-6.059204,8.254762
5.590845,3.3887486,-1.9217734,-0.17674957,-1.0827959,-11.86455,-6.5314426,8.565256
5.5907817,3.38599,-1.9377525,-0.20870751,-1.0838611,-11.865028,-6.5518074,8.569948
5.59075,3.3832018,-1.9377525,-0.20870751,-1.0838611,-12.00892,-7.022459,8.857354
5.590721,3.3804138,-1.9388177,-0.23853491,-1.0827959,-12.009136,-7.0430136,8.862204
5.590724,3.3776226,-1.9388177,-0.23853491,-1.0827959,-12.009116,-7.3987436,9.0252075
5.5907297,3.3748286,-1.9260346,-0.26197073,-1.0753391,-12.009073,-7.4193163,9.030161
5.590761,3.3720574,-1.9260346,-0.26197073,-1.0753391,-12.023201,-7.703065,9.288968
5.590796,3.3692694,-1.9015335,-0.27901497,-1.0636212,-12.022938,-7.7235765,9.29397
5.5908523,3.3665197,-1.9015335,-0.27901497,-1.0636212,-12.247564,-7.964058,9.519254
5.5909114,3.3637757,-1.8653145,-0.2928634,-1.0465769,-12.247118,-7.9842443,9.524229
5.5909896,3.3610787,-1.8653145,-0.2928634,-1.0465769,-12.3135605,-8.056742,9.739866
5.591071,3.3583655,-1.8653145,-0.2928634,-1.0465769,-12.312942,-8.076696,9.744816
5.591169,3.3557312,-1.815247,-0.30245078,-1.0220758,-12.355299,-8.2062,10.017838
5.5912704,3.353068,-1.815247,-0.30245078,-1.0220758,-12.35453,-8.225782,10.0227165
5.5913806,3.3505447,-1.7523965,-0.30671185,-0.9965095,-12.415943,-8.340106,10.252443
5.591495,3.3479936,-1.7523965,-0.30671185,-0.9965095,-12.41508,-8.35888,10.257134
5.5916214,3.3455434,-1.6756973,-0.3109729,-0.9656168,-12.485944,-8.506182,10.467589
5.59175,3.3431008,-1.6756973,-0.3109729,-0.9325936,-12.484972,-8.524155,10.472111
5.5918875,3.3407667,-1.5819541,-0.31203815,-0.9325936,-12.345066,-8.627515,10.782936
5.592027,3.3384378,-1.4711666,-0.30564657,-0.8995704,-12.3440075,-8.644651,10.787266
5.5921683,3.3362477,-1.4711666,-0.30564657,-0.8995704,-12.429127,-8.75654,10.896712
5.592312,3.3340642,-1.4711666,-0.30564657,-0.8995704,-12.4280405,-8.772614,10.900776
5.592456,3.3320236,-1.3454654,-0.29712445,-0.86228615,-12.484409,-8.955226,11.148811
5.5926003,3.3299956,-1.3454654,-0.29712445,-0.86228615,-12.483313,-8.970167,11.152608
5.5927463,3.3281372,-1.2037852,-0.28860235,-0.8207408,-12.386438,-9.161016,11.285416
5.5928926,3.3262846,-1.2037852,-0.28860235,-0.8207408,-12.3853245,-9.17466,11.288913
5.5930414,3.3246207,-1.0471914,-0.28221077,-0.78132606,-12.269277,-9.426324,11.416636
5.593191,3.3229606,-1.0471914,-0.28221077,-0.78132606,-12.268141,-9.438542,11.41984
5.593341,3.3214989,-0.87674904,-0.27368864,-0.7419113,-12.185601,-9.669553,11.465849
5.5934916,3.3200402,-0.87674904,-0.27368864,-0.7419113,-12.18446,-9.680278,11.468752
5.593641,3.3187962,-0.6956541,-0.26516652,-0.7035617,-12.149802,-10.000655,11.504859
5.5937915,3.317555,-0.6956541,-0.26516652,-0.7035617,-12.148663,-10.0097685,11.507445
5.593939,3.3165252,-0.50710225,-0.2545139,-0.6716038,-12.1906395,-10.314189,11.390008
5.594086,3.3155,-0.50710225,-0.2545139,-0.6716038,-12.18952,-10.321697,11.392266
5.5942316,3.3146906,-0.31322414,-0.24705704,-0.64603746,-12.20278,-10.614899,11.250575
5.5943775,3.3138828,-0.31322414,-0.24705704,-0.64603746,-12.201671,-10.620786,11.252529
5.594522,3.3132906,-0.116150215,-0.23960018,-0.6215364,-12.262823,-10.854902,11.196723
5.5946665,3.3126986,-0.116150215,-0.23960018,-0.6215364,-12.261724,-10.859186,11.198386
5.594812,3.3123255,0.081988975,-0.23427385,-0.59810054,-12.433002,-11.043781,10.883725
5.594997,3.3118515,0.27693236,-0.23746964,-0.5767953,-12.431596,-11.047138,10.885477
5.595107,3.311737,0.27693236,-0.23746964,-0.5767953,-12.31584,-11.143649,10.74744
5.5952573,3.3115807,0.46867996,-0.24279597,-0.55549,-12.314698,-11.144661,10.748566
5.5954194,3.3116322,0.46867996,-0.24279597,-0.55549,-12.222485,-11.153676,10.452612
5.59558,3.3116832,0.654036,-0.2449265,-0.53311944,-12.221261,-11.153123,10.453538
5.595749,3.3119388,0.654036,-0.2449265,-0.53311944,-12.287017,-11.083994,10.3010235
5.595917,3.3121939,0.8330004,-0.24279597,-0.5118142,-12.285739,-11.081904,10.30173
5.596088,3.3126445,0.8330004,-0.24279597,-0.5118142,-12.562166,-10.882021,10.101084
5.596258,3.3130946,1.0023775,-0.2449265,-0.48837832,-12.56087,-10.878464,10.101545
5.5964355,3.3137357,1.0023775,-0.2449265,-0.48837832,-12.53558,-10.677144,10.044341
5.596612,3.3143747,1.1632324,-0.2513181,-0.46281198,-12.534237,-10.672164,10.044589
5.596798,3.3151941,1.1632324,-0.2513181,-0.46281198,-12.499299,-10.646669,10.178731
5.5969834,3.3160112,1.3176957,-0.25557914,-0.43618038,-12.4978895,-10.640344,10.178797
5.5971775,3.3170075,1.3176957,-0.25557914,-0.43618038,-12.58739,-10.661393,10.370201
5.5974703,3.3185139,1.467898,-0.2598402,-0.40741822,-12.585161,-10.649782,10.369992
5.5975714,3.3190966,1.467898,-0.2598402,-0.40741822,-12.847752,-10.793738,10.614029
5.5977716,3.3202567,1.6191655,-0.2694276,-0.37439504,-12.846225,-10.784819,10.613694
5.597986,3.3215916,1.6191655,-0.2694276,-0.37439504,-13.0648575,-11.004416,10.857406
5.5982018,3.3229346,1.7746942,-0.28753707,-0.3371108,-13.042242,-11.217052,11.028629
5.5984406,3.324459,1.7746942,-0.28753707,-0.3371108,-13.042242,-11.217052,11.028629
5.5986795,3.325988,1.9387449,-0.3141687,-0.29876125,-13.0404215,-11.205321,11.027963
5.5989494,3.327703,1.9387449,-0.3141687,-0.29876125,-12.937811,-11.4315815,11.362394
5.5992184,3.3294177,1.9387449,-0.3141687,-0.29876125,-12.935759,-11.418417,11.361606
5.59952,3.3313305,2.1102524,-0.34186557,-0.26041174,-12.899938,-11.667101,11.5235195
5.5998216,3.333241,2.1102524,-0.34186557,-0.26041174,-12.897638,-11.652431,11.522592
5.600158,3.3353624,2.2902822,-0.3706277,-0.22099695,-12.880703,-11.794161,11.636469
5.600494,3.337479,2.2902822,-0.3706277,-0.22099695,-12.878141,-11.777901,11.635383
5.6008615,3.3398151,2.478834,-0.39619404,-0.18264744,-12.90885,-11.941923,11.787355
5.601228,3.3421457,2.478834,-0.39619404,-0.18264744,-12.906054,-11.9240265,11.786064
5.6016273,3.3447022,2.6737773,-0.4217604,-0.14429791,-12.831177,-11.985794,11.8420315
5.6020255,3.347253,2.6737773,-0.4217604,-0.14429791,-12.828136,-11.966206,11.840494
5.602453,3.3500364,2.874047,-0.4430657,-0.10488313,-13.107377,-11.983141,11.762095
5.60288,3.3528132,2.874047,-0.4430657,-0.10488313,-13.104113,-11.961819,11.760256
5.60288,3.3528132,2.874047,-0.4430657,-0.10488313,-13.104113,-11.961819,11.760256
5.60288,3.3528132,2.874047,-0.4430657,-0.10488313,-13.104113,-11.961819,11.760256
5.60477,3.3654637,3.2916307,-0.48567626,-0.01966197,-13.13274,-11.869526,11.664569
5.605157,3.3680558,3.2916307,-0.48567626,-0.01966197,-13.129776,-11.849632,11.662467
5.6053505,3.369363,3.5025532,-0.50698155,0.026144402,-13.07083,-11.734257,11.436317
5.6058526,3.3727562,3.5025532,-0.50698155,0.026144402,-13.066984,-11.708221,11.433415
5.606466,3.3769221,3.7102797,-0.5293521,0.07195077,-12.851591,-11.441629,11.204653
5.6069975,3.3805344,3.7102797,-0.5293521,0.07195077,-12.847507,-11.413916,11.201322
5.60755,3.384309,3.9148104,-0.54959214,0.12095294,-12.699617,-11.155127,10.96788
5.6087465,3.392511,4.1150804,-0.5655711,0.1699551,-12.52762,-10.790563,10.490353
5.6087465,3.392511,4.1150804,-0.5655711,0.1699551,-12.52762,-10.790563,10.490353
5.609365,3.3967655,4.1150804,-0.5655711,0.1699551,-12.522865,-10.75794,10.48584
5.610009,3.4012399,4.3015013,-0.5783543,0.22002253,-12.244968,-10.378888,10.069101
5.610648,3.405668,4.3015013,-0.5783543,0.22002253,-12.240055,-10.344961,10.064063
5.6112776,3.4100738,4.4751396,-0.58794165,0.27008995,-11.990995,-9.803649,9.589597
5.6124697,3.418394,4.4751396,-0.58794165,0.27008995,-11.981813,-9.73995,9.579361
5.612642,3.4196064,4.6317334,-0.5922027,0.3137658,-11.822474,-8.993258,9.007997
5.6134324,3.425181,4.6317334,-0.5922027,0.3137658,-11.816372,-8.950609,9.000721
5.6139917,3.4291506,4.7680874,-0.59433323,0.35531113,-11.735441,-7.9338484,8.286687
5.614658,3.4338691,4.7680874,-0.59433323,0.35531113,-11.730299,-7.8977833,8.280171
5.6153755,3.4389503,4.8778095,-0.5953985,0.39259538,-11.518856,-6.6283407,7.3296404
5.6160975,3.444049,4.8778095,-0.5953985,0.39259538,-11.513277,-6.5893936,7.322196
5.6168385,3.4492497,4.9534435,-0.593268,0.42561856,-11.129261,-5.137102,6.203511
5.6180096,3.4574351,4.9534435,-0.593268,0.42561856,-11.120201,-5.074628,6.190854
5.619103,3.4649296,4.988597,-0.59113747,0.45118493,-10.623312,-3.6287951,5.048853
5.619103,3.4649296,4.988597,-0.59113747,0.45118493,-10.623312,-3.6287951,5.048853
5.6199026,3.4702265,4.9736834,-0.5868764,0.47249022,-10.123909,-2.1997118,3.8719263
5.620685,3.4753942,4.910833,-0.58155006,0.4810123,-10.117842,-2.1602678,3.8633718
5.6214943,3.4805102,4.910833,-0.58155006,0.4810123,-9.51301,-0.7852087,2.672151
5.62231,3.4856534,4.7968493,-0.5751585,0.4820776,-9.506676,-0.74592376,2.6634254
5.623942,3.4954422,4.7968493,-0.5751585,0.4820776,-8.689539,0.54041123,1.4495559
5.623942,3.4954422,4.7968493,-0.5751585,0.4820776,-8.689539,0.54041123,1.4495559
5.624863,3.5007465,4.629603,-0.5687669,0.4671639,-7.710326,1.7158768,0.20494604
5.6264496,3.5097432,4.406963,-0.56131005,0.4309449,-6.9414034,2.833418,-0.93633413
5.6264496,3.5097432,4.406963,-0.56131005,0.4309449,-6.9414034,2.833418,-0.93633413
5.6272593,3.5142672,4.126798,-0.5538532,0.37022483,-6.93509,2.8680546,-0.9445672
5.6287627,3.52244,4.126798,-0.5538532,0.37022483,-6.0422907,3.8596134,-2.2142122
5.6287627,3.52244,4.126798,-0.5538532,0.37022483,-6.0422907,3.8596134,-2.2142122
5.630178,3.529828,3.7891092,-0.55172265,0.28500366,-4.872446,4.7734137,-3.5400338
5.630178,3.529828,3.7891092,-0.55172265,0.28500366,-4.872446,4.7734137,-3.5400338
5.630838,3.533078,3.3949614,-0.55172265,0.16462877,-3.8617206,5.3299236,-4.7527156
5.6314797,3.5362394,3.3949614,-0.55172265,0.16462877,-3.856699,5.3542333,-4.7586493
5.63206,3.538861,2.9411588,-0.54959214,0.008034906,-3.2823405,5.671377,-5.80245
5.632642,3.5414948,2.9411588,-0.54959214,0.008034906,-3.277783,5.691725,-5.8072567
5.6331434,3.5434997,2.438354,-0.5421353,-0.17412531,-2.8620553,5.9180384,-6.6821227
5.6336427,3.5455,2.438354,-0.5421353,-0.17412531,-2.8581438,5.9336214,-6.6855335
5.634052,3.5468152,1.8886775,-0.5293521,-0.37972134,-3.1709719,6.212203,-7.4487042
5.63446,3.5481298,1.8886775,-0.5293521,-0.37972134,-3.167769,6.2226315,-7.450549
5.634783,3.5486932,1.2814767,-0.52509105,-0.5938395,-3.7159028,6.5147533,-8.1783695
5.6351056,3.5492568,1.2814767,-0.52509105,-0.5938395,-3.7133732,6.519574,-8.178362
5.6353555,3.5490363,0.63486123,-0.5282869,-0.7983703,-4.6451507,6.590399,-8.2720785
5.635606,3.5488162,0.63486123,-0.5282869,-0.7983703,-4.643188,6.5894003,-8.270033
5.6358004,3.5478108,-0.033059586,-0.5378742,-0.9805305,-6.164372,6.711896,-8.4861145
5.6359973,3.5468016,-0.033059586,-0.5378742,-0.9805305,-6.162827,6.705082,-8.481917
5.636165,3.5450346,-0.6999151,-0.56344056,-1.0934485,-5.8502636,7.7748985,-8.446813
5.636335,3.5432684,-0.6999151,-0.56344056,-1.0934485,-5.8489275,7.7625303,-8.440454
5.6364946,3.5407317,-1.3774233,-0.6049859,-1.1989098,-4.985764,8.347898,-7.861996
5.6366577,3.5381956,-1.3774233,-0.6049859,-1.1989098,-4.984482,8.32991,-7.853387
5.6367946,3.5348568,-2.0741062,-0.63268274,-1.3586994,-6.008126,7.8654814,-6.473068
5.636937,3.5315056,-2.0741062,-0.63268274,-1.3586994,-6.007005,7.8414726,-6.462239
5.63702,3.5273569,-2.7793114,-0.6198996,-1.5376638,-8.453226,6.9256306,-5.012937
5.6371107,3.5232086,-2.7793114,-0.6198996,-1.5376638,-8.4525175,6.895611,-5.0002394
5.6371517,3.5183034,-3.4621458,-0.6049859,-1.6772134,-10.204746,5.710682,-3.3337498
5.6372023,3.5134087,-3.4621458,-0.6049859,-1.6772134,-10.204351,5.6749945,-3.3194098
5.6372476,3.5078173,-4.10237,-0.62416065,-1.7869357,-10.869586,4.082673,-1.5172396
5.6373034,3.5022154,-4.10237,-0.62416065,-1.7869357,-10.869145,4.0416465,-1.5012813
5.6373925,3.4959614,-4.6893306,-0.6742281,-1.8828095,-9.556424,2.9375572,0.12531614
5.637494,3.4897146,-4.6893306,-0.6742281,-1.8828095,-9.555625,2.8916702,0.14277172
5.6376286,3.4829261,-5.2208977,-0.7274913,-1.9605738,-9.588087,0.21289134,2.618
5.637777,3.4761462,-5.2208977,-0.7274913,-1.9605738,-9.586921,0.16290355,2.636495
5.6378927,3.468891,-5.690679,-0.7296218,-2.0074453,-12.253151,-1.7774434,3.9629078
5.6380243,3.461615,-5.690679,-0.7296218,-2.0074453,-12.252117,-1.8314285,3.9818392
5.6381655,3.4539423,-6.090153,-0.75305766,-2.0340772,-13.275725,-3.9235754,5.629447
5.638323,3.4462783,-6.090153,-0.75305766,-2.0340772,-13.2744875,-3.980713,5.648638
5.6385665,3.4382493,-6.415059,-0.85425776,-2.0671003,-12.041951,-5.7692146,7.574503
5.638828,3.4302225,-6.415059,-0.85425776,-2.0671003,-12.039896,-5.8292217,7.5941925
5.639189,3.421916,-6.6622005,-0.95971894,-2.0990582,-11.898194,-7.471528,9.04632
5.639569,3.4135964,-6.6622005,-0.95971894,-2.0990582,-11.895199,-7.533906,9.066326
5.640026,3.4050822,-6.8411646,-1.032157,-2.1161025,-12.1789055,-9.192372,10.599802
5.640503,3.3965726,-6.8411646,-1.032157,-2.1161025,-12.175152,-9.256432,10.619701
5.641039,3.3879433,-6.954083,-1.0800939,-2.118233,-12.094313,-10.820278,12.272469
5.641598,3.3792675,-6.954083,-1.0800939,-2.118233,-12.089904,-10.885876,12.292055
5.6422157,3.370388,-7.003085,-1.1077907,-2.1043844,-11.912653,-12.0927925,13.475357
5.642824,3.3619215,-7.003085,-1.1077907,-2.1043844,-11.907852,-12.157106,13.493717
5.643467,3.3533585,-6.9945626,-1.1109865,-2.0766876,-11.510131,-12.907051,14.5366125
5.644132,3.3447585,-6.9945626,-1.1109865,-2.0766876,-11.504879,-12.972702,14.554426
5.6448026,3.3362317,-6.934908,-1.0886159,-2.0351424,-11.245797,-13.650873,15.419135
5.6454887,3.3277452,-6.934908,-1.0886159,-2.0351424,-11.240374,-13.715975,15.43578
5.646157,3.3193603,-6.830512,-1.0406791,-1.9861401,-10.804135,-14.130035,16.246502
5.6468396,3.311015,-6.830512,-1.0406791,-1.9861401,-10.79873,-14.194389,16.26184
5.647476,3.3028798,-6.6835055,-0.9682411,-1.9296812,-10.463294,-14.13279,16.649605
5.6481314,3.2947176,-6.6835055,-0.9682411,-1.9296812,-10.458102,-14.196037,16.663506
5.6487217,3.2868056,-6.5024104,-0.87875885,-1.8668306,-9.893186,-14.013308,16.958746
5.6493263,3.2789145,-6.5024104,-0.87875885,-1.8668306,-9.888392,-14.074741,16.971039
5.6498394,3.271296,-6.295749,-0.7637103,-1.7975883,-9.424632,-13.755932,17.005983
5.6503677,3.2636743,-6.295749,-0.7637103,-1.7975883,-9.420441,-13.815531,17.016628
5.65077,3.2563398,-6.0709786,-0.61457324,-1.7240851,-9.077272,-13.264927,16.901333
5.651195,3.2488472,-6.0709786,-0.61457324,-1.7240851,-9.073903,-13.323767,16.910376
5.6514463,3.2419815,-5.83449,-0.43454358,-1.6441903,-9.095843,-12.726612,16.496096
5.6517153,3.2349775,-5.83449,-0.43454358,-1.6441903,-9.093715,-12.78183,16.50304
5.651801,3.2283027,-5.589479,-0.23214333,-1.5579039,-8.786574,-12.422777,16.19705
5.651897,3.2216082,-5.589479,-0.23214333,-1.5579039,-8.78581,-12.475723,16.202034
5.651787,3.2152498,-5.340207,-0.0073725274,-1.4662911,-8.80584,-11.913213,15.645028
5.6516857,3.208903,-5.340207,-0.0073725274,-1.4662911,-8.806642,-11.963538,15.647995
5.651354,3.2028654,-5.0888047,0.23976883,-1.3682867,-8.962506,-11.355497,15.084118
5.6510305,3.1968372,-5.0888047,0.23976883,-1.3682867,-8.965075,-11.403392,15.085033
5.650469,3.1911457,-4.839533,0.49330178,-1.2606951,-9.108394,-10.960255,14.294054
5.6499143,3.1854448,-4.839533,0.49330178,-1.2606951,-9.112794,-11.005582,14.292929
5.6491165,3.180091,-4.591326,0.7500305,-1.1488423,-9.19095,-10.866236,13.753742
5.648323,3.1747212,-4.591326,0.7500305,-1.1488423,-9.197236,-10.908926,13.750633
5.6472907,3.169711,-4.3431196,1.0046287,-1.0284674,-9.617214,-10.833848,13.219101
5.6462584,3.1646705,-4.3431196,1.0046287,-1.0284674,-9.625384,-10.8738785,13.214084
5.6449957,3.159995,-4.0895867,1.2485743,-0.9027662,-9.913095,-11.0402775,12.766925
5.6437345,3.1553044,-4.0895867,1.2485743,-0.9027662,-9.9230585,-11.077453,12.760125
5.6422586,3.1509657,-3.8285968,1.4701493,-0.7759997,-10.312988,-11.475702,12.46454
5.640786,3.1466205,-3.8285968,1.4701493,-0.7759997,-10.3245945,-11.510019,12.456116
5.639122,3.1426396,-3.5537586,1.6672232,-0.65029854,-10.739926,-12.0489645,12.19739
5.6374598,3.1386516,-3.5537586,1.6672232,-0.65029854,-10.7529955,-12.080315,12.187529
5.63563,3.1350496,-3.2554846,1.8376656,-0.52672786,-11.045092,-12.802867,12.047258
5.633802,3.1314406,-3.2554846,1.8376656,-0.52672786,-11.059429,-12.831079,12.036161
5.6318345,3.1282446,-2.9295137,1.9793457,-0.40209192,-11.917597,-13.54071,12.095968
5.629868,3.1250424,-2.9295137,1.9793457,-0.40209192,-11.93297,-13.56557,12.083847
5.627795,3.1222842,-2.57265,2.0880027,-0.28171703,-12.686569,-14.372178,11.395884
5.625723,3.1195202,-2.57265,2.0880027,-0.28171703,-12.702723,-14.393459,11.3829975
5.623565,3.1172314,-2.1806328,2.1561797,-0.16986425,-8.108284,-15.268092,13.107785
5.6214075,3.1149378,-2.1806328,2.1561797,-0.16986425,-8.125045,-15.285573,13.094308
5.619173,3.1131546,-1.7534617,2.2499228,-0.05055464,-14.520531,-15.442675,11.12673
5.6169386,3.1113682,-1.7534617,2.2499228,-0.05055464,-14.537831,-15.456102,11.112759
5.614662,3.1101184,-1.2975285,2.2850766,0.05597181,-13.837163,-16.207531,11.754614
5.6123857,3.1088662,-1.2975285,2.2850766,0.05597181,-13.854725,-16.216747,11.7404175
5.6101584,3.108179,-0.8107026,2.2307482,0.1518456,-12.918987,-16.733944,11.769697
5.607931,3.107491,-0.8107026,2.2307482,0.1518456,-12.936113,-16.738766,11.755846
5.605757,3.1073954,-0.29724517,2.1732237,0.2477194,-12.727738,-16.82044,11.651457
5.6035786,3.1073003,-0.29724517,2.1732237,0.2477194,-12.744425,-16.82071,11.637989
5.601218,3.107871,0.231126,2.1125038,0.34039742,-13.7297325,-16.82543,11.159054
5.59931,3.1083343,0.231126,2.1125038,0.34039742,-13.744299,-16.821503,11.147329
5.5973186,3.1094248,0.76375824,2.0315437,0.41922697,-14.003687,-17.061785,11.250132
5.59529,3.1105387,1.2963904,1.928213,0.49379548,-14.019117,-17.052912,11.237751
5.5933642,3.1122506,1.2963904,1.928213,0.49379548,-14.68976,-17.499239,11.326656
5.591429,3.113975,1.2963904,1.928213,0.49379548,-14.704433,-17.48582,11.314903
5.5896316,3.1163056,1.8300879,1.7929244,0.57262504,-14.856913,-17.357746,11.155636
5.587835,3.1186411,1.8300879,1.7929244,0.57262504,-14.8705,-17.339819,11.1447525
5.5862055,3.121597,2.3637855,1.6224821,0.66104203,-14.609857,-17.202366,11.230715
5.5845866,3.124544,2.3637855,1.6224821,0.66104203,-14.622065,-17.179962,11.220894
5.583147,3.128124,2.8932219,1.437126,0.7590464,-14.369545,-16.793741,11.149948
5.5817103,3.1317103,2.8932219,1.437126,0.7590464,-14.380348,-16.766653,11.141138
5.580473,3.1358988,3.4098752,1.2421827,0.8602465,-14.020937,-16.007294,11.090431
5.579236,3.1401064,3.4098752,1.2421827,0.8602465,-14.030223,-15.975685,11.082668
5.5782046,3.144884,3.9030926,1.0440435,0.9582508,-13.779379,-15.293435,10.932405
5.577177,3.1496723,3.9030926,1.0440435,0.9582508,-13.78708,-15.257603,10.92565
5.577177,3.1496723,3.9030926,1.0440435,0.9582508,-13.78708,-15.257603,10.92565
5.577177,3.1496723,3.9030926,1.0440435,0.9582508,-13.78708,-15.257603,10.92565
5.574801,3.1724858,4.800045,0.64243877,1.1350847,-13.08659,-13.942859,10.485762
5.574278,3.1776571,4.800045,0.64243877,1.1350847,-13.090496,-13.904355,10.481118
5.5741153,3.1802237,5.1920624,0.45814803,1.2053921,-12.962425,-13.502169,10.326131
5.573549,3.1924798,5.5382733,0.2919668,1.2607859,-12.890042,-13.200226,10.112509
5.573549,3.1924798,5.5382733,0.2919668,1.2607859,-12.890042,-13.200226,10.112509
5.5733385,3.1991868,5.5382733,0.2919668,1.2607859,-12.891607,-13.150306,10.108446
5.5732903,3.2061865,5.834417,0.14282976,1.2959397,-13.064352,-13.093396,9.884682
5.5733576,3.220638,6.0794277,0.0043453816,1.3140491,-13.17877,-13.177327,9.77203
5.5733576,3.220638,6.0794277,0.0043453816,1.3140491,-13.17877,-13.177327,9.77203
5.573476,3.22778,6.0794277,0.0043453816,1.3140491,-13.17789,-13.124145,9.768389
5.573725,3.2349637,6.2796974,-0.12455162,1.3193754,-13.228701,-13.151992,9.674191
5.5739927,3.242399,6.2796974,-0.12455162,1.3193754,-13.226702,-13.096568,9.670517
5.574385,3.2499435,6.437357,-0.2417307,1.3140491,-13.515863,-13.222228,9.628829
5.575118,3.2635417,6.437357,-0.2417307,1.3140491,-13.510391,-13.120757,9.621819
5.5752473,3.265428,6.559862,-0.35145295,1.3044617,-13.657865,-13.341289,9.750195
5.575746,3.2726326,6.559862,-0.35145295,1.3044617,-13.654135,-13.28745,9.746511
5.5764008,3.2805462,6.655736,-0.4547836,1.2916785,-13.567832,-13.41976,9.919863
5.5770407,3.2881594,6.7271085,-0.55172265,1.2778301,-13.563044,-13.362778,9.915805
5.5777965,3.29597,6.7271085,-0.55172265,1.2778301,-13.356272,-13.567583,10.112914
5.5785613,3.303774,6.7271085,-0.55172265,1.2778301,-13.35054,-13.509058,10.108513
5.5802507,3.319182,6.782502,-0.63587856,1.2661122,-12.887754,-13.6135845,10.252808
5.581124,3.327008,6.782502,-0.63587856,1.2661122,-12.881195,-13.554766,10.247651
5.581124,3.327008,6.8240476,-0.70085967,1.2543943,-12.881195,-13.554766,10.247651
5.582099,3.3351068,6.8592014,-0.7466661,1.2448069,-12.811621,-13.747606,10.261425
5.583084,3.342882,6.8592014,-0.7466661,1.2448069,-12.430712,-13.97633,10.289598
5.584083,3.3506882,6.8943553,-0.77329767,1.2362849,-12.423195,-13.917507,10.283825
5.5851154,3.3585184,6.8943553,-0.77329767,1.2362849,-12.300494,-14.150551,10.205913
5.5861626,3.366387,6.932705,-0.7850156,1.2298932,-12.292596,-14.091204,10.199368
5.5872245,3.3742476,6.932705,-0.7850156,1.2298932,-12.174446,-14.209068,9.929085
5.588298,3.3821232,6.932705,-0.7850156,1.2298932,-12.166334,-14.149633,9.921711
5.589407,3.3902447,6.978511,-0.7839503,1.2235017,-12.047817,-14.208069,9.678986
5.590469,3.3979557,7.030709,-0.7722324,1.2181753,-12.039779,-14.149889,9.67087
5.5915337,3.405756,7.030709,-0.7722324,1.2181753,-11.926367,-14.086285,9.298211
5.592622,3.4136589,7.086103,-0.7477313,1.2139143,-11.918118,-14.026693,9.288914
5.593695,3.4216197,7.086103,-0.7477313,1.2139143,-11.665766,-13.918854,8.881482
5.594772,3.4295402,7.1446924,-0.70831656,1.2096533,-11.657585,-13.859213,8.871092
5.5958276,3.4375734,7.1446924,-0.70831656,1.2096533,-11.707022,-13.679119,8.256489
5.596888,3.4455743,7.1446924,-0.70831656,1.2096533,-11.698952,-13.619005,8.24482
5.5979567,3.4535666,7.203282,-0.65824914,1.2064574,-11.690815,-13.558981,8.232712
5.5989885,3.4616363,7.203282,-0.65824914,1.2064574,-11.783506,-13.484163,7.6786165
5.600025,3.4696736,7.2618713,-0.59965956,1.208588,-11.775595,-13.423985,7.6651998
5.6010184,3.4777884,7.2618713,-0.59965956,1.208588,-11.480708,-13.468748,7.0091786
5.6020203,3.4859037,7.3183303,-0.5325479,1.2139143,-11.473052,-13.408226,6.994345
5.60297,3.4940763,7.3183303,-0.5325479,1.2139143,-11.11145,-13.237345,6.226757
5.6039286,3.5022492,7.366267,-0.4547836,1.2149795,-11.104113,-13.176661,6.210477
5.6048265,3.5104809,7.366267,-0.4547836,1.2149795,-10.527417,-12.6944065,5.1109905
5.6057343,3.5187216,7.396095,-0.36956245,1.2107185,-10.520459,-12.63355,5.0931945
5.6065736,3.526979,7.396095,-0.36956245,1.2107185,-9.642534,-11.792332,3.6139665
5.6074266,3.5352795,7.400356,-0.27901497,1.1915437,-9.635987,-11.731408,3.5946345
5.6082034,3.5435622,7.400356,-0.27901497,1.1915437,-8.849512,-10.77069,2.013376
5.6089907,3.551855,7.366267,-0.18740222,1.1499984,-8.843462,-10.710236,1.9926449
5.609699,3.5601,7.366267,-0.18740222,1.1499984,-8.04793,-9.534754,0.2951578
5.6104155,3.5683398,7.279981,-0.09898527,1.0882131,-8.042414,-9.475134,0.27316868
5.6110506,3.576446,7.279981,-0.09898527,1.0882131,-7.027177,-8.387305,-1.6024683
5.611697,3.5845957,7.279981,-0.09898527,1.0882131,-7.022192,-8.328808,-1.625556
5.6122622,3.592564,7.127648,-0.016959907,0.9997961,-5.9021406,-7.070056,-3.6505291
5.6128283,3.6004322,6.8996816,0.057608604,0.87942123,-5.897776,-7.0140486,-3.6740685
5.6133013,3.6080027,6.8996816,0.057608604,0.87942123,-4.6778736,-5.662854,-5.943299
5.613784,3.6156137,6.584363,0.12152447,0.7238926,-4.6741486,-5.609174,-5.9672775
5.6141496,3.6227775,6.584363,0.12152447,0.7238926,-3.4407105,-4.103371,-8.265198
5.614733,3.6361969,6.1742363,0.1747877,0.5289492,-2.3827572,-2.3964958,-10.503704
5.614733,3.6361969,6.1742363,0.1747877,0.5289492,-2.3827572,-2.3964958,-10.503704
5.6149716,3.643061,5.6671705,0.21420248,0.2924605,-1.5280862,-0.41840172,-12.660749
5.6150355,3.6488612,5.6671705,0.21420248,0.2924605,-1.5280862,-0.41840172,-12.660749
5.615101,3.654672,5.05997,0.23976883,0.016557023,-1.5275803,-0.379035,-12.68232
5.6149936,3.6597254,5.05997,0.23976883,0.016557023,-0.9250717,1.6369963,-14.334982
5.614886,3.6647787,4.3568954,0.24935621,-0.2945002,-0.9259014,1.6705284,-14.354964
5.6146016,3.6688893,4.3568954,0.24935621,-0.2945002,-0.49235106,3.6220608,-15.746656
5.6143165,3.6730006,3.57073,0.24829094,-0.63751537,-0.49455547,3.6485767,-15.764183
5.6138473,3.6760826,3.57073,0.24829094,-0.63751537,-0.27790928,5.3052483,-16.48742
5.613377,3.6791625,2.712127,0.24083409,-1.0050316,-0.2815342,5.324211,-16.50203
5.6127167,3.6811314,2.712127,0.24083409,-1.0050316,-0.36803198,6.604101,-16.743124
5.612056,3.6830962,1.8013258,0.23018144,-1.3906573,-0.3731265,6.6150055,-16.754381
5.6112003,3.683883,1.8013258,0.23018144,-1.3906573,-0.561676,7.278303,-16.340616
5.610343,3.6846695,0.86069727,0.22485512,-1.7858704,-0.56827426,7.2807674,-16.348242
5.6092854,3.6842399,0.86069727,0.22485512,-1.7858704,-0.85893106,7.5666847,-15.485388
5.6082315,3.683808,-0.08951861,0.22378986,-2.1800182,-0.8670287,7.560501,-15.4892235
5.6069674,3.682144,-0.08951861,0.22378986,-2.1800182,-0.93898106,7.5886307,-14.421492
5.6057124,3.6804812,-1.0312123,0.23550777,-2.5720356,-0.9486103,7.573717,-14.421574
5.604251,3.6776032,-1.0312123,0.23550777,-2.5720356,-1.5918767,7.334675,-13.038973
5.602796,3.674717,-1.9526662,0.2589436,-2.9544656,-1.6030083,7.3110867,-13.035462
5.601142,3.670646,-1.9526662,0.2589436,-2.9544656,-2.8079696,6.929508,-11.630322
5.599498,3.6665628,-2.842162,0.27918363,-3.3198512,-2.8205173,6.897435,-11.623469
5.5976667,3.6613274,-2.842162,0.27918363,-3.3198512,-3.1600847,6.4597235,-9.865665
5.595853,3.656081,-3.696504,0.30261943,-3.661801,-3.1738915,6.4194202,-9.855759
5.59387,3.6497202,-3.696504,0.30261943,-3.661801,-4.089181,5.873206,-7.9945908
5.5919137,3.6433578,-4.511431,0.33457735,-3.9739237,-4.104026,5.8250256,-7.981968
5.5898046,3.635922,-4.511431,0.33457735,-3.9739237,-5.647502,5.113209,-6.2189326
5.5877295,3.6284914,-5.2805524,0.35907844,-4.253023,-5.6631904,5.057493,-6.203985
5.5855427,3.6200805,-5.2805524,0.35907844,-4.253023,-7.0300264,4.132941,-4.553898
5.5833874,3.6116412,-6.001736,0.3548174,-4.499099,-7.046264,4.0701456,-4.5369983
5.5811715,3.602291,-6.001736,0.3548174,-4.499099,-8.020609,2.9283972,-2.7606676
5.5789995,3.592938,-6.6664615,0.32818577,-4.704695,-8.036916,2.8592782,-2.7421565
5.5767965,3.5827036,-6.6664615,0.32818577,-4.704695,-8.877024,1.4768075,-0.9500303
5.574643,3.572466,-7.272597,0.28983626,-4.869811,-8.89313,1.4015913,-0.93018246
5.5724916,3.5614944,-7.272597,0.28983626,-4.869811,-9.74716,-0.052971005,0.90106916
5.5703874,3.5504875,-7.818012,0.24402988,-4.995512,-9.762836,-0.1334877,0.92171097
5.568298,3.538821,-7.818012,0.24402988,-4.995512,-10.496641,-1.755661,2.796476
5.56626,3.5271173,-8.298447,0.19502772,-5.078603,-10.511769,-1.8410025,2.8174548
5.5642595,3.5148277,-8.298447,0.19502772,-5.078603,-11.240067,-3.639861,4.917323
5.562321,3.5025373,-8.711769,0.14709082,-5.119083,-11.254406,-3.7292433,4.938222
5.560443,3.4896753,-8.711769,0.14709082,-5.119083,-11.866835,-5.512882,6.7649775
5.55863,3.4768147,-9.051588,0.10661077,-5.124409,-11.880201,-5.6061935,6.7856207
5.5569034,3.4635613,-9.051588,0.10661077,-5.124409,-12.31908,-7.315881,8.726593
5.5552454,3.4503126,-9.315774,0.07997916,-5.092451,-12.331268,-7.4118347,8.746484
5.553669,3.4367037,-9.315774,0.07997916,-5.092451,-12.601416,-8.908503,10.571561
5.552163,3.423103,-9.506456,0.070391774,-5.022144,-12.612457,-9.006902,10.590433
5.550746,3.4093368,-9.506456,0.070391774,-5.022144,-12.77127,-10.231709,12.193759
5.549395,3.3955412,-9.506456,0.070391774,-5.022144,-12.781147,-10.331465,12.211182
5.5481215,3.3816898,-9.62257,0.08104442,-4.922009,-12.800026,-11.370131,13.554154
5.5469165,3.3678532,-9.668377,0.11619815,-4.7963076,-12.808813,-11.470179,13.569737
5.5457606,3.3539793,-9.668377,0.11619815,-4.7963076,-12.716684,-12.284,14.810115
5.5446725,3.340123,-9.646006,0.18117929,-4.648236,-12.717968,-12.837915,15.58274
5.54361,3.326395,-9.646006,0.18117929,-4.648236,-12.717968,-12.837915,15.58274
5.5426145,3.3127136,-9.562916,0.2706615,-4.4852505,-12.725199,-12.936922,15.593826
5.5416107,3.2991588,-9.562916,0.2706615,-4.4852505,-12.799526,-13.327183,16.283306
5.540668,3.2856104,-9.424431,0.37718794,-4.308417,-12.806362,-13.42527,16.291868
5.5397043,3.2723818,-9.424431,0.37718794,-4.308417,-12.794195,-13.573782,16.691292
5.538797,3.2591603,-9.234814,0.49862808,-4.125191,-12.800762,-13.669521,16.697153
5.537839,3.2462118,-9.234814,0.49862808,-4.125191,-12.807694,-13.758537,16.830479
5.536936,3.2332835,-9.000456,0.6275251,-3.9366393,-12.814222,-13.852121,16.833633
5.5359716,3.2207553,-9.000456,0.6275251,-3.9366393,-12.950468,-13.813524,16.878021
5.535055,3.2081964,-8.729878,0.7606831,-3.7427611,-12.957087,-13.90435,16.878506
5.534067,3.1961024,-8.729878,0.7606831,-3.7427611,-13.122227,-13.819393,16.72874
5.5331254,3.1840148,-8.427343,0.8938412,-3.5456874,-13.129008,-13.906656,16.72665
5.532096,3.1723294,-8.427343,0.8938412,-3.5456874,-13.141204,-13.761099,16.411575
5.5311103,3.160661,-8.096046,1.025934,-3.3475482,-13.148285,-13.845121,16.407034
5.530036,3.1494935,-8.096046,1.025934,-3.3475482,-13.179949,-13.575871,16.127964
5.5290003,3.1383302,-7.7434435,1.1537657,-3.1515396,-13.187376,-13.655978,16.121168
5.527845,3.127417,-7.7434435,1.1537657,-3.1515396,-13.243545,-13.178679,15.767937
5.5267406,3.1166453,-7.3674054,1.2762711,-2.9544656,-13.251452,-13.255647,15.758976
5.5255795,3.1067533,-7.3674054,1.2762711,-2.9544656,-13.403409,-12.885598,15.413828
5.5244255,3.0966508,-6.9775186,1.392385,-2.7595222,-13.4116535,-12.957409,15.403151
5.5231705,3.0870478,-6.9775186,1.392385,-2.7595222,-13.602571,-12.651939,15.0943775
5.521941,3.077417,-6.5748487,1.4957156,-2.5645788,-13.61133,-12.719976,15.081972
5.5206237,3.0683587,-6.5748487,1.4957156,-2.5645788,-13.673382,-12.592157,14.824406
5.519327,3.059264,-6.1593957,1.582002,-2.364309,-13.682601,-12.655947,14.810593
5.5179543,3.0507681,-6.1593957,1.582002,-2.364309,-13.836003,-12.514133,14.709873
5.5165997,3.0422373,-5.730094,1.6459179,-2.162974,-13.84561,-12.573482,14.694923
5.5151854,3.034312,-5.730094,1.6459179,-2.162974,-15.363975,-12.906047,14.827963
5.513789,3.0263693,-5.2816176,1.6629622,-1.961639,-15.37385,-12.960818,14.812231
5.5123625,3.0190537,-5.2816176,1.6629622,-1.961639,-12.515676,-13.580793,15.303976
5.5109515,3.0117218,-4.800118,1.6533748,-1.7421947,-12.525628,-13.630879,15.287863
5.5095425,3.0050676,-4.800118,1.6533748,-1.7421947,-16.792439,-16.00321,16.119585
5.5081463,2.9983988,-4.276008,1.6565706,-1.5110322,-16.80226,-16.048325,16.103525
5.506731,2.99246,-4.276008,1.6565706,-1.5110322,-19.34048,-15.135288,15.431803
5.5053263,2.9865084,-4.276008,1.6565706,-1.5110322,-19.350336,-15.175088,15.41589
5.5040665,2.9813552,-3.7071567,1.485063,-1.2894572,-20.268272,-15.56017,15.3439045
5.5027957,2.976114,-3.7071567,1.485063,-1.2894572,-20.268272,-15.56017,15.3439045
5.501213,2.9692197,-3.1116738,1.1814626,-1.0604254,-17.34404,-15.5770855,15.87088
5.5007405,2.9671464,-2.4938204,0.84696954,-0.8228714,-17.34734,-15.590777,15.865158
5.500078,2.9639025,-2.4938204,0.84696954,-0.8228714,-15.359982,-15.535635,15.918917
5.500078,2.9639025,-2.4938204,0.84696954,-0.8228714,-15.359982,-15.535635,15.918917
5.4985085,2.9560635,-1.8685102,0.5614787,-0.5789258,-14.743638,-14.519573,15.160906
5.4980845,2.9537084,-1.8685102,0.5614787,-0.5789258,-14.746592,-14.535139,15.154968
5.4978747,2.9525032,-1.259179,0.34309947,-0.3275234,-15.097609,-13.705141,14.4624405
5.497603,2.9509387,-0.6818056,0.16733085,-0.0665336,-15.099496,-13.715467,14.458525
5.49745,2.950213,-0.6818056,0.16733085,-0.0665336,-14.832415,-13.562207,14.40864
5.497291,2.949461,-0.6818056,0.16733085,-0.0665336,-14.833516,-13.567129,14.406553
5.4972215,2.9495647,-0.13319445,0.0277812,0.20191304,-14.790904,-13.604632,14.1859455
5.497151,2.9496698,0.396242,-0.08194104,0.475686,-14.791396,-13.603824,14.185608
5.4971385,2.9505243,0.396242,-0.08194104,0.475686,-15.0117445,-13.990622,14.124399
5.4971876,2.9534745,0.9150258,-0.17568432,0.7515895,-15.155057,-14.310514,13.836504
5.497209,2.954712,0.9150258,-0.17568432,0.7515895,-15.154907,-14.302089,13.838257
5.497226,2.9556653,0.9150258,-0.17568432,0.7515895,-15.154791,-14.295599,13.839609
5.497303,2.9582222,1.4327443,-0.2715581,1.0242972,-14.8047,-14.6038265,13.536934
5.4973826,2.9607658,1.4327443,-0.2715581,1.0242972,-14.804152,-14.5865345,13.540693
5.497515,2.964091,1.9462018,-0.371693,1.2916785,-14.4776125,-14.808145,13.181799
5.497653,2.9674256,1.9462018,-0.371693,1.2916785,-14.476654,-14.785474,13.186796
5.497851,2.9715378,2.4543328,-0.47182783,1.5462768,-14.149672,-15.20763,12.896177
5.498055,2.9756446,2.4543328,-0.47182783,1.5462768,-14.148252,-15.179692,12.902357
5.4983716,2.9812365,2.9603336,-0.57622373,1.7859613,-13.662415,-15.347543,12.551714
5.4986143,2.9853845,2.9603336,-0.57622373,1.7859613,-13.660725,-15.319285,12.557938
5.49898,2.9911008,3.4610078,-0.6752933,2.013928,-13.464111,-15.170973,11.798956
5.499344,2.9966006,3.9510295,-0.7690366,2.2291112,-13.464111,-15.170973,11.798956
5.499782,3.0028393,3.9510295,-0.7690366,2.2291112,-12.613505,-14.9464,11.396315
5.5002413,3.0091553,3.9510295,-0.7690366,2.2291112,-12.610305,-14.903192,11.40543
5.500781,3.016246,4.419746,-0.8499967,2.4336421,-13.195511,-14.586456,10.649349
5.5013795,3.023833,4.419746,-0.8499967,2.4336421,-13.191337,-14.53439,10.659897
5.501938,3.0307982,4.855439,-0.911782,2.6253896,-13.651909,-14.95576,10.3915615
5.502559,3.038289,4.855439,-0.911782,2.6253896,-13.647568,-14.904169,10.401432
5.5032687,3.0464692,5.2687616,-0.98954636,2.8054194,-13.26911,-14.933923,10.158205
5.5040026,3.0546398,5.66504,-1.068376,2.9790576,-13.263973,-14.877436,10.168451
5.5048237,3.0633652,5.66504,-1.068376,2.9790576,-12.774593,-14.749964,9.9397335
5.5056734,3.0720963,6.0378823,-1.1312265,3.1399124,-12.768639,-14.68936,9.9501
5.506605,3.081358,6.0378823,-1.1312265,3.1399124,-13.063773,-14.605784,9.850597
5.507567,3.090605,6.3904853,-1.181294,3.2890494,-13.05702,-14.541317,9.860828
5.508602,3.1003375,6.3904853,-1.181294,3.2890494,-13.241273,-14.463728,9.890253
5.509669,3.1100338,6.7185864,-1.2302961,3.424338,-13.233768,-14.395817,9.900069
5.5108185,3.1202135,6.7185864,-1.2302961,3.424338,-13.345377,-14.295609,9.929012
5.512002,3.1303535,7.0221868,-1.2824941,3.5511045,-13.337036,-14.224247,9.938304
5.5132723,3.1409009,7.0221868,-1.2824941,3.5511045,-13.0838585,-13.838583,9.904352
5.514581,3.151437,7.2991557,-1.3325615,3.666153,-13.074601,-13.764062,9.912973
5.515979,3.1623275,7.2991557,-1.3325615,3.666153,-12.73431,-13.61022,10.031476
5.5174146,3.1731825,7.5441666,-1.3730415,3.7641573,-12.724138,-13.533052,10.0392685
5.518937,3.184372,7.5441666,-1.3730415,3.7641573,-12.507429,-13.386256,10.123293
5.5204997,3.1955228,7.760415,-1.3986079,3.847248,-12.496319,-13.306562,10.130078
5.522135,3.2069397,7.760415,-1.3986079,3.847248,-12.460735,-13.219978,10.112384
5.5238132,3.2183273,7.9425755,-1.4135216,3.9090333,-12.448765,-13.138168,10.117967
5.525551,3.2299006,7.9425755,-1.4135216,3.9090333,-12.316643,-13.1074915,10.194702
5.527342,3.2415001,8.088516,-1.4199132,3.9505787,-12.303833,-13.023731,10.198947
5.5291777,3.2531955,8.088516,-1.4199132,3.9505787,-11.9076,-13.350876,10.068331
5.5310655,3.2649043,8.198239,-1.4039342,3.9750798,-11.89405,-13.265912,10.071104
5.5329843,3.2766788,8.198239,-1.4039342,3.9750798,-12.50753,-12.830725,9.14402
5.534948,3.2884188,8.26322,-1.3783679,3.976145,-10.7740345,-13.580822,9.37513
5.536981,3.300528,8.26322,-1.3783679,3.976145,-10.759657,-13.496296,9.374527
5.538969,3.3120716,8.296244,-1.3591931,3.9527092,-10.759657,-13.496296,9.374527
5.5409985,3.32374,8.296244,-1.3591931,3.9527092,-9.653195,-14.363592,9.291606
5.5430775,3.335408,8.305831,-1.2878205,3.9154248,-9.638107,-14.277809,9.289343
5.5451326,3.3470666,8.305831,-1.2878205,3.9154248,-10.025389,-13.947794,8.261159
5.5472293,3.3586895,8.280264,-1.1962076,3.8504438,-10.010107,-13.862076,8.256956
5.5492744,3.3702114,8.280264,-1.1962076,3.8504438,-11.757313,-13.355689,6.8102174
5.55136,3.3816988,8.22061,-1.1482707,3.7577658,-11.742057,-13.270779,6.8040595
5.553421,3.3930259,8.22061,-1.1482707,3.7577658,-11.248117,-12.6028,5.7435455
5.55552,3.4043193,8.131127,-1.1386834,3.6416519,-11.232709,-12.519125,5.735775
5.5597816,3.4265895,8.131127,-1.1386834,3.6416519,-9.985081,-11.961121,4.908981
5.5597816,3.4265895,8.131127,-1.1386834,3.6416519,-9.985081,-11.961121,4.908981
5.561921,3.4374514,8.010753,-1.1237696,3.5052981,-9.428196,-11.00881,3.6543658
5.5640483,3.4480557,8.010753,-1.1237696,3.5052981,-9.41246,-10.92981,3.6442823
5.5661707,3.458473,7.8541584,-1.0982033,3.340182,-9.353639,-9.880078,2.2354753
5.5683274,3.4688811,7.8541584,-1.0982033,3.340182,-9.337626,-9.802374,2.2242305
5.570441,3.4789093,7.650693,-1.072637,3.153761,-9.22135,-8.688338,1.0443964
5.5725794,3.4888997,7.650693,-1.072637,3.153761,-9.205417,-8.613601,1.0323551
5.574677,3.498452,7.400356,-1.0619843,2.940708,-8.519382,-7.397603,-0.20544326
5.576798,3.5079782,7.400356,-1.0619843,2.940708,-8.503518,-7.326171,-0.21796095
5.578875,3.5169783,7.0978208,-1.0673107,2.6978276,-7.348317,-6.042269,-1.3744822
5.5809717,3.5259542,7.0978208,-1.0673107,2.6978276,-7.3325815,-5.974756,-1.3870707
5.5830064,3.534324,6.7409573,-1.0715717,2.4293811,-6.2973523,-4.6857953,-2.5625405
5.5850573,3.5426722,6.7409573,-1.0715717,2.4293811,-6.281908,-4.6227894,-2.5748653
5.5884595,3.5559313,6.322308,-1.068376,2.1321723,-5.534206,-3.33946,-3.6800127
5.588957,3.5578532,5.8429394,-1.0545275,1.8051361,-5.534206,-3.33946,-3.6800127
5.5908394,3.56488,5.8429394,-1.0545275,1.8051361,-4.9405613,-2.3092387,-4.6964407
5.592662,3.5716367,5.3028502,-1.0342875,1.4557292,-4.9267454,-2.2578788,-4.707225
5.5943446,3.577631,5.3028502,-1.0342875,1.4557292,-4.3585157,-1.283205,-5.535574
5.596038,3.583631,4.7073674,-1.0076559,1.083952,-4.345645,-1.2374249,-5.5453873
5.597544,3.588731,4.7073674,-1.0076559,1.083952,-3.9750483,-0.53754044,-6.3005915
5.5990515,3.5938175,4.065013,-0.9746327,0.69513047,-3.963562,-0.49855042,-6.3089905
5.600354,3.5979626,4.065013,-0.9746327,0.69513047,-3.6423745,0.21815968,-6.9955516
5.601661,3.6021144,3.381113,-0.93308735,0.2924605,-3.632395,0.25018597,-7.0023117
5.602741,3.6052728,3.381113,-0.93308735,0.2924605,-3.3081088,0.9595237,-7.7923894
5.603821,3.608434,2.659929,-0.8830199,-0.11979683,-3.2998402,0.9841385,-7.797269
5.6046586,3.6105716,2.659929,-0.8830199,-0.11979683,-2.7667012,1.7672291,-8.676308
5.605497,3.6127121,1.9003954,-0.8233651,-0.54270685,-2.7602792,1.784193,-8.679125
5.606077,3.6137943,1.9003954,-0.8233651,-0.54270685,-2.2051606,2.6934347,-9.560777
5.606657,3.6148775,1.1046429,-0.7573187,-0.9762694,-2.200711,2.7024546,-9.561378
5.606971,3.6148682,1.1046429,-0.7573187,-0.9762694,-1.8104465,3.6034985,-10.359286
5.6072845,3.614859,0.2726713,-0.6880765,-1.4151584,-1.8080375,3.604313,-10.357536
5.607332,3.6137242,0.2726713,-0.6880765,-1.4151584,-1.7789431,4.4538155,-10.971013
5.6073813,3.6125896,-0.5923234,-0.6198996,-1.8508515,-1.7785647,4.44619,-10.966785
5.607173,3.6102974,-0.5923234,-0.6198996,-1.8508515,-2.0435276,5.1098757,-11.17544
5.606969,3.6080022,-1.4796888,-0.55491847,-2.2769573,-2.0450933,5.093585,-11.168622
5.6065216,3.6045332,-1.4796888,-0.55491847,-2.2769573,-2.5704598,5.4612007,-10.991565
5.6060834,3.6010683,-2.3777068,-0.49419838,-2.681758,-2.5738187,5.436199,-10.982155
5.605427,3.5964434,-2.3777068,-0.49419838,-2.681758,-3.3833036,5.536668,-10.601431
5.604784,3.5918183,-3.2682676,-0.4313478,-3.05247,-3.3882337,5.5030537,-10.589499
5.6039324,3.5859823,-3.2682676,-0.4313478,-3.05247,-4.400317,5.383868,-9.607653
5.6031156,3.580254,-4.135393,-0.36636665,-3.379506,-4.406569,5.3420696,-9.593484
5.6021185,3.573381,-4.135393,-0.36636665,-3.379506,-5.0797834,4.808181,-8.202649
5.601145,3.5664973,-4.9641685,-0.29818973,-3.6671274,-5.087227,4.75782,-8.186294
5.60002,3.5585895,-4.9641685,-0.29818973,-3.6671274,-5.2442555,4.058217,-6.731469
5.5989237,3.5506682,-5.7439423,-0.21722962,-3.915334,-5.2526174,4.000139,-6.713456
5.5976963,3.5418103,-5.7439423,-0.21722962,-3.915334,-5.9323487,2.9965472,-5.2621727
5.5965023,3.532937,-6.4619308,-0.12987794,-4.12093,-5.941438,2.9313455,-5.2429943
5.595198,3.5232306,-6.4619308,-0.12987794,-4.12093,-7.0287933,1.6677995,-3.6801753
5.593932,3.5135064,-7.1096115,-0.049983107,-4.286046,-7.0287933,1.6677995,-3.6801753
5.592579,3.5030532,-7.1096115,-0.049983107,-4.286046,-7.9153404,0.3026191,-2.1273556
5.5912676,3.4925807,-7.6816583,0.011802233,-4.4074864,-7.9252787,0.22534227,-2.1073737
5.589895,3.4814866,-7.6816583,0.011802233,-4.4074864,-8.524649,-1.3362451,-0.39194918
5.5885677,3.4703715,-8.173811,0.06293493,-4.484185,-8.534689,-1.4184066,-0.3722496
5.587189,3.4587333,-8.173811,0.06293493,-4.484185,-9.095769,-3.0799365,1.443068
5.5858607,3.4470844,-8.585003,0.10980656,-4.5204043,-9.105796,-3.1661963,1.4620137
5.584494,3.4349723,-8.585003,0.10980656,-4.5204043,-9.853512,-4.8792596,3.194941
5.583182,3.4228609,-8.913104,0.15561293,-4.514013,-9.863397,-4.969079,3.212813
5.581855,3.4103875,-8.913104,0.15561293,-4.514013,-10.606,-6.5508537,4.982744
5.5805836,3.3979158,-9.158115,0.19822352,-4.4682064,-10.61555,-6.643444,4.999268
5.5781336,3.372691,-9.158115,0.19822352,-4.4682064,-11.093618,-8.166807,6.686577
5.5781336,3.372691,-9.324296,0.24296463,-4.387246,-11.418568,-9.382805,8.438805
