Pitch,Roll,Gyro_X,Gyro_Y,Gyro_Z,Accel_X,Accel_Y,Accel_Z
0.40923268,4.510973,-2.2026653,1.5409718,-0.037084028,-0.40222588,-7.7667904,-0.110133275
0.40831086,4.5050287,-2.3336928,1.6336497,-0.028561912,-0.44532153,-7.493851,0
0.40783736,4.501892,-2.475373,1.7295235,-0.017909266,-0.31603462,-7.3406224,0.06703765
0.40736082,4.498767,-2.475373,1.7295235,-0.017909266,-0.31603462,-7.3406224,0.06703765
0.4068669,4.4954348,-2.6309016,1.8285931,-0.009387151,-0.32561144,-7.2592196,0.12928689
0.4063693,4.492115,-2.6309016,1.8285931,-0.009387151,-0.32561144,-7.2592196,0.12928689
0.4058509,4.4885707,-2.797083,1.9297932,0.00020022877,-0.37828386,-7.2783732,0.10534488
0.40532768,4.485036,-2.797083,1.9297932,0.00020022877,-0.37828386,-7.2783732,0.10534488
0.40478763,4.481287,-2.9717863,2.025667,0.009787609,-0.62249243,-7.1873937,0.04309563
0.4042432,4.4775558,-2.9717863,2.025667,0.009787609,-0.62249243,-7.1873937,0.04309563
0.40367997,4.4735794,-3.1582074,2.1172798,0.021505518,-0.6991069,-7.3885064,0.047884032
0.40311244,4.469625,-3.1582074,2.1172798,0.021505518,-0.6991069,-7.3885064,0.047884032
0.4025356,4.465435,-3.3510203,2.2003703,0.03641922,-1.1971009,-7.326257,-0.10055647
0.40195444,4.4612727,-3.3510203,2.2003703,0.03641922,-1.1971009,-7.326257,-0.10055647
0.40137216,4.4568605,-3.5459638,2.2738736,0.058789775,-1.5131354,-7.441179,-0.12449849
0.40078303,4.452464,-3.5459638,2.2738736,0.058789775,-1.5131354,-7.441179,-0.12449849
0.40019578,4.4478426,-3.744103,2.3345938,0.089682445,-1.3503298,-7.5465236,-0.06703765
0.39960095,4.443238,-3.744103,2.3345938,0.089682445,-1.3503298,-7.5465236,-0.06703765
0.39900613,4.4383698,-3.9465032,2.3931832,0.13122776,-0.89543146,-7.723695,-0.05746084
0.3984035,4.433524,-3.9465032,2.3931832,0.13122776,-0.89543146,-7.723695,-0.05746084
0.3978122,4.4284387,-4.151034,2.4539034,0.17703412,-0.49799395,-7.824251,0.047884032
0.3978122,4.4284387,-4.151034,2.4539034,0.17703412,-0.49799395,-7.824251,0.047884032
0.39662117,4.4180484,-4.3598256,2.5199497,0.22177523,-0.35913026,-7.905654,0.19632454
0.39601928,4.412721,-4.3598256,2.5199497,0.22177523,-0.35913026,-7.905654,0.19632454
0.3954271,4.407175,-4.569683,2.5923877,0.26332054,-0.29209262,-7.9631147,0.320823
0.3954271,4.407175,-4.569683,2.5923877,0.26332054,-0.29209262,-7.9631147,0.320823
0.39423752,4.395759,-4.7816706,2.6712172,0.30167007,-0.31603462,-8.010999,0.16759412
0.39423752,4.395759,-4.7816706,2.6712172,0.30167007,-0.31603462,-8.010999,0.16759412
0.39285895,4.3828087,-4.9904623,2.7532427,0.3368238,-0.32561144,-8.09719,0.18674773
0.39285895,4.3828087,-4.9904623,2.7532427,0.3368238,-0.32561144,-8.09719,0.18674773
0.39223096,4.376981,-5.198189,2.835268,0.37091225,-0.38307226,-8.130709,0.095768064
0.3916303,4.371279,-5.198189,2.835268,0.37091225,-0.38307226,-8.130709,0.095768064
0.39083016,4.363881,-5.4037848,2.9140975,0.40500072,-0.5267244,-8.1881695,0.019153614
0.39026037,4.358502,-5.4037848,2.9140975,0.40500072,-0.5267244,-8.1881695,0.019153614
0.3895252,4.3517284,-5.4037848,2.9140975,0.40500072,-0.5267244,-8.1881695,0.019153614
0.388132,4.33879,-5.6051197,2.9897313,0.44121972,-0.6655881,-8.312668,-0.047884032
0.3873881,4.3318458,-5.803259,3.0600388,0.47850397,-0.8762778,-8.475474,-0.29209262
0.3866268,4.324928,-5.803259,3.0600388,0.47850397,-0.8762778,-8.475474,-0.29209262
0.38585517,4.3177466,-5.9939413,3.1196938,0.518984,-0.9768343,-8.585608,-0.36870706
0.3850634,4.310578,-5.9939413,3.1196938,0.518984,-0.9768343,-8.585608,-0.36870706
0.38426885,4.30323,-6.1750364,3.168696,0.5615946,-1.0486604,-8.695741,-0.62249243
0.3834528,4.295887,-6.1750364,3.168696,0.5615946,-1.0486604,-8.695741,-0.62249243
0.38263056,4.288313,-6.346544,3.2038496,0.6042052,-0.9959879,-8.853758,-0.7565677
0.3817961,4.280834,-6.346544,3.2038496,0.6042052,-0.9959879,-8.853758,-0.7565677
0.38095233,4.2731276,-6.503138,3.229416,0.6446852,-0.9672575,-8.925584,-1.0007763
0.38095233,4.2731276,-6.503138,3.229416,0.6446852,-0.9672575,-8.925584,-1.0007763
0.37985253,4.2629156,-6.645883,3.2475255,0.6830347,-0.93852705,-8.973468,-1.0821792
0.37833118,4.249377,-6.645883,3.2475255,0.6830347,-0.93852705,-8.973468,-1.0821792
0.37833118,4.249377,-6.645883,3.2475255,0.6830347,-0.93852705,-8.973468,-1.0821792
0.37702262,4.2377453,-6.7715845,3.2560475,0.7213843,-0.91458505,-8.992621,-1.4077905
0.37645832,4.232866,-6.8802414,3.2571127,0.7554727,-0.8762778,-8.99741,-1.6232687
0.37468538,4.217439,-6.8802414,3.2571127,0.7554727,-0.8762778,-8.99741,-1.6232687
0.37375346,4.209326,-6.970789,3.2507212,0.78743064,-0.8858546,-8.99741,-1.8483237
0.3727925,4.201179,-6.970789,3.2507212,0.78743064,-0.8858546,-8.99741,-1.8483237
0.3718305,4.192938,-7.0432267,3.237938,0.8204539,-0.90979666,-8.99741,-2.2266076
0.3708489,4.184745,-7.0432267,3.237938,0.8204539,-0.90979666,-8.99741,-2.2266076
0.3698697,4.176514,-7.098621,3.221959,0.85347706,-0.82360536,-8.872911,-2.6048915
0.36886024,4.1682415,-7.098621,3.221959,0.85347706,-0.82360536,-8.872911,-2.6048915
0.3678563,4.159931,-7.135905,3.2027843,0.8833045,-1.043872,-8.863335,-2.920926
0.36682907,4.151637,-7.135905,3.2027843,0.8833045,-1.043872,-8.863335,-2.920926
0.36581758,4.14338,-7.156145,3.1793485,0.9152624,-1.3263878,-8.887277,-3.3327289
0.3647784,4.1350975,-7.156145,3.1793485,0.9152624,-1.3263878,-8.887277,-3.3327289
0.3637519,4.126818,-7.1614714,3.1473906,0.9482856,-1.4508862,-8.863335,-3.6966474
0.36270213,4.1185474,-7.1614714,3.1473906,0.9482856,-1.4508862,-8.863335,-3.6966474
0.3616652,4.110292,-7.1497536,3.10478,0.9823741,-1.2880806,-8.853758,-4.0940847
0.3606053,4.102045,-7.1497536,3.10478,0.9823741,-1.2880806,-8.853758,-4.0940847
0.35956267,4.0938416,-7.120991,3.056843,1.0143319,-1.3024458,-8.75799,-4.525041
0.3584966,4.0856385,-7.120991,3.056843,1.0143319,-1.3024458,-8.75799,-4.525041
0.35745117,4.077491,-7.075185,3.004645,1.0420289,-1.2210429,-8.619126,-4.7500963
0.3563762,4.069295,-7.075185,3.004645,1.0420289,-1.2210429,-8.619126,-4.7500963
0.35533237,4.06126,-7.011269,2.947121,1.0697258,-0.94810385,-8.566454,-5.2241483
0.35425907,4.053179,-7.011269,2.947121,1.0697258,-0.94810385,-8.566454,-5.2241483
0.35321176,4.045212,-6.9281783,2.887466,1.0910311,-1.0199299,-8.508993,-5.616797
0.35214397,4.0372634,-6.9281783,2.887466,1.0910311,-1.0199299,-8.508993,-5.616797
0.35109726,4.0294156,-6.826978,2.8246155,1.1038142,-1.067814,-8.51857,-5.889736
0.3500297,4.021578,-6.826978,2.8246155,1.1038142,-1.067814,-8.51857,-5.889736
0.34899396,4.0138903,-6.704473,2.7521775,1.1123363,-1.1683705,-8.643068,-6.033388
0.34793967,4.00622,-6.704473,2.7521775,1.1123363,-1.1683705,-8.643068,-6.033388
0.34693894,3.9987335,-6.5574665,2.6744132,1.1219237,-0.9672575,-10.0029745,-6.0956373
0.34591973,3.9912553,-6.5574665,2.6744132,1.1219237,-0.9672575,-10.0029745,-6.0956373
0.3449713,3.9840155,-6.3689146,2.5923877,1.1240542,-1.9201498,-10.955867,-5.793968
0.34400454,3.9767742,-6.3689146,2.5923877,1.1240542,-1.9201498,-10.955867,-5.793968
0.34308237,3.969614,-6.1302953,2.497579,1.1304458,-2.7389667,-6.670246,-7.249643
0.34213915,3.962468,-6.1302953,2.497579,1.1304458,-2.7389667,-6.670246,-7.249643
0.3412487,3.9557388,-5.9129815,2.3612254,1.1102058,1.7908629,-11.238382,-4.3718123
0.34034455,3.9490275,-5.9129815,2.3612254,1.1102058,1.7908629,-11.238382,-4.3718123
0.3395579,3.942591,-5.6711664,2.3164842,1.1410985,-4.7022123,-13.321339,-5.66947
0.3387559,3.9361582,-5.6711664,2.3164842,1.1410985,-4.7022123,-13.321339,-5.66947
0.338002,3.930098,-5.335608,2.1652167,1.1357721,-2.0015526,-13.881581,-5.1810527
0.3372348,3.9240417,-5.335608,2.1652167,1.1357721,-2.0015526,-13.881581,-5.1810527
0.3366012,3.9184585,-4.932938,1.964947,1.1123363,-3.4620156,-16.103401,-4.936844
0.33595344,3.9128554,-4.932938,1.964947,1.1123363,-3.4620156,-16.103401,-4.936844
0.33543327,3.907776,-4.4738092,1.7827867,1.1048795,-4.5777135,-14.518439,-5.9998693
0.33490327,3.9026983,-4.4738092,1.7827867,1.1048795,-4.5777135,-14.518439,-5.9998693
0.33450818,3.898183,-3.9773958,1.5516244,1.0878352,-3.8642416,-12.564771,-6.655881
0.33410522,3.8936691,-3.9773958,1.5516244,1.0878352,-3.8642416,-12.564771,-6.655881
0.33384076,3.889703,-3.4969616,1.304483,1.0612036,-3.217807,-11.616667,-6.9288197
0.3335718,3.8857577,-3.4969616,1.304483,1.0612036,-3.217807,-11.616667,-6.9288197
0.33342493,3.8822968,-3.0495505,1.066929,1.0271151,-2.3463178,-11.070788,-6.95755
0.33327287,3.8788195,-3.0495505,1.066929,1.0271151,-2.3463178,-11.070788,-6.95755
0.33322698,3.8758373,-2.633032,0.8400277,0.9717214,-1.4269443,-10.730812,-6.9958572
0.33317825,3.8728707,-2.633032,0.8400277,0.9717214,-1.4269443,-10.730812,-6.9958572
0.3332199,3.8703494,-2.2367537,0.63230115,0.89182657,-1.0869676,-10.481815,-7.0006456
0.33325952,3.8678129,-2.2367537,0.63230115,0.89182657,-1.0869676,-10.481815,-7.0006456
0.33335906,3.8657486,-1.846867,0.44587985,0.79062647,-1.1587936,-10.13705,-7.4124484
0.33345735,3.8636844,-1.846867,0.44587985,0.79062647,-1.1587936,-10.13705,-7.4124484
0.33359239,3.8620696,-1.4580454,0.2647849,0.6670558,-1.1827357,-9.548077,-7.85777
0.33372673,3.8604548,-1.4580454,0.2647849,0.6670558,-1.1827357,-9.548077,-7.85777
0.33388966,3.859289,-1.0713544,0.087951005,0.5296367,-1.4269443,-8.99741,-8.236053
0.33405316,3.8581176,-1.0713544,0.087951005,0.5296367,-1.4269443,-8.99741,-8.236053
0.33423945,3.8573833,-0.69212025,-0.0856871,0.38902175,-1.5897499,-8.365341,-8.561666
0.3344243,3.8566551,-0.69212025,-0.0856871,0.38902175,-1.5897499,-8.365341,-8.561666
0.3346472,3.856348,-0.32353875,-0.26465154,0.24521105,-1.1875241,-8.1402855,-8.7532015
0.33486947,3.856042,-0.32353875,-0.26465154,0.24521105,-1.1875241,-8.1402855,-8.7532015
0.33513153,3.8561773,0.03545537,-0.4361591,0.10566141,-0.9768343,-8.24563,-8.614338
0.33539248,3.8563123,0.03545537,-0.4361591,0.10566141,-0.9768343,-8.24563,-8.614338
0.33568275,3.8568742,0.3880579,-0.5906225,-0.03069244,-0.770933,-8.341399,-8.585608
0.33597246,3.8574352,0.3880579,-0.5906225,-0.03069244,-0.770933,-8.341399,-8.585608
0.33628216,3.858422,0.73746467,-0.7301721,-0.1638505,-1.0247183,-8.446744,-8.480263
0.33659095,3.8594084,0.73746467,-0.7301721,-0.1638505,-1.0247183,-8.446744,-8.480263
0.3369162,3.8608003,1.0815451,-0.86013436,-0.28529066,-1.1540052,-8.432379,-8.571242
0.3372421,3.8608003,1.0815451,-0.86013436,-0.28529066,-1.1540052,-8.432379,-8.571242
0.33758262,3.8639746,1.4181687,-0.98583555,-0.39714342,-1.2401965,-8.413225,-8.571242
0.33792427,3.8657649,1.4181687,-0.98583555,-0.39714342,-1.2401965,-8.413225,-8.571242
0.3382834,3.867899,1.7452048,-1.1104715,-0.49727827,-1.3742718,-8.078036,-8.695741
0.33864218,3.8700452,1.7452048,-1.1104715,-0.49727827,-1.3742718,-8.078036,-8.695741
0.33903378,3.8725579,2.0626535,-1.2329769,-0.58249944,-1.340753,-7.872135,-8.762778
0.33942157,3.8750648,2.0626535,-1.2329769,-0.58249944,-1.340753,-7.872135,-8.762778
0.33984718,3.8779263,2.366254,-1.3501561,-0.65067637,-1.5275006,-7.8529816,-8.590396
0.34026796,3.8807817,2.366254,-1.3501561,-0.65067637,-1.5275006,-7.8529816,-8.590396
0.3407355,3.8839648,2.6549406,-1.4620088,-0.70180905,-1.4748282,-7.699753,-8.719683
0.3411974,3.8871415,2.6549406,-1.4620088,-0.70180905,-1.4748282,-7.699753,-8.719683
0.34170517,3.890614,2.93404,-1.5653394,-0.7369628,-1.4700398,-7.575254,-8.63828
0.34221172,3.894114,2.93404,-1.5653394,-0.7369628,-1.4700398,-7.575254,-8.63828
0.34276494,3.8978927,3.1992908,-1.6590827,-0.75826806,-1.5514427,-7.6135616,-8.6813755
0.34331134,3.9016633,3.1992908,-1.6590827,-0.75826806,-1.5514427,-7.6135616,-8.6813755
0.34391123,3.9057293,3.4474974,-1.7464343,-0.7635944,-1.4700398,-7.6614456,-8.51857
0.344494,3.9097219,3.4474974,-1.7464343,-0.7635944,-1.4700398,-7.6614456,-8.51857
0.34513998,3.9140568,3.6850514,-1.8305902,-0.76039857,-1.5705963,-7.7811556,-8.240842
0.34578666,3.9184475,3.6850514,-1.8305902,-0.76039857,-1.5705963,-7.7811556,-8.240842
0.3464818,3.9230447,3.913018,-1.9094199,-0.7476154,-1.7812861,-7.929596,-8.073248
0.34716243,3.9276001,3.913018,-1.9094199,-0.7476154,-1.7812861,-7.929596,-8.073248
0.34790948,3.93245,4.1313972,-1.9861189,-0.72631013,-2.0733786,-8.101978,-7.85777
0.3486493,3.937313,4.1313972,-1.9861189,-0.72631013,-2.0733786,-8.101978,-7.85777
0.34945524,3.942401,4.3433847,-2.062818,-0.69541746,-2.327164,-8.422802,-7.5848308
0.35025364,3.947513,4.3433847,-2.062818,-0.69541746,-2.327164,-8.422802,-7.5848308
0.35025364,3.947513,4.3433847,-2.062818,-0.69541746,-2.327164,-8.422802,-7.5848308
0.35151884,3.9552238,4.5521765,-2.143778,-0.6560027,-2.585738,-8.652645,-7.4268136
0.35202068,3.958332,4.5521765,-2.143778,-0.6560027,-2.585738,-8.652645,-7.4268136
0.35389522,3.9693475,4.7535114,-2.2268686,-0.61232686,-2.9161377,-9.016563,-7.40766
0.35493153,3.9751449,4.9463243,-2.308894,-0.5622594,-3.1842883,-9.32781,-7.393295
0.35595015,3.9809368,4.9463243,-2.308894,-0.5622594,-3.1842883,-9.32781,-7.393295
0.35707104,3.986957,5.130615,-2.39305,-0.5068657,-3.3279405,-9.605537,-7.302315
0.35817418,3.992979,5.130615,-2.39305,-0.5068657,-3.3279405,-9.605537,-7.302315
0.3593593,3.9991727,5.3074493,-2.4793363,-0.4546677,-3.41892,-9.835381,-7.3310456
0.36053264,4.0054054,5.3074493,-2.4793363,-0.4546677,-3.41892,-9.835381,-7.3310456
0.3617776,4.0117846,5.4746957,-2.5656228,-0.4099266,-3.5338416,-9.998186,-7.335834
0.36301255,4.018216,5.4746957,-2.5656228,-0.4099266,-3.5338416,-9.998186,-7.335834
0.36432168,4.0247903,5.6312895,-2.6487134,-0.36944655,-3.6248214,-10.103531,-7.129933
0.36561528,4.0313935,5.6312895,-2.6487134,-0.36944655,-3.6248214,-10.103531,-7.129933
0.366967,4.038169,5.778296,-2.7286081,-0.34068438,-3.715801,-10.156203,-7.1107793
0.36829638,4.044946,5.778296,-2.7286081,-0.34068438,-3.715801,-10.156203,-7.1107793
0.36966452,4.0518665,5.915715,-2.8063726,-0.32470542,-3.6774938,-10.160992,-7.005434
0.37101626,4.058823,5.915715,-2.8063726,-0.32470542,-3.6774938,-10.160992,-7.005434
0.372386,4.0658855,6.044612,-2.8798757,-0.32044438,-3.6822822,-10.113108,-6.933608
0.37374112,4.072998,6.044612,-2.8798757,-0.32044438,-3.6822822,-10.113108,-6.933608
0.37510297,4.0802326,6.164987,-2.9480526,-0.3279012,-3.6296098,-10.0508585,-6.871359
0.37644076,4.0874662,6.164987,-2.9480526,-0.3279012,-3.6296098,-10.0508585,-6.871359
0.3777725,4.0948186,6.2768397,-3.0119686,-0.35133705,-3.4955344,-10.041282,-6.751649
0.37908897,4.102214,6.2768397,-3.0119686,-0.35133705,-3.4955344,-10.041282,-6.751649
0.3803843,4.1097164,6.3812356,-3.0716233,-0.38968655,-3.4524388,-10.0508585,-6.517017
0.3816629,4.117263,6.3812356,-3.0716233,-0.38968655,-3.4524388,-10.0508585,-6.517017
0.38290805,4.124921,6.4813704,-3.122756,-0.44081926,-3.4332852,-10.113108,-6.2105594
0.3841342,4.1326237,6.4813704,-3.122756,-0.44081926,-3.4332852,-10.113108,-6.2105594
0.3853168,4.1404305,6.576179,-3.1643014,-0.5004741,-3.5051112,-10.213664,-5.9184666
0.3853168,4.1404305,6.576179,-3.1643014,-0.5004741,-3.5051112,-10.213664,-5.9184666
0.38753805,4.1561856,6.6656613,-3.1973245,-0.5675857,-3.5529952,-10.275913,-5.659893
0.38753805,4.1561856,6.6656613,-3.1973245,-0.5675857,-3.5529952,-10.275913,-5.659893
0.38966206,4.172505,6.751948,-3.2228909,-0.63895845,-3.6583402,-10.390836,-5.5018754
0.38966206,4.172505,6.751948,-3.2228909,-0.63895845,-3.6583402,-10.390836,-5.5018754
0.38966206,4.172505,6.751948,-3.2228909,-0.63895845,-3.6583402,-10.390836,-5.5018754
0.38966206,4.172505,6.830777,-3.2420657,-0.71352696,-3.715801,-10.500969,-5.3438582
0.38966206,4.172505,6.897889,-3.25911,-0.79235655,-3.6631286,-10.520123,-5.1666875
0.39352158,4.210581,6.897889,-3.25911,-0.79235655,-3.6631286,-10.520123,-5.1666875
0.39450744,4.2224817,6.9554133,-3.271893,-0.87331665,-3.5817258,-10.548853,-4.960786
0.39514178,4.2308607,6.9554133,-3.271893,-0.87331665,-3.5817258,-10.548853,-4.960786
0.3956856,4.239325,7.0001545,-3.27935,-0.9574725,-3.5003228,-10.505757,-4.6782703
0.3961953,4.247795,7.0001545,-3.27935,-0.9574725,-3.5003228,-10.505757,-4.6782703
0.39661455,4.256323,7.0331774,-3.2846763,-1.0416284,-3.3901896,-10.43872,-4.3143516
0.39699814,4.264831,7.0331774,-3.2846763,-1.0416284,-3.3901896,-10.43872,-4.3143516
0.39728597,4.273427,7.054483,-3.2825458,-1.124719,-3.3375173,-10.390836,-4.050989
0.39753917,4.2820544,7.054483,-3.2825458,-1.124719,-3.3375173,-10.390836,-4.050989
0.39768603,4.290615,7.0662007,-3.2750888,-1.2067444,-3.2369606,-10.170568,-3.8019924
0.3977979,4.2992063,7.0662007,-3.2750888,-1.2067444,-3.2369606,-10.170568,-3.8019924
0.3978072,4.307825,7.0683312,-3.2612405,-1.289835,-3.0023289,-10.012551,-3.4045548
0.39778122,4.3164306,7.0683312,-3.2612405,-1.289835,-3.0023289,-10.012551,-3.4045548
0.39763808,4.325064,7.0608745,-3.23887,-1.3718604,-2.6671407,-9.801862,-3.1507695
0.39746118,4.333649,7.0608745,-3.23887,-1.3718604,-2.6671407,-9.801862,-3.1507695
0.397168,4.3422356,7.0438304,-3.2058468,-1.454951,-2.2840683,-9.528923,-2.767697
0.39684102,4.350816,7.0438304,-3.2058468,-1.454951,-2.2840683,-9.528923,-2.767697
0.39639357,4.3593655,7.019329,-3.1600404,-1.5380416,-1.9919758,-9.241618,-2.4372973
0.3959133,4.3679,7.019329,-3.1600404,-1.5380416,-1.9919758,-9.241618,-2.4372973
0.39530972,4.376438,6.9820447,-3.102516,-1.620067,-1.6280571,-8.872911,-1.9967642
0.39467946,4.3848925,6.9820447,-3.102516,-1.620067,-1.6280571,-8.872911,-1.9967642
0.39392495,4.3933115,6.9330425,-3.033274,-1.6978313,-1.2066777,-8.446744,-1.6136919
0.39314023,4.4017134,6.9330425,-3.033274,-1.6978313,-1.2066777,-8.446744,-1.6136919
0.39222988,4.410034,6.8680615,-2.9544442,-1.7777262,-0.79966336,-7.967903,-1.2306197
0.39131248,4.418146,6.8680615,-2.9544442,-1.7777262,-0.79966336,-7.967903,-1.2306197
0.39024672,4.4263563,6.781775,-2.864962,-1.8554904,-0.4213795,-7.4124484,-0.866701
0.38911474,4.4348354,6.781775,-2.864962,-1.8554904,-0.4213795,-7.4124484,-0.866701
0.38791218,4.442813,6.6667266,-2.7616315,-1.930059,-0.15322891,-6.813898,-0.4213795
0.3866817,4.450789,6.6667266,-2.7616315,-1.930059,-0.15322891,-6.813898,-0.4213795
0.38533333,4.4586024,6.5165243,-2.6455176,-1.998236,0.2873042,-6.14831,0.047884032
0.38395286,4.4664445,6.5165243,-2.6455176,-1.998236,0.2873042,-6.14831,0.047884032
0.3824675,4.4740276,6.3279724,-2.5144901,-2.0578907,0.7182605,-5.473145,0.4309563
0.38096195,4.4815855,6.3279724,-2.5144901,-2.0578907,0.7182605,-5.473145,0.4309563
0.37936386,4.4888577,6.098941,-2.365353,-2.103697,1.2593501,-4.8123455,0.9624691
0.37774482,4.49612,6.098941,-2.365353,-2.103697,1.2593501,-4.8123455,0.9624691
0.37604272,4.503036,5.8251677,-2.195976,-2.1409814,1.5897499,-4.1659107,1.4077905
0.37431163,4.509984,5.8251677,-2.195976,-2.1409814,1.5897499,-4.1659107,1.4077905
0.37431163,4.509984,5.5087843,-2.0095546,-2.1697435,1.8531121,-3.6343982,1.8100165
0.37069577,4.523027,5.5087843,-2.0095546,-2.1697435,1.8531121,-3.6343982,1.8100165
0.36884612,4.5290194,5.152986,-1.8071544,-2.1835918,2.0207062,-3.1411927,2.1691468
0.36696246,4.5350695,5.152986,-1.8071544,-2.1835918,2.0207062,-3.1411927,2.1691468
0.36503175,4.540641,4.758838,-1.5941015,-2.1857224,2.1547816,-2.6288335,2.4899697
0.36309192,4.546198,4.758838,-1.5941015,-2.1857224,2.1547816,-2.6288335,2.4899697
0.36112192,4.551235,4.3295364,-1.3767877,-2.1750698,2.27928,-2.3654714,2.8395233
0.35914308,4.5562654,4.3295364,-1.3767877,-2.1750698,2.27928,-2.3654714,2.8395233
0.35715654,4.560751,3.873603,-1.1605389,-2.1452425,2.231396,-2.1739352,3.0597897
0.3551632,4.5652304,3.873603,-1.1605389,-2.1452425,2.231396,-2.1739352,3.0597897
0.35317954,4.569143,3.393169,-0.94961655,-2.1015666,2.1739352,-2.0015526,3.2034419
0.3511908,4.5730505,3.393169,-0.94961655,-2.1015666,2.1739352,-2.0015526,3.2034419
0.34923252,4.5763764,2.8946252,-0.74295527,-2.0408466,2.1452048,-1.8818425,3.4237084
0.3472629,4.5797114,2.8946252,-0.74295527,-2.0408466,2.1452048,-1.8818425,3.4237084
0.3453609,4.5824256,2.3801024,-0.54588133,-1.9620169,2.2984335,-1.8052281,3.6535518
0.3434471,4.58515,2.3801024,-0.54588133,-1.9620169,2.2984335,-1.8052281,3.6535518
0.3416029,4.5872717,1.8538618,-0.35626426,-1.8650779,2.5330653,-1.7286136,3.7828386
0.33975926,4.589389,1.8538618,-0.35626426,-1.8650779,2.5330653,-1.7286136,3.7828386
0.33799517,4.590904,1.3201643,-0.16984299,-1.7542903,2.791639,-1.8004397,3.964798
0.33623582,4.5924134,1.3201643,-0.16984299,-1.7542903,2.791639,-1.8004397,3.964798
0.33457288,4.5933113,0.7779447,0.013382491,-1.6317849,3.0119057,-1.910573,4.1180267
0.3329096,4.5942087,0.7779447,0.013382491,-1.6317849,3.0119057,-1.910573,4.1180267
0.33136085,4.5944915,0.23146403,0.19660798,-1.4954311,2.96881,-1.9967642,4.237737
0.32981065,4.5947742,0.23146403,0.19660798,-1.4954311,2.96881,-1.9967642,4.237737
0.3283879,4.594441,-0.31714717,0.3808987,-1.3473593,2.743755,-2.054225,4.122815
0.32702643,4.594122,-0.31714717,0.3808987,-1.3473593,2.743755,-2.054225,4.122815
0.32574198,4.5931787,-0.8646931,0.56199366,-1.1886349,2.5378537,-2.2218192,3.9935284
0.3243775,4.5921774,-0.8646931,0.56199366,-1.1886349,2.5378537,-2.2218192,3.9935284
0.3243775,4.5921774,-1.4090432,0.73776233,-1.0171273,2.384625,-2.542642,3.8881836
0.32208076,4.589053,-1.4090432,0.73776233,-1.0171273,2.384625,-2.542642,3.8881836
0.3211208,4.5869536,-1.9491323,0.9039436,-0.83283657,2.3511062,-2.825158,3.596091
0.3201366,4.5848064,-1.9491323,0.9039436,-0.83283657,2.3511062,-2.825158,3.596091
0.31931525,4.582071,-2.479634,1.0594722,-0.64108896,2.3511062,-3.1411927,3.265691
0.31849223,4.57934,-2.479634,1.0594722,-0.64108896,2.3511062,-3.1411927,3.265691
0.31783438,4.576023,-3.0005484,1.2096745,-0.44401506,2.3415294,-3.4237084,2.9783869
0.31717363,4.5727105,-3.0005484,1.2096745,-0.44401506,2.3415294,-3.4237084,2.9783869
0.31668237,4.5688467,-3.5076141,1.3492241,-0.2448106,2.2218192,-3.7732618,2.657564
0.31618032,4.564937,-3.5076141,1.3492241,-0.2448106,2.2218192,-3.7732618,2.657564
0.31618032,4.564937,-3.9955053,1.4823822,-0.04241035,2.0494366,-4.2281604,2.4181437
0.31552264,4.5561237,-3.9955053,1.4823822,-0.04241035,2.0494366,-4.2281604,2.4181437
0.31552264,4.5561237,-4.4642215,1.6070181,0.16105516,1.8243817,-4.5537715,2.0494366
0.31535736,4.5511236,-4.4642215,1.6070181,0.16105516,1.8243817,-4.5537715,2.0494366
0.31518716,4.5462027,-4.4642215,1.6070181,0.16105516,1.4508862,-4.903325,1.685518
0.3151746,4.5354805,-4.9116325,1.7199361,0.3634554,1.4508862,-4.903325,1.685518
0.31532598,4.529608,-5.3292165,1.820071,0.5615946,1.115698,-5.257667,1.3024458
0.31546733,4.5237226,-5.3292165,1.820071,0.5615946,1.115698,-5.257667,1.3024458
0.31576303,4.517413,-5.718038,1.9042269,0.7554727,0.8379706,-5.5258174,0.8283938
0.31604627,4.511116,-5.718038,1.9042269,0.7554727,0.8379706,-5.5258174,0.8283938
0.31648096,4.50439,-6.0738363,1.9724039,0.9472203,0.545878,-5.913678,0.30645782
0.3169009,4.4976897,-6.0738363,1.9724039,0.9472203,0.545878,-5.913678,0.30645782
0.31745487,4.490624,-6.3987417,2.0267322,1.1325763,0.48841715,-6.1770406,-0.33518824
0.31799662,4.483529,-6.3987417,2.0267322,1.1325763,0.48841715,-6.1770406,-0.33518824
0.31867135,4.476113,-6.6874285,2.066147,1.3115407,0.46926352,-6.5457473,-0.8762778
0.31932902,4.46871,-6.6874285,2.066147,1.3115407,0.46926352,-6.5457473,-0.8762778
0.32011437,4.4609694,-6.9420266,2.093844,1.4787873,0.20111294,-6.9240313,-1.5610195
0.3208796,4.4532514,-6.9420266,2.093844,1.4787873,0.20111294,-6.9240313,-1.5610195
0.32176954,4.445272,-7.1582756,2.109823,1.6353812,0.038307227,-7.264008,-2.087744
0.32264167,4.437275,-7.1582756,2.109823,1.6353812,0.038307227,-7.264008,-2.087744
0.32363692,4.4290752,-7.3361745,2.1130188,1.7855835,-0.16759412,-7.690176,-2.4995465
0.32461098,4.420873,-7.3361745,2.1130188,1.7855835,-0.16759412,-7.690176,-2.4995465
0.32570183,4.4125032,-7.4778547,2.1119535,1.9283289,-0.35434186,-8.020576,-2.777274
0.32677028,4.404131,-7.4778547,2.1119535,1.9283289,-0.35434186,-8.020576,-2.777274
0.3279529,4.395631,-7.579055,2.1087577,2.0689437,-0.45489833,-8.336611,-3.074155
0.32911217,4.387128,-7.579055,2.1087577,2.0689437,-0.45489833,-8.336611,-3.074155
0.3303793,4.378538,-7.642971,2.1044967,2.2052977,-0.62728083,-8.676587,-3.289633
0.33162242,4.369946,-7.642971,2.1044967,2.2052977,-0.62728083,-8.676587,-3.289633
0.33297405,4.3612847,-7.6696024,2.1013007,2.3405862,-0.81402856,-8.8777,-3.6248214
0.33429772,4.3526373,-7.6696024,2.1013007,2.3405862,-0.81402856,-8.8777,-3.6248214
0.33571985,4.3439574,-7.6621456,2.0991702,2.4673526,-1.0055647,-9.136273,-3.9360676
0.3371103,4.3353086,-7.6621456,2.0991702,2.4673526,-1.0055647,-9.136273,-3.9360676
0.3386076,4.3266153,-7.623796,2.0959744,2.5909233,-1.4077905,-9.23683,-4.43885
0.3400856,4.3178654,-7.623796,2.0959744,2.5909233,-1.4077905,-9.23683,-4.43885
0.341642,4.3092136,-7.5598803,2.0874524,2.7123635,-1.7621324,-9.892841,-4.6686935
0.34316257,4.300602,-7.5598803,2.0874524,2.7123635,-1.7621324,-9.892841,-4.6686935
0.34477988,4.2920175,-7.467202,2.070408,2.8295426,-2.3511062,-10.481815,-4.960786
0.34638256,4.283353,-7.467202,2.070408,2.8295426,-2.3511062,-10.481815,-4.960786
0.34804997,4.274918,-7.3436317,2.0395155,2.9413953,-2.5091233,-11.022904,-5.2720323
0.34969792,4.2664385,-7.3436317,2.0395155,2.9413953,-2.5091233,-11.022904,-5.2720323
0.35143772,4.2580943,-7.1881027,1.9926438,3.047922,-2.7868507,-11.525687,-5.602432
0.3531474,4.249764,-7.1881027,1.9926438,3.047922,-2.7868507,-11.525687,-5.602432
0.35495505,4.2415676,-7.0038123,1.9361849,3.149122,-3.5482068,-11.722012,-6.0525417
0.35674262,4.2333307,-7.0038123,1.9361849,3.149122,-3.5482068,-11.722012,-6.0525417
0.3586159,4.2253413,-6.7960854,1.8594857,3.2449958,-3.6631286,-11.971008,-6.2871737
0.36045924,4.217367,-6.7960854,1.8594857,3.2449958,-3.6631286,-11.971008,-6.2871737
0.36045924,4.217367,-6.5649233,1.763612,3.3323474,-3.9552212,-12.330139,-6.4308257
0.36432666,4.2019086,-6.5649233,1.763612,3.3323474,-3.9552212,-12.330139,-6.4308257
0.36432666,4.2019086,-6.3081946,1.6560203,3.411177,-4.012682,-12.411542,-6.4643445
0.36835882,4.1869965,-6.3081946,1.6560203,3.411177,-4.012682,-12.411542,-6.4643445
0.36835882,4.1869965,-6.024834,1.5335149,3.475093,-3.9360676,-12.789825,-6.277597
0.37258047,4.1727085,-6.024834,1.5335149,3.475093,-3.9360676,-12.789825,-6.277597
0.37258047,4.1727085,-6.024834,1.5335149,3.475093,-3.9360676,-12.789825,-6.277597
0.37696004,4.159083,-5.7105813,1.4056832,3.5219646,-3.8977604,-13.067553,-6.114791
0.37696004,4.159083,-5.7105813,1.4056832,3.5219646,-3.8977604,-13.067553,-6.114791
0.3792569,4.152542,-5.3611746,1.2778513,3.5549877,-3.8786068,-13.326127,-6.0238113
0.38149568,4.146104,-5.3611746,1.2778513,3.5549877,-3.8786068,-13.326127,-6.0238113
0.3838203,4.1400394,-4.980875,1.1478891,3.572032,-4.0653543,-13.402741,-6.05733
0.3861149,4.1339974,-4.980875,1.1478891,3.572032,-4.0653543,-13.402741,-6.05733
0.38849095,4.1283655,-4.573944,1.006209,3.572032,-4.232949,-13.383588,-6.0381765
0.39083785,4.122754,-4.573944,1.006209,3.572032,-4.232949,-13.383588,-6.0381765
0.39325422,4.1175814,-4.146773,0.85068035,3.5528572,-4.1946416,-13.321339,-6.042965
0.39564997,4.1124125,-3.704688,0.6823686,3.5113118,-3.940856,-13.311762,-6.114791
0.39807826,4.107752,-3.704688,0.6823686,3.5113118,-3.940856,-13.311762,-6.114791
0.40291423,4.0989447,-3.253016,0.510861,3.4463308,-3.7445314,-13.139379,-6.0477533
0.4053548,4.0947685,-3.253016,0.510861,3.4463308,-3.7445314,-13.139379,-6.0477533
0.407811,4.0911055,-2.7992134,0.34148395,3.3579137,-3.5290532,-12.966996,-6.090849
0.407811,4.0911055,-2.7992134,0.34148395,3.3579137,-3.5290532,-12.966996,-6.090849
0.41096136,4.0870667,-2.3486066,0.17743322,3.2471263,-3.2752678,-12.703634,-5.9807158
0.41339424,4.083928,-2.3486066,0.17743322,3.2471263,-3.2752678,-12.703634,-5.9807158
0.41591388,4.0811872,-1.9065217,0.020839343,3.1150334,-3.122039,-12.540829,-5.995081
0.4182549,4.078628,-1.9065217,0.020839343,3.1150334,-3.122039,-12.540829,-5.995081
0.42059892,4.076526,-1.4804159,-0.12616715,2.9616354,-2.9975405,-12.631808,-5.9424086
0.42301533,4.074349,-1.4804159,-0.12616715,2.9616354,-2.9975405,-12.631808,-5.9424086
0.42795193,4.070881,-1.0649629,-0.27104312,2.7858667,-3.217807,-12.306197,-5.8226986
0.42795193,4.070881,-1.0649629,-0.27104312,2.7858667,-3.217807,-12.306197,-5.8226986
0.43139836,4.0685673,-0.6580318,-0.42337593,2.5909233,-2.7724855,-11.712435,-5.6790466
0.43205974,4.068233,-0.6580318,-0.42337593,2.5909233,-2.7724855,-11.712435,-5.6790466
0.43394518,4.067277,-0.6580318,-0.42337593,2.5909233,-2.7724855,-11.712435,-5.6790466
0.43636212,4.066586,-0.28092816,-0.5810351,2.3704135,-3.5338416,-13.220781,-4.8362875
0.44025037,4.0658975,0.0972407,-0.7205847,2.154165,-3.6487634,-12.282255,-5.583278
0.44232818,4.0657544,0.0972407,-0.7205847,2.154165,-3.6487634,-12.282255,-5.583278
0.44431806,4.0661335,0.48606223,-0.89635336,1.9070235,-3.3662477,-12.62702,-5.410896
0.44630736,4.066512,0.48606223,-0.89635336,1.9070235,-3.3662477,-12.62702,-5.410896
0.4481855,4.0674095,0.86529636,-1.0699915,1.6492296,-3.8833952,-11.69807,-6.0238113
0.45006105,4.068306,0.86529636,-1.0699915,1.6492296,-3.8833952,-11.69807,-6.0238113
0.45182487,4.069707,1.2285515,-1.2489558,1.3871746,-3.620033,-11.008539,-6.2488666
0.45357695,4.0711,1.2285515,-1.2489558,1.3871746,-3.620033,-11.008539,-6.2488666
0.4552025,4.072959,1.5641098,-1.4289856,1.1165974,-2.9352913,-10.500969,-6.3446345
0.4568262,4.0748196,1.5641098,-1.4289856,1.1165974,-2.9352913,-10.500969,-6.3446345
0.4568262,4.0748196,1.8687755,-1.5855795,0.84388965,-2.456451,-10.457873,-6.277597
0.45834395,4.077159,1.8687755,-1.5855795,0.84388965,-2.456451,-10.457873,-6.277597
0.46008256,4.079847,2.1510706,-1.7134112,0.56692094,-2.3127987,-10.448297,-6.1866174
0.46251237,4.0847883,2.1510706,-1.7134112,0.56692094,-2.3127987,-10.448297,-6.1866174
0.4636742,4.087882,2.4195173,-1.8156766,0.2920827,-2.60968,-10.261548,-6.2392898
0.46483928,4.0910006,2.4195173,-1.8156766,0.2920827,-2.60968,-10.261548,-6.2392898
0.4658267,4.094485,2.676246,-1.9008977,0.022570781,-2.944868,-10.060435,-6.373365
0.46680808,4.097971,2.676246,-1.9008977,0.022570781,-2.944868,-10.060435,-6.373365
0.46680808,4.097971,2.676246,-1.9008977,0.022570781,-2.944868,-10.060435,-6.373365
0.468415,4.1056643,2.9233873,-1.9829232,-0.24054953,-3.0789435,-9.969456,-6.517017
0.46903914,4.109818,3.1641371,-2.0638833,-0.49301723,-3.2225955,-9.959879,-6.564901
0.46965858,4.1139975,3.1641371,-2.0638833,-0.49301723,-3.2225955,-9.959879,-6.564901
0.47011933,4.1185284,3.401691,-2.1427128,-0.7295059,-3.2800562,-10.012551,-6.588843
0.47056872,4.1230454,3.401691,-2.1427128,-0.7295059,-3.2800562,-10.012551,-6.588843
0.4708687,4.127901,3.6360493,-2.220477,-0.9489504,-3.4332852,-10.25676,-6.6367273
0.47115725,4.1327553,3.6360493,-2.220477,-0.9489504,-3.4332852,-10.25676,-6.6367273
0.47130802,4.1379433,3.8725379,-2.2971761,-1.1492201,-3.763685,-10.43872,-6.5744777
0.4714454,4.1431274,3.8725379,-2.2971761,-1.1492201,-3.763685,-10.43872,-6.5744777
0.47146302,4.1486588,4.1100917,-2.3738751,-1.3281846,-4.223372,-10.812215,-6.363788
0.47146425,4.154191,4.1100917,-2.3738751,-1.3281846,-4.223372,-10.812215,-6.363788
0.47136888,4.160056,4.3508415,-2.4559004,-1.4858437,-4.620809,-11.243171,-6.2105594
0.47125387,4.165922,4.3508415,-2.4559004,-1.4858437,-4.620809,-11.243171,-6.2105594
0.47105914,4.1721134,4.594787,-2.5400565,-1.6168712,-4.644751,-11.57836,-6.090849
0.4708425,4.1783113,4.594787,-2.5400565,-1.6168712,-4.644751,-11.57836,-6.090849
0.47055736,4.1848,4.844059,-2.6210165,-1.7223324,-4.5777135,-11.683704,-6.0285997
0.4702487,4.1912947,4.844059,-2.6210165,-1.7223324,-4.5777135,-11.683704,-6.0285997
0.4698849,4.1980805,5.0954614,-2.691324,-1.8043578,-4.687847,-11.903971,-6.009446
0.46949595,4.204865,5.0954614,-2.691324,-1.8043578,-4.687847,-11.903971,-6.009446
0.46905684,4.2119284,5.3426027,-2.752044,-1.8693389,-5.161899,-12.11466,-6.157887
0.46859047,4.2189946,5.3426027,-2.752044,-1.8693389,-5.161899,-12.11466,-6.157887
0.46807975,4.22632,5.5822873,-2.804242,-1.91408,-5.616797,-12.20564,-6.4404025
0.46754774,4.233592,5.5822873,-2.804242,-1.91408,-5.616797,-12.20564,-6.4404025
0.4669952,4.2411113,5.809189,-2.8543093,-1.9375159,-5.5880666,-12.243947,-6.517017
0.46642095,4.248615,5.809189,-2.8543093,-1.9375159,-5.5880666,-12.243947,-6.517017
0.46583226,4.2563605,6.019046,-2.9065075,-1.9481685,-5.4444146,-12.263102,-6.397307
0.4652216,4.264084,6.019046,-2.9065075,-1.9481685,-5.4444146,-12.263102,-6.397307
0.46460435,4.272023,6.212924,-2.956575,-1.9471031,-5.4539914,-12.191275,-6.167464
0.4639647,4.279947,6.212924,-2.956575,-1.9471031,-5.4539914,-12.191275,-6.167464
0.46331152,4.288091,6.3950844,-3.005577,-1.9428421,-5.4204726,-12.224793,-5.827487
0.46263438,4.2962174,6.3950844,-3.005577,-1.9428421,-5.4204726,-12.224793,-5.827487
0.46194485,4.304552,6.5655265,-3.050318,-1.9353853,-5.3438582,-12.196063,-5.4683566
0.4612294,4.3128676,6.5655265,-3.050318,-1.9353853,-5.3438582,-12.196063,-5.4683566
0.46050185,4.3213663,6.725316,-3.0886676,-1.9279284,-5.2480903,-12.162544,-5.21936
0.45974776,4.3298454,6.725316,-3.0886676,-1.9279284,-5.2480903,-12.162544,-5.21936
0.45898068,4.338476,6.8765836,-3.122756,-1.922602,-5.1523223,-12.11466,-5.0757074
0.4581844,4.3471227,6.8765836,-3.122756,-1.922602,-5.1523223,-12.11466,-5.0757074
0.45737442,4.3558707,7.015068,-3.154714,-1.9204715,-4.879383,-12.028469,-4.9895163
0.4565367,4.3646183,7.015068,-3.154714,-1.9204715,-4.879383,-12.028469,-4.9895163
0.45566633,4.373507,7.138639,-3.1856067,-1.9268632,-4.6495395,-11.8896055,-4.7405195
0.45476976,4.38237,7.138639,-3.1856067,-1.9268632,-4.6495395,-11.8896055,-4.7405195
0.45382628,4.3913717,7.247296,-3.2143688,-1.9428421,-4.429273,-11.779472,-4.43885
0.45285475,4.400356,7.247296,-3.2143688,-1.9428421,-4.429273,-11.779472,-4.43885
0.4518274,4.409463,7.3431697,-3.2420657,-1.966278,-4.223372,-11.688493,-4.0701427
0.45077023,4.4185514,7.3431697,-3.2420657,-1.966278,-4.223372,-11.688493,-4.0701427
0.44964716,4.427766,7.4273252,-3.2644362,-1.9971706,-3.9264908,-11.597513,-3.5098996
0.44849107,4.4369607,7.4273252,-3.2644362,-1.9971706,-3.9264908,-11.597513,-3.5098996
0.4472666,4.4462533,7.4997635,-3.27935,-2.0365853,-3.7541082,-11.386824,-3.0597897
0.44600707,4.455526,7.4997635,-3.27935,-2.0365853,-3.7541082,-11.386824,-3.0597897
0.444675,4.464884,7.562614,-3.287872,-2.0823917,-3.6391866,-11.271901,-2.633622
0.44330585,4.474221,7.562614,-3.287872,-2.0823917,-3.6391866,-11.271901,-2.633622
0.44186458,4.483635,7.6137466,-3.292133,-2.1335244,-3.8786068,-11.022904,-2.2122424
0.44038245,4.493036,7.6137466,-3.292133,-2.1335244,-3.8786068,-11.022904,-2.2122424
0.43883523,4.5024724,7.649966,-3.292133,-2.184657,-3.8498764,-10.778696,-1.8004397
0.43724582,4.5118966,7.649966,-3.292133,-2.184657,-3.8498764,-10.778696,-1.8004397
0.435573,4.52133,7.6691403,-3.2900026,-2.2357898,-3.1603463,-10.577583,-1.436521
0.43385974,4.5307517,7.6691403,-3.2900026,-2.2357898,-3.1603463,-10.577583,-1.436521
0.43206048,4.5401406,7.668075,-3.27935,-2.284792,-2.5761611,-10.103531,-1.2545617
0.4302243,4.549508,7.668075,-3.27935,-2.284792,-2.5761611,-10.103531,-1.2545617
0.42829946,4.558828,7.6446395,-3.2537837,-2.3369899,-1.9393034,-9.528923,-1.0007763
0.42633903,4.568126,7.6446395,-3.2537837,-2.3369899,-1.9393034,-9.528923,-1.0007763
0.42428017,4.577341,7.593507,-3.2143688,-2.39771,-1.292869,-8.820239,-0.79008657
0.4221874,4.5865345,7.593507,-3.2143688,-2.39771,-1.292869,-8.820239,-0.79008657
0.4199965,4.595601,7.5114813,-3.154714,-2.4626913,-0.7326257,-7.9343843,-0.48362875
0.41776857,4.6046653,7.5114813,-3.154714,-2.4626913,-0.7326257,-7.9343843,-0.48362875
0.41541862,4.6136413,7.3953676,-3.0758843,-2.5329986,-0.02873042,-7.0581064,-0.12449849
0.4130704,4.622472,7.3953676,-3.0758843,-2.5329986,-0.02873042,-7.0581064,-0.12449849
0.4130704,4.622472,7.2451653,-2.9789453,-2.6107628,0.5410896,-6.1530986,0.21068975
0.40810835,4.6397896,7.2451653,-2.9789453,-2.6107628,0.5410896,-6.1530986,0.21068975
0.40552026,4.648116,7.0534177,-2.8553746,-2.6927884,1.043872,-5.2002063,0.4165911
0.402885,4.6564903,7.0534177,-2.8553746,-2.6927884,1.043872,-5.2002063,0.4165911
0.4001436,4.6645546,6.816929,-2.7083683,-2.7769442,1.5849615,-4.3287168,0.7613561
0.39737839,4.6726,6.816929,-2.7083683,-2.7769442,1.5849615,-4.3287168,0.7613561
0.3945172,4.680281,6.5346336,-2.5400565,-2.856839,1.910573,-3.490746,1.1061212
0.39163503,4.687944,6.5346336,-2.5400565,-2.856839,1.910573,-3.490746,1.1061212
0.38866922,4.6951923,6.208663,-2.353635,-2.9303422,2.1547816,-2.8060043,1.4891934
0.38567644,4.702445,6.208663,-2.353635,-2.9303422,2.1547816,-2.8060043,1.4891934
0.38263485,4.709199,5.844342,-2.1544306,-2.9910624,2.2936451,-2.2840683,1.8818425
0.379569,4.7159576,5.844342,-2.1544306,-2.9910624,2.2936451,-2.2840683,1.8818425
0.37645248,4.7222204,5.4459333,-1.9467041,-3.037934,2.4947581,-1.8100165,2.207454
0.37332675,4.728462,5.4459333,-1.9467041,-3.037934,2.4947581,-1.8100165,2.207454
0.37016466,4.7341943,5.019828,-1.7347165,-3.0666962,2.7581203,-1.5610195,2.6144683
0.36699587,4.7399077,5.019828,-1.7347165,-3.0666962,2.7581203,-1.5610195,2.6144683
0.36382088,4.7450733,4.5713515,-1.5205983,-3.0773487,2.9783869,-1.436521,2.9879637
0.3606349,4.7502337,4.5713515,-1.5205983,-3.0773487,2.9783869,-1.436521,2.9879637
0.35746205,4.754834,4.1037,-1.3043497,-3.0688267,3.2944214,-1.3982137,3.4380736
0.35427386,4.759439,4.1037,-1.3043497,-3.0688267,3.2944214,-1.3982137,3.4380736
0.3511368,4.76346,3.6253965,-1.0859704,-3.0368688,3.4811692,-1.4796166,3.7732618
0.34799907,4.767469,3.6253965,-1.0859704,-3.0368688,3.4811692,-1.4796166,3.7732618
0.34491828,4.7709165,3.1385708,-0.86865646,-2.9836056,3.5338416,-1.6759412,4.132392
0.34179473,4.7744026,3.1385708,-0.86865646,-2.9836056,3.5338416,-1.6759412,4.132392
0.34179473,4.7744026,2.6496143,-0.65453833,-2.9122329,3.4476504,-1.9009962,4.5394063
0.33577228,4.780171,2.6496143,-0.65453833,-2.9122329,3.4476504,-1.9009962,4.5394063
0.33290717,4.7824597,2.1585274,-0.44468123,-2.816359,3.217807,-2.0350714,4.831499
0.33004144,4.7847457,2.1585274,-0.44468123,-2.816359,3.217807,-2.0350714,4.831499
0.32729208,4.7864943,1.6706363,-0.23908518,-2.6927884,3.0693667,-2.1212628,5.0182467
0.32455367,4.788234,1.6706363,-0.23908518,-2.6927884,3.0693667,-2.1212628,5.0182467
0.32196236,4.789436,1.1838105,-0.040945996,-2.5436513,2.825158,-2.2601264,5.1475334
0.31936595,4.7906394,1.1838105,-0.040945996,-2.5436513,2.825158,-2.2601264,5.1475334
0.31697643,4.791293,0.69591933,0.1476058,-2.368948,2.2601264,-2.0398598,4.936844
0.31460625,4.7919426,0.69591933,0.1476058,-2.368948,2.2601264,-2.0398598,4.936844
0.31241366,4.7920547,0.20483242,0.3191134,-2.1740046,2.7341783,-2.3750482,5.12838
0.3102275,4.7921677,0.20483242,0.3191134,-2.1740046,2.7341783,-2.3750482,5.12838
0.30825648,4.791749,-0.28412396,0.47570726,-1.9652127,3.040636,-3.5098996,5.559336
0.30629125,4.791333,-0.28412396,0.47570726,-1.9652127,3.040636,-3.5098996,5.559336
0.3045691,4.7904005,-0.7581667,0.64082325,-1.728724,2.1452048,-3.821146,5.305551
0.30284977,4.789472,-0.7581667,0.64082325,-1.728724,2.1452048,-3.821146,5.305551
0.30139303,4.7880464,-1.210904,0.79422134,-1.475191,1.6567876,-3.098097,4.7261543
0.30139303,4.7880464,-1.210904,0.79422134,-1.475191,1.6567876,-3.098097,4.7261543
0.29983062,4.7865205,-1.210904,0.79422134,-1.475191,1.7860745,-2.906561,4.295198
0.29754782,4.782875,-1.6551193,0.92311835,-1.2120707,1.7860745,-2.906561,4.295198
0.29664314,4.7805243,-2.1004,1.0381669,-0.9372325,1.8579005,-2.8874073,3.9791632
0.29572794,4.7781534,-2.1004,1.0381669,-0.9372325,1.8579005,-2.8874073,3.9791632
0.29509756,4.7753224,-2.5414193,1.1468239,-0.6549374,1.9967642,-3.122039,3.940856
0.29446283,4.772487,-2.5414193,1.1468239,-0.6549374,1.9967642,-3.122039,3.940856
0.29410863,4.769208,-2.9717863,1.2533504,-0.37264234,2.078167,-3.7972038,3.9025488
0.29374886,4.7659125,-2.9717863,1.2533504,-0.37264234,2.078167,-3.7972038,3.9025488
0.29366446,4.762184,-3.3840435,1.3641378,-0.093543045,1.9680338,-4.4675803,3.715801
0.29357457,4.7584176,-3.3840435,1.3641378,-0.093543045,1.9680338,-4.4675803,3.715801
0.2937535,4.754252,-3.7707345,1.4749253,0.18022992,1.733402,-5.0134583,3.347094
0.2939301,4.7500067,-3.7707345,1.4749253,0.18022992,1.733402,-5.0134583,3.347094
0.2939301,4.7500067,-4.130794,1.5857128,0.44867656,1.460463,-5.410896,2.9640217
0.29477617,4.741071,-4.130794,1.5857128,0.44867656,1.460463,-5.410896,2.9640217
0.29544637,4.7361703,-4.4652867,1.6879783,0.7054053,1.2593501,-5.803545,2.542642
0.296107,4.731282,-4.4652867,1.6879783,0.7054053,1.2593501,-5.803545,2.542642
0.296107,4.731282,-4.4652867,1.6879783,0.7054053,1.2593501,-5.803545,2.542642
0.29787228,4.720872,-4.7731485,1.783852,0.95467716,1.0534488,-6.1100025,2.0159178
0.29897854,4.7153,-5.0554433,1.8775953,1.1922312,0.8714894,-6.50744,1.6519991
0.29897854,4.7153,-5.0554433,1.8775953,1.1922312,0.8714894,-6.50744,1.6519991
0.30126038,4.7039585,-5.3068457,1.9638817,1.4180672,0.5315128,-6.9000893,1.3120226
0.30255958,4.6980686,-5.3068457,1.9638817,1.4180672,0.5315128,-6.9000893,1.3120226
0.30403733,4.691971,-5.528421,2.0437765,1.6343158,0.07182605,-7.350199,0.82360536
0.3055128,4.685832,-5.528421,2.0437765,1.6343158,0.07182605,-7.350199,0.82360536
0.30716106,4.679468,-5.718038,2.118345,1.8399119,-0.2873042,-7.785944,0.33518824
0.30880374,4.673074,-5.718038,2.118345,1.8399119,-0.2873042,-7.785944,0.33518824
0.31061617,4.666424,-5.8820887,2.186522,2.0359206,-0.60812724,-8.169016,-0.33997664
0.3124013,4.659816,-5.8820887,2.186522,2.0359206,-0.60812724,-8.169016,-0.33997664
0.31435862,4.652993,-6.0227036,2.247242,2.2212765,-0.81402856,-8.456321,-0.9672575
0.31628826,4.646199,-6.0227036,2.247242,2.2212765,-0.81402856,-8.456321,-0.9672575
0.31628826,4.646199,-6.1441436,2.3015707,2.3938494,-0.8523358,-8.714894,-1.3455414
0.32047242,4.632181,-6.1441436,2.3015707,2.3938494,-0.8523358,-8.714894,-1.3455414
0.32269382,4.6250377,-6.2496047,2.3548338,2.552574,-0.91458505,-8.676587,-1.6567876
0.32490078,4.617864,-6.2496047,2.3548338,2.552574,-0.91458505,-8.676587,-1.6567876
0.32723722,4.6105514,-6.3401523,2.4134233,2.69745,-0.79487497,-8.671799,-2.087744
0.3295539,4.6032205,-6.3401523,2.4134233,2.69745,-0.79487497,-8.671799,-2.087744
0.3319865,4.595771,-6.4200473,2.4773393,2.830608,-0.9624691,-8.619126,-2.5091233
0.33439797,4.5883017,-6.4200473,2.4773393,2.830608,-0.9624691,-8.619126,-2.5091233
0.33691487,4.580705,-6.49142,2.548712,2.9488523,-1.3072342,-8.7053175,-2.920926
0.33940676,4.573095,-6.49142,2.548712,2.9488523,-1.3072342,-8.7053175,-2.920926
0.341971,4.5653605,-6.5542707,2.617954,3.0468566,-1.3551182,-8.734048,-3.0789435
0.34450358,4.557627,-6.5542707,2.617954,3.0468566,-1.3551182,-8.734048,-3.0789435
0.34709698,4.549778,-6.611795,2.6808047,3.1267514,-1.5705963,-8.7292595,-3.4284968
0.34965762,4.5419297,-6.611795,2.6808047,3.1267514,-1.5705963,-8.7292595,-3.4284968
0.3522576,4.5339785,-6.6629276,2.7372637,3.1938632,-1.7717092,-8.791509,-3.5434184
0.3548288,4.526011,-6.6629276,2.7372637,3.1938632,-1.7717092,-8.791509,-3.5434184
0.35741678,4.517964,-6.704473,2.7852006,3.2471263,-1.8770541,-8.930372,-3.6152446
0.35741678,4.517964,-6.704473,2.7852006,3.2471263,-1.8770541,-8.930372,-3.6152446
0.36004317,4.5096827,-6.704473,2.7852006,3.2471263,-1.8770541,-8.930372,-3.6152446
0.36507016,4.4935713,-6.7364306,2.8256807,3.2854757,-1.9393034,-9.184157,-3.6631286
0.36756814,4.4854326,-6.7556057,2.8576386,3.3131726,-2.1452048,-9.5385,-3.7972038
0.37005118,4.4772205,-6.7556057,2.8576386,3.3131726,-2.1452048,-9.5385,-3.7972038
0.37251094,4.468979,-6.7598667,2.878944,3.3270211,-2.2888567,-9.816227,-3.8738184
0.3749372,4.460721,-6.7598667,2.878944,3.3270211,-2.2888567,-9.816227,-3.8738184
0.37732685,4.4524584,-6.748149,2.887466,3.3280864,-2.3798366,-10.0508585,-3.8881836
0.37968215,4.4441814,-6.748149,2.887466,3.3280864,-2.3798366,-10.0508585,-3.8881836
0.38199657,4.435917,-6.721517,2.8842702,3.318499,-2.456451,-10.299856,-4.0318356
0.38427857,4.427631,-6.721517,2.8842702,3.318499,-2.456451,-10.299856,-4.0318356
0.38651568,4.4193773,-6.6789064,2.8714871,3.3003895,-2.5091233,-10.304645,-4.1036615
0.38871372,4.411128,-6.6789064,2.8714871,3.3003895,-2.5091233,-10.304645,-4.1036615
0.3908632,4.4029164,-6.6256433,2.851247,3.2769537,-2.542642,-10.510546,-4.132392
0.39297432,4.3947096,-6.6256433,2.851247,3.2769537,-2.542642,-10.510546,-4.132392
0.39504611,4.3865376,-6.562793,2.8278112,3.2481916,-2.920926,-10.5440645,-4.280833
0.39707923,4.378371,-6.562793,2.8278112,3.2481916,-2.920926,-10.5440645,-4.280833
0.3990467,4.370298,-6.488224,2.797984,3.2130377,-2.695871,-10.960655,-4.19943
0.40098453,4.3622084,-6.488224,2.797984,3.2130377,-2.695871,-10.960655,-4.19943
0.40287137,4.3542075,-6.4008727,2.76283,3.1757536,-3.040636,-10.682928,-4.285621
0.4047261,4.346199,-6.4008727,2.76283,3.1757536,-3.040636,-10.682928,-4.285621
0.40653378,4.3382835,-6.3007374,2.7244806,3.1363387,-3.0454245,-10.46745,-4.486734
0.4083093,4.3303604,-6.3007374,2.7244806,3.1363387,-3.0454245,-10.46745,-4.486734
0.41002822,4.3225727,-6.1931458,2.6765437,3.0915978,-3.265691,-10.582372,-4.4196963
0.41171733,4.3147798,-6.1931458,2.6765437,3.0915978,-3.265691,-10.582372,-4.4196963
0.413359,4.307146,-6.080228,2.6211498,3.0457914,-3.3135753,-10.94629,-4.31914
0.41497487,4.299507,-6.080228,2.6211498,3.0457914,-3.3135753,-10.94629,-4.31914
0.41655993,4.292042,-5.954527,2.5582993,2.9989197,-3.3327289,-11.468226,-4.146757
0.41812158,4.2845683,-5.954527,2.5582993,2.9989197,-3.3327289,-11.468226,-4.146757
0.41965267,4.2772794,-5.8085856,2.4965138,2.9488523,-3.763685,-11.918336,-4.1706996
0.42116138,4.2699814,-5.8085856,2.4965138,2.9488523,-3.763685,-11.918336,-4.1706996
0.4226432,4.2628827,-5.6434693,2.4262066,2.9019806,-4.2042184,-12.220005,-4.3478703
0.42410386,4.255775,-5.6434693,2.4262066,2.9019806,-4.2042184,-12.220005,-4.3478703
0.4255373,4.248888,-5.457048,2.3388548,2.8540437,-4.2664676,-12.469003,-4.462792
0.42695025,4.2419925,-5.457048,2.3388548,2.8540437,-4.2664676,-12.469003,-4.462792
0.42695025,4.2419925,-5.457048,2.3388548,2.8540437,-4.2664676,-12.469003,-4.462792
0.4297086,4.228667,-5.2503867,2.2365894,2.8018458,-4.2042184,-12.650962,-4.5872903
0.4297086,4.228667,-5.2503867,2.2365894,2.8018458,-4.2042184,-12.650962,-4.5872903
0.4323805,4.21589,-5.024551,2.1247365,2.743256,-4.1515455,-12.828133,-4.6830587
0.43368202,4.2098136,-4.77954,2.0075576,2.678275,-4.0557775,-12.808979,-4.6926355
0.43496966,4.203717,-4.77954,2.0075576,2.678275,-4.0557775,-12.808979,-4.6926355
0.43623346,4.197939,-4.5196157,1.8861175,2.6037066,-4.0222588,-12.717999,-4.7165775
0.43748474,4.192141,-4.5196157,1.8861175,2.6037066,-4.0222588,-12.717999,-4.7165775
0.43870857,4.1866827,-4.2469077,1.7625468,2.5227466,-3.9791632,-12.588713,-4.7644615
0.43991858,4.181218,-4.2469077,1.7625468,2.5227466,-3.9791632,-12.588713,-4.7644615
0.44110373,4.176102,-3.9635475,1.6368455,2.4353948,-3.916914,-12.392388,-4.7070007
0.4422766,4.1709795,-3.9635475,1.6368455,2.4353948,-3.916914,-12.392388,-4.7070007
0.4434212,4.166215,-3.6748607,1.510079,2.339521,-3.845088,-12.196063,-4.6255975
0.44455507,4.1614447,-3.6748607,1.510079,2.339521,-3.845088,-12.196063,-4.6255975
0.44565877,4.15704,-3.3808477,1.3833126,2.2361903,-3.7684734,-12.08593,-4.4819455
0.44675422,4.1526265,-3.3808477,1.3833126,2.2361903,-3.7684734,-12.08593,-4.4819455
0.44781926,4.148594,-3.083639,1.2565461,2.1285987,-3.7732618,-12.047623,-4.309563
0.4488773,4.1445518,-3.083639,1.2565461,2.1285987,-3.7732618,-12.047623,-4.309563
0.44990405,4.140893,-2.7832344,1.1276491,2.01355,-3.845088,-12.124237,-4.1611223
0.45092708,4.1372194,-2.7832344,1.1276491,2.01355,-3.845088,-12.124237,-4.1611223
0.45191833,4.1339383,-2.4785688,0.99449104,1.8899794,-3.98874,-12.191275,-3.9695864
0.45290384,4.1306534,-2.4785688,0.99449104,1.8899794,-3.98874,-12.191275,-3.9695864
0.45386106,4.1277685,-2.1664462,0.8538762,1.7600172,-4.156334,-13.575124,-3.5051112
0.45480978,4.124892,-2.1664462,0.8538762,1.7600172,-4.156334,-13.575124,-3.5051112
0.45573056,4.122439,-1.8330185,0.70686966,1.6279243,-4.7070007,-11.511322,-4.510676
0.45665318,4.1199684,-1.8330185,0.70686966,1.6279243,-4.7070007,-11.511322,-4.510676
0.45752433,4.117964,-1.4857423,0.5342968,1.4851788,-2.753332,-13.986926,-3.122039
0.45839745,4.1159463,-1.4857423,0.5342968,1.4851788,-2.753332,-13.986926,-3.122039
0.4592801,4.114389,-1.1427271,0.3606587,1.3392377,-5.4061074,-15.1696615,-2.9113493
0.46016106,4.11283,-1.1427271,0.3606587,1.3392377,-5.4061074,-15.1696615,-2.9113493
0.46101242,4.111758,-0.7592319,0.19767325,1.2050143,-4.912902,-14.322115,-3.4955344
0.46186283,4.1106853,-0.7592319,0.19767325,1.2050143,-4.912902,-14.322115,-3.4955344
0.46269473,4.110161,-0.340583,-0.014314385,1.0462899,-4.6351743,-14.805743,-3.5673606
0.46352807,4.109634,-0.340583,-0.014314385,1.0462899,-4.6351743,-14.805743,-3.5673606
0.46435168,4.1096764,0.09297965,-0.22736728,0.8886308,-4.912902,-13.728353,-4.1180267
0.46517414,4.109718,0.09297965,-0.22736728,0.8886308,-4.912902,-13.728353,-4.1180267
0.46597803,4.1103253,0.5233465,-0.44681177,0.7288411,-4.4436383,-12.943054,-4.4196963
0.4667824,4.110934,0.5233465,-0.44681177,0.7288411,-4.4436383,-12.943054,-4.4196963
0.46755698,4.1120815,0.9292123,-0.6630604,0.56052935,-3.7780502,-12.310986,-4.3622355
0.46833,4.113229,0.9292123,-0.6630604,0.56052935,-3.7780502,-12.310986,-4.3622355
0.4690654,4.114883,1.3084464,-0.8558733,0.390087,-3.2225955,-12.277467,-4.1276035
0.4697994,4.116538,1.3084464,-0.8558733,0.390087,-3.2225955,-12.277467,-4.1276035
0.47047564,4.118675,1.669571,-1.0241851,0.21112259,-3.0310593,-12.287044,-4.1036615
0.47114953,4.120814,1.669571,-1.0241851,0.21112259,-3.0310593,-12.287044,-4.1036615
0.4717602,4.1234264,2.0200431,-1.1701263,0.032158162,-3.6822822,-12.081141,-4.367024
0.47236496,4.12603,2.0200431,-1.1701263,0.032158162,-3.6822822,-12.081141,-4.367024
0.47290084,4.1290917,2.358797,-1.3075454,-0.145741,-4.175488,-11.908759,-4.5537715
0.4734321,4.1321545,2.358797,-1.3075454,-0.145741,-4.175488,-11.908759,-4.5537715
0.47390223,4.1356583,2.6858332,-1.4492257,-0.31618333,-4.6351743,-11.956643,-4.6591167
0.4743664,4.1391635,2.6858332,-1.4492257,-0.31618333,-4.6351743,-11.956643,-4.6591167
0.47476497,4.143091,3.0022168,-1.596232,-0.4727772,-4.477157,-12.157756,-4.76925
0.4751554,4.1470165,3.0022168,-1.596232,-0.4727772,-4.477157,-12.157756,-4.76925
0.4754979,4.1513996,3.3090131,-1.7421733,-0.6133921,-4.074931,-12.349293,-4.548983
0.4758241,4.155694,3.3090131,-1.7421733,-0.6133921,-4.074931,-12.349293,-4.548983
0.47610432,4.1604195,3.606222,-1.8774619,-0.74655014,-3.892972,-12.564771,-4.3143516
0.47637403,4.165151,3.606222,-1.8774619,-0.74655014,-3.892972,-12.564771,-4.3143516
0.47659022,4.1702623,3.897039,-2.003163,-0.8765124,-4.185065,-12.607866,-4.390966
0.47679394,4.175379,3.897039,-2.003163,-0.8765124,-4.185065,-12.607866,-4.390966
0.47694305,4.1808686,4.1803994,-2.123538,-1.0011483,-4.5394063,-12.5025215,-4.5202527
0.47707742,4.186359,4.1803994,-2.123538,-1.0011483,-4.5394063,-12.5025215,-4.5202527
0.47715524,4.1922054,4.4520416,-2.2417824,-1.1183275,-4.793192,-12.315774,-4.7022123
0.47721595,4.198052,4.4520416,-2.2417824,-1.1183275,-4.793192,-12.315774,-4.7022123
0.4772241,4.2042303,4.7045093,-2.361092,-1.2248539,-4.793192,-12.066776,-4.711789
0.477213,4.2104087,4.7045093,-2.361092,-1.2248539,-4.793192,-12.066776,-4.711789
0.4771453,4.216894,4.939933,-2.4750752,-1.3239235,-4.630386,-11.765107,-4.673482
0.4770564,4.223377,4.939933,-2.4750752,-1.3239235,-4.630386,-11.765107,-4.673482
0.47690475,4.2301435,5.1551166,-2.579471,-1.4229931,-4.5058875,-11.511322,-4.6016555
0.47672972,4.236906,5.1551166,-2.579471,-1.4229931,-4.5058875,-11.511322,-4.6016555
0.47648367,4.243931,5.351125,-2.6742797,-1.5199322,-4.429273,-11.180922,-4.5777135
0.47621256,4.2509427,5.351125,-2.6742797,-1.5199322,-4.429273,-11.180922,-4.5777135
0.4758702,4.2581825,5.5258284,-2.759501,-1.6168712,-4.55856,-10.951078,-4.5202527
0.47549978,4.265422,5.5258284,-2.759501,-1.6168712,-4.55856,-10.951078,-4.5202527
0.47505635,4.272877,5.6792264,-2.840461,-1.7148756,-4.841076,-10.730812,-4.462792
0.4745823,4.2803216,5.6792264,-2.840461,-1.7148756,-4.841076,-10.730812,-4.462792
0.47403184,4.2880344,5.814515,-2.9192905,-1.8118147,-4.88896,-10.55843,-4.261679
0.47345662,4.2956204,5.814515,-2.9192905,-1.8118147,-4.88896,-10.55843,-4.261679
0.4728013,4.3034062,5.9327593,-2.9959896,-1.9034274,-4.6926355,-10.496181,-4.060566
0.4728013,4.3034062,5.9327593,-2.9959896,-1.9034274,-4.6926355,-10.496181,-4.060566
0.4728013,4.3034062,5.9327593,-2.9959896,-1.9034274,-4.6926355,-10.496181,-4.060566
0.4728013,4.3034062,6.0392857,-3.0684276,-1.990779,-4.3957543,-10.505757,-3.98874
0.46959096,4.3353605,6.1319637,-3.1323435,-2.0781307,-4.2425256,-10.457873,-3.9504328
0.46864635,4.3434806,6.1319637,-3.1323435,-2.0781307,-4.2425256,-10.457873,-3.9504328
0.46864635,4.3434806,6.1319637,-3.1323435,-2.0781307,-4.2425256,-10.457873,-3.9504328
0.46759257,4.3518744,6.212924,-3.186672,-2.1622865,-4.1132383,-10.453085,-3.7972038
0.46649063,4.3603544,6.212924,-3.186672,-2.1622865,-4.1132383,-10.453085,-3.7972038
0.46428338,4.375938,6.285362,-3.2282174,-2.244312,-4.0174704,-10.43872,-3.6487634
0.46301457,4.384204,6.349278,-3.25911,-2.3220763,-3.8833952,-10.43872,-3.514688
0.46171004,4.392473,6.349278,-3.25911,-2.3220763,-3.8833952,-10.43872,-3.514688
0.46171004,4.392473,6.349278,-3.25911,-2.3220763,-3.8833952,-10.43872,-3.514688
0.45888776,4.409113,6.405737,-3.2782848,-2.393449,-3.7588966,-10.462662,-3.2992098
0.45736828,4.41749,6.4558043,-3.2846763,-2.4573648,-3.6631286,-10.46745,-3.1028855
0.4558156,4.4258447,6.4558043,-3.2846763,-2.4573648,-3.6631286,-10.46745,-3.1028855
0.4541772,4.434248,6.4994802,-3.2814806,-2.513824,-3.6391866,-10.491392,-2.8874073
0.4524917,4.4426956,6.4994802,-3.2814806,-2.513824,-3.6391866,-10.491392,-2.8874073
0.45074892,4.4510746,6.5378294,-3.2697625,-2.5628262,-3.572149,-10.577583,-2.6384103
0.4489651,4.4594636,6.5378294,-3.2697625,-2.5628262,-3.572149,-10.577583,-2.6384103
0.44710642,4.4678903,6.571918,-3.2505877,-2.6043713,-3.490746,-10.529699,-2.3750482
0.4452154,4.476285,6.571918,-3.2505877,-2.6043713,-3.490746,-10.529699,-2.3750482
0.44325188,4.484699,6.603876,-3.2250214,-2.6395252,-3.1842883,-10.414778,-2.183512
0.4412612,4.4930634,6.603876,-3.2250214,-2.6395252,-3.1842883,-10.414778,-2.183512
0.43920264,4.5014296,6.6262465,-3.1941288,-2.6682873,-2.719813,-10.213664,-2.030283
0.43710175,4.509814,6.6262465,-3.1941288,-2.6682873,-2.719813,-10.213664,-2.030283
0.4349346,4.518179,6.6358337,-3.154714,-2.6938536,-2.2457612,-9.883265,-1.9153614
0.4349346,4.518179,6.6358337,-3.154714,-2.6938536,-2.2457612,-9.883265,-1.9153614
0.43246758,4.527533,6.636899,-3.102516,-2.71942,-1.8195933,-9.624691,-1.6950948
0.42821673,4.543009,6.636899,-3.102516,-2.71942,-1.8195933,-9.624691,-1.6950948
0.4258785,4.5511904,6.625181,-3.0386002,-2.7449863,-1.412579,-9.3182335,-1.388637
0.4235067,4.5593657,6.625181,-3.0386002,-2.7449863,-1.412579,-9.3182335,-1.388637
0.42107922,4.5674605,6.6006804,-2.9661622,-2.7748137,-1.0342951,-8.992621,-0.93852705
0.41861358,4.575566,6.6006804,-2.9661622,-2.7748137,-1.0342951,-8.992621,-0.93852705
0.41608414,4.5836,6.5697875,-2.884137,-2.8078368,-0.63206923,-8.686164,-0.51714754
0.4135275,4.591613,6.5697875,-2.884137,-2.8078368,-0.63206923,-8.686164,-0.51714754
0.4109023,4.5995274,6.528242,-2.7893283,-2.8419254,-0.19153613,-8.240842,-0.31603462
0.40837395,4.6070585,6.528242,-2.7893283,-2.8419254,-0.19153613,-8.240842,-0.31603462
0.40565297,4.6148376,6.4696527,-2.6806712,-2.877079,0.37828386,-7.61835,-0.15801731
0.4027839,4.622945,6.4696527,-2.6806712,-2.877079,0.37828386,-7.61835,-0.15801731
0.3999693,4.6305494,6.3897576,-2.5602965,-2.9122329,0.8571242,-7.0006456,-0.14844051
0.397144,4.638104,6.3897576,-2.5602965,-2.9122329,0.8571242,-7.0006456,-0.14844051
0.3942479,4.645506,6.282166,-2.4282036,-2.9473865,0.9864111,-6.3446345,0.04309563
0.39131686,4.6529255,6.282166,-2.4282036,-2.9473865,0.9864111,-6.3446345,0.04309563
0.388342,4.6601057,6.147943,-2.2865236,-2.9836056,1.1252748,-5.765238,0.2825158
0.38534886,4.6672673,6.147943,-2.2865236,-2.9836056,1.1252748,-5.765238,0.2825158
0.3823133,4.6741915,5.9828267,-2.1416476,-3.013433,1.2545617,-5.233725,0.58897364
0.3792581,4.681105,5.9828267,-2.1416476,-3.013433,1.2545617,-5.233725,0.58897364
0.37616986,4.6877623,5.7889485,-1.9925104,-3.0315423,1.6424223,-4.831499,0.8858546
0.37307328,4.69439,5.7889485,-1.9925104,-3.0315423,1.6424223,-4.831499,0.8858546
0.36994523,4.700749,5.5695043,-1.8369819,-3.042195,2.3558946,-4.5154643,1.2066777
0.36681694,4.7070684,5.5695043,-1.8369819,-3.042195,2.3558946,-4.5154643,1.2066777
0.36367786,4.713068,5.3244934,-1.6708006,-3.0443256,3.7493198,-4.4101195,1.5897499
0.36053115,4.7190485,5.3244934,-1.6708006,-3.0443256,3.7493198,-4.4101195,1.5897499
0.35738012,4.7246943,5.061373,-1.4854445,-3.0432603,4.012682,-4.390966,2.0159178
0.3542204,4.7303276,5.061373,-1.4854445,-3.0432603,4.012682,-4.390966,2.0159178
0.35106683,4.735602,4.783339,-1.2809138,-3.037934,3.8402996,-4.367024,2.3511062
0.34790647,4.740865,4.783339,-1.2809138,-3.037934,3.8402996,-4.367024,2.3511062
0.34476626,4.745766,4.4989133,-1.072122,-3.0240855,3.490746,-4.4196963,2.7581203
0.3416208,4.750658,4.4989133,-1.072122,-3.0240855,3.490746,-4.4196963,2.7581203
0.33851367,4.755187,4.208096,-0.870787,-2.9953234,2.9783869,-4.4340615,3.040636
0.335403,4.7597075,4.208096,-0.870787,-2.9953234,2.9783869,-4.4340615,3.040636
0.33235687,4.7638702,3.9162138,-0.67797416,-2.9441907,2.4516625,-4.3526587,3.289633
0.32930818,4.7680264,3.9162138,-0.67797416,-2.9441907,2.4516625,-4.3526587,3.289633
0.3263459,4.771832,3.6264617,-0.50114024,-2.8706875,2.1691468,-4.1132383,3.3662477
0.3233851,4.775629,3.6264617,-0.50114024,-2.8706875,2.1691468,-4.1132383,3.3662477
0.32052988,4.7790794,3.3313837,-0.34241584,-2.7737484,2.1643584,-3.9456444,3.4859576
0.31766823,4.7825336,3.3313837,-0.34241584,-2.7737484,2.1643584,-3.9456444,3.4859576
0.3149566,4.7856255,3.0245874,-0.19327882,-2.651243,1.508347,-2.7341783,2.9496565
0.3122449,4.788714,3.0245874,-0.19327882,-2.651243,1.508347,-2.7341783,2.9496565
0.3096679,4.7914305,2.6975513,-0.059055492,-2.5127587,2.5378537,-2.6431987,3.1316159
0.30709356,4.7941427,2.6975513,-0.059055492,-2.5127587,2.5378537,-2.6431987,3.1316159
0.30468506,4.796471,2.350275,0.06664571,-2.361491,2.7389667,-3.3997664,3.8402996
0.3022721,4.798803,2.350275,0.06664571,-2.361491,2.7389667,-3.3997664,3.8402996
0.30005446,4.800743,1.9976724,0.21152169,-2.1899836,1.8483237,-3.4811692,3.6966474
0.29793948,4.802594,1.9976724,0.21152169,-2.1899836,1.8483237,-3.4811692,3.6966474
0.29591757,4.804152,1.6482657,0.34041867,-2.0088885,1.6807296,-2.0685902,3.1651347
0.29380143,4.8057837,1.6482657,0.34041867,-2.0088885,1.6807296,-2.0685902,3.1651347
0.29198694,4.806939,1.2807496,0.45440197,-1.8192714,1.8722657,-1.0390835,2.96881
0.2901821,4.80809,1.2807496,0.45440197,-1.8192714,1.8722657,-1.0390835,2.96881
0.2885835,4.8088107,0.8727532,0.5641242,-1.615806,2.1452048,-0.60812724,3.2130187
0.2869821,4.8095336,0.8727532,0.5641242,-1.615806,2.1452048,-0.60812724,3.2130187
0.28561008,4.809788,0.43173376,0.6717159,-1.4006225,2.4372973,-0.5410896,3.490746
0.28423697,4.810044,0.43173376,0.6717159,-1.4006225,2.4372973,-0.5410896,3.490746
0.2830941,4.8098135,-0.03059103,0.77930766,-1.1833086,2.4516625,-0.50757074,3.7349546
0.2830941,4.8098135,-0.03059103,0.77930766,-1.1833086,2.4516625,-0.50757074,3.7349546
0.28195003,4.8095846,-0.03059103,0.77930766,-1.1833086,2.4516625,-0.50757074,3.7349546
0.28011343,4.808136,-0.5046337,0.88370353,-0.9670599,2.255338,-0.7230489,3.845088
0.2794227,4.80692,-0.98293746,0.98383844,-0.7518765,2.0638018,-0.7757214,3.739743
0.27872804,4.8056993,-0.98293746,0.98383844,-0.7518765,2.0638018,-0.7757214,3.739743
0.27825582,4.803982,-1.4580454,1.0786469,-0.5334973,2.207454,-0.6751649,3.5913026
0.27778235,4.8022666,-1.4580454,1.0786469,-0.5334973,2.207454,-0.6751649,3.5913026
0.27752003,4.800057,-1.9288923,1.1691945,-0.31937912,2.4899697,-0.8858546,3.3183637
0.27725518,4.7978473,-1.9288923,1.1691945,-0.31937912,2.4899697,-0.8858546,3.3183637
0.27719328,4.79515,-2.395478,1.2608072,-0.11271781,2.6527755,-1.4317327,3.1747115
0.27712816,4.7924523,-2.395478,1.2608072,-0.11271781,2.6527755,-1.4317327,3.1747115
0.27726287,4.7892747,-2.8514113,1.3598768,0.09181297,2.6623523,-2.0973208,2.9783869
0.27739343,4.786097,-2.8514113,1.3598768,0.09181297,2.6623523,-2.0973208,2.9783869
0.27772126,4.782434,-3.2903004,1.4621421,0.2920827,2.384625,-2.8778305,2.743755
0.27804026,4.7788143,-3.2903004,1.4621421,0.2920827,2.384625,-2.8778305,2.743755
0.27852854,4.774899,-3.7078838,1.5665381,0.4891566,1.982399,-3.5769374,2.3319526
0.27905208,4.7706513,-3.7078838,1.5665381,0.4891566,1.982399,-3.5769374,2.3319526
0.27973896,4.76614,-4.1009665,1.6688035,0.6851653,1.5131354,-4.213795,1.8387469
0.28041857,4.761631,-4.1009665,1.6688035,0.6851653,1.5131354,-4.213795,1.8387469
0.2812773,4.756715,-4.472744,1.7625468,0.87797815,1.1348516,-4.745308,1.4508862
0.2821282,4.7517962,-4.472744,1.7625468,0.87797815,1.1348516,-4.745308,1.4508862
0.28315637,4.7464943,-4.824281,1.8488332,1.070791,0.7374141,-5.281609,1.1252748
0.2841759,4.74119,-4.824281,1.8488332,1.070791,0.7374141,-5.281609,1.1252748
0.2853617,4.735508,-5.1577086,1.9297932,1.2625386,0.320823,-5.7508726,0.61291564
0.28653798,4.729823,-5.1577086,1.9297932,1.2625386,0.320823,-5.7508726,0.61291564
0.28788078,4.723761,-5.4698315,2.0043619,1.453221,-0.06703765,-6.105214,0.038307227
0.2892117,4.7176976,-5.4698315,2.0043619,1.453221,-0.06703765,-6.105214,0.038307227
0.29074842,4.711243,-5.762779,2.0736039,1.6407075,-0.4357447,-6.4020953,-0.8858546
0.2922692,4.7047853,-5.762779,2.0736039,1.6407075,-0.4357447,-6.4020953,-0.8858546
0.2939996,4.697995,-6.041878,2.134324,1.8249983,-0.6895301,-6.6079965,-1.7046716
0.2957166,4.691185,-6.041878,2.134324,1.8249983,-0.6895301,-6.6079965,-1.7046716
0.29760653,4.6840887,-6.3081946,2.1843915,1.9986364,-0.8858546,-6.8905125,-2.3463178
0.29947326,4.677006,-6.3081946,2.1843915,1.9986364,-0.8858546,-6.8905125,-2.3463178
0.30150303,4.6696196,-6.5617275,2.2270021,2.1637523,-0.9959879,-7.091625,-2.9640217
0.30352026,4.6622014,-6.5617275,2.2270021,2.1637523,-0.9959879,-7.091625,-2.9640217
0.3056705,4.654541,-6.7982163,2.2653515,2.316085,-1.091756,-7.273585,-3.5290532
0.30780098,4.6468706,-6.7982163,2.2653515,2.316085,-1.091756,-7.273585,-3.5290532
0.31005472,4.6389527,-7.0176606,2.302636,2.4588306,-1.1300632,-7.431602,-3.9264908
0.31236076,4.6307616,-7.0176606,2.302636,2.4588306,-1.1300632,-7.431602,-3.9264908
0.31236076,4.6307616,-7.0176606,2.302636,2.4588306,-1.1300632,-7.431602,-3.9264908
0.31695542,4.6146717,-7.2158,2.33992,2.5887928,-1.2354081,-7.551312,-4.3047748
0.31936175,4.606329,-7.391568,2.3772044,2.7070372,-1.3263878,-7.6470804,-4.711789
0.3217662,4.5978975,-7.391568,2.3772044,2.7070372,-1.3263878,-7.6470804,-4.711789
0.3217662,4.5978975,-7.5449667,2.4144886,2.8135636,-1.4077905,-7.714118,-4.9176903
0.32431522,4.589057,-7.5449667,2.4144886,2.8135636,-1.4077905,-7.714118,-4.9176903
0.3292029,4.5719852,-7.6738634,2.456034,2.911568,-1.5514427,-7.809886,-5.171476
0.33168238,4.563262,-7.6738634,2.456034,2.911568,-1.5514427,-7.809886,-5.171476
0.3342289,4.554369,-7.78039,2.500775,3.0010502,-1.7142484,-7.9152308,-5.4300494
0.3367527,4.545443,-7.78039,2.500775,3.0010502,-1.7142484,-7.9152308,-5.4300494
0.3393248,4.536397,-7.8624153,2.545516,3.0830755,-1.8579005,-8.078036,-5.626374
0.34186774,4.5273347,-7.8624153,2.545516,3.0830755,-1.8579005,-8.078036,-5.626374
0.34445295,4.5181723,-7.9242005,2.5881267,3.157644,-2.15957,-8.312668,-5.913678
0.34700775,4.5089927,-7.9242005,2.5881267,3.157644,-2.15957,-8.312668,-5.913678
0.34960887,4.4997144,-7.966811,2.6264763,3.2279515,-2.7102363,-8.643068,-6.1243677
0.35217583,4.490427,-7.966811,2.6264763,3.2279515,-2.7102363,-8.643068,-6.1243677
0.35477173,4.481105,-7.9945083,2.6563036,3.298259,-3.1316159,-9.035717,-6.181829
0.3573376,4.4717555,-7.9945083,2.6563036,3.298259,-3.1316159,-9.035717,-6.181829
0.35993344,4.4623513,-8.008356,2.6754785,3.3685665,-3.1842883,-9.490616,-6.3063273
0.36249802,4.4529185,-8.008356,2.6754785,3.3685665,-3.1842883,-9.490616,-6.3063273
0.36509755,4.4434633,-8.009421,2.6871963,3.4420698,-3.490746,-9.89763,-6.4308257
0.36765933,4.433998,-8.009421,2.6871963,3.4420698,-3.490746,-9.89763,-6.4308257
0.37026596,4.424505,-7.997704,2.6925225,3.5187688,-3.8355112,-10.280702,-6.5026517
0.3728367,4.4149923,-7.997704,2.6925225,3.5187688,-3.8355112,-10.280702,-6.5026517
0.37544265,4.4054756,-7.9763985,2.6871963,3.596533,-4.084508,-11.123461,-6.3925185
0.37801355,4.39593,-7.9763985,2.6871963,3.596533,-4.084508,-11.123461,-6.3925185
0.3806392,4.386418,-7.9359183,2.670152,3.6742973,-4.975151,-12.018892,-6.3685765
0.383237,4.376847,-7.9359183,2.670152,3.6742973,-4.975151,-12.018892,-6.3685765
0.383237,4.376847,-7.9359183,2.670152,3.6742973,-4.975151,-12.018892,-6.3685765
0.383237,4.376847,-7.9359183,2.670152,3.6742973,-4.975151,-12.018892,-6.3685765
0.383237,4.376847,-7.9359183,2.670152,3.6742973,-4.975151,-12.018892,-6.3685765
0.383237,4.376847,-7.7494974,2.5806699,3.8244996,-5.195418,-13.321339,-6.0956373
0.3949934,4.335116,-7.603556,2.528472,3.9043944,-6.009446,-13.22557,-6.363788
0.39661413,4.3294883,-7.603556,2.528472,3.9043944,-6.009446,-13.22557,-6.363788
0.39927387,4.320122,-7.434179,2.460295,3.9821587,-6.277597,-13.034034,-6.4882865
0.40198514,4.311043,-7.434179,2.460295,3.9821587,-6.277597,-13.034034,-6.4882865
0.40731132,4.293293,-7.244562,2.3665516,4.0524664,-6.172252,-12.789825,-6.6079965
0.41002655,4.2842875,-7.244562,2.3665516,4.0524664,-6.172252,-12.789825,-6.6079965
0.4126994,4.2755823,-7.036835,2.247242,4.106795,-5.645528,-13.081918,-6.421249
0.41534993,4.266785,-7.036835,2.247242,4.106795,-5.645528,-13.081918,-6.421249
0.41802615,4.258376,-6.809934,2.126867,4.1451445,-5.434838,-13.460202,-6.081272
0.4205802,4.2502685,-6.809934,2.126867,4.1451445,-5.434838,-13.460202,-6.081272
0.42328238,4.2421083,-6.5574665,2.0096881,4.167515,-4.7165775,-13.512875,-5.875371
0.42605677,4.23363,-6.5574665,2.0096881,4.167515,-4.7165775,-13.512875,-5.875371
0.42875934,4.2257533,-6.281563,1.9042269,4.171776,-4.477157,-13.426683,-5.7365074
0.43137828,4.218032,-6.281563,1.9042269,4.171776,-4.477157,-13.426683,-5.7365074
0.43406093,4.210471,-5.9854193,1.811549,4.1611233,-4.644751,-13.321339,-5.7987566
0.43675143,4.202801,-5.9854193,1.811549,4.1611233,-4.644751,-13.321339,-5.7987566
0.43940368,4.195556,-5.6764927,1.7178056,4.1312957,-4.7884035,-13.120225,-5.9041014
0.44203067,4.1883,-5.6764927,1.7178056,4.1312957,-4.7884035,-13.120225,-5.9041014
0.44464606,4.1813946,-5.3547826,1.614475,4.0812283,-4.735731,-12.971785,-5.8562174
0.44724014,4.174471,-5.3547826,1.614475,4.0812283,-4.735731,-12.971785,-5.8562174
0.44980645,4.167908,-5.028812,1.5047528,4.0098557,-4.5441947,-12.837709,-5.827487
0.4523476,4.161341,-5.028812,1.5047528,4.0098557,-4.5441947,-12.837709,-5.827487
0.45485556,4.1551485,-4.69858,1.3939652,3.922504,-4.4005427,-12.62702,-5.693412
0.4573526,4.1489205,-4.69858,1.3939652,3.922504,-4.4005427,-12.62702,-5.693412
0.45978343,4.1431055,-4.367283,1.2863735,3.818108,-4.185065,-12.89517,-5.78918
0.46219993,4.1372695,-4.367283,1.2863735,3.818108,-4.185065,-12.89517,-5.78918
0.46459025,4.1318398,-4.0285287,1.1841081,3.6945374,-4.5872903,-15.217546,-4.697424
0.4669671,4.1263885,-4.0285287,1.1841081,3.6945374,-4.5872903,-15.217546,-4.697424
0.46941355,4.1211767,-3.655686,1.0797122,3.5571182,-7.053318,-9.040505,-7.3789296
0.47184846,4.115946,-3.655686,1.0797122,3.5571182,-7.053318,-9.040505,-7.3789296
0.47402632,4.1113305,-3.3222582,0.93377095,3.3824148,-0.1436521,-13.88637,-3.845088
0.4761923,4.1067023,-3.3222582,0.93377095,3.3824148,-0.1436521,-13.88637,-3.845088
0.47831684,4.1024837,-3.0080051,0.861333,3.2290168,-5.827487,-15.62456,-4.4580035
0.4804305,4.0982533,-3.0080051,0.861333,3.2290168,-5.827487,-15.62456,-4.4580035
0.4824421,4.094477,-2.633032,0.7707855,3.0639007,-5.779603,-14.168885,-5.4204726
0.48444456,4.0906916,-2.633032,0.7707855,3.0639007,-5.779603,-14.168885,-5.4204726
0.4863365,4.0874176,-2.2314274,0.623779,2.8561742,-4.735731,-14.5567465,-5.4204726
0.48821944,4.084139,-2.2314274,0.623779,2.8561742,-4.735731,-14.5567465,-5.4204726
0.49001032,4.081374,-1.8394101,0.4831641,2.6399255,-5.583278,-13.158532,-6.009446
0.49179584,4.078603,-1.8394101,0.4831641,2.6399255,-5.583278,-13.158532,-6.009446
0.49345025,4.0763254,-1.4655023,0.32870078,2.411959,-4.951209,-11.415554,-6.363788
0.4951011,4.074042,-1.4655023,0.32870078,2.411959,-4.951209,-11.415554,-6.363788
0.4966207,4.0722113,-1.1310092,0.16997637,2.1637523,-3.8977604,-10.481815,-6.167464
0.49813667,4.0703783,-1.1310092,0.16997637,2.1637523,-3.8977604,-10.481815,-6.167464
0.49951416,4.0689526,-0.8487141,0.040014103,1.904893,-2.930503,-10.022128,-5.861006
0.50088876,4.067526,-0.8487141,0.040014103,1.904893,-2.930503,-10.022128,-5.861006
0.50210434,4.0664635,-0.6058338,-0.054794434,1.6300548,-2.2505496,-9.873688,-5.592855
0.5032633,4.065448,-0.6058338,-0.054794434,1.6300548,-2.2505496,-9.873688,-5.592855
0.50427806,4.0647225,-0.38745463,-0.11657977,1.3434987,-2.0111294,-9.581595,-5.5018754
0.50533915,4.063963,-0.38745463,-0.11657977,1.3434987,-2.0111294,-9.581595,-5.5018754
0.5061402,4.0635424,-0.18931544,-0.15386403,1.0494857,-2.1452048,-9.351752,-5.592855
0.5069371,4.0631227,-0.18931544,-0.15386403,1.0494857,-2.1452048,-9.351752,-5.592855
0.5075122,4.062991,-0.009285741,-0.18369143,0.7469506,-2.27928,-8.99741,-5.583278
0.50809073,4.0628586,-0.009285741,-0.18369143,0.7469506,-2.27928,-8.99741,-5.583278
0.5084473,4.063011,0.15476498,-0.21032305,0.44867656,-2.5378537,-8.973468,-5.449203
0.50880444,4.0631638,0.15476498,-0.21032305,0.44867656,-2.5378537,-8.973468,-5.449203
0.50895596,4.063588,0.3070978,-0.23588939,0.16212043,-2.801216,-9.121908,-5.2720323
0.50895596,4.063588,0.3070978,-0.23588939,0.16212043,-2.801216,-9.121908,-5.2720323
0.5091077,4.0640144,0.3070978,-0.23588939,0.16212043,-2.801216,-9.121908,-5.2720323
0.5090451,4.065396,0.45303902,-0.26465154,-0.106326215,-3.0693667,-9.399636,-4.999093
0.5088559,4.066337,0.59258866,-0.29660946,-0.3492065,-3.4811692,-9.931149,-4.8219223
0.50866675,4.067273,0.59258866,-0.29660946,-0.3492065,-3.4811692,-9.931149,-4.8219223
0.5083436,4.068448,0.73426884,-0.33176318,-0.5633247,-3.8642416,-10.414778,-4.620809
0.5080191,4.0696235,0.73426884,-0.33176318,-0.5633247,-3.8642416,-10.414778,-4.620809
0.5075795,4.071029,0.8823406,-0.3733085,-0.7476154,-4.1659107,-10.79785,-4.6016555
0.50713843,4.0724344,0.8823406,-0.3733085,-0.7476154,-4.1659107,-10.79785,-4.6016555
0.5066075,4.0740647,1.0357387,-0.42337593,-0.89994824,-4.2281604,-11.147403,-4.525041
0.50607455,4.075695,1.0357387,-0.42337593,-0.89994824,-4.2281604,-11.147403,-4.525041
0.50547075,4.0775466,1.1955284,-0.47983494,-1.0224537,-4.0557775,-11.36767,-4.5633483
0.5048649,4.0793962,1.1955284,-0.47983494,-1.0224537,-4.0557775,-11.36767,-4.5633483
0.5042049,4.0814705,1.3606443,-0.5341634,-1.1193928,-3.845088,-11.530476,-4.55856
0.50353384,4.0835686,1.3606443,-0.5341634,-1.1193928,-3.845088,-11.530476,-4.55856
0.50353384,4.0835686,1.5321519,-0.58423084,-1.1950265,-3.8115692,-11.688493,-4.4196963
0.5021537,4.0881066,1.5321519,-0.58423084,-1.1950265,-3.8115692,-11.688493,-4.4196963
0.5014468,4.0905824,1.7089858,-0.6311025,-1.2514855,-3.9073372,-11.731588,-4.2999864
0.5007307,4.0930758,1.7089858,-0.6311025,-1.2514855,-3.9073372,-11.731588,-4.2999864
0.5000154,4.095785,1.8922113,-0.6758436,-1.2845087,-4.1180267,-11.611878,-4.19943
0.49929753,4.098488,1.8922113,-0.6758436,-1.2845087,-4.1180267,-11.611878,-4.19943
0.49860242,4.101409,2.0786326,-0.72697634,-1.3036835,-4.5202527,-11.60709,-3.940856
0.49790365,4.104325,2.0786326,-0.72697634,-1.3036835,-4.5202527,-11.60709,-3.940856
0.49723718,4.107466,2.2703803,-0.7930227,-1.3132708,-4.6782703,-11.640609,-3.7014358
0.49656537,4.110608,2.2703803,-0.7930227,-1.3132708,-4.6782703,-11.640609,-3.7014358
0.49656537,4.110608,2.4674542,-0.87291753,-1.3132708,-4.3957543,-11.621455,-3.4572272
0.49590522,4.1141214,2.4674542,-0.87291753,-1.3132708,-4.3957543,-11.621455,-3.4572272
0.4947008,4.1209526,2.6709197,-0.9581387,-1.3047488,-4.1371803,-11.563994,-3.2130187
0.49410483,4.124552,2.6709197,-0.9581387,-1.3047488,-4.1371803,-11.563994,-3.2130187
0.49356216,4.12838,2.8797114,-1.0401641,-1.2951614,-4.185065,-11.554418,-2.9879637
0.49301097,4.1322207,2.8797114,-1.0401641,-1.2951614,-4.185065,-11.554418,-2.9879637
0.49250615,4.1362963,3.0906339,-1.1200589,-1.2866392,-4.2760444,-11.626244,-3.0071173
0.49199355,4.140374,3.0906339,-1.1200589,-1.2866392,-4.2760444,-11.626244,-3.0071173
0.49152225,4.144697,3.2994256,-1.2010189,-1.281313,-4.209007,-11.583148,-2.8682537
0.4910441,4.1490097,3.2994256,-1.2010189,-1.281313,-4.209007,-11.583148,-2.8682537
0.49060202,4.1535654,3.5039563,-1.2830443,-1.2791824,-4.1276035,-11.520899,-2.8203697
0.49015138,4.1581182,3.5039563,-1.2830443,-1.2791824,-4.1276035,-11.520899,-2.8203697
0.48973495,4.1629095,3.7042263,-1.3672003,-1.2834435,-4.2042184,-11.506534,-2.753332
0.489309,4.167699,3.7042263,-1.3672003,-1.2834435,-4.2042184,-11.506534,-2.753332
0.48891205,4.172722,3.8991694,-1.4502909,-1.2930309,-4.31914,-11.401189,-2.7006595
0.4885051,4.177738,3.8991694,-1.4502909,-1.2930309,-4.31914,-11.401189,-2.7006595
0.4881231,4.18299,4.086656,-1.535512,-1.3111403,-4.6112323,-11.252748,-2.6527755
0.4877298,4.1882453,4.086656,-1.535512,-1.3111403,-4.6112323,-11.252748,-2.6527755
0.4873636,4.193726,4.266686,-1.6249943,-1.3335109,-5.0996494,-11.386824,-2.4660277
0.48698598,4.1991997,4.266686,-1.6249943,-1.3335109,-5.0996494,-11.386824,-2.4660277
0.4866161,4.204896,4.440324,-1.7251291,-1.358012,-4.7165775,-11.530476,-2.2840683
0.4862331,4.2105904,4.440324,-1.7251291,-1.358012,-4.7165775,-11.530476,-2.2840683
0.48585802,4.216502,4.6075706,-1.8284597,-1.3846436,-4.405331,-11.798626,-2.054225
0.4854686,4.222412,4.6075706,-1.8284597,-1.3846436,-4.405331,-11.798626,-2.054225
0.48507723,4.2285433,4.771621,-1.9275293,-1.4197973,-4.1946416,-12.138602,-1.8195933
0.48467138,4.2346597,4.771621,-1.9275293,-1.4197973,-4.1946416,-12.138602,-1.8195933
0.48425236,4.240995,4.928215,-2.0191422,-1.4634731,-4.132392,-12.41633,-1.6328455
0.4838178,4.247315,4.928215,-2.0191422,-1.4634731,-4.132392,-12.41633,-1.6328455
0.48336136,4.2538476,5.084809,-2.1054285,-1.5146059,-4.1515455,-12.564771,-1.4077905
0.48288742,4.260377,5.084809,-2.1054285,-1.5146059,-4.1515455,-12.564771,-1.4077905
0.4823839,4.267108,5.2403374,-2.184258,-1.5699996,-4.189853,-12.631808,-1.1204864
0.48186177,4.2738357,5.2403374,-2.184258,-1.5699996,-4.189853,-12.631808,-1.1204864
0.48129877,4.280763,5.395866,-2.2577612,-1.6296544,-4.1371803,-12.593501,-0.9672575
0.48071596,4.287687,5.395866,-2.2577612,-1.6296544,-4.1371803,-12.593501,-0.9672575
0.48008525,4.2948184,5.5535254,-2.329134,-1.6946355,-4.1276035,-12.497733,-0.7565677
0.4794348,4.3019314,5.5535254,-2.329134,-1.6946355,-4.1276035,-12.497733,-0.7565677
0.47872424,4.309253,5.7122498,-2.4005067,-1.7660083,-3.9552212,-12.445061,-0.62728083
0.47800943,4.3163943,5.7122498,-2.4005067,-1.7660083,-3.9552212,-12.445061,-0.62728083
0.4772121,4.3239164,5.8688436,-2.469749,-1.8405768,-3.7732618,-12.339716,-0.39743748
0.47637147,4.3316126,5.8688436,-2.469749,-1.8405768,-3.7732618,-12.339716,-0.39743748
0.47547868,4.3393154,6.024372,-2.5357955,-1.918341,-3.5194764,-12.320562,-0.1388637
0.47456685,4.3469653,6.024372,-2.5357955,-1.918341,-3.5194764,-12.320562,-0.1388637
0.47357017,4.3548603,6.1788354,-2.5965154,-2.002497,-3.4237084,-12.306197,0.25378537
0.47254464,4.36277,6.1788354,-2.5965154,-2.002497,-3.4237084,-12.306197,0.25378537
0.47143707,4.370834,6.330103,-2.6529744,-2.0887833,-3.3662477,-12.220005,0.44532153
0.47030288,4.378888,6.330103,-2.6529744,-2.0887833,-3.3662477,-12.220005,0.44532153
0.4690781,4.3871293,6.47924,-2.7030418,-2.1750698,-3.3518825,-12.071565,0.6751649
0.46782818,4.3953433,6.47924,-2.7030418,-2.1750698,-3.3518825,-12.071565,0.6751649
0.46648893,4.4037323,6.619855,-2.752044,-2.2581604,-3.3758245,-11.971008,0.93373865
0.46512127,4.4121103,6.619855,-2.752044,-2.2581604,-3.3758245,-11.971008,0.93373865
0.46365917,4.420647,6.7551436,-2.7999809,-2.344447,-3.3566709,-11.851298,1.1827357
0.46216786,4.4291716,6.7551436,-2.7999809,-2.344447,-3.3566709,-11.851298,1.1827357
0.4605766,4.4378424,6.887236,-2.8511136,-2.433929,-3.1268275,-11.774684,1.484405
0.4589534,4.4465084,6.887236,-2.8511136,-2.433929,-3.1268275,-11.774684,1.484405
0.45722347,4.4553256,7.0161333,-2.9033115,-2.5276723,-3.0071173,-11.654974,1.6567876
0.45546222,4.4641275,7.0161333,-2.9033115,-2.5276723,-3.0071173,-11.654974,1.6567876
0.4535897,4.4730787,7.138639,-2.9501832,-2.6214156,-2.9735985,-11.51611,1.7621324
0.4516889,4.4819965,7.138639,-2.9501832,-2.6214156,-2.9735985,-11.51611,1.7621324
0.44967353,4.491045,7.2494264,-2.9885328,-2.7140937,-2.896984,-11.046846,1.70946
0.44762552,4.5000763,7.2494264,-2.9885328,-2.7140937,-2.896984,-11.046846,1.70946
0.44762552,4.5000763,7.341039,-3.021556,-2.804641,-2.6288335,-10.548853,1.6903064
0.44326463,4.518314,7.341039,-3.021556,-2.804641,-2.6288335,-10.548853,1.6903064
0.44095007,4.527505,7.413477,-3.0481875,-2.8898623,-2.3463178,-10.0508585,1.5658079
0.44095007,4.527505,7.413477,-3.0481875,-2.8898623,-2.3463178,-10.0508585,1.5658079
0.44095007,4.527505,7.413477,-3.0481875,-2.8898623,-2.3463178,-10.0508585,1.5658079
0.44095007,4.527505,7.461414,-3.0631013,-2.9718876,-1.9201498,-9.423578,1.4173675
0.43245587,4.5591264,7.461414,-3.0631013,-2.9718876,-1.9201498,-9.423578,1.4173675
0.43058345,4.565675,7.4805884,-3.066297,-3.0475214,-1.3934253,-8.738836,1.3024458
0.4271609,4.5774684,7.4720664,-3.0545793,-3.1210246,-0.82360536,-8.001422,1.0534488
0.4255279,4.5828347,7.4720664,-3.0545793,-3.1210246,-0.82360536,-8.001422,1.0534488
0.41953614,4.601786,7.4347825,-3.0247517,-3.1945279,-0.18674773,-7.192182,0.80924016
0.41953614,4.601786,7.4347825,-3.0247517,-3.1945279,-0.18674773,-7.192182,0.80924016
0.41388005,4.6185517,7.3634095,-2.9746842,-3.2659006,0.5267244,-6.3781533,0.7422025
0.41079253,4.6273727,7.3634095,-2.9746842,-3.2659006,0.5267244,-6.3781533,0.7422025
0.40758532,4.6360283,7.255818,-2.901181,-3.3372734,0.641646,-5.267244,0.33518824
0.40758532,4.6360283,7.255818,-2.901181,-3.3372734,0.641646,-5.267244,0.33518824
0.40103546,4.6531596,7.1173334,-2.804242,-3.4118419,5.2385135,-4.4005427,0.7613561
0.39768103,4.6615553,7.1173334,-2.804242,-3.4118419,5.2385135,-4.4005427,0.7613561
0.39422336,4.669669,6.9362383,-2.651909,-3.492802,4.510676,-5.291186,1.1971009
0.39073887,4.677768,6.9362383,-2.651909,-3.492802,4.510676,-5.291186,1.1971009
0.38713065,4.6855707,6.7306423,-2.4420521,-3.5726967,4.357447,-3.3423057,0.39264908
0.38351288,4.6933274,6.7306423,-2.4420521,-3.5726967,4.357447,-3.3423057,0.39264908
0.3798001,4.7007318,6.495219,-2.220477,-3.657918,4.7788267,-1.4748282,0.095768064
0.37606633,4.7081223,6.495219,-2.220477,-3.657918,4.7788267,-1.4748282,0.095768064
0.372249,4.715107,6.204402,-1.9839884,-3.7356822,4.630386,-0.36391866,0.0047884034
0.3684135,4.72208,6.204402,-1.9839884,-3.7356822,4.630386,-0.36391866,0.0047884034
0.36452127,4.728588,5.85393,-1.736847,-3.7974675,4.453215,0.35434186,0.2873042
0.3606215,4.735072,5.85393,-1.736847,-3.7974675,4.453215,0.35434186,0.2873042
0.35667306,4.741069,5.458717,-1.4971625,-3.8454044,4.2664676,0.59855044,0.7565677
0.35271573,4.7470517,5.458717,-1.4971625,-3.8454044,4.2664676,0.59855044,0.7565677
0.35271573,4.7470517,5.458717,-1.4971625,-3.8454044,4.2664676,0.59855044,0.7565677
0.34754795,4.7541533,5.0347414,-1.2585433,-3.872036,3.7445314,0.8283938,1.1683705
0.34426275,4.7586493,5.0347414,-1.2585433,-3.872036,3.7445314,0.8283938,1.1683705
0.33670852,4.767975,4.5852,-1.0284462,-3.8731012,3.7732618,0.80445176,1.5897499
0.3328799,4.7722416,4.111157,-0.80580586,-3.8390129,1.5945383,1.9536686,1.2066777
0.32898623,4.77657,4.111157,-0.80580586,-3.8390129,1.5945383,1.9536686,1.2066777
0.32513848,4.780348,3.614744,-0.61192775,-3.7740316,2.8778305,1.0869676,2.1643584
0.3212853,4.784123,3.614744,-0.61192775,-3.7740316,2.8778305,1.0869676,2.1643584
0.31754658,4.7873306,3.103417,-0.4372244,-3.6760273,2.681506,-0.61770403,3.1411927
0.31379962,4.79054,3.103417,-0.4372244,-3.6760273,2.681506,-0.61770403,3.1411927
0.31022522,4.7932053,2.603808,-0.25186837,-3.5247598,1.1731589,-1.6424223,2.9352913
0.3066471,4.795871,2.603808,-0.25186837,-3.5247598,1.1731589,-1.6424223,2.9352913
0.30325538,4.798012,2.1308305,-0.10486186,-3.3489912,1.3263878,-1.1348516,2.4037786
0.29984376,4.8001633,2.1308305,-0.10486186,-3.3489912,1.3263878,-1.1348516,2.4037786
0.29984376,4.8001633,2.1308305,-0.10486186,-3.3489912,1.3263878,-1.1348516,2.4037786
0.29349414,4.8034334,1.6642448,0.0069909045,-3.146591,1.292869,-0.090979666,1.8483237
0.2905878,4.8045382,1.1720926,0.11351735,-2.9079716,1.283292,0.22984336,1.5945383
0.2876702,4.805648,1.1720926,0.11351735,-2.9079716,1.283292,0.22984336,1.5945383
0.2850126,4.8062186,0.65117824,0.2051301,-2.6416557,1.5897499,0,1.7046716
0.28235522,4.8067904,0.65117824,0.2051301,-2.6416557,1.5897499,0,1.7046716
0.27997655,4.8068066,0.11641546,0.28502494,-2.3582952,2.255338,-0.1388637,1.7429788
0.27759075,4.8068237,0.11641546,0.28502494,-2.3582952,2.255338,-0.1388637,1.7429788
0.2755006,4.806287,-0.4215431,0.36491975,-2.0674782,2.8107927,-0.48841715,1.8579005
0.27341226,4.805752,-0.4215431,0.36491975,-2.0674782,2.8107927,-0.48841715,1.8579005
0.27162662,4.8046703,-0.9541753,0.45546725,-1.7713345,2.767697,-0.5506664,1.8962077
0.26983675,4.803588,-0.9541753,0.45546725,-1.7713345,2.767697,-0.5506664,1.8962077
0.26835495,4.8019743,-1.4718938,0.55347157,-1.4741257,2.7629087,-0.6560113,2.1212628
0.26687196,4.800362,-1.4718938,0.55347157,-1.4741257,2.7629087,-0.6560113,2.1212628
0.26569286,4.798232,-1.9736334,0.655737,-1.1747864,2.4947581,-1.0151415,2.0925324
0.2645122,4.796104,-1.9736334,0.655737,-1.1747864,2.4947581,-1.0151415,2.0925324
0.2636339,4.7934747,-2.455133,0.7633287,-0.86905557,2.1691468,-1.6424223,1.8195933
0.26275358,4.7908463,-2.455133,0.7633287,-0.86905557,2.1691468,-1.6424223,1.8195933
0.2621751,4.7877364,-2.9121313,0.87092036,-0.5590636,2.0015526,-2.566584,1.661576
0.26159543,4.7846336,-2.9121313,0.87092036,-0.5590636,2.0015526,-2.566584,1.661576
0.26131105,4.781062,-3.341433,0.9785121,-0.24694112,1.8339585,-3.5625722,1.2354081
0.26102418,4.7774987,-3.341433,0.9785121,-0.24694112,1.8339585,-3.5625722,1.2354081
0.2610358,4.7734947,-3.7409072,1.0839733,0.0641161,1.5993267,-4.620809,0.92895025
0.2610437,4.7694902,-3.7409072,1.0839733,0.0641161,1.5993267,-4.620809,0.92895025
0.26134863,4.7650967,-4.1094885,1.1841081,0.37197754,1.0342951,-5.506664,0.62249243
0.26164976,4.7606936,-4.1094885,1.1841081,0.37197754,1.0342951,-5.506664,0.62249243
0.26224488,4.7559123,-4.4439816,1.2778513,0.6745126,0.4357447,-6.3829417,0.320823
0.26283324,4.75114,-4.4439816,1.2778513,0.6745126,0.4357447,-6.3829417,0.320823
0.26371548,4.7460113,-4.748647,1.3588115,0.9717214,-0.21547815,-7.1395097,0.062249243
0.26458982,4.740888,-4.748647,1.3588115,0.9717214,-0.21547815,-7.1395097,0.062249243
0.26575944,4.735448,-5.0224204,1.4280537,1.2646692,-0.5506664,-7.905654,-0.2825158
0.2669209,4.730002,-5.0224204,1.4280537,1.2646692,-0.5506664,-7.905654,-0.2825158
0.26837736,4.724268,-5.266366,1.4845127,1.5490948,-0.58418524,-8.279149,-0.7613561
0.26982287,4.7185326,-5.266366,1.4845127,1.5490948,-0.58418524,-8.279149,-0.7613561
0.27155644,4.712538,-5.4826145,1.5345801,1.8228678,-0.7565677,-8.437167,-1.2018893
0.2732781,4.706539,-5.4826145,1.5345801,1.8228678,-0.7565677,-8.437167,-1.2018893
0.27525386,4.700333,-5.6796885,1.5793213,2.0785313,-0.80924016,-8.552089,-1.6136919
0.27722096,4.6941094,-5.6796885,1.5793213,2.0785313,-0.80924016,-8.552089,-1.6136919
0.27942428,4.6876793,-5.8597183,1.6198013,2.3150198,-0.9528923,-8.614338,-1.8770541
0.28161436,4.6812415,-5.8597183,1.6198013,2.3150198,-0.9528923,-8.614338,-1.8770541
0.28402874,4.6746035,-6.0258994,1.6560203,2.533399,-1.2018893,-8.585608,-2.1787236
0.2864244,4.66797,-6.0258994,1.6560203,2.533399,-1.2018893,-8.585608,-2.1787236
0.2890527,4.661124,-6.1792974,1.691174,2.7326035,-1.9393034,-8.566454,-2.5761611
0.2890527,4.661124,-6.1792974,1.691174,2.7326035,-1.9393034,-8.566454,-2.5761611
0.29441762,4.647298,-6.3209777,1.7210014,2.9168942,-1.8483237,-8.63828,-2.7006595
0.29715553,4.640328,-6.3209777,1.7210014,2.9168942,-1.8483237,-8.63828,-2.7006595
0.30005592,4.6331377,-6.45094,1.7497636,3.089467,-1.2976574,-8.781932,-2.920926
0.30292225,4.6259785,-6.45094,1.7497636,3.089467,-1.2976574,-8.781932,-2.920926
0.30591452,4.618651,-6.57238,1.7870479,3.2364736,-1.0007763,-8.935161,-3.0550013
0.30889505,4.6112957,-6.57238,1.7870479,3.2364736,-1.0007763,-8.935161,-3.0550013
0.31195366,4.603848,-6.682102,1.840311,3.3600442,-0.8858546,-9.050082,-3.265691
0.3149964,4.5963793,-6.682102,1.840311,3.3600442,-0.8858546,-9.050082,-3.265691
0.31813267,4.588752,-6.7790413,1.9106185,3.463375,-1.1300632,-9.188946,-3.620033
0.32125184,4.5811014,-6.7790413,1.9106185,3.463375,-1.1300632,-9.188946,-3.620033
0.3244364,4.5733128,-6.865328,1.9947743,3.5485961,-1.5227122,-9.433155,-3.8546648
0.3244364,4.5733128,-6.865328,1.9947743,3.5485961,-1.5227122,-9.433155,-3.8546648
0.32782593,4.564945,-6.865328,1.9947743,3.5485961,-1.5227122,-9.433155,-3.8546648
0.33098546,4.5571475,-6.943092,2.0831914,3.619969,-2.0925324,-9.662998,-4.285621
0.33407468,4.5494523,-7.011269,2.166282,3.6838846,-2.657564,-9.830592,-4.7309427
0.34048054,4.533401,-7.011269,2.166282,3.6838846,-2.657564,-9.830592,-4.7309427
0.3437198,4.525215,-7.0645323,2.2365894,3.7392786,-3.098097,-10.13705,-5.12838
0.3469334,4.517009,-7.0645323,2.2365894,3.7392786,-3.098097,-10.13705,-5.12838
0.35016415,4.508718,-7.1050124,2.2930484,3.7872155,-3.466804,-10.539276,-5.4539914
0.35337132,4.5003977,-7.1050124,2.2930484,3.7872155,-3.466804,-10.539276,-5.4539914
0.35659006,4.4920034,-7.1305785,2.3367243,3.8276954,-3.7684734,-10.884041,-5.6982
0.35978043,4.4835877,-7.1305785,2.3367243,3.8276954,-3.7684734,-10.884041,-5.6982
0.3629669,4.4751353,-7.1391006,2.3697474,3.8649797,-3.8355112,-11.161768,-5.923255
0.36612707,4.466653,-7.1391006,2.3697474,3.8649797,-3.8355112,-11.161768,-5.923255
0.3692767,4.458138,-7.131644,2.392118,3.890546,-3.8355112,-11.429919,-6.05733
0.3723926,4.4496093,-7.131644,2.392118,3.890546,-3.8355112,-11.429919,-6.05733
0.3754838,4.4410853,-7.1060777,2.408097,3.906525,-3.7349546,-11.439496,-6.2632318
0.37854964,4.432523,-7.1060777,2.408097,3.906525,-3.7349546,-11.439496,-6.2632318
0.38156942,4.4239917,-7.066663,2.42088,3.9107862,-3.5194764,-11.631032,-6.3206925
0.38455975,4.415431,-7.066663,2.42088,3.9107862,-3.5194764,-11.631032,-6.3206925
0.38751814,4.406888,-7.0123343,2.4336634,3.9033291,-3.892972,-11.8896055,-6.50744
0.39043757,4.398341,-7.0123343,2.4336634,3.9033291,-3.892972,-11.8896055,-6.50744
0.393292,4.389845,-6.9367003,2.4432507,3.883089,-3.9264908,-12.545617,-6.4020953
0.3961122,4.3813286,-6.9367003,2.4432507,3.883089,-3.9264908,-12.545617,-6.4020953
0.39886978,4.372889,-6.834435,2.4464464,3.850066,-3.8067808,-12.483368,-6.603208
0.40158752,4.3644466,-6.834435,2.4464464,3.850066,-3.8067808,-12.483368,-6.603208
0.40425178,4.3560953,-6.7097993,2.4507077,3.80639,-4.1419687,-12.157756,-6.909666
0.4068845,4.347716,-6.7097993,2.4507077,3.80639,-4.1419687,-12.157756,-6.909666
0.40949166,4.3394494,-6.5734453,2.4539034,3.7595184,-5.3438582,-11.477803,-7.5082164
0.41206628,4.3311625,-6.5734453,2.4539034,3.7595184,-5.3438582,-11.477803,-7.5082164
0.4145678,4.323004,-6.440287,2.4357939,3.7083857,-5.243302,-11.252748,-7.7811556
0.4170349,4.3148336,-6.440287,2.4357939,3.7083857,-5.243302,-11.252748,-7.7811556
0.41940594,4.3067822,-6.310325,2.3931832,3.6476657,-4.6112323,-11.822568,-7.431602
0.41940594,4.3067822,-6.310325,2.3931832,3.6476657,-4.6112323,-11.822568,-7.431602
0.42402706,4.290662,-6.1750364,2.355899,3.5837498,-4.5154643,-12.430696,-7.3645644
0.42620397,4.282853,-6.1750364,2.355899,3.5837498,-4.5154643,-12.430696,-7.3645644
0.42829907,4.275152,-6.023769,2.3324633,3.5113118,-4.548983,-12.761095,-7.1969705
0.43036813,4.267416,-6.023769,2.3324633,3.5113118,-4.548983,-12.761095,-7.1969705
0.43235275,4.259836,-5.852261,2.3186147,3.4303517,-5.046977,-12.899959,-7.3071036
0.43430272,4.2522535,-5.852261,2.3186147,3.4303517,-5.046977,-12.899959,-7.3071036
0.43617108,4.244856,-5.664775,2.3037012,3.3483264,-5.5162406,-12.919112,-7.455544
0.43800285,4.237465,-5.664775,2.3037012,3.3483264,-5.5162406,-12.919112,-7.455544
0.4397574,4.230261,-5.4623747,2.271743,3.26204,-5.659893,-12.885593,-7.5704656
0.4414764,4.2230644,-5.4623747,2.271743,3.26204,-5.659893,-12.885593,-7.5704656
0.443105,4.216118,-5.248256,2.222741,3.169362,-5.592855,-12.871228,-7.599196
0.44470376,4.2091665,-5.248256,2.222741,3.169362,-5.592855,-12.871228,-7.599196
0.44620994,4.202484,-5.024551,2.1609557,3.064966,-5.363012,-12.770672,-7.517793
0.4476868,4.195812,-5.024551,2.1609557,3.064966,-5.363012,-12.770672,-7.517793
0.44907844,4.189384,-4.7933884,2.0959744,2.9499176,-4.9655743,-12.65575,-7.4363904
0.4504337,4.1830163,-4.7933884,2.0959744,2.9499176,-4.9655743,-12.65575,-7.4363904
0.4516932,4.1769323,-4.553704,2.0320587,2.823151,-4.759673,-12.421119,-7.2783732
0.45293534,4.1708336,-4.553704,2.0320587,2.823151,-4.759673,-12.421119,-7.2783732
0.45407006,4.165032,-4.3118887,1.9702733,2.6825361,-4.582502,-12.172121,-7.192182
0.4551871,4.1592283,-4.3118887,1.9702733,2.6825361,-4.582502,-12.172121,-7.192182
0.45619202,4.1537375,-4.0690084,1.9074227,2.5323339,-4.4915223,-11.971008,-7.0485296
0.45619202,4.1537375,-4.0690084,1.9074227,2.5323339,-4.4915223,-11.971008,-7.0485296
0.45619202,4.1537375,-4.0690084,1.9074227,2.5323339,-4.4915223,-11.971008,-7.0485296
0.45619202,4.1537375,-4.0690084,1.9074227,2.5323339,-4.4915223,-11.971008,-7.0485296
0.45910844,4.1351357,-3.5821826,1.7763952,2.194645,-4.3526587,-11.736377,-6.631939
0.4599816,4.1293797,-3.5821826,1.7763952,2.194645,-4.3526587,-11.736377,-6.631939
0.4599816,4.1293797,-3.5821826,1.7763952,2.194645,-4.3526587,-11.736377,-6.631939
0.46063665,4.124628,-3.3393025,1.7060877,2.0156806,-4.333505,-11.741165,-6.3206925
0.4612283,4.120268,-3.3393025,1.7060877,2.0156806,-4.333505,-11.741165,-6.3206925
0.46219411,4.1120224,-3.095357,1.6325845,1.828194,-4.261679,-11.75553,-6.157887
0.46256322,4.1081696,-2.8471503,1.5558854,1.638577,-4.189853,-11.779472,-6.0238113
0.46292502,4.1043205,-2.8471503,1.5558854,1.638577,-4.189853,-11.779472,-6.0238113
0.46316987,4.100786,-2.5968132,1.4749253,1.4457641,-4.1180267,-11.702858,-5.971139
0.46340734,4.0972733,-2.5968132,1.4749253,1.4457641,-4.1180267,-11.702858,-5.971139
0.4635338,4.0940843,-2.3454106,1.3875736,1.2508208,-4.036624,-11.640609,-5.837064
0.46365526,4.090905,-2.3454106,1.3875736,1.2508208,-4.036624,-11.640609,-5.837064
0.4636682,4.088032,-2.0918777,1.2948956,1.0558773,-4.012682,-11.525687,-5.78918
0.4636772,4.085247,-2.0918777,1.2948956,1.0558773,-4.012682,-11.525687,-5.78918
0.46357948,4.0827227,-1.835149,1.1968913,0.8609339,-3.7924154,-11.45865,-5.659893
0.46348178,4.080268,-1.835149,1.1968913,0.8609339,-3.7924154,-11.45865,-5.659893
0.46348178,4.080268,-1.577355,1.094626,0.66812104,-3.6391866,-11.473015,-5.511452
0.46309137,4.076043,-1.577355,1.094626,0.66812104,-3.6391866,-11.473015,-5.511452
0.46279573,4.0742803,-1.3184958,0.9912953,0.47530818,-3.4476504,-11.3964,-5.482722
0.46249923,4.0725193,-1.3184958,0.9912953,0.47530818,-3.4476504,-11.3964,-5.482722
0.46211395,4.0711207,-1.057506,0.88689935,0.2856911,-3.3423057,-11.324574,-5.3247046
0.46172637,4.0697174,-1.057506,0.88689935,0.2856911,-3.3423057,-11.324574,-5.3247046
0.46125403,4.068676,-0.7954509,0.7814382,0.09820456,-3.2609026,-11.281479,-5.1523223
0.4607836,4.0676413,-0.7954509,0.7814382,0.09820456,-3.2609026,-11.281479,-5.1523223
0.46022072,4.0669518,-0.5291348,0.6781075,-0.08182514,-3.2225955,-11.252748,-5.0374002
0.45967603,4.0662856,-0.5291348,0.6781075,-0.08182514,-3.2225955,-11.252748,-5.0374002
0.45905355,4.0659704,-0.2628187,0.5769074,-0.2533327,-3.1603463,-11.329363,-4.8841715
0.4584307,4.065655,-0.2628187,0.5769074,-0.2533327,-3.1603463,-11.329363,-4.8841715
0.45773312,4.0656967,0.005627962,0.47570726,-0.41844872,-3.1411927,-11.286267,-4.865018
0.4570385,4.0657387,0.005627962,0.47570726,-0.41844872,-3.1411927,-11.286267,-4.865018
0.45628044,4.0661373,0.2740746,0.37237662,-0.5771731,-3.145981,-11.382035,-4.7788267
0.45552328,4.066536,0.2740746,0.37237662,-0.5771731,-3.145981,-11.382035,-4.7788267
0.4547083,4.0672865,0.54252124,0.27011123,-0.7273754,-3.1124623,-11.405977,-4.7261543
0.4538958,4.068034,0.54252124,0.27011123,-0.7273754,-3.1124623,-11.405977,-4.7261543
0.45303133,4.0691357,0.81096786,0.16784583,-0.86372924,-3.0597897,-11.559206,-4.654328
0.45216995,4.0702314,0.81096786,0.16784583,-0.86372924,-3.0597897,-11.559206,-4.654328
0.45126706,4.071666,1.0740882,0.06877624,-0.9872999,-2.9735985,-11.549629,-4.548983
0.4503651,4.0730963,1.0740882,0.06877624,-0.9872999,-2.9735985,-11.549629,-4.548983
0.4494294,4.0748634,1.3361433,-0.030293351,-1.1023484,-3.0119057,-11.45865,-4.453215
0.44849607,4.0766215,1.3361433,-0.030293351,-1.1023484,-3.0119057,-11.45865,-4.453215
0.44753736,4.0787153,1.5918068,-0.12829769,-1.208875,-3.3901896,-11.228806,-4.390966
0.4465786,4.080803,1.5918068,-0.12829769,-1.208875,-3.3901896,-11.228806,-4.390966
0.4465786,4.080803,1.5918068,-0.12829769,-1.208875,-3.3901896,-11.228806,-4.390966
0.4446589,4.085621,1.8389481,-0.23162833,-1.3015529,-3.9695864,-11.089942,-4.1611223
0.44370303,4.0883236,2.0775673,-0.34454638,-1.3793173,-3.9025488,-11.042058,-3.9504328
0.4427566,4.0909886,2.0775673,-0.34454638,-1.3793173,-3.9025488,-11.042058,-3.9504328
0.4418093,4.0939775,2.3076644,-0.46492124,-1.4411026,-3.41892,-10.998962,-3.5625722
0.44085836,4.0969634,2.3076644,-0.46492124,-1.4411026,-3.41892,-10.998962,-3.5625722
0.43992805,4.1002264,2.5281742,-0.5831656,-1.4964963,-3.2369606,-11.099519,-3.1890767
0.4389923,4.10349,2.5281742,-0.5831656,-1.4964963,-3.2369606,-11.099519,-3.1890767
0.43807027,4.1070237,2.7433577,-0.6971489,-1.5518901,-3.0597897,-11.032481,-3.0310593
0.43715852,4.110494,2.7433577,-0.6971489,-1.5518901,-3.0597897,-11.032481,-3.0310593
0.43624514,4.1142817,2.9532146,-0.8047406,-1.6008923,-2.9400797,-10.91756,-2.9831753
0.43531084,4.1181264,2.9532146,-0.8047406,-1.6008923,-2.9400797,-10.91756,-2.9831753
0.43439966,4.1221604,3.1556149,-0.90487546,-1.6498944,-2.8395233,-10.764331,-2.8778305
0.43348217,4.1261873,3.1556149,-0.90487546,-1.6498944,-2.8395233,-10.764331,-2.8778305
0.43257084,4.1304607,3.349493,-1.0018145,-1.696766,-2.705448,-10.539276,-2.681506
0.43165317,4.134722,3.349493,-1.0018145,-1.696766,-2.705448,-10.539276,-2.681506
0.4307328,4.139223,3.5359144,-1.0934273,-1.7468334,-2.6192567,-10.242394,-2.6192567
0.42980534,4.143711,3.5359144,-1.0934273,-1.7468334,-2.6192567,-10.242394,-2.6192567
0.42886913,4.148425,3.715944,-1.1818442,-1.7969009,-2.5187001,-10.04607,-2.719813
0.427923,4.153135,3.715944,-1.1818442,-1.7969009,-2.5187001,-10.04607,-2.719813
0.42696914,4.1580553,3.8853211,-1.2702612,-1.8480335,-2.336741,-9.868899,-2.5761611
0.42600438,4.1629705,3.8853211,-1.2702612,-1.8480335,-2.336741,-9.868899,-2.5761611
0.42503366,4.168083,4.0451107,-1.3576128,-1.9012969,-2.3654714,-9.864111,-2.4037786
0.42404938,4.1732016,4.0451107,-1.3576128,-1.9012969,-2.3654714,-9.864111,-2.4037786
0.42305735,4.178508,4.196378,-1.4460298,-1.9534948,-2.3415294,-9.782708,-2.231396
0.4220529,4.1838083,4.196378,-1.4460298,-1.9534948,-2.3415294,-9.782708,-2.231396
0.42103934,4.189293,4.3380585,-1.535512,-2.006758,-2.3654714,-9.701305,-2.0159178
0.42001233,4.1947722,4.3380585,-1.535512,-2.006758,-2.3654714,-9.701305,-2.0159178
0.4189746,4.200428,4.4744124,-1.6249943,-2.058956,-2.3223755,-9.629479,-1.7381904
0.41792247,4.206079,4.4744124,-1.6249943,-2.058956,-2.3223755,-9.629479,-1.7381904
0.4168574,4.2119,4.6054397,-1.7155417,-2.1100886,-2.2170308,-9.730036,-1.436521
0.41577703,4.2177153,4.6054397,-1.7155417,-2.1100886,-2.2170308,-9.730036,-1.436521
0.41468704,4.2236958,4.7322063,-1.8050239,-2.155895,-2.1978772,-9.840169,-1.1444284
0.4135787,4.229681,4.7322063,-1.8050239,-2.155895,-2.1978772,-9.840169,-1.1444284
0.4124483,4.235873,4.8547115,-1.8902451,-2.1974404,-2.087744,-9.945514,-0.91458505
0.4124483,4.235873,4.8547115,-1.8902451,-2.1974404,-2.087744,-9.945514,-0.91458505
0.41015872,4.2482677,4.9740214,-1.9722705,-2.2389855,-1.958457,-10.065224,-0.60333884
0.4089994,4.25448,4.9740214,-1.9722705,-2.2389855,-1.958457,-10.065224,-0.60333884
0.40781584,4.260871,5.0912004,-2.0511,-2.280531,-1.8770541,-10.19451,-0.30166942
0.4066052,4.2672987,5.0912004,-2.0511,-2.280531,-1.8770541,-10.19451,-0.30166942
0.40538347,4.2738295,5.205184,-2.123538,-2.31675,-1.8339585,-10.237606,-0.04309563
0.40413472,4.2803917,5.205184,-2.123538,-2.31675,-1.8339585,-10.237606,-0.04309563
0.40287358,4.287062,5.3170366,-2.1906497,-2.3465774,-1.7764976,-10.280702,0.16759412
0.4015908,4.2937317,5.3170366,-2.1906497,-2.3465774,-1.7764976,-10.280702,0.16759412
0.40029258,4.300509,5.423563,-2.2556307,-2.3764048,-1.7286136,-10.271125,0.4309563
0.39899477,4.3071694,5.423563,-2.2556307,-2.3764048,-1.7286136,-10.271125,0.4309563
0.39765382,4.3140593,5.523698,-2.320612,-2.406232,-1.6376339,-10.31901,0.6512229
0.39624998,4.3211474,5.523698,-2.320612,-2.406232,-1.6376339,-10.31901,0.6512229
0.39486957,4.328142,5.6185064,-2.3845277,-2.429668,-1.6136919,-10.352529,0.8810662
0.3934625,4.335149,5.6185064,-2.3845277,-2.429668,-1.6136919,-10.352529,0.8810662
0.39203697,4.342257,5.709054,-2.449509,-2.4520385,-1.4652514,-10.328587,1.0534488
0.39057666,4.349413,5.709054,-2.449509,-2.4520385,-1.4652514,-10.328587,1.0534488
0.389106,4.3566,5.794275,-2.5123596,-2.4776049,-1.3024458,-10.371682,1.283292
0.38760406,4.3638124,5.794275,-2.5123596,-2.4776049,-1.3024458,-10.371682,1.283292
0.38608426,4.371083,5.8731046,-2.5688186,-2.4999754,-1.2785037,-10.271125,1.3215994
0.3845326,4.378379,5.8731046,-2.5688186,-2.4999754,-1.2785037,-10.271125,1.3215994
0.3829583,4.3857255,5.9370203,-2.6135597,-2.5170197,-1.13964,-10.160992,1.3455414
0.38135445,4.3930836,5.9370203,-2.6135597,-2.5170197,-1.13964,-10.160992,1.3455414
0.37973258,4.400448,5.983892,-2.6487134,-2.5319333,-1.0295067,-9.988609,1.4556746
0.3780742,4.407853,5.983892,-2.6487134,-2.5319333,-1.0295067,-9.988609,1.4556746
0.37639213,4.415266,6.01585,-2.6721492,-2.542586,-0.90979666,-9.80665,1.5179238
0.37468335,4.422675,6.01585,-2.6721492,-2.542586,-0.90979666,-9.80665,1.5179238
0.37295622,4.4300594,6.0350246,-2.6817365,-2.5489776,-0.89064306,-9.562442,1.5897499
0.37119186,4.4374843,6.0350246,-2.6817365,-2.5489776,-0.89064306,-9.562442,1.5897499
0.36941147,4.4448557,6.0382204,-2.6806712,-2.5511081,-0.8762778,-9.251195,1.5514427
0.36759543,4.45226,6.0382204,-2.6806712,-2.5511081,-0.8762778,-9.251195,1.5514427
0.36576113,4.4596195,6.0254374,-2.666823,-2.5457819,-0.93373865,-8.8777,1.4460979
0.3639062,4.466952,6.0254374,-2.666823,-2.5457819,-0.93373865,-8.8777,1.4460979
0.3620362,4.474216,5.9945445,-2.6423218,-2.5319333,-0.7326257,-8.513782,1.4221559
0.36013114,4.4815116,5.9945445,-2.6423218,-2.5319333,-0.7326257,-8.513782,1.4221559
0.3582203,4.4886827,5.9423466,-2.6061027,-2.5127587,-0.4405331,-7.9822683,1.3503298
0.35627684,4.4958777,5.9423466,-2.6061027,-2.5127587,-0.4405331,-7.9822683,1.3503298
0.35432285,4.5029497,5.8688436,-2.5581658,-2.4882576,-0.05746084,-7.6375036,1.3455414
0.3523449,4.5100174,5.8688436,-2.5581658,-2.4882576,-0.05746084,-7.6375036,1.3455414
0.35036746,4.516922,5.770839,-2.4921196,-2.45843,-0.24420857,-6.5361705,0.91937345
0.34835705,4.5238566,5.770839,-2.4921196,-2.45843,-0.24420857,-6.5361705,0.91937345
0.34633428,4.5305743,5.645138,-2.4122248,-2.4264722,2.0590134,-6.4499793,1.484405
0.3442878,4.5372944,5.645138,-2.4122248,-2.4264722,2.0590134,-6.4499793,1.484405
0.34224826,4.5437765,5.488544,-2.304633,-2.3987753,2.552219,-7.2544312,2.2170308
0.3401763,4.550293,5.488544,-2.304633,-2.3987753,2.552219,-7.2544312,2.2170308
0.33810204,4.556531,5.322363,-2.1512349,-2.364687,3.122039,-6.7229185,1.8866309
0.33599895,4.5627966,5.322363,-2.1512349,-2.364687,3.122039,-6.7229185,1.8866309
0.33389091,4.5687857,5.1444635,-1.9722705,-2.3359246,2.4612393,-5.161899,1.4700398
0.33176437,4.574776,5.1444635,-1.9722705,-2.3359246,2.4612393,-5.161899,1.4700398
0.32963443,4.580459,4.9303455,-1.784784,-2.3135543,1.9009962,-4.185065,1.3790601
0.32747936,4.586167,4.9303455,-1.784784,-2.3135543,1.9009962,-4.185065,1.3790601
0.32534185,4.5915227,4.6757474,-1.6015584,-2.2869225,1.4700398,-3.5242648,1.5993267
0.323181,4.5969024,4.6757474,-1.6015584,-2.2869225,1.4700398,-3.5242648,1.5993267
0.32105553,4.6019106,4.38493,-1.4300508,-2.2496383,1.2306197,-3.1172507,2.1930888
0.31892562,4.606901,4.38493,-1.4300508,-2.2496383,1.2306197,-3.1172507,2.1930888
0.31682712,4.611516,4.065351,-1.2649349,-2.199571,1.2545617,-3.074155,2.743755
0.31470042,4.616171,4.065351,-1.2649349,-2.199571,1.2545617,-3.074155,2.743755
0.3126413,4.6203785,3.7287273,-1.1019495,-2.1388507,1.2976574,-3.0310593,3.2513258
0.31057447,4.6245847,3.7287273,-1.1019495,-2.1388507,1.2976574,-3.0310593,3.2513258
0.30856082,4.628389,3.3782551,-0.9357681,-2.0653474,1.2593501,-3.0310593,3.5434184
0.30653262,4.6322074,3.3782551,-0.9357681,-2.0653474,1.2593501,-3.0310593,3.5434184
0.3045911,4.635578,3.0171306,-0.7727827,-1.9811916,1.1492168,-3.0071173,3.7588966
0.30263466,4.6389656,3.0171306,-0.7727827,-1.9811916,1.1492168,-3.0071173,3.7588966
0.30077207,4.641907,2.644288,-0.61405826,-1.8874484,0.9624691,-2.9879637,3.845088
0.29889795,4.6448603,2.644288,-0.61405826,-1.8874484,0.9624691,-2.9879637,3.845088
0.2971191,4.647375,2.2629232,-0.46598652,-1.7841177,0.94331545,-2.96881,3.8402996
0.29533866,4.649888,2.2629232,-0.46598652,-1.7841177,0.94331545,-2.96881,3.8402996
0.29363632,4.6519966,1.8719712,-0.32643688,-1.6658734,1.0773908,-2.7102363,3.7062242
0.29363632,4.6519966,1.8719712,-0.32643688,-1.6658734,1.0773908,-2.7102363,3.7062242
0.29042155,4.655655,1.4671708,-0.19434407,-1.5401722,1.6424223,-2.504335,3.442862
0.29042155,4.655655,1.4671708,-0.19434407,-1.5401722,1.6424223,-2.504335,3.442862
0.29042155,4.655655,1.4671708,-0.19434407,-1.5401722,1.6424223,-2.504335,3.442862
0.29042155,4.655655,1.4671708,-0.19434407,-1.5401722,1.6424223,-2.504335,3.442862
0.29042155,4.655655,1.4671708,-0.19434407,-1.5401722,1.6424223,-2.504335,3.442862
0.2836917,4.658981,0.6021761,0.06451519,-1.281313,2.6001031,-1.9201498,2.9352913
0.2824621,4.6593504,0.1451776,0.19767325,-1.1556118,3.2321723,-2.7389667,3.2800562
0.28124046,4.6595116,0.1451776,0.19767325,-1.1556118,3.2321723,-2.7389667,3.2800562
0.28124046,4.6595116,0.1451776,0.19767325,-1.1556118,3.2321723,-2.7389667,3.2800562
0.28124046,4.6595116,0.1451776,0.19767325,-1.1556118,3.2321723,-2.7389667,3.2800562
0.28124046,4.6595116,0.1451776,0.19767325,-1.1556118,3.2321723,-2.7389667,3.2800562
0.27754292,4.656412,-0.7453835,0.5204484,-0.89994824,2.3511062,-1.8531121,2.5139117
0.2767566,4.6557546,-1.1832072,0.67704225,-0.77424705,2.2361844,-1.6041151,2.3415294
0.27546975,4.653816,-1.1832072,0.67704225,-0.77424705,2.2361844,-1.6041151,2.3415294
0.27475294,4.652095,-1.6242267,0.8315056,-0.63895845,1.9728222,-1.541866,1.9297266
0.27400264,4.650297,-1.6242267,0.8315056,-0.63895845,1.9728222,-1.541866,1.9297266
0.27337453,4.648013,-2.0684419,0.9753163,-0.5004741,2.078167,-1.6232687,1.685518
0.27274823,4.6457434,-2.0684419,0.9753163,-0.5004741,2.078167,-1.6232687,1.685518
0.27223063,4.6429605,-2.5126572,1.1116701,-0.36092442,2.2697031,-1.9632454,1.3072342
0.2717128,4.640193,-2.5126572,1.1116701,-0.36092442,2.2697031,-1.9632454,1.3072342
0.27130213,4.6369305,-2.954742,1.243763,-0.22137478,2.231396,-2.4229321,0.7422025
0.2708889,4.6336794,-2.954742,1.243763,-0.22137478,2.231396,-2.4229321,0.7422025
0.27057618,4.6298995,-3.3883047,1.3747904,-0.08715145,2.0159178,-2.8634653,0.33997664
0.27026257,4.626169,-3.3883047,1.3747904,-0.08715145,2.0159178,-2.8634653,0.33997664
0.2700499,4.621971,-3.8101494,1.501557,0.044941336,1.4652514,-3.41892,-0.02873042
0.26983124,4.6177745,-3.8101494,1.501557,0.044941336,1.4652514,-3.41892,-0.02873042
0.26971275,4.6131015,-4.216015,1.6155403,0.1749036,1.0007763,-3.9743748,-0.4213795
0.2695869,4.6084347,-4.216015,1.6155403,0.1749036,1.0007763,-3.9743748,-0.4213795
0.26956615,4.6033278,-4.602706,1.7199361,0.30167007,0.8379706,-4.5537715,-0.80445176
0.2695363,4.5982223,-4.602706,1.7199361,0.30167007,0.8379706,-4.5537715,-0.80445176
0.26961914,4.592703,-4.9670267,1.8147447,0.43163234,0.79008657,-5.329493,-1.2593501
0.2696914,4.587163,-4.9670267,1.8147447,0.43163234,0.79008657,-5.329493,-1.2593501
0.2698844,4.5811024,-5.3068457,1.9020964,0.56052935,0.521936,-6.033388,-1.7429788
0.2698844,4.5811024,-5.3068457,1.9020964,0.56052935,0.521936,-6.033388,-1.7429788
0.2700589,4.5752206,-5.6221642,1.9830564,0.6872958,0.10055647,-6.8522053,-2.2409728
0.270624,4.562839,-5.6221642,1.9830564,0.6872958,0.10055647,-6.8522053,-2.2409728
0.27103162,4.556257,-5.90659,2.0522985,0.81512755,-0.37349546,-7.469909,-2.9496565
0.27142408,4.5496607,-5.90659,2.0522985,0.81512755,-0.37349546,-7.469909,-2.9496565
0.27194592,4.542773,-6.164384,2.109823,0.9482856,-0.8331822,-8.034941,-3.5865142
0.2724508,4.535883,-6.164384,2.109823,0.9482856,-0.8331822,-8.034941,-3.5865142
0.2730755,4.528739,-6.39235,2.153499,1.0814437,-1.1061212,-8.394072,-4.0940847
0.27368224,4.521593,-6.39235,2.153499,1.0814437,-1.1061212,-8.394072,-4.0940847
0.2744046,4.514224,-6.59262,2.1886525,1.215667,-1.283292,-8.6095495,-4.5058875
0.27510798,4.506852,-6.59262,2.1886525,1.215667,-1.283292,-8.6095495,-4.5058875
0.27592763,4.499283,-6.7673235,2.2195451,1.3520209,-1.4748282,-8.78672,-4.903325
0.27672738,4.49171,-6.7673235,2.2195451,1.3520209,-1.4748282,-8.78672,-4.903325
0.2776352,4.483965,-6.918591,2.2451115,1.4830483,-1.6041151,-8.963891,-5.3582234
0.2785221,4.4762154,-6.918591,2.2451115,1.4830483,-1.6041151,-8.963891,-5.3582234
0.27950758,4.4683094,-7.047488,2.2685473,1.6119454,-1.5370775,-9.14585,-5.693412
0.28046912,4.4604144,-7.047488,2.2685473,1.6119454,-1.5370775,-9.14585,-5.693412
0.2815248,4.452375,-7.1540146,2.295179,1.7355161,-1.5466543,-9.323022,-6.033388
0.2825566,4.4443383,-7.1540146,2.295179,1.7355161,-1.5466543,-9.323022,-6.033388
0.28367382,4.436191,-7.241366,2.3228757,1.8526951,-1.6759412,-9.624691,-6.363788
0.28476617,4.428046,-7.241366,2.3228757,1.8526951,-1.6759412,-9.624691,-6.363788
0.2859407,4.4197936,-7.308478,2.3505728,1.9613521,-1.9632454,-9.935937,-6.799533
0.28708932,4.4115434,-7.308478,2.3505728,1.9613521,-1.9632454,-9.935937,-6.799533
0.28830874,4.403223,-7.356415,2.3708127,2.061487,-2.2840683,-10.409989,-7.216124
0.2895038,4.3948874,-7.356415,2.3708127,2.061487,-2.2840683,-10.409989,-7.216124
0.2907701,4.3865223,-7.383046,2.379335,2.1573608,-2.825158,-10.927136,-7.5848308
0.2920116,4.378142,-7.383046,2.379335,2.1573608,-2.825158,-10.927136,-7.5848308
0.29331806,4.3697433,-7.386242,2.3750737,2.2447124,-3.265691,-11.501745,-7.8769236
0.29460186,4.3613114,-7.386242,2.3750737,2.2447124,-3.265691,-11.501745,-7.8769236
0.29594928,4.3529305,-7.366002,2.3548338,2.3331294,-3.6774938,-12.052411,-8.178593
0.29727122,4.344534,-7.366002,2.3548338,2.3331294,-3.6774938,-12.052411,-8.178593
0.2986614,4.3361707,-7.3159347,2.3228757,2.4194157,-3.916914,-12.588713,-8.255207
0.3000242,4.3278,-7.3159347,2.3228757,2.4194157,-3.916914,-12.588713,-8.255207
0.3014601,4.319499,-7.23817,2.283461,2.5078328,-4.084508,-12.785037,-8.379706
0.30286855,4.3111906,-7.23817,2.283461,2.5078328,-4.084508,-12.785037,-8.379706
0.30433255,4.302981,-7.135905,2.2408504,2.594119,-3.8977604,-13.244724,-8.413225
0.30576852,4.294763,-7.135905,2.2408504,2.594119,-3.8977604,-13.244724,-8.413225
0.30726853,4.286666,-7.0091386,2.199305,2.6750793,-4.1276035,-13.656527,-8.394072
0.30873987,4.278561,-7.0091386,2.199305,2.6750793,-4.1276035,-13.656527,-8.394072
0.31025183,4.270621,-6.852545,2.1566947,2.7453868,-4.189853,-14.192827,-8.336611
0.31173643,4.262658,-6.852545,2.1566947,2.7453868,-4.189853,-14.192827,-8.336611
0.31324187,4.2549043,-6.660797,2.1076925,2.7997153,-3.667917,-14.144943,-8.39886
0.31471726,4.2471457,-6.660797,2.1076925,2.7997153,-3.667917,-14.144943,-8.39886
0.31626567,4.239581,-6.440287,2.0682776,2.8433912,-4.122815,-13.445837,-8.90643
0.31778625,4.2320085,-6.440287,2.0682776,2.8433912,-4.122815,-13.445837,-8.90643
0.31938955,4.2246437,-6.2112556,2.0363197,2.883871,-5.0517654,-12.5025215,-9.476251
0.32096815,4.21727,-6.2112556,2.0363197,2.883871,-5.0517654,-12.5025215,-9.476251
0.32254437,4.210133,-5.988615,1.9787954,2.9062417,-4.367024,-12.186486,-9.476251
0.324099,4.202973,-5.988615,1.9787954,2.9062417,-4.367024,-12.186486,-9.476251
0.3256336,4.196064,-5.7723665,1.9010311,2.911568,-3.5290532,-12.373235,-9.26556
0.3271417,4.1891546,-5.7723665,1.9010311,2.911568,-3.5290532,-12.373235,-9.26556
0.3286236,4.1824827,-5.5550523,1.8339194,2.8966544,-3.0358477,-12.6222315,-8.968679
0.33007866,4.1758194,-5.5550523,1.8339194,2.8966544,-3.0358477,-12.6222315,-8.968679
0.33150342,4.1693854,-5.3302817,1.7923741,2.8646963,-3.1172507,-12.588713,-8.743625
0.3329024,4.162961,-5.3302817,1.7923741,2.8646963,-3.1172507,-12.588713,-8.743625
0.33426023,4.156762,-5.0959234,1.7689383,2.8167593,-3.4380736,-12.406754,-8.63828
0.3355941,4.150567,-5.0959234,1.7689383,2.8167593,-3.4380736,-12.406754,-8.63828
0.3368667,4.144629,-4.853043,1.743372,2.750713,-3.490746,-12.229582,-8.556877
0.33811784,4.138689,-4.853043,1.743372,2.750713,-3.490746,-12.229582,-8.556877
0.33929765,4.133028,-4.6016407,1.7092835,2.669753,-3.3614593,-12.052411,-8.42759
0.3404568,4.1273723,-4.6016407,1.7092835,2.669753,-3.3614593,-12.052411,-8.42759
0.34154183,4.1220016,-4.3459773,1.6624119,2.5717487,-3.1842883,-11.932701,-8.341399
0.34261197,4.1166205,-4.3459773,1.6624119,2.5717487,-3.1842883,-11.932701,-8.341399
0.3435973,4.1115675,-4.0849876,1.6102139,2.4598958,-2.9496565,-11.836933,-8.073248
0.3445696,4.10651,-4.0849876,1.6102139,2.4598958,-2.9496565,-11.836933,-8.073248
0.34548205,4.1016283,-3.8186715,1.558016,2.3320642,-2.7389667,-11.784261,-7.762002
0.34633386,4.0970116,-3.8186715,1.558016,2.3320642,-2.7389667,-11.784261,-7.762002
0.3471137,4.0926213,-3.5438333,1.5047528,2.190384,-2.6144683,-11.621455,-7.4124484
0.3478825,4.088239,-3.5438333,1.5047528,2.190384,-2.6144683,-11.621455,-7.4124484
0.34855652,4.0841737,-3.2636685,1.4482937,2.0359206,-2.5330653,-11.468226,-7.1730285
0.3492217,4.080112,-3.2636685,1.4482937,2.0359206,-2.5330653,-11.468226,-7.1730285
0.3497816,4.076374,-2.9760473,1.3918347,1.8697393,-2.3463178,-11.372458,-7.0341644
0.35033336,4.0726433,-2.9760473,1.3918347,1.8697393,-2.3463178,-11.372458,-7.0341644
0.35077485,4.0692625,-2.6841648,1.3321799,1.6929054,-2.2170308,-11.219229,-6.8186865
0.35121042,4.0658817,-2.6841648,1.3321799,1.6929054,-2.2170308,-11.219229,-6.8186865
0.35152647,4.0628533,-2.3890865,1.2714598,1.5054189,-2.111686,-11.137826,-6.7708025
0.35183823,4.059822,-2.3890865,1.2714598,1.5054189,-2.111686,-11.137826,-6.7708025
0.35202673,4.057152,-2.0908124,1.2107397,1.3136714,-2.0973208,-11.051635,-6.8330517
0.35221183,4.054477,-2.0908124,1.2107397,1.3136714,-2.0973208,-11.051635,-6.8330517
0.3522754,4.0521646,-1.7925384,1.1478891,1.1197932,-2.0494366,-11.018116,-6.909666
0.35233623,4.0498505,-1.7925384,1.1478891,1.1197932,-2.0494366,-11.018116,-6.909666
0.35227817,4.0478964,-1.4963949,1.0797122,0.92058873,-2.0446482,-10.960655,-6.9288197
0.35221803,4.0459437,-1.4963949,1.0797122,0.92058873,-2.0446482,-10.960655,-6.9288197
0.35203984,4.044348,-1.202382,1.0072743,0.720319,-2.054225,-10.869676,-7.029376
0.35186017,4.0427513,-1.202382,1.0072743,0.720319,-2.054225,-10.869676,-7.029376
0.3515732,4.041514,-0.91049945,0.9305752,0.52644086,-2.0159178,-10.831368,-7.0820484
0.35128507,4.0402765,-0.91049945,0.9305752,0.52644086,-2.0159178,-10.831368,-7.0820484
0.35089624,4.039394,-0.6239433,0.84854984,0.333628,-2.1021092,-10.7356,-7.0820484
0.35050696,4.038512,-0.6239433,0.84854984,0.333628,-2.1021092,-10.7356,-7.0820484
0.35002404,4.037977,-0.3427135,0.7633287,0.148272,-2.0733786,-10.682928,-7.1059904
0.34954122,4.037443,-0.3427135,0.7633287,0.148272,-2.0733786,-10.682928,-7.1059904
0.34897238,4.0372477,-0.06681002,0.67491174,-0.029627176,-2.15957,-10.46745,-7.120356
0.3484032,4.037053,-0.06681002,0.67491174,-0.029627176,-2.15957,-10.46745,-7.120356
0.34775466,4.0371842,0.20163663,0.583299,-0.19900422,-2.054225,-10.266336,-7.144298
0.34710756,4.0373154,0.20163663,0.583299,-0.19900422,-2.054225,-10.266336,-7.144298
0.34638682,4.0377607,0.46262643,0.4927515,-0.35666338,-2.0494366,-9.988609,-7.1730285
0.34566757,4.038205,0.46262643,0.4927515,-0.35666338,-2.0494366,-9.988609,-7.1730285
0.3448917,4.038964,0.7150941,0.4000735,-0.5047351,-2.0111294,-9.830592,-6.9958572
0.34410793,4.0397296,0.7150941,0.4000735,-0.5047351,-2.0111294,-9.830592,-6.9958572
0.34410793,4.0397296,0.7150941,0.4000735,-0.5047351,-2.0111294,-9.830592,-6.9958572
0.34325293,4.040828,0.9590396,0.309526,-0.6400237,-1.9488802,-9.768343,-6.885724
0.34228265,4.0420732,1.1923325,0.22110906,-0.7614639,-1.982399,-9.77792,-6.7229185
0.34074503,4.0444813,1.1923325,0.22110906,-0.7614639,-1.982399,-9.77792,-6.7229185
0.33985415,4.046107,1.4192339,0.13269211,-0.8743819,-2.0207062,-9.821015,-6.6367273
0.33896035,4.0477333,1.4192339,0.13269211,-0.8743819,-2.0207062,-9.821015,-6.6367273
0.33804742,4.0496387,1.6418742,0.043209895,-0.97451675,-2.0494366,-9.844957,-6.4404025
0.33713275,4.0515423,1.6418742,0.043209895,-0.97451675,-2.0494366,-9.844957,-6.4404025
0.33620673,4.053713,1.8602533,-0.04627232,-1.0629337,-2.0829554,-9.787497,-6.2632318
0.33620673,4.053713,1.8602533,-0.04627232,-1.0629337,-2.0829554,-9.787497,-6.2632318
0.3352786,4.0558805,2.072241,-0.1368198,-1.1364369,-2.1212628,-9.844957,-6.090849
0.33342487,4.060732,2.072241,-0.1368198,-1.1364369,-2.1212628,-9.844957,-6.090849
0.3325047,4.0634046,2.2799675,-0.22843254,-1.2003528,-1.958457,-9.907207,-5.8466406
0.33158118,4.066075,2.2799675,-0.22843254,-1.2003528,-1.958457,-9.907207,-5.8466406
0.33067346,4.068989,2.4855635,-0.31898,-1.2525507,-1.9393034,-9.969456,-5.6790466
0.32976362,4.071894,2.4855635,-0.31898,-1.2525507,-1.9393034,-9.969456,-5.6790466
0.32886967,4.0750403,2.6868987,-0.40846223,-1.2972919,-1.8770541,-9.911995,-5.4922986
0.32796937,4.078191,2.6868987,-0.40846223,-1.2972919,-1.8770541,-9.911995,-5.4922986
0.32709086,4.081563,2.885038,-0.49794444,-1.3356414,-1.7286136,-9.825804,-5.281609
0.32620457,4.0849423,2.885038,-0.49794444,-1.3356414,-1.7286136,-9.825804,-5.281609
0.32620457,4.0849423,2.885038,-0.49794444,-1.3356414,-1.7286136,-9.825804,-5.281609
0.32447895,4.0920753,3.079981,-0.5863614,-1.3697299,-1.5562311,-9.595961,-5.104438
0.32447895,4.0920753,3.079981,-0.5863614,-1.3697299,-1.5562311,-9.595961,-5.104438
0.3234557,4.096628,3.2706635,-0.67477834,-1.4027531,-1.2449849,-9.394848,-4.865018
0.32273814,4.0997934,3.453889,-0.75786895,-1.4336457,-1.043872,-9.102755,-4.687847
0.321858,4.103956,3.453889,-0.75786895,-1.4336457,-1.043872,-9.102755,-4.687847
0.32100895,4.107935,3.453889,-0.75786895,-1.4336457,-1.043872,-9.102755,-4.687847
0.3196076,4.114891,3.6296577,-0.8356333,-1.4656037,-0.90021986,-8.810662,-4.501099
0.31850728,4.120502,3.7905126,-0.90913653,-1.4996921,-0.7469909,-8.528147,-4.357447
0.3176521,4.124872,3.7905126,-0.90913653,-1.4996921,-0.7469909,-8.528147,-4.357447
0.3168014,4.129405,3.9364538,-0.97944397,-1.5316501,-0.6991069,-8.1881695,-4.185065
0.31593838,4.133951,3.9364538,-0.97944397,-1.5316501,-0.6991069,-8.1881695,-4.185065
0.31508133,4.138636,4.0664163,-1.0508167,-1.5646733,-0.6512229,-7.9008656,-3.9983168
0.314214,4.143321,4.0664163,-1.0508167,-1.5646733,-0.6512229,-7.9008656,-3.9983168
0.31334618,4.1481485,4.179334,-1.1232547,-1.5976964,-0.51235914,-7.6949644,-3.8594532
0.31247193,4.152952,4.179334,-1.1232547,-1.5976964,-0.51235914,-7.6949644,-3.8594532
0.3116049,4.157895,4.2773385,-1.1956927,-1.6253934,-0.48362875,-7.536947,-3.6152446
0.31072825,4.1628275,4.2773385,-1.1956927,-1.6253934,-0.48362875,-7.536947,-3.6152446
0.3098693,4.167876,4.3593636,-1.2670654,-1.652025,-0.40222588,-7.5561004,-3.1842883
0.30900094,4.1729093,4.3593636,-1.2670654,-1.652025,-0.40222588,-7.5561004,-3.1842883
0.3081511,4.1780562,4.4296713,-1.3363075,-1.6722649,-0.272939,-7.560889,-2.705448
0.3072897,4.183199,4.4296713,-1.3363075,-1.6722649,-0.272939,-7.560889,-2.705448
0.306455,4.1884117,4.4914565,-1.4034193,-1.6850481,-0.23463176,-7.6231384,-2.2936451
0.30560505,4.193641,4.4914565,-1.4034193,-1.6850481,-0.23463176,-7.6231384,-2.2936451
0.30478418,4.1989336,4.5489807,-1.4662699,-1.6935703,-0.24899697,-7.762002,-1.8195933
0.3039495,4.2042327,4.5489807,-1.4662699,-1.6935703,-0.24899697,-7.762002,-1.8195933
0.30313855,4.2095966,4.603309,-1.5259247,-1.696766,-0.2777274,-7.872135,-1.5131354
0.30231506,4.2149577,4.603309,-1.5259247,-1.696766,-0.2777274,-7.872135,-1.5131354
0.30151927,4.220392,4.657638,-1.5834489,-1.692505,-0.30645782,-8.063671,-1.1204864
0.30071008,4.225828,4.657638,-1.5834489,-1.692505,-0.30645782,-8.063671,-1.1204864
0.2999305,4.231329,4.7109013,-1.6377774,-1.6797218,-0.39743748,-8.135497,-0.93373865
0.29914197,4.236799,4.7109013,-1.6377774,-1.6797218,-0.39743748,-8.135497,-0.93373865
0.29914197,4.236799,4.7109013,-1.6377774,-1.6797218,-0.39743748,-8.135497,-0.93373865
0.2976364,4.2478924,4.762034,-1.6931711,-1.660547,-0.92416185,-8.307879,-0.7661445
0.29692024,4.253498,4.809971,-1.7560217,-1.6328502,-0.93373865,-8.561666,-0.49320555
0.29619086,4.259101,4.809971,-1.7560217,-1.6328502,-0.93373865,-8.561666,-0.49320555
0.29550776,4.2647543,4.8568425,-1.8273945,-1.5966312,-0.56982,-8.858546,-0.25378537
0.2948101,4.2704105,4.8568425,-1.8273945,-1.5966312,-0.56982,-8.858546,-0.25378537
0.2941693,4.276121,4.9058447,-1.8998325,-1.5561512,-0.5793968,-9.078813,-0.062249243
0.29351503,4.2818236,4.9058447,-1.8998325,-1.5561512,-0.5793968,-9.078813,-0.062249243
0.292918,4.2876067,4.952716,-1.9680094,-1.51141,-0.7182605,-9.26556,0.15322891
0.2923065,4.2933874,4.952716,-1.9680094,-1.51141,-0.7182605,-9.26556,0.15322891
0.29176253,4.2991853,4.9995875,-2.038317,-1.4613426,-0.8475474,-9.332599,0.29209262
0.29119885,4.3050337,4.9995875,-2.038317,-1.4613426,-0.8475474,-9.332599,0.29209262
0.2907,4.310921,5.045394,-2.1096895,-1.4091446,-0.93852705,-9.390059,0.31603462
0.29018748,4.316789,5.045394,-2.1096895,-1.4091446,-0.93852705,-9.390059,0.31603462
0.29018748,4.316789,5.045394,-2.1096895,-1.4091446,-0.93852705,-9.390059,0.31603462
0.28926894,4.328662,5.0880046,-2.1821275,-1.3569467,-0.9864111,-9.437943,0.38307226
0.28886715,4.334651,5.126354,-2.2545655,-1.3004876,-1.0390835,-9.562442,0.47405192
0.2884494,4.3406377,5.126354,-2.2545655,-1.3004876,-1.0390835,-9.562442,0.47405192
0.28809616,4.3466587,5.160443,-2.3259382,-1.2429634,-1.0342951,-9.662998,0.5410896
0.2877263,4.3526835,5.160443,-2.3259382,-1.2429634,-1.0342951,-9.662998,0.5410896
0.28741992,4.358747,5.1934657,-2.3941152,-1.1854391,-1.0486604,-9.753978,0.7182605
0.28709695,4.3648086,5.1934657,-2.3941152,-1.1854391,-1.0486604,-9.753978,0.7182605
0.28683177,4.370928,5.2275543,-2.458031,-1.1300454,-1.1013328,-9.768343,0.7517793
0.28654942,4.3770456,5.2275543,-2.458031,-1.1300454,-1.1013328,-9.768343,0.7517793
0.28632444,4.383202,5.261643,-2.5187511,-1.0746516,-1.1587936,-9.825804,0.8475474
0.28608203,4.3893576,5.261643,-2.5187511,-1.0746516,-1.1587936,-9.825804,0.8475474
0.28589013,4.3955517,5.2967963,-2.57521,-1.0235189,-1.1875241,-9.859323,0.9528923
0.28568053,4.401751,5.2967963,-2.57521,-1.0235189,-1.1875241,-9.859323,0.9528923
0.28551725,4.407996,5.33195,-2.631669,-0.975582,-1.1971009,-9.902418,1.0965444
0.28533596,4.414241,5.33195,-2.631669,-0.975582,-1.1971009,-9.902418,1.0965444
0.28519168,4.4206104,5.3649735,-2.682802,-0.93190616,-1.2018893,-9.902418,1.1492168
0.2850329,4.426821,5.3649735,-2.682802,-0.93190616,-1.2018893,-9.902418,1.1492168
0.28490287,4.433147,5.400127,-2.7328694,-0.8946219,-1.1204864,-9.964667,1.2545617
0.284754,4.439478,5.400127,-2.7328694,-0.8946219,-1.1204864,-9.964667,1.2545617
0.28462872,4.445852,5.4331503,-2.7797408,-0.86372924,-1.0151415,-9.782708,1.4221559
0.28448424,4.452231,5.4331503,-2.7797408,-0.86372924,-1.0151415,-9.782708,1.4221559
0.28435045,4.458646,5.4619126,-2.8223515,-0.8360324,-0.50278234,-9.849746,1.5801731
0.28419736,4.4650474,5.4619126,-2.8223515,-0.8360324,-0.50278234,-9.849746,1.5801731
0.28406137,4.4714913,5.4821525,-2.8543093,-0.8136618,-0.93852705,-8.959103,1.2737153
