Pitch,Roll,Gyro_X,Gyro_Y,Gyro_Z,Accel_X,Accel_Y,Accel_Z
6.126187,2.7186391,-3.816879,-0.18101063,-1.9563128,2.3161373,-13.154209,10.050065
6.1271286,2.7146196,-3.816879,-0.18101063,-1.9563128,2.3252869,-13.190399,10.0352745
6.12808,2.7105927,-3.8349884,-0.17674957,-1.9797486,2.2627153,-13.360679,10.044263
6.1290464,2.7065358,-3.8349884,-0.17674957,-1.9797486,2.272108,-13.397095,10.029032
6.1300254,2.7024696,-3.8552284,-0.17355378,-2.0074453,2.2720528,-13.428754,9.879561
6.1310196,2.6983728,-3.8552284,-0.17355378,-2.0074453,2.281721,-13.465417,9.863894
6.132027,2.6942725,-3.877599,-0.17248851,-2.0340772,2.2005405,-13.569096,9.972565
6.133044,2.6901662,-3.877599,-0.17248851,-2.0340772,2.2104301,-13.60573,9.956557
6.134076,2.6860347,-3.9021,-0.17035799,-2.0564475,2.1294985,-13.771819,9.9642515
6.1351132,2.6819177,-3.9021,-0.17035799,-2.0564475,2.1395903,-13.808431,9.94791
6.1361613,2.6777878,-3.9276664,-0.16929272,-2.074557,2.140213,-13.974375,9.926565
6.137225,2.6736274,-3.9276664,-0.16929272,-2.074557,2.1505728,-14.01125,9.909743
6.138295,2.6694658,-3.9532328,-0.1671622,-2.0884056,2.1418333,-14.124678,10.079499
6.1393785,2.6652815,-3.9532328,-0.1671622,-2.0884056,2.1523857,-14.161624,10.062254
6.140467,2.6610844,-3.978799,-0.16183588,-2.0990582,2.1629848,-14.27523,10.212387
6.141563,2.65689,-3.978799,-0.16183588,-2.0990582,2.1736593,-14.312132,10.194783
6.142661,2.6526847,-4.002235,-0.15437903,-2.1086457,2.165207,-14.483129,10.349344
6.143774,2.6484566,-4.002235,-0.15437903,-2.1086457,2.176046,-14.520178,10.3312645
6.144887,2.6442263,-4.0214095,-0.1458569,-2.118233,2.1964679,-14.715182,10.499744
6.1460133,2.6399775,-4.0214095,-0.1458569,-2.118233,2.2074494,-14.752268,10.481251
6.1471367,2.6357358,-4.0363235,-0.13626952,-2.1246245,2.2136116,-15.004686,10.606258
6.1482677,2.6314964,-4.0363235,-0.13626952,-2.1246245,2.224638,-15.04153,10.587467
6.1493993,2.6272583,-4.0437803,-0.12561688,-2.1331468,2.2213073,-15.308126,10.769625
6.150548,2.6229892,-4.0437803,-0.12561688,-2.1331468,2.2325096,-15.345076,10.750368
6.1516924,2.6187506,-4.0437803,-0.11709477,-2.1406035,2.2101574,-15.534908,10.802914
6.152861,2.614455,-4.0437803,-0.11709477,-2.1406035,2.221558,-15.571922,10.783215
6.1540046,2.6102822,-4.0363235,-0.10857265,-2.151256,2.218348,-15.722724,10.845312
6.155169,2.606061,-4.0363235,-0.10857265,-2.151256,2.2297125,-15.758939,10.825628
6.1563444,2.6018398,-4.0203443,-0.10005054,-2.1619089,2.2076683,-15.881275,10.863262
6.157525,2.5976295,-4.0203443,-0.10005054,-2.1619089,2.219195,-15.91724,10.843317
6.158716,2.593433,-3.9958434,-0.09365895,-2.1714962,2.2882843,-16.034416,10.784981
6.1599116,2.5892513,-3.9958434,-0.09365895,-2.1714962,2.2999554,-16.069983,10.764872
6.1611195,2.585098,-3.9649508,-0.091528416,-2.182149,2.340478,-16.268036,10.706442
6.1623344,2.5809476,-3.9649508,-0.091528416,-2.182149,2.3523512,-16.303183,10.686188
6.163558,2.576837,-3.9266012,-0.08726736,-2.190671,2.3930311,-16.35228,10.622892
6.164794,2.5727134,-3.9266012,-0.08726736,-2.190671,2.4051085,-16.387049,10.60248
6.166025,2.5686684,-3.88186,-0.07981051,-2.1981277,2.3788338,-16.44023,10.505703
6.1672688,2.5646102,-3.88186,-0.07981051,-2.1981277,2.390986,-16.474287,10.485327
6.1685157,2.5606048,-3.8307273,-0.07341892,-2.2013235,2.4414825,-16.498255,10.503395
6.1697702,2.556602,-3.8307273,-0.07341892,-2.2013235,2.4537473,-16.531694,10.4830265
6.17234,2.5485566,-3.7742684,-0.06702734,-2.2002583,2.5315409,-16.550793,10.317167
6.17234,2.5485566,-3.7742684,-0.06702734,-2.2002583,2.5315409,-16.550793,10.317167
6.17234,2.5485566,-3.7742684,-0.06702734,-2.2002583,2.5315409,-16.550793,10.317167
6.1749053,2.540701,-3.7146134,-0.059570484,-2.2002583,2.714655,-16.577585,10.247532
6.176126,2.537027,-3.6485672,-0.047852576,-2.1970625,2.8079967,-16.531315,10.194696
6.176126,2.537027,-3.6485672,-0.047852576,-2.1970625,2.821435,-16.565163,10.172956
6.1774993,2.5329175,-3.6485672,-0.047852576,-2.1970625,2.821435,-16.565163,10.172956
6.1797643,2.5262432,-3.5825207,-0.035069402,-2.1917362,2.90585,-16.605597,10.055923
6.181235,2.5219617,-3.5132785,-0.020155702,-2.182149,2.9537668,-16.63105,9.994574
6.181235,2.5219617,-3.5132785,-0.020155702,-2.182149,2.9537668,-16.63105,9.994574
6.183773,2.5146532,-3.4419057,-0.002046205,-2.170431,3.0025578,-16.63315,9.930901
6.183773,2.5146532,-3.4419057,-0.002046205,-2.170431,3.015081,-16.662735,9.910927
6.185052,2.51101,-3.4419057,-0.002046205,-2.170431,3.015081,-16.662735,9.910927
6.187551,2.5039659,-3.3673372,0.017128555,-2.1565824,3.0251884,-16.54255,9.89591
6.1887107,2.5007267,-3.2906382,0.03736858,-2.1395383,2.9838734,-16.496834,9.935308
6.18993,2.4973388,-3.2906382,0.03736858,-2.1395383,2.995822,-16.524076,9.9163265
6.18993,2.4973388,-3.2906382,0.03736858,-2.1395383,2.995822,-16.524076,9.9163265
6.192361,2.4906507,-3.2139392,0.055478074,-2.1203635,3.0196376,-16.438805,9.758829
6.1935296,2.4874587,-3.1372402,0.073587574,-2.0969276,3.0933418,-16.358946,9.8364315
6.1947203,2.4842231,-3.1372402,0.073587574,-2.0969276,3.1050148,-16.384716,9.817923
6.195898,2.4810429,-3.0584106,0.090631805,-2.0734918,3.1835942,-16.223236,9.919344
6.1970778,2.4778743,-3.0584106,0.090631805,-2.0734918,3.1951585,-16.24835,9.901035
6.198233,2.474781,-2.979581,0.1087413,-2.045795,3.211277,-16.133945,9.839989
6.1994014,2.4716716,-2.979581,0.1087413,-2.045795,3.2227297,-16.158474,9.821861
6.200535,2.4686644,-2.898621,0.12578553,-2.0159676,3.3056712,-16.01933,9.832966
6.201669,2.4656713,-2.898621,0.12578553,-2.0159676,3.316794,-16.042831,9.815355
6.202783,2.462749,-2.818726,0.14069924,-1.9872054,3.3037748,-15.936434,9.841173
6.2038994,2.4598343,-2.818726,0.14069924,-1.9872054,3.3147278,-15.959209,9.823877
6.204994,2.4569957,-2.7367008,0.15241714,-1.9552475,3.3494105,-15.751497,9.88357
6.2060914,2.4541645,-2.7367008,0.15241714,-1.9552475,3.3601751,-15.773518,9.866623
6.2071657,2.4514182,-2.652545,0.16200452,-1.9222243,3.38029,-15.627238,9.816599
6.2082443,2.4486735,-2.652545,0.16200452,-1.9222243,3.390874,-15.648494,9.800049
6.2092967,2.4460242,-2.5651932,0.16733085,-1.88494,3.4299302,-15.391237,9.898926
6.2103577,2.443366,-2.5651932,0.16733085,-1.88494,3.440341,-15.411733,9.882771
6.211393,2.4408076,-2.4746456,0.17052664,-1.8465905,3.498385,-15.330862,9.848005
6.212431,2.4382532,-2.4746456,0.17052664,-1.8465905,3.508573,-15.350475,9.8323765
6.21345,2.4357915,-2.3798373,0.17052664,-1.808241,3.523363,-15.216109,9.922602
6.21345,2.4357915,-2.3798373,0.17052664,-1.808241,3.523363,-15.216109,9.922602
6.215526,2.4308333,-2.2807677,0.16839612,-1.767761,3.5533252,-15.081608,10.021294
6.2165637,2.4284017,-2.2807677,0.16839612,-1.767761,3.5635102,-15.100127,10.006214
6.217482,2.42631,-2.174241,0.15987399,-1.7251503,3.682658,-14.95802,10.103344
6.2184615,2.4240873,-2.174241,0.15987399,-1.7251503,3.692279,-14.9748955,10.089489
6.219434,2.421963,-2.060258,0.14815608,-1.6836051,3.6587276,-14.89523,10.272539
6.2204103,2.4198382,-2.060258,0.14815608,-1.6836051,3.6683156,-14.911309,10.259228
6.2213683,2.417841,-1.9377525,0.13430765,-1.6377987,3.7782822,-14.878527,10.447809
6.2223287,2.415845,-1.9377525,0.13430765,-1.6377987,3.7877178,-14.893585,10.435244
6.223277,2.4139814,-1.8045944,0.11619815,-1.590927,3.749149,-15.065655,10.662924
6.224227,2.4121213,-1.8045944,0.11619815,-1.590927,3.7584772,-15.079661,10.651176
6.225163,2.4104083,-1.6607836,0.09276233,-1.5419248,3.9448445,-15.049461,10.788792
6.2260995,2.4086998,-1.6607836,0.09276233,-1.5419248,3.9540462,-15.062301,10.777975
6.2270207,2.4071448,-1.5063204,0.070391774,-1.4875964,3.9822497,-14.944701,10.78249
6.227945,2.4055893,-1.5063204,0.070391774,-1.4875964,3.9913301,-14.956376,10.772614
6.2288485,2.4042032,-1.3422697,0.05121702,-1.4343332,3.9618962,-14.92848,10.850008
6.2297506,2.402822,-1.3422697,0.05121702,-1.4343332,3.9707632,-14.938843,10.84124
6.2306385,2.4016092,-1.1718273,0.032042257,-1.3832005,3.9603336,-14.947961,10.766508
6.231525,2.4004006,-1.1718273,0.032042257,-1.3832005,3.9690456,-14.957031,10.758829
6.232389,2.3993697,-0.99925447,0.013932762,-1.3299372,3.9823244,-14.892971,10.661333
6.233254,2.3983397,-0.99925447,0.013932762,-1.3299372,3.9908254,-14.900716,10.654795
6.234094,2.3974848,-0.82561636,-0.0031114696,-1.2702824,3.9272552,-14.8066225,10.644627
6.234934,2.3966315,-0.82561636,-0.0031114696,-1.2702824,3.9355104,-14.813061,10.639235
6.2357454,2.3959546,-0.6530435,-0.018025171,-1.2106277,3.8525028,-14.736803,10.491346
6.2365294,2.3953016,-0.6530435,-0.018025171,-1.2106277,3.8602085,-14.741764,10.487257
6.2373395,2.3947825,-0.4826012,-0.035069402,-1.1499076,3.8107128,-14.54465,10.321266
6.2381225,2.3942819,-0.4826012,-0.035069402,-1.1499076,3.8184087,-14.548498,10.318174
6.238877,2.3939521,-0.3142894,-0.05637469,-1.0849264,3.811462,-14.378719,10.335367
6.2396326,2.3936224,-0.3142894,-0.05637469,-1.0849264,3.8188894,-14.381315,10.333405
6.2403607,2.393463,-0.14704289,-0.08300631,-1.0167495,3.9122407,-14.114525,10.409174
6.2410884,2.3933034,-0.14704289,-0.08300631,-1.0167495,3.919396,-14.115882,10.408339
6.2417874,2.3933125,0.019138372,-0.11176845,-0.942181,3.9980886,-13.948418,10.633657
6.242486,2.3933218,0.019138372,-0.11176845,-0.942181,4.004959,-13.948543,10.633926
6.2431517,2.3934987,0.18531963,-0.14266111,-0.8612209,4.0881186,-13.832526,11.004017
6.2438188,2.3936763,0.18531963,-0.14266111,-0.8612209,4.094675,-13.831421,11.005388
6.24445,2.3940256,0.35576195,-0.17461905,-0.7749345,4.2014427,-13.829066,11.54899
6.2450814,2.394375,0.35576195,-0.17461905,-0.7749345,4.207651,-13.826712,11.551502
6.2456737,2.3949063,0.5368569,-0.20338118,-0.68438697,4.314028,-13.899642,12.306995
6.2462645,2.3954372,0.5368569,-0.20338118,-0.68438697,4.31984,-13.895955,12.310698
6.246815,2.3961666,0.7328656,-0.23107806,-0.59170896,4.373141,-13.986591,13.115374
6.2473655,2.3968952,0.7328656,-0.23107806,-0.59170896,4.3785477,-13.981458,13.120377
6.247868,2.3978374,0.9469837,-0.25557914,-0.49583519,4.388282,-14.089683,13.758856
6.2483726,2.398783,0.9469837,-0.25557914,-0.49583519,4.393241,-14.082953,13.76527
6.248808,2.399909,1.1834724,-0.2779497,-0.40209192,4.4262547,-14.208971,14.342686
6.2492886,2.401152,1.1834724,-0.2779497,-0.40209192,4.4309826,-14.20006,14.351059
6.249696,2.4025955,1.4423317,-0.2960592,-0.30621812,4.2961226,-14.323741,14.8204155
6.250101,2.404032,1.4423317,-0.2960592,-0.30621812,4.300107,-14.31338,14.830025
6.250455,2.4057572,1.7224963,-0.31310344,-0.2071485,4.2078156,-14.545097,15.085709
6.250811,2.4074943,1.7224963,-0.31310344,-0.2071485,4.2113185,-14.532497,15.097244
6.2511086,2.4095242,2.0229008,-0.33014765,-0.102752596,4.051442,-14.642225,15.263912
6.2514067,2.4115522,2.0229008,-0.33014765,-0.102752596,4.0543694,-14.6274395,15.277298
6.251646,2.4139078,2.3424802,-0.34612662,0.004839113,3.9130762,-14.849632,15.302364
6.2518854,2.4162583,2.3424802,-0.34612662,0.004839113,3.9154308,-14.832398,15.317776
6.2520647,2.4189496,2.676973,-0.36210558,0.11669188,3.687351,-15.0616045,15.297041
6.2522464,2.42166,2.676973,-0.36210558,0.11669188,3.6891325,-15.04162,15.314684
6.2523623,2.4246833,3.023184,-0.38021508,0.2360015,3.517893,-15.320926,15.19063
6.252481,2.4277437,3.023184,-0.38021508,0.2360015,3.5190616,-15.298231,15.210398
6.252531,2.4311252,3.3789825,-0.39725932,0.36276796,3.213096,-15.536423,15.0837
6.2525835,2.434524,3.3789825,-0.39725932,0.36276796,3.2136111,-15.511058,15.105469
6.252568,2.438291,3.7390418,-0.41643408,0.49379548,3.0267107,-15.736626,14.933153
6.252555,2.4420543,3.7390418,-0.41643408,0.49379548,3.0265837,-15.708348,14.957035
6.252473,2.4461908,4.103362,-0.43773937,0.6312146,2.930006,-15.887839,14.676695
6.2523937,2.4503276,4.103362,-0.43773937,0.6312146,2.9292278,-15.856531,14.702679
6.252247,2.4548337,4.467683,-0.45797938,0.7686337,2.697941,-15.970731,14.52491
6.252104,2.4593399,4.467683,-0.45797938,0.7686337,2.6965368,-15.936373,14.552914
6.251894,2.4642005,4.826677,-0.47715417,0.9071181,2.5077238,-16.023651,14.415312
6.2516885,2.469081,4.826677,-0.47715417,0.9071181,2.505703,-15.986137,14.445257
6.251416,2.4743075,5.178214,-0.49313313,1.0434719,2.4886582,-16.003248,14.41007
6.2511497,2.4795346,5.178214,-0.49313313,1.0434719,2.4860375,-15.962735,14.441721
6.2508216,2.4851062,5.5180335,-0.5101774,1.1755648,2.554635,-15.919357,14.389008
6.2505,2.4906788,5.5180335,-0.5101774,1.1755648,2.5514781,-15.8757925,14.422258
6.2501206,2.496584,5.8472004,-0.5240258,1.301266,2.7344916,-15.781526,14.505087
6.249749,2.5024903,5.8472004,-0.5240258,1.301266,2.7308373,-15.734935,14.53978
6.249326,2.508715,6.1614532,-0.5357437,1.4152492,3.0283496,-15.60899,14.528141
6.248913,2.5149405,6.1614532,-0.5357437,1.4152492,3.0242822,-15.559428,14.564085
6.248452,2.5214553,6.4597273,-0.5389395,1.51858,2.9527116,-15.593511,14.582207
6.2479997,2.5279975,6.4597273,-0.5389395,1.51858,2.9482603,-15.540943,14.619297
6.2474995,2.5348086,6.744153,-0.53148264,1.6133884,2.5985796,-15.725373,14.576134
6.24701,2.541621,6.744153,-0.53148264,1.6133884,2.5937707,-15.670112,14.614
6.2464743,2.54872,7.0125995,-0.5218953,1.7028706,2.3826008,-15.86125,14.69615
6.2459583,2.5557137,7.0125995,-0.5218953,1.7028706,2.3775256,-15.803978,14.734228
6.2453885,2.5630631,7.264002,-0.50911206,1.789157,2.5251498,-16.078686,14.54394
6.2448225,2.5705388,7.264002,-0.50911206,1.789157,2.519583,-16.016874,14.583727
6.2442217,2.5781279,7.497295,-0.4878068,1.8626603,2.5663488,-16.360834,14.393791
6.243632,2.5857565,7.497295,-0.4878068,1.8626603,2.5605485,-16.297148,14.43342
6.243004,2.5934849,7.708217,-0.45371833,1.9244456,2.5208578,-16.687218,14.123501
6.2423806,2.6013398,7.708217,-0.45371833,1.9244456,2.514731,-16.621014,14.163263
6.2417164,2.6093354,7.891443,-0.4100425,1.970252,2.2400465,-16.955528,13.81534
6.2410674,2.6173246,7.891443,-0.4100425,1.970252,2.2336702,-16.887554,13.854698
6.24037,2.625476,8.041645,-0.355714,2.0054057,1.9059873,-17.138697,13.568659
6.239688,2.6336288,8.041645,-0.355714,2.0054057,1.8992853,-17.068687,13.607687
6.238957,2.6418827,8.155628,-0.2928634,2.0320373,1.441989,-17.19859,13.186895
6.2382345,2.650221,8.155628,-0.2928634,2.0320373,1.4348874,-17.126328,13.225592
6.2374663,2.6585732,8.232327,-0.22575174,2.0533426,0.99637604,-17.048832,12.832766
6.236718,2.6668773,8.232327,-0.22575174,2.0533426,0.98902416,-16.976233,12.870075
6.2359176,2.6752708,8.268546,-0.15864009,2.0661259,0.6315999,-16.825914,12.346903
6.2351336,2.683658,8.268546,-0.15864009,2.0661259,0.6238928,-16.75196,12.383329
6.2343016,2.69205,8.262155,-0.090463154,2.0714521,0.43854856,-16.419079,11.844521
6.2334867,2.7004359,8.262155,-0.090463154,2.0714521,0.43053865,-16.344532,11.879669
6.232629,2.708779,8.208892,-0.02441676,2.0671911,0.41253042,-15.872626,11.406414
6.232629,2.708779,8.208892,-0.02441676,2.0671911,0.41253042,-15.872626,11.406414
6.2313933,2.7210732,8.105561,0.042694904,2.0501468,0.40039206,-15.762386,11.455843
6.2300644,2.7336547,8.105561,0.042694904,2.0501468,0.6363287,-15.064747,11.131475
6.2291627,2.7417173,7.9542933,0.11193709,2.0235152,0.71844864,-14.522451,10.774325
6.2282734,2.7497988,7.9542933,0.11193709,2.0235152,0.7097125,-14.449007,10.804493
6.227346,2.7577004,7.7582846,0.18117929,1.9894269,0.65750074,-13.912471,10.488622
6.2264323,2.7656045,7.7582846,0.18117929,1.9894269,0.6485281,-13.840168,10.516953
6.2254896,2.7732627,7.5207305,0.24509515,1.9468162,0.62010956,-13.382032,10.390584
6.224558,2.7809384,7.5207305,0.24509515,1.9468162,0.61095715,-13.311395,10.416963
6.223602,2.7883332,7.248023,0.30261943,1.897814,0.8649297,-12.922319,10.18804
6.222657,2.7957375,7.248023,0.30261943,1.897814,0.85564995,-12.8538,10.212424
6.221695,2.802833,6.9476185,0.3548174,1.8413551,0.84620047,-12.414463,9.986274
6.220744,2.8099308,6.9476185,0.3548174,1.8413551,0.8368645,-12.348444,10.008664
6.220744,2.8099308,6.9476185,0.3548174,1.8413551,0.8368645,-12.348444,10.008664
6.220744,2.8099308,6.623778,0.40062377,1.7774391,0.8368645,-12.348444,10.008664
6.220744,2.8099308,6.2796974,0.43790802,1.7039359,0.8368645,-12.348444,10.008664
6.2168627,2.8358922,6.2796974,0.43790802,1.7039359,0.8849397,-11.334653,9.43019
6.2168627,2.8358922,5.918573,0.4656049,1.6251063,0.8849397,-11.334653,9.43019
6.215826,2.842587,5.918573,0.4656049,1.6251063,0.7933569,-10.859899,9.085193
6.214919,2.8485007,5.5382733,0.48477966,1.5388199,0.9528341,-10.134176,8.580245
6.2140236,2.8540437,5.5382733,0.48477966,1.5388199,0.9439287,-10.080641,8.595264
6.21224,2.8648965,5.138799,0.4954323,1.446142,1.2274218,-9.270162,7.833
6.21224,2.8648965,5.138799,0.4954323,1.446142,1.218574,-9.219149,7.8466845
6.2113385,2.8702774,5.138799,0.4954323,1.446142,1.218574,-9.219149,7.8466845
6.209599,2.88007,4.7126937,0.49969336,1.341746,1.8431458,-8.173216,6.688051
6.208773,2.884414,4.2535644,0.49436703,1.2203058,2.759204,-7.193332,5.3911686
6.208773,2.884414,4.2535644,0.49436703,1.2203058,2.759204,-7.193332,5.3911686
6.207732,2.889925,4.2535644,0.49436703,1.2203058,2.7489915,-7.1408033,5.404035
6.2063785,2.896561,3.7496946,0.47945333,1.0807562,3.616776,-6.2298956,4.1453447
6.205657,2.8998365,3.2010832,0.4496259,0.9167055,4.241764,-5.480313,2.8884141
6.204925,2.903173,3.2010832,0.4496259,0.9167055,4.2345824,-5.448389,2.8956516
6.2042775,2.9059052,2.6098616,0.39955848,0.7345453,5.1188774,-5.1732216,2.1113758
6.2042775,2.9059052,2.6098616,0.39955848,0.7345453,5.1188774,-5.1732216,2.1113758
6.203536,2.9090452,2.6098616,0.39955848,0.7345453,5.1116023,-5.143127,2.1179612
6.202529,2.9129443,1.9845513,0.3367079,0.5427977,5.4129734,-5.024312,1.2209213
6.2021093,2.914368,1.3411316,0.26000884,0.34039742,6.14148,-4.9292316,0.3953557
6.201686,2.9158046,1.3411316,0.26000884,0.34039742,6.137325,-4.9154253,0.39818943
6.201396,2.9165583,0.6838634,0.17052664,0.123083465,6.9341516,-4.6974797,-0.17978203
6.201106,2.9173129,0.6838634,0.17052664,0.123083465,6.931305,-4.690213,-0.17836018
6.200952,2.9173834,0.020203635,0.08210969,-0.10488313,7.432576,-4.6176844,-0.44647506
6.2007976,2.9174542,0.020203635,0.08210969,-0.10488313,7.431061,-4.6169806,-0.44644374
6.200775,2.916844,-0.64239085,0.0011495883,-0.34350237,7.617592,-4.627601,-0.44779488
6.200753,2.9162328,-0.64239085,0.0011495883,-0.34350237,7.6173735,-4.633437,-0.44914737
6.200858,2.9149458,-1.299659,-0.07128839,-0.58957845,7.5705204,-4.736735,-0.13585982
6.200964,2.913658,-1.299659,-0.07128839,-0.58957845,7.571562,-4.749062,-0.1386224
6.2011933,2.9117162,-1.9409482,-0.1373348,-0.8367198,7.229047,-5.0310116,0.31213725
6.201425,2.9097729,-1.9409482,-0.1373348,-0.8367198,7.2313128,-5.0496044,0.30795807
6.20178,2.9071958,-2.5577364,-0.20125066,-1.0774696,6.7511654,-5.371144,1.0062889
6.202137,2.9046242,-2.5577364,-0.20125066,-1.0774696,6.7546654,-5.395734,1.0006748
6.202614,2.901453,-3.144697,-0.26197073,-1.3054361,6.4241514,-5.7995386,1.5012658
6.2030954,2.8982763,-3.144697,-0.26197073,-1.3054361,6.4288816,-5.829883,1.4941778
6.2036934,2.8945432,-3.696504,-0.3226908,-1.5152932,6.099558,-6.138456,1.8688169
6.2042975,2.8908076,-3.696504,-0.3226908,-1.5152932,6.105485,-6.174088,1.8602467
6.20502,2.8865397,-4.212092,-0.3855414,-1.7091714,6.0742655,-6.487701,2.1902864
6.2057567,2.8822308,-4.212092,-0.3855414,-1.7091714,6.0814896,-6.5287232,2.1800761
6.206689,2.8769884,-4.695722,-0.4494573,-1.8838748,6.2725954,-6.942502,2.4691057
6.207451,2.872747,-4.695722,-0.4494573,-1.8838748,6.2800665,-6.982797,2.4586859
6.208412,2.8675652,-5.1495247,-0.51337314,-2.037273,5.93995,-7.247448,2.3834891
6.209389,2.8623543,-5.1495247,-0.51337314,-2.037273,5.949543,-7.296834,2.3702154
6.210492,2.8567007,-5.5788264,-0.593268,-2.1778877,6.707348,-7.508361,2.8966184
6.2116065,2.851044,-5.5788264,-0.593268,-2.1778877,6.7182903,-7.561822,2.881631
6.2128444,2.8449843,-5.988953,-0.669967,-2.2993279,6.366521,-8.0308075,3.708002
6.2140965,2.8389156,-5.988953,-0.669967,-2.2993279,6.378811,-8.0879755,3.6912332
6.21546,2.8324683,-6.3809705,-0.73494816,-2.4015932,5.434515,-8.641813,4.472712
6.2168384,2.8260179,-6.3809705,-0.73494816,-2.4015932,5.4480486,-8.702358,4.454119
6.2183366,2.8192058,-6.749552,-0.8105819,-2.484684,4.620002,-9.422183,5.3390703
6.219857,2.8123634,-6.749552,-0.8105819,-2.484684,4.6349335,-9.486146,5.318469
6.221494,2.8052354,-7.0872407,-0.9043252,-2.545404,4.5169344,-10.189495,6.407466
6.223158,2.7980614,-7.0872407,-0.9043252,-2.545404,4.5332775,-10.256256,6.384905
6.22494,2.790613,-7.3887105,-1.0023296,-2.5805578,4.488532,-11.019726,7.419221
6.2267394,2.7831614,-7.3887105,-1.0023296,-2.5805578,4.5062075,-11.088724,7.3947477
6.2286468,2.775448,-7.651831,-1.0907465,-2.5890799,4.1227207,-11.959616,8.393576
6.2305694,2.7677393,-7.651831,-1.0907465,-2.5890799,4.141613,-12.0306015,8.36713
6.2325764,2.75982,-7.873406,-1.169576,-2.5709703,4.0847225,-12.83115,9.206074
6.234605,2.7518811,-7.873406,-1.169576,-2.5709703,4.104657,-12.903809,9.177629
6.236694,2.74379,-8.054501,-1.2388183,-2.5283597,3.9336543,-13.537872,9.9524765
6.2387996,2.7356946,-8.054501,-1.2388183,-2.5283597,3.9543533,-13.611473,9.922222
6.240946,2.7274642,-8.196181,-1.2910162,-2.4623134,3.4535174,-14.217556,10.498938
6.2431064,2.719238,-8.196181,-1.2910162,-2.4623134,3.4747605,-14.291818,10.4668865
6.245282,2.710942,-8.296316,-1.3368225,-2.3770921,3.5488243,-14.768651,11.128216
6.2474847,2.7025998,-8.296316,-1.3368225,-2.3770921,3.5704794,-14.843384,11.094387
6.249686,2.6942275,-8.357036,-1.3751721,-2.2780225,3.774084,-15.128775,11.586479
6.2518973,2.6858668,-8.357036,-1.3751721,-2.2780225,3.7958364,-15.203068,11.551241
6.2540855,2.6775029,-8.383668,-1.3943468,-2.1672351,3.5923018,-15.49255,11.79303
6.2563004,2.669083,-8.383668,-1.3943468,-2.1672351,3.61409,-15.566726,11.756187
6.2584686,2.660711,-8.382603,-1.3996732,-2.0511212,3.333747,-15.855631,12.097179
6.2606506,2.652325,-8.382603,-1.3996732,-2.0511212,3.3552122,-15.928846,12.059164
6.2627773,2.6440153,-8.351709,-1.4018037,-1.9318117,3.4671135,-16.168648,12.39912
6.2648954,2.6357746,-8.351709,-1.4018037,-1.9318117,3.4879498,-16.239925,12.360481
6.266986,2.627485,-8.295251,-1.3964773,-1.8114368,3.7383618,-16.411835,12.565191
6.269115,2.6190732,-8.295251,-1.3964773,-1.8114368,3.7593107,-16.483885,12.524464
6.271143,2.6108823,-8.217486,-1.3815637,-1.6921271,3.894186,-16.596785,12.618265
6.273167,2.6027339,-8.217486,-1.3815637,-1.6921271,3.9141006,-16.665878,12.577585
6.275123,2.5946524,-8.119482,-1.3559973,-1.5749481,3.986023,-16.848974,12.584543
6.277102,2.5864995,-8.119482,-1.3559973,-1.5749481,4.005493,-16.917393,12.542656
6.2789793,2.5785437,-8.004434,-1.3229741,-1.4641606,4.16762,-17.093943,12.501215
6.2808723,2.5705407,-8.004434,-1.3229741,-1.4641606,4.1862454,-17.160397,12.458963
6.2826757,2.5627003,-7.874471,-1.2846246,-1.3640257,4.2327228,-17.407116,12.474493
0.0013006328,2.5548446,-7.874471,-1.2846246,-1.3640257,4.250539,-17.471651,12.43195
0.003023462,2.5471592,-7.72853,-1.2441446,-1.2713478,4.387198,-17.635002,12.303616
0.004877177,2.5389037,-7.72853,-1.2441446,-1.2713478,4.4054365,-17.702068,12.257778
0.006449328,2.531705,-7.56661,-1.2004687,-1.1850613,4.5980773,-17.85121,12.054535
0.008071309,2.5242875,-7.56661,-1.2004687,-1.1850613,4.614038,-17.910814,12.012415
0.009625072,2.5169842,-7.390841,-1.1514666,-1.1094275,4.6772127,-18.002703,11.855581
0.011191523,2.5096292,-7.390841,-1.1514666,-1.1094275,4.692623,-18.061155,11.812912
0.01267943,2.5024416,-7.2022896,-1.0982033,-1.0391201,4.7120523,-18.156271,11.617563
0.014162727,2.4952826,-7.2022896,-1.0982033,-1.0391201,4.726646,-18.212536,11.57518
0.015564435,2.4883306,-7.00202,-1.0438749,-0.9762694,4.783532,-18.286028,11.351677
0.016975645,2.4813366,-7.00202,-1.0438749,-0.9762694,4.797417,-18.340385,11.309481
0.018299177,2.474599,-6.794293,-0.9884811,-0.9198104,4.9397273,-18.402044,11.009903
0.019632826,2.4678135,-6.794293,-0.9884811,-0.9198104,4.952847,-18.454197,10.968222
0.020889554,2.461256,-6.580175,-0.9341526,-0.86867774,5.0274625,-18.408554,10.683413
0.02214691,2.4546986,-6.580175,-0.9341526,-0.86867774,5.039832,-18.458403,10.642462
0.023385838,2.4480708,-6.3596654,-0.8776936,-0.8207408,4.8509045,-18.613846,10.5241165
0.024535285,2.4419236,-6.3596654,-0.8776936,-0.8207408,4.862212,-18.660053,10.485111
0.025653983,2.435801,-6.133829,-0.82443035,-0.777065,4.8109665,-18.595701,10.316687
0.026755203,2.4297752,-6.133829,-0.82443035,-0.777065,4.8217983,-18.64051,10.277891
0.027802505,2.423923,-5.903732,-0.778624,-0.73338914,5.2008095,-18.583248,10.29262
0.028857427,2.4180293,-5.903732,-0.778624,-0.73338914,5.211184,-18.626612,10.254143
0.029843872,2.412398,-5.6715045,-0.7274913,-0.69184387,4.382918,-18.414047,9.795773
0.030831555,2.406761,-5.6715045,-0.7274913,-0.69184387,4.392633,-18.455091,9.758501
0.03175691,2.401361,-5.4392767,-0.6838155,-0.65242904,5.00028,-18.091978,9.564547
0.032686118,2.3959389,-5.4392767,-0.6838155,-0.65242904,5.009419,-18.131052,9.528257
0.03355897,2.390759,-5.212375,-0.6475965,-0.61407954,5.247848,-17.976658,9.488604
0.03444151,2.385522,-5.212375,-0.6475965,-0.61407954,5.256527,-18.014019,9.45315
0.03525129,2.3806062,-4.993996,-0.6017901,-0.5767953,4.321175,-17.91005,9.089296
0.036070112,2.3756356,-4.993996,-0.6017901,-0.5767953,4.329229,-17.945166,9.055292
0.03684613,2.3708808,-4.7820086,-0.577289,-0.5437721,4.63374,-17.74875,9.022604
0.037622895,2.3661213,-4.7820086,-0.577289,-0.5437721,4.6413784,-17.78205,8.98971
0.038369033,2.3615756,-4.5764127,-0.5687669,-0.51074886,4.6008296,-17.813702,8.962938
0.039115027,2.3570294,-4.5764127,-0.5687669,-0.51074886,4.6081653,-17.845207,8.931232
0.039843753,2.35267,-4.380404,-0.56770164,-0.48305202,4.1987405,-17.975834,8.871952
0.04057224,2.34831,-4.380404,-0.56770164,-0.48305202,4.2059007,-18.005764,8.841259
0.041292157,2.3441496,-4.187591,-0.58581114,-0.45535514,4.1507316,-17.971941,8.864517
0.04201163,2.3399885,-4.187591,-0.58581114,-0.45535514,4.157804,-18.000248,8.834988
0.042739905,2.3360062,-3.9990392,-0.62416065,-0.4287235,4.050041,-17.912283,8.744337
0.043466862,2.3320272,-3.9990392,-0.62416065,-0.4287235,4.057189,-17.9391,8.715862
0.044213694,2.328233,-3.8147483,-0.68061966,-0.40422243,4.078898,-17.97891,8.798719
0.044959687,2.3244383,-3.8147483,-0.68061966,-0.40422243,4.0862284,-18.00425,8.771339
0.04574048,2.320807,-3.635784,-0.75305766,-0.38291714,4.25671,-17.932606,8.888683
0.046519488,2.317179,-3.635784,-0.75305766,-0.38291714,4.264367,-17.956608,8.862312
0.047335763,2.313725,-3.463211,-0.8329525,-0.3605466,3.7791843,-17.653728,8.521051
0.048149124,2.310277,-3.463211,-0.8329525,-0.3605466,3.7871795,-17.676329,8.495794
0.049010195,2.3069754,-3.3023562,-0.91710836,-0.34350237,3.2737064,-17.750523,8.51939
0.049868945,2.3036766,-3.3023562,-0.91710836,-0.34350237,3.2821448,-17.771942,8.4950485
0.0507853,2.3005254,-3.1489582,-1.0247,-0.32858866,3.674224,-17.710886,8.52916
0.051700883,2.2973704,-3.1489582,-1.0247,-0.32858866,3.6832232,-17.731174,8.505714
0.052679658,2.29437,-2.998756,-1.1429445,-0.3158055,3.8795877,-17.621063,8.282194
0.05365942,2.291359,-2.998756,-1.1429445,-0.3158055,3.889214,-17.640234,8.259661
0.054701246,2.2884936,-2.8506842,-1.257993,-0.30302233,4.0622587,-17.366272,8.080097
0.05573996,2.2856302,-2.8506842,-1.257993,-0.30302233,4.0724635,-17.384315,8.058506
0.056844704,2.2829063,-2.7036777,-1.370911,-0.29556546,4.131199,-16.994352,7.6978893
0.057949357,2.2801754,-2.7036777,-1.370911,-0.29556546,4.1420517,-17.011381,7.6771507
0.059116226,2.2775953,-2.5588017,-1.4859596,-0.2913044,4.436032,-16.577248,7.2600307
0.060283072,2.2750087,-2.5588017,-1.4859596,-0.2913044,4.447491,-16.593199,7.2402363
0.061518695,2.2725592,-2.4139256,-1.6020734,-0.28917387,4.852277,-16.143715,6.7760887
0.06274939,2.2701132,-2.4139256,-1.6020734,-0.28917387,4.8643622,-16.158623,6.7572384
0.064046465,2.2678037,-2.270115,-1.7117957,-0.29023916,5.2170763,-15.655435,6.2940216
0.06534229,2.2654903,-2.270115,-1.7117957,-0.29023916,5.2298,-15.669363,6.2760544
0.06669287,2.2633195,-2.1273694,-1.8076694,-0.29023916,5.1903887,-15.342341,5.914345
0.068042256,2.2611449,-2.1273694,-1.8076694,-0.29023916,5.2036376,-15.355267,5.8973255
0.06944054,2.259111,-1.9824935,-1.8928906,-0.28810862,5.174267,-15.170909,5.4982452
0.0708363,2.257075,-1.9824935,-1.8928906,-0.28810862,5.187969,-15.182847,5.482193
0.0708363,2.257075,-1.9824935,-1.8928906,-0.28810862,5.187969,-15.182847,5.482193
0.0708363,2.257075,-1.9824935,-1.8928906,-0.28810862,5.187969,-15.182847,5.482193
0.0708363,2.257075,-1.9824935,-1.8928906,-0.28810862,5.187969,-15.182847,5.482193
0.07651278,2.2503147,-1.6788932,-2.0377667,-0.2731949,6.153472,-15.839225,5.4808083
0.07806076,2.2484574,-1.6788932,-2.0377667,-0.2731949,6.168659,-15.849746,5.4658833
0.07849553,2.2479901,-1.5116466,-2.0857034,-0.2593465,6.261916,-15.950921,5.2068768
0.07975738,2.246631,-1.331617,-2.1134005,-0.23697592,6.26688,-15.987457,5.099478
0.08124021,2.2452078,-1.331617,-2.1134005,-0.23697592,6.26688,-15.987457,5.099478
0.082747474,2.2437568,-1.1451957,-2.1315098,-0.21140957,6.1664166,-16.26043,5.0488625
0.084179305,2.2425475,-1.1451957,-2.1315098,-0.21140957,6.1664166,-16.26043,5.0488625
0.08566638,2.2412875,-0.95131755,-2.144293,-0.18158217,6.1809974,-16.26714,5.038416
0.08713088,2.240222,-0.95131755,-2.144293,-0.18158217,6.5640597,-16.526432,5.0917015
0.08856346,2.2391758,-0.95131755,-2.144293,-0.18158217,6.5781045,-16.531826,5.082897
0.08856346,2.2391758,-0.95131755,-2.144293,-0.18158217,6.5781045,-16.531826,5.082897
0.08856346,2.2391758,-0.75104785,-2.144293,-0.14642844,6.5781045,-16.531826,5.082897
0.09382153,2.2361073,-0.5443865,-2.124053,-0.10914418,6.3806324,-17.609747,5.4777412
0.09537885,2.235489,-0.3260073,-2.0878341,-0.06759887,5.979296,-18.306664,5.9078236
0.09537885,2.235489,-0.3260073,-2.0878341,-0.06759887,5.979296,-18.306664,5.9078236
0.09796562,2.2346096,-0.3260073,-2.0878341,-0.06759887,6.004629,-18.310038,5.899519
0.099256955,2.2343833,-0.0927144,-2.043093,-0.01753144,5.8496814,-18.703068,6.198679
0.10043365,2.2344072,0.15442696,-1.9940908,0.041058104,6.0623136,-19.204792,6.6051598
0.1016127,2.2344294,0.15442696,-1.9940908,0.041058104,6.073854,-19.20374,6.6046124
0.10270233,2.2347076,0.4132862,-1.9312401,0.10497397,6.285636,-19.684828,7.0609818
0.10379132,2.2349837,0.4132862,-1.9312401,0.10497397,6.2962966,-19.682295,7.062435
0.10478055,2.2355328,0.68705916,-1.8545411,0.17421617,6.5741243,-20.21927,7.439533
0.10577566,2.2360833,0.68705916,-1.8545411,0.17421617,6.5838647,-20.21514,7.443136
0.106642894,2.2369173,0.97361535,-1.7586673,0.25517625,6.9275374,-20.683435,7.630949
0.10751317,2.2377517,0.97361535,-1.7586673,0.25517625,6.936051,-20.67767,7.6368027
0.10824573,2.23889,1.2772157,-1.644684,0.34146267,6.933643,-20.990995,7.8366127
0.10898146,2.2400298,1.2772157,-1.644684,0.34146267,6.940838,-20.983467,7.8448715
0.109566756,2.241494,1.5999908,-1.5168523,0.43414068,6.7837567,-21.294899,7.8126106
0.11015481,2.242959,1.5999908,-1.5168523,0.43414068,6.7895103,-21.285488,7.8234253
0.11059045,2.2447698,1.9419407,-1.3826289,0.52575344,6.472947,-21.307598,7.669384
0.111029536,2.2465837,1.9419407,-1.3826289,0.52575344,6.4772434,-21.296146,7.682947
0.111319646,2.2487545,2.2945433,-1.2516015,0.6152356,6.274177,-21.34006,7.3641033
0.111613326,2.2509296,2.2945433,-1.2516015,0.6152356,6.2770495,-21.32645,7.380457
0.11177541,2.2536628,2.6577985,-1.1269655,0.7025873,5.98654,-21.199343,7.0563354
0.11191957,2.2560403,2.6577985,-1.1269655,0.7025873,5.9879503,-21.184528,7.0742493
0.11193634,2.2589765,3.0210536,-1.0076559,0.7878085,5.638559,-21.04181,6.5792904
0.11195641,2.2618515,3.0210536,-1.0076559,0.7878085,5.638758,-21.02391,6.600977
0.111851014,2.2650847,3.381113,-0.8979336,0.8677033,5.503652,-21.271957,6.2806034
0.11174856,2.2683508,3.381113,-0.8979336,0.8677033,5.5026507,-21.251572,6.305197
0.1116502,2.2716172,3.381113,-0.8979336,0.8677033,5.5016875,-21.231096,6.329714
0.11143337,2.2752645,3.7326503,-0.79779875,0.9422718,5.509145,-21.495533,5.9979515
0.11122202,2.278894,3.7326503,-0.79779875,0.9422718,5.507079,-21.472675,6.0251064
0.110899575,2.282861,4.0746,-0.70299023,1.0115141,6.0785346,-21.552998,5.824915
0.11057999,2.2868524,4.0746,-0.70299023,1.0115141,6.075407,-21.527695,5.854637
0.110155314,2.291171,4.406963,-0.60392064,1.0764952,5.1853986,-21.773186,5.422262
0.109735616,2.2954898,4.406963,-0.60392064,1.0764952,5.181294,-21.745592,5.4542522
0.109211795,2.3001323,4.7254767,-0.5123079,1.140411,5.2671485,-21.672735,5.0719585
0.108693235,2.3047752,4.7254767,-0.5123079,1.140411,5.26208,-21.642807,5.1061287
0.10808259,2.3097177,5.0258813,-0.43454358,1.1990006,5.8019814,-21.41449,4.792824
0.10747684,2.314665,5.0258813,-0.43454358,1.1990006,5.7960596,-21.38228,4.8289623
0.10678392,2.3198957,5.3039155,-0.35358348,1.2501333,5.7701235,-21.228354,4.5174675
0.106096104,2.325132,5.3039155,-0.35358348,1.2501333,5.7633953,-21.193893,4.5553856
0.10531987,2.3306234,5.5531874,-0.26197073,1.2948743,5.367937,-21.085747,4.3986664
0.10454958,2.3361156,5.5531874,-0.26197073,1.2948743,5.3603992,-21.049192,4.43808
0.1036951,2.341824,5.7758274,-0.17568432,1.3396155,5.237115,-21.006214,4.2969017
0.10284403,2.3475502,5.7758274,-0.17568432,1.3396155,5.2287865,-20.967663,4.3375893
0.10192616,2.3534386,5.976097,-0.1011158,1.3768997,5.3443007,-21.028353,4.398384
0.10100702,2.359375,5.976097,-0.1011158,1.3768997,5.3353043,-20.987902,4.440117
0.099994846,2.3656697,6.1539965,-0.03187361,1.4077924,5.3158135,-21.054882,4.5511646
0.099050514,2.371581,6.1539965,-0.03187361,1.4077924,5.306571,-21.014095,4.5922394
0.09801967,2.3778358,6.3116555,0.03523805,1.4312282,5.085783,-21.090393,4.788683
0.09699608,2.3840847,6.3116555,0.03523805,1.4312282,5.07576,-21.046738,4.831581
0.0959224,2.3904643,6.4522705,0.09915392,1.4493377,5.0221477,-20.992323,5.037916
0.09484642,2.3968956,6.4522705,0.09915392,1.4493377,5.0116076,-20.946827,5.081501
0.09373811,2.4034226,6.576906,0.1534824,1.4557292,4.972021,-20.914728,5.2642994
0.09263385,2.4099631,6.576906,0.1534824,1.4557292,4.9612026,-20.867867,5.3080196
0.09149614,2.416677,6.680237,0.19822352,1.4493377,4.820768,-20.790724,5.4531326
0.090387166,2.423259,6.680237,0.19822352,1.4493377,4.809899,-20.742956,5.496479
0.089259304,2.4299707,6.760132,0.23870356,1.4312282,4.482815,-20.67,5.722315
0.08814094,2.436663,6.760132,0.23870356,1.4312282,4.4718523,-20.620815,5.7657223
0.087015696,2.4434526,6.8197865,0.2738573,1.4035313,4.096902,-20.4892,5.9387054
0.08589083,2.4502766,6.8197865,0.2738573,1.4035313,4.085878,-20.438421,5.9822674
0.08478586,2.4571066,6.8549404,0.29942364,1.361986,3.6823912,-20.339392,6.140417
0.08368786,2.46393,6.8549404,0.29942364,1.361986,3.6716275,-20.287987,6.1832523
0.082618766,2.4707603,6.870919,0.31753314,1.3076576,3.369051,-20.044672,6.3981285
0.08154991,2.4776254,6.870919,0.31753314,1.3076576,3.3585691,-19.992329,6.440481
0.08051827,2.4844923,6.8677235,0.32818577,1.2437416,3.1473374,-19.661922,6.568636
0.07948887,2.49138,6.8677235,0.32818577,1.2437416,3.1372414,-19.608782,6.610365
0.078512885,2.4982274,6.8421574,0.33138156,1.1670426,2.792479,-19.201296,6.6753864
0.07754375,2.5050616,6.8421574,0.33138156,1.1670426,2.7829714,-19.147963,6.716017
0.07663677,2.5117958,6.797416,0.33244684,1.0871478,2.1324277,-18.587536,6.73172
0.075724296,2.5186052,6.797416,0.33244684,1.0871478,2.123476,-18.533813,6.7714386
0.074858405,2.5254173,6.726043,0.33138156,1.0051224,1.6169858,-17.838121,6.552204
0.07399598,2.5322368,6.726043,0.33138156,1.0051224,1.6085238,-17.783741,6.5912075
0.073211476,2.5388198,6.6216474,0.31966367,0.9230971,1.4906902,-17.01271,6.010771
0.07243778,2.5453432,6.6216474,0.31966367,0.9230971,1.483098,-16.960167,6.0473557
0.07172013,2.5518303,6.474641,0.2972931,0.8378759,1.6675911,-16.060106,5.183137
0.071004465,2.5583305,6.474641,0.2972931,0.8378759,1.660564,-16.007246,5.218855
0.07036307,2.564645,6.2765017,0.26533517,0.74945897,2.061285,-14.964452,4.123148
0.06972472,2.57096,6.2765017,0.26533517,0.74945897,2.0550184,-14.912632,4.1571627
0.06917529,2.577014,6.0208383,0.22059406,0.65465045,2.3177776,-13.838005,3.1694994
0.06862515,2.5831048,6.0208383,0.22059406,0.65465045,2.312374,-13.787592,3.2016478
0.06817541,2.5888731,5.704455,0.16306978,0.5545156,2.6096315,-12.781963,2.3698635
0.06772786,2.5946414,5.704455,0.16306978,0.5545156,2.6052375,-12.733837,2.3997107
0.06738504,2.60005,5.3326774,0.09702339,0.45331544,2.8317137,-11.625502,1.685195
0.0670437,2.605464,5.3326774,0.09702339,0.45331544,2.8283606,-11.579994,1.7126579
0.06681144,2.6104345,4.9055066,0.026715934,0.34785426,3.142118,-10.537284,1.3018732
0.06657869,2.615445,4.9055066,0.026715934,0.34785426,3.139832,-10.494882,1.3268147
0.06645526,2.6199749,4.433594,-0.042526253,0.23813203,3.3493094,-9.551402,1.2390003
0.066332966,2.624496,4.433594,-0.042526253,0.23813203,3.3481078,-9.512906,1.2611003
0.06631393,2.6285052,3.924398,-0.105376855,0.124148734,3.5059395,-8.588013,1.495985
0.066295296,2.6325388,3.924398,-0.105376855,0.124148734,3.5057564,-8.553476,1.5153651
0.0663707,2.636025,3.3864393,-0.15757482,0.006969642,3.6597261,-7.7573915,1.9581203
0.06644626,2.639511,3.3864393,-0.15757482,0.006969642,3.660469,-7.7273917,1.9746008
0.06660725,2.642432,2.8314366,-0.20125066,-0.11127471,3.9062529,-7.146724,2.6442795
0.06676874,2.6453648,2.8314366,-0.20125066,-0.11127471,3.9078436,-7.121377,2.657936
0.06700519,2.6477256,2.2679117,-0.23214333,-0.23058434,3.9724112,-6.5406604,3.2338414
0.06724347,2.650108,2.2679117,-0.23214333,-0.23058434,3.974753,-6.5199795,3.2447648
0.06754787,2.6519027,1.7043867,-0.2534486,-0.35202447,3.9873185,-6.039869,3.9328456
0.06785217,2.6536992,1.7043867,-0.2534486,-0.35202447,3.990304,-6.0242,3.9409447
0.068221346,2.6549442,1.1515145,-0.2694276,-0.47346464,3.9412565,-5.601481,4.430079
0.06859272,2.656198,1.1515145,-0.2694276,-0.47346464,3.9449015,-5.590481,4.435607
0.0690229,2.6568942,0.6092949,-0.28540656,-0.5927743,3.9443374,-5.1533446,4.9173803
0.069456674,2.6575968,0.6092949,-0.28540656,-0.5927743,3.948595,-5.147103,4.920327
0.069956124,2.657766,0.07879318,-0.3045813,-0.70675755,3.9295564,-5.030552,5.255987
0.07045854,2.6579368,0.07879318,-0.3045813,-0.70675755,3.9344862,-5.028907,5.2564535
0.07103463,2.657591,-0.43679482,-0.33014765,-0.8186103,3.8826804,-4.959898,5.6759033
0.071610965,2.6572456,-0.43679482,-0.33014765,-0.8186103,3.8883364,-4.962709,5.6739655
0.072261535,2.6564105,-0.9342733,-0.36423612,-0.92513674,3.7414932,-4.835674,5.99535
0.07292311,2.655562,-0.9342733,-0.36423612,-0.92513674,3.7479866,-4.842817,5.99105
0.07366092,2.6542487,-1.412577,-0.40578145,-1.0210105,3.4104624,-4.8252287,6.2766438
0.07440114,2.6529336,-1.412577,-0.40578145,-1.0210105,3.4177256,-4.836376,6.270116
0.075227365,2.6511703,-1.871706,-0.45797938,-1.1009054,3.1816237,-4.990225,6.6493015
0.07605989,2.6493967,-1.871706,-0.45797938,-1.1009054,3.1897924,-5.005275,6.640546
0.07697703,2.6471827,-2.3159213,-0.5176342,-1.1648213,3.0790813,-5.028869,6.955266
0.077895045,2.6449716,-2.3159213,-0.5176342,-1.1648213,3.0880876,-5.0476203,6.944339
0.07888914,2.6423445,-2.742027,-0.57622373,-1.2116929,2.738708,-5.112992,7.1947155
0.079891354,2.639702,-2.742027,-0.57622373,-1.2116929,2.7485397,-5.135356,7.181594
0.08097042,2.6366487,-3.1468277,-0.6390743,-1.2425855,3.0655808,-5.1851177,7.5446787
0.08205191,2.6335962,-3.1468277,-0.6390743,-1.2425855,3.076188,-5.2108784,7.529401
0.08320915,2.6301546,-3.5377796,-0.70725125,-1.2606951,3.6046834,-5.4170504,7.7754755
0.08437601,2.6266928,-3.5377796,-0.70725125,-1.2606951,3.616126,-5.446151,7.7579765
0.08560348,2.6228814,-3.9116874,-0.76797134,-1.2681519,3.7095628,-5.947395,7.9253654
0.08683988,2.6190515,-3.9116874,-0.76797134,-1.2681519,3.721685,-5.9794483,7.9057846
0.088161096,2.6147826,-4.26429,-0.83082193,-1.2681519,4.428953,-6.130015,8.223815
0.08947364,2.6105518,-4.26429,-0.83082193,-1.2681519,4.4418173,-6.165235,8.201895
0.09079077,2.6061568,-4.5955873,-0.88515043,-1.2606951,3.9758859,-6.718883,8.337018
0.092140526,2.6016626,-4.5955873,-0.88515043,-1.2606951,3.9891129,-6.7560873,8.313428
0.09354759,2.596834,-4.905579,-0.9405442,-1.2500424,4.1609163,-7.1646533,8.766749
0.094956115,2.59201,-4.905579,-0.9405442,-1.2500424,4.1747127,-7.204329,8.741045
0.09642115,2.5868878,-5.186809,-1.0033948,-1.236194,4.7014217,-7.7443194,9.240276
0.09788154,2.5817907,-5.186809,-1.0033948,-1.236194,4.715726,-7.7859488,9.212701
0.09939025,2.5764012,-5.4392767,-1.0513316,-1.2127582,4.500657,-8.466671,9.5855465
0.10089699,2.5710275,-5.4392767,-1.0513316,-1.2127582,4.5154085,-8.510228,9.556001
0.10242568,2.5654254,-5.6640477,-1.0854201,-1.1850613,4.3244705,-9.197114,9.888883
0.10395211,2.55984,-5.6640477,-1.0854201,-1.1850613,4.33941,-9.242026,9.85767
0.10550685,2.5540147,-5.8579254,-1.1195086,-1.1573644,4.6754475,-9.968635,10.298925
0.10707765,2.5481365,-5.8579254,-1.1195086,-1.1573644,4.6908193,-10.015498,10.265546
0.10863156,2.542185,-6.0187807,-1.1461402,-1.1243412,4.878401,-10.742693,10.719891
0.11020124,2.536179,-6.0187807,-1.1461402,-1.1243412,4.893756,-10.790144,10.685225
0.11020124,2.536179,-6.0187807,-1.1461402,-1.1243412,4.893756,-10.790144,10.685225
0.11020124,2.536179,-6.0187807,-1.1461402,-1.1243412,4.893756,-10.790144,10.685225
0.11487221,2.5178723,-6.2360945,-1.1717066,-1.0444463,4.881964,-12.322047,11.1571865
0.115363464,2.5159013,-6.2360945,-1.1717066,-1.0444463,4.886766,-12.337349,11.145464
0.11809491,2.504834,-6.2925534,-1.1791635,-1.0007706,4.9374046,-12.997433,11.256287
0.11957901,2.498754,-6.2925534,-1.1791635,-1.0007706,4.9519053,-13.044053,11.219427
0.12107954,2.4924812,-6.3170547,-1.185555,-0.95283365,5.2825985,-13.704833,11.305622
0.12257891,2.4862134,-6.3170547,-1.185555,-0.95283365,5.2972445,-13.752398,11.267048
0.12257891,2.4862134,-6.3170547,-1.185555,-0.95283365,5.2972445,-13.752398,11.267048
0.12419009,2.4793699,-6.309598,-1.1898161,-0.9080925,5.686471,-14.402596,11.13361
0.12562051,2.4732924,-6.2712483,-1.1876855,-0.86441666,5.70044,-14.4482,11.095608
0.12840725,2.4612777,-6.2712483,-1.1876855,-0.86441666,5.9718485,-15.222376,10.842506
0.12840725,2.4612777,-6.2712483,-1.1876855,-0.86441666,5.9718485,-15.222376,10.842506
0.13128072,2.4487207,-6.202006,-1.1791635,-0.82180613,6.114804,-15.927727,10.340622
0.13256925,2.4430315,-6.106132,-1.165315,-0.7845219,6.2997584,-16.677942,9.786625
0.13394125,2.4369688,-6.106132,-1.165315,-0.7845219,6.313139,-16.721947,9.747099
0.13528521,2.4309988,-5.9825616,-1.1482707,-0.75149864,6.345399,-17.526388,9.20513
0.13662957,2.4250212,-5.9825616,-1.1482707,-0.75149864,6.358503,-17.56927,9.165619
0.13793497,2.4191916,-5.83449,-1.1259001,-0.71847546,6.3281307,-18.396149,8.66238
0.13793497,2.4191916,-5.83449,-1.1259001,-0.71847546,6.3281307,-18.396149,8.66238
0.14052337,2.4076052,-5.658721,-1.0960728,-0.6811912,6.243224,-19.239426,8.067457
0.1417878,2.401909,-5.658721,-1.0960728,-0.6811912,6.2555413,-19.279345,8.028864
0.14299324,2.396442,-5.4520597,-1.0630496,-0.6385806,6.2577047,-20.088379,7.5798264
0.14419022,2.3910062,-5.4520597,-1.0630496,-0.6385806,6.269358,-20.12604,7.5425816
0.14532848,2.3857918,-5.212375,-1.0278959,-0.5863827,6.3857903,-20.952063,7.2385254
0.14646189,2.3805912,-5.212375,-1.0278959,-0.5863827,6.3968253,-20.987703,7.202532
0.14753272,2.3756328,-4.936472,-0.9906116,-0.52672786,6.5508995,-21.830742,7.062704
0.1485989,2.3706882,-4.936472,-0.9906116,-0.52672786,6.561275,-21.864267,7.028139
0.14959048,2.3660533,-4.622219,-0.9501316,-0.46281198,6.733732,-22.733503,7.13447
0.1505806,2.3614173,-4.622219,-0.9501316,-0.46281198,6.743364,-22.764614,7.10178
0.15148725,2.357131,-4.2674856,-0.90325993,-0.39250454,6.924564,-23.774866,7.5885735
0.15238881,2.3528605,-4.2674856,-0.90325993,-0.39250454,6.9333353,-23.80325,7.558218
0.1532045,2.3489501,-3.869077,-0.851062,-0.3147402,7.1040745,-24.786816,8.133678
0.15401477,2.3450584,-3.869077,-0.851062,-0.3147402,7.111952,-24.81245,8.105806
0.15472323,2.3416061,-3.4206007,-0.7924724,-0.22951907,7.262492,-25.859835,8.679575
0.15542956,2.3381565,-3.4206007,-0.7924724,-0.22951907,7.2693615,-25.88239,8.654739
0.15602231,2.3351963,-2.9209914,-0.72323024,-0.13790633,7.5336933,-26.902456,9.136145
0.15661137,2.3322473,-2.9209914,-0.72323024,-0.13790633,7.539425,-26.921618,9.114809
0.15707776,2.3298292,-2.371315,-0.6412049,-0.042032525,7.366787,-27.93328,9.547396
0.15753895,2.3274326,-2.371315,-0.6412049,-0.042032525,7.3712664,-27.948769,9.52998
0.1578641,2.3256245,-1.7705059,-0.54959214,0.062363394,7.000931,-29.090519,9.813734
0.15818754,2.3238218,-1.7705059,-0.54959214,0.062363394,7.004075,-29.102146,9.800619
0.15837027,2.3226583,-1.1196294,-0.45797938,0.16888984,7.771991,-29.507097,9.80653
0.15855414,2.3214843,-1.1196294,-0.45797938,0.16888984,7.773779,-29.514677,9.798
0.15858059,2.321017,-0.42401165,-0.35145295,0.28500366,6.687069,-29.74759,9.253559
0.15860675,2.320552,-0.42401165,-0.35145295,0.28500366,6.6873236,-29.750639,9.250229
0.1584721,2.3208132,0.29930294,-0.24066544,0.4011175,6.29337,-29.758642,8.859583
0.15833908,2.3210716,0.29930294,-0.24066544,0.4011175,6.2920713,-29.757076,8.861557
0.15805592,2.3220656,1.0375311,-0.14692217,0.5182966,6.6436653,-29.497026,8.361359
0.15777239,2.323063,1.0375311,-0.14692217,0.5182966,6.6409073,-29.490726,8.368725
0.15733731,2.3247914,1.7746942,-0.052113634,0.63867146,6.7803326,-29.034403,7.8547153
0.1569004,2.3265305,1.7746942,-0.052113634,0.63867146,6.776087,-29.023312,7.867485
0.15630555,2.3289883,2.4958782,0.05228228,0.76011163,6.392024,-28.543098,7.3252487
0.15571314,2.3314419,2.4958782,0.05228228,0.76011163,6.386262,-28.527332,7.343153
0.15496585,2.3346,3.191496,0.15241714,0.8772907,6.2449217,-27.970654,6.825058
0.15422305,2.3377457,3.191496,0.15241714,0.8772907,6.2377024,-27.950283,6.8479023
0.15334368,2.3415537,3.85196,0.23976883,0.9827519,6.473358,-27.39876,6.5210857
0.15246536,2.3453658,3.85196,0.23976883,0.9827519,6.464815,-27.373821,6.5485535
0.15146162,2.3497958,4.4708786,0.32072893,1.0807562,6.522093,-26.712622,6.259514
0.15046322,2.3542128,4.4708786,0.32072893,1.0807562,6.5123773,-26.683409,6.2910557
0.1493459,2.3592346,5.0429254,0.3963627,1.1659774,6.381797,-26.1137,6.1064873
0.14823684,2.3642316,5.0429254,0.3963627,1.1659774,6.3710046,-26.080261,6.1418285
0.14703104,2.369755,5.56384,0.4656049,1.2362849,6.0863333,-25.468458,5.9556293
0.14582826,2.3752785,5.56384,0.4656049,1.2362849,6.07462,-25.431019,5.994257
0.14454588,2.381274,6.035752,0.52312917,1.2959397,5.8945394,-24.930416,5.810877
0.14327072,2.3872514,6.035752,0.52312917,1.2959397,5.882122,-24.88935,5.852173
0.14192376,2.3936892,6.458662,0.5710661,1.3438765,5.6343718,-24.389908,5.7479095
0.14058462,2.4001076,6.458662,0.5710661,1.3438765,5.6213245,-24.345186,5.791647
0.13919543,2.4068935,6.8325696,0.61048084,1.3832914,5.330062,-23.804352,5.6603756
0.1378076,2.4136925,6.8325696,0.61048084,1.3832914,5.31654,-23.756294,5.7060394
0.1363799,2.4208138,7.160671,0.6435041,1.4152492,5.0344667,-23.279411,5.528414
0.1349609,2.4279132,7.160671,0.6435041,1.4152492,5.0206356,-23.228489,5.5753365
0.13350317,2.4353423,7.4472275,0.66693985,1.4418808,4.8053107,-22.853977,5.5952816
0.13205606,2.4427414,7.4472275,0.66693985,1.4418808,4.7911916,-22.800114,5.6433487
0.13058768,2.4503946,7.694369,0.6818536,1.4631861,4.6092744,-22.45668,5.6064205
0.12914929,2.4579172,7.694369,0.6818536,1.4631861,4.595237,-22.401115,5.654417
0.12767279,2.465784,7.909552,0.6903757,1.4812957,4.6430807,-21.82064,5.761585
0.1261784,2.4737766,7.909552,0.6903757,1.4812957,4.6284895,-21.760736,5.811592
0.12469489,2.4818537,8.094908,0.7020936,1.4930135,3.8095584,-21.192184,5.6988125
0.12322916,2.4898665,8.094908,0.7020936,1.4930135,3.795247,-21.131256,5.7479267
0.12176464,2.4980495,8.251502,0.70102835,1.4983399,3.680387,-20.987179,6.0656967
0.12029029,2.5063229,8.251502,0.70102835,1.4983399,3.665986,-20.923378,6.115328
0.11884673,2.514664,8.38679,0.6882452,1.4962094,3.407673,-20.8107,6.456873
0.117409855,2.5230052,8.38679,0.6882452,1.4962094,3.3936338,-20.745464,6.505764
0.11597062,2.5316296,8.509296,0.67120093,1.490883,3.1449337,-20.371078,6.4886475
0.11452326,2.540347,8.509296,0.67120093,1.490883,3.1307883,-20.301956,6.5385094
0.113193944,2.5486522,8.615823,0.64989567,1.4802303,2.3803773,-19.7185,6.4800415
0.11185384,2.5570688,8.615823,0.64989567,1.4802303,2.3672743,-19.650879,6.526968
0.110534616,2.5656853,8.703175,0.62219876,1.4674472,1.9760909,-19.092783,6.291853
0.10921243,2.574371,8.703175,0.62219876,1.4674472,1.9631586,-19.022102,6.3390064
0.10794169,2.5830986,8.770286,0.5849145,1.4514682,1.9603014,-18.308973,6.208536
0.106678896,2.5918267,8.770286,0.5849145,1.4514682,1.9479504,-18.237066,6.2546005
0.105467156,2.6005619,8.810766,0.5486955,1.4365546,1.9408817,-17.331467,5.936103
0.10425277,2.6093764,8.810766,0.5486955,1.4365546,1.928998,-17.257975,5.9812813
0.10308401,2.6181533,8.821419,0.52312917,1.4227061,1.6015248,-16.490044,5.4078646
0.10192252,2.6269393,8.821419,0.52312917,1.4227061,1.5901537,-16.41595,5.451535
0.10079843,2.6356828,8.799048,0.5018239,1.4056618,1.6701312,-15.537355,4.7569065
0.09967616,2.644479,8.799048,0.5018239,1.4056618,1.6591401,-15.46237,4.7992754
0.098599516,2.65317,8.738328,0.474127,1.3822261,2.1848993,-14.3392315,3.9976969
0.09752605,2.6619048,8.738328,0.474127,1.3822261,2.1743917,-14.264004,4.0384283
0.096497655,2.6705306,8.634997,0.44216907,1.3492029,2.8825784,-12.800705,2.9000158
0.09547677,2.6791654,8.634997,0.44216907,1.3492029,2.8725777,-12.725609,2.9389257
0.09450492,2.6876163,8.481599,0.40701535,1.2991354,4.0457954,-10.961462,1.5494146
0.09353448,2.696127,8.481599,0.40701535,1.2991354,4.0362864,-10.886766,1.586462
0.092619985,2.704422,8.261089,0.36547002,1.2213712,5.3824453,-9.046719,0.25245285
0.09171676,2.7126842,8.261089,0.36547002,1.2213712,5.373599,-8.973581,0.28716898
0.09088223,2.7206593,7.9638805,0.32392472,1.1116489,6.38535,-7.0783095,-1.0254757
0.090053506,2.728642,7.9638805,0.32392472,1.1116489,6.377228,-7.0070796,-0.99312305
0.08930429,2.7362742,7.578255,0.28237942,0.9689034,6.987589,-4.95153,-1.9539568
0.08857019,2.7438073,7.578255,0.28237942,0.9689034,6.9803963,-4.8838224,-1.9245117
0.087929115,2.750902,7.1042123,0.24083409,0.79846114,7.261412,-3.1869829,-2.4910505
0.0872916,2.7580028,7.1042123,0.24083409,0.79846114,7.255166,-3.1227376,-2.4642625
0.086761065,2.7645416,6.5449486,0.19928877,0.6056483,7.5276937,-1.7657318,-2.6746764
0.08623247,2.7710924,6.5449486,0.19928877,0.6056483,7.522511,-1.70611,-2.6508107
0.08581449,2.777004,5.911116,0.16200452,0.39472592,7.480106,-0.71841383,-2.54347
0.085399106,2.7829027,5.911116,0.16200452,0.39472592,7.4760337,-0.6644497,-2.5226798
0.085057415,2.7886746,5.2112374,0.13111185,0.17102037,7.295509,0.11154652,-2.2058206
0.08478082,2.7933555,5.2112374,0.13111185,0.17102037,7.292799,0.15456867,-2.189842
0.08457843,2.7977414,4.464487,0.10661077,-0.05801149,6.946052,0.7264776,-1.6579456
0.084368795,2.8022785,4.464487,0.10661077,-0.05801149,6.943995,0.7683358,-1.6428832
0.08425442,2.8059773,3.6815176,0.089566536,-0.28384754,6.4688206,1.2670012,-1.0418092
0.08413964,2.8096607,3.6815176,0.089566536,-0.28384754,6.4676967,1.3010912,-1.029891
0.08410682,2.8125513,2.8751123,0.07997916,-0.503292,5.907131,1.505063,-0.23057705
0.08407279,2.8154414,2.8751123,0.07997916,-0.503292,5.9067974,1.5318861,-0.22143686
0.08411118,2.8175182,2.0591197,0.074652836,-0.7099533,4.738804,1.5559821,0.5703405
0.084148385,2.819597,2.0591197,0.074652836,-0.7099533,4.739167,1.5753198,0.57677937
0.084262215,2.820873,1.2484535,0.06293493,-0.9027662,4.682823,1.4292028,1.7394354
0.08437642,2.8221643,1.2484535,0.06293493,-0.9027662,4.683944,1.4412496,1.74333
0.08455402,2.822651,0.452701,0.055478074,-1.0817306,4.125441,0.95262146,2.9800942
0.0847317,2.8231392,0.452701,0.055478074,-1.0817306,4.1271825,0.9572153,2.9814513
0.08496459,2.8228633,-0.31535468,0.05654334,-1.244716,3.1239028,0.48065424,3.914164
0.0851973,2.8225882,-0.31535468,0.05654334,-1.244716,3.1261845,0.4781549,3.9131327
0.0854919,2.8215826,-1.0503871,0.046955958,-1.3906573,2.5592527,-0.048277617,4.972827
0.08578765,2.8205771,-1.0503871,0.046955958,-1.3906573,2.5621521,-0.05755329,4.9694853
0.086154915,2.8188913,-1.7470701,0.016063292,-1.5206196,2.4795618,-0.6812608,5.9838924
0.086524405,2.8172061,-1.7470701,0.016063292,-1.5206196,2.4831834,-0.6968223,5.9783397
0.086984836,2.8148844,-2.4043384,-0.035069402,-1.6377987,2.621772,-1.2497761,6.976253
0.087448165,2.8125656,-2.4043384,-0.035069402,-1.6377987,2.626315,-1.2711678,6.968565
0.0880115,2.809654,-3.020061,-0.09685474,-1.740064,2.6605673,-2.0689397,7.9213114
0.088578835,2.806746,-3.020061,-0.09685474,-1.740064,2.666127,-2.0957096,7.9115105
0.08925731,2.8032966,-3.5942388,-0.1639664,-1.8263505,2.6009502,-2.9749722,8.709024
0.089941524,2.7998483,-3.5942388,-0.1639664,-1.8263505,2.607657,-3.0066335,8.697189
0.09075311,2.795893,-4.1247406,-0.23746964,-1.8977232,2.6587055,-3.9143748,9.396922
0.091571465,2.7919385,-4.1247406,-0.23746964,-1.8977232,2.6667256,-3.9505568,9.383033
0.0925093,2.787502,-4.614762,-0.31523395,-1.9552475,2.8674493,-4.9008656,10.147755
0.09345387,2.783071,-4.614762,-0.31523395,-1.9552475,2.8767045,-4.941251,10.131809
0.09450276,2.7781878,-5.0643034,-0.39086774,-1.997858,2.9875371,-5.9385595,10.612001
0.09450276,2.7781878,-5.0643034,-0.39086774,-1.997858,2.9875371,-5.9385595,10.612001
0.096872784,2.7672496,-5.4723,-0.46224046,-2.0308812,3.154403,-6.9953685,10.968727
0.097996294,2.7621284,-5.4723,-0.46224046,-2.0308812,3.1654058,-7.0416055,10.94927
0.09917509,2.7567558,-5.838751,-0.5261563,-2.0511212,3.138642,-8.018945,11.306881
0.09917509,2.7567558,-5.838751,-0.5261563,-2.0511212,3.1522083,-8.075192,11.282428
0.10056059,2.750493,-6.170048,-0.58155006,-2.0553823,3.1169055,-9.008568,11.5896845
0.10184585,2.744652,-6.170048,-0.58155006,-2.0553823,3.1300352,-9.062577,11.565389
0.10318719,2.738603,-6.170048,-0.58155006,-2.0553823,3.1300352,-9.062577,11.565389
0.10587862,2.7263975,-6.458735,-0.62735647,-2.0489907,3.1946807,-9.985094,11.706874
0.10731667,2.7198021,-6.7101374,-0.66037965,-2.0308812,3.1943874,-10.823956,11.803778
0.10731667,2.7198021,-6.7101374,-0.66037965,-2.0308812,3.1943874,-10.823956,11.803778
0.11006727,2.7073238,-6.7101374,-0.66037965,-2.0308812,3.221293,-10.933786,11.750439
0.11167072,2.699927,-6.9242554,-0.68061966,-2.002119,3.193879,-11.692873,11.823532
0.11311188,2.6931376,-7.1042852,-0.6934028,-1.9680307,3.2414892,-12.456005,11.98505
0.11311188,2.6931376,-7.1042852,-0.6934028,-1.9680307,3.2414892,-12.456005,11.98505
0.116051905,2.6792724,-7.2491612,-0.69872916,-1.9232895,3.3229022,-13.112576,11.97035
0.11746958,2.6725218,-7.2491612,-0.69872916,-1.9232895,3.3367562,-13.1707945,11.939278
0.11893353,2.6653771,-7.356753,-0.6997944,-1.8710916,3.4564052,-13.7110195,11.992176
0.12041158,2.6582117,-7.356753,-0.6997944,-1.8710916,3.4708462,-13.772316,11.958319
0.12187121,2.650966,-7.4323864,-0.6976639,-1.8167632,3.729312,-14.202761,11.947601
0.12334014,2.6437201,-7.4323864,-0.6976639,-1.8167632,3.743658,-14.264215,11.912483
0.12479023,2.6363847,-7.473932,-0.6880765,-1.7581736,3.844007,-14.632628,11.766357
0.12623326,2.6291294,-7.473932,-0.6880765,-1.7581736,3.8580961,-14.69362,11.730305
0.1276541,2.6217992,-7.4856496,-0.6731628,-1.6985188,3.9437895,-15.051854,11.669506
0.12907621,2.6145055,-7.4856496,-0.6731628,-1.6985188,3.9576693,-15.11261,11.632385
0.1304624,2.6071982,-7.4728665,-0.6529228,-1.6388639,4.1435766,-15.254608,11.364927
0.13185379,2.599906,-7.4728665,-0.6529228,-1.6388639,4.157148,-15.314779,11.326923
0.13320148,2.5926392,-7.434517,-0.63055223,-1.5770786,4.5773077,-15.470236,11.140223
0.1345566,2.5853724,-7.434517,-0.63055223,-1.5770786,4.5905247,-15.529622,11.101513
0.13586412,2.5781631,-7.3727317,-0.6028554,-1.5195544,4.818753,-15.664877,10.86161
0.13717861,2.5709538,-7.3727317,-0.6028554,-1.5195544,4.8315644,-15.723209,10.822372
0.13843635,2.5638194,-7.294967,-0.5655711,-1.4609648,4.934803,-15.895595,10.515024
0.13969938,2.5566914,-7.294967,-0.5655711,-1.4609648,4.9471135,-15.9527,10.475443
0.14090343,2.5496495,-7.200159,-0.52296054,-1.405571,5.0641885,-16.147717,10.115154
0.14211369,2.542607,-7.200159,-0.52296054,-1.405571,5.075977,-16.203568,10.075277
0.14326032,2.5356705,-7.092567,-0.47608888,-1.3523078,5.2643175,-16.387615,9.734009
0.14441283,2.5287337,-7.092567,-0.47608888,-1.3523078,5.275542,-16.44208,9.6940155
0.1455867,2.5213902,-6.9732575,-0.4270867,-1.3043709,5.444988,-16.576065,9.364004
0.14664406,2.51481,-6.9732575,-0.4270867,-1.3043709,5.455282,-16.627186,9.325375
0.14763688,2.5083368,-6.84223,-0.3706277,-1.2543035,5.4793124,-16.864004,8.932753
0.14866164,2.5016892,-6.84223,-0.3706277,-1.2543035,5.4892836,-16.915142,8.893097
0.14961983,2.4951444,-6.7005496,-0.30884236,-1.2053013,5.230456,-17.084972,8.480282
0.1505812,2.4886122,-6.7005496,-0.30884236,-1.2053013,5.2398095,-17.13472,8.440712
0.15147136,2.4822187,-6.549282,-0.2502528,-1.1552339,5.4878917,-17.264603,8.104839
0.15236641,2.4758246,-6.549282,-0.2502528,-1.1552339,5.4965963,-17.312815,8.065531
0.15318082,2.469601,-6.3841662,-0.18740222,-1.0987749,5.5907073,-17.436157,7.95043
0.1540024,2.4633584,-6.3841662,-0.18740222,-1.0987749,5.598697,-17.482773,7.911522
0.15472472,2.457309,-6.2073326,-0.11070318,-1.0295327,5.323202,-17.786343,8.074739
0.15545227,2.4512534,-6.2073326,-0.11070318,-1.0295327,5.3302784,-17.83115,8.036541
0.15607154,2.44539,-6.012389,-0.025482023,-0.95283365,5.1016645,-18.271824,8.478224
0.15669437,2.439532,-6.012389,-0.025482023,-0.95283365,5.107719,-18.31479,8.440847
0.15720648,2.4338596,-5.7940097,0.057608604,-0.865482,4.739201,-18.811169,8.9456215
0.15772113,2.428204,-5.7940097,0.057608604,-0.865482,4.744202,-18.852314,8.909172
0.15812053,2.4228075,-5.545803,0.13430765,-0.77280396,4.7385087,-19.346367,9.525499
0.15852517,2.4173887,-5.545803,0.13430765,-0.77280396,4.7424383,-19.385485,9.490248
0.15881275,2.4122493,-5.264573,0.20674562,-0.67373437,5.0564775,-19.906134,10.323431
0.15910281,2.4071252,-5.264573,0.20674562,-0.67373437,5.0592966,-19.942867,10.289824
0.1592694,2.4022918,-4.9513855,0.28237942,-0.5672079,5.28118,-20.499403,11.129564
0.15943886,2.3974633,-4.9513855,0.28237942,-0.5672079,5.2828307,-20.533817,11.097683
0.15947554,2.3929765,-4.603044,0.36547002,-0.45535514,5.12038,-21.27925,11.8246155
0.15951489,2.38849,-4.603044,0.36547002,-0.45535514,5.12076,-21.311075,11.794828
0.15941663,2.3843768,-4.2195487,0.44856066,-0.3392413,5.234728,-21.622793,12.308634
0.15932088,2.3802714,-4.2195487,0.44856066,-0.3392413,5.233799,-21.651825,12.281296
0.15908277,2.3765743,-3.8009,0.52739024,-0.21140957,5.049526,-22.132938,12.572765
0.15884724,2.3728878,-3.8009,0.52739024,-0.21140957,5.0472374,-22.158981,12.548178
0.15846592,2.3696294,-3.353489,0.5987629,-0.07505572,5.450548,-22.531675,12.876114
0.15808643,2.366374,-3.353489,0.5987629,-0.07505572,5.4468584,-22.554714,12.854427
0.15755694,2.3635774,-2.8773158,0.6680051,0.06875498,5.4560804,-22.914652,12.936529
0.15702963,2.360786,-2.8773158,0.6680051,0.06875498,5.4509554,-22.93452,12.918041
0.15634927,2.3584912,-2.3766413,0.7383126,0.22002253,5.1283064,-23.314999,12.984457
0.15566769,2.3561893,-2.3766413,0.7383126,0.22002253,5.1216846,-23.331577,12.969395
0.1548342,2.354403,-1.8535966,0.8032937,0.37342063,4.658681,-23.603315,12.871811
0.15400127,2.3526168,-1.8535966,0.8032937,0.37342063,4.6505823,-23.616457,12.860388
0.15302676,2.3513634,-1.3092464,0.84803486,0.5289492,4.6506824,-23.587772,12.670807
0.15205243,2.3501098,-1.3092464,0.84803486,0.5289492,4.6412063,-23.597382,12.663162
0.15094566,2.3494034,-0.7499826,0.88105804,0.68341255,4.42454,-23.622534,12.424791
0.14983895,2.3486965,-0.7499826,0.88105804,0.68341255,4.4137726,-23.628517,12.421034
0.1486055,2.3485432,-0.18326187,0.9055591,0.83894116,3.8989873,-23.621277,12.200975
0.14737074,2.3483896,-0.18326187,0.9055591,0.83894116,3.886971,-23.623604,12.201174
0.14603208,2.348793,0.38771987,0.91088545,0.98594767,3.586636,-23.550396,11.865343
0.14468934,2.3491971,0.38771987,0.91088545,0.98594767,3.5735605,-23.548992,11.869486
0.14325985,2.3501616,0.9629627,0.8917107,1.1265626,3.5069673,-23.40018,11.614233
0.1418348,2.351123,0.9629627,0.8917107,1.1265626,3.493088,-23.395012,11.622288
0.14033563,2.3526428,1.5339444,0.85655695,1.2597207,3.4593287,-23.314234,11.452301
0.13883837,2.3541613,1.5339444,0.85655695,1.2597207,3.4447398,-23.305256,11.464241
0.1372867,2.3562322,2.1027956,0.8107506,1.3832914,3.3099065,-23.335579,11.345938
0.13573427,2.3583057,2.1027956,0.8107506,1.3832914,3.294774,-23.322742,11.361689
0.13414903,2.3609226,2.6663206,0.752161,1.4940789,3.370296,-23.248655,11.208773
0.13256195,2.363545,2.6663206,0.752161,1.4940789,3.3548183,-23.231922,11.228228
0.13096057,2.366701,3.220258,0.6818536,1.5920831,3.4684834,-23.130009,11.01664
0.12935801,2.3698633,3.220258,0.6818536,1.5920831,3.4528472,-23.109356,11.0396595
0.12775475,2.3735447,3.7592819,0.6072851,1.6805001,2.7620358,-23.17595,10.874582
0.12615427,2.3772266,3.7592819,0.6072851,1.6805001,2.7464166,-23.151434,10.90093
0.124564,2.3814316,4.284457,0.5167376,1.7582644,2.6925805,-23.214073,10.830141
0.12298066,2.3856292,4.284457,0.5167376,1.7582644,2.67712,-23.18563,10.859718
0.12143835,2.3903105,4.791523,0.40701535,1.825376,2.7099414,-23.163137,10.705614
0.119894736,2.3950117,4.791523,0.40701535,1.825376,2.6948628,-23.130745,10.738218
0.11840653,2.4001746,5.275153,0.2919668,1.8818351,2.4217494,-23.12833,10.539022
0.11692731,2.4053283,5.275153,0.2919668,1.8818351,2.4072948,-23.09225,10.574202
0.11550851,2.410945,5.734282,0.16946137,1.9319025,2.0726047,-23.114805,10.334433
0.11409706,2.4165628,5.734282,0.16946137,1.9319025,2.0588076,-23.07486,10.372147
0.11277198,2.422591,6.167845,0.033107523,1.9723825,1.9069889,-23.007662,10.129688
0.111453,2.4286323,6.167845,0.033107523,1.9723825,1.8940923,-22.96405,10.169563
0.11023466,2.4350579,6.5747757,-0.11389897,2.0054057,2.131176,-22.462353,9.5794525
0.109025344,2.4414911,6.5747757,-0.11389897,2.0054057,2.1193454,-22.415201,9.621136
0.1079183,2.448286,6.946553,-0.26090547,2.0352333,2.5777788,-21.22055,9.200214
0.10682182,2.4550886,6.946553,-0.26090547,2.0352333,2.5670538,-21.169956,9.243471
0.10583374,2.4621992,7.268263,-0.38980246,2.0522773,0.80003905,-21.43267,8.957771
0.10486157,2.4692898,7.268263,-0.38980246,2.0522773,0.79052854,-21.37917,9.001963
0.10402442,2.4766917,7.5526886,-0.55491847,2.0522773,1.7208619,-21.212723,8.846428
0.10320337,2.4840806,7.5526886,-0.55491847,2.0522773,1.7128272,-21.156166,8.8915
0.102542214,2.4916995,7.8062215,-0.73281765,2.0458858,2.0176024,-21.0447,8.506426
0.10189424,2.49935,7.8062215,-0.73281765,2.0458858,2.0112562,-20.985294,8.552025
0.10140076,2.5072005,8.028862,-0.89686835,2.0331028,2.5762482,-20.579105,8.411465
0.100924306,2.515052,8.028862,-0.89686835,2.0331028,2.5715847,-20.5173,8.457159
0.10059311,2.5230947,8.224871,-1.036418,2.009667,2.252308,-20.352966,8.335745
0.10027963,2.5311463,8.224871,-1.036418,2.009667,2.2492385,-20.288736,8.381441
0.10010871,2.5393517,8.389986,-1.1621192,1.974513,2.0033555,-20.012127,8.288492
0.09995664,2.5475492,8.389986,-1.1621192,1.974513,2.0018673,-19.945885,8.33382
0.09995033,2.5558965,8.525275,-1.2878205,1.9319025,2.260374,-19.590664,8.149431
0.09996329,2.5642273,8.525275,-1.2878205,1.9319025,2.2605042,-19.5225,8.194229
0.10012351,2.5726678,8.627541,-1.4060647,1.8765087,2.6212044,-19.213562,8.052166
0.10030367,2.5811167,8.627541,-1.4060647,1.8765087,2.6229692,-19.14359,8.096285
0.100619115,2.5896084,8.694653,-1.5019386,1.8083318,2.8367443,-18.819035,7.9579544
0.10095566,2.598134,8.694653,-1.5019386,1.8083318,2.8400402,-18.747606,8.001133
0.10141412,2.6066816,8.729806,-1.5754418,1.7305676,2.8110123,-18.369112,7.7899246
0.10189121,2.6152115,8.729806,-1.5754418,1.7305676,2.8156824,-18.296852,7.831768
0.10247844,2.6237855,8.734067,-1.6276398,1.6432159,2.807063,-17.812008,7.686365
0.10308356,2.6323416,8.734067,-1.6276398,1.6432159,2.8129854,-17.738762,7.7269783
0.10378345,2.640863,8.707436,-1.6627935,1.5462768,2.7144923,-16.693378,7.292656
0.104503825,2.6494095,8.707436,-1.6627935,1.5462768,2.7215428,-16.619486,7.331846
0.105310075,2.6579008,8.642454,-1.6830335,1.4397503,2.6576061,-15.975878,7.097125
0.1061321,2.6663744,8.642454,-1.6830335,1.4397503,2.6656494,-15.9019165,7.134616
0.107047535,2.6747627,8.541254,-1.7117957,1.321506,3.4120183,-15.45964,7.391268
0.10797931,2.6831503,8.541254,-1.7117957,1.321506,3.4211354,-15.385771,7.4270144
0.10898735,2.6914225,8.405966,-1.7192525,1.1979353,3.5602837,-14.565599,7.351429
0.1100115,2.6997023,8.405966,-1.7192525,1.1979353,3.5702963,-14.49206,7.3853626
0.11112405,2.7081063,8.238719,-1.7000778,1.0764952,2.877285,-13.694057,7.016883
0.112182304,2.7159986,8.238719,-1.7000778,1.0764952,2.8876328,-13.623407,7.047968
0.11329901,2.7238429,8.035254,-1.6787724,0.9529245,3.2145853,-12.676643,6.752617
0.11443572,2.731742,8.035254,-1.6787724,0.9529245,3.2257018,-12.60543,6.7825127
0.11561212,2.7394462,7.7934384,-1.6574671,0.82509273,3.9363055,-11.601978,6.499789
0.11680054,2.7471578,7.7934384,-1.6574671,0.82509273,3.9479198,-11.531982,6.5277643
0.11800832,2.7545712,7.505817,-1.6223135,0.68980414,4.1512613,-10.736629,6.008193
0.1192277,2.7619994,7.505817,-1.6223135,0.68980414,4.1631765,-10.668787,6.034025
0.120459594,2.769116,7.172389,-1.5765071,0.5502545,4.218306,-9.885328,5.5506363
0.12169908,2.7762322,7.172389,-1.5765071,0.5502545,4.2304144,-9.819962,5.5743313
0.12294903,2.7829995,6.797416,-1.5328312,0.4043133,4.280926,-8.957954,4.710473
0.12420249,2.7897534,6.797416,-1.5328312,0.4043133,4.293165,-8.895592,4.731983
0.12547125,2.7961307,6.3766365,-1.4955469,0.25304574,4.568916,-8.060822,3.8467846
0.12547125,2.7961307,6.3766365,-1.4955469,0.25304574,4.568916,-8.060822,3.8467846
0.12793727,2.8075192,5.910051,-1.4603932,0.09858239,4.7414284,-7.399536,2.995092
0.12940334,2.8142657,5.910051,-1.4603932,0.09858239,4.7557344,-7.336667,3.0147161
0.13067096,2.8195827,5.3997893,-1.4231089,-0.051619902,4.6819115,-6.717162,2.2827415
0.13067096,2.8195827,5.3997893,-1.4231089,-0.051619902,4.6819115,-6.717162,2.2827415
0.13067096,2.8195827,5.3997893,-1.4231089,-0.051619902,4.6819115,-6.717162,2.2827415
0.13442294,2.8337493,4.8458514,-1.3815637,-0.19969167,4.7376595,-6.04797,1.7319288
0.13589957,2.8388555,4.2567606,-1.3357573,-0.34563288,4.8765545,-5.5402117,1.0842223
0.13721384,2.843262,4.2567606,-1.3357573,-0.34563288,4.889368,-5.4986596,1.0952592
0.13721384,2.843262,3.6335807,-1.2803636,-0.48837832,4.889368,-5.4986596,1.0952592
0.13850756,2.8470492,3.6335807,-1.2803636,-0.48837832,5.1701307,-4.9887943,0.5680666
0.13850756,2.8470492,3.6335807,-1.2803636,-0.48837832,5.1701307,-4.9887943,0.5680666
0.14198713,2.855699,2.9837694,-1.2164477,-0.6268627,5.558373,-4.5714808,0.33381557
0.14338405,2.8586757,2.3147833,-1.1472055,-0.7664124,6.046033,-4.040325,0.18684626
0.14338405,2.8586757,2.3147833,-1.1472055,-0.7664124,6.046033,-4.040325,0.18684626
0.14477168,2.8614807,2.3147833,-1.1472055,-0.7664124,6.0595436,-4.013538,0.19254923
0.14692108,2.864749,1.633014,-1.0715717,-0.9080925,6.468333,-3.3404555,0.05948186
0.14803314,2.8658373,0.9405921,-0.98954636,-1.0529685,6.665901,-2.7695818,0.084759474
0.14915547,2.8669372,0.9405921,-0.98954636,-1.0529685,6.676823,-2.7588358,0.086097956
0.15023023,2.8673608,0.24284391,-0.9021947,-1.1978445,6.4957476,-2.457563,0.30596566
0.15130565,2.8677857,0.24284391,-0.9021947,-1.1978445,6.5062075,-2.453152,0.30555153
0.1523302,2.8675375,-0.45490432,-0.814843,-1.3363289,6.1378865,-2.3688722,0.71522856
0.15335701,2.8672895,-0.45490432,-0.814843,-1.3363289,6.1478753,-2.370777,0.7131014
0.15434512,2.866378,-1.1451957,-0.7338829,-1.469487,5.8989086,-2.5752287,1.2503505
0.15434512,2.866378,-1.1451957,-0.7338829,-1.469487,5.8989086,-2.5752287,1.2503505
0.15624754,2.8632638,-1.8227038,-0.6561186,-1.590927,5.6301007,-3.0105748,1.8186903
0.15719962,2.8617125,-1.8227038,-0.6561186,-1.590927,5.6393557,-3.0246675,1.8131304
0.15811828,2.859528,-2.4799721,-0.5804848,-1.6942577,5.370555,-3.499567,2.2512026
0.15904029,2.8573449,-2.4799721,-0.5804848,-1.6942577,5.379513,-3.519535,2.2439013
0.15992722,2.854561,-3.112739,-0.5080468,-1.7837399,5.143922,-4.057453,2.7329454
0.16078642,2.851879,-3.112739,-0.5080468,-1.7837399,5.152268,-4.082047,2.7242393
0.16164766,2.8485122,-3.7188747,-0.43880463,-1.8583084,4.887694,-4.649279,3.1492867
0.16255386,2.844995,-3.7188747,-0.43880463,-1.8583084,4.896493,-4.6815424,3.137982
0.16340004,2.841073,-4.293052,-0.3770193,-1.9147674,4.5072722,-5.4405894,3.7527728
0.16424894,2.8371718,-4.293052,-0.3770193,-1.9147674,4.515509,-5.4763365,3.7401867
0.16508758,2.8327177,-4.8342066,-0.3258866,-1.9509864,4.126218,-6.158796,4.515937
0.16593431,2.8282642,-4.8342066,-0.3258866,-1.9509864,4.134434,-6.199521,4.501398
0.16677791,2.8232973,-5.3338156,-0.28753707,-1.9680307,3.7978563,-6.991902,5.5289946
0.16762543,2.8183608,-5.3338156,-0.28753707,-1.9680307,3.806079,-7.0369186,5.512576
0.16846804,2.8129516,-5.787618,-0.25877494,-1.9627043,3.6514482,-7.7757206,6.6053696
0.16932039,2.8075428,-5.787618,-0.25877494,-1.9627043,3.6597142,-7.824871,6.5869637
0.17015965,2.8017268,-6.190288,-0.2332086,-1.937138,3.528992,-8.591117,7.9364834
0.171016,2.7958648,-6.190288,-0.2332086,-1.937138,3.5372944,-8.644174,7.916025
0.17186531,2.789527,-6.535434,-0.20870751,-1.8934622,3.6604533,-9.376598,9.143457
0.17268012,2.783524,-6.535434,-0.20870751,-1.8934622,3.66835,-9.430685,9.121932
0.17349462,2.7769768,-6.8241205,-0.18314116,-1.8316768,3.9252412,-10.188667,10.415015
0.17433406,2.7703197,-6.8241205,-0.18314116,-1.8316768,3.9333797,-10.248356,10.390484
0.17508206,2.7638087,-7.0520873,-0.15224849,-1.7528472,4.156104,-10.953039,11.606403
0.17587003,2.757042,-7.0520873,-0.15224849,-1.7528472,4.16374,-11.013393,11.580761
0.17659664,2.750143,-7.2225294,-0.1160295,-1.6654955,4.5682154,-11.749948,12.641281
0.17733958,2.743189,-7.2225294,-0.1160295,-1.6654955,4.575411,-11.811626,12.61417
0.17800768,2.7361693,-7.3354473,-0.07022313,-1.5685565,4.720746,-12.424409,13.534616
0.1786995,2.7290084,-7.3354473,-0.07022313,-1.5685565,4.727447,-12.4875555,13.505932
0.17929548,2.721952,-7.3929715,-0.016959907,-1.4652258,4.7906775,-12.956641,14.157314
0.17990758,2.714817,-7.3929715,-0.016959907,-1.4652258,4.7966013,-13.01918,14.1279545
0.18043531,2.7076974,-7.3993635,0.036303315,-1.3618952,4.8352304,-13.311277,14.467064
0.18097524,2.7005343,-7.3993635,0.036303315,-1.3618952,4.8404584,-13.373679,14.436827
0.18143028,2.6934087,-7.3631444,0.089566536,-1.2585645,4.9837265,-13.646286,14.569239
0.18189374,2.6862829,-7.3631444,0.089566536,-1.2585645,4.9882116,-13.707973,14.538397
0.18227242,2.679239,-7.289641,0.14282976,-1.1584296,4.9775095,-13.902861,14.531536
0.18266125,2.672153,-7.289641,0.14282976,-1.1584296,4.981273,-13.963814,14.500118
0.18296462,2.6651878,-7.185245,0.19609298,-1.05936,4.71127,-14.152849,14.258247
0.18327558,2.6582158,-7.185245,0.19609298,-1.05936,4.714278,-14.21243,14.226608
0.18350652,2.6513636,-7.055283,0.24402988,-0.962421,4.5010347,-14.596441,13.788212
0.18374413,2.6445112,-7.055283,0.24402988,-0.962421,4.503335,-14.65462,13.756435
0.18391107,2.6378179,-6.905081,0.27811834,-0.8665472,4.639023,-14.830996,13.318079
0.18408526,2.631077,-6.905081,0.27811834,-0.8665472,4.640709,-14.887846,13.286133
0.18419555,2.6245246,-6.738899,0.30368468,-0.7749345,5.015272,-14.995624,12.833433
0.18431138,2.6179652,-6.738899,0.30368468,-0.7749345,5.016391,-15.050573,12.801704
0.18436527,2.6115906,-6.563131,0.32925105,-0.6854523,4.9259305,-15.151709,12.277397
0.1844232,2.6052923,-6.563131,0.32925105,-0.6854523,4.926494,-15.204126,12.246353
0.18442607,2.5990877,-6.37884,0.3548174,-0.60981846,4.849908,-15.614752,11.722321
0.1844336,2.5927272,-6.37884,0.3548174,-0.60981846,4.8499813,-15.667334,11.690371
0.18438865,2.5866976,-6.1913533,0.38038373,-0.5459026,5.1464267,-15.932522,11.228907
0.18434793,2.5806916,-6.1913533,0.38038373,-0.5459026,5.1460295,-15.981846,11.198208
0.18425152,2.5748594,-6.000671,0.4112764,-0.48731306,5.647883,-16.206799,10.694157
0.1841578,2.5689623,-6.000671,0.4112764,-0.48731306,5.6469755,-16.254923,10.663532
0.18399766,2.563121,-5.8089232,0.453887,-0.4351151,5.9662485,-16.350368,10.106289
0.18384977,2.5576022,-5.8089232,0.453887,-0.4351151,5.9648175,-16.395136,10.077192
0.18362696,2.5521631,-5.621437,0.5135418,-0.3871782,5.7615485,-16.664232,9.555195
0.18340689,2.5467079,-5.621437,0.5135418,-0.3871782,5.75942,-16.708246,9.526062
0.18310966,2.5414128,-5.4424725,0.58597976,-0.34669816,5.1101117,-17.612812,9.272633
0.18281603,2.5361235,-5.4424725,0.58597976,-0.34669816,5.10727,-17.655268,9.244043
0.18246068,2.5310268,-5.2571163,0.64243877,-0.31367496,5.209175,-18.23241,8.957817
0.1821081,2.5259247,-5.2571163,0.64243877,-0.31367496,5.205764,-18.273153,8.929924
0.18171299,2.5210133,-5.063238,0.679723,-0.28704333,5.144479,-18.920424,8.5581875
0.1813206,2.516097,-5.063238,0.679723,-0.28704333,5.1406827,-18.959473,8.530991
0.1813206,2.516097,-4.856577,0.711681,-0.26573807,5.1406827,-18.959473,8.530991
0.18045856,2.5066092,-4.856577,0.711681,-0.26573807,5.563293,-19.278772,8.315298
0.18001303,2.502227,-4.6371326,0.74576944,-0.25402015,5.0753508,-19.619797,7.9746513
0.17956173,2.4977598,-4.6371326,0.74576944,-0.25402015,5.0709825,-19.65492,7.9494057
0.17908517,2.493524,-4.410231,0.77772737,-0.24869382,4.7551193,-19.520576,7.3842907
0.17860954,2.4892712,-4.410231,0.77772737,-0.24869382,4.7505155,-19.55386,7.3600273
0.17812572,2.4852576,-4.182265,0.79370636,-0.2529549,5.1528463,-19.508598,7.09284
0.17764471,2.481244,-4.182265,0.79370636,-0.2529549,5.1481867,-19.539856,7.0697193
0.17716174,2.47747,-3.958559,0.81181586,-0.2646728,4.9376097,-19.913967,6.8994675
0.1766776,2.4736655,-3.958559,0.81181586,-0.2646728,4.9329185,-19.943459,6.8773575
0.17619674,2.4701028,-3.7380493,0.82992536,-0.2827823,4.4733596,-20.047646,6.6219406
0.1757218,2.4665644,-3.7380493,0.82992536,-0.2827823,4.4687614,-20.074959,6.6012135
0.17526372,2.463231,-3.518605,0.82886004,-0.3094139,4.6750116,-20.215551,6.519354
0.17480777,2.4598942,-3.518605,0.82886004,-0.3094139,4.670594,-20.241184,6.499628
0.1743842,2.4567776,-3.301291,0.8192727,-0.34456763,4.6569147,-20.447025,6.6582985
0.17396313,2.4536605,-3.301291,0.8192727,-0.34456763,4.652832,-20.470844,6.6397076
0.17357787,2.4507694,-3.0818465,0.8096853,-0.38185188,4.2085648,-20.784975,6.746889
0.17319424,2.4478722,-3.0818465,0.8096853,-0.38185188,4.2048492,-20.80701,6.7294693
0.17285751,2.4452069,-2.8602715,0.7894453,-0.42339718,3.8999143,-20.96608,7.038969
0.17252225,2.4425359,-2.8602715,0.7894453,-0.42339718,3.896665,-20.986286,7.0227737
0.17224519,2.440089,-2.636566,0.7532263,-0.46707305,3.8891916,-21.081339,7.2520523
0.17196995,2.4376395,-2.636566,0.7532263,-0.46707305,3.8865218,-21.099758,7.2370605
0.1717549,2.435423,-2.4054036,0.70955044,-0.50542253,3.984994,-21.288742,7.4245205
0.17154156,2.4332037,-2.4054036,0.70955044,-0.50542253,3.982922,-21.305328,7.4108086
0.17139016,2.431221,-2.1710453,0.66054827,-0.5405763,4.1107426,-21.358387,7.66663
0.17123894,2.4292185,-2.1710453,0.66054827,-0.5405763,4.1092772,-21.373262,7.654146
0.17114905,2.4274867,-1.9313608,0.6126114,-0.5725342,4.0126357,-21.34296,7.8779087
0.17105979,2.4257393,-1.9313608,0.6126114,-0.5725342,4.0117702,-21.355854,7.8669033
0.17103097,2.424234,-1.68635,0.5625439,-0.6034269,3.7577052,-21.33816,8.168596
0.17100343,2.4227285,-1.68635,0.5625439,-0.6034269,3.757441,-21.349186,8.15904
0.17103617,2.4214685,-1.4360129,0.50501966,-0.6268627,3.685933,-21.30088,8.505291
0.17106993,2.4202085,-1.4360129,0.50501966,-0.6268627,3.6862607,-21.310022,8.497185
0.1711632,2.4192014,-1.1771536,0.44323432,-0.6449722,3.639279,-21.226265,8.782703
0.17125723,2.4181943,-1.1771536,0.44323432,-0.6449722,3.6401916,-21.233486,8.776129
0.1714076,2.4174516,-0.9055112,0.3782532,-0.6545596,3.526728,-21.133368,9.144657
0.17155845,2.4167087,-0.9055112,0.3782532,-0.6545596,3.5281901,-21.138596,9.139698
0.1717645,2.4162402,-0.62215084,0.30794576,-0.6577554,3.5589192,-20.98375,9.457256
0.17197086,2.415772,-0.62215084,0.30794576,-0.6577554,3.5609188,-20.986912,9.4539795
0.17223081,2.4155903,-0.32494205,0.23337723,-0.6545596,3.697513,-20.839499,9.883438
0.17249094,2.4154086,-0.32494205,0.23337723,-0.6545596,3.700034,-20.840525,9.881941
0.17279752,2.4155283,-0.013884827,0.16413505,-0.6471027,3.8322952,-20.666931,10.136116
0.17310402,2.4156485,-0.013884827,0.16413505,-0.6471027,3.8352656,-20.665714,10.136482
0.17344813,2.4160838,0.3120861,0.10021918,-0.63218904,3.920004,-20.59992,10.416584
0.17379197,2.4165196,0.3120861,0.10021918,-0.63218904,3.9233358,-20.59637,10.418945
0.17416473,2.4172835,0.6508402,0.039499108,-0.60768795,3.941314,-20.480278,10.614918
0.1745371,2.4180474,0.6508402,0.039499108,-0.60768795,3.9449224,-20.474308,10.619345
0.17492862,2.4191487,0.9991817,-0.014829379,-0.57573,3.9535053,-20.250385,10.79829
0.1753197,2.4202504,0.9991817,-0.014829379,-0.57573,3.9572968,-20.241932,10.804838
0.17572483,2.4217062,1.3560452,-0.06702734,-0.53524995,4.0521994,-19.991451,10.832766
0.17614384,2.423214,1.3560452,-0.06702734,-0.53524995,4.0562587,-19.979984,10.841856
0.17614384,2.423214,1.3560452,-0.06702734,-0.53524995,4.0562587,-19.979984,10.841856
0.17694928,2.4267423,1.7182351,-0.11709477,-0.4915741,3.9730806,-19.733032,10.801001
0.1773608,2.4288738,2.080425,-0.16503167,-0.44363722,3.8525689,-19.44881,10.809193
0.17777514,2.4310226,2.080425,-0.16503167,-0.44363722,3.856582,-19.432577,10.822243
0.17819679,2.4335182,2.4394193,-0.21936016,-0.39250454,3.8367245,-19.203074,10.665047
0.17861766,2.4360116,2.4394193,-0.21936016,-0.39250454,3.8408005,-19.184235,10.680166
0.17905223,2.4388547,2.797348,-0.27901497,-0.34350237,3.9455645,-18.966436,10.6591015
0.17948614,2.4416952,2.797348,-0.27901497,-0.34350237,3.9497654,-18.944931,10.676266
0.17993513,2.4448752,3.1499505,-0.33973503,-0.29556546,3.982841,-18.585655,10.585318
0.18038364,2.4480524,3.1499505,-0.33973503,-0.29556546,3.987183,-18.561525,10.604408
0.18084706,2.4515657,3.4961615,-0.40045512,-0.24549803,4.0108232,-18.233143,10.429153
0.18131116,2.455083,3.4961615,-0.40045512,-0.24549803,4.0153155,-18.20633,10.450146
0.18178944,2.4589198,3.835981,-0.46010992,-0.19649588,4.0630417,-17.889725,10.334103
0.18178944,2.4589198,3.835981,-0.46010992,-0.19649588,4.0630417,-17.889725,10.334103
0.18278895,2.4674077,4.1672783,-0.51656896,-0.14429791,4.2642493,-17.53735,10.2310295
0.18328537,2.4716127,4.1672783,-0.51656896,-0.14429791,4.2690525,-17.50496,10.255669
0.18378003,2.4760535,4.488988,-0.5687669,-0.08890416,4.4222784,-17.135485,10.13792
0.18433292,2.4810038,4.488988,-0.5687669,-0.08890416,4.4276266,-17.09713,10.16662
0.18433292,2.4810038,4.7979145,-0.6167038,-0.035640936,4.4276266,-17.09713,10.16662
0.1848076,2.4854822,4.7979145,-0.6167038,-0.035640936,4.4945493,-16.718964,10.061558
0.18531117,2.4902186,5.092993,-0.6614449,0.019752815,4.7149334,-16.502499,10.051884
0.18632382,2.500232,5.092993,-0.6614449,0.019752815,4.719819,-16.46338,10.080101
0.18632382,2.500232,5.375288,-0.69659865,0.07621183,6.1420493,-14.850672,9.521252
0.18682653,2.5055864,5.375288,-0.69659865,0.07621183,6.1420493,-14.850672,9.521252
0.18783744,2.5163414,5.628821,-0.701925,0.13373612,3.5660841,-15.48386,9.13575
0.18783744,2.5163414,5.628821,-0.701925,0.13373612,3.570807,-15.439737,9.166307
0.1887853,2.527395,5.8610487,-0.72109973,0.17741196,3.6662257,-15.84598,9.34482
0.1887853,2.527395,5.8610487,-0.72109973,0.17741196,3.6662257,-15.84598,9.34482
0.18977514,2.539177,6.089015,-0.7754282,0.21576148,5.6629796,-15.641362,9.417971
0.19026141,2.5449376,6.089015,-0.7754282,0.21576148,5.667679,-15.594897,9.448637
0.19076794,2.551134,6.3063293,-0.80419034,0.26156786,5.706093,-15.243071,9.256283
0.19127959,2.5573435,6.3063293,-0.80419034,0.26156786,5.711035,-15.192604,9.288729
0.19175918,2.5637636,6.507664,-0.7871461,0.3084395,5.04529,-15.121119,9.125689
0.19175918,2.5637636,6.507664,-0.7871461,0.3084395,5.04529,-15.121119,9.125689
0.1927121,2.5766723,6.6887593,-0.7637103,0.35531113,5.0113974,-14.991329,9.086258
0.19316003,2.5832703,6.6887593,-0.7637103,0.35531113,5.015725,-14.936949,9.11948
0.19356593,2.5900002,6.8474836,-0.7445355,0.40537855,5.5272155,-14.6418915,9.143501
0.1939784,2.5967572,6.8474836,-0.7445355,0.40537855,5.5311956,-14.585795,9.1768265
0.19433723,2.6035903,6.9838376,-0.71364284,0.46183756,5.5250854,-14.46666,9.224615
0.19470336,2.6104646,6.9838376,-0.71364284,0.46183756,5.5286207,-14.409197,9.257835
0.19500616,2.617442,7.0978208,-0.665706,0.5182966,5.2538157,-14.436899,9.363073
0.19531465,2.6244266,7.0978208,-0.665706,0.5182966,5.256796,-14.3781185,9.396105
0.19556047,2.6315017,7.1936946,-0.61776906,0.57369035,5.2112837,-14.481213,9.702185
0.19581191,2.638577,7.1936946,-0.61776906,0.57369035,5.2137084,-14.42126,9.734894
0.19600405,2.6457286,7.276785,-0.5740932,0.6312146,5.1533146,-14.494566,10.074087
0.196202,2.6528804,7.276785,-0.5740932,0.6312146,5.155226,-14.4335575,10.106384
0.19634192,2.6600988,7.3502884,-0.53148264,0.6887389,5.1134815,-14.323921,10.416359
0.19648796,2.6673174,7.3502884,-0.53148264,0.6887389,5.114887,-14.2619295,10.448137
0.19657946,2.674596,7.4174,-0.49206784,0.7451979,5.1157727,-14.017288,10.637859
0.19667758,2.681897,7.4174,-0.49206784,0.7451979,5.1167192,-13.954176,10.66918
0.19672129,2.6895242,7.4717283,-0.44732675,0.79846114,4.916027,-13.792281,10.936136
0.19676937,2.6967635,7.4717283,-0.44732675,0.79846114,4.91649,-13.729288,10.966343
0.19676521,2.7040627,7.5164695,-0.4036509,0.84639806,4.969122,-13.804462,11.422598
0.19676769,2.711281,7.5164695,-0.4036509,0.84639806,4.969149,-13.741259,11.451885
0.19671632,2.7186415,7.5526886,-0.355714,0.8900739,4.8968253,-13.7819805,11.735149
0.19667175,2.7260318,7.5526886,-0.355714,0.8900739,4.896398,-13.716876,11.764263
0.19657135,2.7334566,7.5835814,-0.30351606,0.9305539,4.660795,-13.680019,11.979864
0.19647816,2.740882,7.5835814,-0.30351606,0.9305539,4.6598954,-13.614215,12.008228
0.19633017,2.748336,7.607017,-0.24918756,0.96357715,4.4621425,-13.581499,12.15122
0.19618955,2.7557828,7.607017,-0.24918756,0.96357715,4.4607863,-13.515117,12.178768
0.19600123,2.7632375,7.622996,-0.19805487,0.9891435,4.085475,-13.606508,12.340006
0.19581996,2.7707071,7.622996,-0.19805487,0.9891435,4.083724,-13.539541,12.366711
0.19559397,2.778174,7.629388,-0.15118323,1.0115141,4.273079,-13.4628525,12.685074
0.19537534,2.7856405,7.629388,-0.15118323,1.0115141,4.27097,-13.39554,12.71084
0.19511533,2.7931135,7.6272573,-0.10324633,1.0285583,3.7082157,-13.375887,12.731398
0.19486298,2.8005788,7.6272573,-0.10324633,1.0285583,3.705779,-13.308221,12.756208
0.19457929,2.8080463,7.6123433,-0.063831545,1.0360152,3.3439097,-13.293042,12.689594
0.1943036,2.8154993,7.6123433,-0.063831545,1.0360152,3.3412476,-13.225137,12.71339
0.19401318,2.8229284,7.5878425,-0.040395726,1.0338845,3.5204058,-13.152491,12.9617
0.19373034,2.8303502,7.5878425,-0.040395726,1.0338845,3.517673,-13.0845175,12.9844055
0.19344053,2.8377476,7.5526886,-0.022286229,1.0253625,3.3329139,-12.978296,12.9059925
0.19315821,2.8451376,7.5526886,-0.022286229,1.0253625,3.3301892,-12.910281,12.927607
0.19287848,2.8524983,7.5036864,-0.010568321,1.0051224,3.0066648,-12.775339,12.915112
0.19260614,2.8598518,7.5036864,-0.010568321,1.0051224,3.004034,-12.707338,12.935596
0.1923502,2.8671432,7.4429665,-0.010568321,0.97422975,2.8196018,-12.476947,12.854834
0.1920917,2.8747122,7.4429665,-0.010568321,0.97422975,2.817106,-12.406632,12.874847
0.19187938,2.8816762,7.3683977,-0.022286229,0.93374974,2.776749,-12.202927,12.868805
0.19166484,2.888922,7.3683977,-0.022286229,0.93374974,2.774676,-12.135322,12.886936
0.19148928,2.896053,7.2810464,-0.042526253,0.8868781,2.672425,-11.795708,12.751011
0.1913193,2.9032054,7.2810464,-0.042526253,0.8868781,2.6707826,-11.728701,12.767883
0.19119388,2.9102666,7.179846,-0.0680926,0.8325496,2.449302,-11.475664,12.597227
0.19107422,2.917328,7.179846,-0.0680926,0.8325496,2.448148,-11.40926,12.612858
0.19100156,2.9242835,7.063732,-0.09685474,0.77609056,2.2463324,-11.209647,12.426589
0.19093323,2.9313505,7.063732,-0.09685474,0.77609056,2.245672,-11.142953,12.441201
0.19091816,2.938073,6.9359007,-0.13200846,0.71750104,2.188066,-11.021938,12.267822
0.19090776,2.9449048,6.9359007,-0.13200846,0.71750104,2.187965,-10.9572525,12.280955
0.1909515,2.9516141,6.7952857,-0.17142326,0.65891147,2.269791,-10.769129,12.006031
0.19099984,2.9583302,6.7952857,-0.17142326,0.65891147,2.2702584,-10.705353,12.017978
0.19110425,2.9648986,6.642953,-0.21403383,0.60245246,2.2712665,-10.369947,11.598188
0.1912126,2.9714608,6.642953,-0.21403383,0.60245246,2.272311,-10.307467,11.608922
0.19138105,2.977877,6.4778366,-0.26090547,0.5406671,2.2787285,-9.872798,11.140074
0.19155315,2.9842935,6.4778366,-0.26090547,0.5406671,2.2803934,-9.811558,11.149666
0.19178832,2.990541,6.2946115,-0.31203815,0.47249022,2.41674,-9.215557,10.67008
0.19202782,2.99682,6.2946115,-0.31203815,0.47249022,2.4190495,-9.155499,10.678566
0.19233085,3.0028613,6.0900807,-0.36636665,0.39579117,2.5560539,-8.293202,10.183468
0.1926374,3.0089211,6.0900807,-0.36636665,0.39579117,2.5590153,-8.235135,10.190817
0.19301204,3.0147672,5.8567877,-0.42389092,0.3116353,2.6009395,-7.3027806,9.5749235
0.19338797,3.020602,5.8567877,-0.42389092,0.3116353,2.6045706,-7.2467785,9.581187
0.19383554,3.0262122,5.592602,-0.48567626,0.2210878,2.642411,-6.2782984,8.9833975
0.19428411,3.0318174,5.592602,-0.48567626,0.2210878,2.6467423,-6.2244253,8.988629
0.19480166,3.037147,5.2900667,-0.5506574,0.12734452,2.6756802,-5.0574627,8.322771
0.19532007,3.0424771,5.2900667,-0.5506574,0.12734452,2.6806855,-5.006175,8.32702
0.19589752,3.0474925,4.9491825,-0.61776906,0.031470723,2.7963915,-3.8086667,7.607539
0.19647636,3.0525186,4.9491825,-0.61776906,0.031470723,2.801978,-3.7602615,7.6108685
0.19709483,3.0571806,4.5667524,-0.6880765,-0.071859926,3.0377908,-2.5756984,6.742094
0.1977135,3.0618477,4.5667524,-0.6880765,-0.071859926,3.0437603,-2.53072,6.7445974
0.1983653,3.0660627,4.1406465,-0.75944924,-0.17625585,3.4283323,-1.3456515,5.8654265
0.19901629,3.0702777,4.1406465,-0.75944924,-0.17625585,3.4346113,-1.3050094,5.8671446
0.1997424,3.0740376,3.6708648,-0.8297567,-0.28065175,3.7911682,-0.22965121,4.953665
0.2004491,3.0777006,3.6708648,-0.8297567,-0.28065175,3.7979827,-0.19430935,4.9546037
0.20124368,3.0808914,3.1584728,-0.8958031,-0.38611293,4.246178,0.7031944,4.045167
0.20203738,3.0840824,3.1584728,-0.8958031,-0.38611293,4.253828,0.73399675,4.045419
0.20290445,3.0867264,2.604535,-0.9586537,-0.49050885,4.8032784,1.4777973,3.1209831
0.20377152,3.0893736,2.604535,-0.9586537,-0.49050885,4.811633,1.5033648,3.1206236
0.20470041,3.0914543,2.0165093,-1.0140474,-0.59597003,5.4957495,1.9544384,2.2100039
0.20563017,3.09354,2.0165093,-1.0140474,-0.59597003,5.504705,1.9745982,2.2091272
0.2066067,3.0950258,1.3997211,-1.0587885,-0.70036596,6.05999,2.30502,1.4369104
0.20758434,3.0965154,1.3997211,-1.0587885,-0.70036596,6.0694036,2.319441,1.4355898
0.20860171,3.0973928,0.7616277,-1.0960728,-0.8026313,6.7926702,2.3854337,0.85928917
0.2096174,3.0982704,0.7616277,-1.0960728,-0.8026313,6.80245,2.3939614,0.85758734
0.21066518,3.0985155,0.10649006,-1.1248349,-0.905962,6.846048,2.4969711,0.089395046
0.21171275,3.0987618,0.10649006,-1.1248349,-0.905962,6.8561296,2.4994297,0.087338924
0.21279062,3.0983727,-0.558235,-1.1504012,-1.0092926,7.6996803,2.4287481,-0.2598195
0.21386887,3.0979848,-0.558235,-1.1504012,-1.0092926,7.710047,2.4251199,-0.26222897
0.21496615,3.0969584,-1.2261558,-1.1663803,-1.1158191,7.8450994,2.06102,-0.45169973
0.21606457,3.0959334,-1.2261558,-1.1663803,-1.1158191,7.8556547,2.0512824,-0.45445728
0.21716435,3.0942674,-1.8951418,-1.165315,-1.220215,7.3634424,1.6044402,-0.46710145
0.21826601,3.0926027,-1.8951418,-1.165315,-1.220215,7.3740273,1.5885773,-0.47020972
0.21936788,3.0903113,-2.5545406,-1.1599886,-1.3192846,7.413342,0.97295094,-0.26297188
0.2204726,3.088021,-2.5545406,-1.1599886,-1.3192846,7.423948,0.9511137,-0.26649666
0.22158307,3.085123,-3.1979604,-1.1567929,-1.4140931,7.688395,0.14774275,0.059980392
0.22269735,3.0822263,-3.1979604,-1.1567929,-1.4140931,7.699091,0.12012386,0.055962086
0.22380881,3.0787382,-3.825401,-1.1418792,-1.5025101,7.661871,-0.8420844,0.7027211
0.22492525,3.0752516,-3.825401,-1.1418792,-1.5025101,7.672581,-0.8753052,0.6981249
0.22603141,3.0711977,-4.429406,-1.1163129,-1.582405,7.3336368,-1.9147043,1.3586273
0.22714378,3.067145,-4.429406,-1.1163129,-1.582405,7.3443046,-1.9532843,1.3533664
0.2282513,3.062552,-5.005714,-1.0907465,-1.6516471,6.8808694,-3.045657,2.075375
0.22936624,3.0579596,-5.005714,-1.0907465,-1.6516471,6.891556,-3.0893202,2.0693192
0.23049249,3.0528467,-5.5511293,-1.0758327,-1.7091714,6.9119234,-4.167414,2.9388638
0.23162726,3.0477347,-5.5511293,-1.0758327,-1.7091714,6.9227915,-4.2159424,2.9318519
0.23278305,3.0421321,-6.0613914,-1.068376,-1.7549778,6.660919,-5.312959,3.8099213
0.2339483,3.0365303,-6.0613914,-1.068376,-1.7549778,6.672073,-5.366037,3.8018064
0.23513773,3.0304744,-6.5333033,-1.0641148,-1.788001,6.3722115,-6.4959674,4.7792635
0.23633985,3.0244067,-6.5333033,-1.0641148,-1.788001,6.3837147,-6.55333,4.769908
0.23756255,3.017917,-6.965801,-1.0587885,-1.8071758,6.1033173,-7.6872187,5.669446
0.2387951,3.0114338,-6.965801,-1.0587885,-1.8071758,6.1151,-7.748348,5.6587524
0.24005142,3.0045547,-7.353557,-1.0587885,-1.812502,5.8924775,-8.761234,6.532943
0.24131924,2.9976757,-7.353557,-1.0587885,-1.812502,5.9045973,-8.825911,6.5208006
0.24260713,2.9904435,-7.699768,-1.0598538,-1.8039799,5.778034,-9.918524,7.479683
0.24390823,2.9832036,-7.699768,-1.0598538,-1.8039799,5.7904625,-9.986364,7.4659824
0.24523555,2.9756048,-8.004434,-1.0619843,-1.7869357,5.592444,-11.091743,8.427979
0.24658588,2.967945,-8.004434,-1.0619843,-1.7869357,5.6053314,-11.163249,8.4124365
0.24791801,2.9602144,-8.263292,-1.0673107,-1.7592388,5.5893097,-12.130713,9.277318
0.24926196,2.9524827,-8.263292,-1.0673107,-1.7592388,5.6021333,-12.202595,9.260547
0.25063,2.944444,-8.478477,-1.0694412,-1.7230198,5.6726327,-13.287524,10.281643
0.2520114,2.9363964,-8.478477,-1.0694412,-1.7230198,5.6857986,-13.362001,10.263006
0.25339592,2.9281647,-8.648918,-1.0662454,-1.6836051,5.5888557,-14.036558,11.095716
0.2548022,2.9198744,-8.648918,-1.0662454,-1.6836051,5.6022506,-14.112904,11.0752735
0.25618005,2.91155,-8.777816,-1.0513316,-1.6399292,5.3328514,-14.601179,11.676678
0.2575848,2.903132,-8.777816,-1.0513316,-1.6399292,5.3462224,-14.678291,11.654669
0.258952,2.8947034,-8.868363,-1.0268306,-1.5973186,5.531612,-15.013877,12.254559
0.26033857,2.8862226,-8.868363,-1.0268306,-1.5973186,5.544796,-15.09113,12.231117
0.26169282,2.8776724,-8.926952,-0.99167687,-1.5557733,5.366137,-15.484839,12.532541
0.26621675,2.8483121,-8.965302,-0.907521,-1.473748,5.9597774,-16.281294,13.153362
0.26621675,2.8483121,-8.965302,-0.907521,-1.473748,5.9597774,-16.281294,13.153362
0.26621675,2.8483121,-8.965302,-0.907521,-1.473748,5.9597774,-16.281294,13.153362
0.26621675,2.8483121,-8.965302,-0.907521,-1.473748,5.968068,-16.333412,13.135084
0.2670904,2.8424988,-8.965302,-0.907521,-1.473748,5.9804683,-16.410637,13.1073475
0.2696166,2.8254502,-8.951453,-0.851062,-1.4385942,5.958518,-16.820763,13.333614
0.27086556,2.816902,-8.951453,-0.851062,-1.4385942,5.970362,-16.896666,13.3049755
0.27206954,2.8082654,-8.915235,-0.7850156,-1.4066362,5.742356,-17.375345,13.457466
0.27206954,2.8082654,-8.915235,-0.7850156,-1.4066362,5.754038,-17.452726,13.426834
0.27330232,2.7994897,-8.854514,-0.7179039,-1.3757436,5.9132686,-17.824434,13.602497
0.27444172,2.7909768,-8.854514,-0.7179039,-1.3757436,5.92418,-17.899204,13.571516
0.27666837,2.7740872,-8.771424,-0.649727,-1.3501773,5.6614165,-18.345558,13.722691
0.2777605,2.7656689,-8.771424,-0.649727,-1.3501773,5.671752,-18.41872,13.691011
0.2777605,2.7656689,-8.771424,-0.649727,-1.3501773,5.671752,-18.41872,13.691011
0.2789863,2.755748,-8.663833,-0.5783543,-1.3256762,5.5109677,-18.681795,13.744017
0.28074637,2.7412999,-8.5328045,-0.50911206,-1.2979794,5.757457,-18.925892,13.840494
0.2817126,2.7331963,-8.5328045,-0.50911206,-1.2979794,5.7665915,-18.995285,13.807934
0.28261852,2.7251477,-8.378342,-0.43454358,-1.2702824,6.0672417,-18.901169,13.861345
0.2835324,2.7170978,-8.378342,-0.43454358,-1.2702824,6.0758796,-18.969578,13.828016
0.2843681,2.7092063,-8.204703,-0.3503877,-1.2425855,6.059831,-19.146557,13.900297
0.28521004,2.7013297,-8.204703,-0.3503877,-1.2425855,6.067781,-19.21299,13.866753
0.28596365,2.6936378,-8.016151,-0.2545139,-1.2170192,5.8306885,-19.411747,13.9485855
0.28672493,2.6859446,-8.016151,-0.2545139,-1.2170192,5.8378754,-19.476158,13.914984
0.2873954,2.6784441,-7.812686,-0.15650955,-1.1925181,6.23685,-19.395119,14.001627
0.2880721,2.670958,-7.812686,-0.15650955,-1.1925181,6.243237,-19.457344,13.968143
0.28865713,2.6637058,-7.593241,-0.054244164,-1.1722782,5.712454,-20.001087,14.170071
0.28925017,2.6564457,-7.593241,-0.054244164,-1.1722782,5.718047,-20.06101,14.136892
0.2897567,2.6494303,-7.3556876,0.04162964,-1.1531034,5.8473253,-20.30072,14.3008995
0.29027,2.642421,-7.3556876,0.04162964,-1.1531034,5.852163,-20.35817,14.268194
0.29071417,2.6356733,-7.0957627,0.123655,-1.143516,6.009578,-20.504295,14.198145
0.29116553,2.628925,-7.0957627,0.123655,-1.143516,6.013834,-20.559212,14.166023
0.29155558,2.622464,-6.817729,0.19928877,-1.1381897,6.0127244,-20.683468,14.135027
0.29195276,2.6160026,-6.817729,0.19928877,-1.1381897,6.0164676,-20.73568,14.103674
0.29229826,2.609846,-6.5215855,0.26533517,-1.1360592,6.1442213,-20.746971,14.044836
0.2926508,2.6036892,-6.5215855,0.26533517,-1.1360592,6.147542,-20.796371,14.014408
0.29295975,2.5978518,-6.2115936,0.32498997,-1.1381897,6.2462225,-20.766453,13.956608
0.29327562,2.5920079,-6.2115936,0.32498997,-1.1381897,6.249196,-20.813013,13.927223
0.29355484,2.5864997,-5.890949,0.37718794,-1.1403202,6.036349,-20.679594,13.650328
0.29384053,2.5809913,-5.890949,0.37718794,-1.1403202,6.0390396,-20.723183,13.622173
0.29409972,2.5758154,-5.5660434,0.41766798,-1.143516,6.022325,-20.52937,13.222025
0.2943652,2.5706396,-5.5660434,0.41766798,-1.143516,6.024825,-20.570042,13.195147
0.29461157,2.5657961,-5.2400723,0.4496259,-1.1477771,6.1133356,-20.426014,12.882509
0.29486457,2.5609381,-5.2400723,0.4496259,-1.1477771,6.1157207,-20.463924,12.8569145
0.29509962,2.5564497,-4.913036,0.47625753,-1.1488423,6.0461054,-20.292934,12.46917
0.2953414,2.5519385,-4.913036,0.47625753,-1.1488423,6.0483837,-20.327904,12.445063
0.29557404,2.547758,-4.586,0.49436703,-1.1499076,6.012265,-20.317093,12.18792
0.29581186,2.543578,-4.586,0.49436703,-1.1499076,6.0145035,-20.349277,12.165272
0.29604492,2.539726,-4.260029,0.5060849,-1.1488423,5.7916436,-20.39319,11.919199
0.2962827,2.535874,-4.260029,0.5060849,-1.1488423,5.793881,-20.422646,11.898052
0.29652315,2.5323508,-3.929797,0.5039544,-1.1424507,5.7243185,-20.143019,11.557737
0.29676795,2.528828,-3.929797,0.5039544,-1.1424507,5.726618,-20.169764,11.538128
0.29702306,2.5256283,-3.6006303,0.4869102,-1.1328633,6.3563023,-19.930584,11.362171
0.29728216,2.522429,-3.6006303,0.4869102,-1.1328633,6.3587403,-19.95469,11.344131
0.2975543,2.5195484,-3.2778552,0.4709312,-1.1254065,6.107514,-20.028952,11.179283
0.2978299,2.5166678,-3.2778552,0.4709312,-1.1254065,6.1101065,-20.050488,11.162817
0.2981197,2.5140991,-2.9604063,0.4506912,-1.1136886,5.638783,-20.275478,10.975603
0.29841256,2.5115304,-2.9604063,0.4506912,-1.1136886,5.6415358,-20.29452,10.960705
0.29873446,2.5092704,-2.6418922,0.40914586,-1.1030359,5.98454,-20.378166,10.8899555
0.299059,2.5070105,-2.6418922,0.40914586,-1.1030359,5.987591,-20.394737,10.876612
0.29942447,2.5050588,-2.3201823,0.3516216,-1.091318,6.2304487,-20.418453,10.836136
0.29979223,2.5031075,-2.3201823,0.3516216,-1.091318,6.233907,-20.43256,10.824356
0.30019897,2.5014648,-1.9984725,0.29622784,-1.0774696,5.8977537,-20.511284,10.704063
0.30060753,2.4998226,-1.9984725,0.29622784,-1.0774696,5.901594,-20.522943,10.693876
0.30105746,2.4984918,-1.6735668,0.2376383,-1.0646864,5.719074,-20.508232,10.637445
0.30150878,2.497161,-1.6735668,0.2376383,-1.0646864,5.7233152,-20.51744,10.628887
0.30201116,2.4961393,-1.3486612,0.16626558,-1.0529685,5.737611,-20.42846,10.569263
0.30251452,2.4951177,-1.3486612,0.16626558,-1.0529685,5.742341,-20.435238,10.562321
0.303072,2.4944038,-1.0248208,0.090631805,-1.0412506,5.733212,-20.310316,10.451632
0.30363008,2.4936903,-1.0248208,0.090631805,-1.0412506,5.738453,-20.31467,10.446281
0.30424038,2.4932802,-0.70311093,0.012867497,-1.0274022,6.2469625,-19.794716,10.385054
0.30485106,2.4928706,-0.70311093,0.012867497,-1.0274022,6.252697,-19.796696,10.3813
0.3055109,2.4927576,-0.3899232,-0.058505222,-1.0092926,5.3107862,-19.820301,10.221088
0.3061782,2.492644,-0.3899232,-0.058505222,-1.0092926,5.317047,-19.819956,10.218866
0.3068824,2.4928193,-0.083127014,-0.13307373,-0.9943789,5.247039,-19.65458,10.2134075
0.30759144,2.4929965,-0.083127014,-0.13307373,-0.9943789,5.253688,-19.651978,10.212725
0.30835977,2.4934566,0.22153862,-0.22362122,-0.9762694,6.1563263,-19.340698,10.237453
0.30912787,2.4939175,0.22153862,-0.22362122,-0.9762694,6.163527,-19.335867,10.238224
0.30995172,2.4946542,0.51981264,-0.3109729,-0.95496416,6.276593,-18.821299,10.254791
0.31077528,2.495392,0.51981264,-0.3109729,-0.95496416,6.2843084,-18.81429,10.256979
0.31164077,2.4963992,0.8095646,-0.38234562,-0.9304631,6.2205906,-18.489151,10.461681
0.31250578,2.497407,0.8095646,-0.38234562,-0.9304631,6.228692,-18.480038,10.465273
0.31341627,2.4986858,1.0897292,-0.448392,-0.9080925,6.438328,-18.234173,10.781488
0.31431723,2.499953,1.0897292,-0.448392,-0.9080925,6.446758,-18.223034,10.786394
0.31525293,2.501474,1.3613716,-0.50911206,-0.8846567,6.5464973,-18.104584,11.204437
0.3161873,2.5029943,1.3613716,-0.50911206,-0.8846567,6.555234,-18.091465,11.210621
0.31714776,2.5047643,1.628753,-0.56131005,-0.8590904,6.5881586,-18.033318,11.572456
0.31810865,2.506537,1.628753,-0.56131005,-0.8590904,6.5971413,-18.018234,11.579926
0.31910262,2.508584,1.8961344,-0.6071164,-0.8345893,6.510661,-18.024952,11.856941
0.32009897,2.5106382,1.8961344,-0.6071164,-0.8345893,6.5199676,-18.007647,11.865784
0.32110575,2.5129373,2.168842,-0.64866173,-0.80795765,6.5581,-17.921417,12.105747
0.3220959,2.515201,2.168842,-0.64866173,-0.80795765,6.567344,-17.902504,12.115664
0.32309803,2.517715,2.446876,-0.68914175,-0.7802608,6.5192356,-17.709267,12.294458
0.32411283,2.5202632,2.446876,-0.68914175,-0.7802608,6.5287037,-17.688103,12.305742
0.32514328,2.523085,2.732367,-0.7274913,-0.75149864,6.322834,-17.482843,12.385429
0.3261732,2.5259085,2.732367,-0.7274913,-0.75149864,6.3324347,-17.459501,12.398014
0.3272208,2.5290103,3.0253146,-0.76797134,-0.72486705,6.145875,-17.256798,12.383242
0.3282679,2.532114,3.0253146,-0.76797134,-0.72486705,6.1556296,-17.231213,12.397116
0.32933506,2.5354908,3.3235886,-0.81377774,-0.6993007,5.9405117,-17.150787,12.479328
0.3304084,2.5388894,3.3235886,-0.81377774,-0.6993007,5.9505057,-17.12281,12.494497
0.3315085,2.5425663,3.6282544,-0.8681062,-0.67373437,5.9320116,-16.99683,12.5300865
0.33260843,2.5462446,3.6282544,-0.8681062,-0.67373437,5.9422445,-16.966553,12.546415
0.33373916,2.5501986,3.9382463,-0.9298915,-0.6471027,6.1012,-16.641943,12.616631
0.334879,2.5541859,3.9382463,-0.9298915,-0.6471027,6.1117935,-16.609085,12.634165
0.33604681,2.5584424,4.2503686,-0.9906116,-0.6204711,6.376431,-16.253204,12.753422
0.3372206,2.5627222,4.2503686,-0.9906116,-0.6204711,6.387332,-16.217884,12.772043
0.33842278,2.567284,4.5624914,-1.0460054,-0.5927743,6.2404747,-15.974342,12.810999
0.33962527,2.571848,4.5624914,-1.0460054,-0.5927743,6.2516346,-15.936603,12.830622
0.3408546,2.576685,4.8724833,-1.1013992,-0.5661426,6.5168257,-15.580563,12.923159
0.34204865,2.5813832,4.8724833,-1.1013992,-0.5661426,6.5278945,-15.541612,12.943062
0.3433105,2.5865126,5.177149,-1.1578581,-0.53524995,6.865202,-15.341052,13.0221405
0.34463018,2.591876,5.177149,-1.1578581,-0.53524995,6.877426,-15.296459,13.044481
0.34592122,2.5973077,5.4743576,-1.205795,-0.50009626,7.0043,-15.198593,13.224983
0.34720033,2.6026876,5.4743576,-1.205795,-0.50009626,7.016138,-15.153725,13.24699
0.34850925,2.6084158,5.76624,-1.2409488,-0.46387726,6.970788,-15.120291,13.241556
0.3498196,2.6141472,5.76624,-1.2409488,-0.46387726,6.9829035,-15.072347,13.264547
0.35113543,2.6201344,6.0527964,-1.2707762,-0.4287235,7.009429,-15.127568,13.19264
0.35244626,2.6260946,6.0527964,-1.2707762,-0.4287235,7.0215387,-15.077547,13.216072
0.35376924,2.6323667,6.335091,-1.294212,-0.390374,7.081637,-15.178093,13.1304
0.35509017,2.638623,6.335091,-1.294212,-0.390374,7.093827,-15.125408,13.154436
0.35509017,2.638623,6.61206,-1.3101909,-0.3509592,7.093827,-15.125408,13.154436
0.3577641,2.6518521,6.61206,-1.3101909,-0.3509592,7.166368,-15.200512,12.941099
0.35905126,2.6585097,6.8837028,-1.3197783,-0.3126097,7.139924,-15.407568,12.731226
0.36035383,2.6652381,6.8837028,-1.3197783,-0.3126097,7.151919,-15.350509,12.755817
0.36164847,2.6722777,7.151084,-1.3197783,-0.26786858,7.173414,-15.544552,12.470079
0.36294824,2.6793346,7.151084,-1.3197783,-0.26786858,7.185376,-15.4845,12.495195
0.36421832,2.6866324,7.4110084,-1.3123215,-0.21460536,7.3023996,-15.676139,12.185732
0.3654911,2.6939335,7.4110084,-1.3123215,-0.21460536,7.3141,-15.613796,12.210989
0.36673278,2.701476,7.6645412,-1.3006036,-0.16027687,7.25368,-15.779175,11.892025
0.36797735,2.7090223,7.6645412,-1.3006036,-0.16027687,7.2651105,-15.71451,11.917328
0.36918205,2.7167916,7.9074216,-1.2814288,-0.103817865,7.400668,-15.772369,11.550438
0.3703864,2.724541,7.9074216,-1.2814288,-0.103817865,7.411716,-15.705727,11.575577
0.37155098,2.7325397,8.138584,-1.2558625,-0.044163052,7.455917,-15.608147,11.366592
0.37271914,2.7405415,8.138584,-1.2558625,-0.044163052,7.4666233,-15.539084,11.391653
0.37383747,2.74875,8.355898,-1.221774,0.012295964,7.405043,-15.362827,11.18718
0.37495965,2.7569616,8.355898,-1.221774,0.012295964,7.4153214,-15.291704,11.211948
0.3760263,2.7653592,8.551907,-1.1802287,0.06768972,7.32932,-15.127916,10.987932
0.3770971,2.7737603,8.551907,-1.1802287,0.06768972,7.3391147,-15.054892,11.012255
0.37811133,2.7823424,8.72448,-1.133357,0.11882241,7.4010653,-14.736008,10.883505
0.3791278,2.7909102,8.72448,-1.133357,0.11882241,7.410357,-14.661268,10.907261
0.38007906,2.7996058,8.86829,-1.0790286,0.16782458,7.4429936,-14.192688,10.782537
0.38103664,2.8083217,8.86829,-1.0790286,0.16782458,7.4517426,-14.116396,10.805613
0.38193366,2.817256,8.976947,-1.0129821,0.21256568,7.2061496,-13.702926,10.771385
0.38281035,2.825946,8.976947,-1.0129821,0.21256568,7.214151,-13.626604,10.793283
0.383677,2.8353581,9.046189,-0.94480526,0.2509152,7.0017953,-13.136838,10.835682
0.38445225,2.8437338,9.046189,-0.94480526,0.2509152,7.008867,-13.063034,10.855682
0.38520017,2.8526034,9.072821,-0.8776936,0.28606892,7.1401896,-12.525113,10.809406
0.38595566,2.861511,9.072821,-0.8776936,0.28606892,7.147079,-12.446378,10.829521
0.38663912,2.8704,9.056842,-0.8084514,0.31909212,7.177249,-11.8649435,10.724636
0.3873271,2.879291,9.056842,-0.8084514,0.31909212,7.1835184,-11.786118,10.743528
0.3879378,2.8881092,8.993992,-0.73281765,0.34785426,7.0789475,-10.989602,10.63253
0.38978153,2.9178753,8.880008,-0.6550533,0.36702904,6.87068,-10.030312,10.345132
0.38978153,2.9178753,8.880008,-0.6550533,0.36702904,6.87068,-10.030312,10.345132
0.38978153,2.9178753,8.880008,-0.6550533,0.36702904,6.87068,-10.030312,10.345132
0.39007443,2.9231799,8.708501,-0.5804848,0.37768167,6.5429454,-9.183307,9.82314
0.39007443,2.9231799,8.708501,-0.5804848,0.37768167,6.5476,-9.101096,9.839031
0.3905858,2.932379,8.475207,-0.51337314,0.38194272,6.565616,-8.156259,9.062664
0.39098725,2.940579,8.475207,-0.51337314,0.38194272,6.565616,-8.156259,9.062664
0.3914007,2.948947,8.176933,-0.45691413,0.37768167,6.569379,-8.0813055,9.076033
0.39175004,2.9569488,8.176933,-0.45691413,0.37768167,6.5900955,-6.9951487,8.065751
0.39209914,2.9648712,7.8104825,-0.41430354,0.36383325,6.5900955,-6.9951487,8.065751
0.39241204,2.9728496,7.8104825,-0.41430354,0.36383325,6.7967844,-5.945529,6.827915
0.39271224,2.9804287,7.3726587,-0.38660666,0.33826688,7.000287,-5.061649,5.5826864
0.39324003,2.9948816,7.3726587,-0.38660666,0.33826688,7.002693,-4.996585,5.591527
0.39324003,2.9948816,6.862397,-0.3738235,0.29778683,7.002693,-4.996585,5.591527
0.39324003,2.9948816,6.862397,-0.3738235,0.29778683,7.002693,-4.996585,5.591527
0.39395106,3.0145307,6.2903504,-0.37275824,0.24878468,7.076193,-2.731587,2.9269428
0.39417383,3.0205903,6.2903504,-0.37275824,0.24878468,7.0782166,-2.6768484,2.9329166
0.39440766,3.0261817,5.652257,-0.37914982,0.18699934,7.085129,-1.9750781,1.9611969
0.39464304,3.0317843,5.652257,-0.37914982,0.18699934,7.0872664,-1.9244068,1.9660296
0.394905,3.036698,4.959835,-0.4036509,0.11669188,6.6012297,-1.736272,1.1749525
0.39516962,3.0416512,4.959835,-0.4036509,0.11669188,6.6036296,-1.691418,1.1785526
0.3954863,3.0458653,4.2333245,-0.45052254,0.03999284,7.4971514,-1.16959,0.22341728
0.3958039,3.0500875,4.2333245,-0.45052254,0.03999284,7.5000324,-1.1313064,0.22580051
0.39619306,3.0535808,3.476987,-0.5123079,-0.044163052,8.470821,-0.29992485,-0.5820689
0.3965788,3.0570426,3.476987,-0.5123079,-0.044163052,8.474329,-0.26849318,-0.5808182
0.39701098,3.0597613,2.6897564,-0.5538532,-0.13258,7.755202,0.54631853,-1.5237195
0.39701098,3.0597613,2.6897564,-0.5538532,-0.13258,7.755202,0.54631853,-1.5237195
0.3978909,3.0650368,1.874829,-0.59752905,-0.22525801,7.7775455,1.1784835,-2.107462
0.3983677,3.066946,1.874829,-0.59752905,-0.22525801,7.7818737,1.195888,-2.107967
0.3989151,3.0680707,1.0364659,-0.65398806,-0.31687075,8.423692,1.5844994,-2.310413
0.39946327,3.0691981,1.0364659,-0.65398806,-0.31687075,8.428663,1.5948448,-2.3117578
0.40007013,3.0695136,0.18745016,-0.7040555,-0.4052877,9.05666,1.6170173,-2.1366937
0.40067703,3.0698292,0.18745016,-0.7040555,-0.4052877,9.062157,1.620039,-2.1388123
0.4013106,3.0693326,-0.66369617,-0.72536075,-0.48731306,9.005649,1.2565951,-1.8015859
0.40194446,3.068836,-0.66369617,-0.72536075,-0.48731306,9.011389,1.2522864,-1.8043468
0.40258065,3.0675426,-1.500994,-0.72323024,-0.56294686,8.65802,0.61829376,-1.1947317
0.40321746,3.0662491,-1.500994,-0.72323024,-0.56294686,8.663784,0.606802,-1.1980562
0.40385053,3.0641923,-2.306334,-0.71364284,-0.6311238,8.281649,-0.22081041,-0.30648613
0.40385053,3.0641923,-2.306334,-0.71364284,-0.6311238,8.281649,-0.22081041,-0.30648613
0.40513325,3.0596237,-3.071194,-0.70299023,-0.6929091,8.417757,-1.0900061,0.9015312
0.40577334,3.056828,-3.071194,-0.70299023,-0.6929091,8.423542,-1.1149902,0.89694786
0.40639538,3.053426,-3.7859862,-0.68701124,-0.74297655,7.8593454,-2.0121202,1.9788513
0.40704072,3.0499098,-3.7859862,-0.68701124,-0.74297655,7.865177,-2.043543,1.9734955
0.40771127,3.0455887,-4.4443197,-0.665706,-0.78558713,8.005313,-2.9967525,3.1451845
0.40829724,3.0418308,-4.4443197,-0.665706,-0.78558713,8.010601,-3.030307,3.1395855
0.40893713,3.0371513,-5.045129,-0.64227015,-0.81967556,8.337206,-3.9244246,4.449606
0.40957758,3.0324943,-5.045129,-0.64227015,-0.81967556,8.342989,-3.9659586,4.4426336
0.4102066,3.0273037,-5.5830874,-0.6017901,-0.8409809,7.8410926,-5.0225897,5.7421913
0.41083786,3.0221276,-5.5830874,-0.6017901,-0.8409809,7.8467894,-5.0686827,5.7342825
0.41145784,3.016433,-6.060326,-0.55811423,-0.85056823,7.191583,-6.124931,6.9083357
0.41207626,3.0107942,-6.060326,-0.55811423,-0.85056823,7.197158,-6.1750526,6.8994274
0.41268972,3.0047226,-6.470453,-0.5304174,-0.8516335,7.121284,-7.3638277,8.216113
0.41330612,2.998668,-6.470453,-0.5304174,-0.8516335,7.12684,-7.4175224,8.206093
0.41392672,2.992226,-6.809207,-0.5176342,-0.84417665,7.2569304,-8.446638,9.59821
0.41454986,2.985808,-6.809207,-0.5176342,-0.84417665,7.2625437,-8.503402,9.586989
0.41516992,2.9791014,-7.0787187,-0.5059163,-0.8271324,7.330379,-9.534688,10.724212
0.41579452,2.9724004,-7.0787187,-0.5059163,-0.8271324,7.336004,-9.5937805,10.711805
0.41641447,2.9654489,-7.2800536,-0.49313313,-0.8026313,7.3463693,-10.574367,11.790379
0.41700572,2.9588697,-7.2800536,-0.49313313,-0.8026313,7.351688,-10.632194,11.777494
0.41761827,2.9517913,-7.417473,-0.4814152,-0.7738692,7.5008497,-11.551439,12.725769
0.41826355,2.9443924,-7.417473,-0.4814152,-0.7738692,7.5066566,-11.6162405,12.710451
0.41886932,2.937204,-7.4941716,-0.4696973,-0.7397807,7.9286914,-12.517057,13.499638
0.41949382,2.9298484,-7.4941716,-0.4696973,-0.7397807,7.9343066,-12.581226,13.48354
0.42006832,2.922834,-7.5165424,-0.4547836,-0.70036596,8.26029,-13.293532,13.961025
0.42066604,2.9155867,-7.5165424,-0.4547836,-0.70036596,8.265662,-13.356504,13.94433
0.42123184,2.9083984,-7.4899106,-0.4313478,-0.6577554,8.419181,-13.950362,14.315277
0.42180204,2.901201,-7.4899106,-0.4313478,-0.6577554,8.424301,-14.012643,14.297884
0.4223387,2.8940215,-7.418538,-0.40045512,-0.6130143,8.457847,-14.462519,14.399925
0.4228761,2.8868763,-7.418538,-0.40045512,-0.6130143,8.462673,-14.524092,14.381899
0.4233698,2.8797987,-7.313077,-0.36210558,-0.5682732,8.649063,-14.833975,14.325443
0.4238664,2.8727267,-7.313077,-0.36210558,-0.5682732,8.653514,-14.894665,14.306864
0.42430842,2.8657663,-7.1788535,-0.31523395,-0.5214015,8.815496,-15.184151,14.192577
0.42475078,2.8588462,-7.1788535,-0.31523395,-0.5214015,8.819462,-15.2433,14.173752
0.4251375,2.8518658,-7.0211945,-0.25557914,-0.4745299,8.655336,-15.4226,13.886431
0.42551407,2.8451154,-7.0211945,-0.25557914,-0.4745299,8.6587105,-15.480082,13.867485
0.42581445,2.838523,-6.843295,-0.18740222,-0.42552772,8.618305,-15.603207,13.518471
0.42612076,2.8318496,-6.843295,-0.18740222,-0.42552772,8.621054,-15.659843,13.49925
0.42634925,2.8254232,-6.6515474,-0.12029056,-0.37972134,8.450716,-15.891507,13.1789665
0.42658073,2.8189704,-6.6515474,-0.12029056,-0.37972134,8.452791,-15.946096,13.159922
0.42673585,2.8127024,-6.443821,-0.0531789,-0.33498025,8.75106,-16.109222,12.93545
0.42689288,2.8064342,-6.443821,-0.0531789,-0.33498025,8.75247,-16.162096,12.91655
0.42697564,2.8003786,-6.2233114,0.012867497,-0.2945002,8.872923,-16.275402,12.75938
0.42705998,2.7943347,-6.2233114,0.012867497,-0.2945002,8.873676,-16.326239,12.740782
0.42706567,2.7885048,-5.988953,0.086370744,-0.2582812,8.399673,-16.29866,12.272734
0.4270729,2.782692,-5.988953,0.086370744,-0.2582812,8.399738,-16.347446,12.254562
0.42700586,2.7770872,-5.7450075,0.15454768,-0.22738853,8.638557,-16.447166,12.074247
0.42694077,2.7715104,-5.7450075,0.15454768,-0.22738853,8.637976,-16.49388,12.056564
0.42681152,2.7661772,-5.493605,0.21313721,-0.19969167,8.995948,-16.624752,11.986984
0.42668402,2.76086,-5.493605,0.21313721,-0.19969167,8.994809,-16.669209,11.969889
0.4264914,2.7557719,-5.2336807,0.2738573,-0.17412531,8.878156,-16.702198,11.833843
0.4263013,2.7507143,-5.2336807,0.2738573,-0.17412531,8.876454,-16.744427,11.817408
0.42605492,2.7458997,-4.965234,0.32925105,-0.15814635,8.376255,-16.612274,11.557602
0.42581096,2.7411046,-4.965234,0.32925105,-0.15814635,8.374069,-16.652264,11.541861
0.42552224,2.7365794,-4.691461,0.3750574,-0.1506895,8.515134,-16.694824,11.426491
0.42523625,2.7320774,-4.691461,0.3750574,-0.1506895,8.512569,-16.732334,11.411568
0.42491856,2.7278316,-4.410231,0.4080806,-0.1506895,8.691681,-16.681541,11.378372
0.42460388,2.7236078,-4.410231,0.4080806,-0.1506895,8.688856,-16.716698,11.364227
0.4242616,2.7196534,-4.126871,0.43897328,-0.15282002,8.623537,-16.740063,11.3701935
0.42392942,2.7158022,-4.126871,0.43897328,-0.15282002,8.620562,-16.772099,11.3572235
0.42356545,2.7121577,-3.8392494,0.4688007,-0.15495056,8.464069,-16.725843,11.464716
0.4231941,2.7084262,-3.8392494,0.4688007,-0.15495056,8.460737,-16.75688,11.452082
0.42281207,2.7050664,-3.547367,0.4922365,-0.1592116,8.36633,-16.856697,11.546127
0.42243475,2.7017374,-3.547367,0.4922365,-0.1592116,8.362944,-16.884396,11.534832
0.422048,2.698692,-3.2469625,0.50501966,-0.16453794,8.258914,-16.962448,11.945938
0.42166144,2.6956408,-3.2469625,0.50501966,-0.16453794,8.2554455,-16.98785,11.935572
0.4212729,2.6928988,-2.9337747,0.50928074,-0.16773373,8.419552,-17.02509,12.366871
0.42088854,2.6901786,-2.9337747,0.50928074,-0.16773373,8.4161,-17.047756,12.357626
0.42050266,2.687766,-2.6067386,0.50928074,-0.16773373,8.53713,-17.178057,12.837967
0.42011932,2.6853635,-2.6067386,0.50928074,-0.16773373,8.533688,-17.198122,12.829859
0.41973206,2.6832943,-2.2647886,0.51141125,-0.16134214,8.525419,-17.493214,13.450331
0.41934767,2.681236,-2.2647886,0.51141125,-0.16134214,8.521965,-17.510479,13.443508
0.4189532,2.6795204,-1.9025987,0.5156723,-0.1506895,8.379558,-17.869759,13.926487
0.41856104,2.6778116,-1.9025987,0.5156723,-0.1506895,8.376029,-17.884201,13.921022
0.41816244,2.6764798,-1.5201688,0.51780283,-0.13790633,8.300621,-18.22602,14.415079
0.41776568,2.6751518,-1.5201688,0.51780283,-0.13790633,8.297054,-18.237402,14.411133
0.4173591,2.674215,-1.1174988,0.52099866,-0.12512314,8.144952,-18.628729,14.806213
0.41695535,2.6732838,-1.1174988,0.52099866,-0.12512314,8.141323,-18.636934,14.803881
0.41654006,2.6727676,-0.6924583,0.5241944,-0.10914418,7.950838,-19.154182,15.023525
0.41612664,2.6722534,-0.6924583,0.5241944,-0.10914418,7.947117,-19.159054,15.022898
0.41570887,2.6721802,-0.24398194,0.52099866,-0.09209995,7.675207,-19.739792,15.177319
0.41529244,2.672107,-0.24398194,0.52099866,-0.09209995,7.6714563,-19.741127,15.178488
0.41487464,2.6724975,0.22899547,0.50928074,-0.071859926,7.706003,-19.82493,15.124096
0.4144579,2.6728866,0.22899547,0.50928074,-0.071859926,7.7022505,-19.822552,15.127161
0.4140488,2.6737509,0.7158213,0.490106,-0.049489375,7.3681636,-19.940834,14.964512
0.41364056,2.6746118,0.7158213,0.490106,-0.049489375,7.364487,-19.93464,14.969463
0.41324174,2.6759574,1.2090387,0.4624091,-0.023923028,7.7631207,-19.958036,14.736904
0.4128449,2.6772947,1.2090387,0.4624091,-0.023923028,7.7595425,-19.947964,14.743708
0.41246217,2.6791205,1.7043867,0.43045115,0.0037738485,7.334712,-19.411982,14.225676
0.4120801,2.6809404,1.7043867,0.43045115,0.0037738485,7.3312697,-19.397963,14.234343
0.41171372,2.6832297,2.1869516,0.40381956,0.028274931,6.1548066,-19.820637,14.010159
0.41134796,2.6855116,2.1869516,0.40381956,0.028274931,6.151505,-19.802803,14.020529
0.41102576,2.688267,2.6631248,0.34203422,0.04318863,7.2164173,-19.91511,13.84585
0.41070524,2.6910057,2.6631248,0.34203422,0.04318863,7.213525,-19.893433,13.857759
0.41042912,2.6942124,3.1329064,0.27811834,0.062363394,8.063369,-19.728977,13.440342
0.4101539,2.6974063,3.1329064,0.27811834,0.062363394,8.0608835,-19.703438,13.453743
0.4098949,2.7010534,3.5888395,0.252552,0.077277094,7.75209,-19.583149,13.061733
0.4096371,2.7046816,3.5888395,0.252552,0.077277094,7.7497625,-19.553932,13.076559
0.40937406,2.708773,4.0234675,0.25148675,0.08792974,7.2924914,-19.429897,12.504086
0.4091183,2.7127497,4.0234675,0.25148675,0.08792974,7.2901845,-19.397696,12.519989
0.40884456,2.7173872,4.4303985,0.25042146,0.093256064,7.388266,-19.1206,11.920576
0.40858015,2.7218628,4.4303985,0.25042146,0.093256064,7.3858805,-19.084154,11.938076
0.40831965,2.7266726,4.8032413,0.24616042,0.094321325,7.5942183,-18.661789,11.262291
0.4080583,2.7314963,4.8032413,0.24616042,0.094321325,7.591854,-18.622284,11.280687
0.40779117,2.736691,5.1356034,0.25042146,0.0921908,7.4170575,-18.325834,10.48621
0.40752387,2.741885,5.1356034,0.25042146,0.0921908,7.4146457,-18.28307,10.505547
0.4072502,2.7473829,5.4221597,0.2589436,0.08686448,7.0721936,-18.041348,9.788315
0.406978,2.752842,5.4221597,0.2589436,0.08686448,7.0697346,-17.996157,9.808115
0.4066997,2.7586093,5.668236,0.26533517,0.079407625,6.8373766,-17.771107,9.211033
0.40642327,2.7643306,5.668236,0.26533517,0.079407625,6.8348823,-17.723492,9.231224
0.40614387,2.7702763,5.8695707,0.26959622,0.07088551,6.8084145,-17.309948,8.672485
0.40614387,2.7702763,5.8695707,0.26959622,0.07088551,6.8084145,-17.309948,8.672485
0.4055739,2.7825055,6.028295,0.27172676,0.0591676,6.582991,-16.675955,8.005348
0.4055739,2.7825055,6.028295,0.27172676,0.0591676,6.582991,-16.675955,8.005348
0.4050199,2.7947576,6.1454744,0.26853096,0.04318863,6.3625064,-16.002914,7.404026
0.40443444,2.8083308,6.217912,0.25468254,0.019752815,6.5295925,-15.155308,6.805463
0.40443444,2.8083308,6.217912,0.25468254,0.019752815,6.5295925,-15.155308,6.805463
0.40443444,2.8083308,6.217912,0.25468254,0.019752815,6.5275187,-15.107092,6.8229322
0.40420547,2.8139987,6.244544,0.23124671,-0.011139854,6.793662,-14.235405,6.2813797
0.40398365,2.8201962,6.244544,0.23124671,-0.011139854,6.793662,-14.235405,6.2813797
0.40398365,2.8201962,6.244544,0.23124671,-0.011139854,6.793662,-14.235405,6.2813797
0.40343714,2.838171,6.2243037,0.20248458,-0.051619902,6.932372,-13.171481,5.7779293
0.40333077,2.8416407,6.1550617,0.16946137,-0.102752596,6.9314094,-13.141619,5.787655
0.40323496,2.8455808,6.1550617,0.16946137,-0.102752596,7.0215235,-12.14517,5.290908
0.40307,2.8523214,6.0346866,0.13111185,-0.16134214,7.02003,-12.086937,4.8406506
0.40286666,2.8639812,6.0346866,0.13111185,-0.16134214,7.1187434,-11.061663,4.855753
0.40280828,2.870117,5.8653097,0.089566536,-0.2284538,7.1565228,-10.08889,4.55021
0.40280828,2.870117,5.8653097,0.089566536,-0.2284538,7.1565228,-10.08889,4.55021
0.4027315,2.8779104,5.8653097,0.089566536,-0.2284538,7.1558285,-10.020927,4.569148
0.40271828,2.8876138,5.6458654,0.046955958,-0.30302233,7.1557074,-9.078899,4.2900095
0.40275776,2.8932252,5.378484,0.005410646,-0.38291714,7.275775,-8.139013,3.7901316
0.40279526,2.8988762,5.378484,0.005410646,-0.38291714,7.2761154,-8.089357,3.8024254
0.40287456,2.9042408,5.064231,-0.03187361,-0.46600777,7.621598,-7.2232966,3.2151232
0.40294996,2.9095204,5.064231,-0.03187361,-0.46600777,7.62228,-7.1767483,3.225955
0.40306184,2.9145179,4.7031064,-0.065962076,-0.5522942,7.819617,-6.160557,2.4074316
0.4031709,2.9195254,4.7031064,-0.065962076,-0.5522942,7.820604,-6.1162767,2.4171152
0.40331453,2.924161,4.2940445,-0.09578948,-0.6407111,8.080479,-5.261182,1.8798437
0.40345433,2.9287689,4.2940445,-0.09578948,-0.6407111,8.081746,-5.2203255,1.8882179
0.40362552,2.932989,3.8370461,-0.122421086,-0.7280628,7.8342953,-4.292199,1.3161621
0.4037926,2.9371839,3.8370461,-0.122421086,-0.7280628,7.835802,-4.2549105,1.323308
0.40399098,2.9409132,3.3395677,-0.1490527,-0.81434923,7.574243,-3.445983,0.87924194
0.40418625,2.944639,3.3395677,-0.1490527,-0.81434923,7.576008,-3.4127889,0.88515615
0.40441862,2.9478502,2.8037395,-0.18314116,-0.8953093,7.4296675,-2.4168577,0.5307808
0.4046481,2.9510617,2.8037395,-0.18314116,-0.8953093,7.431744,-2.3881721,0.5354552
0.40491703,2.953721,2.2327578,-0.22042541,-0.9688126,6.5195913,-1.5599015,0.3761506
0.40518394,2.9563856,2.2327578,-0.22042541,-0.9688126,6.5220075,-1.5360286,0.37960434
0.40552074,2.9585588,1.6340793,-0.2694276,-1.0337937,6.2473264,-0.9945357,0.9325838
0.40583232,2.960583,1.6340793,-0.2694276,-1.0337937,6.250142,-0.9763169,0.9347067
0.40620133,2.962017,1.0162259,-0.3226908,-1.0859917,5.5495815,-0.56107926,1.5006509
0.40657285,2.9634676,1.0162259,-0.3226908,-1.0859917,5.552941,-0.54792035,1.5015631
0.40700802,2.964287,0.38771987,-0.37914982,-1.123276,5.3078737,-0.0040311813,2.2338276
0.40744358,2.9651093,0.38771987,-0.37914982,-1.123276,5.3118114,0.0035803318,2.2334666
0.40794703,2.9652874,-0.24398194,-0.43880463,-1.1488423,5.330721,0.28323746,3.2565289
0.4084503,2.9654663,-0.24398194,-0.43880463,-1.1488423,5.335267,0.28517175,3.2548761
0.40901336,2.965002,-0.87248796,-0.4910026,-1.1605603,5.1105113,0.3819878,4.2575436
0.40957758,2.964538,-0.87248796,-0.4910026,-1.1605603,5.1156,0.37825465,4.254626
0.4102032,2.9634538,-1.4860803,-0.5378742,-1.1562991,5.767685,0.44087994,5.4188585
0.4108306,2.9623687,-1.4860803,-0.5378742,-1.1562991,5.773344,0.4316852,5.414691
0.41150728,2.960682,-2.0826285,-0.577289,-1.1371244,6.0428104,0.19692612,6.462798
0.41218567,2.9589953,-2.0826285,-0.577289,-1.1371244,6.0489287,0.18245232,6.4574223
0.4129053,2.9567266,-2.6557407,-0.60392064,-1.1094275,5.8543024,-0.17711294,7.6671486
0.41362855,2.9544535,-2.6557407,-0.60392064,-1.1094275,5.860819,-0.19671535,7.6605473
0.41439772,2.9516363,-3.1968951,-0.63055223,-1.071078,5.8342295,-0.6759734,8.787652
0.41516936,2.9488187,-3.1968951,-0.63055223,-1.071078,5.841181,-0.7003015,8.779827
0.41598836,2.9454901,-3.6996999,-0.66037965,-1.0210105,5.896437,-1.2749516,9.9248495
0.41681015,2.942161,-3.6996999,-0.66037965,-1.0210105,5.9038324,-1.3036833,9.915756
0.4176645,2.9383547,-4.159894,-0.68914175,-0.96135575,6.1940346,-2.0787544,11.11704
0.4185219,2.9345477,-4.159894,-0.68914175,-0.96135575,6.2017426,-2.1115737,11.106705
0.41939577,2.9302967,-4.577478,-0.7093818,-0.8910483,6.113831,-2.976621,12.033879
0.4202729,2.9260445,-4.577478,-0.7093818,-0.8910483,6.121711,-3.013216,12.022342
0.42115757,2.921387,-4.949255,-0.726426,-0.8100882,5.9189687,-3.8625321,12.79992
