Pitch,Roll,Gyro_X,Gyro_Y,Gyro_Z,Accel_X,Accel_Y,Accel_Z
0.015721964,1.9599167,-2.5268438,0.32285947,-1.1861266,-0.6880617,-17.923508,4.795616
0.016851913,1.9569949,-2.5822375,0.34203422,-1.199975,-0.47104216,-17.733093,4.32839
0.017704267,1.9547955,-2.5822375,0.34203422,-1.199975,-0.4626565,-17.741089,4.3082924
0.01869419,1.9522115,-2.6376312,0.3633395,-1.215954,-0.3188405,-17.578037,3.8536816
0.019694211,1.949607,-2.6376312,0.3633395,-1.215954,-0.30900383,-17.58736,3.8298073
0.020706948,1.9469517,-2.6951554,0.38890585,-1.2383245,-0.31340504,-17.438787,3.4511147
0.021721903,1.944297,-2.6951554,0.38890585,-1.2383245,-0.3034215,-17.448154,3.4267368
0.022751855,1.9415892,-2.7558756,0.4144722,-1.2628256,-0.29807663,-17.290035,2.9996147
0.02378515,1.9388794,-2.7558756,0.4144722,-1.2628256,-0.28791285,-17.299437,2.9746628
0.024835726,1.9361087,-2.8208566,0.44003853,-1.288392,-0.2775774,-17.146168,2.6714
0.02588882,1.9333385,-2.8208566,0.44003853,-1.288392,-0.2672181,-17.155626,2.6458511
0.026957812,1.9305015,-2.8943598,0.4688007,-1.3139583,-0.19924188,-17.026363,2.1360188
0.028029421,1.927665,-2.8943598,0.4688007,-1.3139583,-0.18870187,-17.035877,2.109787
0.029117662,1.9247488,-2.979581,0.49969336,-1.3405899,-0.13490176,-16.882765,1.7476025
0.030208742,1.9218334,-2.979581,0.49969336,-1.3405899,-0.124171495,-16.892365,1.7205791
0.031316884,1.9188293,-3.0743897,0.5327166,-1.3682867,-0.046233416,-16.739365,1.3383656
0.032427993,1.915826,-3.0743897,0.5327166,-1.3682867,-0.03530574,-16.749065,1.310461
0.033556256,1.9127233,-3.1787856,0.566805,-1.3949184,-0.07209325,-16.648865,1.056551
0.03468772,1.9096212,-3.1787856,0.566805,-1.3949184,-0.060967684,-16.658688,1.0276623
0.035833504,1.9064071,-3.2948995,0.60195875,-1.4194194,-0.0066041946,-16.64962,0.83490753
0.036982704,1.9031941,-3.2948995,0.60195875,-1.4194194,0.0046970844,-16.65959,0.8049202
0.038145654,1.8998591,-3.4206007,0.63498193,-1.4407247,-0.07484698,-16.631525,0.65405464
0.039309952,1.8965317,-3.4206007,0.63498193,-1.4407247,-0.063399315,-16.641626,0.62293434
0.040487748,1.8930657,-3.5548239,0.6680051,-1.4598995,-0.032665968,-16.709496,0.57611656
0.04167178,1.889594,-3.5548239,0.6680051,-1.4598995,-0.021024942,-16.719799,0.5435715
0.042867724,1.8859882,-3.6943736,0.6988978,-1.4790742,-0.08109307,-16.821354,0.4810009
0.04406664,1.882387,-3.6943736,0.6988978,-1.4790742,-0.06930637,-16.831781,0.44716454
0.045277093,1.8786492,-3.8371189,0.72765994,-1.4971838,-0.07177329,-16.986122,0.3976364
0.04649431,1.8749049,-3.8371189,0.72765994,-1.4971838,-0.05980873,-16.996685,0.36237717
0.047721684,1.871022,-3.9809296,0.7532263,-1.5120975,-0.09083891,-17.179886,0.33535194
0.048953652,1.8671403,-3.9809296,0.7532263,-1.5120975,-0.0787313,-17.190536,0.29870987
0.050199956,1.8631037,-4.120479,0.77772737,-1.5238154,-0.13830948,-17.239773,0.38028526
0.051441185,1.8591006,-4.120479,0.77772737,-1.5238154,-0.1261115,-17.250431,0.34240532
0.052695524,1.854943,-4.2589636,0.8011632,-1.534468,-0.08505583,-17.424156,0.46104813
0.053954948,1.8507863,-4.2589636,0.8011632,-1.534468,-0.07267928,-17.434898,0.4216442
0.055225078,1.8464969,-4.393187,0.824599,-1.5472512,-0.041046143,-17.618181,0.46232796
0.056497935,1.842217,-4.393187,0.824599,-1.5472512,-0.028540373,-17.628868,0.42165375
0.05778161,1.8377904,-4.5231495,0.8512306,-1.5536427,-0.1931014,-17.855219,0.508831
0.059067056,1.8333783,-4.5231495,0.8512306,-1.5536427,-0.1804738,-17.865849,0.4668045
0.06035776,1.8288411,-4.6488504,0.8778622,-1.5589691,-0.37369728,-18.063334,0.5767765
0.06165689,1.8242961,-4.6488504,0.8778622,-1.5589691,-0.36093664,-18.073875,0.53339386
0.062956385,1.8196379,-4.7670946,0.9023633,-1.5600344,-0.48703957,-18.228123,0.6708393
0.064260475,1.8149856,-4.7670946,0.9023633,-1.5600344,-0.47423267,-18.23848,0.6263294
0.06556897,1.8102131,-4.8778825,0.92153805,-1.5600344,-0.5571523,-18.450006,0.7386551
0.06687974,1.805456,-4.8778825,0.92153805,-1.5600344,-0.5442815,-18.460142,0.6930542
0.06819471,1.8005768,-4.980148,0.9364518,-1.5557733,-0.62714195,-18.704948,0.90481186
0.06951467,1.7957034,-4.980148,0.9364518,-1.5557733,-0.6141839,-18.714863,0.8580036
0.0708314,1.7907299,-5.0749564,0.9513655,-1.5483165,-0.62041235,-18.921068,1.102272
0.07215063,1.7857717,-5.0749564,0.9513655,-1.5483165,-0.60746336,-18.930664,1.0545559
0.07346084,1.780724,-5.163373,0.96414864,-1.5355333,-0.6281252,-19.198767,1.3315506
0.07477891,1.7756726,-5.163373,0.96414864,-1.5355333,-0.61519146,-19.20803,1.2828407
0.0760834,1.770548,-5.2400723,0.9790624,-1.5195544,-0.6790066,-19.600262,1.6308289
0.07739576,1.7654191,-5.2400723,0.9790624,-1.5195544,-0.6661315,-19.60915,1.5812912
0.078695334,1.7602191,-5.3061185,0.99184555,-1.4993143,-0.96462584,-19.862116,1.7465019
0.079997584,1.7550353,-5.3061185,0.99184555,-1.4993143,-0.9518542,-19.87056,1.6963539
0.08128424,1.7497877,-5.3583164,0.99823713,-1.4748132,-1.1068268,-20.237984,2.004673
0.08289935,1.7432396,-5.3583164,0.99823713,-1.4748132,-1.0909882,-20.247929,1.9412231
0.08399426,1.7387004,-5.3934703,0.9929108,-1.4481816,-0.9892721,-20.584976,2.2898426
0.08531478,1.7332525,-5.3934703,0.9929108,-1.4481816,-0.97632504,-20.592676,2.2369804
0.08773712,1.7230437,-5.409449,0.97799706,-1.4172889,-0.30614376,-20.797861,2.611868
0.08812186,1.7214319,-5.409449,0.97799706,-1.4172889,-0.30237293,-20.799917,2.596201
0.08907576,1.7173281,-5.408384,0.9726708,-1.3810699,-0.010507584,-20.560844,2.6041832
0.09137342,1.707509,-5.408384,0.9726708,-1.3810699,0.012010574,-20.572407,2.508627
0.091728345,1.7059592,-5.396666,0.9833234,-1.3427204,-0.65010166,-20.938072,2.5462189
0.09283764,1.7011306,-5.396666,0.9833234,-1.3427204,-0.63923264,-20.943336,2.4991875
0.09403789,1.6957749,-5.372165,0.989715,-1.3075666,0.25838184,-21.379879,3.0024567
0.095229015,1.6904881,-5.372165,0.989715,-1.3075666,0.27005005,-21.385098,2.9509163
0.0961671,1.6862174,-5.327424,1.0035634,-1.2670866,0.89215374,-21.542356,3.1199646
0.09731477,1.681018,-5.327424,1.0035634,-1.2670866,0.90339565,-21.547005,3.0692406
0.09867422,1.6747017,-5.265639,1.0429782,-1.2223456,0.9933233,-21.710331,3.299696
0.09954123,1.670696,-5.265639,1.0429782,-1.2223456,1.001812,-21.713482,3.2605877
0.10078707,1.6648377,-5.1836133,1.1058289,-1.179735,0.07069397,-22.06258,3.3470306
0.10229178,1.6578145,-5.1836133,1.1058289,-1.179735,0.08542633,-22.067297,3.2784252
0.102738455,1.6557082,-5.078152,1.1601573,-1.1403202,-0.7194414,-22.456482,3.4541683
0.103787474,1.6507816,-5.078152,1.1601573,-1.1403202,-0.7091751,-22.45939,3.406025
0.10481538,1.645962,-4.9439287,1.1825279,-1.1062317,-1.2210531,-22.811554,3.4642715
0.10585358,1.6411238,-4.9439287,1.1825279,-1.1062317,-1.2108936,-22.813925,3.416973
0.10685256,1.6364917,-4.7777476,1.1697447,-1.071078,-0.85156536,-23.0075,3.716446
0.10786343,1.6318321,-4.7777476,1.1697447,-1.071078,-0.8416767,-23.009323,3.670885
0.10884211,1.6273742,-4.581739,1.1420478,-1.034859,-0.5495844,-23.149704,3.8619175
0.10982711,1.6229119,-4.581739,1.1420478,-1.034859,-0.5399542,-23.151026,3.8182888
0.11077996,1.6186613,-4.3590984,1.1175468,-0.99544424,-0.2529049,-23.080242,3.853323
0.11173495,1.6144235,-4.3590984,1.1175468,-0.99544424,-0.24356365,-23.081095,3.8118744
0.112654135,1.6104286,-4.1140876,1.102633,-0.95283365,-0.5410347,-23.167902,3.9595547
0.11357889,1.6064299,-4.1140876,1.102633,-0.95283365,-0.53199387,-23.168344,3.9204464
0.11446875,1.6026951,-3.848837,1.0898498,-0.91022307,-1.1793079,-23.077606,3.9126568
0.115363,1.5989608,-3.848837,1.0898498,-0.91022307,-1.1705666,-23.077692,3.8761406
0.1162235,1.5955088,-3.563346,1.0642835,-0.869743,-1.6697254,-23.101547,3.9716702
0.117086895,1.5920604,-3.563346,1.0642835,-0.869743,-1.6612844,-23.101334,3.937954
0.11790995,1.5889071,-3.2565498,1.0227382,-0.8250019,-1.2893267,-23.263796,4.1273975
0.11873478,1.5857606,-3.2565498,1.0227382,-0.8250019,-1.2812672,-23.263348,4.0966396
0.11951422,1.5829325,-2.9284484,0.97586656,-0.7759997,-1.1252098,-23.406464,4.399397
0.120296486,1.5801046,-2.9284484,0.97586656,-0.7759997,-1.117569,-23.405838,4.371763
0.12102494,1.5776192,-2.5790417,0.9343212,-0.71847546,-1.1056614,-23.414745,4.3378963
0.12175438,1.5751387,-2.5790417,0.9343212,-0.71847546,-1.0985394,-23.414013,4.313671
0.12242966,1.5730132,-2.2147212,0.89490646,-0.6588206,-1.5516319,-23.403694,4.4700756
0.123108216,1.5708833,-2.2147212,0.89490646,-0.6588206,-1.5450058,-23.402905,4.449278
0.12372425,1.5691286,-1.8386829,0.85016537,-0.5949048,-1.850235,-23.521856,4.6428356
0.12433813,1.5673846,-1.8386829,0.85016537,-0.5949048,-1.8442402,-23.521057,4.625801
0.124888726,1.5660076,-1.448796,0.7915758,-0.5256626,-1.5563507,-23.300064,4.564478
0.12543553,1.5646435,-1.448796,0.7915758,-0.5256626,-1.5510063,-23.299318,4.551159
0.12590347,1.5636629,-1.0503871,0.72552943,-0.44789827,-0.64622116,-23.025742,4.737919
0.12637213,1.5626826,-1.0503871,0.72552943,-0.44789827,-0.64164734,-23.02509,4.7283573
0.12675282,1.5620943,-0.6530435,0.6775925,-0.35948133,-0.8007393,-23.067665,4.780081
0.12713514,1.5615046,-0.6530435,0.6775925,-0.35948133,-0.7970028,-23.067133,4.7743206
0.12742825,1.5613121,-0.25250405,0.64243877,-0.26786858,-1.4022694,-23.377995,4.8203278
0.12772088,1.5611202,-0.25250405,0.64243877,-0.26786858,-1.3994141,-23.377613,4.8184624
0.12792262,1.5613283,0.1533617,0.5934366,-0.17838638,-1.2777348,-23.37259,4.748667
0.12812446,1.5615366,0.1533617,0.5934366,-0.17838638,-1.2757664,-23.372356,4.7507057
0.12823048,1.5621424,0.5602927,0.5327166,-0.0846431,-1.0113697,-23.223835,4.713522
0.12833647,1.5627495,0.5602927,0.5327166,-0.0846431,-1.0103359,-23.223755,4.719454
0.12834507,1.5637609,0.9693543,0.4719965,0.012295964,-1.1251755,-23.276491,4.7053814
0.12835328,1.5647682,0.9693543,0.4719965,0.012295964,-1.1250916,-23.276543,4.715206
0.12826644,1.5661762,1.3762853,0.41234165,0.1071045,-1.2312851,-23.219267,4.566145
0.1281788,1.567587,1.3762853,0.41234165,0.1071045,-1.2321377,-23.219425,4.5799046
0.12799662,1.5693899,1.77789,0.34949106,0.20084777,-1.19561,-23.157446,4.587923
0.12781379,1.5711927,1.77789,0.34949106,0.20084777,-1.1973972,-23.157692,4.605526
0.1275412,1.573379,2.1720378,0.28131413,0.29033,-1.1809025,-22.885056,4.5023594
0.1272675,1.5755697,2.1720378,0.28131413,0.29033,-1.1835709,-22.885319,4.523741
0.12690765,1.578134,2.5565982,0.21207196,0.37768167,-1.47439,-22.832947,4.496105
0.12654728,1.5806981,2.5565982,0.21207196,0.37768167,-1.4779091,-22.833178,4.5211353
0.1261047,1.5836257,2.929441,0.13963397,0.4607723,-1.6546097,-22.857346,4.6646404
0.12566166,1.5865527,2.929441,0.13963397,0.4607723,-1.6589355,-22.85748,4.69322
0.12514037,1.5898272,3.2905655,0.057608604,0.5406671,-1.7406406,-22.953333,4.7922306
0.12461835,1.5931051,3.2905655,0.057608604,0.5406671,-1.7457371,-22.953316,4.8242416
0.1240235,1.5967257,3.6410375,-0.028677817,0.6152356,-1.8856182,-23.01544,4.9170647
0.12342937,1.600343,3.6410375,-0.028677817,0.6152356,-1.8914185,-23.015177,4.952385
0.12276884,1.6042883,3.980857,-0.11816003,0.6844778,-1.9313908,-23.23024,5.148941
0.12210951,1.6082298,3.980857,-0.11816003,0.6844778,-1.9378262,-23.229666,5.187435
0.12138662,1.6124964,4.310024,-0.21296857,0.7505242,-1.8922157,-23.377321,5.3919144
0.12066535,1.6167585,4.310024,-0.21296857,0.7505242,-1.8992672,-23.376354,5.433552
0.11988593,1.6213279,4.6285377,-0.3077771,0.8144401,-1.9308224,-23.5092,5.4255123
0.11910805,1.6258976,4.6285377,-0.3077771,0.8144401,-1.9384174,-23.507748,5.470131
0.11827333,1.630775,4.937464,-0.39832458,0.8762254,-1.9130554,-23.601753,5.5369244
0.11743989,1.6356572,4.937464,-0.39832458,0.8762254,-1.9211998,-23.599735,5.5846004
0.11656196,1.6408023,5.2357383,-0.48887205,0.93374974,-2.0255508,-23.717064,5.596531
0.1156991,1.6458757,5.2357383,-0.48887205,0.93374974,-2.0339813,-23.714449,5.6460514
0.11476802,1.6513686,5.52336,-0.57941955,0.9880782,-2.0909634,-23.74963,5.6182575
0.113822125,1.6569703,5.52336,-0.57941955,0.9880782,-2.100214,-23.746128,5.6729183
0.11288031,1.6625966,5.8003287,-0.669967,1.0370804,-2.1764603,-23.718346,5.6033077
0.11193885,1.6682462,5.8003287,-0.669967,1.0370804,-2.185667,-23.714163,5.6583996
0.110962205,1.6741894,6.064514,-0.7605145,1.0796909,-2.262251,-23.67109,5.639715
0.109989636,1.6801393,6.064514,-0.7605145,1.0796909,-2.2717648,-23.665962,5.697691
0.1089909,1.6863506,6.316982,-0.851062,1.1191057,-2.434761,-23.665,5.691139
0.10800103,1.6925434,6.316982,-0.851062,1.1191057,-2.4444485,-23.658878,5.751425
0.10699191,1.6989777,6.554536,-0.94160944,1.1553247,-2.7464104,-23.594624,5.780489
0.105990596,1.7054062,6.554536,-0.94160944,1.1553247,-2.7562065,-23.587425,5.8429813
0.1049784,1.7120343,6.7761106,-1.036418,1.1883479,-2.5985165,-23.426315,5.524296
0.10397089,1.7186834,6.7761106,-1.036418,1.1883479,-2.6083755,-23.417961,5.588829
0.10295598,1.7255217,6.9827724,-1.1312265,1.2149795,-1.4116335,-22.85344,5.885
0.10194977,1.7323608,6.9827724,-1.1312265,1.2149795,-1.421484,-22.843897,5.951269
0.10095335,1.7393757,7.163867,-1.2089908,1.2330891,-2.9731026,-23.283703,5.755808
0.0999666,1.7463917,7.163867,-1.2089908,1.2330891,-2.9827642,-23.272898,5.8236465
0.09899272,1.7535619,7.324722,-1.289951,1.2448069,-3.0449715,-23.414555,5.8689575
0.098028496,1.7607402,7.324722,-1.289951,1.2448069,-3.0544147,-23.40245,5.9382057
0.097083926,1.768045,7.473859,-1.3858247,1.2554595,-2.8338203,-23.538013,6.051676
0.09615096,1.7753509,7.473859,-1.3858247,1.2554595,-2.8429585,-23.524603,6.121971
0.095232256,1.7828114,7.614474,-1.4848943,1.269308,-2.4353647,-23.610893,6.2750397
0.09432907,1.7902504,7.614474,-1.4848943,1.269308,-2.4442158,-23.596119,6.3464127
0.09344503,1.79782,7.743371,-1.5690502,1.2799606,-2.1607819,-23.743301,6.3518715
0.092573665,1.8053983,7.743371,-1.5690502,1.2799606,-2.16932,-23.727089,6.4243336
0.09172572,1.813083,7.861615,-1.6372272,1.2874175,-2.1249523,-23.829758,6.4162674
0.0908939,1.8207539,7.861615,-1.6372272,1.2874175,-2.1331024,-23.812168,6.4893475
0.090078264,1.828558,7.9670763,-1.6894251,1.2959397,-2.1458874,-23.889435,6.4965267
0.08928105,1.8363326,7.9670763,-1.6894251,1.2959397,-2.153697,-23.870403,6.570301
0.08849786,1.8442173,8.06295,-1.7299051,1.3065922,-2.0751839,-24.065964,6.328945
0.08772895,1.8521193,8.06295,-1.7299051,1.3065922,-2.0827217,-24.045399,6.4036293
0.08697905,1.8600856,8.151367,-1.7629284,1.3151144,-1.9943037,-24.258667,6.287199
0.08624478,1.8680612,8.151367,-1.7629284,1.3151144,-2.001503,-24.236664,6.3622265
0.08552957,1.8761184,8.232327,-1.78956,1.3204408,-1.9175339,-24.472378,6.0547733
0.084830515,1.8841852,8.232327,-1.78956,1.3204408,-1.9243908,-24.448853,6.1302814
0.08414546,1.8924768,8.309027,-1.8087348,1.3172449,-1.8449135,-24.500626,5.776741
0.08350031,1.9004933,8.309027,-1.8087348,1.3172449,-1.8512373,-24.475975,5.8513756
0.08288114,1.9086738,8.381464,-1.8268442,1.3065922,-1.7998505,-24.40229,5.3000565
0.08227769,1.9168804,8.381464,-1.8268442,1.3065922,-1.8057661,-24.375763,5.3760357
0.081712164,1.9251642,8.446445,-1.8396274,1.289548,-1.7682171,-24.0658,4.6336784
0.081164494,1.9334491,8.446445,-1.8396274,1.289548,-1.773592,-24.037704,4.7099247
0.080663584,1.9417897,8.497579,-1.8492148,1.2629164,-1.7354069,-23.58257,3.9963417
0.08018088,1.9501318,8.497579,-1.8492148,1.2629164,-1.7401404,-23.552944,4.072609
0.07974663,1.9585124,8.5306015,-1.8534758,1.2330891,-1.811441,-22.957466,3.263115
0.079330586,1.9668944,8.5306015,-1.8534758,1.2330891,-1.8155179,-22.926365,3.3392181
0.07896212,1.9752954,8.5348625,-1.8513453,1.2000659,-1.6515403,-22.334274,2.5581036
0.07861257,1.9836808,8.5348625,-1.8513453,1.2000659,-1.6549692,-22.301834,2.6336918
0.07831058,1.9920456,8.506101,-1.8396274,1.1638469,-1.6914511,-21.636736,1.7942238
0.078025974,2.0004282,8.506101,-1.8396274,1.1638469,-1.6942418,-21.602997,1.869215
0.07778242,2.0087447,8.440054,-1.8172568,1.1286931,-1.5960746,-20.989477,1.2250633
0.07755667,2.0170536,8.440054,-1.8172568,1.1286931,-1.5982895,-20.954758,1.2988129
0.07736254,2.0252829,8.334593,-1.7863642,1.0967352,-1.2841604,-20.239792,0.7251167
0.077185735,2.0335045,8.334593,-1.7863642,1.0967352,-1.2858958,-20.204205,0.7975025
0.07703647,2.0415864,8.191847,-1.7480147,1.063712,-0.870769,-19.594019,0.111795425
0.07690343,2.0496767,8.191847,-1.7480147,1.063712,-0.87207204,-19.557823,0.18243599
0.0767955,2.057612,8.010753,-1.701143,1.0253625,-0.29852462,-19.018963,-0.24178314
0.076703556,2.0655236,8.010753,-1.701143,1.0253625,-0.29942632,-18.98244,-0.17328453
0.07663474,2.073245,7.792373,-1.6436187,0.9816866,0.17873979,-18.242369,-0.6286621
0.076580785,2.0809436,7.792373,-1.6436187,0.9816866,0.17820954,-18.205774,-0.56258774
0.07655048,2.0884435,7.540971,-1.5786376,0.92948866,0.7142153,-17.36996,-1.1066284
0.076533936,2.095921,7.540971,-1.5786376,0.92948866,0.7140529,-17.333431,-1.043005
0.076544344,2.103122,7.256545,-1.511526,0.8687686,1.2552414,-16.574734,-1.6140814
0.0765673,2.1103303,7.256545,-1.511526,0.8687686,1.2554693,-16.538609,-1.5532799
0.07661381,2.1172395,6.9401617,-1.439088,0.80059165,2.1513543,-15.4692545,-2.1416988
0.07667162,2.1241484,6.9401617,-1.439088,0.80059165,2.1519198,-15.433791,-2.083931
0.07676578,2.130713,6.5886245,-1.3613236,0.7153705,2.4545183,-14.2313385,-2.8433075
0.076870345,2.1373038,6.5886245,-1.3613236,0.7153705,2.4555435,-14.196749,-2.7886705
0.07702308,2.1434915,6.1944766,-1.2824941,0.61203986,2.8113837,-13.426498,-3.3936272
0.07718475,2.149691,6.1944766,-1.2824941,0.61203986,2.812971,-13.393276,-3.34268
0.077402584,2.1554856,5.761979,-1.2047298,0.5001871,2.9779115,-12.696312,-3.984807
0.07766488,2.1622164,5.761979,-1.2047298,0.5001871,2.980482,-12.659512,-3.9299822
0.07792434,2.1669888,5.292197,-1.1376181,0.37661642,3.4906025,-11.704205,-4.628698
0.07824112,2.1726985,5.292197,-1.1376181,0.37661642,3.4937086,-11.67242,-4.582573
0.078593336,2.177128,4.7819357,-1.0790286,0.23174044,3.607295,-10.7472925,-5.30354
0.07902263,2.1824603,4.7819357,-1.0790286,0.23174044,3.6115046,-10.717096,-5.2608285
0.079488695,2.186632,4.2322593,-1.0183085,0.07621183,4.042247,-9.740341,-6.0559764
0.080040604,2.191533,4.2322593,-1.0183085,0.07621183,4.0476627,-9.712126,-6.017049
0.080512635,2.1945918,3.6410375,-0.95758843,-0.08144731,4.588587,-8.387098,-7.453356
0.08164089,2.2018547,3.6410375,-0.95758843,-0.08144731,4.599658,-8.344555,-7.396217
0.08185013,2.2028108,2.9997482,-0.89047676,-0.2497591,4.620859,-7.309373,-8.547546
0.08236716,2.205169,2.9997482,-0.89047676,-0.2497591,4.6259336,-7.295354,-8.529148
0.0832396,2.2078667,2.3083916,-0.8212346,-0.426593,4.6392765,-6.5033565,-9.154711
0.08384907,2.2097495,2.3083916,-0.8212346,-0.426593,4.6452484,-6.4919543,-9.140184
0.08472584,2.2114341,1.5733593,-0.7487966,-0.6002311,4.524564,-5.911694,-9.639727
0.08591831,2.2137244,1.5733593,-0.7487966,-0.6002311,4.536253,-5.8974485,-9.622339
0.086536996,2.2143188,0.803173,-0.6742281,-0.76534706,4.5088005,-5.438638,-9.986696
0.08747081,2.2152162,0.803173,-0.6742281,-0.76534706,4.5179567,-5.4327183,-9.980143
0.08868788,2.2153811,0.0052899336,-0.6017901,-0.9240715,4.3144026,-5.1292324,-10.376921
0.08956586,2.2155,0.0052899336,-0.6017901,-0.9240715,4.3230133,-5.127921,-10.376446
0.090697505,2.214837,-0.81389844,-0.53361315,-1.0764043,4.1904507,-5.178906,-10.48759
0.091828056,2.2141752,-0.81389844,-0.53361315,-1.0764043,4.2015285,-5.1819873,-10.493388
0.09324237,2.2124522,-1.6469352,-0.47182783,-1.2223456,3.7844296,-5.358668,-10.330502
0.094266675,2.211205,-1.6469352,-0.47182783,-1.2223456,3.794465,-5.3652196,-10.340858
0.09556537,2.2089071,-2.4799721,-0.41749933,-1.3576341,3.1894827,-5.8852463,-9.785037
0.09686509,2.2066097,-2.4799721,-0.41749933,-1.3576341,3.2022114,-5.897643,-9.803856
0.09824399,2.2035022,-3.3044868,-0.3706277,-1.4769437,2.4112654,-6.738219,-8.96724
0.099627346,2.2003887,-3.3044868,-0.3706277,-1.4769437,2.4248114,-6.755124,-8.992644
0.10107485,2.1964922,-4.10237,-0.3258866,-1.5770786,1.802125,-7.8489704,-7.8176847
0.10252491,2.1925964,-4.10237,-0.3258866,-1.5770786,1.8163185,-7.870068,-7.849492
0.104023434,2.1879568,-4.8597727,-0.28221077,-1.6559082,1.3042574,-9.097085,-6.46519
0.10552828,2.1833081,-4.8597727,-0.28221077,-1.6559082,1.3189878,-9.122063,-6.5032434
0.10707213,2.1779625,-5.5671086,-0.23746964,-1.7166282,0.5487919,-10.352584,-5.2685385
0.10861856,2.1726227,-5.5671086,-0.23746964,-1.7166282,0.5639248,-10.380929,-5.312449
0.110185094,2.1666265,-6.2115936,-0.1969896,-1.7539124,0.4451704,-11.619275,-3.7625194
0.11175498,2.160636,-6.2115936,-0.1969896,-1.7539124,0.46052504,-11.650589,-3.8120556
0.11332402,2.1540687,-6.7921624,-0.15437903,-1.7698915,0.107158184,-12.996709,-2.1761894
0.114903346,2.147482,-6.7921624,-0.15437903,-1.7698915,0.12259865,-13.030516,-2.2310257
0.11647387,2.1403546,-7.3077507,-0.105376855,-1.7688262,-0.80058074,-14.306988,-0.70556736
0.118047565,2.1332412,-7.3077507,-0.105376855,-1.7688262,-0.7852018,-14.342734,-0.76521206
0.119594425,2.1256664,-7.756227,-0.06702734,-1.7507167,-1.4213083,-15.529654,0.84701633
0.12114642,2.1180992,-7.756227,-0.06702734,-1.7507167,-1.4061476,-15.566799,0.7830782
0.12266314,2.1101065,-8.137591,-0.043591518,-1.7123672,-1.6307545,-16.745243,2.520544
0.12418371,2.1021292,-8.137591,-0.043591518,-1.7123672,-1.6159058,-16.783394,2.452608
0.12564711,2.093812,-8.451844,-0.028677817,-1.6505818,-1.405293,-17.861782,4.17239
0.12712026,2.0854774,-8.451844,-0.028677817,-1.6505818,-1.3909125,-17.90054,4.100834
0.12851396,2.0768943,-8.703247,-0.0052419985,-1.5696218,-1.698133,-19.017328,5.69804
0.12991291,2.0683188,-8.703247,-0.0052419985,-1.5696218,-1.684484,-19.056023,5.623823
0.13121907,2.0595217,-8.894995,0.024585407,-1.4716175,-1.915947,-20.134258,7.434057
0.13252905,2.0507412,-8.894995,0.024585407,-1.4716175,-1.9031687,-20.17264,7.3574715
0.13372831,2.0418365,-9.027087,0.054412812,-1.36083,-1.7861271,-21.288395,9.166174
0.13494204,2.032868,-9.027087,0.054412812,-1.36083,-1.774293,-21.326305,9.087349
0.13602792,2.0238562,-9.09633,0.089566536,-1.2372593,-1.4620361,-22.120392,10.932823
0.13711745,2.014862,-9.09633,0.089566536,-1.2372593,-1.4514122,-22.1571,10.853184
0.1380691,2.005848,-9.100591,0.14069924,-1.1030359,-1.3176403,-22.882854,12.535261
0.139027,1.9968234,-9.100591,0.14069924,-1.1030359,-1.3083057,-22.91838,12.454802
0.1398295,1.9878464,-9.0409355,0.21100669,-0.95816,-1.4489269,-23.594816,14.208485
0.1406382,1.9788593,-9.0409355,0.21100669,-0.95816,-1.4410458,-23.628908,14.127825
0.14127839,1.970012,-8.91843,0.2951626,-0.8068924,-1.7747822,-24.135998,15.690617
0.14192308,1.9611723,-8.91843,0.2951626,-0.8068924,-1.7685013,-24.168293,15.610802
0.14239529,1.9525192,-8.733074,0.3867753,-0.65242904,-1.9793835,-24.793184,17.093487
0.1428736,1.9438478,-8.733074,0.3867753,-0.65242904,-1.9747238,-24.823685,17.014725
0.14317349,1.9354461,-8.482738,0.47945333,-0.4926394,-2.1010857,-25.561474,18.460945
0.14347953,1.9270183,-8.482738,0.47945333,-0.4926394,-2.098112,-25.59002,18.383999
0.14360774,1.9189315,-8.16955,0.5689355,-0.3328497,-1.6371784,-26.33049,19.65556
0.14374149,1.9108281,-8.16955,0.5689355,-0.3328497,-1.6358719,-26.356936,19.581207
0.14370611,1.9030776,-7.7977724,0.66054827,-0.18158217,-1.3106079,-26.908611,20.592155
0.14367571,1.8952187,-7.7977724,0.66054827,-0.18158217,-1.3108959,-26.93333,20.519703
0.1434889,1.8880304,-7.36634,0.75748736,-0.04096726,-1.2552605,-27.697857,21.95214
0.14330642,1.8808055,-7.36634,0.75748736,-0.04096726,-1.25704,-27.71981,21.88529
0.14296593,1.8740352,-6.874188,0.860818,0.096451856,-1.3896446,-28.812767,23.278244
0.14262977,1.8672448,-6.874188,0.860818,0.096451856,-1.3929138,-28.832752,23.215195
0.14214313,1.8610269,-6.3159895,0.96201813,0.22747938,-0.71770096,-29.516506,24.455067
0.1416627,1.8548208,-6.3159895,0.96201813,0.22747938,-0.7223778,-29.534264,24.397282
0.1410369,1.8492253,-5.6917443,1.0717404,0.34891954,-0.17781067,-30.574951,25.561413
0.14041823,1.843646,-5.6917443,1.0717404,0.34891954,-0.18383789,-30.590559,25.50933
0.13965534,1.8387662,-5.001453,1.215551,0.4639681,-0.8233452,-31.169304,26.033619
0.13889757,1.8338859,-5.001453,1.215551,0.4639681,-0.8307266,-31.182783,25.987999
0.13800918,1.8297722,-4.251507,1.3700144,0.56410295,-1.6965103,-31.44329,26.256033
0.13712557,1.8256576,-4.251507,1.3700144,0.56410295,-1.7051239,-31.454632,26.217545
0.1361279,1.8223618,-3.4482975,1.509564,0.6514546,-2.404377,-31.837471,25.870743
0.13513452,1.8190649,-3.4482975,1.509564,0.6514546,-2.4140625,-31.8467,25.83992
0.13404064,1.816627,-2.600347,1.6192863,0.73134947,-2.4343033,-32.074184,25.381485
0.13294896,1.8141853,-2.600347,1.6192863,0.73134947,-2.444954,-32.081337,25.35873
0.13176706,1.8126315,-1.722569,1.7034422,0.8080485,-2.8012466,-32.038586,24.90385
0.13058741,1.8110759,-1.722569,1.7034422,0.8080485,-2.8127518,-32.043686,24.889471
0.12932596,1.8104267,-0.8213553,1.7652276,0.88155174,-3.6630287,-31.950983,24.13192
0.12806417,1.8097749,-0.8213553,1.7652276,0.88155174,-3.6753464,-31.95404,24.126123
0.12671848,1.8100433,0.09796794,1.7961202,0.9603813,-4.148163,-31.787457,23.070824
0.12537366,1.8103092,0.09796794,1.7961202,0.9603813,-4.161293,-31.78846,23.073738
0.123955965,1.8114978,1.0279438,1.7875981,1.0402762,-4.6012993,-31.490498,22.089436
0.12253073,1.812689,1.0279438,1.7875981,1.0402762,-4.615223,-31.489391,22.101147
0.12103788,1.8147964,1.9579197,1.7417917,1.1244321,-5.0847054,-31.107891,20.886147
0.11954048,1.8169035,1.9579197,1.7417917,1.1244321,-5.099331,-31.104618,20.906548
0.11798158,1.8199168,2.8751123,1.65444,1.2053921,-5.2965145,-30.768759,19.791103
0.11642177,1.8229216,2.8751123,1.65444,1.2053921,-5.311764,-30.763218,19.820007
0.11481554,1.8268043,3.767804,1.525543,1.2810259,-5.32267,-30.482498,18.707964
0.11320475,1.8306843,3.767804,1.525543,1.2810259,-5.338421,-30.474571,18.74511
0.111563616,1.8354036,4.6274724,1.3625575,1.3523986,-5.7806377,-30.473938,17.497282
0.10991785,1.8401207,4.6274724,1.3625575,1.3523986,-5.796728,-30.46349,17.542246
0.10825617,1.8456329,5.446661,1.1590921,1.4205756,-5.5352573,-30.426773,16.335312
0.10659034,1.8511435,5.446661,1.1590921,1.4205756,-5.551552,-30.413692,16.387638
0.10492432,1.8573946,6.225369,0.92579913,1.4887525,-5.740238,-30.446133,15.024693
0.10324856,1.8636692,6.225369,0.92579913,1.4887525,-5.7566338,-30.430222,15.084017
0.101582065,1.8706437,6.957206,0.67333144,1.5558642,-6.055464,-30.330486,13.871307
0.099915855,1.8776104,6.957206,0.67333144,1.5558642,-6.0717735,-30.311686,13.936882
0.098274566,1.885225,7.638975,0.40168902,1.6197801,-7.1700306,-30.884184,12.753811
0.096632496,1.892847,7.638975,0.40168902,1.6197801,-7.1861095,-30.862318,12.825195
0.095022984,1.9010763,8.266416,0.11087183,1.6826307,-6.5506496,-29.894615,11.929985
0.0934202,1.9092891,8.266416,0.11087183,1.6826307,-6.566353,-29.869614,12.006479
0.091860145,1.9180597,8.832071,-0.18314116,1.7465465,-8.061257,-30.244284,10.785448
0.0903098,1.9268135,8.832071,-0.18314116,1.7465465,-8.076446,-30.216043,10.866451
0.0888259,1.9360666,9.339137,-0.50698155,1.8030055,-8.177184,-30.127806,9.4817295
0.08735508,1.9453022,9.339137,-0.50698155,1.8030055,-8.191599,-30.09626,9.56658
0.085967235,1.9549829,9.791875,-0.8531925,1.8562688,-6.2084427,-29.564224,8.66877
0.08459648,1.9646457,9.791875,-0.8531925,1.8562688,-6.221879,-29.529356,8.756861
0.083311856,1.9746667,10.182827,-1.1621192,1.9084667,-5.2672205,-29.037273,7.918871
0.082041554,1.9847199,10.182827,-1.1621192,1.9084667,-5.2796755,-28.999023,8.009733
0.08085695,1.9950826,10.507732,-1.4135216,1.9532079,-7.3119974,-28.77657,6.8675423
0.07969506,2.005437,10.507732,-1.4135216,1.9532079,-7.323395,-28.735115,6.9602547
0.0786391,2.0160303,10.771917,-1.6670545,1.98197,-7.3960047,-28.399519,6.0873795
0.07760489,2.026657,10.771917,-1.6670545,1.98197,-7.40615,-28.354834,6.181568
0.076707974,2.0374513,10.987102,-1.9525454,2.0000794,-6.3375587,-27.772009,5.630266
0.07583849,2.0482578,10.987102,-1.9525454,2.0000794,-6.346088,-27.724379,5.7249947
0.07510588,2.0592153,11.149021,-2.2199268,2.0149932,-4.9071784,-27.421146,4.3791523
0.07440499,2.0701747,11.149021,-2.2199268,2.0149932,-4.914058,-27.370617,4.474079
0.073835686,2.0812252,11.26407,-2.4446976,2.018189,-2.46798,-26.68167,4.6553802
0.07330017,2.0922885,11.26407,-2.4446976,2.018189,-2.473237,-26.628445,4.7500114
0.07290304,2.1034193,11.32479,-2.6098137,2.0011446,-4.655856,-27.450024,3.4798717
0.072542496,2.114541,11.32479,-2.6098137,2.0011446,-4.659396,-27.394299,3.5737152
0.07233622,2.1256747,11.353552,-2.7749295,1.9585341,-3.0094204,-27.543278,3.087593
0.07216726,2.136832,11.353552,-2.7749295,1.9585341,-3.011081,-27.485168,3.1803951
0.07216739,2.147996,11.362074,-2.9325888,1.8999445,-1.7948247,-27.205627,2.0802307
0.07220633,2.1591263,11.362074,-2.9325888,1.8999445,-1.794442,-27.145489,2.1714287
0.07241661,2.170291,11.348226,-3.0572248,1.8232455,-1.2177696,-26.088062,0.5479107
0.07266607,2.1814332,11.348226,-3.0572248,1.8232455,-1.215322,-26.025711,0.6377373
0.07308956,2.1925201,11.305615,-3.147772,1.7177844,-0.31573534,-24.238756,-1.3613873
0.07355479,2.203662,11.305615,-3.147772,1.7177844,-0.31116772,-24.174309,-1.2730579
0.07420168,2.2146747,11.207611,-3.2127533,1.5814306,0.5570917,-22.155865,-3.0540257
0.07488506,2.2256527,11.207611,-3.2127533,1.5814306,0.5637989,-22.090328,-2.968525
0.075753205,2.2365513,11.031842,-3.243646,1.4227061,1.0272169,-19.845509,-4.8189783
0.07665689,2.2474253,11.031842,-3.243646,1.4227061,1.0360832,-19.778625,-4.7358484
0.0777253,2.2580333,10.764461,-3.2425807,1.2448069,1.8941097,-17.318197,-6.68106
0.078828566,2.2686388,10.764461,-3.2425807,1.2448069,1.9049358,-17.25112,-6.601533
0.08009221,2.2789273,10.392684,-3.211688,1.0541246,1.9077501,-14.805282,-9.019939
0.0813854,2.2891924,10.392684,-3.211688,1.0541246,1.9204359,-14.738632,-8.944469
0.082821935,2.2989717,9.909054,-3.1637511,0.842137,3.150776,-12.658368,-10.563654
0.08429115,2.308777,9.909054,-3.1637511,0.842137,3.165187,-12.59314,-10.49301
0.085913904,2.3180075,9.317832,-3.1019657,0.61843145,2.62564,-11.625935,-10.829484
0.087557904,2.327216,9.317832,-3.1019657,0.61843145,2.641756,-11.56326,-10.764499
0.08934019,2.3357782,8.638193,-3.033789,0.39472592,2.9130087,-10.733343,-10.441419
0.08934019,2.3357782,8.638193,-3.033789,0.39472592,2.9130087,-10.733343,-10.441419
0.08934019,2.3357782,8.638193,-3.033789,0.39472592,2.9130087,-10.733343,-10.441419
0.09684191,2.366281,7.8818555,-2.9826562,0.15930246,7.693508,-6.007577,-14.011901
0.09863361,2.3722765,7.023252,-2.9027612,-0.11127471,9.0039215,-2.7082071,-17.386293
0.09924197,2.3743045,7.023252,-2.9027612,-0.11127471,9.009882,-2.6935177,-17.372917
0.101487696,2.3803935,6.035752,-2.7759948,-0.4116793,8.337547,-1.1741171,-18.070683
0.10368259,2.3863182,6.035752,-2.7759948,-0.4116793,8.359034,-1.1304932,-18.032417
0.10605567,2.3913064,4.943856,-2.648163,-0.72273654,8.377468,-0.1881895,-17.641685
0.10840853,2.3962383,4.943856,-2.648163,-0.72273654,8.400486,-0.15112782,-17.610695
0.11095174,2.40015,3.7827177,-2.522462,-1.0242064,7.721464,0.7551718,-17.213318
0.11332774,2.4037986,3.7827177,-2.522462,-1.0242064,7.7446957,0.7832899,-17.191206
0.11577626,2.4063084,2.5821648,-2.381847,-1.3075666,6.9450264,1.6125546,-16.583006
0.11937545,2.4099934,2.5821648,-2.381847,-1.3075666,6.980198,1.642086,-16.561985
0.121160254,2.4109662,1.3624369,-2.2337751,-1.5781438,6.24107,1.4111452,-15.604317
0.12426719,2.4126585,1.3624369,-2.2337751,-1.5781438,6.271412,1.4259567,-15.596081
0.12610786,2.4128358,0.15123117,-2.076116,-1.8231547,5.8632097,0.5668459,-13.858427
0.12961748,2.4131732,0.15123117,-2.076116,-1.8231547,5.8974667,0.5722332,-13.859525
0.13146505,2.4125645,-1.033343,-1.9088696,-2.0362077,5.1493473,-0.30689812,-12.313793
0.13414061,2.4116838,-1.033343,-1.9088696,-2.0362077,5.1754417,-0.31098175,-12.322119
0.13683899,2.4096956,-2.1689148,-1.7426883,-2.2215636,5.0293627,-1.4818096,-10.4128
0.13955703,2.4076936,-2.1689148,-1.7426883,-2.2215636,5.0558567,-1.4938469,-10.428591
0.14223416,2.404684,-3.241636,-1.5807681,-2.3792226,4.737174,-2.9975157,-8.415928
0.14492415,2.4016633,-3.241636,-1.5807681,-2.3792226,4.7633753,-3.016726,-8.438534
0.14760122,2.3976755,-4.2376585,-1.4231089,-2.5070546,4.0951147,-4.3547683,-6.604907
0.15027641,2.3936963,-4.2376585,-1.4231089,-2.5070546,4.121148,-4.380558,-6.6340504
0.15293661,2.3888326,-5.1484594,-1.2729067,-2.6114504,3.2276506,-5.652664,-4.9166446
0.15560186,2.38397,-5.1484594,-1.2729067,-2.6114504,3.2535644,-5.684327,-4.9519877
0.15824008,2.3783288,-5.971909,-1.1429445,-2.694541,2.6854439,-6.8752604,-3.355085
0.16089013,2.372677,-5.971909,-1.1429445,-2.694541,2.7111893,-6.9119577,-3.3961349
0.16352807,2.3663082,-6.7101374,-1.0396138,-2.7552612,2.2675385,-8.092979,-1.8333869
0.16617383,2.3599396,-6.7101374,-1.0396138,-2.7552612,2.2932239,-8.133995,-1.8798323
0.16880734,2.352921,-7.370601,-0.95545787,-2.7904148,1.8782423,-9.318743,-0.26945114
0.17145796,2.3458822,-7.370601,-0.95545787,-2.7904148,1.9039466,-9.363538,-0.32115173
0.17407551,2.338281,-7.9564967,-0.8862157,-2.7978716,1.6851118,-10.493904,1.2270498
0.17670044,2.3306875,-7.9564967,-0.8862157,-2.7978716,1.710542,-10.541528,1.1707878
0.17930123,2.3225105,-8.472085,-0.81803876,-2.77124,1.036623,-11.804013,2.6662827
0.18189976,2.3143735,-8.472085,-0.81803876,-2.77124,1.0617766,-11.854199,2.6054
0.18442267,2.3057778,-8.921626,-0.7509271,-2.7094548,0.3152563,-12.979496,4.1545954
0.18696932,2.2971382,-8.921626,-0.7509271,-2.7094548,0.33988518,-13.03181,4.089283
0.18940859,2.2881062,-9.306187,-0.69020706,-2.6125157,0.109678626,-14.144366,5.6201115
0.1918589,2.2790728,-9.306187,-0.69020706,-2.6125157,0.13335264,-14.197985,5.551093
0.19417512,2.2697139,-9.626831,-0.63268274,-2.4793575,0.0072801113,-15.19165,7.006851
0.19650659,2.2603345,-9.626831,-0.63268274,-2.4793575,0.029784918,-15.246152,6.9344215
0.19868264,2.2506762,-9.884625,-0.5687669,-2.3216984,0.2854128,-16.259514,8.382294
0.20086859,2.2410157,-9.884625,-0.5687669,-2.3216984,0.30649376,-16.314404,8.306885
0.20287341,2.2311378,-10.082765,-0.49206784,-2.142734,0.6610098,-17.054815,9.661261
0.20488751,2.2212574,-10.082765,-0.49206784,-2.142734,0.680418,-17.109663,9.583336
0.20668463,2.2112494,-10.22551,-0.39086774,-1.9445949,0.90841913,-17.710644,10.753923
0.2084975,2.2011983,-10.22551,-0.39086774,-1.9445949,0.9258728,-17.765127,10.673857
0.21007495,2.1910598,-10.312861,-0.26410127,-1.740064,1.348074,-18.36551,11.876137
0.21166055,2.180919,-10.312861,-0.26410127,-1.740064,1.363328,-18.419157,11.794571
0.2129979,2.1707387,-10.349081,-0.11176845,-1.5355333,1.7065926,-18.984934,12.808998
0.21434332,2.1605563,-10.349081,-0.11176845,-1.5355333,1.719531,-19.037483,12.726324
0.21542622,2.1503906,-10.335232,0.06613072,-1.3299372,1.8304968,-19.510902,13.596466
0.21651949,2.140203,-10.335232,0.06613072,-1.3299372,1.8410072,-19.56218,13.513016
0.21733792,2.1301277,-10.273447,0.26640043,-1.127537,2.0308266,-20.081762,14.296991
0.21816637,2.1200306,-10.273447,0.26640043,-1.127537,2.0387897,-20.131325,14.213575
0.21871988,2.1100607,-10.16266,0.4858449,-0.9304631,2.3553524,-20.486362,14.810984
0.21928236,2.1000896,-10.16266,0.4858449,-0.9304631,2.360753,-20.534094,14.727945
0.2195732,2.0902967,-10.007131,0.7223336,-0.7440418,2.6029701,-20.844006,15.24955
0.21987377,2.0805027,-10.007131,0.7223336,-0.7440418,2.605855,-20.88974,15.167372
0.21990678,2.070933,-9.813252,0.98012763,-0.56933844,2.4481564,-21.369879,15.742918
0.21995059,2.0613723,-9.813252,0.98012763,-0.56933844,2.448578,-21.413439,15.662098
0.21973446,2.0520635,-9.577829,1.2496395,-0.4052877,2.2501736,-21.948803,16.162664
0.21953066,2.0427632,-9.577829,1.2496395,-0.4052877,2.2482185,-21.990166,16.083502
0.21908075,2.0337844,-9.304056,1.521282,-0.25188962,1.8512478,-22.633226,16.634237
0.21864186,2.02476,-9.304056,1.521282,-0.25188962,1.8470364,-22.672426,16.556908
0.21798508,2.0161533,-8.986608,1.7822717,-0.116601035,1.539053,-23.135794,16.885292
0.21734062,2.007521,-8.986608,1.7822717,-0.116601035,1.5328598,-23.172441,16.810877
0.21650213,1.9992862,-8.625483,2.0230215,0.0016433196,1.3715744,-23.619028,17.03666
0.2156797,1.9910594,-8.625483,2.0230215,0.0016433196,1.3636723,-23.653168,16.965326
0.21468607,1.9832497,-8.224943,2.238205,0.108169764,1.1625805,-24.020626,17.38592
0.21370906,1.9754468,-8.224943,2.238205,0.108169764,1.1531887,-24.052309,17.317884
0.21257578,1.9681093,-7.7881846,2.4310179,0.21150042,1.5636692,-24.580017,17.938576
0.21145838,1.9607706,-7.7881846,2.4310179,0.21150042,1.5529251,-24.60923,17.874264
0.21020193,1.9539297,-7.317338,2.6110475,0.3052437,1.3971825,-25.378645,18.403244
0.20896117,1.9470873,-7.317338,2.6110475,0.3052437,1.3852425,-25.405413,18.34301
0.20759419,1.9407712,-6.8166637,2.7857509,0.3893996,0.99378777,-25.89465,18.842875
0.20624134,1.934447,-6.8166637,2.7857509,0.3893996,0.9807606,-25.919044,18.787006
0.20477356,1.9286889,-6.286162,2.9476712,0.46929443,1.2635098,-26.381912,19.19583
0.20331927,1.9229226,-6.286162,2.9476712,0.46929443,1.2494984,-26.403944,19.144732
0.20174369,1.9177207,-5.734355,3.1106565,0.55238503,0.43465042,-26.96513,19.390778
0.20018855,1.9125367,-5.734355,3.1106565,0.55238503,0.41965294,-26.984879,19.344757
0.19850747,1.9079374,-5.159112,3.266185,0.64080197,0.8535423,-27.543835,19.893013
0.19683462,1.9033211,-5.159112,3.266185,0.64080197,0.8374119,-27.561523,19.851992
0.19504914,1.8993266,-4.5646944,3.4078653,0.7302842,-0.50621414,-28.27159,19.744818
0.19328444,1.8953476,-4.5646944,3.4078653,0.7302842,-0.5232544,-28.287083,19.709503
0.19141814,1.8919816,-3.9468412,3.5165224,0.805918,-1.0153294,-28.492266,19.880905
0.18956208,1.8886104,-3.9468412,3.5165224,0.805918,-1.0332603,-28.505774,19.851059
0.18763112,1.8858854,-3.3044868,3.5846992,0.8740949,-1.9234161,-28.67538,19.764898
0.18570857,1.8831545,-3.3044868,3.5846992,0.8740949,-1.942009,-28.686869,19.740864
0.18373168,1.8810773,-2.6472185,3.6113307,0.9326845,-3.100769,-28.686844,19.55523
0.18176132,1.8789941,-2.6472185,3.6113307,0.9326845,-3.1198368,-28.696337,19.537113
0.17975593,1.8775684,-1.9771672,3.5804381,0.98594767,-2.5885735,-28.785297,19.730919
0.1777509,1.8761333,-1.9771672,3.5804381,0.98594767,-2.607994,-28.792826,19.71873
0.17572595,1.8753598,-1.2975285,3.5133264,1.0338845,-2.828724,-28.98517,19.659973
0.17370336,1.87458,-1.2975285,3.5133264,1.0338845,-2.8483257,-28.990732,19.653797
0.17166978,1.8744632,-0.61362875,3.4302359,1.0754299,-4.1944237,-29.296022,19.20842
0.16963848,1.87434,-0.61362875,3.4302359,1.0754299,-4.214119,-29.29962,19.2083
0.16760989,1.87488,0.07666265,3.3034694,1.108453,-4.712635,-29.339556,18.840796
0.16558166,1.8754131,0.07666265,3.3034694,1.108453,-4.732317,-29.34116,18.846718
0.16358377,1.8765978,0.76375824,3.120244,1.1318889,-4.6272144,-29.273745,18.336727
0.16158454,1.8777754,0.76375824,3.120244,1.1318889,-4.6466236,-29.273325,18.348577
0.15963519,1.8795985,1.4455274,2.898669,1.1425415,-4.933714,-29.218212,17.614613
0.15768526,1.8814126,1.4455274,2.898669,1.1425415,-4.9526615,-29.215729,17.632332
0.15579988,1.8838602,2.1166441,2.6493971,1.1468027,-5.339691,-29.000492,16.755638
0.15391296,1.8862983,2.1166441,2.6493971,1.1468027,-5.35804,-28.995893,16.779072
0.15211153,1.8893489,2.768586,2.3649714,1.140411,-5.2606354,-28.620502,15.730711
0.15030792,1.8923894,2.768586,2.3649714,1.140411,-5.2781734,-28.613731,15.759615
0.1486083,1.8960142,3.3928308,2.0549796,1.1254973,-5.62512,-28.250546,14.793087
0.14690468,1.8996323,3.3928308,2.0549796,1.1254973,-5.641695,-28.241566,14.827211
0.14532077,1.9037958,3.985118,1.7279433,1.1052573,-5.5421963,-27.631996,13.726648
0.14373152,1.9079566,3.985118,1.7279433,1.1052573,-5.5576725,-27.620804,13.765661
0.14227435,1.9126263,4.541186,1.3817323,1.083952,-6.366741,-27.392103,12.966461
0.14079508,1.9173497,4.541186,1.3817323,1.083952,-6.381151,-27.378508,13.010469
0.13948123,1.9224776,5.0546436,1.0163466,1.0562551,-5.991722,-26.7071,12.186537
0.1381483,1.9276654,5.0546436,1.0163466,1.0562551,-6.004715,-26.691269,12.234592
0.13700417,1.9331356,5.5222945,0.64669985,1.0285583,-7.361412,-26.55424,11.030487
0.13584228,1.9386829,5.5222945,0.64669985,1.0285583,-7.372738,-26.536385,11.081554
0.13484526,1.9446039,5.9452047,0.25148675,1.0008614,-5.701727,-25.57338,10.35054
0.13384895,1.9505247,5.9452047,0.25148675,1.0008614,-5.71144,-25.553356,10.404697
0.133015,1.9567918,6.318047,-0.12881267,0.9774256,-5.566347,-25.13889,9.657358
0.13218583,1.9630464,6.318047,-0.12881267,0.9774256,-5.574435,-25.116745,9.714212
0.1315118,1.969606,6.635496,-0.4696973,0.955055,-6.409403,-24.973185,9.012239
0.13084827,1.9761136,6.635496,-0.4696973,0.955055,-6.4158783,-24.949127,9.070997
0.13034488,1.9828851,6.909269,-0.79992926,0.9284234,-6.7272434,-24.631372,8.30348
0.12984987,1.9896433,6.909269,-0.79992926,0.9284234,-6.7320757,-24.605335,8.364061
0.12951526,1.9966185,7.1414967,-1.1322918,0.9071181,-5.8255434,-24.295311,7.7559433
0.12919073,2.0035868,7.1414967,-1.1322918,0.9071181,-5.8287096,-24.267384,7.817938
0.12902135,2.010716,7.335375,-1.4454795,0.8900739,-4.709877,-24.022694,7.1915474
0.12886396,2.0178456,7.335375,-1.4454795,0.8900739,-4.7114124,-23.993023,7.2544765
0.1288563,2.0250728,7.489838,-1.7192525,0.8677033,-3.9788628,-23.967102,6.7002583
0.12886254,2.032351,7.489838,-1.7192525,0.8677033,-3.9787989,-23.935696,6.76396
0.12901461,2.0396876,7.611278,-1.9504149,0.8325496,-2.8185234,-23.788483,5.5110416
0.12918365,2.0470905,7.611278,-1.9504149,0.8325496,-2.8168726,-23.755417,5.5752754
0.12949225,2.0545125,7.703956,-2.1410973,0.7910043,-2.4738855,-22.50058,4.451807
0.1298182,2.0619495,7.703956,-2.1410973,0.7910043,-2.470705,-22.466225,4.515724
0.13027981,2.0694308,7.755089,-2.2849078,0.7388063,-3.2945962,-22.091063,3.1670933
0.13075893,2.0769112,7.755089,-2.2849078,0.7388063,-3.2899208,-22.055384,3.2307682
0.13138907,2.0843987,7.7710676,-2.4521544,0.66530305,-0.21440506,-21.03262,2.5375652
0.13203762,2.091886,7.7710676,-2.4521544,0.66530305,-0.20807803,-20.995766,2.6006222
0.13281676,2.0993633,7.746567,-2.579986,0.5854083,3.4482822,-19.019043,0.2259388
0.13361317,2.1068254,7.746567,-2.579986,0.5854083,3.4560485,-18.981209,0.28811073
0.13454641,2.1142197,7.66028,-2.603422,0.49805656,-1.3998691,-19.091541,-1.039299
0.13549893,2.1216202,7.66028,-2.603422,0.49805656,-1.3905785,-19.052929,-0.9783268
0.13654423,2.1288671,7.49836,-2.5458977,0.38194272,-2.46257,-17.94194,-2.082574
0.13760866,2.136128,7.49836,-2.5458977,0.38194272,-2.452192,-17.903034,-2.0234365
0.13883016,2.1431828,7.308743,-2.623662,0.24026255,0.08798599,-18.084862,-2.5027056
0.14007184,2.1502573,7.308743,-2.623662,0.24026255,0.10009003,-18.045898,-2.4458113
0.1414807,2.1571112,7.079711,-2.71634,0.10177818,1.7897525,-16.216652,-3.8755417
0.14321803,2.1654563,7.079711,-2.71634,0.10177818,1.8066788,-16.169384,-3.8093634
0.14453928,2.1709995,6.8059382,-2.739776,-0.044163052,1.8482733,-14.341824,-4.656432
0.14777035,2.1840625,6.4693146,-2.712079,-0.1954306,0.87416553,-13.528099,-4.2481375
0.14777035,2.1840625,6.4693146,-2.712079,-0.1954306,0.87416553,-13.528099,-4.2481375
0.14777035,2.1840625,6.4693146,-2.712079,-0.1954306,0.87416553,-13.528099,-4.2481375
0.15228054,2.2003088,6.0655794,-2.6545546,-0.333915,0.9180441,-13.430682,-4.1234865
0.15332481,2.2036858,6.0655794,-2.6545546,-0.333915,2.2785335,-12.107597,-4.294216
0.15492888,2.208384,5.592602,-2.5661378,-0.47666043,4.8176174,-9.722643,-6.5285845
0.15685256,2.2139902,5.592602,-2.5661378,-0.47666043,4.836318,-9.687726,-6.4866457
0.15876496,2.2188888,5.0354686,-2.4361756,-0.64390695,6.0567894,-7.525879,-9.031352
0.16063257,2.2236536,5.0354686,-2.4361756,-0.64390695,6.074929,-7.4955235,-8.996286
0.1626962,2.2281413,4.388853,-2.2753205,-0.8271324,6.018361,-6.5805264,-9.801685
0.16492249,2.2329674,4.388853,-2.2753205,-0.8271324,6.039975,-6.5489855,-9.766856
0.16649121,2.2357614,3.6687343,-2.1091392,-1.0071621,5.097515,-6.2333946,-9.560314
0.16848812,2.239312,3.6687343,-2.1091392,-1.0071621,5.116893,-6.209517,-9.535271
0.17056803,2.242198,2.8985481,-1.9642633,-1.1744087,4.801878,-5.806358,-8.983959
0.17265196,2.245086,2.8985481,-1.9642633,-1.1744087,4.8220825,-5.786171,-8.964239
0.17477864,2.24721,2.096404,-1.8279095,-1.3310025,4.440468,-5.6603427,-8.332734
0.17690203,2.249329,2.096404,-1.8279095,-1.3310025,4.4610424,-5.6446295,-8.319029
0.17906629,2.250677,1.2761505,-1.6819682,-1.4716175,3.8068361,-5.6334934,-7.444538
0.18120497,2.2520084,1.2761505,-1.6819682,-1.4716175,3.8275404,-5.6224523,-7.4368896
0.18336308,2.2525616,0.452701,-1.5307007,-1.5973186,3.0966406,-5.82199,-6.5732484
0.18552312,2.2531147,0.452701,-1.5307007,-1.5973186,3.1175375,-5.8155913,-6.571552
0.18768129,2.2528887,-0.3622263,-1.38689,-1.703845,2.683508,-6.264024,-5.335536
0.18983911,2.2526622,-0.3622263,-1.38689,-1.703845,2.7043667,-6.2623115,-5.339744
0.19197896,2.2516723,-1.154783,-1.2558625,-1.7943926,3.074592,-6.811108,-3.7695155
0.1941186,2.2506824,-1.154783,-1.2558625,-1.7943926,3.095255,-6.8139825,-3.7794886
0.19626471,2.248964,-1.9185777,-1.1248349,-1.8615042,1.186244,-7.1085167,-2.9282675
0.19841112,2.2472458,-1.9185777,-1.1248349,-1.8615042,1.2069545,-7.1156797,-2.9437845
0.20052318,2.2448266,-2.6429574,-1.0076559,-1.9094411,1.5912452,-8.400766,-0.8145766
0.20263408,2.24241,-2.6429574,-1.0076559,-1.9094411,1.6115952,-8.412034,-0.83538866
0.20472355,2.2393217,-3.314074,-0.91497785,-1.9350075,1.6460958,-9.777586,1.202507
0.20681253,2.2362366,-3.314074,-0.91497785,-1.9350075,1.6662176,-9.792669,1.1765575
0.20885344,2.2325242,-3.9127526,-0.81803876,-1.9360727,1.7720593,-11.190482,3.147397
0.2108924,2.2288184,-3.9127526,-0.81803876,-1.9360727,1.791682,-11.209042,3.1166582
0.21287087,2.2245722,-4.429406,-0.7157734,-1.9232895,1.427643,-12.174025,4.7194233
0.21485204,2.220325,-4.429406,-0.7157734,-1.9232895,1.4466939,-12.195506,4.6844463
0.21675609,2.2156322,-4.866164,-0.61457324,-1.8998537,1.3309197,-13.009588,6.2262135
0.21866323,2.2109385,-4.866164,-0.61457324,-1.8998537,1.3492427,-13.033365,6.187684
0.22049278,2.2058878,-5.226224,-0.52722156,-1.8678958,1.3237176,-13.786924,7.5445833
0.22232771,2.200831,-5.226224,-0.52722156,-1.8678958,1.3413324,-13.812426,7.50309
0.22408433,2.1954737,-5.515976,-0.44732675,-1.82422,1.6407051,-14.6008625,8.857441
0.22583951,2.1901314,-5.515976,-0.44732675,-1.82422,1.6575413,-14.627587,8.813547
0.22750701,2.1845639,-5.7375507,-0.3674319,-1.767761,1.7501435,-15.297091,10.022413
0.22917852,2.1789947,-5.7375507,-0.3674319,-1.767761,1.7661648,-15.324663,9.976566
0.23074909,2.1732702,-5.8973403,-0.28008023,-1.7006493,1.7333279,-16.061663,11.030792
0.23232386,2.1675441,-5.8973403,-0.28008023,-1.7006493,1.7484102,-16.089674,10.983511
0.23378892,2.1617208,-5.9996057,-0.18846749,-1.6250155,1.6666689,-16.716663,11.941004
0.23525847,2.155896,-5.9996057,-0.18846749,-1.6250155,1.6807337,-16.74479,11.892763
0.23660967,2.1500282,-6.048608,-0.090463154,-1.5419248,1.4494524,-17.271053,12.777891
0.23796545,2.1441593,-6.048608,-0.090463154,-1.5419248,1.4624186,-17.299011,12.729122
0.23919132,2.1383007,-6.044347,0.012867497,-1.4481816,1.2969694,-17.748241,13.623753
0.24042185,2.132441,-6.044347,0.012867497,-1.4481816,1.3087311,-17.77578,13.574892
0.2415167,2.1266394,-5.993214,0.119393945,-1.349112,1.1228695,-18.195637,14.4411125
0.24261637,2.1208372,-5.993214,0.119393945,-1.349112,1.1333742,-18.222542,14.392578
0.2437208,2.1150336,-5.993214,0.119393945,-1.349112,1.1439209,-18.24914,14.3438835
0.24467702,2.109333,-5.8984056,0.23231198,-1.2383245,0.9423647,-18.816328,15.277681
0.24563794,2.1036317,-5.8984056,0.23231198,-1.2383245,0.95153713,-18.842133,15.229704
0.24643886,2.098074,-5.7641826,0.35268685,-1.1179496,0.84425926,-19.48021,16.198109
0.2472445,2.092515,-5.7641826,0.35268685,-1.1179496,0.85194397,-19.505098,16.151245
0.2478803,2.0871437,-5.5873485,0.47945333,-0.98905265,0.71914864,-20.036758,16.972692
0.24852096,2.0817719,-5.5873485,0.47945333,-0.98905265,0.72525597,-20.060589,16.927309
0.248983,2.0766304,-5.3689694,0.6147419,-0.8548293,0.6961441,-20.538376,17.78893
0.24944992,2.0714884,-5.3689694,0.6147419,-0.8548293,0.70059586,-20.561028,17.745434
0.2497336,2.0665984,-5.111175,0.75429153,-0.71634495,0.95708656,-20.826918,18.489443
0.25002137,2.0617225,-5.111175,0.75429153,-0.71634495,0.95983124,-20.84832,18.448172
0.25011888,2.057126,-4.8150315,0.9002328,-0.5725342,0.87457085,-21.112888,19.036644
0.2502193,2.0526204,-4.8150315,0.9002328,-0.5725342,0.87553024,-21.132662,18.998507
0.2501224,2.048412,-4.4879956,1.0546961,-0.42339718,0.63518333,-21.38602,19.642984
0.25003013,2.0441952,-4.4879956,1.0546961,-0.42339718,0.6342983,-21.404621,19.607338
0.2497492,2.0403538,-4.1290016,1.2027678,-0.28065175,-0.033966064,-21.82888,20.231033
0.24947284,2.0365124,-4.1290016,1.2027678,-0.28065175,-0.036600113,-21.845991,20.198643
0.24901634,2.0330763,-3.7348535,1.3284692,-0.13790633,0.2032566,-21.785036,20.576849
0.24856411,2.0296402,-3.7348535,1.3284692,-0.13790633,0.19894218,-21.80058,20.547974
0.2479407,2.0266395,-3.3076825,1.4392565,0.0037738485,-0.324152,-22.092295,20.8821
0.24732119,2.0236387,-3.3076825,1.4392565,0.0037738485,-0.33005524,-22.106201,20.857021
0.24653783,2.0210996,-2.8506842,1.5319346,0.14545402,-0.7253971,-22.712234,21.67881
0.24575698,2.0185573,-2.8506842,1.5319346,0.14545402,-0.7328396,-22.724451,21.65775
0.24481821,2.0165071,-2.3606625,1.6033074,0.29033,-0.84236526,-23.42446,22.560453
0.24388218,2.0144558,-2.3606625,1.6033074,0.29033,-0.8513012,-23.434898,22.54374
0.24279708,2.0129242,-1.8376175,1.6587011,0.4309449,-0.59350777,-24.094711,23.130154
0.24171391,2.0113916,-1.8376175,1.6587011,0.4309449,-0.60386086,-24.103275,23.118023
0.24048716,2.010407,-1.2847453,1.7055727,0.5694293,-0.6730461,-24.899979,23.340588
0.2392629,2.009422,-1.2847453,1.7055727,0.5694293,-0.6847439,-24.90657,23.333275
0.23790193,2.009009,-0.70524144,1.7417917,0.7036526,-1.0281582,-25.648531,23.27359
0.23654008,2.008594,-0.70524144,1.7417917,0.7036526,-1.0411835,-25.653063,23.271332
0.235059,2.0087736,-0.101236515,1.7577707,0.83041906,-1.4527912,-26.42635,22.819424
0.23357755,2.0089512,-0.101236515,1.7577707,0.83041906,-1.4669704,-26.428696,22.822409
0.23199706,2.0097404,0.5262042,1.742857,0.94759816,-2.0806522,-26.821388,22.02153
0.23041552,2.0105271,0.5262042,1.742857,0.94759816,-2.0957966,-26.821404,22.02985
0.22875823,2.011941,1.1760156,1.6895938,1.0562551,-2.542635,-26.833355,20.951944
0.22709939,2.0133524,1.1760156,1.6895938,1.0562551,-2.5585365,-26.830902,20.965755
0.22538407,2.015394,1.8364795,1.6001115,1.1606511,-3.01552,-26.514673,19.778383
0.22366667,2.0174332,1.8364795,1.6001115,1.1606511,-3.0319939,-26.509636,19.797657
0.22191124,2.0200953,2.4937477,1.4829324,1.2586554,-3.6186562,-26.128515,18.567768
0.22015531,2.0227523,2.4937477,1.4829324,1.2586554,-3.635519,-26.12082,18.592386
0.21837601,2.026021,3.139298,1.3369912,1.3513334,-4.1889095,-25.569391,17.305464
0.21659817,2.0292811,3.139298,1.3369912,1.3513334,-4.2059937,-25.558964,17.335249
0.21481214,2.033124,3.7582166,1.1644183,1.4408156,-4.25189,-24.889908,15.995735
0.2130281,2.0369573,3.7582166,1.1644183,1.4408156,-4.269045,-24.87674,16.03036
0.21124962,2.0413342,4.339851,0.9716055,1.527102,-4.190382,-24.25768,14.934738
0.20947203,2.0457046,4.339851,0.9716055,1.527102,-4.207493,-24.241785,14.973858
0.20771381,2.050567,4.8767443,0.7713358,1.6101927,-4.5596027,-23.715895,13.676321
0.20595577,2.0554276,4.8767443,0.7713358,1.6101927,-4.5765333,-23.69733,13.719429
0.20422806,2.0607233,5.3646355,0.55721766,1.6932833,-4.7464075,-23.077955,12.80846
0.2024983,2.0660284,5.3646355,0.55721766,1.6932833,-4.7630777,-23.056803,12.855133
0.20081492,2.0717072,5.7992635,0.32179418,1.7753086,-4.6452312,-22.482897,11.980656
0.1991313,2.077397,5.7992635,0.32179418,1.7753086,-4.6614666,-22.45929,12.0302925
0.19750719,2.083407,6.1827583,0.070391774,1.8562688,-4.6675596,-21.878304,11.388121
0.1958865,2.0894225,6.1827583,0.070391774,1.8562688,-4.683199,-21.85239,11.440163
0.19433491,2.0957184,6.5140557,-0.18846749,1.9329678,-4.827466,-21.388918,10.795221
0.19278878,2.1020207,6.5140557,-0.18846749,1.9329678,-4.842396,-21.36078,10.849264
0.19132634,2.1085496,6.797416,-0.45691413,2.006471,-4.861308,-20.694166,10.210609
0.18987304,2.115079,6.797416,-0.45691413,2.006471,-4.875351,-20.664001,10.266087
0.18851437,2.1217854,7.030709,-0.7296218,2.0757132,-4.730462,-20.048214,9.618832
0.18716435,2.1285062,7.030709,-0.7296218,2.0757132,-4.743513,-20.016123,9.675379
0.18592134,2.1353593,7.21713,-1.0055254,2.1396291,-4.6645527,-19.422537,8.961748
0.18469304,2.1422067,7.21713,-1.0055254,2.1396291,-4.6764326,-19.388792,9.018778
0.1835813,2.1491554,7.357745,-1.2835593,2.1971533,-4.5818424,-18.927753,8.41548
0.18248414,2.1561124,7.357745,-1.2835593,2.1971533,-4.5924587,-18.892403,8.472803
0.18152064,2.1631184,7.45788,-1.5626587,2.244025,-4.2713814,-18.262415,7.94116
0.1805748,2.1701257,7.45788,-1.5626587,2.244025,-4.280538,-18.225737,7.9982414
0.17976917,2.177146,7.5186,-1.8332359,2.2845051,-4.216511,-17.766996,7.4804144
0.17898147,2.1841817,7.5186,-1.8332359,2.2845051,-4.2241364,-17.729113,7.5370464
0.17834057,2.1911879,7.542036,-2.0931604,2.316463,-4.1058455,-17.106594,7.166868
0.17771964,2.1982093,7.542036,-2.0931604,2.316463,-4.111858,-17.067747,7.2226925
0.17725435,2.2051754,7.529253,-2.3445628,2.3388336,-4.690974,-16.779606,6.8371124
0.17681174,2.2121425,7.529253,-2.3445628,2.3388336,-4.6952615,-16.740034,6.8917837
0.17653696,2.2190287,7.485577,-2.6055524,2.3516166,-4.113737,-16.436958,6.873559
0.17628644,2.225909,7.485577,-2.6055524,2.3516166,-4.1161623,-16.396881,6.9268103
0.17620769,2.2326913,7.4163346,-2.8590856,2.3590736,-3.733856,-16.184397,6.9549103
0.17615376,2.2395008,7.4163346,-2.8590856,2.3590736,-3.7343764,-16.14375,7.006873
0.17626669,2.2462666,7.3236566,-3.087052,2.3590736,-3.1490986,-16.059692,6.9239693
0.17640229,2.2528596,7.3236566,-3.087052,2.3590736,-3.147785,-16.019413,6.9735355
0.17669097,2.259331,7.2054124,-3.2873218,2.3516166,-2.2830758,-16.223557,6.6817684
0.17700712,2.265834,7.2054124,-3.2873218,2.3516166,-2.2800128,-16.182953,6.7299404
0.17746978,2.2722018,7.066928,-3.456699,2.332442,-1.3801007,-16.252823,6.077566
0.17795826,2.278562,7.066928,-3.456699,2.332442,-1.3753686,-16.212276,6.1239376
0.17858146,2.2847533,6.9071383,-3.5962484,2.2972882,0.22041625,-15.985581,5.321121
0.17923082,2.290943,6.9071383,-3.5962484,2.2972882,0.22670323,-15.945339,5.365547
0.18001178,2.2969444,6.726043,-3.7017097,2.2418945,0.91421795,-15.75263,4.359539
0.18081981,2.3029554,6.726043,-3.7017097,2.2418945,0.92203987,-15.712799,4.4019833
0.18175106,2.3087738,6.5257735,-3.767756,2.1662607,1.074703,-14.926814,2.852892
0.18270692,2.314589,6.5257735,-3.767756,2.1662607,1.0839555,-14.887579,2.8932705
0.18378414,2.3202024,6.302068,-3.8252804,2.070387,2.1047306,-13.407965,1.3660145
0.18488486,2.3258123,6.302068,-3.8252804,2.070387,2.1153789,-13.369438,1.4042816
0.1861126,2.3311813,6.036817,-3.8540425,1.9574689,1.6292591,-12.29784,0.14281559
0.18736243,2.3365467,6.036817,-3.8540425,1.9574689,1.6413431,-12.260335,0.17872906
0.18871565,2.341621,5.7246947,-3.860434,1.8381592,2.0231304,-11.238048,-0.44852734
0.19008923,2.3466911,5.7246947,-3.860434,1.8381592,2.036405,-11.202,-0.41524887
0.19008923,2.3466911,5.7246947,-3.860434,1.8381592,2.036405,-11.202,-0.41524887
0.19447023,2.3591657,4.9459863,-3.8210192,1.5643862,4.7506504,-7.405013,-3.8311095
0.19527939,2.3614252,4.9459863,-3.8210192,1.5643862,4.7584586,-7.388438,-3.816845
0.19625531,2.364132,4.9459863,-3.8210192,1.5643862,4.76788,-7.368533,-3.7998238
0.19806735,2.3684158,4.455965,-3.7496467,1.3950093,4.7566323,-5.6558347,-5.5259447
0.19963652,2.372089,4.455965,-3.7496467,1.3950093,4.771772,-5.6283054,-5.503428
0.2013159,2.375345,3.8903093,-3.6580338,1.2160448,4.783177,-4.5212545,-6.068172
0.20307988,2.3787384,3.8903093,-3.6580338,1.2160448,4.80018,-4.495234,-6.048046
0.20482068,2.3814025,3.263934,-3.5589643,1.0434719,4.7547054,-3.6745944,-6.3345118
0.20666407,2.3842053,3.263934,-3.5589643,1.0434719,4.7724624,-3.6524544,-6.3186235
0.20666407,2.3842053,3.263934,-3.5589643,1.0434719,4.7724624,-3.6524544,-6.3186235
0.20666407,2.3842053,3.263934,-3.5589643,1.0434719,4.7724624,-3.6524544,-6.3186235
0.21348114,2.3894162,1.8726985,-3.30117,0.7324147,5.0774827,-2.514584,-6.332765
0.21402182,2.3896189,1.1227523,-3.1317933,0.5971261,5.12578,-2.5076032,-6.2173376
0.21550184,2.390171,1.1227523,-3.1317933,0.5971261,5.14001,-2.5016055,-6.2159786
0.21726705,2.390825,1.1227523,-3.1317933,0.5971261,5.156974,-2.4944658,-6.2144146
0.2189942,2.390763,0.35256615,-2.9368498,0.47675127,4.991604,-2.6168876,-6.1025896
0.22072102,2.3906965,0.35256615,-2.9368498,0.47675127,5.00819,-2.61483,-6.105732
0.22356513,2.3893046,-0.43040323,-2.724862,0.36915955,5.2318115,-2.9364142,-5.942189
0.2239431,2.3891184,-0.43040323,-2.724862,0.36915955,5.235439,-2.9371548,-5.9440145
0.22555186,2.3875084,-1.2176336,-2.503287,0.27008995,5.5860567,-3.463153,-5.6459093
0.22709258,2.3859596,-1.2176336,-2.503287,0.27008995,5.6008363,-3.4716434,-5.658556
0.22852425,2.383684,-1.9952767,-2.2667985,0.17954248,5.7342687,-4.126964,-5.417276
0.22995356,2.381403,-1.9952767,-2.2667985,0.17954248,5.7479596,-4.140619,-5.4346404
0.23126349,2.3784106,-2.7601366,-2.0207224,0.093256064,5.813184,-4.8919573,-5.1069984
0.23256798,2.3754187,-2.7601366,-2.0207224,0.093256064,5.8256745,-4.9105897,-5.1289654
0.2337548,2.3717327,-3.5047565,-1.7693199,0.008034906,5.674233,-5.7146063,-4.9303656
0.2349361,2.3680482,-3.5047565,-1.7693199,0.008034906,5.685541,-5.738001,-4.956892
0.23599175,2.3637023,-4.227006,-1.5136565,-0.07399046,5.7243743,-6.7236724,-4.513687
0.23704532,2.359346,-4.227006,-1.5136565,-0.07399046,5.7344494,-6.7515883,-4.5447254
0.23797219,2.3543591,-4.920493,-1.2516015,-0.15388529,5.5709333,-7.808538,-4.125045
0.23889643,2.3493655,-4.920493,-1.2516015,-0.15388529,5.5797653,-7.840624,-4.160468
0.23969458,2.3437812,-5.5830874,-0.9820895,-0.23271486,5.132502,-9.102512,-3.5725994
0.24049076,2.3381896,-5.5830874,-0.9820895,-0.23271486,5.14011,-9.138384,-3.6122546
0.24115835,2.3320265,-6.2073326,-0.70512074,-0.30515283,4.653286,-10.442149,-2.870555
0.24182354,2.3258684,-6.2073326,-0.70512074,-0.30515283,4.6596413,-10.481469,-2.9143524
0.242352,2.3191822,-6.791097,-0.42389092,-0.36480767,4.09487,-11.769163,-2.272338
0.2428803,2.3124948,-6.791097,-0.42389092,-0.36480767,4.0999165,-11.811553,-2.320138
0.24326523,2.305319,-7.329056,-0.13840005,-0.41594034,3.7109418,-13.212111,-1.4520712
0.24365167,2.298143,-7.329056,-0.13840005,-0.41594034,3.7146297,-13.257176,-1.5037117
0.2438816,2.2905228,-7.8190775,0.15135187,-0.4532246,3.6928878,-14.645698,-0.63923264
0.24411485,2.2829022,-7.8190775,0.15135187,-0.4532246,3.6951141,-14.693033,-0.6944971
0.24418195,2.2748866,-8.260097,0.4496259,-0.47666043,3.437182,-16.126537,0.31508064
0.24425451,2.2668629,-8.260097,0.4496259,-0.47666043,3.4378743,-16.175766,0.25637817
0.24414898,2.258493,-8.654244,0.75748736,-0.4862478,3.0537944,-17.639523,1.2340813
0.24405138,2.2501478,-8.654244,0.75748736,-0.4862478,3.052864,-17.690025,1.1724453
0.24377023,2.2414913,-8.999391,1.0717404,-0.48837832,2.724567,-19.231396,2.2240295
0.2434991,2.2328346,-8.999391,1.0717404,-0.48837832,2.7219777,-19.283,2.1594448
0.24304904,2.2239375,-9.291273,1.3827976,-0.48731306,2.5261424,-20.686106,3.3186817
0.24261157,2.2150407,-9.291273,1.3827976,-0.48731306,2.5219636,-20.73827,3.2515907
0.24200042,2.205957,-9.530957,1.6885285,-0.48198673,2.5400662,-22.09367,4.408659
0.2414041,2.1968725,-9.530957,1.6885285,-0.48198673,2.534371,-22.145985,4.3393955
0.24063939,2.1876552,-9.717379,1.9931941,-0.47346464,2.4073539,-23.304844,5.5473366
0.23989226,2.1784377,-9.717379,1.9931941,-0.47346464,2.4002156,-23.35691,5.4762516
0.23898065,2.169141,-9.850536,2.298925,-0.46068147,1.9222367,-24.510391,6.754595
0.23808822,2.1598349,-9.850536,2.298925,-0.46068147,1.9137042,-24.561886,6.681999
0.23704447,2.1505165,-9.934692,2.5982642,-0.44896355,1.3482656,-25.92509,8.13172
0.23602234,2.1411881,-9.934692,2.5982642,-0.44896355,1.338489,-25.975601,8.058115
0.23485784,2.1318817,-9.963455,2.8837552,-0.43404984,0.8916006,-27.49084,9.660316
0.23371829,2.122574,-9.963455,2.8837552,-0.43404984,0.88069296,-27.540104,9.586044
0.23244968,2.1133327,-9.935758,3.1543324,-0.41913614,0.35618973,-28.326015,11.269329
0.2312105,2.1041079,-9.935758,3.1543324,-0.41913614,0.34432507,-28.373684,11.194902
0.22985342,2.0949936,-9.851603,3.4078653,-0.40209192,-0.13794136,-29.52169,12.787403
0.22852245,2.085859,-9.851603,3.4078653,-0.40209192,-0.1506958,-29.567743,12.7129135
0.22709928,2.076982,-9.706726,3.644354,-0.38291714,-0.628808,-30.090929,14.325729
0.2256989,2.0680573,-9.706726,3.644354,-0.38291714,-0.6422415,-30.134794,14.252188
0.22421038,2.0593758,-9.500065,3.8595374,-0.36480767,-0.79538155,-30.521843,15.722227
0.22275285,2.0506907,-9.500065,3.8595374,-0.36480767,-0.80936813,-30.56345,15.649969
0.22122131,2.042293,-9.235879,4.0512853,-0.34776342,-0.91983795,-30.632046,16.863123
0.21972442,2.0339084,-9.235879,4.0512853,-0.34776342,-0.93421173,-30.671186,16.7927
0.21816881,2.0258625,-8.9163,4.223858,-0.33498025,-1.0353432,-30.7132,18.041706
0.21664491,2.0178127,-8.9163,4.223858,-0.33498025,-1.049984,-30.749832,17.97351
0.21507476,2.0101557,-8.546653,4.378321,-0.32326233,-1.0076122,-30.525806,19.14384
0.21353604,2.0024943,-8.546653,4.378321,-0.32326233,-1.0224094,-30.559803,19.078415
0.21196097,1.9952677,-8.1312,4.5168056,-0.31154442,-2.028759,-30.256447,20.285473
0.21041504,1.9880292,-8.1312,4.5168056,-0.31154442,-2.0436363,-30.287813,20.223211
0.20884068,1.981269,-7.6752667,4.63505,-0.29876125,-2.0539875,-30.374386,21.706783
0.20729727,1.9745103,-7.6752667,4.63505,-0.29876125,-2.0688553,-30.403034,21.648289
0.20573032,1.9682436,-7.180984,4.731989,-0.28704333,-2.1030998,-30.304981,22.98737
0.20419438,1.9619838,-7.180984,4.731989,-0.28704333,-2.1179008,-30.330988,22.932873
0.20263869,1.9562596,-6.6483517,4.821471,-0.27426016,-2.8176346,-30.177563,23.979527
0.2011092,1.9505297,-6.6483517,4.821471,-0.27426016,-2.8323784,-30.200987,23.929413
0.1995644,1.9453754,-6.0784354,4.8949747,-0.2582812,-4.1545105,-29.968323,24.616947
0.19804357,1.9402152,-6.0784354,4.8949747,-0.2582812,-4.169182,-29.989164,24.571651
0.1965267,1.9356561,-5.4723,4.9109535,-0.24336751,-5.0409393,-29.552784,25.091877
0.19505936,1.9311775,-5.4723,4.9109535,-0.24336751,-5.0551033,-29.57075,25.052464
0.19359218,1.927233,-4.8342066,4.856625,-0.23271486,-4.901676,-29.059998,25.03693
0.19211298,1.9231992,-4.8342066,4.856625,-0.23271486,-4.9159584,-29.07613,25.001358
0.19070362,1.9198933,-4.1662855,4.7703385,-0.22525801,-4.776348,-28.227674,25.034533
0.18931904,1.9166046,-4.1662855,4.7703385,-0.22525801,-4.7897186,-28.240908,25.005518
0.18796535,1.9139502,-3.4781249,4.6531596,-0.21247484,-5.2720604,-27.41874,24.613493
0.1866168,1.9112768,-3.4781249,4.6531596,-0.21247484,-5.285103,-27.42973,24.589972
0.18532601,1.909278,-2.7846377,4.496566,-0.1986264,-5.378994,-26.739275,24.23735
0.1840451,1.907276,-2.7846377,4.496566,-0.1986264,-5.3913803,-26.74787,24.219843
0.1828164,1.9059235,-2.0911505,4.308014,-0.18264744,-6.2556095,-26.203602,23.710224
0.18159814,1.9045714,-2.0911505,4.308014,-0.18264744,-6.267395,-26.209948,23.698582
0.1804445,1.9038612,-1.4008591,4.078982,-0.16986425,-6.6855793,-25.687407,22.984074
0.17929594,1.9031477,-1.4008591,4.078982,-0.16986425,-6.696701,-25.69157,22.978199
0.17822656,1.903062,-0.72122043,3.8041437,-0.15708108,-7.023079,-25.219563,22.073006
0.17715731,1.9029717,-0.72122043,3.8041437,-0.15708108,-7.033436,-25.221603,22.072786
0.17617093,1.9034954,-0.051169083,3.4973476,-0.13897158,-6.9663734,-24.771446,21.039051
0.17518273,1.9040158,-0.051169083,3.4973476,-0.13897158,-6.975952,-24.771404,21.044382
0.17427474,1.9051343,0.60609907,3.1671154,-0.11233997,-6.4915466,-24.367096,19.963371
0.17336325,1.9062494,0.60609907,3.1671154,-0.11233997,-6.5003853,-24.365007,19.974094
0.17252345,1.9079442,1.2473882,2.8272963,-0.071859926,-6.8149853,-24.341776,19.271812
0.17167735,1.9096396,1.2473882,2.8272963,-0.071859926,-6.823189,-24.337673,19.2878
0.17090063,1.911894,1.870568,2.4746935,-0.023923028,-6.5625668,-24.259789,17.608953
0.17011783,1.9141483,1.870568,2.4746935,-0.023923028,-6.570156,-24.25368,17.629978
0.16940606,1.9169408,2.4703119,2.109308,0.029340196,-8.013582,-24.513794,16.477926
0.16868882,1.9197317,2.4703119,2.109308,0.029340196,-8.020538,-24.505688,16.50378
0.1680395,1.9230396,3.0519462,1.7247474,0.0921908,-7.8161488,-24.375963,15.1408615
0.16738479,1.9263462,3.0519462,1.7247474,0.0921908,-7.8224964,-24.365854,15.171322
0.16678774,1.9301437,3.6144059,1.3050333,0.17741196,-5.448454,-23.626038,13.975567
0.16618568,1.9339442,3.6144059,1.3050333,0.17741196,-5.454298,-23.613926,14.010414
0.16563085,1.938193,4.1363854,0.9140812,0.27541628,-6.1683636,-23.53779,12.952696
0.16458976,1.9471966,4.6146894,0.5401734,0.33400583,-8.208756,-23.761383,11.808903
0.16458976,1.9471966,4.6146894,0.5401734,0.33400583,-8.208756,-23.761383,11.808903
0.16411263,1.9518775,4.6146894,0.5401734,0.33400583,-8.213387,-23.745296,11.85141
0.16375928,1.9568524,5.061035,0.13324238,0.37342063,-8.954233,-23.593676,10.6035385
0.1634005,1.9619032,5.061035,0.13324238,0.37342063,-8.957713,-23.57563,10.649136
0.16315912,1.9673059,5.476488,-0.31310344,0.4309449,-7.968856,-23.31165,9.409639
0.16292012,1.9727086,5.476488,-0.31310344,0.4309449,-7.971181,-23.291613,9.458126
0.16280152,1.9784206,5.8610487,-0.7669061,0.49379548,-6.2006207,-23.068829,8.513191
0.16268788,1.9841387,5.8610487,-0.7669061,0.49379548,-6.201723,-23.046839,8.564173
0.16269508,1.9901342,6.2072597,-1.1876855,0.5513198,-5.090744,-23.104689,7.482561
0.16270955,1.995992,6.2072597,-1.1876855,0.5513198,-5.090604,-23.08136,7.5344353
0.1628492,2.0022454,6.511925,-1.5615934,0.59179986,-4.2081804,-23.161278,6.2583904
0.16300337,2.0086677,6.511925,-1.5615934,0.59179986,-4.206684,-23.134796,6.314846
0.16328198,2.0151367,6.772915,-1.898217,0.6194967,-3.3947392,-22.647892,4.8391724
0.16357157,2.0215669,6.772915,-1.898217,0.6194967,-3.3919277,-22.620457,4.8952465
0.16399826,2.0282245,6.9870334,-2.1975563,0.63014936,-3.0382323,-22.486145,3.473423
0.16444136,2.0349026,6.9870334,-2.1975563,0.63014936,-3.0339284,-22.456684,3.5311718
0.16502985,2.0416794,7.159606,-2.4809165,0.61630094,-1.0793371,-21.894676,2.2295609
0.16563518,2.048456,7.159606,-2.4809165,0.61630094,-1.073462,-21.863768,2.2876263
0.16638954,2.0553465,7.288503,-2.7142096,0.5875388,-0.46280235,-21.214031,0.5267391
0.16716303,2.062243,7.288503,-2.7142096,0.5875388,-0.45529827,-21.181538,0.5852585
0.16808298,2.0692005,7.3683977,-2.8942392,0.5385366,-0.3506068,-20.353268,-0.9841213
0.16902517,2.0761771,7.3683977,-2.8942392,0.5385366,-0.34146404,-20.31935,-0.9255352
0.17011447,2.083169,7.3939643,-3.033789,0.46609864,-0.13936186,-19.781952,-3.8982515
0.1712171,2.0901175,7.3939643,-3.033789,0.46609864,-0.12866974,-19.747114,-3.8405495
0.17243364,2.0970602,7.3598757,-3.1467068,0.37342063,6.5054874,-16.795593,-3.9747925
0.17367025,2.104001,7.3598757,-3.1467068,0.37342063,6.517469,-16.759785,-3.917797
0.17509189,2.110846,7.242697,-3.171208,0.25943732,-1.3169432,-17.810759,-6.802101
0.17653292,2.117689,7.242697,-3.171208,0.25943732,-1.3029833,-17.774351,-6.7466364
0.17813513,2.1243553,7.0616016,-3.2138186,0.10497397,0.2160902,-17.034323,-6.9276915
0.17975886,2.1310318,7.0616016,-3.2138186,0.10497397,0.23181629,-16.997742,-6.8743086
0.18158744,2.1374683,6.841092,-3.3235407,-0.059076756,1.31254,-17.244244,-6.4307156
0.1834375,2.143915,6.841092,-3.3235407,-0.059076756,1.3304396,-17.207804,-6.37998
0.18546505,2.1500971,6.5779715,-3.4162188,-0.22099695,3.6915855,-14.955124,-8.223246
0.18751343,2.1562886,6.5779715,-3.4162188,-0.22099695,3.7113943,-14.919077,-8.1753025
0.19022357,2.1634457,6.244544,-3.4503071,-0.4170056,5.6529436,-11.4192505,-10.94094
0.1921491,2.1684916,6.244544,-3.4503071,-0.4170056,5.671548,-11.388941,-10.902592
0.19490351,2.174711,5.809916,-3.4119577,-0.6428417,4.812294,-9.559831,-12.148872
0.19860627,2.1830053,5.809916,-3.4119577,-0.6428417,4.8480234,-9.508258,-12.087245
0.2021056,2.1897132,5.2687616,-3.324606,-0.869743,5.015848,-8.129353,-11.674471
0.20482226,2.1940966,4.6402555,-3.2138186,-1.0859917,4.7547207,-7.1283255,-11.054288
0.20482226,2.1940966,4.6402555,-3.2138186,-1.0859917,4.7547207,-7.1283255,-11.054288
0.20748727,2.1983807,4.6402555,-3.2138186,-1.0859917,4.7803907,-7.0998197,-11.023975
0.21048875,2.2023556,3.9425073,-3.071073,-1.2894572,4.311287,-6.272672,-10.244879
0.2137158,2.2057512,3.1925611,-2.9027612,-1.4716175,3.3702831,-6.0659947,-9.37017
0.21593489,2.2080812,3.1925611,-2.9027612,-1.4716175,3.391615,-6.048941,-9.354916
0.2189863,2.211279,3.1925611,-2.9027612,-1.4716175,3.4209366,-6.025422,-9.334114
0.22226156,2.213851,2.4106572,-2.7237968,-1.6324724,2.8921404,-6.0193543,-8.140606
0.22516209,2.2161245,2.4106572,-2.7237968,-1.6324724,2.9199648,-6.0011864,-8.126968
0.22788057,2.217548,1.608513,-2.5480282,-1.767761,2.845479,-6.074367,-6.7645683
0.23077358,2.2183065,0.7978467,-2.3743901,-1.8764179,2.724762,-6.620279,-5.182498
0.23315759,2.21893,0.7978467,-2.3743901,-1.8764179,2.747592,-6.6123743,-5.1809883
0.23635483,2.2197642,0.7978467,-2.3743901,-1.8764179,2.7781906,-6.6017203,-5.1790457
0.23891824,2.2197626,-0.005362711,-2.1986215,-1.9637696,2.6590524,-7.2577987,-3.4109383
0.24236538,2.219758,-0.005362711,-2.1986215,-1.9637696,2.6919956,-7.2513847,-3.4158607
0.24460188,2.2191691,-0.784071,-2.018592,-2.0266201,2.7468686,-8.2513275,-1.541708
0.24740197,2.21843,-0.784071,-2.018592,-2.0266201,2.7735953,-8.250237,-1.5513797
0.2501448,2.216981,-1.5276256,-1.8332359,-2.066035,2.555545,-9.402481,0.50217915
0.25288454,2.2155316,-1.5276256,-1.8332359,-2.066035,2.5816567,-9.405431,0.4871111
0.25555912,2.213409,-2.222178,-1.6468146,-2.0841446,1.6638135,-10.226299,1.9992561
0.25823095,2.2112865,-2.222178,-1.6468146,-2.0841446,1.6892406,-10.233034,1.9790745
0.26079848,2.2085102,-2.862402,-1.4646543,-2.0798833,1.8285792,-11.330547,3.8214865
0.26336375,2.2057345,-2.862402,-1.4646543,-2.0798833,1.8529612,-11.340964,3.7963877
0.26581705,2.2023776,-3.4419057,-1.2920815,-2.0607088,1.2058845,-12.623671,5.4476824
0.2682785,2.199009,-3.4419057,-1.2920815,-2.0607088,1.2292478,-12.637341,5.418082
0.27060664,2.1951573,-3.950037,-1.1344223,-2.0244896,1.1172547,-13.506147,6.8597374
0.27293116,2.1913114,-3.950037,-1.1344223,-2.0244896,1.1392884,-13.522413,6.82654
0.27514195,2.1870308,-4.3835998,-0.98954636,-1.9786834,1.2129021,-14.144459,8.087739
0.27734992,2.1827564,-4.3835998,-0.98954636,-1.9786834,1.2338061,-14.162934,8.051256
0.27943033,2.1781266,-4.751116,-0.8446704,-1.9200938,0.99491453,-14.657452,9.19485
0.28151262,2.1734946,-4.751116,-0.8446704,-1.9200938,1.014605,-14.6777,9.155607
0.28346056,2.1685786,-5.0525856,-0.70085967,-1.8540474,0.84147644,-15.365122,10.277842
0.28537384,2.1637545,-5.0525856,-0.70085967,-1.8540474,0.8595476,-15.3863,10.237153
0.28719136,2.158608,-5.29227,-0.5655711,-1.7826747,1.0826044,-16.036427,11.419813
0.28904626,2.1533618,-5.29227,-0.5655711,-1.7826747,1.1001043,-16.059444,11.37569
0.29072443,2.1480596,-5.466974,-0.4313478,-1.7017145,1.3409843,-16.700596,12.490076
0.292394,2.142793,-5.466974,-0.4313478,-1.7017145,1.356719,-16.723612,12.445841
0.29393217,2.1373878,-5.5798917,-0.29392865,-1.6164933,1.715972,-17.317194,13.5163
0.29548147,2.1319542,-5.5798917,-0.29392865,-1.6164933,1.7305613,-17.340794,13.470692
0.29687297,2.12652,-5.633155,-0.1490527,-1.5291417,1.9208288,-17.833767,14.40682
0.29826835,2.1210842,-5.633155,-0.1490527,-1.5291417,1.9339571,-17.857206,14.361198
0.29951265,2.1156793,-5.6267633,0.005410646,-1.4428552,2.0414238,-18.36421,15.101215
0.30075997,2.1102784,-5.6267633,0.005410646,-1.4428552,2.0531483,-18.387304,15.0558605
0.30185777,2.1049614,-5.5660434,0.16733085,-1.3597647,2.2023287,-18.941612,15.633778
0.30296445,2.099622,-5.5660434,0.16733085,-1.3597647,2.2127247,-18.964235,15.5889
0.30391738,2.09444,-5.4552555,0.33244684,-1.2777393,2.508976,-19.441154,16.230152
0.30486938,2.089288,-5.4552555,0.33244684,-1.2777393,2.5179138,-19.462795,16.186811
0.30567634,2.0843077,-5.295466,0.50075865,-1.1967793,2.6068935,-19.871643,16.623816
0.30648994,2.0793166,-5.295466,0.50075865,-1.1967793,2.6145267,-19.892439,16.581789
0.30715504,2.0745728,-5.0930657,0.67333144,-1.1179496,2.4388084,-20.213951,16.81963
0.30782613,2.0698237,-5.0930657,0.67333144,-1.1179496,2.4450989,-20.23361,16.779625
0.30835322,2.065352,-4.852316,0.8459043,-1.0412506,2.2776585,-20.410229,16.86651
0.30888584,2.0608797,-4.852316,0.8459043,-1.0412506,2.28265,-20.428642,16.828806
0.30927488,2.0567124,-4.5796084,1.0184772,-0.962421,1.7883034,-20.580006,16.966145
0.30966884,2.0525537,-4.5796084,1.0184772,-0.962421,1.791996,-20.59709,16.931087
0.30991784,2.0487165,-4.283465,1.1835932,-0.87826514,1.799118,-20.522053,17.0856
0.31017217,2.0448835,-4.283465,1.1835932,-0.87826514,1.8015003,-20.537828,17.053314
0.3102779,2.0413966,-3.9692118,1.3444481,-0.78558713,1.0267715,-20.720007,17.416727
0.31038898,2.037909,-3.9692118,1.3444481,-0.78558713,1.027811,-20.734476,17.387424
0.31034708,2.0347888,-3.635784,1.5031725,-0.6854523,-0.19841194,-21.140364,18.050888
0.31031027,2.0316653,-3.635784,1.5031725,-0.6854523,-0.19875717,-21.153517,18.02474
0.31011897,2.0288367,-3.2799857,1.6342,-0.5767953,-1.1869564,-21.68294,19.016382
0.30993867,2.026101,-3.2799857,1.6342,-0.5767953,-1.188652,-21.694727,18.99361
0.30962095,2.0237982,-2.898621,1.7258128,-0.4564204,-1.4214706,-22.279657,20.028084
0.30930087,2.0214481,-2.898621,1.7258128,-0.4564204,-1.4244633,-22.290136,20.008677
0.30884087,2.0195007,-2.487429,1.7875981,-0.32965392,-0.8350239,-22.701538,20.902649
0.30838427,2.0175529,-2.487429,1.7875981,-0.32965392,-0.83930206,-22.71067,20.886772
0.30779746,2.0160398,-2.0496051,1.8344697,-0.20501798,-0.43779182,-23.46536,21.760588
0.30721268,2.0145245,-2.0496051,1.8344697,-0.20501798,-0.44327545,-23.473045,21.7485
0.3065006,2.0134702,-1.5840846,1.8802761,-0.083577834,-0.5983944,-24.48955,22.841812
0.30579042,2.012415,-1.5840846,1.8802761,-0.083577834,-0.60505676,-24.495691,22.833767
0.30495903,2.0118556,-1.0802145,1.9132993,0.036797047,-1.0150852,-25.462624,23.634516
0.304127,2.011294,-1.0802145,1.9132993,0.036797047,-1.0228977,-25.467096,23.6308
0.3031886,2.0112622,-0.53692967,1.9207561,0.15291087,-1.4913921,-26.278961,23.871124
0.30225027,2.011229,-0.53692967,1.9207561,0.15291087,-1.5002098,-26.281584,23.872013
0.30122447,2.0117621,0.051096305,1.8994509,0.26050258,-1.6391315,-26.756212,23.609676
0.30021426,2.0122852,0.051096305,1.8994509,0.26050258,-1.6486244,-26.756775,23.615372
0.29911786,2.0134165,0.6796023,1.8483181,0.3617027,-2.267065,-26.984947,22.85542
0.2980033,2.0145626,0.6796023,1.8483181,0.3617027,-2.277544,-26.983238,22.866543
0.29685378,2.016314,1.339001,1.763097,0.45864177,-3.0161934,-26.926472,21.762352
0.29570302,2.0180614,1.339001,1.763097,0.45864177,-3.0270252,-26.922354,21.77861
0.2945224,2.02044,2.0133135,1.6373957,0.54812396,-3.526556,-26.580507,20.416412
0.2933399,2.0228138,2.0133135,1.6373957,0.54812396,-3.5376968,-26.573797,20.438005
0.2921454,2.0258043,2.6865606,1.4754755,0.6376062,-3.4435978,-26.061718,18.913364
0.29094404,2.0288014,2.6865606,1.4754755,0.6376062,-3.4549217,-26.052319,18.940216
0.28974763,2.0323873,3.3427634,1.287989,0.72602314,-3.9211025,-25.52798,17.291286
0.28855532,2.0359492,3.3427634,1.287989,0.72602314,-3.9323502,-25.515953,17.322838
0.28737214,2.040094,3.9723349,1.0845236,0.81017905,-4.2595463,-25.103857,15.812584
0.28618637,2.0442364,3.9723349,1.0845236,0.81017905,-4.2707367,-25.089037,15.848907
0.28502518,2.0489113,4.568883,0.86294854,0.89326966,-4.090164,-24.70777,14.477045
0.2838634,2.0535798,4.568883,0.86294854,0.89326966,-4.1011353,-24.690235,14.517626
0.2827353,2.0587234,5.126016,0.6296556,0.9795561,-3.972931,-24.253716,13.44157
0.28160444,2.0638757,5.126016,0.6296556,0.9795561,-3.9836159,-24.233505,13.485975
0.2805137,2.0694704,5.638408,0.39742798,1.0594509,-3.8598576,-23.97633,12.61455
0.27942383,2.0750642,5.638408,0.39742798,1.0594509,-3.870164,-23.953499,12.662357
0.2783835,2.0810568,6.1049943,0.16626558,1.1329541,-3.8560648,-23.813503,11.9423485
0.27734548,2.0870483,6.1049943,0.16626558,1.1329541,-3.8658848,-23.788107,11.993116
0.27636293,2.093398,6.527904,-0.06276628,1.2032616,-3.6980114,-23.760567,11.194254
0.27538434,2.0997462,6.527904,-0.06276628,1.2032616,-3.7072802,-23.732668,11.247566
0.27447203,2.1064124,6.909269,-0.29499394,1.2671775,-3.2083483,-23.942148,10.479591
0.27356464,2.1130843,6.909269,-0.29499394,1.2671775,-3.2169447,-23.911785,10.53508
0.272735,2.1200297,7.2490883,-0.5261563,1.321506,-1.9798222,-24.214699,9.572542
0.2719131,2.1269743,7.2490883,-0.5261563,1.321506,-1.9876099,-24.181995,9.629702
0.2711867,2.1341586,7.5484276,-0.7477313,1.3545291,-0.763875,-24.382092,8.443441
0.27046853,2.1413567,7.5484276,-0.7477313,1.3545291,-0.77068424,-24.34703,8.502024
0.2698682,2.148767,7.8104825,-0.95545787,1.3587903,0.0759573,-24.137798,6.842846
0.26927972,2.15617,7.8104825,-0.95545787,1.3587903,0.07037592,-24.10051,6.902359
0.2688244,2.1637807,8.035254,-1.1461402,1.337485,0.5927825,-23.376644,4.942335
0.2683827,2.1713762,8.035254,-1.1461402,1.337485,0.58859015,-23.3371,5.0025883
0.26808938,2.1791422,8.219544,-1.3229741,1.2927438,1.1173184,-22.208881,2.8370361
0.26780972,2.1869159,8.219544,-1.3229741,1.2927438,1.1146668,-22.167091,2.8978271
0.26769313,2.1947927,8.349506,-1.4848943,1.2203058,2.0425076,-20.735264,0.89502716
0.26759145,2.2026775,8.349506,-1.4848943,1.2203058,2.0415416,-20.691517,0.95573425
0.26766804,2.2106323,8.419814,-1.6255093,1.1148447,2.7030735,-19.195648,-0.66915894
0.2677604,2.2186034,8.419814,-1.6255093,1.1148447,2.70395,-19.150051,-0.6088047
0.2680386,2.226565,8.413423,-1.7362968,0.9848824,2.323515,-17.647972,-2.148512
0.26833025,2.2344708,8.413423,-1.7362968,0.9848824,2.326282,-17.601393,-2.0897045
0.26881695,2.2423768,8.32394,-1.8353664,0.8272233,2.7331257,-15.566771,-4.081032
0.26932144,2.2503219,8.32394,-1.8353664,0.8272233,2.7379117,-15.518612,-4.0230417
0.2700245,2.2580578,8.135388,-1.9323055,0.6439978,3.7597198,-13.301708,-6.1795506
0.27074122,2.2657866,8.135388,-1.9323055,0.6439978,3.7665186,-13.253545,-6.124285
0.27166295,2.2732506,7.830723,-2.0132656,0.4277491,5.839054,-10.357065,-8.8728895
0.2725967,2.280707,7.830723,-2.0132656,0.4277491,5.847908,-10.309328,-8.820718
0.27375138,2.2877717,7.396095,-2.060137,0.18593407,5.839696,-8.366994,-10.673106
0.2749162,2.2948296,7.396095,-2.060137,0.18593407,5.850729,-8.320553,-10.624918
0.27629256,2.3013668,6.8378963,-2.080377,-0.06866413,5.5956106,-7.304603,-11.179682
0.27767962,2.3079107,6.8378963,-2.080377,-0.06866413,5.608734,-7.260348,-11.136186
0.27926275,2.3138306,6.1742363,-2.0888994,-0.32219708,5.724269,-6.4772167,-11.145603
0.28085473,2.3197565,6.1742363,-2.0888994,-0.32219708,5.7393236,-6.436,-11.107383
0.28262538,2.3249865,5.4296165,-2.0825076,-0.5672079,5.5501566,-5.3644123,-11.318781
0.28440127,2.330217,5.4296165,-2.0825076,-0.5672079,5.566942,-5.3269377,-11.286213
0.28633162,2.3346798,4.6157546,-2.0590718,-0.8026313,5.273921,-4.0298448,-11.757404
0.28826743,2.3391478,4.6157546,-2.0590718,-0.8026313,5.292184,-3.9967213,-11.7307625
0.29033825,2.3427885,3.7379766,-2.0217876,-1.0337937,5.814501,-3.149825,-11.585667
0.2924112,2.3464296,3.7379766,-2.0217876,-1.0337937,5.834033,-3.121647,-11.565217
0.29460588,2.349205,2.8080008,-1.9653286,-1.256434,6.472416,-2.5338345,-11.215769
0.29678613,2.3519616,2.8080008,-1.9653286,-1.256434,6.492939,-2.5111475,-11.201712
0.29906106,2.3538208,1.8407406,-1.8801074,-1.4684216,6.1743536,-2.1398134,-10.762976
0.30133832,2.3556824,1.8407406,-1.8801074,-1.4684216,6.1957645,-2.1227684,-10.755266
0.30368948,2.3566246,0.8511099,-1.7757115,-1.6697567,5.5426817,-2.035019,-10.203217
0.3060356,2.3575654,0.8511099,-1.7757115,-1.6697567,5.5647078,-2.0238771,-10.201883
0.3084421,2.3575816,-0.14491236,-1.664924,-1.8561779,4.969572,-2.5119162,-9.148605
0.3108483,2.3575983,-0.14491236,-1.664924,-1.8561779,4.9921246,-2.5067139,-9.153606
0.31329837,2.3566964,-1.1281514,-1.556267,-2.0223591,4.5027065,-2.8378596,-7.9294043
0.3157485,2.3557947,-1.1281514,-1.556267,-2.0223591,4.525631,-2.8385525,-7.9406433
0.3198045,2.3528757,-2.0815632,-1.4486754,-2.1608436,3.5579834,-3.6725812,-6.7525177
0.32323334,2.3495445,-2.9934294,-1.3496058,-2.2695005,3.4319777,-4.496127,-5.04872
0.32323334,2.3495445,-2.9934294,-1.3496058,-2.2695005,3.4319777,-4.496127,-5.04872
0.3260086,2.346605,-2.9934294,-1.3496058,-2.2695005,3.45786,-4.509144,-5.0743694
0.3260086,2.346605,-2.9934294,-1.3496058,-2.2695005,3.45786,-4.509144,-5.0743694
0.3260086,2.346605,-2.9934294,-1.3496058,-2.2695005,3.45786,-4.509144,-5.0743694
0.3346088,2.3319707,-4.652046,-1.1429445,-2.380288,2.3982701,-6.604794,-1.5857096
0.3361335,2.3293815,-4.652046,-1.1429445,-2.380288,2.4124396,-6.6177864,-1.6065497
0.3383405,2.3249474,-5.379622,-1.0300264,-2.3856144,1.7529781,-7.8331294,0.14943123
0.34076214,2.3200886,-5.379622,-1.0300264,-2.3856144,1.7754471,-7.858118,0.11108017
0.34321874,2.3143504,-6.0315638,-0.9181736,-2.3589828,1.6449888,-9.027925,1.9435759
0.34558746,2.3088274,-6.0315638,-0.9181736,-2.3589828,1.6669306,-9.056642,1.9005184
0.3477722,2.302946,-6.6046762,-0.80632085,-2.3057194,1.6775707,-9.9640045,3.4641466
0.3500359,2.296865,-6.6046762,-0.80632085,-2.3057194,1.6985056,-9.995789,3.41714
0.35274607,2.2884884,-7.1064157,-0.69020706,-2.2290204,1.7810026,-10.901949,4.899639
0.35435173,2.2835376,-7.5346518,-0.5655711,-2.1331468,1.7958269,-10.927791,4.861554
0.356369,2.2763937,-7.5346518,-0.5655711,-2.1331468,2.1161048,-11.688515,6.3536882
0.35843575,2.2690957,-7.5346518,-0.5655711,-2.1331468,2.1351576,-11.726521,6.2977314
0.3604291,2.2610066,-7.900038,-0.4270867,-2.0191634,2.086481,-12.602074,7.562443
0.36316434,2.2499564,-7.900038,-0.4270867,-2.0191634,2.1116529,-12.659009,7.477641
0.3638531,2.2467332,-8.203638,-0.2779497,-1.8881358,1.9647589,-13.504108,8.64056
0.36551675,2.23897,-8.203638,-0.2779497,-1.8881358,1.9800525,-13.543969,8.581072
0.36698925,2.2309153,-8.443322,-0.12561688,-1.7411293,1.8451409,-14.294184,9.649676
0.3684682,2.2228656,-8.443322,-0.12561688,-1.7411293,1.8587203,-14.335127,9.587909
0.36973652,2.214652,-8.625483,0.021389613,-1.582405,1.793747,-15.191058,10.659938
0.3710205,2.206386,-8.625483,0.021389613,-1.582405,1.8055239,-15.232655,10.596384
0.372093,2.198006,-8.747988,0.16200452,-1.4162236,1.7243786,-16.031483,11.719624
0.37317252,2.1896312,-8.747988,0.16200452,-1.4162236,1.734271,-16.073126,11.655043
0.37403318,2.1811883,-8.816165,0.30155417,-1.2383245,1.8044052,-16.708965,12.686611
0.374901,2.172751,-8.816165,0.30155417,-1.2383245,1.8123531,-16.75042,12.621336
0.37554428,2.1642919,-8.830013,0.44110382,-1.0519032,1.842185,-17.510345,13.757893
0.3761957,2.1558306,-8.830013,0.44110382,-1.0519032,1.8481455,-17.55143,13.692205
0.37661344,2.1474092,-8.792729,0.5849145,-0.8590904,2.191947,-18.152699,14.70434
0.37704015,2.1389694,-8.792729,0.5849145,-0.8590904,2.1958504,-18.193224,14.638588
0.37722474,2.1306586,-8.704312,0.73724735,-0.66201645,2.3459806,-18.860584,15.704029
0.37741822,2.1223133,-8.704312,0.73724735,-0.66201645,2.3477497,-18.900265,15.638819
0.37736085,2.1141381,-8.57222,0.90449387,-0.46174672,2.3951073,-19.523546,16.743435
0.3773117,2.105955,-8.57222,0.90449387,-0.46174672,2.394659,-19.56214,16.679283
0.377013,2.0979733,-8.390059,1.0802624,-0.26573807,2.1094112,-20.303959,17.6847
0.37672275,2.0899918,-8.390059,1.0802624,-0.26573807,2.1067543,-20.341352,17.621967
0.37618887,2.0822632,-8.159962,1.2549659,-0.07399046,1.6373959,-20.986017,18.375412
0.37566373,2.0745351,-8.159962,1.2549659,-0.07399046,1.6325893,-21.022055,18.314514
0.3749059,2.0671067,-7.8808627,1.4168861,0.112430826,1.4389019,-21.737015,19.194681
0.3741571,2.0596795,-7.8808627,1.4168861,0.112430826,1.432045,-21.771557,19.136013
0.37318945,2.0526023,-7.549566,1.5649579,0.29139525,1.2891064,-22.231047,19.937418
0.37223056,2.0455256,-7.549566,1.5649579,0.29139525,1.2803135,-22.26394,19.881428
0.3710691,2.0388517,-7.1703315,1.6981158,0.46183756,1.1595383,-22.678497,20.54705
0.36991182,2.032152,-7.1703315,1.6981158,0.46183756,1.148922,-22.709726,20.493961
0.36856553,2.0258765,-6.7484865,1.8142297,0.62056196,1.270647,-23.280579,21.301548
0.36723694,2.0196452,-6.7484865,1.8142297,0.62056196,1.2584438,-23.309792,21.252136
0.36573637,2.0138967,-6.2850966,1.9250172,0.76756847,1.9533405,-23.58634,21.963346
0.36424237,2.008143,-6.2850966,1.9250172,0.76756847,1.9396076,-23.613628,21.91774
0.3625868,2.0029154,-5.783357,2.0443268,0.9017918,1.5077896,-24.38612,22.432026
0.36092728,1.9976516,-5.783357,2.0443268,0.9017918,1.4925175,-24.411549,22.390392
0.35912478,1.992969,-5.2453985,2.1636364,1.0211014,0.9156723,-24.760614,22.664917
0.35734206,1.9883192,-5.2453985,2.1636364,1.0211014,0.8992443,-24.783697,22.628294
0.35541832,1.9842268,-4.6701555,2.2637713,1.1233668,0.4936447,-25.868,23.036964
0.35349348,1.9801171,-4.6701555,2.2637713,1.1233668,0.4758854,-25.88919,23.004827
0.35147786,1.976658,-4.0608244,2.3447313,1.2096533,-0.10776329,-26.49711,23.30862
0.34945998,1.9731838,-4.0608244,2.3447313,1.2096533,-0.12641335,-26.516,23.28177
0.34736496,1.9703703,-3.414209,2.3969293,1.2820911,-0.490551,-28.06493,23.370693
0.3452767,1.9675574,-3.414209,2.3969293,1.2820911,-0.50988007,-28.081455,23.349403
0.34312025,1.9654168,-2.7356355,2.424626,1.3449419,-0.90335083,-28.651165,23.544567
0.34095874,1.9632648,-2.7356355,2.424626,1.3449419,-0.92339325,-28.665394,23.52887
0.33876082,1.9618267,-2.0272346,2.4320831,1.3992703,-1.255024,-29.328384,23.442688
0.33658063,1.9603953,-2.0272346,2.4320831,1.3992703,-1.2752571,-29.340004,23.433077
0.33434522,1.9596772,-1.2900716,2.420365,1.4472072,-1.5545998,-29.871174,22.907715
0.3321087,1.9589545,-1.2900716,2.420365,1.4472072,-1.5754089,-29.880386,22.904243
0.3298517,1.9589726,-0.5337339,2.3926682,1.4844915,-1.9842777,-30.54301,22.413921
0.32759687,1.9589866,-0.5337339,2.3926682,1.4844915,-2.005272,-30.549593,22.416752
0.32532954,1.9597524,0.23858285,2.3500576,1.5132536,-2.409481,-30.54393,21.58331
0.323061,1.960514,0.23858285,2.3500576,1.5132536,-2.4306297,-30.547808,21.592564
0.32079363,1.9620285,1.0162259,2.2914681,1.5345589,-2.5715141,-30.510649,20.511795
0.31852397,1.9635384,1.0162259,2.2914681,1.5345589,-2.5927105,-30.511745,20.527508
0.31626475,1.9657952,1.7896079,2.2211607,1.5505378,-2.9490166,-30.404718,19.223267
0.31400204,1.9680463,1.7896079,2.2211607,1.5505378,-2.9701881,-30.402958,19.245354
0.31176162,1.9710199,2.5438151,2.1306133,1.5611905,-3.0198956,-30.01533,17.861073
0.30951485,1.9739912,2.5438151,2.1306133,1.5611905,-3.0409393,-30.010662,17.889324
0.30730942,1.9776477,3.2692602,2.0176952,1.5622557,-2.7982597,-29.596197,16.525227
0.30510166,1.9812955,3.2692602,2.0176952,1.5622557,-2.8189774,-29.588604,16.559235
0.30294904,1.9855893,3.9499643,1.891994,1.5516031,-3.538292,-29.233482,15.262743
0.30079156,1.9898778,3.9499643,1.891994,1.5516031,-3.5585632,-29.222935,15.302139
0.29870117,1.9947546,4.581666,1.7449875,1.5398852,-3.9373455,-28.807491,14.259483
0.29660594,1.9996258,4.581666,1.7449875,1.5398852,-3.957056,-28.794046,14.303711
0.29459754,2.005025,5.16117,1.5628272,1.5239062,-4.1148224,-28.371,13.265312
0.29258493,2.0104198,5.16117,1.5628272,1.5239062,-4.1337795,-28.354694,13.313776
0.2906703,2.016286,5.689541,1.360427,1.5079273,-4.597147,-28.062971,12.676527
0.28875214,2.022148,5.689541,1.360427,1.5079273,-4.6152363,-28.043865,12.728683
0.2869339,2.028425,6.1625185,1.1463089,1.4972746,-4.0146856,-27.285017,11.644484
0.28511316,2.0346982,6.1625185,1.1463089,1.4972746,-4.0318756,-27.26321,11.699776
0.2834028,2.0413275,6.5779715,0.92260337,1.4876872,-5.53722,-27.421185,11.2119255
0.2816913,2.0479534,6.5779715,0.92260337,1.4876872,-5.553397,-27.39679,11.269783
0.28010753,2.05488,6.941227,0.675462,1.4738388,-6.181285,-27.016003,10.415258
0.2785226,2.0618105,6.941227,0.675462,1.4738388,-6.1962776,-26.989094,10.475193
0.277087,2.0689785,7.256545,0.3910364,1.4578599,-4.845167,-26.079239,9.871147
0.27565527,2.0761375,7.256545,0.3910364,1.4578599,-4.858719,-26.050014,9.932415
0.2743806,2.0835042,7.5186,0.101284444,1.4376198,-3.8364944,-25.530573,9.31982
0.27311277,2.0908542,7.5186,0.101284444,1.4376198,-3.848505,-25.499125,9.38204
0.27200288,2.0983596,7.724196,-0.15650955,1.4120535,-5.0226107,-25.518766,8.559248
0.27089804,2.1058717,7.724196,-0.15650955,1.4120535,-5.033082,-25.485199,8.622114
0.2699675,2.11348,7.8829207,-0.41749933,1.3758345,-5.472861,-25.41197,7.5839596
0.26904494,2.1210876,7.8829207,-0.41749933,1.3758345,-5.4816084,-25.376534,7.646862
0.26832274,2.1287472,8.0001,-0.7125776,1.3310933,-4.162073,-24.774872,6.1869373
0.26760978,2.136414,8.0001,-0.7125776,1.3310933,-4.1688385,-24.737688,6.2494946
0.2671114,2.1440997,8.073603,-1.0108516,1.2778301,-3.1775818,-23.866272,4.7601833
0.26662475,2.151785,8.073603,-1.0108516,1.2778301,-3.1821995,-23.82753,4.8220043
0.2663605,2.159459,8.105561,-1.2910162,1.2075226,-1.8200145,-22.77274,2.8911438
0.26610953,2.1671333,8.105561,-1.2910162,1.2075226,-1.8223972,-22.732597,2.9519424
0.2660906,2.1747556,8.086386,-1.5466796,1.1169752,-1.2240268,-21.164268,1.3788376
0.26608598,2.1823776,8.086386,-1.5466796,1.1169752,-1.22407,-21.122957,1.4382515
0.26630977,2.189904,8.005426,-1.7703851,1.0093834,-0.31215048,-19.328682,-0.7782345
0.2665486,2.1974304,8.005426,-1.7703851,1.0093834,-0.30988073,-19.2865,-0.720562
0.2670113,2.204794,7.847767,-1.9504149,0.8804865,-0.13789463,-18.267504,-2.3599005
0.26748937,2.2121575,7.847767,-1.9504149,0.8804865,-0.13336039,-18.2249,-2.3044949
0.26821145,2.2192974,7.630453,-2.1432278,0.7270884,1.1184783,-17.39737,-3.4820967
0.26894873,2.226437,7.630453,-2.1432278,0.7270884,1.1254716,-17.354734,-3.4294252
0.26993427,2.2333033,7.352419,-2.3221922,0.5566461,2.154749,-15.703907,-4.9836397
0.27118978,2.2419062,7.352419,-2.3221922,0.5566461,2.1666574,-15.650864,-4.9215794
0.2722819,2.2476046,7.0094037,-2.4723945,0.36383325,2.6941528,-14.039513,-6.4326215
0.27340227,2.2533941,7.0094037,-2.4723945,0.36383325,2.7047691,-14.00272,-6.39182
0.27490744,2.259497,6.6003423,-2.6023567,0.14651929,3.7341661,-12.689296,-7.268988
0.27643424,2.2656355,6.6003423,-2.6023567,0.14651929,3.748622,-12.649069,-7.2268333
0.27820125,2.271309,6.119908,-2.7035568,-0.08251257,4.493183,-11.4569235,-7.8160257
0.279981,2.2769868,6.119908,-2.7035568,-0.08251257,4.5100203,-11.418506,-7.778187
0.2819862,2.282145,5.5702314,-2.7674727,-0.32006654,4.878536,-10.424933,-8.2858095
0.2840009,2.2873025,5.5702314,-2.7674727,-0.32006654,4.897566,-10.388834,-8.252612
0.28622133,2.2918854,4.9566393,-2.7973,-0.56294686,5.1004915,-9.450708,-8.712503
0.288456,2.2964807,4.9566393,-2.7973,-0.56294686,5.121585,-9.417335,-8.684122
0.29086947,2.3004425,4.2940445,-2.7994306,-0.80582714,4.9911146,-8.683525,-8.919307
0.29328623,2.3043993,4.2940445,-2.7994306,-0.80582714,5.013891,-8.6535225,-8.896136
0.29588008,2.3077111,3.5888395,-2.7866476,-1.0433811,5.158024,-8.176997,-8.882772
0.2984806,2.311025,3.5888395,-2.7866476,-1.0433811,5.1824865,-8.150463,-8.864763
0.30122498,2.3136454,2.8548725,-2.7632117,-1.2692171,5.3279953,-7.8837337,-8.521583
0.3039583,2.3162515,2.8548725,-2.7632117,-1.2692171,5.353668,-7.861254,-8.509006
0.30683947,2.31817,2.0995998,-2.7269926,-1.4812047,5.213113,-7.095782,-8.970838
0.30973944,2.3200986,2.0995998,-2.7269926,-1.4812047,5.240307,-7.077135,-8.963475
0.3127398,2.321299,1.3262179,-2.67586,-1.6804093,4.712963,-6.607959,-8.994927
0.3157378,2.3224971,1.3262179,-2.67586,-1.6804093,4.7410088,-6.5936365,-8.992956
0.31883216,2.3229563,0.5400527,-2.627923,-1.8710916,5.631852,-6.813612,-8.129613
0.32192948,2.323414,0.5400527,-2.627923,-1.8710916,5.660782,-6.8036833,-8.133046
0.32511356,2.3231418,-0.24291669,-2.5682683,-2.0436645,5.5420485,-7.042357,-7.409086
0.32831004,2.3228662,-0.24291669,-2.5682683,-2.0436645,5.5718317,-7.036739,-7.417857
0.33155373,2.3218837,-1.0120376,-2.4798512,-2.1938667,4.4432364,-7.1647177,-6.713339
0.3347839,2.3209026,-1.0120376,-2.4798512,-2.1938667,4.4732733,-7.1633377,-6.7271004
0.33807305,2.319224,-1.7609185,-2.3914344,-2.323829,3.6562777,-7.563572,-5.610943
0.34136492,2.3175416,-1.7609185,-2.3914344,-2.323829,3.686822,-7.566272,-5.6297245
0.3446752,2.3151863,-2.4810374,-2.3115396,-2.425029,3.564268,-8.027926,-4.0395026
0.3479852,2.3128283,-2.4810374,-2.3115396,-2.425029,3.5949001,-8.034551,-4.063055
0.3513048,2.3098226,-3.1628065,-2.2199268,-2.4900103,2.8738132,-8.64838,-2.6498003
0.35461786,2.30682,-3.1628065,-2.2199268,-2.4900103,2.9044023,-8.658683,-2.6779027
0.35461786,2.30682,-3.8019652,-2.1261835,-2.5262291,2.9044023,-8.658683,-2.6779027
0.36340174,2.297156,-3.8019652,-2.1261835,-2.5262291,2.9039211,-9.356325,-1.1794891
0.3657571,2.2941017,-4.393187,-2.0281792,-2.5358167,3.236824,-10.177998,0.50347424
0.36819708,2.2909358,-4.393187,-2.0281792,-2.5358167,3.259233,-10.1907425,0.4759512
0.37142363,2.286094,-4.933276,-1.9110001,-2.5166419,3.2888346,-10.967879,2.0342646
0.37456608,2.2813752,-4.933276,-1.9110001,-2.5166419,3.31763,-10.987638,1.9941893
0.37764272,2.2760906,-5.423298,-1.7767768,-2.4708354,3.0058126,-11.800728,3.4441967
0.38100186,2.2703173,-5.423298,-1.7767768,-2.4708354,3.0365176,-11.8254795,3.3960123
0.3834835,2.2654674,-5.85686,-1.6361619,-2.400528,3.1214254,-12.651376,5.1470804
0.3868295,2.2589257,-5.85686,-1.6361619,-2.400528,3.1519375,-12.679882,5.093238
0.3889805,2.254177,-6.229703,-1.4912859,-2.3131764,3.9328861,-13.433702,6.6396437
0.3889805,2.254177,-6.229703,-1.4912859,-2.3131764,3.9328861,-13.433702,6.6396437
0.39479896,2.2397768,-6.54076,-1.3314962,-2.2162373,4.0863543,-14.178552,8.190182
0.39659816,2.235324,-6.54076,-1.3314962,-2.2162373,4.102691,-14.1981945,8.154194
0.39894652,2.228816,-6.791097,-1.1525319,-2.1075802,3.8845744,-14.907342,9.543415
0.40136668,2.2221103,-6.791097,-1.1525319,-2.1075802,3.9065094,-14.936987,9.489565
0.40355116,2.215313,-6.98391,-0.96291476,-1.9893359,4.0412087,-15.474984,10.953341
0.40574095,2.2085037,-6.98391,-0.96291476,-1.9893359,4.0610156,-15.505024,10.898901
0.40771115,2.201583,-7.116003,-0.76157975,-1.8593737,4.102763,-15.98123,12.045858
0.40968075,2.1946707,-7.116003,-0.76157975,-1.8593737,4.1205473,-16.011631,11.990807
0.41141078,2.1877422,-7.1916366,-0.54959214,-1.7208893,4.073908,-16.37763,13.310261
0.41315857,2.1807532,-7.1916366,-0.54959214,-1.7208893,4.0896654,-16.408272,13.254787
0.41465756,2.1738064,-7.212942,-0.3312129,-1.5728176,3.8972683,-16.841297,14.234278
0.41615793,2.1668696,-7.212942,-0.3312129,-1.5728176,3.9107742,-16.871614,14.179356
0.41741258,2.1599884,-7.1831145,-0.105376855,-1.4194194,3.720955,-17.256393,15.212162
0.418672,2.1531038,-7.1831145,-0.105376855,-1.4194194,3.7322779,-17.286428,15.157799
0.4196764,2.1463487,-7.1042852,0.12791605,-1.2617604,3.339076,-17.76639,16.273155
0.42068833,2.1395779,-7.1042852,0.12791605,-1.2617604,3.3481693,-17.79591,16.219803
0.42144072,2.1329837,-6.979649,0.36227423,-1.0977097,3.0724106,-18.351812,17.456276
0.42219836,2.1263947,-6.979649,0.36227423,-1.0977097,3.079214,-18.380589,17.404488
0.42269802,2.120017,-6.8081417,0.5945019,-0.9304631,3.0118713,-18.878176,18.389017
0.4232103,2.113562,-6.8081417,0.5945019,-0.9304631,3.01647,-18.906479,18.338436
0.42346287,2.1073186,-6.588697,0.82992536,-0.7621513,2.8319874,-19.355764,19.314577
0.42371243,2.1013126,-6.588697,0.82992536,-0.7621513,2.8342247,-19.382294,19.267677
0.42371133,2.0956073,-6.322381,1.062153,-0.5938395,2.3457966,-19.930004,20.243397
0.4237171,2.089826,-6.322381,1.062153,-0.5938395,2.3458538,-19.955833,20.198425
0.42347327,2.0844018,-6.0081277,1.2847933,-0.42446247,1.8983402,-20.368574,21.123863
0.42323604,2.0789614,-6.0081277,1.2847933,-0.42446247,1.8962135,-20.393278,21.081753
0.42276466,2.0739417,-5.6448727,1.485063,-0.2582812,1.4993324,-20.780678,21.957859
0.42230004,2.0689173,-5.6448727,1.485063,-0.2582812,1.4951668,-20.803963,21.919186
0.4216118,2.0643373,-5.239007,1.6640275,-0.09423048,2.0827503,-20.869064,22.937809
0.4209292,2.0597484,-5.239007,1.6640275,-0.09423048,2.07662,-20.890919,22.902752
0.42002806,2.0556433,-4.792661,1.8366003,0.06982025,1.8722,-21.078966,23.80081
0.41913348,2.051538,-4.792661,1.8366003,0.06982025,1.8641605,-21.099272,23.7698
0.4180233,2.0479493,-4.316488,2.0144994,0.2296099,1.0640926,-21.879435,24.921162
0.416917,2.044353,-4.316488,2.0144994,0.2296099,1.0541477,-21.898163,24.894413
0.41560587,2.0412974,-3.809422,2.1732237,0.38726905,0.20436859,-23.155512,25.988007
0.41430148,2.0382442,-3.809422,2.1732237,0.38726905,0.19262314,-23.172554,25.965816
0.4128164,2.0357492,-3.2629414,2.2882724,0.5364061,-0.42409134,-24.4281,26.810284
0.41133437,2.0332503,-3.2629414,2.2882724,0.5364061,-0.43745804,-24.443405,26.792747
0.40969864,2.0313444,-2.6685238,2.3543189,0.68128204,-0.52404404,-25.376184,27.2016
0.40806314,2.0294328,-2.6685238,2.3543189,0.68128204,-0.5388069,-25.389576,27.18896
0.4063079,2.0281472,-2.0282998,2.3745587,0.8133748,-0.41101837,-26.09995,27.13368
0.40456372,2.026866,-2.0282998,2.3745587,0.8133748,-0.4267769,-26.111143,27.12626
0.40271163,2.0262272,-1.3465307,2.3575146,0.93161917,-0.11793518,-26.637262,26.554419
0.40084946,2.0255816,-1.3465307,2.3575146,0.93161917,-0.13480377,-26.646263,26.552307
0.39892748,2.0256152,-0.63386875,2.3138387,1.031754,0.63308716,-26.418114,25.267721
0.39700323,2.0256448,-0.63386875,2.3138387,1.031754,0.61561966,-26.424587,25.271208
0.3950358,2.0263586,0.08838056,2.2595103,1.1105837,0.71747017,-26.404505,23.819843
0.39306518,2.0270693,0.08838056,2.2595103,1.1105837,0.6995735,-26.408346,23.828905
0.3910652,2.0284643,0.8074341,2.2030513,1.1713037,-0.07518959,-26.20838,21.846851
0.38905528,2.0298605,0.8074341,2.2030513,1.1713037,-0.093481064,-26.209505,21.86158
0.38705197,2.0319145,1.5126392,2.126352,1.2149795,-0.81082916,-25.963669,19.698128
0.38504964,2.0339594,1.5126392,2.126352,1.2149795,-0.8290863,-25.961998,19.718132
0.38306525,2.0366483,2.196539,2.012369,1.2416111,-1.2254715,-25.612787,17.588554
0.38107947,2.03933,2.196539,2.012369,1.2416111,-1.2436047,-25.608267,17.613705
0.37913033,2.0426157,2.849546,1.8749498,1.2639817,-1.7019444,-25.222725,15.733116
0.37692755,2.0463157,2.849546,1.8749498,1.2639817,-1.7220898,-25.214403,15.766869
0.3752464,2.04971,3.4631383,1.7204864,1.2820911,-2.4461594,-24.884712,14.092588
0.37337402,2.0534794,3.4631383,1.7204864,1.2820911,-2.4633121,-24.87472,14.126318
0.37154678,2.0578046,4.0319896,1.5393915,1.293809,-2.5901966,-24.53163,12.589058
0.36971438,2.06213,4.0319896,1.5393915,1.293809,-2.6069946,-24.518753,12.627134
0.36796564,2.066898,4.550773,1.3412523,1.3044617,-2.5081282,-24.14435,11.342236
0.36621064,2.071672,4.550773,1.3412523,1.3044617,-2.5242462,-24.128828,11.383696
0.3645422,2.0768356,5.0184245,1.134591,1.3183101,-2.1565075,-23.876442,10.2884655
0.3628618,2.0820265,5.0184245,1.134591,1.3183101,-2.1719599,-23.858326,10.333012
0.3612888,2.0875087,5.432812,0.92899495,1.3278975,-1.9087095,-23.699438,9.307039
0.35970837,2.0930095,5.432812,0.92899495,1.3278975,-1.9232597,-23.679058,9.353737
0.35822988,2.0987835,5.7960677,0.7265947,1.3342892,-2.0039206,-23.60893,8.492521
0.35674098,2.1045947,5.7960677,0.7265947,1.3342892,-2.0176458,-23.586231,8.541317
0.35535985,2.1106439,6.1103206,0.5220639,1.3342892,-1.7718086,-23.686268,7.7872257
0.35397997,2.1166904,6.1103206,0.5220639,1.3342892,-1.7845411,-23.661486,7.8374443
0.3527187,2.1229181,6.3798323,0.31433734,1.3289628,-1.417902,-23.941599,7.069908
0.35145375,2.1291752,6.3798323,0.31433734,1.3289628,-1.4295864,-23.91478,7.121277
0.35031545,2.1355863,6.606734,0.103414975,1.3161796,-0.82239914,-24.125914,6.1248093
0.34918097,2.1419954,6.606734,0.103414975,1.3161796,-0.8328867,-24.097263,6.176819
0.34818506,2.1485386,6.7952857,-0.105376855,1.2884828,-0.04243231,-23.952276,5.0466995
0.34723964,2.1547792,6.7952857,-0.105376855,1.2884828,-0.05118084,-23.923244,5.0967026
0.34640184,2.1614153,6.946553,-0.30245078,1.2416111,0.6593287,-23.264269,3.5404758
0.3455268,2.1683965,6.946553,-0.30245078,1.2416111,0.65122867,-23.230513,3.5956573
0.3448524,2.1751225,7.0562754,-0.48354575,1.1776953,1.3919744,-22.306507,1.9196835
0.34418958,2.181801,7.0562754,-0.48354575,1.1776953,1.3858345,-22.272997,1.9717197
0.3436929,2.1885543,7.114865,-0.6465312,1.0882131,2.2575111,-21.022028,0.11800575
0.34319857,2.1953816,7.114865,-0.6465312,1.0882131,2.2529292,-20.986542,0.1703949
0.34288773,2.2021382,7.1137996,-0.7903419,0.971034,3.3944793,-19.432667,-1.7798824
0.3425846,2.2089014,7.1137996,-0.7903419,0.971034,3.3916674,-19.396309,-1.7288208
0.34246868,2.2155983,7.0434923,-0.90645576,0.821897,4.137586,-17.343557,-3.8096943
0.3423603,2.2223222,7.0434923,-0.90645576,0.821897,4.13658,-17.306217,-3.759798
0.3424503,2.2289138,6.892225,-0.9991337,0.6397367,4.4103565,-15.023013,-5.8423595
0.34254825,2.2355323,6.892225,-0.9991337,0.6397367,4.4112644,-14.98508,-5.794153
0.34285587,2.2419,6.6450834,-1.0811591,0.42668384,4.9791403,-12.6540785,-7.5249476
0.34316897,2.2482426,6.6450834,-1.0811591,0.42668384,4.982049,-12.616579,-7.4796805
0.34371358,2.2543056,6.2946115,-1.1557276,0.18486881,5.2791824,-10.664469,-8.959865
0.34426442,2.260375,6.2946115,-1.1557276,0.18486881,5.2842884,-10.627418,-8.917536
0.34505177,2.2660313,5.8408084,-1.2228392,-0.07505572,5.8566084,-8.8825,-9.903607
0.34584373,2.271688,5.8408084,-1.2228392,-0.07505572,5.8639393,-8.846816,-9.865179
0.34687683,2.2768373,5.2858057,-1.2792983,-0.34456763,5.710703,-7.290643,-10.831839
0.3479134,2.281988,5.2858057,-1.2792983,-0.34456763,5.7202845,-7.2569904,-10.797919
0.34918115,2.2865396,4.6359944,-1.3229741,-0.6151448,5.6218805,-5.8040667,-11.544599
0.3504511,2.2910924,4.6359944,-1.3229741,-0.6151448,5.633624,-5.773155,-11.515718
0.35194457,2.2949638,3.900962,-1.3602583,-0.8814609,5.800646,-5.4248905,-11.15225
0.35343915,2.2988362,3.900962,-1.3602583,-0.8814609,5.814451,-5.3973494,-11.128883
0.35513988,2.3019733,3.1062748,-1.3815637,-1.1328633,5.2363863,-5.2683787,-10.752043
0.3568411,2.3051116,3.1062748,-1.3815637,-1.1328633,5.2520704,-5.2446795,-10.734428
0.35872015,2.307474,2.273238,-1.3900858,-1.3640257,4.8623734,-4.7703705,-10.3251915
0.36059898,2.3098373,2.273238,-1.3900858,-1.3640257,4.8796844,-4.7509136,-10.313462
0.36263773,2.311393,1.4135696,-1.3975426,-1.5770786,4.984639,-4.649827,-9.555891
0.364676,2.3129501,1.4135696,-1.3975426,-1.5770786,5.0033875,-4.634899,-9.550144
0.3668416,2.3136866,0.5443137,-1.3890206,-1.767761,5.3345327,-4.643859,-8.271808
0.36901128,2.314426,0.5443137,-1.3890206,-1.767761,5.3544474,-4.63361,-8.272009
0.37128982,2.3143635,-0.31855047,-1.3528016,-1.9382032,4.3602057,-4.987157,-7.344184
0.3735681,2.3143017,-0.31855047,-1.3528016,-1.9382032,4.38109,-4.981538,-7.350124
0.37593558,2.3134465,-1.1643704,-1.3165826,-2.0894709,4.345314,-5.5695305,-5.7814813
0.37830347,2.3125923,-1.1643704,-1.3165826,-2.0894709,4.3669724,-5.568489,-5.793043
0.3807502,2.3109765,-1.9739714,-1.2824941,-2.2173026,4.1594896,-6.3715386,-4.225001
0.38319516,2.3093624,-1.9739714,-1.2824941,-2.2173026,4.181818,-6.3748465,-4.2419295
0.3857058,2.3070242,-2.7345703,-1.242014,-2.3185027,4.0036077,-7.225087,-2.5927935
0.38821036,2.3046927,-2.7345703,-1.242014,-2.3185027,4.0264306,-7.232436,-2.6147919
0.3907668,2.3016968,-3.434449,-1.1983382,-2.3983974,3.6139555,-8.148577,-1.0995913
0.3933255,2.2986999,-3.434449,-1.1983382,-2.3983974,3.6372197,-8.159563,-1.1263237
0.39592305,2.2950974,-4.068281,-1.1546624,-2.455922,3.0718427,-9.102895,0.28399086
0.3985286,2.291486,-4.068281,-1.1546624,-2.455922,3.0954847,-9.117122,0.2528515
0.40115634,2.2873108,-4.6360674,-1.1163129,-2.4857492,2.583002,-9.929335,1.7117224
0.4037874,2.2831335,-4.6360674,-1.1163129,-2.4857492,2.6068254,-9.946454,1.6765089
0.40642276,2.2784271,-5.1367416,-1.0875506,-2.4910755,2.362507,-10.732592,3.1554918
0.4090569,2.2737274,-5.1367416,-1.0875506,-2.4910755,2.386301,-10.752285,3.1165018
0.41167128,2.2685585,-5.5713696,-1.0630496,-2.4761617,2.4242558,-11.396988,4.5251102
0.41428983,2.263386,-5.5713696,-1.0630496,-2.4761617,2.4478564,-11.418906,4.482687
0.41686323,2.257812,-5.945277,-1.0342875,-2.4399428,2.5380607,-12.142063,5.888359
0.41944095,2.2522335,-5.945277,-1.0342875,-2.4399428,2.5612416,-12.165789,5.8429832
0.42194974,2.2463164,-6.261661,-0.99380744,-2.3813534,2.4880056,-12.95265,7.298829
0.4244628,2.240394,-6.261661,-0.99380744,-2.3813534,2.5105543,-12.977809,7.250949
0.42688727,2.2341976,-6.5183897,-0.9458705,-2.3035889,2.4987636,-13.799274,8.465345
0.42931616,2.2279959,-6.5183897,-0.9458705,-2.3035889,2.520506,-13.825488,8.415413
0.43163878,2.2215776,-6.716529,-0.8926073,-2.2087805,2.7232351,-14.537576,9.6521435
0.43396574,2.2151544,-6.716529,-0.8926073,-2.2087805,2.744021,-14.564529,9.600586
0.4361636,2.208572,-6.857144,-0.8297567,-2.0947971,3.405281,-15.162172,10.845718
0.4383655,2.201984,-6.857144,-0.8297567,-2.0947971,3.4249077,-15.189591,10.792977
0.44041386,2.1952975,-6.9455605,-0.74133974,-1.9659002,3.5628576,-15.682106,11.716587
0.44246617,2.1886058,-6.9455605,-0.74133974,-1.9659002,3.5811176,-15.709736,11.663149
0.44493097,2.1797752,-6.9817796,-0.6284217,-1.828481,3.5886574,-16.057646,12.512363
0.4464446,2.1743596,-6.9817796,-0.6284217,-1.828481,3.6020985,-16.07977,12.469185
0.44829276,2.1670187,-6.9721923,-0.50058997,-1.6825398,3.752571,-16.248907,13.258545
0.44829276,2.1670187,-6.9721923,-0.50058997,-1.6825398,3.752571,-16.248907,13.258545
0.4517526,2.1530938,-6.9199944,-0.35997507,-1.5312722,3.97476,-16.362623,13.808537
0.45297405,2.1476583,-6.9199944,-0.35997507,-1.5312722,3.9855719,-16.384571,13.765408
0.45426714,2.1410542,-6.8326426,-0.20338118,-1.3746784,3.9108162,-16.454681,14.455523
0.45555758,2.134479,-6.8326426,-0.20338118,-1.3746784,3.9222202,-16.481192,14.403517
0.45664072,2.1279464,-6.712268,-0.030808344,-1.2127582,3.519991,-16.776037,15.305014
0.4577428,2.1213207,-6.712268,-0.030808344,-1.2127582,3.5297213,-16.802734,15.252742
0.45850855,2.1155877,-6.559935,0.15135187,-1.0433811,3.067215,-17.314653,16.534206
0.45969248,2.106772,-6.559935,0.15135187,-1.0433811,3.0776596,-17.350233,16.464859
0.46012816,2.102322,-6.374579,0.34416473,-0.8612209,2.0424156,-18.1347,17.976774
0.4605962,2.0975704,-6.374579,0.34416473,-0.8612209,2.046545,-18.154083,17.939575
0.4611292,2.0883846,-6.149808,0.5369776,-0.66627747,1.1845436,-19.317715,19.462784
0.4612689,2.0860116,-6.149808,0.5369776,-0.66627747,1.185772,-19.327507,19.444294
0.46134305,2.0805745,-5.8771005,0.715942,-0.45855093,0.45858574,-20.634005,21.068754
0.46142602,2.0748634,-5.8771005,0.715942,-0.45855093,0.45931816,-20.65812,21.024582
0.4612521,2.0698857,-5.545803,0.87466645,-0.24549803,0.065135956,-21.838673,22.557087
0.46107852,2.06479,-5.545803,0.87466645,-0.24549803,0.06360817,-21.86073,22.517958
0.4606561,2.0600882,-5.15059,1.0056939,-0.02924935,0.6392803,-22.41822,23.92841
0.46023634,2.0553675,-5.15059,1.0056939,-0.02924935,0.63558006,-22.43932,23.892485
0.45957157,2.0511007,-4.6935916,1.1239383,0.18699934,1.6065521,-22.818472,25.215618
0.45891073,2.0468345,-4.6935916,1.1239383,0.18699934,1.6007214,-22.83835,25.183546
0.4580109,2.0430872,-4.182265,1.2549659,0.3915301,1.3725166,-23.474634,26.142323
0.45711285,2.0393333,-4.182265,1.2549659,0.3915301,1.3645935,-23.493137,26.114548
0.45600367,2.0361738,-3.6155438,1.3774712,0.5747556,0.8855324,-24.266556,26.82442
0.45489848,2.033018,-3.6155438,1.3774712,0.5747556,0.87577057,-24.283318,26.801624
0.45361453,2.030477,-2.9998212,1.4658883,0.73134947,0.6489296,-24.97823,26.927631
0.45233324,2.027936,-2.9998212,1.4658883,0.73134947,0.6375923,-24.993122,26.909903
0.45091316,2.0260496,-2.338292,1.5148904,0.86450756,0.5484085,-25.360296,26.686905
0.44949493,2.0241628,-2.338292,1.5148904,0.86450756,0.5358467,-25.373089,26.674553
0.44796014,2.022958,-1.6384131,1.5351304,0.9848824,0.34985733,-25.354927,25.968708
0.4464278,2.0217533,-1.6384131,1.5351304,0.9848824,0.33626175,-25.365456,25.96193
0.44479895,2.0212464,-0.9161638,1.5319346,1.0956699,-0.061275482,-25.229984,24.921806
0.4431704,2.0207376,-0.9161638,1.5319346,1.0956699,-0.07574844,-25.238146,24.920732
0.4414707,2.0209246,-0.18752293,1.5010419,1.1904784,-0.071704865,-25.100216,23.637249
0.43977243,2.0211093,-0.18752293,1.5010419,1.1904784,-0.086826324,-25.105917,23.641834
0.4380222,2.0219798,0.53792214,1.4445829,1.2725039,-0.34661865,-24.812252,21.95691
0.43627295,2.0228467,0.53792214,1.4445829,1.2725039,-0.36222076,-24.815432,21.967056
0.4344993,2.0243747,1.246323,1.3678839,1.3396155,-0.67492294,-24.634125,20.129417
0.43272102,2.0259032,1.246323,1.3678839,1.3396155,-0.6908016,-24.634739,20.144901
0.4309344,2.0280688,1.9344839,1.2762711,1.3960745,-0.87436104,-24.364676,18.36987
0.42914832,2.030229,1.9344839,1.2762711,1.3960745,-0.890337,-24.362694,18.390442
0.4273594,2.0330029,2.5981436,1.1740057,1.4482725,-1.1409836,-24.171452,16.744774
0.4255657,2.0357788,2.5981436,1.1740057,1.4482725,-1.157053,-24.166862,16.77029
0.42379093,2.0391147,3.2266498,1.0589572,1.4930135,-1.3022499,-23.915623,15.378084
0.42201158,2.0424542,3.2266498,1.0589572,1.4930135,-1.3182201,-23.90846,15.408054
0.42025667,2.0463216,3.8146756,0.92899495,1.5324284,-1.3483429,-23.798346,14.182825
0.418501,2.0501854,3.8146756,0.92899495,1.5324284,-1.3641243,-23.788637,14.216904
0.4167796,2.0545316,4.359026,0.7894453,1.567582,-1.5711403,-23.814928,13.0336895
0.41505828,2.0588746,4.359026,0.7894453,1.567582,-1.5866356,-23.802723,13.071453
0.41338232,2.0636518,4.8575697,0.639243,1.5974095,-1.5011749,-23.730846,11.814884
0.4117072,2.0684261,4.8575697,0.639243,1.5974095,-1.5162754,-23.716208,11.85589
0.41009206,2.0735838,5.309242,0.47306174,1.6219106,-1.5069017,-23.675518,10.822357
0.40847862,2.0787387,5.309242,0.47306174,1.6219106,-1.5214634,-23.65852,10.866137
0.4069377,2.0842338,5.714042,0.2972931,1.6378895,-1.3486404,-23.582045,10.0217495
0.4054012,2.0897217,5.714042,0.2972931,1.6378895,-1.3625288,-23.562756,10.067839
0.4039515,2.0954819,6.073036,0.118328676,1.6496074,-1.2272015,-23.402786,9.2251625
0.40249717,2.1012754,6.073036,0.118328676,1.6496074,-1.240365,-23.381245,9.273293
0.401144,2.107286,6.3808975,-0.06489681,1.6528032,-1.3100796,-23.180876,8.523144
0.39979336,2.1133065,6.3808975,-0.06489681,1.6528032,-1.3223181,-23.157295,8.572611
0.3985525,2.1195083,6.639757,-0.2502528,1.6474769,-1.4293365,-22.835289,8.010223
0.3973156,2.125721,6.639757,-0.2502528,1.6474769,-1.4405565,-22.809765,8.060698
0.39620116,2.132056,6.8517447,-0.44093516,1.6368243,-1.6230536,-22.529123,7.4604816
0.39508897,2.1384215,6.8517447,-0.44093516,1.6368243,-1.633152,-22.501766,7.5115643
0.39410287,2.144876,7.015795,-0.6316175,1.6219106,-1.5846496,-22.276905,7.017044
0.3931257,2.1513295,7.015795,-0.6316175,1.6219106,-1.5935287,-22.247988,7.068201
0.3922788,2.1578417,7.1329746,-0.819104,1.6016705,-1.7353029,-22.088732,6.57827
0.39144194,2.1643531,7.1329746,-0.819104,1.6016705,-1.7429147,-22.058378,6.6292114
0.3907493,2.170885,7.208608,-1.0087211,1.567582,-1.4523339,-22.09417,6.220127
0.3900677,2.1774168,7.208608,-1.0087211,1.567582,-1.4585366,-22.062546,6.2705154
0.38953826,2.1839318,7.242697,-1.1962076,1.5239062,-0.72594213,-22.058939,5.8414173
0.38902014,2.190453,7.242697,-1.1962076,1.5239062,-0.73065805,-22.0262,5.8909855
0.3886658,2.1969202,7.242697,-1.3751721,1.4653167,-0.21194887,-21.700825,5.063301
0.38832298,2.2034068,7.242697,-1.3751721,1.4653167,-0.21507168,-21.667084,5.111803
0.38815415,2.2098038,7.2096734,-1.5413533,1.3875524,0.2287128,-21.115847,4.225321
0.3879978,2.2162201,7.2096734,-1.5413533,1.3875524,0.22729039,-21.081308,4.2724686
0.38803035,2.2225318,7.139366,-1.7043388,1.2874175,1.008095,-20.39526,3.2551804
0.38807634,2.2288501,7.139366,-1.7043388,1.2874175,1.0085123,-20.360071,3.3007164
0.38831943,2.235039,7.030709,-1.8545411,1.1649121,2.0258684,-19.180319,2.0900936
0.38857684,2.2412527,7.030709,-1.8545411,1.1649121,2.0282168,-19.144545,2.133955
0.38902977,2.2473109,6.8773108,-1.9802423,1.0242972,2.865519,-17.638779,0.6628761
0.3894961,2.2533748,6.8773108,-1.9802423,1.0242972,2.8697639,-17.602728,0.70472336
0.39015356,2.2592301,6.664258,-2.0793118,0.8602465,3.689776,-16.154507,-0.86448383
0.39082745,2.2651207,6.664258,-2.0793118,0.8602465,3.6959085,-16.118385,-0.8248005
0.3916884,2.2707484,6.3840933,-2.1549456,0.6759557,4.4746714,-14.71356,-2.2911854
0.3925626,2.276387,6.3840933,-2.1549456,0.6759557,4.4826226,-14.677914,-2.2541876
0.39361566,2.2817125,6.032556,-2.2039478,0.475686,5.2918587,-13.441521,-3.6756744
0.39468032,2.2870436,6.032556,-2.2039478,0.475686,5.3015294,-13.406776,-3.6416912
0.39591464,2.2920136,5.6107116,-2.2273836,0.2690247,5.839465,-12.195593,-4.8653603
0.39715546,2.2969742,5.6107116,-2.2273836,0.2690247,5.850725,-12.162247,-4.8347473
0.3985589,2.301507,5.1238856,-2.2316446,0.054906543,6.3901787,-11.551479,-5.564192
0.39997402,2.3060536,5.1238856,-2.2316446,0.054906543,6.403016,-11.519881,-5.537178
0.40153742,2.3101177,4.5795355,-2.205013,-0.16773373,6.1921234,-11.074091,-6.3136187
0.4031083,2.3141859,4.5795355,-2.205013,-0.16773373,6.2063417,-11.044751,-6.2905397
0.40482062,2.3177528,3.9979012,-2.1666636,-0.39570034,6.1787443,-10.074686,-7.070971
0.40653735,2.3213198,3.9979012,-2.1666636,-0.39570034,6.1942596,-10.047846,-7.051887
0.4083874,2.3243413,3.3800478,-2.1272488,-0.6247322,6.5701065,-9.257789,-7.530086
0.41024974,2.3273773,3.3800478,-2.1272488,-0.6247322,6.58692,-9.233693,-7.5151215
0.41222918,2.3298335,2.7302365,-2.0782466,-0.8516335,7.327819,-8.140208,-7.7725387
0.41420844,2.3322864,2.7302365,-2.0782466,-0.8516335,7.345661,-8.119309,-7.761903
0.41629368,2.3341515,2.0505977,-2.003678,-1.0689474,6.7036285,-7.4457107,-8.119402
0.41838813,2.3360238,2.0505977,-2.003678,-1.0689474,6.722471,-7.4280252,-8.11302
0.4205746,2.337274,1.3453926,-1.9259138,-1.2841309,7.311943,-7.121833,-7.7997513
0.42276135,2.3385239,1.3453926,-1.9259138,-1.2841309,7.331581,-7.107704,-7.7977843
0.42502385,2.3391404,0.6231433,-1.8343011,-1.4875964,7.6966314,-7.0829077,-7.3213263
0.42729545,2.3397596,0.6231433,-1.8343011,-1.4875964,7.7169867,-7.0724096,-7.323767
0.42962086,2.3397508,-0.10336704,-1.7192525,-1.6761482,7.215863,-7.1087275,-6.9042616
0.43194625,2.3397422,-0.10336704,-1.7192525,-1.6761482,7.2366524,-7.1019135,-6.910966
0.43431002,2.3391156,-0.82242054,-1.5956818,-1.8508515,6.697523,-7.1275177,-6.509972
0.4366832,2.3384862,-0.82242054,-1.5956818,-1.8508515,6.7187004,-7.124336,-6.52085
0.439086,2.3372416,-1.5265603,-1.4816985,-2.0074453,6.821519,-7.3881783,-5.745704
0.4414916,2.335996,-1.5265603,-1.4816985,-2.0074453,6.8429255,-7.388589,-5.7606955
0.44391456,2.3341596,-2.2083297,-1.370911,-2.1448646,6.524492,-7.655876,-4.9846773
0.44635296,2.3323114,-2.2083297,-1.370911,-2.1448646,6.5461464,-7.6597414,-5.0036798
0.4488075,2.3298836,-2.8645325,-1.262254,-2.2609785,6.141754,-7.963891,-4.1980963
0.4513445,2.327375,-2.8645325,-1.262254,-2.2609785,6.1642313,-7.97128,-4.2217064
0.453721,2.3244925,-3.4951692,-1.1567929,-2.3579175,5.749517,-8.4745245,-3.1363792
0.45617115,2.3215222,-3.4951692,-1.1567929,-2.3579175,5.7711763,-8.484728,-3.1627865
0.4586163,2.31802,-4.094913,-1.052397,-2.4346166,5.4767275,-9.015145,-1.9333172
0.46108428,2.3144882,-4.094913,-1.052397,-2.4346166,5.4984903,-9.028352,-1.9635096
0.46352026,2.3104696,-4.6584377,-0.9426747,-2.4868145,5.050684,-9.705177,-0.90027905
0.46597278,2.3064294,-4.6584377,-0.9426747,-2.4868145,5.0722547,-9.721073,-0.9338579
0.46838444,2.3019013,-5.185744,-0.8233651,-2.509185,4.6098156,-10.429293,0.3941326
0.4707939,2.297385,-5.185744,-0.8233651,-2.509185,4.6309557,-10.447682,0.35742188
0.47313923,2.2924194,-5.6704392,-0.6997944,-2.5059893,4.0529604,-11.196491,1.6729879
0.47550222,2.2874262,-5.6704392,-0.6997944,-2.5059893,4.0736456,-11.217293,1.6331062
0.47777876,2.2820187,-6.1071973,-0.5783543,-2.4793575,3.6961157,-11.829461,2.9074583
0.4800619,2.2766078,-6.1071973,-0.5783543,-2.4793575,3.7160554,-11.852346,2.8648453
0.48223665,2.2708209,-6.4949536,-0.46117517,-2.4260943,3.505178,-12.504702,4.3234806
0.48442948,2.2650013,-6.4949536,-0.46117517,-2.4260943,3.5242875,-12.529568,4.2781725
0.4864892,2.2588649,-6.834773,-0.3439961,-2.3515258,3.4991171,-13.183601,5.648363
0.48856091,2.2527127,-6.834773,-0.3439961,-2.3515258,3.5171244,-13.210043,5.600896
0.49048376,2.2462845,-7.12346,-0.22149068,-2.2545867,3.3949616,-13.918119,7.0506277
0.4924184,2.2398396,-7.12346,-0.22149068,-2.2545867,3.4117455,-13.945911,7.0012894
0.49418366,2.2331896,-7.357818,-0.092593685,-2.1416688,3.5228124,-14.650202,8.416132
0.4959679,2.226496,-7.357818,-0.092593685,-2.1416688,3.5382624,-14.6791,8.365208
0.49756986,2.2196586,-7.5378475,0.046955958,-2.0191634,3.70056,-15.365042,9.6687565
0.49918354,2.2128038,-7.5378475,0.046955958,-2.0191634,3.714507,-15.394617,9.616867
0.50060415,2.2058604,-7.664614,0.20141931,-1.889201,3.7890263,-15.851146,10.737881
0.50203943,2.1988857,-7.664614,0.20141931,-1.889201,3.8014107,-15.881201,10.685295
0.50326425,2.1918836,-7.7359867,0.3718616,-1.7475209,3.7736654,-16.337967,11.820452
0.5044998,2.1848717,-7.7359867,0.3718616,-1.7475209,3.7843113,-16.36817,11.76779
0.5055163,2.1778688,-7.7583575,0.5582829,-1.5994492,3.6063185,-16.748335,12.883968
0.5065424,2.1708634,-7.7583575,0.5582829,-1.5994492,3.6151495,-16.778526,12.831551
0.5073381,2.1639385,-7.729595,0.7564221,-1.4449859,3.176672,-17.211077,13.857534
0.50814706,2.156984,-7.729595,0.7564221,-1.4449859,3.1836271,-17.241114,13.805682
0.5087225,2.150157,-7.6571574,0.9566918,-1.2873267,2.9252129,-17.884022,15.02409
0.5093081,2.1433287,-7.6571574,0.9566918,-1.2873267,2.9302444,-17.91362,14.973358
0.5098857,2.1325293,-7.539978,1.1537657,-1.1254065,2.5760746,-18.69374,16.03327
0.5100508,2.1243587,-7.374862,1.3476439,-0.96135575,2.065134,-19.515497,17.23745
0.5102193,2.1167696,-7.374862,1.3476439,-0.96135575,2.0665798,-19.548859,17.181461
0.5102193,2.1167696,-7.374862,1.3476439,-0.96135575,2.0665798,-19.548859,17.181461
0.510131,2.1098132,-7.1575484,1.5266083,-0.7951745,1.711483,-20.293535,18.303677
0.51005584,2.1028504,-7.1575484,1.5266083,-0.7951745,1.7108383,-20.324356,18.252438
0.5095812,2.0925732,-6.8848405,1.6842674,-0.63218904,1.6780281,-20.839977,19.254686
0.5095035,2.090818,-6.8848405,1.6842674,-0.63218904,1.6773643,-20.847807,19.241795
0.50914806,2.086596,-6.559935,1.823817,-0.46920356,1.7796555,-21.365234,20.183159
0.50867814,2.080905,-6.559935,1.823817,-0.46920356,1.7756138,-21.391197,20.141665
0.5079231,2.0748997,-6.1870923,1.9505836,-0.30834863,1.2998638,-21.970095,21.142157
0.5074288,2.070912,-6.1870923,1.9505836,-0.30834863,1.2956123,-21.988672,21.11324
0.5066199,2.0662315,-5.766313,2.05711,-0.15388529,0.862484,-22.375214,22.305555
0.5066199,2.0662315,-5.766313,2.05711,-0.15388529,0.862484,-22.375214,22.305555
0.5046947,2.0552151,-5.299727,2.1327438,-0.013270383,0.8363342,-23.136616,23.504684
0.5041072,2.052577,-5.299727,2.1327438,-0.013270383,0.83127403,-23.149649,23.485867
0.5030094,2.048796,-4.792661,2.1892028,0.125214,1.5831623,-23.380005,24.56549
0.50192094,2.045022,-4.792661,2.1892028,0.125214,1.5737801,-23.39951,24.538925
0.50069094,2.0417838,-4.2493763,2.2531188,0.25837207,0.82574844,-24.178764,25.948431
0.49946713,2.0385451,-4.2493763,2.2531188,0.25837207,0.81518555,-24.19656,25.926086
0.4981059,2.0358794,-3.6751988,2.3180997,0.38726905,-0.52296066,-25.467203,27.47899
0.496732,2.0331774,-3.6751988,2.3180997,0.38726905,-0.5348511,-25.483427,27.460989
0.49527016,2.031139,-3.0616064,2.3500576,0.52149236,-1.2083015,-27.360092,28.879972
0.49379146,2.02907,-3.0616064,2.3500576,0.52149236,-1.2211075,-27.374235,28.866974
0.492193,2.0276155,-2.4011424,2.3372746,0.6621073,-1.7712555,-28.693714,29.639448
0.49059704,2.0261593,-2.4011424,2.3372746,0.6621073,-1.7851067,-28.705933,29.631384
0.4889111,2.0253563,-1.68635,2.278685,0.7931348,-1.7710152,-29.424686,29.91105
0.4872265,2.0245504,-1.68635,2.278685,0.7931348,-1.7856445,-29.434746,29.908165
0.48547137,2.0244408,-0.9193596,2.1934638,0.91350967,-1.460949,-29.993088,29.637922
0.48371822,2.0243278,-0.9193596,2.1934638,0.91350967,-1.4762115,-30.00074,29.640556
0.48190227,2.0249515,-0.11082389,2.101851,1.0264277,-1.7170944,-30.216503,28.614786
0.48008528,2.0255713,-0.11082389,2.101851,1.0264277,-1.7329445,-30.221561,28.623278
0.47822577,2.0269535,0.726474,1.9953246,1.1254973,-2.0412636,-30.113699,27.100737
0.47636428,2.0283308,0.726474,1.9953246,1.1254973,-2.057541,-30.115934,27.115255
0.47448197,2.0304778,1.5776203,1.8664277,1.2117838,-2.72044,-29.73215,25.148657
0.47259524,2.0326219,1.5776203,1.8664277,1.2117838,-2.736969,-29.731386,25.169243
0.47072068,2.0355206,2.426636,1.7034422,1.2799606,-2.8395844,-29.18165,22.830246
