Pitch,Roll,Gyro_X,Gyro_Y,Gyro_Z,Accel_X,Accel_Y,Accel_Z
0.07653975,4.769534,6.007328,-1.14456,-1.9577558,0.8283938,-5.1523223,-3.8259344
0.07448629,4.7753496,5.844342,-1.0604041,-1.9449726,1.13964,-4.1659107,-3.7253778
0.072440036,4.781128,5.844342,-1.0604041,-1.9449726,1.13964,-4.1659107,-3.7253778
0.07039211,4.786725,5.645138,-0.9698566,-1.9247327,1.5610195,-3.1028855,-3.596091
0.068348266,4.7922974,5.645138,-0.9698566,-1.9247327,1.5610195,-3.1028855,-3.596091
0.06631303,4.7976413,5.4043884,-0.8718523,-1.8981011,2.006341,-2.0350714,-3.5625722
0.06428235,4.802962,5.4043884,-0.8718523,-1.8981011,2.006341,-2.0350714,-3.5625722
0.062277105,4.8079963,5.1146364,-0.7685216,-1.8661431,2.2984335,-1.0965444,-3.5482068
0.060264952,4.813039,5.1146364,-0.7685216,-1.8661431,2.2984335,-1.0965444,-3.5482068
0.058298267,4.817724,4.7780128,-0.6609299,-1.8299241,2.5905263,-0.24899697,-3.466804
0.056355063,4.822347,4.7780128,-0.6609299,-1.8299241,2.5905263,-0.24899697,-3.466804
0.05443062,4.826666,4.393452,-0.5448161,-1.7873136,2.6479871,0.46926352,-3.2369606
0.052483413,4.831032,4.393452,-0.5448161,-1.7873136,2.6479871,0.46926352,-3.2369606
0.05062362,4.8349295,3.965216,-0.42231068,-1.7340503,2.6240451,1.0247183,-2.944868
0.04877209,4.838807,3.965216,-0.42231068,-1.7340503,2.6240451,1.0247183,-2.944868
0.04699907,4.842233,3.49863,-0.29447892,-1.6733302,2.4229321,1.5370775,-2.5617957
0.04522206,4.845666,3.49863,-0.29447892,-1.6733302,2.4229321,1.5370775,-2.5617957
0.043551058,4.8485975,3.0000863,-0.16771246,-1.5998269,2.2649148,2.0638018,-2.2601264
0.041878294,4.851532,3.0000863,-0.16771246,-1.5998269,2.2649148,2.0638018,-2.2601264
0.04029635,4.853974,2.474911,-0.040945996,-1.5124753,2.4420857,2.2218192,-1.8100165
0.038736694,4.8563824,2.474911,-0.040945996,-1.5124753,2.4420857,2.2218192,-1.8100165
0.037293434,4.8582687,1.9294956,0.086885735,-1.4102099,2.3319526,2.542642,-1.5705963
0.03584764,4.860159,1.9294956,0.086885735,-1.4102099,2.3319526,2.542642,-1.5705963
0.034533784,4.8614864,1.3659707,0.21045642,-1.2994224,2.5091233,2.542642,-1.2497733
0.03321766,4.8628163,1.3659707,0.21045642,-1.2994224,2.5091233,2.542642,-1.2497733
0.032031335,4.86358,0.79072785,0.32870078,-1.1811781,2.8921957,2.585738,-0.90500826
0.03085001,4.8643417,0.79072785,0.32870078,-1.1811781,2.8921957,2.585738,-0.90500826
0.02980454,4.864534,0.21335453,0.44587985,-1.0597379,2.96881,2.6719291,-0.5650316
0.028763227,4.864726,0.21335453,0.44587985,-1.0597379,2.96881,2.6719291,-0.5650316
0.027856098,4.864344,-0.3672146,0.56199366,-0.9372325,2.9496565,2.3942018,-0.095768064
0.02695221,4.8639646,-0.3672146,0.56199366,-0.9372325,2.9496565,2.3942018,-0.095768064
0.02618273,4.8630104,-0.9435227,0.6717159,-0.81259656,2.815581,2.0638018,0.35913026
0.025404053,4.8620467,-0.9435227,0.6717159,-0.81259656,2.815581,2.0638018,0.35913026
0.0247073,4.8603754,-1.509178,0.772916,-0.6879606,2.5617957,1.6136919,0.8523358
0.02415236,4.859047,-1.509178,0.772916,-0.6879606,2.5617957,1.6136919,0.8523358
0.023661552,4.8570304,-2.056724,0.85707194,-0.5654552,2.3463178,0.91937345,1.3263878
0.023164086,4.8549943,-2.056724,0.85707194,-0.5654552,2.3463178,0.91937345,1.3263878
0.022793777,4.852425,-2.58403,0.9241836,-0.44294977,2.3415294,0.6607997,1.5514427
0.022004573,4.844732,-3.0942917,0.9731858,-0.32150963,2.0398598,-0.50757074,2.0159178
0.021923857,4.8437495,-3.0942917,0.9731858,-0.32150963,2.0398598,-0.50757074,2.0159178
0.021923857,4.8437495,-3.0942917,0.9731858,-0.32150963,2.0398598,-0.50757074,2.0159178
0.02179871,4.84009,-3.5779216,1.0115353,-0.1936779,1.7286136,-1.2114661,2.0829554
0.02167613,4.836607,-3.5779216,1.0115353,-0.1936779,1.7286136,-1.2114661,2.0829554
0.02167613,4.836607,-3.5779216,1.0115353,-0.1936779,1.7286136,-1.2114661,2.0829554
0.021697998,4.8287263,-4.030659,1.0392321,-0.05732405,1.1875241,-1.6280571,1.757344
0.021848196,4.8242903,-4.4556994,1.0498848,0.08648665,0.8571242,-2.2457612,1.5179238
0.021994077,4.819858,-4.4556994,1.0498848,0.08648665,0.8571242,-2.2457612,1.5179238
0.022275928,4.8151083,-4.8551736,1.0424279,0.23668894,0.7565677,-3.0071173,1.4269443
0.022561224,4.8102283,-4.8551736,1.0424279,0.23668894,0.7565677,-3.0071173,1.4269443
0.022969106,4.805105,-5.225886,1.0243185,0.3932828,0.9624691,-3.7493198,1.3742718
0.023374913,4.799956,-5.225886,1.0243185,0.3932828,0.9624691,-3.7493198,1.3742718
0.023907706,4.7944746,-5.5657053,1.0019479,0.55094194,1.1731589,-4.620809,1.2401965
0.024440486,4.7889543,-5.5657053,1.0019479,0.55094194,1.1731589,-4.620809,1.2401965
0.025100036,4.7831097,-5.870371,0.9785121,0.70220953,1.4796166,-5.386954,1.115698
0.02605617,4.774572,-5.870371,0.9785121,0.70220953,1.4796166,-5.386954,1.115698
0.026484424,4.7712135,-6.1388173,0.9625331,0.849216,1.6950948,-6.0621185,0.90021986
0.02725776,4.7651234,-6.1388173,0.9625331,0.849216,1.6950948,-6.0621185,0.90021986
0.028161403,4.75875,-6.3731756,0.95614153,0.9919614,1.70946,-6.5361705,0.61291564
0.02905871,4.752392,-6.3731756,0.95614153,0.9919614,1.70946,-6.5361705,0.61291564
0.03008539,4.745804,-6.5745106,0.9572068,1.1283153,1.4939818,-7.053318,0.45968673
0.031107333,4.7392187,-6.5745106,0.9572068,1.1283153,1.4939818,-7.053318,0.45968673
0.03224952,4.7324476,-6.741757,0.96146786,1.2593428,1.2449849,-7.603985,0.20590134
0.033385966,4.7256804,-6.741757,0.96146786,1.2593428,1.2449849,-7.603985,0.20590134
0.034642525,4.718776,-6.87385,0.9625331,1.3882399,1.0247183,-8.106767,0.062249243
0.035895344,4.7118626,-6.87385,0.9625331,1.3882399,1.0247183,-8.106767,0.062249243
0.037269898,4.7048464,-6.9729195,0.95933735,1.5182021,0.8571242,-8.580819,-0.07182605
0.038636334,4.6978426,-6.9729195,0.95933735,1.5182021,0.8571242,-8.580819,-0.07182605
0.04012229,4.6907496,-7.040031,0.95294577,1.6417727,0.80924016,-9.083601,-0.19153613
0.041598454,4.6836767,-7.040031,0.95294577,1.6417727,0.80924016,-9.083601,-0.19153613
0.043192737,4.676547,-7.07625,0.9465542,1.7653434,0.7422025,-9.615114,-0.36391866
0.04475423,4.669538,-7.07625,0.9465542,1.7653434,0.7422025,-9.615114,-0.36391866
0.04645226,4.6624055,-7.084772,0.94016254,1.8835878,0.521936,-10.103531,-0.4405331
0.048174407,4.655152,-7.084772,0.94016254,1.8835878,0.521936,-10.103531,-0.4405331
0.04996999,4.6480436,-7.063467,0.93164045,1.9975711,0.40701428,-10.548853,-0.60812724
0.051748678,4.6409864,-7.063467,0.93164045,1.9975711,0.40701428,-10.548853,-0.60812724
0.053644802,4.633909,-7.0208564,0.9220531,2.1083586,0.33039984,-11.042058,-0.7422025
0.05554713,4.6267977,-7.0208564,0.9220531,2.1083586,0.33039984,-11.042058,-0.7422025
0.057531253,4.6197786,-6.9558754,0.9103352,2.2138197,0.15322891,-11.405977,-0.9816227
0.059507303,4.6127777,-6.9558754,0.9103352,2.2138197,0.15322891,-11.405977,-0.9816227
0.06158351,4.6058693,-6.8717194,0.897552,2.311824,0.24899697,-11.841722,-0.94810385
0.06365705,4.5989666,-6.8717194,0.897552,2.311824,0.24899697,-11.841722,-0.94810385
0.0658268,4.592172,-6.7715845,0.8879646,2.4066327,-0.095768064,-12.449849,-1.1013328
0.0679964,4.585382,-6.7715845,0.8879646,2.4066327,-0.095768064,-12.449849,-1.1013328
0.070252344,4.5787086,-6.656536,0.8698551,2.4939842,-0.32561144,-12.928689,-1.2976574
0.07250865,4.5720367,-6.656536,0.8698551,2.4939842,-0.32561144,-12.928689,-1.2976574
0.07482555,4.5654793,-6.5255084,0.84109294,2.5685527,-0.37828386,-13.086706,-1.508347
0.077138186,4.5589366,-6.5255084,0.84109294,2.5685527,-0.37828386,-13.086706,-1.508347
0.079507604,4.5525255,-6.379567,0.80593926,2.6324687,-0.05267244,-13.378799,-1.4700398
0.081871845,4.5461206,-6.379567,0.80593926,2.6324687,-0.05267244,-13.378799,-1.4700398
0.08430599,4.5398684,-6.226169,0.77611184,2.689993,0,-13.862428,-1.3263878
0.08673787,4.533607,-6.226169,0.77611184,2.689993,0,-13.862428,-1.3263878
0.08923753,4.5275216,-6.063184,0.7569371,2.7411256,-0.2681506,-14.216769,-1.13964
0.09173077,4.521432,-6.063184,0.7569371,2.7411256,-0.2681506,-14.216769,-1.13964
0.0942951,4.5155196,-5.8895454,0.73989284,2.7858667,-0.8714894,-14.618996,-1.1540052
0.09685126,4.509602,-5.8895454,0.73989284,2.7858667,-0.8714894,-14.618996,-1.1540052
0.09944163,4.503871,-5.697798,0.7090002,2.8242164,-0.58418524,-19.28769,-0.033518825
0.10202446,4.498135,-5.697798,0.7090002,2.8242164,-0.58418524,-19.28769,-0.033518825
0.10480275,4.492568,-5.4463954,0.66106325,2.850848,-3.8402996,-12.186486,-2.4612393
0.10757278,4.4869995,-5.4463954,0.66106325,2.850848,-3.8402996,-12.186486,-2.4612393
0.11013229,4.4817567,-5.1875362,0.5609284,2.83913,3.9504328,-17.750612,1.2641385
0.11269128,4.4764996,-5.1875362,0.5609284,2.83913,3.9504328,-17.750612,1.2641385
0.115347385,4.4714937,-4.9606347,0.51512206,2.8359342,-4.0557775,-21.466412,2.0973208
0.11799662,4.4664836,-4.9606347,0.51512206,2.8359342,-4.0557775,-21.466412,2.0973208
0.12064588,4.4617877,-4.650643,0.49701256,2.8519132,-3.169923,-22.16073,0.8858546
0.12329392,4.457078,-4.650643,0.49701256,2.8519132,-3.169923,-22.16073,0.8858546
0.12587403,4.4528017,-4.23519,0.35426712,2.7837362,-0.9624691,-21.71062,1.1252748
0.1284493,4.448521,-4.23519,0.35426712,2.7837362,-0.9624691,-21.71062,1.1252748
0.13097207,4.4447055,-3.788844,0.2349575,2.6931887,-1.8100165,-22.577322,1.436521
0.13349323,4.440882,-3.788844,0.2349575,2.6931887,-1.8100165,-22.577322,1.436521
0.13596027,4.437542,-3.3179972,0.14654055,2.6037066,-2.7246015,-21.734564,0.842759
0.1384238,4.4341984,-3.3179972,0.14654055,2.6037066,-2.7246015,-21.734564,0.842759
0.1407862,4.4313536,-2.8333018,0.028296193,2.480136,-1.5705963,-20.671537,0.842759
0.14314371,4.4285088,-2.8333018,0.028296193,2.480136,-1.5705963,-20.671537,0.842759
0.14538132,4.426153,-2.3635201,-0.08888289,2.3267379,-1.2306197,-20.494366,1.1109096
0.1475838,4.42383,-2.3635201,-0.08888289,2.3267379,-1.2306197,-20.494366,1.1109096
0.14968866,4.4219427,-1.9107828,-0.17623459,2.1648176,-1.2689269,-20.781672,1.2737153
0.15182383,4.4200244,-1.9107828,-0.17623459,2.1648176,-1.2689269,-20.781672,1.2737153
0.15378292,4.4185977,-1.4655023,-0.25186837,1.9922447,-1.3359646,-20.556616,0.9576807
0.15574117,4.41717,-1.4655023,-0.25186837,1.9922447,-1.3359646,-20.556616,0.9576807
0.15754329,4.416203,-1.0244827,-0.3253716,1.8058234,-1.5035586,-19.986795,0.6560113
0.15934485,4.415235,-1.0244827,-0.3253716,1.8058234,-1.5035586,-19.986795,0.6560113
0.16097718,4.4147224,-0.5898549,-0.3978096,1.606619,-1.6328455,-19.565416,0.24420857
0.16260903,4.4142094,-0.5898549,-0.3978096,1.606619,-1.6328455,-19.565416,0.24420857
0.1640616,4.4141426,-0.16481435,-0.46705177,1.3988924,-1.6472107,-18.80406,-0.15322891
0.16551375,4.414076,-0.16481435,-0.46705177,1.3988924,-1.6472107,-18.80406,-0.15322891
0.16677669,4.414445,0.24957353,-0.53309816,1.183709,-1.541866,-18.124107,-0.44532153
0.16803916,4.4148145,0.24957353,-0.53309816,1.183709,-1.541866,-18.124107,-0.44532153
0.16911045,4.4156036,0.6479824,-0.592753,0.9642646,-1.6041151,-17.458519,-0.50278234
0.1701811,4.4163933,0.6479824,-0.592753,0.9642646,-1.6041151,-17.458519,-0.50278234
0.17105688,4.4175854,1.0304123,-0.6449509,0.7469506,-1.5562311,-16.941372,-0.6799533
0.17193182,4.418778,1.0304123,-0.6449509,0.7469506,-1.5562311,-16.941372,-0.6799533
0.17261477,4.420353,1.3947328,-0.6918226,0.5317672,-1.6711528,-16.46732,-0.81881696
0.17329796,4.421932,1.3947328,-0.6918226,0.5317672,-1.6711528,-16.46732,-0.81881696
0.17407197,4.424982,1.7441396,-0.7365637,0.32084483,-1.8052281,-15.95496,-1.0199299
0.1743052,4.425905,1.7441396,-0.7365637,0.32084483,-1.8052281,-15.95496,-1.0199299
0.17461202,4.428156,2.0775673,-0.7845006,0.120575115,-1.8914193,-15.581465,-1.2545617
0.17491873,4.430421,2.0775673,-0.7845006,0.120575115,-1.8914193,-15.581465,-1.2545617
0.17505966,4.4330554,2.3950162,-0.83989435,-0.07223775,-1.958457,-15.14572,-1.4221559
0.17519802,4.435693,2.3950162,-0.83989435,-0.07223775,-1.958457,-15.14572,-1.4221559
0.17517337,4.4386487,2.6932902,-0.9016797,-0.25865903,-2.0254946,-14.638149,-1.6136919
0.17514545,4.4416046,2.6932902,-0.9016797,-0.25865903,-2.0254946,-14.638149,-1.6136919
0.17496373,4.4448614,2.97452,-0.96879137,-0.43442768,-2.0159178,-14.279019,-1.6184803
0.17477816,4.448118,2.97452,-0.96879137,-0.43442768,-2.0159178,-14.279019,-1.6184803
0.17444322,4.4516554,3.2408361,-1.0337725,-0.5984784,-1.8818425,-13.8959465,-1.6328455
0.17410307,4.4551992,3.2408361,-1.0337725,-0.5984784,-1.8818425,-13.8959465,-1.6328455
0.17360967,4.459005,3.4922385,-1.0944926,-0.7529417,-1.5370775,-13.52724,-1.6472107
0.17311062,4.462809,3.4922385,-1.0944926,-0.7529417,-1.5370775,-13.52724,-1.6472107
0.17248905,4.4668674,3.731923,-1.1413642,-0.8924914,-1.6807296,-13.22557,-1.6903064
0.17186126,4.470925,3.731923,-1.1413642,-0.8924914,-1.6807296,-13.22557,-1.6903064
0.17111969,4.475224,3.9620202,-1.1797137,-1.0181926,-1.7764976,-13.005303,-1.7381904
0.17037138,4.479521,3.9620202,-1.1797137,-1.0181926,-1.7764976,-13.005303,-1.7381904
0.16950908,4.484049,4.183595,-1.2180632,-1.1343064,-1.8100165,-12.804191,-1.9488802
0.16863921,4.488575,4.183595,-1.2180632,-1.1343064,-1.8100165,-12.804191,-1.9488802
0.16766493,4.4933248,4.3987784,-1.257478,-1.2408328,-1.8626889,-12.516887,-2.135628
0.16668165,4.498072,4.3987784,-1.257478,-1.2408328,-1.8626889,-12.516887,-2.135628
0.1655562,4.5030174,4.606505,-1.3022192,-1.3388371,-1.7286136,-12.272678,-2.3511062
0.16441374,4.507953,4.606505,-1.3022192,-1.3388371,-1.7286136,-12.272678,-2.3511062
0.16315807,4.5130696,4.804644,-1.3469602,-1.4293847,-1.661576,-12.143391,-2.3750482
0.16188484,4.518165,4.804644,-1.3469602,-1.4293847,-1.661576,-12.143391,-2.3750482
0.16054974,4.523367,4.9921308,-1.3906361,-1.5146059,-1.685518,-12.014104,-2.528277
0.15922208,4.528556,4.9921308,-1.3906361,-1.5146059,-1.685518,-12.014104,-2.528277
0.15783657,4.533908,5.1710954,-1.4311161,-1.5945007,-1.661576,-11.9135475,-2.5378537
0.15645345,4.5392556,5.1710954,-1.4311161,-1.5945007,-1.661576,-11.9135475,-2.5378537
0.15503706,4.5447636,5.3372765,-1.4694656,-1.6669387,-1.7717092,-11.812991,-2.6623523
0.15361616,4.550267,5.3372765,-1.4694656,-1.6669387,-1.7717092,-11.812991,-2.6623523
0.15217282,4.5559287,5.4917397,-1.5046194,-1.7308545,-2.0925324,-11.745954,-2.777274
0.1507196,4.561586,5.4917397,-1.5046194,-1.7308545,-2.0925324,-11.745954,-2.777274
0.1492198,4.5673914,5.6355505,-1.5419036,-1.7830524,-2.1930888,-11.592725,-2.8203697
0.1477091,4.5731916,5.6355505,-1.5419036,-1.7830524,-2.1930888,-11.592725,-2.8203697
0.14613487,4.5791225,5.765513,-1.5802531,-1.8267283,-2.0111294,-11.449073,-2.8921957
0.14455041,4.585049,5.765513,-1.5802531,-1.8267283,-2.0111294,-11.449073,-2.8921957
0.14290416,4.5910907,5.8805614,-1.6164721,-1.8629473,-1.7046716,-11.238382,-3.0071173
0.14124808,4.5971274,5.8805614,-1.6164721,-1.8629473,-1.7046716,-11.238382,-3.0071173
0.13954413,4.603261,5.9775004,-1.644169,-1.8917094,-1.4460979,-10.960655,-3.1747115
0.13783023,4.6093893,5.9775004,-1.644169,-1.8917094,-1.4460979,-10.960655,-3.1747115
0.13607018,4.6155963,6.0573955,-1.6665395,-1.9204715,-1.1875241,-10.620679,-3.265691
0.13430011,4.621798,6.0573955,-1.6665395,-1.9204715,-1.1875241,-10.620679,-3.265691
0.13248439,4.628062,6.115985,-1.6814532,-1.950299,-1.0007763,-10.271125,-3.371036
0.13066216,4.6343083,6.115985,-1.6814532,-1.950299,-1.0007763,-10.271125,-3.371036
0.12879348,4.640614,6.1554,-1.6867796,-1.9769306,-0.8283938,-9.730036,-3.5673606
0.1269257,4.6468773,6.1554,-1.6867796,-1.9769306,-0.8283938,-9.730036,-3.5673606
0.12499773,4.653211,6.169248,-1.6835837,-1.9993012,-0.47405192,-9.14585,-3.7732618
0.123084515,4.659458,6.169248,-1.6835837,-1.9993012,-0.47405192,-9.14585,-3.7732618
0.12112354,4.6657176,6.1575303,-1.6708006,-2.0195413,-0.1436521,-8.48984,-3.8546648
0.11915057,4.671978,6.1575303,-1.6708006,-2.0195413,-0.1436521,-8.48984,-3.8546648
0.11714074,4.6781893,6.115985,-1.6484301,-2.039781,0.14844051,-7.795521,-3.8881836
0.11512106,4.6843953,6.115985,-1.6484301,-2.039781,0.14844051,-7.795521,-3.8881836
0.113070466,4.69052,6.044612,-1.6164721,-2.0568254,0.37828386,-7.0964136,-3.9983168
0.11101051,4.6966395,6.044612,-1.6164721,-2.0568254,0.37828386,-7.0964136,-3.9983168
0.11101051,4.6966395,6.044612,-1.6164721,-2.0568254,0.37828386,-7.0964136,-3.9983168
0.11101051,4.6966395,6.044612,-1.6164721,-2.0568254,0.37828386,-7.0964136,-3.9983168
0.11101051,4.6966395,6.044612,-1.6164721,-2.0568254,0.37828386,-7.0964136,-3.9983168
0.10148333,4.7230234,5.801732,-1.5301857,-2.079196,0.6607997,-5.645528,-3.845088
0.10034156,4.7260504,5.6355505,-1.4758573,-2.0823917,0.7230489,-5.0900726,-3.6152446
0.09806213,4.732072,5.6355505,-1.4758573,-2.0823917,0.7230489,-5.0900726,-3.6152446
0.09611614,4.73701,5.443803,-1.4130067,-2.079196,0.90500826,-4.6351743,-3.4955344
0.09397643,4.7424192,5.443803,-1.4130067,-2.079196,0.90500826,-4.6351743,-3.4955344
0.09182003,4.7476435,5.229685,-1.3416339,-2.0674782,1.1300632,-4.2185836,-3.2369606
0.08965545,4.752869,5.229685,-1.3416339,-2.0674782,1.1300632,-4.2185836,-3.2369606
0.087498516,4.7578573,4.996392,-1.2638696,-2.0461729,1.3455414,-3.7828386,-3.040636
0.0853363,4.762842,4.996392,-1.2638696,-2.0461729,1.3455414,-3.7828386,-3.040636
0.08316002,4.7676444,4.74712,-1.1786485,-2.0163455,1.5227122,-3.3566709,-2.815581
0.08104566,4.7722964,4.74712,-1.1786485,-2.0163455,1.5227122,-3.3566709,-2.815581
0.07893305,4.7767487,4.481869,-1.0849051,-1.9779959,1.6184803,-3.0262709,-2.7868507
0.07680606,4.78122,4.481869,-1.0849051,-1.9779959,1.6184803,-3.0262709,-2.7868507
0.07475156,4.7853518,4.203835,-0.9911619,-1.9321895,1.5705963,-2.777274,-2.6384103
0.07268149,4.789506,4.203835,-0.9911619,-1.9321895,1.5705963,-2.777274,-2.6384103
0.0706581,4.7933836,3.9151485,-0.8974186,-1.8767958,1.4987702,-2.6001031,-2.3750482
0.068652414,4.7972207,3.9151485,-0.8974186,-1.8767958,1.4987702,-2.6001031,-2.3750482
0.066703744,4.8007727,3.619005,-0.8090017,-1.8107493,1.4748282,-2.4899697,-2.0685902
0.0647473,4.8043337,3.619005,-0.8090017,-1.8107493,1.4748282,-2.4899697,-2.0685902
0.062870815,4.8075776,3.3154047,-0.7237805,-1.7340503,1.5849615,-2.3989902,-1.9009962
0.060990993,4.810824,3.3154047,-0.7237805,-1.7340503,1.5849615,-2.3989902,-1.9009962
0.059196025,4.813758,3.0064778,-0.6396246,-1.6456333,1.757344,-2.1212628,-1.7046716
0.057398174,4.8166943,3.0064778,-0.6396246,-1.6456333,1.757344,-2.1212628,-1.7046716
0.05569248,4.8193197,2.6932902,-0.55333817,-1.5497595,2.0494366,-1.9871874,-1.6089035
0.053985942,4.8219447,2.6932902,-0.55333817,-1.5497595,2.0494366,-1.9871874,-1.6089035
0.05239399,4.824237,2.3715804,-0.46172544,-1.4474941,2.054225,-1.8052281,-1.6519991
0.050795108,4.826537,2.3715804,-0.46172544,-1.4474941,2.054225,-1.8052281,-1.6519991
0.049315825,4.8284926,2.0381525,-0.36691692,-1.3409678,2.231396,-1.6041151,-1.6567876
0.047827397,4.8304596,2.0381525,-0.36691692,-1.3409678,2.231396,-1.6041151,-1.6567876
0.046461493,4.832079,1.6940721,-0.27104312,-1.2280496,2.4612393,-1.3503298,-1.6136919
0.0450982,4.8336954,1.6940721,-0.27104312,-1.2280496,2.4612393,-1.3503298,-1.6136919
0.04385512,4.8349614,1.3372085,-0.16984299,-1.1119359,2.4660277,-1.0151415,-1.4987702
0.042614497,4.8362255,1.3372085,-0.16984299,-1.1119359,2.4660277,-1.0151415,-1.4987702
0.04150878,4.8371205,0.96862704,-0.06118602,-0.9883652,2.4995465,-0.8858546,-1.4221559
0.04040202,4.838017,0.96862704,-0.06118602,-0.9883652,2.4995465,-0.8858546,-1.4221559
0.039437283,4.8385267,0.58832765,0.04853622,-0.862664,2.3798366,-0.61291564,-1.4317327
0.038472567,4.839037,0.58832765,0.04853622,-0.862664,2.3798366,-0.61291564,-1.4317327
0.037647396,4.8391566,0.19524503,0.16038899,-0.7358975,2.2888567,-0.4309563,-1.2737153
0.036822222,4.8392763,0.19524503,0.16038899,-0.7358975,2.2888567,-0.4309563,-1.2737153
0.036142908,4.8389883,-0.21062072,0.27224174,-0.60486996,2.303222,-0.272939,-1.292869
0.0354601,4.8386984,-0.21062072,0.27224174,-0.60486996,2.303222,-0.272939,-1.292869
0.034908712,4.8379736,-0.6250086,0.38409454,-0.47171193,2.2888567,-0.18195933,-1.2018893
0.03438946,4.837292,-0.6250086,0.38409454,-0.47171193,2.2888567,-0.18195933,-1.2018893
0.034006134,4.8361845,-1.0468533,0.4959473,-0.3374886,2.183512,-0.1436521,-1.0390835
0.033606794,4.835032,-1.0468533,0.4959473,-0.3374886,2.183512,-0.1436521,-1.0390835
0.03336717,4.833528,-1.4740244,0.6067348,-0.20539582,2.0590134,-0.22026655,-0.8810662
0.03312047,4.8319855,-1.4740244,0.6067348,-0.20539582,2.0590134,-0.22026655,-0.8810662
0.033014655,4.830022,-1.9001302,0.71539176,-0.07223775,2.0015526,-0.34476504,-0.7278373
0.03290699,4.8280487,-1.9001302,0.71539176,-0.07223775,2.0015526,-0.34476504,-0.7278373
0.032936987,4.8256583,-2.3251708,0.8197877,0.059855036,1.9201498,-0.5650316,-0.5506664
0.032965094,4.8232675,-2.3251708,0.8197877,0.059855036,1.9201498,-0.5650316,-0.5506664
0.033127684,4.820458,-2.749146,0.91992253,0.19088256,1.8291701,-0.8619126,-0.39743748
0.033288117,4.817642,-2.749146,0.91992253,0.19088256,1.8291701,-0.8619126,-0.39743748
0.03358,4.8144207,-3.1656644,1.0126005,0.31977957,1.6711528,-1.1492168,-0.18195933
0.03386858,4.811203,-3.1656644,1.0126005,0.31977957,1.6711528,-1.1492168,-0.18195933
0.03428602,4.807572,-3.5725954,1.0999522,0.44654605,1.5753847,-1.5466543,-0.076614454
0.03469972,4.803941,-3.5725954,1.0999522,0.44654605,1.5753847,-1.5466543,-0.076614454
0.035236605,4.7999363,-3.969939,1.1777165,0.57118195,1.3934253,-2.0350714,0.110133275
0.03577244,4.795908,-3.969939,1.1777165,0.57118195,1.3934253,-2.0350714,0.110133275
0.036427923,4.7915277,-4.3502383,1.2426977,0.6915569,1.2545617,-2.6192567,0.30645782
0.0370793,4.7871437,-4.3502383,1.2426977,0.6915569,1.2545617,-2.6192567,0.30645782
0.037851945,4.7824106,-4.7102976,1.2970262,0.8108665,1.0821792,-3.1651347,0.45489833
0.038620383,4.7776732,-4.7102976,1.2970262,0.8108665,1.0821792,-3.1651347,0.45489833
0.039508816,4.772631,-5.045856,1.3385714,0.9301761,1.0726024,-3.787627,0.6368576
0.04039641,4.767564,-5.045856,1.3385714,0.9301761,1.0726024,-3.787627,0.6368576
0.04139497,4.7622013,-5.3579783,1.3694642,1.0473552,1.0007763,-4.4915223,0.6895301
0.042389035,4.756834,-5.3579783,1.3694642,1.0473552,1.0007763,-4.4915223,0.6895301
0.043502413,4.7511787,-5.6456,1.3897042,1.1581427,0.78529817,-5.243302,0.81402856
0.04460694,4.7455406,-5.6456,1.3897042,1.1581427,0.78529817,-5.243302,0.81402856
0.045836195,4.739651,-5.9023285,1.4003568,1.2699955,0.60333884,-6.0621185,0.9911995
0.047059383,4.7337604,-5.9023285,1.4003568,1.2699955,0.60333884,-6.0621185,0.9911995
0.048396893,4.7276487,-6.1270995,1.4003568,1.380783,0.49320555,-6.7803793,1.1061212
0.049727753,4.7215357,-6.1270995,1.4003568,1.380783,0.49320555,-6.7803793,1.1061212
0.051166527,4.71523,-6.3199124,1.3886389,1.4905052,0.49320555,-7.5225816,1.283292
0.052597918,4.7089224,-6.3199124,1.3886389,1.4905052,0.49320555,-7.5225816,1.283292
0.05413306,4.7024574,-6.4775715,1.3715947,1.5970316,0.4213795,-8.1642275,1.364695
0.055657312,4.6960025,-6.4775715,1.3715947,1.5970316,0.4213795,-8.1642275,1.364695
0.057284307,4.6894,-6.597946,1.3470936,1.7024928,0.38307226,-8.872911,1.316811
0.05890004,4.6828084,-6.597946,1.3470936,1.7024928,0.38307226,-8.872911,1.316811
0.060614742,4.676132,-6.682102,1.3140703,1.8047582,0.31603462,-9.481039,1.3934253
0.06232273,4.6694465,-6.682102,1.3140703,1.8047582,0.31603462,-9.481039,1.3934253
0.0641242,4.662726,-6.7311044,1.2767861,1.9016973,0.11971009,-10.184934,1.3790601
0.06591882,4.6559954,-6.7311044,1.2767861,1.9016973,0.11971009,-10.184934,1.3790601
0.0678087,4.649252,-6.7449527,1.232045,1.9965059,-0.090979666,-10.769119,1.3024458
0.06968593,4.6425185,-6.7449527,1.232045,1.9965059,-0.090979666,-10.769119,1.3024458
0.07165819,4.6357703,-6.725778,1.1787817,2.0891838,-0.10055647,-11.453861,1.2354081
0.07361378,4.6290455,-6.725778,1.1787817,2.0891838,-0.10055647,-11.453861,1.2354081
0.075671025,4.6223183,-6.6746454,1.1148659,2.1776009,-0.16759412,-12.023681,1.163582
0.07768915,4.615688,-6.6746454,1.1148659,2.1776009,-0.16759412,-12.023681,1.163582
0.07981046,4.6090794,-6.5947504,1.046689,2.2617567,-0.33518824,-12.631808,0.9672575
0.08192121,4.6024733,-6.5947504,1.046689,2.2617567,-0.33518824,-12.631808,0.9672575
0.08410896,4.5959783,-6.4850283,0.9710552,2.339521,-0.40222588,-13.158532,0.80924016
0.086288616,4.5894794,-6.4850283,0.9710552,2.339521,-0.40222588,-13.158532,0.80924016
0.08853827,4.583116,-6.3454785,0.88689935,2.4087632,-0.34476504,-13.723564,0.7661445
0.09077367,4.576767,-6.3454785,0.88689935,2.4087632,-0.34476504,-13.723564,0.7661445
0.09308087,4.5705624,-6.1792974,0.7995477,2.4705484,-0.24899697,-14.211981,0.8283938
0.095374264,4.5643716,-6.1792974,0.7995477,2.4705484,-0.24899697,-14.211981,0.8283938
0.09773307,4.5583706,-5.9864845,0.7143265,2.5259423,-0.34955344,-14.805743,0.8571242
0.100080565,4.5523787,-5.9864845,0.7143265,2.5259423,-0.34955344,-14.805743,0.8571242
0.1024982,4.546587,-5.765975,0.6301706,2.5738792,-0.60333884,-15.351622,0.8810662
0.10490475,4.540803,-5.765975,0.6301706,2.5738792,-0.60333884,-15.351622,0.8810662
0.107368395,4.5352736,-5.5177684,0.5406884,2.6154244,-0.93373865,-15.897499,0.78529817
0.10982599,4.5297394,-5.5177684,0.5406884,2.6154244,-0.93373865,-15.897499,0.78529817
0.1123365,4.524484,-5.2450604,0.44374934,2.6516435,-1.1779473,-16.529568,0.8858546
0.11483907,4.51923,-5.2450604,0.44374934,2.6516435,-1.1779473,-16.529568,0.8858546
0.11738784,4.5142717,-4.9467864,0.33828816,2.678275,-1.2210429,-17.046717,0.8714894
0.11992928,4.509314,-4.9467864,0.33828816,2.678275,-1.2210429,-17.046717,0.8714894
0.12250718,4.5046883,-4.6240115,0.22430485,2.6931887,-1.5131354,-19.88145,1.5658079
0.1250784,4.500064,-4.6240115,0.22430485,2.6931887,-1.5131354,-19.88145,1.5658079
0.1276884,4.4958153,-4.252234,0.11032156,2.6963847,-1.9536686,-17.176003,0.076614454
0.13028671,4.4915757,-4.252234,0.11032156,2.6963847,-1.9536686,-17.176003,0.076614454
0.13285233,4.487729,-3.8431726,-0.020705972,2.6793404,2.1404164,-18.990808,2.0638018
0.13541088,4.4838867,-3.8431726,-0.020705972,2.6793404,2.1404164,-18.990808,2.0638018
0.13802233,4.480451,-3.458612,-0.122971356,2.649513,-3.2561142,-22.70182,3.8019924
0.14063147,4.4770126,-3.458612,-0.122971356,2.649513,-3.2561142,-22.70182,3.8019924
0.1432579,4.4740205,-3.018658,-0.17090826,2.653774,-3.763685,-23.870192,2.030283
0.14587696,4.4710317,-3.018658,-0.17090826,2.653774,-3.763685,-23.870192,2.030283
0.14845826,4.468595,-2.4806993,-0.34880742,2.5834665,-1.958457,-23.525425,2.0159178
0.15103322,4.466162,-2.4806993,-0.34880742,2.5834665,-1.958457,-23.525425,2.0159178
0.15355729,4.464327,-1.9097176,-0.5181845,2.4918537,-1.8243817,-23.951593,1.910573
0.15608071,4.4624906,-1.9097176,-0.5181845,2.4918537,-1.8243817,-23.951593,1.910573
0.15856238,4.461257,-1.3323442,-0.6556036,2.399176,-3.107674,-23.439234,1.3359646
0.16104093,4.4600244,-1.3323442,-0.6556036,2.399176,-3.107674,-23.439234,1.3359646
0.16343568,4.459398,-0.75284034,-0.80580586,2.2798662,-2.2888567,-22.16552,0.78529817
0.16582747,4.458772,-0.75284034,-0.80580586,2.2798662,-2.2888567,-22.16552,0.78529817
0.16810925,4.4587364,-0.19357648,-0.9549429,2.1317945,-1.9632454,-22.036232,0.9720459
0.17039032,4.458701,-0.19357648,-0.9549429,2.1317945,-1.9632454,-22.036232,0.9720459
0.17254938,4.4592237,0.33799046,-1.0710567,1.9783963,-1.8387469,-22.012291,0.91458505
0.17470314,4.4597473,0.33799046,-1.0710567,1.9783963,-1.8387469,-22.012291,0.91458505
0.17673561,4.4608164,0.85357845,-1.1690611,1.8164761,-2.2409728,-21.792025,0.45489833
0.17876261,4.4618855,0.85357845,-1.1690611,1.8164761,-2.2409728,-21.792025,0.45489833
0.18064466,4.463484,1.3563833,-1.2606738,1.6417727,-2.5761611,-21.313183,-0.1436521
0.18252446,4.4650846,1.3563833,-1.2606738,1.6417727,-2.5761611,-21.313183,-0.1436521
0.18425046,4.4671974,1.8410786,-1.3501561,1.4596125,-2.8634653,-20.738575,-0.770933
0.18597181,4.4693108,1.8410786,-1.3501561,1.4596125,-2.8634653,-20.738575,-0.770933
0.18753168,4.471919,2.3034034,-1.4375077,1.2731912,-2.873042,-20.15439,-1.2689269
0.18908584,4.474527,2.3034034,-1.4375077,1.2731912,-2.873042,-20.15439,-1.2689269
0.1904681,4.477601,2.7433577,-1.5227288,1.0857047,-2.7820623,-19.531897,-1.7764976
0.19184494,4.4806786,2.7433577,-1.5227288,1.0857047,-2.7820623,-19.531897,-1.7764976
0.19303317,4.4841924,3.1588109,-1.5951668,0.8992834,-2.4037786,-18.918982,-2.1930888
0.19421208,4.487701,3.1588109,-1.5951668,0.8992834,-2.4037786,-18.918982,-2.1930888
0.19522162,4.4916625,3.5476322,-1.6526911,0.71818846,-2.4372973,-18.497602,-2.6144683
0.19621998,4.4956174,3.5476322,-1.6526911,0.71818846,-2.4372973,-18.497602,-2.6144683
0.19702592,4.499863,3.9108875,-1.6921059,0.5456156,-2.906561,-18.138472,-3.1794999
0.1978266,4.5041513,3.9108875,-1.6921059,0.5456156,-2.906561,-18.138472,-3.1794999
0.19845256,4.508805,4.2539024,-1.7293901,0.37730384,-3.3806129,-17.832014,-3.5673606
0.19904557,4.5134363,4.2539024,-1.7293901,0.37730384,-3.3806129,-17.832014,-3.5673606
0.19904557,4.5134363,4.2539024,-1.7293901,0.37730384,-3.3806129,-17.832014,-3.5673606
0.20007837,4.523507,4.577743,-1.7751966,0.21218786,-3.3279405,-17.266983,-3.8642416
0.20007837,4.523507,4.577743,-1.7751966,0.21218786,-3.3279405,-17.266983,-3.8642416
0.20078991,4.5338964,4.883474,-1.825264,0.052398186,-3.2034419,-16.778566,-4.0653543
0.20096666,4.538869,5.168965,-1.8721356,-0.104195684,-2.920926,-16.108189,-4.3526587
0.20115855,4.5445113,5.168965,-1.8721356,-0.104195684,-2.920926,-16.108189,-4.3526587
0.20119181,4.550767,5.4342155,-1.9094199,-0.26398537,-2.8491,-15.466543,-4.486734
0.2012101,4.555809,5.4342155,-1.9094199,-0.26398537,-2.8491,-15.466543,-4.486734
0.2010837,4.5616264,5.6749654,-1.9371167,-0.42910135,-3.1124623,-14.96376,-4.5681367
0.20094283,4.5675926,5.6749654,-1.9371167,-0.42910135,-3.1124623,-14.96376,-4.5681367
0.2006397,4.5737734,5.8933444,-1.9616178,-0.5974131,-3.2609026,-14.365211,-4.4484267
0.2003224,4.579984,5.8933444,-1.9616178,-0.5974131,-3.2609026,-14.365211,-4.4484267
0.1998363,4.5863857,6.089353,-1.9829232,-0.76252913,-3.2321723,-13.709199,-4.357447
0.19933638,4.592792,6.089353,-1.9829232,-0.76252913,-3.2321723,-13.709199,-4.357447
0.19866374,4.599345,6.2640567,-2.0042284,-0.9287104,-3.1411927,-13.10586,-4.4819455
0.19797473,4.6059227,6.2640567,-2.0042284,-0.9287104,-3.1411927,-13.10586,-4.4819455
0.19710223,4.6126566,6.4163895,-2.0244684,-1.1023484,-3.064578,-12.449849,-4.582502
0.1962146,4.6193943,6.4163895,-2.0244684,-1.1023484,-3.064578,-12.449849,-4.582502
0.19513483,4.626252,6.547417,-2.0436432,-1.281313,-2.8443117,-11.8896055,-4.5537715
0.19403948,4.633113,6.547417,-2.0436432,-1.281313,-2.8443117,-11.8896055,-4.5537715
0.1927464,4.6400847,6.6582046,-2.055361,-1.4634731,-2.6671407,-11.410766,-4.534618
0.19143872,4.647052,6.6582046,-2.055361,-1.4634731,-2.6671407,-11.410766,-4.534618
0.18993592,4.654108,6.7498174,-2.0585568,-1.6445681,-2.552219,-10.82658,-4.4675803
0.1884184,4.661158,6.7498174,-2.0585568,-1.6445681,-2.552219,-10.82658,-4.4675803
0.1867013,4.6682763,6.8233204,-2.0521653,-1.8256631,-2.2936451,-10.199299,-4.3861775
0.18496938,4.6753883,6.8233204,-2.0521653,-1.8256631,-2.2936451,-10.199299,-4.3861775
0.18303806,4.682546,6.878714,-2.0340557,-2.0046275,-1.9488802,-9.461885,-4.381389
0.18109229,4.6896973,6.878714,-2.0340557,-2.0046275,-1.9488802,-9.461885,-4.381389
0.1789453,4.696869,6.9128027,-2.0020978,-2.1814613,-1.4556746,-8.7771435,-4.4340615
0.17678218,4.70404,6.9128027,-2.0020978,-2.1814613,-1.4556746,-8.7771435,-4.4340615
0.17443419,4.7111983,6.9245205,-1.9530957,-2.3508384,-1.1540052,-7.9391727,-4.5537715
0.17207523,4.718342,6.9245205,-1.9530957,-2.3508384,-1.1540052,-7.9391727,-4.5537715
0.16953254,4.725456,6.909607,-1.8881146,-2.5127587,-0.6799533,-6.9383965,-4.783615
0.16697736,4.732562,6.909607,-1.8881146,-2.5127587,-0.6799533,-6.9383965,-4.783615
0.16425295,4.739593,6.860605,-1.8050239,-2.6661568,-0.22984336,-5.803545,-5.0996494
0.16151701,4.746616,6.860605,-1.8050239,-2.6661568,-0.22984336,-5.803545,-5.0996494
0.15862651,4.7535214,6.7721877,-1.7038238,-2.8067715,0.25857377,-4.7165775,-5.3965306
0.15572557,4.760419,6.7721877,-1.7038238,-2.8067715,0.25857377,-4.7165775,-5.3965306
0.15268251,4.7671537,6.6400948,-1.5898405,-2.936734,0.79487497,-3.5098996,-5.5401826
0.14963028,4.773881,6.6400948,-1.5898405,-2.936734,0.79487497,-3.5098996,-5.5401826
0.14645101,4.7803955,6.459,-1.4641393,-3.0571089,1.2162545,-2.2888567,-5.6215854
0.14326382,4.7869034,6.459,-1.4641393,-3.0571089,1.2162545,-2.2888567,-5.6215854
0.13996992,4.79315,6.228903,-1.3224591,-3.16257,1.5035586,-1.1779473,-5.48751
0.13666956,4.7993903,6.228903,-1.3224591,-3.16257,1.5035586,-1.1779473,-5.48751
0.13328391,4.8053246,5.9487386,-1.1669306,-3.247791,1.8866309,-0.19632454,-5.2385135
0.12989318,4.8112526,5.9487386,-1.1669306,-3.247791,1.8866309,-0.19632454,-5.2385135
0.12644339,4.816832,5.6195717,-0.9986187,-3.3149028,2.1404164,0.8475474,-4.8745947
0.12298976,4.822407,5.6195717,-0.9986187,-3.3149028,2.1404164,0.8475474,-4.8745947
0.119503774,4.8275914,5.2414026,-0.8228501,-3.3628397,2.3319526,1.7381904,-4.5202527
0.116015285,4.832773,5.2414026,-0.8228501,-3.3628397,2.3319526,1.7381904,-4.5202527
0.11251769,4.8375273,4.815297,-0.6374941,-3.388406,2.7581203,2.4660277,-3.9695864
0.10901865,4.8422785,4.815297,-0.6374941,-3.388406,2.7581203,2.4660277,-3.9695864
0.10554522,4.8465595,4.34445,-0.44787702,-3.3894713,2.944868,3.1555579,-3.3854012
0.102071464,4.8508396,4.34445,-0.44787702,-3.3894713,2.944868,3.1555579,-3.3854012
0.09865571,4.854605,3.8341885,-0.25293362,-3.3660355,2.8682537,3.8115692,-2.9400797
0.09524054,4.858371,3.8341885,-0.25293362,-3.3660355,2.8682537,3.8115692,-2.9400797
0.09190116,4.8615866,3.2866426,-0.064381815,-3.3191638,3.083732,4.1946416,-2.384625
0.08856283,4.8648033,3.2866426,-0.064381815,-3.3191638,3.083732,4.1946416,-2.384625
0.08532064,4.867439,2.7071385,0.116713144,-3.2531173,3.2369606,4.525041,-1.8435353
0.08207965,4.8700757,2.7071385,0.116713144,-3.2531173,3.2369606,4.525041,-1.8435353
0.07895759,4.872106,2.1031337,0.29141653,-3.1636353,3.3135753,4.711789,-1.3790601
0.07583687,4.8741384,2.1031337,0.29141653,-3.1636353,3.3135753,4.711789,-1.3790601
0.072857015,4.875551,1.4820845,0.45759776,-3.050717,3.2800562,4.6255975,-0.6655881
0.069878295,4.876967,1.4820845,0.45759776,-3.050717,3.2800562,4.6255975,-0.6655881
0.06706016,4.877753,0.84931743,0.61206114,-2.916494,3.1890767,4.4819455,-0.023942016
0.06423704,4.878543,0.84931743,0.61206114,-2.916494,3.1890767,4.4819455,-0.023942016
0.061598644,4.8787003,0.2144198,0.75374126,-2.7630959,3.0693667,4.1611223,0.641646
0.058960307,4.8788614,0.2144198,0.75374126,-2.7630959,3.0693667,4.1611223,0.641646
0.05650944,4.878401,-0.4119557,0.87837726,-2.5915883,2.9735985,3.7828386,1.1827357
0.054057878,4.8779435,-0.4119557,0.87837726,-2.5915883,2.9735985,3.7828386,1.1827357
0.051807582,4.8768773,-1.0244827,0.99236053,-2.401971,2.8921957,3.2130187,1.6041151
0.049557872,4.8758154,-1.0244827,0.99236053,-2.401971,2.8921957,3.2130187,1.6041151
0.04751987,4.8741736,-1.6146393,1.094626,-2.2017014,2.801216,2.2457612,2.1691468
0.04547749,4.8725333,-1.6146393,1.094626,-2.2017014,2.801216,2.2457612,2.1691468
0.043652087,4.870338,-2.1781642,1.1841081,-1.9897138,2.6048915,1.1013328,2.695871
0.041825313,4.8681474,-2.1781642,1.1841081,-1.9897138,2.6048915,1.1013328,2.695871
0.04022538,4.8654346,-2.7129269,1.2565461,-1.7681388,2.3223755,0,2.954445
0.038619794,4.862721,-2.7129269,1.2565461,-1.7681388,2.3223755,0,2.954445
0.03724205,4.859512,-3.2178624,1.3066136,-1.5401722,2.0254946,-1.0486604,3.0693667
0.03585952,4.856305,-3.2178624,1.3066136,-1.5401722,2.0254946,-1.0486604,3.0693667
0.034712095,4.852628,-3.696166,1.3321799,-1.3015529,1.6950948,-2.0207062,3.0358477
0.033559393,4.8489532,-3.696166,1.3321799,-1.3015529,1.6950948,-2.0207062,3.0358477
0.032648645,4.8448315,-4.1489034,1.3385714,-1.0512158,1.4748282,-2.6671407,2.8538885
0.031732198,4.840711,-4.1489034,1.3385714,-1.0512158,1.4748282,-2.6671407,2.8538885
0.031064864,4.8361707,-4.5750093,1.3311146,-0.79129124,1.2880806,-3.6296098,2.743755
0.030391602,4.831631,-4.5750093,1.3311146,-0.79129124,1.2880806,-3.6296098,2.743755
0.02997549,4.826698,-4.972353,1.320462,-0.51858354,1.1875241,-4.209007,2.4468741
0.02955324,4.821764,-4.972353,1.320462,-0.51858354,1.1875241,-4.209007,2.4468741
0.029390905,4.8164616,-5.3409343,1.3066136,-0.23522322,1.1971009,-4.807557,2.0733786
0.02922252,4.811159,-5.3409343,1.3066136,-0.23522322,1.1971009,-4.807557,2.0733786
0.029322736,4.805518,-5.678623,1.2927651,0.052398186,1.1061212,-5.45878,1.8100165
0.029417055,4.799877,-5.678623,1.2927651,0.052398186,1.1061212,-5.45878,1.8100165
0.029755281,4.7939143,-5.984354,1.2810472,0.33469325,1.4269443,-6.143522,1.4508862
0.03008795,4.7879524,-5.984354,1.2810472,0.33469325,1.4269443,-6.143522,1.4508862
0.030671142,4.781609,-6.257062,1.2735903,0.6063357,1.733402,-6.766014,1.13964
0.031248212,4.775268,-6.257062,1.2735903,0.6063357,1.733402,-6.766014,1.13964
0.032049965,4.7688427,-6.4946156,1.2778513,0.865195,1.7046716,-7.3310456,0.91937345
0.032845598,4.7624187,-6.4946156,1.2778513,0.865195,1.7046716,-7.3310456,0.91937345
0.033874284,4.755689,-6.697016,1.2916999,1.10701,1.7142484,-7.785944,0.51235914
0.034894474,4.748968,-6.697016,1.2916999,1.10701,1.7142484,-7.785944,0.51235914
0.036130723,4.7420425,-6.8674583,1.3151356,1.332846,1.5275006,-8.09719,0.12928689
0.03735796,4.73512,-6.8674583,1.3151356,1.332846,1.5275006,-8.09719,0.12928689
0.03879062,4.728034,-7.0048776,1.3417673,1.5427032,1.4030021,-8.437167,-0.20111294
0.040209614,4.7209644,-7.0048776,1.3417673,1.5427032,1.4030021,-8.437167,-0.20111294
0.04183295,4.713734,-7.1135345,1.3715947,1.7408423,1.2449849,-8.719683,-0.51235914
0.04344049,4.706519,-7.1135345,1.3715947,1.7408423,1.2449849,-8.719683,-0.51235914
0.04523128,4.6992006,-7.1912985,1.3982263,1.9219373,1.1587936,-9.040505,-0.79966336
0.047004715,4.6918974,-7.1912985,1.3982263,1.9219373,1.1587936,-9.040505,-0.79966336
0.04893539,4.6845245,-7.241366,1.4216621,2.081727,1.0295067,-9.32781,-0.9624691
0.05085127,4.6771526,-7.241366,1.4216621,2.081727,1.0295067,-9.32781,-0.9624691
0.05290363,4.6697316,-7.2669325,1.4461632,2.223407,0.9624691,-9.595961,-1.0773908
0.05493438,4.6623335,-7.2669325,1.4461632,2.223407,0.9624691,-9.595961,-1.0773908
0.057080872,4.654924,-7.269063,1.4685338,2.3523042,0.80924016,-9.844957,-1.0582372
0.05921136,4.6475153,-7.269063,1.4685338,2.3523042,0.80924016,-9.844957,-1.0582372
0.061433807,4.6401463,-7.247758,1.4909043,2.4652221,0.59376204,-10.223241,-1.0773908
0.06365084,4.6327424,-7.247758,1.4909043,2.4652221,0.59376204,-10.223241,-1.0773908
0.065930225,4.625429,-7.204082,1.510079,2.5579002,0.51714754,-10.5680065,-0.94810385
0.06820338,4.6180983,-7.204082,1.510079,2.5579002,0.51714754,-10.5680065,-0.94810385
0.07054816,4.610857,-7.1391006,1.5271233,2.6367297,0.44532153,-10.960655,-0.78050977
0.072881535,4.603624,-7.1391006,1.5271233,2.6367297,0.44532153,-10.960655,-0.78050977
0.07527281,4.5964766,-7.0581408,1.5431023,2.701711,0.45489833,-11.429919,-0.7469909
0.07765514,4.5893273,-7.0581408,1.5431023,2.701711,0.45489833,-11.429919,-0.7469909
0.080085956,4.5822825,-6.959071,1.5558854,2.7517784,0.320823,-11.707646,-0.6799533
0.08250715,4.5752344,-6.959071,1.5558854,2.7517784,0.320823,-11.707646,-0.6799533
0.084957846,4.5683007,-6.8440223,1.562277,2.7848015,0.47405192,-12.349293,-0.45968673
0.087397665,4.561362,-6.8440223,1.562277,2.7848015,0.47405192,-12.349293,-0.45968673
0.089865364,4.554554,-6.716191,1.5686686,2.8082373,-0.12449849,-12.26789,-0.6464345
0.09232151,4.54774,-6.716191,1.5686686,2.8082373,-0.12449849,-12.26789,-0.6464345
0.09477614,4.5410776,-6.5734453,1.5654728,2.81889,-0.110133275,-12.938266,-0.5267244
0.09722833,4.534382,-6.5734453,1.5654728,2.81889,-0.110133275,-12.938266,-0.5267244
0.0996627,4.5278497,-6.418982,1.5452328,2.8124983,0.11492168,-13.910312,-0.12928689
0.10208228,4.521317,-6.418982,1.5452328,2.8124983,0.11492168,-13.910312,-0.12928689
0.10450746,4.514951,-6.242148,1.521797,2.7975848,-0.6895301,-13.8720045,-0.33997664
0.10691699,4.5085845,-6.242148,1.521797,2.7975848,-0.6895301,-13.8720045,-0.33997664
0.10934135,4.5022864,-6.0461392,1.4887737,2.774149,-0.49320555,-14.044387,-0.08140286
0.11166071,4.4962225,-6.0461392,1.4887737,2.774149,-0.49320555,-14.044387,-0.08140286
0.11398318,4.4902406,-5.8362823,1.4429674,2.738995,0.36870706,-18.6221,1.2162545
0.11628693,4.48427,-5.8362823,1.4429674,2.738995,0.36870706,-18.6221,1.2162545
0.11871638,4.4785147,-5.5667706,1.3929,2.710233,-4.630386,-11.391612,-1.0630256
0.12112773,4.4727664,-5.5667706,1.3929,2.710233,-4.630386,-11.391612,-1.0630256
0.123323165,4.4673204,-5.299389,1.284243,2.6484478,3.8833952,-16.903065,2.7341783
0.12551539,4.461852,-5.299389,1.284243,2.6484478,3.8833952,-16.903065,2.7341783
0.12775633,4.4566402,-5.065031,1.216066,2.6037066,-4.8602295,-20.939688,3.2561142
0.1299202,4.45158,-5.065031,1.216066,2.6037066,-4.8602295,-20.939688,3.2561142
0.13213147,4.4466915,-4.743321,1.1510849,2.5802708,-4.1371803,-21.035456,1.6663644
0.13440573,4.4416356,-4.743321,1.1510849,2.5802708,-4.1371803,-21.035456,1.6663644
0.13651372,4.437199,-4.320411,0.9465542,2.471614,-1.5562311,-20.997149,2.0638018
0.13860601,4.4327755,-4.320411,0.9465542,2.471614,-1.5562311,-20.997149,2.0638018
0.14063461,4.428813,-3.8666084,0.75587183,2.3427167,-2.1260512,-21.868639,2.1499932
0.14492327,4.4208217,-3.3829782,0.5928863,2.2127545,-2.920926,-20.87744,1.2689269
0.14492327,4.4208217,-3.3829782,0.5928863,2.2127545,-2.920926,-20.87744,1.2689269
0.14664513,4.4177547,-3.3829782,0.5928863,2.2127545,-2.920926,-20.87744,1.2689269
0.14664513,4.4177547,-3.3829782,0.5928863,2.2127545,-2.920926,-20.87744,1.2689269
0.1501732,4.4120603,-2.8833692,0.4000735,2.0444427,-1.4891934,-19.905394,1.2641385
0.15200546,4.4094286,-2.3997393,0.2200438,1.8537604,-1.4508862,-19.82399,1.5562311
0.15371552,4.406966,-2.3997393,0.2200438,1.8537604,-1.4508862,-19.82399,1.5562311
0.15371552,4.406966,-2.3997393,0.2200438,1.8537604,-1.4508862,-19.82399,1.5562311
0.15669326,4.403248,-1.9288923,0.0762331,1.6598823,-1.685518,-20.216639,1.4173675
0.15808922,4.401815,-1.4601759,-0.05692496,1.4617431,-1.757344,-20.06341,1.0534488
0.15948564,4.4003797,-1.4601759,-0.05692496,1.4617431,-1.757344,-20.06341,1.0534488
0.16072509,4.399447,-0.9903943,-0.19008303,1.2582775,-1.7908629,-19.938911,0.58897364
0.16196163,4.3985157,-0.9903943,-0.19008303,1.2582775,-1.7908629,-19.938911,0.58897364
0.16305254,4.3980846,-0.51848215,-0.31898,1.0537468,-2.1260512,-19.809626,-0.05267244
0.16413662,4.3976555,-0.51848215,-0.31898,1.0537468,-2.1260512,-19.809626,-0.05267244
0.16506694,4.3977284,-0.048700526,-0.4542686,0.84815073,-2.1883004,-19.412188,-0.81402856
0.16599517,4.397802,-0.048700526,-0.4542686,0.84815073,-2.1883004,-19.412188,-0.81402856
0.16676833,4.3983746,0.41682005,-0.5948835,0.6382936,-2.207454,-18.981232,-1.3790601
0.16754459,4.398951,0.41682005,-0.5948835,0.6382936,-2.207454,-18.981232,-1.3790601
0.168158,4.400012,0.8738185,-0.73123735,0.43482813,-2.1308396,-18.650831,-2.0207062
0.16877104,4.4010744,0.8738185,-0.73123735,0.43482813,-2.1308396,-18.650831,-2.0207062
0.16923068,4.4026213,1.3244253,-0.85800385,0.23881947,-2.0446482,-18.29649,-2.4756045
0.16968878,4.404168,1.3244253,-0.85800385,0.23881947,-2.0446482,-18.29649,-2.4756045
0.16999105,4.4061832,1.7643796,-0.9709219,0.052398186,-1.9393034,-17.951725,-3.040636
0.17029077,4.408198,1.7643796,-0.9709219,0.052398186,-1.9393034,-17.951725,-3.040636
0.17044385,4.4106674,2.1958117,-1.0646651,-0.11804412,-2.0398598,-17.693151,-3.643975
0.17059289,4.4131346,2.1958117,-1.0646651,-0.11804412,-2.0398598,-17.693151,-3.643975
0.17059119,4.416046,2.6208522,-1.1456252,-0.27357274,-2.0685902,-17.343597,-4.2185836
0.17058328,4.418953,2.6208522,-1.1456252,-0.27357274,-2.0685902,-17.343597,-4.2185836
0.1704237,4.4222746,3.0363054,-1.2201937,-0.41738343,-2.1787236,-16.850391,-4.6112323
0.17025457,4.4255905,3.0363054,-1.2201937,-0.41738343,-2.1787236,-16.850391,-4.6112323
0.16995344,4.4292574,3.4400406,-1.2905012,-0.5473457,-2.135628,-16.43859,-4.9224787
0.16964987,4.432913,3.4400406,-1.2905012,-0.5473457,-2.135628,-16.43859,-4.9224787
0.1692846,4.4369264,3.8331232,-1.3554823,-0.6645248,-2.1021092,-15.907076,-5.142745
0.16891953,4.440935,3.8331232,-1.3554823,-0.6645248,-2.1021092,-15.907076,-5.142745
0.16850397,4.44532,4.214488,-1.4151372,-0.769986,-2.2505496,-15.514427,-5.386954
0.16808504,4.4497027,4.214488,-1.4151372,-0.769986,-2.2505496,-15.514427,-5.386954
0.16759446,4.454463,4.5830693,-1.4758573,-0.8679903,-2.2218192,-14.939818,-5.544971
0.16709821,4.459222,4.5830693,-1.4758573,-0.8679903,-2.2218192,-14.939818,-5.544971
0.16652511,4.4643464,4.9388676,-1.5333815,-0.9574725,-2.0973208,-14.398729,-5.722142
0.16594467,4.4694695,4.9388676,-1.5333815,-0.9574725,-2.0973208,-14.398729,-5.722142
0.16528888,4.474942,5.2797523,-1.5834489,-1.0384326,-1.9440918,-13.867216,-5.841852
0.16448058,4.481589,5.2797523,-1.5834489,-1.0384326,-1.9440918,-13.867216,-5.841852
0.16389516,4.4861975,5.6067886,-1.62819,-1.1172622,-1.9153614,-13.388376,-5.961562
0.16312124,4.492215,5.6067886,-1.62819,-1.1172622,-1.9153614,-13.388376,-5.961562
0.16233253,4.498122,5.9135847,-1.6676048,-1.1918308,-1.9440918,-12.909535,-5.923255
0.16149145,4.5043387,5.9135847,-1.6676048,-1.1918308,-1.9440918,-12.909535,-5.923255
0.16061763,4.510595,6.200141,-1.6995628,-1.2621381,-2.0590134,-12.540829,-5.93762
0.15971632,4.5169635,6.200141,-1.6995628,-1.2621381,-2.0590134,-12.540829,-5.93762
0.15874282,4.523639,6.4643264,-1.7336512,-1.3345761,-2.3415294,-12.320562,-5.9424086
0.15775572,4.5303183,6.4643264,-1.7336512,-1.3345761,-2.3415294,-12.320562,-5.9424086
0.15670228,4.5372396,6.708272,-1.7656091,-1.4027531,-2.5234885,-12.076353,-5.7604494
0.1556396,4.5441294,6.708272,-1.7656091,-1.4027531,-2.5234885,-12.076353,-5.7604494
0.15449989,4.551255,6.9277163,-1.7986324,-1.4656037,-2.3080103,-11.760319,-5.7029886
0.15334497,4.5583844,6.9277163,-1.7986324,-1.4656037,-2.3080103,-11.760319,-5.7029886
0.152116,4.565707,7.119464,-1.8284597,-1.5263238,-2.1068976,-11.48738,-5.631162
0.15087263,4.573026,7.119464,-1.8284597,-1.5263238,-2.1068976,-11.48738,-5.631162
0.14955431,4.5805144,7.281384,-1.8518956,-1.5849133,-1.910573,-11.190498,-5.602432
0.14822261,4.5879908,7.281384,-1.8518956,-1.5849133,-1.910573,-11.190498,-5.602432
0.14681317,4.595598,7.4113464,-1.8721356,-1.6445681,-1.661576,-11.075577,-5.2241483
0.14538594,4.603215,7.4113464,-1.8721356,-1.6445681,-1.661576,-11.075577,-5.2241483
0.14387687,4.610911,7.5125465,-1.8913103,-1.7074187,-1.2641385,-10.831368,-4.7979803
0.14235286,4.618602,7.5125465,-1.8913103,-1.7074187,-1.2641385,-10.831368,-4.7979803
0.14075243,4.6263614,7.584985,-1.9040935,-1.7745304,-1.3311762,-10.333375,-4.8841715
0.13913357,4.6341314,7.584985,-1.9040935,-1.7745304,-1.3311762,-10.333375,-4.8841715
0.1374428,4.641929,7.6265297,-1.9030282,-1.8384463,-1.4700398,-9.80665,-5.1571107
0.13573843,4.6497135,7.6265297,-1.9030282,-1.8384463,-1.4700398,-9.80665,-5.1571107
0.1339565,4.657512,7.6329217,-1.8881146,-1.8970357,-1.4269443,-9.361329,-5.2241483
0.1321632,4.6652894,7.6329217,-1.8881146,-1.8970357,-1.4269443,-9.361329,-5.2241483
0.13029361,4.67304,7.6009636,-1.8593525,-1.9471031,-1.067814,-8.767567,-5.4061074
0.12849072,4.680453,7.6009636,-1.8593525,-1.9471031,-1.067814,-8.767567,-5.4061074
0.12659487,4.6881843,7.6009636,-1.8593525,-1.9471031,-1.067814,-8.767567,-5.4061074
0.12454372,4.696169,7.5359826,-1.821003,-1.9939748,-0.56982,-7.9966335,-5.497087
0.12251072,4.703702,7.4358478,-1.7698702,-2.0387158,-0.033518825,-7.1826053,-5.530606
0.12046282,4.711238,7.4358478,-1.7698702,-2.0387158,-0.033518825,-7.1826053,-5.530606
0.11836369,4.718579,7.300559,-1.704889,-2.0823917,0.45010993,-6.3350577,-5.645528
0.116225004,4.7260103,7.300559,-1.704889,-2.0823917,0.45010993,-6.3350577,-5.645528
0.11404056,4.733203,7.1301165,-1.623929,-2.1281981,0.7326257,-5.497087,-5.583278
0.11184742,4.740383,7.1301165,-1.623929,-2.1281981,0.7326257,-5.497087,-5.583278
0.10959867,4.747345,6.92239,-1.5301857,-2.1708088,0.92416185,-4.745308,-5.48751
0.10734024,4.754302,6.92239,-1.5301857,-2.1708088,0.92416185,-4.745308,-5.48751
0.10503548,4.7610016,6.6827054,-1.4257898,-2.2102234,1.0151415,-4.1132383,-5.2720323
0.102722414,4.767696,6.6827054,-1.4257898,-2.2102234,1.0151415,-4.1132383,-5.2720323
0.100369796,4.774106,6.415324,-1.3107412,-2.2421815,1.2354081,-3.4332852,-4.9320555
0.09801011,4.7805123,6.415324,-1.3107412,-2.2421815,1.2354081,-3.4332852,-4.9320555
0.09561754,4.786609,6.1223764,-1.1871705,-2.2666826,1.5370775,-2.801216,-4.462792
0.09321913,4.7927027,6.1223764,-1.1871705,-2.2666826,1.5370775,-2.801216,-4.462792
0.09080244,4.798463,5.804928,-1.0572083,-2.2815962,1.733402,-2.183512,-4.0892963
0.088381045,4.8042197,5.804928,-1.0572083,-2.2815962,1.733402,-2.183512,-4.0892963
0.08595522,4.8096237,5.467239,-0.92085445,-2.2879877,1.8579005,-1.5370775,-3.8307228
0.08352581,4.815025,5.467239,-0.92085445,-2.2879877,1.8579005,-1.5370775,-3.8307228
0.08110648,4.820051,5.105049,-0.77704376,-2.2826614,1.982399,-1.115698,-3.572149
0.07868469,4.8250756,5.105049,-0.77704376,-2.2826614,1.982399,-1.115698,-3.572149
0.07628857,4.829708,4.7236843,-0.62790674,-2.2656174,2.0590134,-0.58897364,-3.3087866
0.073890805,4.834339,4.7236843,-0.62790674,-2.2656174,2.0590134,-0.58897364,-3.3087866
0.071530305,4.8385677,4.323145,-0.47450864,-2.2336593,2.3127987,-0.2681506,-2.920926
0.06916897,4.842795,4.323145,-0.47450864,-2.2336593,2.3127987,-0.2681506,-2.920926
0.06687201,4.8466005,3.9055612,-0.31578422,-2.1867876,2.27928,0.16280572,-2.6240451
0.06457479,4.850406,3.9055612,-0.31578422,-2.1867876,2.27928,0.16280572,-2.6240451
0.062350668,4.853785,3.474129,-0.15812509,-2.1303287,2.3558946,0.45010993,-2.2266076
0.0601268,4.857164,3.474129,-0.15812509,-2.1303287,2.3558946,0.45010993,-2.2266076
0.05798756,4.860118,3.0277832,-0.005792269,-2.0642822,2.6910827,0.79966336,-1.6711528
0.0558489,4.8630724,3.0277832,-0.005792269,-2.0642822,2.6910827,0.79966336,-1.6711528
0.053813286,4.8655863,2.57185,0.14441001,-1.9886485,2.834735,1.1109096,-1.1971009
0.051780563,4.8680983,2.57185,0.14441001,-1.9886485,2.834735,1.1109096,-1.1971009
0.049860086,4.870158,2.1010032,0.29674283,-1.9023621,2.8203697,1.2593501,-0.63206923
0.04794254,4.8722167,2.1010032,0.29674283,-1.9023621,2.8203697,1.2593501,-0.63206923
0.04615652,4.873804,1.6195036,0.44374934,-1.8043578,2.657564,1.3551182,-0.10055647
0.04436433,4.875399,1.6195036,0.44374934,-1.8043578,2.657564,1.3551182,-0.10055647
0.04271907,4.8765063,1.1284167,0.5790379,-1.6946355,2.5953147,1.3455414,0.4405331
0.04107301,4.8776164,1.1284167,0.5790379,-1.6946355,2.5953147,1.3455414,0.4405331
0.039568402,4.8782444,0.634134,0.7047391,-1.5806522,2.4372973,1.292869,1.0486604
0.0380628,4.8788743,0.634134,0.7047391,-1.5806522,2.4372973,1.292869,1.0486604
0.03670884,4.879017,0.13985129,0.8176572,-1.454951,2.3894134,1.1923125,1.6376339
0.03536176,4.879161,0.13985129,0.8176572,-1.454951,2.3894134,1.1923125,1.6376339
0.034165904,4.878816,-0.35549667,0.91992253,-1.317532,2.3511062,0.92416185,2.1883004
0.032961268,4.8784704,-0.35549667,0.91992253,-1.317532,2.3511062,0.92416185,2.1883004
0.031925682,4.877643,-0.8444531,1.0136658,-1.1726559,2.2218192,0.58418524,2.72939
0.030891253,4.8768187,-0.8444531,1.0136658,-1.1726559,2.2218192,0.58418524,2.72939
0.030021116,4.875514,-1.3280832,1.094626,-1.0213884,2.111686,0.19632454,3.217807
0.029149393,4.874211,-1.3280832,1.094626,-1.0213884,2.111686,0.19632454,3.217807
0.028447133,4.8724346,-1.8053216,1.1628028,-0.8647945,1.8004397,-0.18195933,3.5338416
0.02774268,4.8706594,-1.8053216,1.1628028,-0.8647945,1.8004397,-0.18195933,3.5338416
0.027197754,4.8684235,-2.2676463,1.2171314,-0.7060701,2.0973208,-0.7469909,3.98874
0.026650064,4.8661885,-2.2676463,1.2171314,-0.7060701,2.0973208,-0.7469909,3.98874
0.026274674,4.8635073,-2.7193186,1.2608072,-0.5409541,1.6998832,-1.4508862,4.247314
0.025895797,4.860826,-2.7193186,1.2608072,-0.5409541,1.6998832,-1.4508862,4.247314
0.025689056,4.8577147,-3.151816,1.2895693,-0.3705118,1.4221559,-1.8100165,4.1802764
0.025478374,4.854604,-3.151816,1.2895693,-0.3705118,1.4221559,-1.8100165,4.1802764
0.025439804,4.851079,-3.5683343,1.3023524,-0.19793896,1.1492168,-2.1499932,4.132392
0.025396675,4.8475547,-3.5683343,1.3023524,-0.19793896,1.1492168,-2.1499932,4.132392
0.025518667,4.8436327,-3.9678085,1.3002219,-0.024300855,1.13964,-2.6431987,4.0078936
0.025635788,4.8397107,-3.9678085,1.3002219,-0.024300855,1.13964,-2.6431987,4.0078936
0.025917294,4.83541,-4.348108,1.284243,0.15253304,1.2162545,-3.1555579,3.892972
0.02619351,4.8311086,-4.348108,1.284243,0.15253304,1.2162545,-3.1555579,3.892972
0.026629496,4.8264484,-4.708167,1.2618724,0.3272364,1.3311762,-3.7924154,3.739743
0.027060093,4.821788,-4.708167,1.2618724,0.3272364,1.3311762,-3.7924154,3.739743
0.027648192,4.816795,-5.041595,1.2384366,0.49767873,1.3359646,-4.122815,3.5051112
0.028230805,4.811801,-5.041595,1.2384366,0.49767873,1.3359646,-4.122815,3.5051112
0.02895696,4.806505,-5.347326,1.2128702,0.6606642,1.5801731,-4.6926355,3.3375173
0.029678905,4.801198,-5.347326,1.2128702,0.6606642,1.5801731,-4.6926355,3.3375173
0.030535383,4.7956185,-5.6242948,1.191565,0.8119317,1.7525556,-5.257667,3.2082303
0.03138613,4.790037,-5.6242948,1.191565,0.8119317,1.7525556,-5.257667,3.2082303
0.03236678,4.7842093,-5.8693056,1.1745207,0.95680773,1.8100165,-5.7987566,2.96881
0.03334168,4.7783804,-5.8693056,1.1745207,0.95680773,1.8100165,-5.7987566,2.96881
0.03447844,4.7721457,-6.0823584,1.1628028,1.0920963,1.6232687,-6.3589997,2.7629087
0.03555651,4.7661996,-6.0823584,1.1628028,1.0920963,1.6232687,-6.3589997,2.7629087
0.03676061,4.7600207,-6.261323,1.1521502,1.2188628,1.4939818,-6.9862804,2.5570073
0.037960067,4.7538347,-6.261323,1.1521502,1.2188628,1.4939818,-6.9862804,2.5570073
0.0392827,4.747468,-6.4040685,1.1425629,1.3413682,1.316811,-7.513005,2.408567
0.040575687,4.741215,-6.4040685,1.1425629,1.3413682,1.316811,-7.513005,2.408567
0.043050222,4.729953,-6.5180516,1.1297797,1.4617431,1.1923125,-8.020576,2.1739352
0.043539748,4.7277155,-6.5180516,1.1297797,1.4617431,1.1923125,-8.020576,2.1739352
0.045015328,4.7213974,-6.6011424,1.1138006,1.5810527,0.9959879,-8.508993,1.982399
0.045015328,4.7213974,-6.6011424,1.1138006,1.5810527,0.9959879,-8.508993,1.982399
0.04809505,4.7082386,-6.6501446,1.0892996,1.6950359,0.7086837,-9.040505,1.8243817
0.04977682,4.701428,-6.6501446,1.0892996,1.6950359,0.7086837,-9.040505,1.8243817
0.051697917,4.694076,-6.6714497,1.0594722,1.8047582,0.6512229,-9.394848,1.6759412
0.053161062,4.688456,-6.6714497,1.0594722,1.8047582,0.6512229,-9.394848,1.6759412
0.054789998,4.6821756,-6.6714497,1.0594722,1.8047582,0.6512229,-9.394848,1.6759412
0.056685876,4.675255,-6.6661234,1.0200574,1.9091542,0.78529817,-10.065224,1.7717092
0.058498904,4.66861,-6.6661234,1.0200574,1.9091542,0.78529817,-10.065224,1.7717092
0.0604171,4.6619906,-6.636296,0.9785121,2.009289,0.521936,-10.572795,1.757344
0.062319178,4.6554017,-6.636296,0.9785121,2.009289,0.521936,-10.572795,1.757344
0.06433353,4.648843,-6.575576,0.9359015,2.106228,0.18195933,-11.286267,1.6998832
0.06634907,4.642254,-6.575576,0.9359015,2.106228,0.18195933,-11.286267,1.6998832
0.06843285,4.635787,-6.4860935,0.88370353,2.1925144,0.29209262,-11.712435,1.6567876
0.07050813,4.629323,-6.4860935,0.88370353,2.1925144,0.29209262,-11.712435,1.6567876
0.07266248,4.622967,-6.3721104,0.82617927,2.2724092,0.32561144,-12.172121,1.6950948
0.07480424,4.616626,-6.3721104,0.82617927,2.2724092,0.32561144,-12.172121,1.6950948
0.07703892,4.610406,-6.2357564,0.7707855,2.3480432,-0.14844051,-12.593501,1.5466543
0.07926724,4.604182,-6.2357564,0.7707855,2.3480432,-0.14844051,-12.593501,1.5466543
0.08156084,4.5981145,-6.080228,0.7047391,2.4140894,-0.15801731,-13.029245,1.4460979
0.08384847,4.5920444,-6.080228,0.7047391,2.4140894,-0.15801731,-13.029245,1.4460979
0.08619522,4.5861487,-5.9076552,0.6280401,2.4694831,-0.19632454,-13.680469,1.5035586
0.088536315,4.5802493,-5.9076552,0.6280401,2.4694831,-0.19632454,-13.680469,1.5035586
0.09093462,4.5745454,-5.7159076,0.54814523,2.5206158,-0.2825158,-14.542381,1.541866
0.09332761,4.5688376,-5.7159076,0.54814523,2.5206158,-0.2825158,-14.542381,1.541866
0.0958211,4.5632343,-5.4996586,0.46931568,2.5642917,-0.37349546,-15.040375,1.3072342
0.09820961,4.5578527,-5.4996586,0.46931568,2.5642917,-0.37349546,-15.040375,1.3072342
0.10068721,4.55261,-5.2610397,0.3808987,2.5983803,-0.39264908,-15.907076,1.388637
0.10316287,4.547358,-5.2610397,0.3808987,2.5983803,-0.39264908,-15.907076,1.388637
0.10567359,4.5423765,-4.996854,0.289286,2.6228814,-0.45010993,-16.476896,1.3024458
0.10818046,4.5373917,-4.996854,0.289286,2.6228814,-0.45010993,-16.476896,1.3024458
0.11072223,4.5327034,-4.707102,0.19767325,2.6399255,-0.7757214,-17.051504,1.2737153
0.11326047,4.5280123,-4.707102,0.19767325,2.6399255,-0.7757214,-17.051504,1.2737153
0.115831695,4.5236435,-4.392849,0.104995236,2.6527088,-1.1683705,-17.611748,1.1779473
0.118399695,4.519272,-4.392849,0.104995236,2.6527088,-1.1683705,-17.611748,1.1779473
0.12099331,4.5152454,-4.0562253,0.003795111,2.6591003,-1.3742718,-18.334797,1.1683705
0.123584166,4.5112166,-4.0562253,0.003795111,2.6591003,-1.3742718,-18.334797,1.1683705
0.126182,4.507561,-3.691905,-0.106992394,2.653774,-0.8858546,-21.327549,2.1499932
0.12877797,4.5039034,-3.691905,-0.106992394,2.653774,-0.8858546,-21.327549,2.1499932
0.13144436,4.5006776,-3.2711256,-0.22204095,2.6388602,-3.892972,-17.415422,0.19153613
0.13410556,4.497453,-3.2711256,-0.22204095,2.6388602,-3.892972,-17.415422,0.19153613
0.13666092,4.494655,-2.8471503,-0.35946006,2.589858,2.6144683,-21.768082,3.265691
0.13921314,4.4918585,-2.8471503,-0.35946006,2.589858,2.6144683,-21.768082,3.265691
0.14185049,4.4894915,-2.415718,-0.42763698,2.5664222,-4.548983,-23.898922,2.3702598
0.14445007,4.4871564,-2.415718,-0.42763698,2.5664222,-4.548983,-23.898922,2.3702598
0.14702022,4.485328,-1.9139786,-0.53096765,2.5206158,-2.8491,-23.233334,1.3982137
0.14958693,4.4835014,-1.9139786,-0.53096765,2.5206158,-2.8491,-23.233334,1.3982137
0.15209042,4.482247,-1.3664327,-0.69288784,2.4290032,-2.1260512,-23.558945,1.4413095
0.15459839,4.4809895,-1.3664327,-0.69288784,2.4290032,-2.1260512,-23.558945,1.4413095
0.15704814,4.480319,-0.8061035,-0.81858903,2.3320642,-2.954445,-21.815966,0.48362875
0.15946043,4.479659,-0.8061035,-0.81858903,2.3320642,-2.954445,-21.815966,0.48362875
0.16180944,4.479566,-0.25110078,-0.94535553,2.2180808,-1.7046716,-21.040245,0.32561144
0.1641906,4.479473,-0.25110078,-0.94535553,2.2180808,-1.7046716,-21.040245,0.32561144
0.1664524,4.4799333,0.2740746,-1.0604041,2.0870533,-2.6001031,-20.57098,0.05746084
0.16871531,4.4803953,0.2740746,-1.0604041,2.0870533,-2.6001031,-20.57098,0.05746084
0.17084728,4.481375,0.77048784,-1.1552126,1.9443078,-2.1978772,-20.312407,-0.1388637
0.17297965,4.4823575,0.77048784,-1.1552126,1.9443078,-2.1978772,-20.312407,-0.1388637
0.17497566,4.483836,1.2445306,-1.2383033,1.7909098,-2.0638018,-20.005949,-0.4213795
0.17696936,4.4853163,1.2445306,-1.2383033,1.7909098,-2.0638018,-20.005949,-0.4213795
0.17882946,4.4872694,1.6962026,-1.3000885,1.638577,-2.4133554,-19.349937,-1.1204864
0.18068652,4.4892244,1.6962026,-1.3000885,1.638577,-2.4133554,-19.349937,-1.1204864
0.18239471,4.491627,2.124439,-1.3544171,1.477722,-2.5234885,-18.674774,-1.6280571
0.18409874,4.494033,2.124439,-1.3544171,1.477722,-2.5234885,-18.674774,-1.6280571
0.18563183,4.4968586,2.527109,-1.4098108,1.3051492,-2.4229321,-18.004396,-2.0685902
0.18715945,4.4996862,2.527109,-1.4098108,1.3051492,-2.4229321,-18.004396,-2.0685902
0.18849257,4.502901,2.902082,-1.4641393,1.1251194,-2.2026656,-17.492037,-2.4899697
0.18981816,4.506116,2.902082,-1.4641393,1.1251194,-2.2026656,-17.492037,-2.4899697
0.19093753,4.509674,3.248293,-1.5099456,0.941894,-1.8195933,-16.807297,-2.7102363
0.19204867,4.5132313,3.248293,-1.5099456,0.941894,-1.8195933,-16.807297,-2.7102363
0.19297537,4.517111,3.5657418,-1.5397731,0.76292956,-2.2026656,-16.395493,-2.9113493
0.19389199,4.5209846,3.5657418,-1.5397731,0.76292956,-2.2026656,-16.395493,-2.9113493
0.19462493,4.5251007,3.86082,-1.5610784,0.58503044,-2.5091233,-16.031574,-3.2321723
0.19535692,4.529207,3.86082,-1.5610784,0.58503044,-2.5091233,-16.031574,-3.2321723
0.19597055,4.533549,4.1335278,-1.5845141,0.41032705,-2.695871,-15.619772,-3.4141316
0.19658327,4.5378895,4.1335278,-1.5845141,0.41032705,-2.695871,-15.619772,-3.4141316
0.19704728,4.542488,4.3870606,-1.6132764,0.2377542,-2.6527755,-15.231912,-3.620033
0.19750658,4.547087,4.3870606,-1.6132764,0.2377542,-2.6527755,-15.231912,-3.620033
0.19778724,4.5519366,4.6235495,-1.644169,0.06624663,-2.3511062,-14.81532,-3.7493198
0.19806235,4.556786,4.6235495,-1.644169,0.06624663,-2.3511062,-14.81532,-3.7493198
0.19816814,4.5618625,4.8419285,-1.6697353,-0.106326215,-2.1978772,-14.302961,-3.9264908
0.19826707,4.566939,4.8419285,-1.6697353,-0.106326215,-2.1978772,-14.302961,-3.9264908
0.19819169,4.572219,5.0390024,-1.6846491,-0.28102958,-2.1260512,-13.747506,-3.9360676
0.19810872,4.5774984,5.0390024,-1.6846491,-0.28102958,-2.1260512,-13.747506,-3.9360676
0.19786985,4.5829563,5.2147713,-1.6931711,-0.45679823,-2.5474305,-13.254301,-3.9839516
0.19762212,4.588413,5.2147713,-1.6931711,-0.45679823,-2.5474305,-13.254301,-3.9839516
0.19721565,4.594029,5.3703,-1.6984975,-0.62937105,-2.930503,-12.703634,-4.027047
0.1967993,4.5996437,5.3703,-1.6984975,-0.62937105,-2.930503,-12.703634,-4.027047
0.19620982,4.605396,5.5045233,-1.7059543,-0.7955523,-2.8682537,-12.105083,-4.1419687
0.19560954,4.6111517,5.5045233,-1.7059543,-0.7955523,-2.8682537,-12.105083,-4.1419687
0.19483262,4.6170225,5.617441,-1.712346,-0.955342,-2.542642,-11.525687,-4.175488
0.19405897,4.622791,5.617441,-1.712346,-0.955342,-2.542642,-11.525687,-4.175488
0.19309647,4.62875,5.7079887,-1.7176722,-1.1140664,-2.1930888,-10.874464,-4.343082
0.1917619,4.6357813,5.7729697,-1.7134112,-1.2749213,-1.7860745,-10.208876,-4.5058875
0.19075045,4.641059,5.7729697,-1.7134112,-1.2749213,-1.7860745,-10.208876,-4.5058875
0.1896167,4.646923,5.7729697,-1.7134112,-1.2749213,-1.7860745,-10.208876,-4.5058875
0.18828192,4.65294,5.8123846,-1.6953017,-1.4357762,-1.388637,-9.476251,-4.6112323
0.18693441,4.6589656,5.8123846,-1.6953017,-1.4357762,-1.388637,-9.476251,-4.6112323
0.18539897,4.66501,5.823037,-1.6654743,-1.5987617,-0.8619126,-8.724471,-4.7405195
0.1838553,4.6710443,5.823037,-1.6654743,-1.5987617,-0.8619126,-8.724471,-4.7405195
0.1821314,4.677042,5.805993,-1.6186026,-1.7606819,-0.33039984,-7.867347,-4.8362875
0.18039629,4.6830416,5.805993,-1.6186026,-1.7606819,-0.33039984,-7.867347,-4.8362875
0.17848824,4.688974,5.756991,-1.555752,-1.9194063,-0.033518825,-7.101202,-4.8985367
0.17657118,4.6949015,5.756991,-1.555752,-1.9194063,-0.033518825,-7.101202,-4.8985367
0.17448936,4.7007256,5.6749654,-1.4758573,-2.0760002,0.047884032,-6.2728086,-4.9943047
0.17239943,4.706544,5.6749654,-1.4758573,-2.0760002,0.047884032,-6.2728086,-4.9943047
0.17015773,4.712221,5.556721,-1.3842444,-2.224072,-0.047884032,-5.511452,-4.8985367
0.16790879,4.7178926,5.556721,-1.3842444,-2.224072,-0.047884032,-5.511452,-4.8985367
0.16552095,4.723387,5.403323,-1.2851748,-2.3582952,-0.023942016,-4.7788267,-4.8123455
0.16313143,4.728864,5.403323,-1.2851748,-2.3582952,-0.023942016,-4.7788267,-4.8123455
0.1606177,4.7341404,5.2147713,-1.18504,-2.4754744,-0.04309563,-4.1611223,-4.630386
0.1580985,4.7394123,5.2147713,-1.18504,-2.4754744,-0.04309563,-4.1611223,-4.630386
0.15547177,4.744442,4.996392,-1.0817094,-2.574544,0.24420857,-3.620033,-4.4580035
0.15284038,4.749467,4.996392,-1.0817094,-2.574544,0.24420857,-3.620033,-4.4580035
0.15012021,4.7542167,4.743924,-0.9719871,-2.6544387,0.58897364,-3.0502129,-4.2042184
0.14739642,4.758962,4.743924,-0.9719871,-2.6544387,0.58897364,-3.0502129,-4.2042184
0.14459524,4.763409,4.4626946,-0.85693854,-2.7162242,1.1252748,-2.5187001,-4.050989
0.14179115,4.7678523,4.4626946,-0.85693854,-2.7162242,1.1252748,-2.5187001,-4.050989
0.13894425,4.7719526,4.1537676,-0.7323026,-2.7620306,1.4460979,-2.0111294,-3.8546648
0.13608956,4.7760577,4.1537676,-0.7323026,-2.7620306,1.4460979,-2.0111294,-3.8546648
0.13320525,4.7798076,3.8192747,-0.60020983,-2.791858,1.6424223,-1.5705963,-3.7110126
0.1303196,4.783555,3.8192747,-0.60020983,-2.791858,1.6424223,-1.5705963,-3.7110126
0.12741332,4.786936,3.4634764,-0.46705177,-2.8067715,1.8339585,-1.2306197,-3.4620156
0.12451801,4.790301,3.4634764,-0.46705177,-2.8067715,1.8339585,-1.2306197,-3.4620156
0.121623605,4.7932777,3.0842423,-0.33069792,-2.804641,1.8722657,-0.94331545,-3.1507695
0.11872896,4.796253,3.0842423,-0.33069792,-2.804641,1.8722657,-0.94331545,-3.1507695
0.11585359,4.798826,2.6890292,-0.19647461,-2.784401,1.8914193,-0.7422025,-2.801216
0.112989865,4.801388,2.6890292,-0.19647461,-2.784401,1.8914193,-0.7422025,-2.801216
0.110164024,4.803536,2.277837,-0.066512346,-2.743921,1.9776106,-0.56982,-2.4612393
0.10733864,4.805684,2.277837,-0.066512346,-2.743921,1.9776106,-0.56982,-2.4612393
0.104573965,4.8074093,1.8570576,0.061319392,-2.6853316,2.0159178,-0.5315128,-2.0254946
0.10180149,4.8091397,1.8570576,0.061319392,-2.6853316,2.0159178,-0.5315128,-2.0254946
0.09912615,4.810442,1.4288213,0.1870206,-2.6043713,2.135628,-0.50278234,-1.4987702
0.09644327,4.811749,1.4288213,0.1870206,-2.6043713,2.135628,-0.50278234,-1.4987702
0.09386362,4.8126283,0.9963239,0.30846074,-2.5053017,2.0638018,-0.49320555,-1.1252748
0.09128165,4.81351,0.9963239,0.30846074,-2.5053017,2.0638018,-0.49320555,-1.1252748
0.088836916,4.813965,0.56382656,0.42244405,-2.3881228,2.0254946,-0.51714754,-0.7757214
0.08638504,4.8144226,0.56382656,0.42244405,-2.3881228,2.0254946,-0.51714754,-0.7757214
0.08407345,4.8144636,0.1334597,0.5279052,-2.2549646,2.078167,-0.58897364,-0.4357447
0.081761844,4.8145065,0.1334597,0.5279052,-2.2549646,2.078167,-0.58897364,-0.4357447
0.079613864,4.8141346,-0.29371136,0.6269748,-2.1090233,2.0111294,-0.6607997,-0.12449849
0.07746121,4.8137636,-0.29371136,0.6269748,-2.1090233,2.0111294,-0.6607997,-0.12449849
0.075479366,4.8129864,-0.7155561,0.71965283,-1.9492338,2.0015526,-0.9576807,0.24420857
0.07349278,4.8122096,-0.7155561,0.71965283,-1.9492338,2.0015526,-0.9576807,0.24420857
0.07169466,4.811032,-1.1288787,0.80593926,-1.7777262,1.9536686,-1.283292,0.49799395
0.06989185,4.8098545,-1.1288787,0.80593926,-1.7777262,1.9536686,-1.283292,0.49799395
0.06828363,4.808284,-1.5336791,0.8826383,-1.5955659,1.8148049,-1.5849615,0.8379706
0.06667402,4.806716,-1.5336791,0.8826383,-1.5955659,1.8148049,-1.5849615,0.8379706
0.06526804,4.804766,-1.9288923,0.94974995,-1.4048836,1.6807296,-1.9536686,1.0342951
0.06526804,4.804766,-1.9288923,0.94974995,-1.4048836,1.6807296,-1.9536686,1.0342951
0.06526804,4.804766,-1.9288923,0.94974995,-1.4048836,1.6807296,-1.9536686,1.0342951
0.06526804,4.804766,-1.9288923,0.94974995,-1.4048836,1.6807296,-1.9536686,1.0342951
0.06081532,4.7927403,-2.6788385,1.0477543,-1.0000831,1.364695,-2.858677,1.2880806
0.060244136,4.791209,-2.6788385,1.0477543,-1.0000831,1.364695,-2.858677,1.2880806
0.059379917,4.787883,-3.031441,1.0786469,-0.7880955,1.2545617,-3.323152,1.3599066
0.058680445,4.785201,-3.031441,1.0786469,-0.7880955,1.2545617,-3.323152,1.3599066
0.058112193,4.7818756,-3.3648689,1.1010175,-0.5697163,1.2593501,-3.7972038,1.4317327
0.05753738,4.7785316,-3.3648689,1.1010175,-0.5697163,1.2593501,-3.7972038,1.4317327
0.05717809,4.774864,-3.6780565,1.1159312,-0.3492065,1.1971009,-4.2904096,1.4748282
0.056814786,4.7711897,-3.6780565,1.1159312,-0.3492065,1.1971009,-4.2904096,1.4748282
0.056666322,4.7672205,-3.9688737,1.1276491,-0.1276315,1.2689269,-4.8219223,1.5227122
0.056514174,4.763248,-3.9688737,1.1276491,-0.1276315,1.2689269,-4.8219223,1.5227122
0.056569494,4.759027,-4.23519,1.1372365,0.089682445,1.2976574,-5.3007627,1.4460979
0.05662118,4.754794,-4.23519,1.1372365,0.089682445,1.2976574,-5.3007627,1.4460979
0.056874566,4.7503166,-4.4748745,1.1446934,0.3038006,1.3455414,-5.78918,1.3263878
0.05712401,4.74584,-4.4748745,1.1446934,0.3038006,1.3455414,-5.78918,1.3263878
0.057567164,4.7411413,-4.691123,1.1510849,0.5104619,1.3072342,-6.229713,1.1444284
0.058007214,4.736434,-4.691123,1.1510849,0.5104619,1.3072342,-6.229713,1.1444284
0.058635253,4.73155,-4.8828707,1.1564113,0.7107316,1.1923125,-6.6989765,0.9959879
0.059260562,4.726657,-4.8828707,1.1564113,0.7107316,1.1923125,-6.6989765,0.9959879
0.060067322,4.721595,-5.049052,1.1606723,0.901414,1.0582372,-7.201759,0.8619126
0.06087002,4.7165327,-5.049052,1.1606723,0.901414,1.0582372,-7.201759,0.8619126
0.06184383,4.711315,-5.1886015,1.1628028,1.0814437,1.0151415,-7.599196,0.7326257
0.06280963,4.706119,-5.1886015,1.1628028,1.0814437,1.0151415,-7.599196,0.7326257
0.06393971,4.700793,-5.304715,1.1617376,1.251886,1.0390835,-7.9487495,0.6799533
0.065065555,4.6954665,-5.304715,1.1617376,1.251886,1.0390835,-7.9487495,0.6799533
0.066343136,4.6900425,-5.397393,1.1617376,1.4138062,1.0486604,-8.365341,0.5793968
0.06761883,4.6846066,-5.397393,1.1617376,1.4138062,1.0486604,-8.365341,0.5793968
0.06904295,4.679116,-5.4655704,1.1617376,1.5672042,0.9720459,-8.743625,0.59376204
0.07045967,4.6736355,-5.4655704,1.1617376,1.5672042,0.9720459,-8.743625,0.59376204
0.07201371,4.6681004,-5.5092463,1.1606723,1.7056886,0.8379706,-9.165004,0.5410896
0.07356311,4.662564,-5.5092463,1.1606723,1.7056886,0.8379706,-9.165004,0.5410896
0.075237095,4.657009,-5.528421,1.1564113,1.832455,0.7565677,-9.615114,0.545878
0.076909505,4.6514416,-5.528421,1.1564113,1.832455,0.7565677,-9.615114,0.545878
0.07869218,4.645891,-5.52416,1.1489544,1.9453732,0.6560113,-9.983821,0.59855044
0.080467805,4.640344,-5.52416,1.1489544,1.9453732,0.6560113,-9.983821,0.59855044
0.082347736,4.6348157,-5.500724,1.1414975,2.0476384,0.45489833,-10.457873,0.5554548
0.08422212,4.629285,-5.500724,1.1414975,2.0476384,0.45489833,-10.457873,0.5554548
0.08619179,4.6237907,-5.452787,1.130845,2.1403165,0.2633622,-10.769119,0.45968673
0.08814778,4.6183147,-5.452787,1.130845,2.1403165,0.2633622,-10.769119,0.45968673
0.09018904,4.612897,-5.38461,1.1159312,2.2212765,0.07182605,-11.233594,0.38307226
0.09222609,4.607469,-5.38461,1.1159312,2.2212765,0.07182605,-11.233594,0.38307226
0.09432379,4.602108,-5.2983236,1.0924954,2.2862577,0.1388637,-11.645397,0.2777274
0.09642167,4.5967264,-5.2983236,1.0924954,2.2862577,0.1388637,-11.645397,0.2777274
0.098612264,4.5913367,-5.193928,1.066929,2.3405862,0.31124622,-12.301409,0.37828386
0.10067346,4.586248,-5.193928,1.066929,2.3405862,0.31124622,-12.301409,0.37828386
0.10284623,4.5811462,-5.0714226,1.0477543,2.3906536,-0.076614454,-12.847286,0.272939
0.10500618,4.576056,-5.0714226,1.0477543,2.3906536,-0.076614454,-12.847286,0.272939
0.10722853,4.5710773,-4.924416,1.0253837,2.432199,-0.45489833,-13.43626,0.07182605
0.10944445,4.5660954,-4.924416,1.0253837,2.432199,-0.45489833,-13.43626,0.07182605
0.111684605,4.561282,-4.7539735,0.9891647,2.4598958,-0.47405192,-13.8241205,-0.02873042
0.11391851,4.5564647,-4.7539735,0.9891647,2.4598958,-0.47405192,-13.8241205,-0.02873042
0.11618763,4.5518284,-4.5654216,0.9486847,2.4812012,-0.78050977,-14.178462,-0.12928689
0.11846161,4.5471654,-4.5654216,0.9486847,2.4812012,-0.78050977,-14.178462,-0.12928689
0.120729655,4.542767,-4.360891,0.9028783,2.4993107,-0.94810385,-14.480132,-0.22984336
0.12300075,4.538347,-4.360891,0.9028783,2.4993107,-0.94810385,-14.480132,-0.22984336
0.12529175,4.534131,-4.1414466,0.8432235,2.5057023,-0.94331545,-14.858416,-0.15801731
0.1275656,4.529932,-4.1414466,0.8432235,2.5057023,-0.94331545,-14.858416,-0.15801731
0.12985092,4.525946,-3.9081535,0.77824235,2.4982455,-0.90979666,-15.212758,-0.11971009
0.132122,4.5219717,-3.9081535,0.77824235,2.4982455,-0.90979666,-15.212758,-0.11971009
0.13438529,4.5182395,-3.6588817,0.71326125,2.4769402,-0.8714894,-15.528792,-0.07182605
0.13663259,4.5145226,-3.6588817,0.71326125,2.4769402,-0.8714894,-15.528792,-0.07182605
0.13886295,4.5110626,-3.3957615,0.6482801,2.4439168,-0.8619126,-15.773001,0
0.14109592,4.5075884,-3.3957615,0.6482801,2.4439168,-0.8619126,-15.773001,0
0.14328417,4.5044184,-3.1177275,0.5886253,2.4023716,-0.8762778,-15.974113,0.08619126
0.14547756,4.501232,-3.1177275,0.5886253,2.4023716,-0.8762778,-15.974113,0.08619126
0.14763355,4.498338,-2.8290408,0.53536206,2.3501737,-0.9864111,-16.132132,0.23463176
0.1497755,4.4954557,-2.8290408,0.53536206,2.3501737,-0.9864111,-16.132132,0.23463176
0.15187998,4.492864,-2.5307667,0.4831641,2.2851925,-1.2114661,-17.81286,0.90500826
0.15397944,4.4902725,-2.5307667,0.4831641,2.2851925,-1.2114661,-17.81286,0.90500826
0.15601683,4.4880233,-2.2079916,0.43416196,2.2084935,-1.8004397,-15.140931,-0.10534488
0.15805762,4.4857645,-2.2079916,0.43416196,2.2084935,-1.8004397,-15.140931,-0.10534488
0.15998653,4.483839,-1.8734986,0.3670503,2.1190112,1.0869676,-17.693151,1.8100165
0.16191371,4.4819117,-1.8734986,0.3670503,2.1190112,1.0869676,-17.693151,1.8100165
0.1638234,4.4803195,-1.5539192,0.3191134,2.0273986,-3.4715924,-19.005173,2.1643584
0.16573311,4.4787245,-1.5539192,0.3191134,2.0273986,-3.4715924,-19.005173,2.1643584
0.16754618,4.477501,-1.2002515,0.26904595,1.9379163,-2.7150247,-18.612524,1.3551182
0.16936502,4.4762707,-1.2002515,0.26904595,1.9379163,-2.7150247,-18.612524,1.3551182
0.17106754,4.475451,-0.81142986,0.14867108,1.8047582,-1.6424223,-18.780119,1.7142484
0.17276253,4.474633,-0.81142986,0.14867108,1.8047582,-1.6424223,-18.780119,1.7142484
0.17436887,4.4742303,-0.41941255,0.03681831,1.6684043,-2.4612393,-18.310854,1.2689269
0.17596664,4.473829,-0.41941255,0.03681831,1.6684043,-2.4612393,-18.310854,1.2689269
0.1774514,4.4738364,-0.033786822,-0.07609972,1.5235285,-2.1021092,-17.372328,0.9768343
0.1789371,4.473844,-0.033786822,-0.07609972,1.5235285,-2.1021092,-17.372328,0.9768343
0.1802843,4.474247,0.33585995,-0.19753987,1.3626735,-1.8243817,-16.840815,1.0103531
0.18163647,4.4746523,0.33585995,-0.19753987,1.3626735,-1.8243817,-16.840815,1.0103531
0.18285076,4.475427,0.6788751,-0.30513158,1.1964922,-1.6376339,-16.745047,1.1348516
0.18405856,4.476198,0.6788751,-0.30513158,1.1964922,-1.6376339,-16.745047,1.1348516
0.18512517,4.4773226,1.0027155,-0.40313593,1.0239193,-1.6424223,-16.606182,0.9768343
0.18619223,4.4784484,1.0027155,-0.40313593,1.0239193,-1.6424223,-16.606182,0.9768343
0.18710583,4.4799075,1.3159032,-0.4936834,0.8470855,-1.8148049,-16.242264,0.6799533
0.18802124,4.481372,1.3159032,-0.4936834,0.8470855,-1.8148049,-16.242264,0.6799533
0.18878253,4.483162,1.6205689,-0.5863614,0.66812104,-1.9536686,-15.887922,0.4357447
0.18954483,4.484958,1.6205689,-0.5863614,0.66812104,-1.9536686,-15.887922,0.4357447
0.19014871,4.487076,1.9167124,-0.6811699,0.4859608,-1.9967642,-15.581465,0.1340753
0.1907594,4.489223,1.9167124,-0.6811699,0.4859608,-1.9967642,-15.581465,0.1340753
0.19120513,4.491652,2.2032685,-0.77917427,0.30593112,-2.0111294,-15.399506,-0.0047884034
0.19164439,4.494057,2.2032685,-0.77917427,0.30593112,-2.0111294,-15.399506,-0.0047884034
0.19192809,4.4967823,2.4813025,-0.87611336,0.12909722,-1.8579005,-15.251065,-0.16280572
0.1922101,4.4995184,2.4813025,-0.87611336,0.12909722,-1.8579005,-15.251065,-0.16280572
0.19234869,4.5025578,2.7593365,-0.9666608,-0.039214555,-2.0446482,-15.14572,-0.22984336
0.19248378,4.505598,2.7593365,-0.9666608,-0.039214555,-2.0446482,-15.14572,-0.22984336
0.19248591,4.5089426,3.0373707,-1.0497514,-0.19580843,-2.327164,-15.040375,-0.49320555
0.19248408,4.512291,3.0373707,-1.0497514,-0.19580843,-2.327164,-15.040375,-0.49320555
0.19235419,4.5159316,3.31647,-1.1360378,-0.3460107,-2.5378537,-15.021221,-0.7086837
0.19221915,4.5195827,3.31647,-1.1360378,-0.3460107,-2.5378537,-15.021221,-0.7086837
0.19195822,4.5235186,3.5976996,-1.2276506,-0.48662564,-2.542642,-14.911088,-0.9528923
0.19169083,4.5274696,3.5976996,-1.2276506,-0.48662564,-2.542642,-14.911088,-0.9528923
0.19129373,4.5317116,3.8789296,-1.3224591,-0.62297946,-2.408567,-14.733917,-1.115698
0.19088812,4.5359697,3.8789296,-1.3224591,-0.62297946,-2.408567,-14.733917,-1.115698
0.19034468,4.5405235,4.1580286,-1.4098108,-0.7508112,-2.1787236,-14.537593,-1.3599066
0.1897946,4.5450573,4.1580286,-1.4098108,-0.7508112,-2.1787236,-14.537593,-1.3599066
0.18911244,4.5498962,4.431802,-1.4865099,-0.87331665,-2.054225,-14.365211,-1.4460979
0.18842207,4.5547137,4.431802,-1.4865099,-0.87331665,-2.054225,-14.365211,-1.4460979
0.18759356,4.5598087,4.695987,-1.5504258,-0.99262625,-2.0159178,-14.121001,-1.6376339
0.18674879,4.5649085,4.695987,-1.5504258,-0.99262625,-2.0159178,-14.121001,-1.6376339
0.18575537,4.570205,4.953781,-1.6026237,-1.1055443,-2.006341,-13.8720045,-1.9201498
0.18474504,4.5755,4.953781,-1.6026237,-1.1055443,-2.006341,-13.8720045,-1.9201498
0.18366607,4.580965,5.1977267,-1.6473649,-1.2110054,-2.0973208,-13.637373,-2.2266076
0.18258823,4.586425,5.1977267,-1.6473649,-1.2110054,-2.0973208,-13.637373,-2.2266076
0.1814521,4.5920773,5.423563,-1.6878449,-1.3132708,-2.1499932,-13.297397,-2.4516625
0.18030742,4.5977416,5.423563,-1.6878449,-1.3132708,-2.1499932,-13.297397,-2.4516625
0.17908129,4.6035976,5.630224,-1.7251291,-1.4091446,-2.1643584,-13.043611,-2.7246015
0.17784424,4.6094613,5.630224,-1.7251291,-1.4091446,-2.1643584,-13.043611,-2.7246015
0.1765215,4.6155205,5.817711,-1.7581522,-1.4954311,-2.1883004,-12.737153,-2.9400797
0.17518747,4.621582,5.817711,-1.7581522,-1.4954311,-2.1883004,-12.737153,-2.9400797
0.17377326,4.6277785,5.9828267,-1.7858492,-1.5753258,-2.1164744,-12.378023,-3.193865
0.17234261,4.6339955,5.9828267,-1.7858492,-1.5753258,-2.1164744,-12.378023,-3.193865
0.1708236,4.6403575,6.1223764,-1.8028934,-1.6435028,-1.8100165,-11.9614315,-3.4715924
0.16930127,4.6466827,6.1223764,-1.8028934,-1.6435028,-1.8100165,-11.9614315,-3.4715924
0.16769533,4.6531467,6.2395554,-1.8050239,-1.7020924,-1.4796166,-11.48738,-3.6966474
0.16607672,4.6596117,6.2395554,-1.8050239,-1.7020924,-1.4796166,-11.48738,-3.6966474
0.16439821,4.666126,6.3290377,-1.7901102,-1.7542903,-1.1827357,-10.773908,-3.98874
0.16270182,4.672661,6.3290377,-1.7901102,-1.7542903,-1.1827357,-10.773908,-3.98874
0.16094442,4.679246,6.3844314,-1.7592176,-1.801162,-1.0247183,-10.0748005,-4.2521024
0.15918477,4.685794,6.3844314,-1.7592176,-1.801162,-1.0247183,-10.0748005,-4.2521024
0.15736698,4.6923685,6.405737,-1.7144765,-1.8427073,-0.92895025,-9.41879,-4.3957543
0.1555366,4.6989446,6.405737,-1.7144765,-1.8427073,-0.92895025,-9.41879,-4.3957543
0.15365514,4.705498,6.391888,-1.6590827,-1.8789263,-0.7134721,-8.590396,-4.582502
0.151773,4.7120137,6.391888,-1.6590827,-1.8789263,-0.7134721,-8.590396,-4.582502
0.14983973,4.7184887,6.3418207,-1.5930363,-1.9098189,-0.45010993,-7.6710224,-4.735731
0.14789496,4.7249646,6.3418207,-1.5930363,-1.9098189,-0.45010993,-7.6710224,-4.735731
0.14589946,4.73138,6.2555346,-1.5174025,-1.93432,-0.12928689,-6.6750345,-4.865018
0.14335306,4.7395177,6.2555346,-1.5174025,-1.93432,-0.12928689,-6.6750345,-4.865018
0.14190836,4.7439604,6.1266375,-1.4332466,-1.9524295,0.2633622,-5.650316,-4.9655743
0.1399019,4.750105,6.1266375,-1.4332466,-1.9524295,0.2633622,-5.650316,-4.9655743
0.1378544,4.7561154,5.9572606,-1.3352423,-1.966278,0.59376204,-4.7788267,-4.9943047
0.1358019,4.7621155,5.9572606,-1.3352423,-1.966278,0.59376204,-4.7788267,-4.9943047
0.13372932,4.7678914,5.742077,-1.2276506,-1.9758654,0.8571242,-3.9695864,-4.8602295
0.13372932,4.7678914,5.19027,-0.97518295,-1.9822569,1.3503298,-2.5905263,-4.510676
0.13372932,4.7678914,5.19027,-0.97518295,-1.9822569,1.3503298,-2.5905263,-4.510676
0.13372932,4.7678914,5.19027,-0.97518295,-1.9822569,1.3503298,-2.5905263,-4.510676
0.12437835,4.7910604,5.19027,-0.97518295,-1.9822569,1.3503298,-2.5905263,-4.510676
0.12313462,4.7941227,5.19027,-0.97518295,-1.9822569,1.3503298,-2.5905263,-4.510676
0.121110015,4.7987795,4.8568425,-0.83030695,-1.9758654,1.6759412,-1.8866309,-4.2760444
0.11902615,4.8035636,4.8568425,-0.83030695,-1.9758654,1.6759412,-1.8866309,-4.2760444
0.11701085,4.807848,4.4882607,-0.67051727,-1.9609517,2.0254946,-1.3455414,-3.9312792
0.11493122,4.8122635,4.4882607,-0.67051727,-1.9609517,2.0254946,-1.3455414,-3.9312792
0.11287784,4.816257,4.086656,-0.50114024,-1.9428421,2.255338,-0.7565677,-3.6248214
0.11081093,4.820273,4.086656,-0.50114024,-1.9428421,2.255338,-0.7565677,-3.6248214
0.10879392,4.823823,3.6562893,-0.32430634,-1.9162105,2.4612393,-0.14844051,-3.3183637
0.10676228,4.8273973,3.6562893,-0.32430634,-1.9162105,2.4612393,-0.14844051,-3.3183637
0.10479864,4.8304715,3.1992908,-0.14321138,-1.8842525,2.7006595,0.2633622,-2.9831753
0.10282333,4.8335643,3.1992908,-0.14321138,-1.8842525,2.7006595,0.2633622,-2.9831753
0.1009199,4.836157,2.7145956,0.04214463,-1.8427073,2.4851813,0.80445176,-2.7581203
0.099016994,4.83875,2.7145956,0.04214463,-1.8427073,2.4851813,0.80445176,-2.7581203
0.097186364,4.8408356,2.2085948,0.22323959,-1.7937051,2.3750482,1.0965444,-2.3558946
0.09535643,4.8429213,2.2085948,0.22323959,-1.7937051,2.3750482,1.0965444,-2.3558946
0.09360982,4.844489,1.6823542,0.39474717,-1.7372462,2.432509,1.5945383,-1.9488802
0.09186754,4.846055,1.6823542,0.39474717,-1.7372462,2.432509,1.5945383,-1.9488802
0.09022432,4.8470793,1.1380041,0.563059,-1.6701344,2.3894134,2.0638018,-1.661576
0.088580064,4.8481064,1.1380041,0.563059,-1.6701344,2.3894134,2.0638018,-1.661576
0.087030694,4.84859,0.58193606,0.7271097,-1.5923702,3.3566709,2.4516625,-1.0869676
0.08548474,4.849074,0.58193606,0.7271097,-1.5923702,3.3566709,2.4516625,-1.0869676
0.08403103,4.8489914,0.008823755,0.8879646,-1.5103447,3.217807,1.5035586,-0.17238252
0.082580015,4.8489103,0.008823755,0.8879646,-1.5103447,3.217807,1.5035586,-0.17238252
0.081246935,4.8482533,-0.5642885,1.0573417,-1.4144709,3.016694,1.3742718,0.20111294
0.079915695,4.8475995,-0.5642885,1.0573417,-1.4144709,3.016694,1.3742718,0.20111294
0.07872365,4.8463717,-1.1288787,1.2203271,-1.3090098,2.585738,2.078167,0.24420857
0.0775322,4.845148,-1.1288787,1.2203271,-1.3090098,2.585738,2.078167,0.24420857
0.07647534,4.843355,-1.6955993,1.3630725,-1.197157,2.0925324,2.0111294,0.5746084
0.07541682,4.841565,-1.6955993,1.3630725,-1.197157,2.0925324,2.0111294,0.5746084
0.074491866,4.8392096,-2.266581,1.4791864,-1.0767821,1.8722657,1.6136919,1.0007763
0.07356413,4.8368573,-2.266581,1.4791864,-1.0767821,1.8722657,1.6136919,1.0007763
0.07277161,4.833938,-2.8354323,1.5718644,-0.9468199,1.8674773,1.1923125,1.532289
0.07197586,4.831026,-2.8354323,1.5718644,-0.9468199,1.8674773,1.1923125,1.532289
0.071315944,4.8275566,-3.393631,1.6432371,-0.80940074,1.7812861,0.39264908,1.9249382
0.0706509,4.8240924,-3.393631,1.6432371,-0.80940074,1.7812861,0.39264908,1.9249382
0.07012641,4.820092,-3.9369159,1.7039572,-0.66878587,1.541866,-0.38307226,2.1452048
0.06959561,4.8160963,-3.9369159,1.7039572,-0.66878587,1.541866,-0.38307226,2.1452048
0.06920682,4.811576,-4.454634,1.7550899,-0.5207141,1.3599066,-1.3120226,2.2505496
0.06881175,4.8070745,-4.454634,1.7550899,-0.5207141,1.3599066,-1.3120226,2.2505496
0.06856758,4.8020825,-4.9425254,1.7913089,-0.367316,1.0103531,-2.087744,2.2409728
0.06831463,4.797091,-4.9425254,1.7913089,-0.367316,1.0103531,-2.087744,2.2409728
0.068207555,4.791649,-5.3984585,1.8072878,-0.21285266,0.78529817,-3.1028855,2.1643584
0.068091124,4.786207,-5.3984585,1.8072878,-0.21285266,0.78529817,-3.1028855,2.1643584
0.06811773,4.780346,-5.814977,1.8030268,-0.056258786,0.7134721,-4.1036615,2.1499932
0.06813441,4.7744966,-5.814977,1.8030268,-0.056258786,0.7134721,-4.1036615,2.1499932
0.068337485,4.7659802,-6.1846237,1.7870479,0.10140035,0.8523358,-5.0900726,2.0590134
0.06842559,4.762021,-6.1846237,1.7870479,0.10140035,0.8523358,-5.0900726,2.0590134
0.06869816,4.7553787,-6.506334,1.763612,0.2590595,1.0151415,-5.971139,1.8148049
0.06895255,4.7489395,-6.506334,1.763612,0.2590595,1.0151415,-5.971139,1.8148049
0.06934161,4.742115,-6.7758455,1.7348498,0.41565338,1.1827357,-6.7372837,1.6328455
0.06972066,4.73529,-6.7758455,1.7348498,0.41565338,1.1827357,-6.7372837,1.6328455
0.070218846,4.728239,-6.997421,1.707153,0.56905144,1.2545617,-7.335834,1.163582
0.07070825,4.7211742,-6.997421,1.707153,0.56905144,1.2545617,-7.335834,1.163582
0.0713251,4.713936,-7.172124,1.6794561,0.7192537,1.1252748,-7.9104424,0.866701
0.07193243,4.7066984,-7.172124,1.6794561,0.7192537,1.1252748,-7.9104424,0.866701
0.07267435,4.6993346,-7.3031516,1.6496286,0.8705213,0.92416185,-8.42759,0.6655881
0.07340798,4.691965,-7.3031516,1.6496286,0.8705213,0.92416185,-8.42759,0.6655881
0.07427821,4.684508,-7.391568,1.6155403,1.0196583,0.6895301,-8.825027,0.49320555
0.07513977,4.6770515,-7.391568,1.6155403,1.0196583,0.6895301,-8.825027,0.49320555
0.07614234,4.669542,-7.441636,1.5771908,1.1666648,0.5746084,-9.212888,0.4405331
0.07713443,4.6620474,-7.441636,1.5771908,1.1666648,0.5746084,-9.212888,0.4405331
0.07825815,4.654526,-7.45868,1.5356454,1.3115407,0.5267244,-9.586384,0.2825158
0.07937371,4.647005,-7.45868,1.5356454,1.3115407,0.5267244,-9.586384,0.2825158
0.080623515,4.6395025,-7.4427013,1.4930348,1.453221,0.39743748,-10.012551,0.16759412
0.08186518,4.631999,-7.4427013,1.4930348,1.453221,0.39743748,-10.012551,0.16759412
0.08324039,4.6245375,-7.401156,1.4514894,1.5949011,0.2681506,-10.395624,0.019153614
0.08460772,4.617075,-7.401156,1.4514894,1.5949011,0.2681506,-10.395624,0.019153614
0.086110085,4.6096797,-7.335109,1.4120747,1.7365813,0.1388637,-10.831368,-0.12449849
0.087604456,4.6022825,-7.335109,1.4120747,1.7365813,0.1388637,-10.831368,-0.12449849
0.089226075,4.5949764,-7.241366,1.3737252,1.8761309,0.023942016,-11.180922,-0.36870706
0.090841636,4.587661,-7.241366,1.3737252,1.8761309,0.023942016,-11.180922,-0.36870706
0.09257546,4.5804605,-7.1273828,1.3343104,2.0114195,0.02873042,-11.712435,-0.58897364
0.09430181,4.5732584,-7.1273828,1.3343104,2.0114195,0.02873042,-11.712435,-0.58897364
0.09614186,4.566181,-6.9942245,1.2991567,2.1435122,-0.14844051,-11.947066,-0.9720459
0.097973466,4.5591097,-6.9942245,1.2991567,2.1435122,-0.14844051,-11.947066,-0.9720459
0.099910274,4.5521584,-6.8440223,1.2629377,2.271344,-0.33997664,-12.253524,-1.436521
0.10183828,4.5452213,-6.8440223,1.2629377,2.271344,-0.33997664,-12.253524,-1.436521
0.10386831,4.5384326,-6.677841,1.2224576,2.3863926,-0.24899697,-12.62702,-1.6184803
0.10589286,4.531644,-6.677841,1.2224576,2.3863926,-0.24899697,-12.62702,-1.6184803
0.10800306,4.525023,-6.4935503,1.1841081,2.4907885,-0.08619126,-12.98615,-1.8722657
0.110106945,4.5184016,-6.4935503,1.1841081,2.4907885,-0.08619126,-12.98615,-1.8722657
0.11230056,4.5119715,-6.295411,1.1574765,2.5909233,-0.2681506,-13.364434,-2.1260512
0.114488184,4.505541,-6.295411,1.1574765,2.5909233,-0.2681506,-13.364434,-2.1260512
0.11676932,4.499323,-6.081293,1.1372365,2.6814709,-0.7038953,-13.924677,-2.3702598
0.11904093,4.4931154,-6.081293,1.1372365,2.6814709,-0.7038953,-13.924677,-2.3702598
0.12141878,4.487155,-5.846935,1.1127354,2.762431,-0.94331545,-16.625336,-2.384625
0.123793215,4.4811773,-5.846935,1.1127354,2.762431,-0.94331545,-16.625336,-2.384625
0.12632196,4.475501,-5.5571833,1.0839733,2.830608,-2.4181437,-16.290148,-2.456451
0.12885167,4.4697857,-5.5571833,1.0839733,2.830608,-2.4181437,-16.290148,-2.456451
0.13154778,4.463834,-5.2120376,1.0371016,2.8934586,-0.8283938,-13.426683,-2.873042
0.13377686,4.4589033,-5.2120376,1.0371016,2.8934586,-0.8283938,-13.426683,-2.873042
0.13626558,4.4539433,-4.9180245,0.9646636,2.9136984,-0.25378537,-18.80885,0.35434186
0.13878654,4.448896,-4.9180245,0.9646636,2.9136984,-0.25378537,-18.80885,0.35434186
0.14143506,4.444168,-4.5845966,0.9870342,2.9946587,-3.9552212,-20.657173,-1.0342951
0.14407115,4.439439,-4.5845966,0.9870342,2.9946587,-3.9552212,-20.657173,-1.0342951
0.14673363,4.435119,-4.143577,0.8964867,3.0117028,-2.4756045,-19.819202,-1.5131354
0.14939822,4.4307756,-4.143577,0.8964867,3.0117028,-2.4756045,-19.819202,-1.5131354
0.15199722,4.4270225,-3.663143,0.76013285,2.9786797,-2.4372973,-20.882227,-0.8523358
0.15461853,4.423222,-3.663143,0.76013285,2.9786797,-2.4372973,-20.882227,-0.8523358
0.1572477,4.419906,-3.167795,0.6663896,2.9413953,-2.777274,-20.087353,-1.2449849
0.15985784,4.4166017,-3.167795,0.6663896,2.9413953,-2.777274,-20.087353,-1.2449849
0.16242592,4.4138064,-2.6628594,0.563059,2.875349,-2.0685902,-18.368315,-1.3934253
0.16498682,4.411009,-2.6628594,0.563059,2.875349,-2.0685902,-18.368315,-1.3934253
0.16746172,4.408704,-2.1845558,0.46398935,2.769888,-1.3311762,-17.626112,-0.90500826
0.16993067,4.4063964,-2.1845558,0.46398935,2.769888,-1.3311762,-17.626112,-0.90500826
0.17231207,4.4045315,-1.7477974,0.40433455,2.6516435,-1.3215994,-17.640478,-0.46926352
0.1746883,4.4026647,-1.7477974,0.40433455,2.6516435,-1.3215994,-17.640478,-0.46926352
0.17694144,4.4012136,-1.3451273,0.3670503,2.51742,-1.292869,-17.549498,-0.35434186
0.17921959,4.399742,-1.3451273,0.3670503,2.51742,-1.292869,-17.549498,-0.35434186
0.18132105,4.3986826,-0.97121954,0.33722287,2.3693483,-1.532289,-17.132908,-0.58897364
0.18344001,4.3976097,-0.97121954,0.33722287,2.3693483,-1.532289,-17.132908,-0.58897364
0.1854142,4.3968945,-0.6282044,0.3073955,2.2074282,-1.7860745,-16.668432,-0.90979666
0.18739505,4.3961735,-0.6282044,0.3073955,2.2074282,-1.7860745,-16.668432,-0.90979666
0.18921864,4.3957815,-0.31821242,0.26904595,2.0316596,-2.135628,-16.180016,-1.1971009
0.19105035,4.395386,-0.31821242,0.26904595,2.0316596,-2.135628,-16.180016,-1.1971009
0.19271114,4.3952866,-0.043374203,0.216848,1.8452382,-2.1883004,-15.662868,-1.4030021
0.1943795,4.395185,-0.043374203,0.216848,1.8452382,-2.1883004,-15.662868,-1.4030021
0.19587892,4.3953485,0.19950609,0.15612793,1.6534907,-2.0685902,-15.198392,-1.388637
0.19737783,4.3955107,0.19950609,0.15612793,1.6534907,-2.0685902,-15.198392,-1.388637
0.19871065,4.395912,0.41682005,0.09434259,1.4628084,-1.9919758,-14.93503,-1.364695
0.20004842,4.3963146,0.41682005,0.09434259,1.4628084,-1.9919758,-14.93503,-1.364695
0.2012195,4.3969364,0.613894,0.031491987,1.2710607,-2.0446482,-14.561535,-1.4748282
0.20239495,4.39756,0.613894,0.031491987,1.2710607,-2.0446482,-14.561535,-1.4748282
0.20340425,4.3983936,0.80031526,-0.031358615,1.0771827,-2.1068976,-14.211981,-1.6280571
0.20441331,4.399227,0.80031526,-0.031358615,1.0771827,-2.1068976,-14.211981,-1.6280571
0.20525649,4.4002657,0.9814102,-0.09740501,0.88436973,-2.054225,-13.852851,-1.6376339
0.20610288,4.4013076,0.9814102,-0.09740501,0.88436973,-2.054225,-13.852851,-1.6376339
0.2067897,4.402548,1.1582441,-0.16238615,0.6968832,-2.1452048,-13.474567,-1.7956513
0.20747882,4.4037933,1.1582441,-0.16238615,0.6968832,-2.1452048,-13.474567,-1.7956513
0.20800595,4.405229,1.330817,-0.2294978,0.5157882,-2.0015526,-13.10586,-1.9393034
0.2085361,4.4066753,1.330817,-0.2294978,0.5157882,-2.0015526,-13.10586,-1.9393034
0.20891114,4.408309,1.500194,-0.29874,0.33788908,-1.9967642,-12.818556,-2.1308396
0.20928644,4.4099474,1.500194,-0.29874,0.33788908,-1.9967642,-12.818556,-2.1308396
0.2095216,4.411767,1.6663753,-0.36691692,0.16851202,-2.054225,-12.5743475,-2.1164744
0.20975722,4.4136,1.6663753,-0.36691692,0.16851202,-2.054225,-12.5743475,-2.1164744
0.2098617,4.415608,1.8282955,-0.43509385,0.008722344,-2.135628,-12.435484,-2.1691468
0.2099653,4.4176254,1.8282955,-0.43509385,0.008722344,-2.135628,-12.435484,-2.1691468
0.20994358,4.419817,1.9870199,-0.50646657,-0.13828415,-2.087744,-12.301409,-2.231396
0.20991993,4.422017,1.9870199,-0.50646657,-0.13828415,-2.087744,-12.301409,-2.231396
0.20978661,4.424385,2.1414833,-0.57570875,-0.2714422,-2.0925324,-12.310986,-2.2457612
0.20965049,4.426762,2.1414833,-0.57570875,-0.2714422,-2.0925324,-12.310986,-2.2457612
0.2094182,4.429303,2.2906203,-0.64175516,-0.39075184,-2.078167,-12.392388,-2.1404164
0.20918217,4.4318576,2.2906203,-0.64175516,-0.39075184,-2.078167,-12.392388,-2.1404164
0.20885763,4.4345465,2.4397573,-0.7078015,-0.49408248,-1.9967642,-12.497733,-2.2266076
0.20852704,4.4372587,2.4397573,-0.7078015,-0.49408248,-1.9967642,-12.497733,-2.2266076
0.20812155,4.440125,2.587829,-0.7706522,-0.5856952,-1.9680338,-12.593501,-2.2218192
0.20740868,4.444618,2.7369661,-0.8324375,-0.6645248,-1.9297266,-12.679692,-2.4181437
0.20740868,4.444618,2.7369661,-0.8324375,-0.6645248,-1.9297266,-12.679692,-2.4181437
0.2066731,4.449184,2.7369661,-0.8324375,-0.6645248,-1.9297266,-12.679692,-2.4181437
0.2061021,4.452518,2.8861032,-0.8952881,-0.7305712,-1.958457,-12.732365,-2.5330653
0.20552784,4.4558344,2.8861032,-0.8952881,-0.7305712,-1.958457,-12.732365,-2.5330653
0.20470452,4.4604144,3.0352402,-0.95600814,-0.7838344,-1.958457,-12.713211,-2.6192567
0.20429505,4.4626603,3.0352402,-0.95600814,-0.7838344,-1.958457,-12.713211,-2.6192567
0.20370051,4.465808,3.1865077,-1.0145977,-0.8317713,-1.934515,-12.631808,-2.7389667
0.20303552,4.469283,3.1865077,-1.0145977,-0.8317713,-1.934515,-12.631808,-2.7389667
0.2023257,4.4729333,3.3388405,-1.0731872,-0.87225133,-1.8818425,-12.588713,-2.777274
0.20160694,4.4765763,3.3388405,-1.0731872,-0.87225133,-1.8818425,-12.588713,-2.777274
0.20085357,4.4803796,3.490108,-1.128581,-0.903144,-1.8770541,-12.430696,-2.815581
0.20009819,4.4841433,3.490108,-1.128581,-0.903144,-1.8770541,-12.430696,-2.815581
0.19931059,4.4880886,3.6413755,-1.180779,-0.9308409,-1.8004397,-12.320562,-2.8538885
0.19852987,4.4919643,3.6413755,-1.180779,-0.9308409,-1.8004397,-12.320562,-2.8538885
0.19772577,4.4960217,3.7905126,-1.2276506,-0.95640725,-1.6567876,-12.081141,-2.9017725
0.1969084,4.5001264,3.7905126,-1.2276506,-0.95640725,-1.6567876,-12.081141,-2.9017725
0.19612831,4.5041966,3.9353886,-1.2649349,-0.97664726,-1.5514427,-11.75553,-3.0933087
0.1953333,4.5083323,3.9353886,-1.2649349,-0.97664726,-1.5514427,-11.75553,-3.0933087
0.19452693,4.5126104,4.0706773,-1.2958275,-1.0000831,-1.340753,-11.362882,-3.2800562
0.19371763,4.516885,4.0706773,-1.2958275,-1.0000831,-1.340753,-11.362882,-3.2800562
0.19289595,4.5212874,4.1931825,-1.3192633,-1.0213884,-1.1827357,-10.850522,-3.4524388
0.19207355,4.525669,4.1931825,-1.3192633,-1.0213884,-1.1827357,-10.850522,-3.4524388
0.19122192,4.5301623,4.296513,-1.3331118,-1.04802,-0.93373865,-10.46745,-3.6631286
0.19036537,4.5346527,4.296513,-1.3331118,-1.04802,-0.93373865,-10.46745,-3.6631286
0.18948011,4.5392222,4.3785386,-1.3395034,-1.0778474,-0.79966336,-9.945514,-3.821146
0.18858953,4.543789,4.3785386,-1.3395034,-1.0778474,-0.79966336,-9.945514,-3.821146
0.18766454,4.5484114,4.4381933,-1.3373728,-1.1087401,-0.6703765,-9.461885,-3.9217024
0.18673384,4.5530314,4.4381933,-1.3373728,-1.1087401,-0.6703765,-9.461885,-3.9217024
0.18576784,4.5576835,4.4754777,-1.3245896,-1.1396327,-0.62728083,-9.02614,-3.9504328
0.18479611,4.562332,4.4754777,-1.3245896,-1.1396327,-0.62728083,-9.02614,-3.9504328
0.18377791,4.566992,4.4914565,-1.3043497,-1.1758517,-0.46926352,-8.542512,-3.9264908
0.18275388,4.5716486,4.4914565,-1.3043497,-1.1758517,-0.46926352,-8.542512,-3.9264908
0.18168713,4.5762916,4.485065,-1.2766528,-1.208875,-0.32561144,-8.030152,-3.964798
0.18061364,4.580936,4.485065,-1.2766528,-1.208875,-0.32561144,-8.030152,-3.964798
0.1795029,4.5855374,4.4563026,-1.2436296,-1.2397676,-0.272939,-7.575254,-4.027047
0.17838769,4.5901318,4.4563026,-1.2436296,-1.2397676,-0.272939,-7.575254,-4.027047
0.17723665,4.5946712,4.4083657,-1.2020843,-1.2663993,-0.18674773,-6.9240313,-4.1132383
0.17608018,4.599208,4.4083657,-1.2020843,-1.2663993,-0.18674773,-6.9240313,-4.1132383
0.17488837,4.603662,4.336993,-1.1552126,-1.289835,-0.0047884034,-6.2967505,-4.156334
0.1736903,4.608117,4.336993,-1.1552126,-1.289835,-0.0047884034,-6.2967505,-4.156334
0.17246176,4.6124578,4.244315,-1.0998188,-1.3079445,0.2777274,-5.631162,-4.2281604
0.17122725,4.6168,4.244315,-1.0998188,-1.3079445,0.2777274,-5.631162,-4.2281604
0.1699667,4.621008,4.126071,-1.0348377,-1.3207277,0.5315128,-4.879383,-4.357447
0.1686929,4.6252427,4.126071,-1.0348377,-1.3207277,0.5315128,-4.879383,-4.357447
0.16731094,4.6295877,3.9801297,-0.96133447,-1.3281846,0.7757214,-4.1706996,-4.4915223
0.1660807,4.6334414,3.9801297,-0.96133447,-1.3281846,0.7757214,-4.1706996,-4.4915223
0.16481295,4.6371727,3.8022306,-0.8803744,-1.3324456,0.9672575,-3.3901896,-4.5202527
0.16351058,4.640994,3.8022306,-0.8803744,-1.3324456,0.9672575,-3.3901896,-4.5202527
0.16218968,4.6446033,3.5891776,-0.79195744,-1.3292499,1.1971009,-2.7102363,-4.3143516
0.16093215,4.6480308,3.5891776,-0.79195744,-1.3292499,1.1971009,-2.7102363,-4.3143516
0.15960822,4.651372,3.3431015,-0.6939531,-1.3185972,1.3215994,-2.0159178,-4.213795
0.15821683,4.6548743,3.3431015,-0.6939531,-1.3185972,1.3215994,-2.0159178,-4.213795
0.15689637,4.6579094,3.0618718,-0.5831656,-1.2983571,1.6089035,-1.2785037,-4.0557775
0.1555821,4.660925,3.0618718,-0.5831656,-1.2983571,1.6089035,-1.2785037,-4.0557775
0.15427439,4.66363,2.7454882,-0.4574644,-1.2674645,1.8052281,-0.5410896,-3.8498764
0.15295872,4.6663475,2.7454882,-0.4574644,-1.2674645,1.8052281,-0.5410896,-3.8498764
0.15168333,4.6686764,2.3918204,-0.32324108,-1.2259191,1.9249382,0.12928689,-3.5003228
0.15040705,4.6710043,2.3918204,-0.32324108,-1.2259191,1.9249382,0.12928689,-3.5003228
0.14917445,4.672928,2.0029988,-0.1847567,-1.1779822,1.982399,0.6991069,-3.2130187
0.14794132,4.6748514,2.0029988,-0.1847567,-1.1779822,1.982399,0.6991069,-3.2130187
0.14676204,4.676346,1.5800889,-0.047337584,-1.1193928,1.9680338,1.163582,-2.8634653
0.14558375,4.6778383,1.5800889,-0.047337584,-1.1193928,1.9680338,1.163582,-2.8634653
0.14446677,4.6788716,1.1262861,0.08475521,-1.0533463,2.030283,1.4077905,-2.480393
0.14334981,4.6799045,1.1262861,0.08475521,-1.0533463,2.030283,1.4077905,-2.480393
0.14230734,4.68046,0.64478666,0.20939115,-0.97664726,2.0446482,1.6424223,-1.8435353
0.14126493,4.681016,0.64478666,0.20939115,-0.97664726,2.0446482,1.6424223,-1.8435353
0.14030688,4.6810694,0.14198181,0.33509237,-0.8892956,1.9728222,1.6232687,-1.283292
0.1393487,4.681122,0.14198181,0.33509237,-0.8892956,1.9728222,1.6232687,-1.283292
0.13848391,4.6806607,-0.37786725,0.4597283,-0.790226,1.958457,1.3982137,-0.60333884
0.13761877,4.6802,-0.37786725,0.4597283,-0.790226,1.958457,1.3982137,-0.60333884
0.13686307,4.6792154,-0.9073037,0.5854295,-0.6783732,1.8531121,1.1109096,0.01436521
0.13610522,4.678229,-0.9073037,0.5854295,-0.6783732,1.8531121,1.1109096,0.01436521
0.13546154,4.676715,-1.4388707,0.7058044,-0.5569331,1.7477672,0.5506664,0.51714754
0.13481683,4.675202,-1.4388707,0.7058044,-0.5569331,1.7477672,0.5506664,0.51714754
0.13429336,4.673162,-1.9672418,0.8176572,-0.4280361,1.70946,-0.08619126,0.93373865
0.13376825,4.6711226,-1.9672418,0.8176572,-0.4280361,1.70946,-0.08619126,0.93373865
0.1333767,4.668568,-2.483895,0.9188573,-0.28848645,1.5370775,-0.90979666,1.2641385
0.13298348,4.666017,-2.483895,0.9188573,-0.28848645,1.5370775,-0.90979666,1.2641385
0.1327293,4.6629615,-2.9813735,1.0083395,-0.14361048,1.2689269,-1.7525556,1.4030021
0.13247266,4.6599092,-2.9813735,1.0083395,-0.14361048,1.2689269,-1.7525556,1.4030021
0.13237096,4.65639,-3.4511552,1.0807775,0.005526551,0.7661445,-2.896984,1.6041151
0.13226579,4.6528716,-3.4511552,1.0807775,0.005526551,0.7661445,-2.896984,1.6041151
0.13232046,4.6489105,-3.884718,1.135106,0.16212043,0.30645782,-4.060566,1.5897499
0.13237065,4.644969,-3.884718,1.135106,0.16212043,0.30645782,-4.060566,1.5897499
0.13258965,4.6406193,-4.27567,1.1638681,0.3272364,-0.08140286,-5.085284,1.541866
0.13280383,4.6362696,-4.27567,1.1638681,0.3272364,-0.08140286,-5.085284,1.541866
0.13317747,4.6315837,-4.6186852,1.167064,0.49341768,-0.20111294,-6.0238113,1.4939818
0.13354613,4.626893,-4.6186852,1.167064,0.49341768,-0.20111294,-6.0238113,1.4939818
0.1340672,4.6219125,-4.9116325,1.1489544,0.66172945,-0.05746084,-6.9527617,1.436521
0.13458334,4.6169257,-4.9116325,1.1489544,0.66172945,-0.05746084,-6.9527617,1.436521
0.13524349,4.6116867,-5.154513,1.1201923,0.8279107,0.40222588,-7.833828,1.3982137
0.13589746,4.606451,-5.154513,1.1201923,0.8279107,0.40222588,-7.833828,1.3982137
0.1367032,4.6010294,-5.3451953,1.087169,0.9898309,0.6464345,-8.628703,1.4891934
0.13750015,4.5956273,-5.3451953,1.087169,0.9898309,0.6464345,-8.628703,1.4891934
0.13845204,4.5900593,-5.4858103,1.0552112,1.1410985,0.63206923,-9.457097,1.6807296
0.13940458,4.58445,-5.4858103,1.0552112,1.1410985,0.63206923,-9.457097,1.6807296
0.14049675,4.578795,-5.5742273,1.0200574,1.2827786,0.2633622,-10.189722,1.6711528
0.14158183,4.573143,-5.5742273,1.0200574,1.2827786,0.2633622,-10.189722,1.6711528
0.14281298,4.567445,-5.613642,0.9785121,1.4180672,-0.22026655,-10.754754,1.6328455
0.14403424,4.561761,-5.613642,0.9785121,1.4180672,-0.22026655,-10.754754,1.6328455
0.145397,4.5560713,-5.606185,0.92737937,1.5480295,-0.59376204,-11.420342,1.6424223
0.14675204,4.550384,-5.606185,0.92737937,1.5480295,-0.59376204,-11.420342,1.6424223
0.14824048,4.5447483,-5.5582485,0.86665934,1.6779917,-0.7565677,-12.08593,1.5514427
0.14972253,4.53911,-5.5582485,0.86665934,1.6779917,-0.7565677,-12.08593,1.5514427
0.15133817,4.533562,-5.4708967,0.7984824,1.807954,-0.8331822,-12.765883,1.5179238
0.1529478,4.5280113,-5.4708967,0.7984824,1.807954,-0.8331822,-12.765883,1.5179238
0.15468396,4.522589,-5.347326,0.7207181,1.9293941,-0.82360536,-13.421895,1.5945383
0.15641274,4.5171685,-5.347326,0.7207181,1.9293941,-0.82360536,-13.421895,1.5945383
0.15827,4.511902,-5.1896667,0.6333664,2.0444427,-0.9672575,-14.058752,1.4652514
0.16012008,4.506637,-5.1896667,0.6333664,2.0444427,-0.9672575,-14.058752,1.4652514
0.16208918,4.5015707,-4.9989843,0.5406884,2.1509693,-1.1204864,-14.719552,1.3599066
0.16405123,4.4965057,-4.9989843,0.5406884,2.1509693,-1.1204864,-14.719552,1.3599066
0.16612706,4.491661,-4.778475,0.44055355,2.2447124,-1.3024458,-15.332468,1.2497733
0.16819422,4.486822,-4.778475,0.44055355,2.2447124,-1.3024458,-15.332468,1.2497733
0.17037094,4.4822373,-4.526007,0.33615762,2.330999,-1.5227122,-15.86398,1.0965444
0.17254117,4.477653,-4.526007,0.33615762,2.330999,-1.5227122,-15.86398,1.0965444
0.1748014,4.473361,-4.244777,0.22643538,2.4098284,-1.2593501,-17.84638,1.0582372
0.1770581,4.469065,-4.244777,0.22643538,2.4098284,-1.2593501,-17.84638,1.0582372
0.17942278,4.465111,-3.9166758,0.11990894,2.480136,-2.5234885,-20.345926,1.9153614
0.18178192,4.461157,-3.9166758,0.11990894,2.480136,-2.5234885,-20.345926,1.9153614
0.18430872,4.457577,-3.5086794,0.00592564,2.5461824,-3.9073372,-14.9063,-0.4261679
0.186777,4.4540734,-3.5086794,0.00592564,2.5461824,-3.9073372,-14.9063,-0.4261679
0.18924278,4.4509435,-3.1166623,-0.15705982,2.5632265,1.9393034,-20.954054,3.5673606
0.19170947,4.447808,-3.1166623,-0.15705982,2.5632265,1.9393034,-20.954054,3.5673606
0.19432074,4.445105,-2.6990786,-0.21564937,2.637795,-5.3007627,-24.066515,2.4899697
0.1969274,4.4424024,-2.6990786,-0.21564937,2.637795,-5.3007627,-24.066515,2.4899697
0.1996036,4.440254,-2.165381,-0.36372113,2.6718836,-4.4915223,-23.027431,1.3311762
0.20227295,4.438108,-2.165381,-0.36372113,2.6718836,-4.4915223,-23.027431,1.3311762
0.20497286,4.436598,-1.5720288,-0.59381825,2.6441865,-3.9552212,-23.410503,1.7190368
0.2076746,4.4350853,-1.5720288,-0.59381825,2.6441865,-3.9552212,-23.410503,1.7190368
0.21040109,4.4342327,-0.95630586,-0.7930227,2.6122286,-4.4963107,-22.70182,1.2114661
0.21313515,4.4333773,-0.95630586,-0.7930227,2.6122286,-4.4963107,-22.70182,1.2114661
0.21585819,4.4332023,-0.32673454,-1.0103366,2.548313,-3.6056678,-21.437681,0.8858546
0.21853162,4.433031,-0.32673454,-1.0103366,2.548313,-3.6056678,-21.437681,0.8858546
0.22121291,4.43352,0.28472725,-1.216998,2.4503086,-3.4955344,-21.006725,0.9672575
0.22392002,4.4340153,0.28472725,-1.216998,2.4503086,-3.4955344,-21.006725,0.9672575
0.22654486,4.4351315,0.86316586,-1.3810487,2.3427167,-3.691859,-21.236568,0.78050977
0.22915749,4.436246,0.86316586,-1.3810487,2.3427167,-3.691859,-21.236568,0.78050977
0.23170406,4.437962,1.4181687,-1.5205983,2.2244725,-4.0557775,-21.16953,0.2681506
0.2342458,4.4396796,1.4181687,-1.5205983,2.2244725,-4.0557775,-21.16953,0.2681506
0.2366963,4.441978,1.9571924,-1.6462995,2.0966406,-4.2042184,-21.1408,-0.21547815
0.23914339,4.4442806,1.9571924,-1.6462995,2.0966406,-4.2042184,-21.1408,-0.21547815
0.2414961,4.4471445,2.4770415,-1.7624134,1.9613521,-4.7548847,-20.858286,-0.80924016
0.2438419,4.4500103,2.4770415,-1.7624134,1.9613521,-4.7548847,-20.858286,-0.80924016
0.24610564,4.4534593,2.9755852,-1.8827882,1.8196719,-4.7788267,-20.269312,-1.436521
0.24837679,4.456934,2.9755852,-1.8827882,1.8196719,-4.7788267,-20.269312,-1.436521
0.2504276,4.4607773,3.4506931,-2.0063589,1.6673391,-4.429273,-19.780895,-1.9057846
0.25251496,4.4647083,3.4506931,-2.0063589,1.6673391,-4.429273,-19.780895,-1.9057846
0.25447252,4.469137,3.8959737,-2.123538,1.5118105,-4.261679,-19.096153,-2.1404164
0.25447252,4.469137,3.8959737,-2.123538,1.5118105,-4.261679,-19.096153,-2.1404164
0.25447252,4.469137,3.8959737,-2.123538,1.5118105,-4.261679,-19.096153,-2.1404164
0.26027602,4.4849167,4.311427,-2.2258034,1.3584124,-4.0557775,-18.248606,-2.719813
0.26164767,4.4893184,4.6981177,-2.3174162,1.2082101,-4.390966,-17.697939,-3.040636
0.26325566,4.4945297,4.6981177,-2.3174162,1.2082101,-4.390966,-17.697939,-3.040636
0.26325566,4.4945297,4.6981177,-2.3174162,1.2082101,-4.390966,-17.697939,-3.040636
0.26325566,4.4945297,4.6981177,-2.3174162,1.2082101,-4.390966,-17.697939,-3.040636
0.26819012,4.5124054,5.384148,-2.4921196,0.91845816,-5.2624555,-17.027563,-3.6583402
0.26950622,4.51759,5.384148,-2.4921196,0.91845816,-5.2624555,-17.027563,-3.6583402
0.27079856,4.5238466,5.6984015,-2.5975807,0.76932114,-4.999093,-16.587029,-3.916914
0.27206877,4.530113,5.6984015,-2.5975807,0.76932114,-4.999093,-16.587029,-3.916914
0.2731568,4.536703,5.9956098,-2.7062376,0.6180536,-4.620809,-16.07467,-4.10845
0.27422866,4.5433116,5.9956098,-2.7062376,0.6180536,-4.620809,-16.07467,-4.10845
0.27515015,4.550245,6.273644,-2.807438,0.45719868,-4.5872903,-15.524004,-4.012682
0.27605337,4.557196,6.273644,-2.807438,0.45719868,-4.5872903,-15.524004,-4.012682
0.2767793,4.564399,6.532503,-2.8947895,0.2888869,-4.4580035,-14.949395,-4.1180267
0.2774862,4.571627,6.532503,-2.8947895,0.2888869,-4.4580035,-14.949395,-4.1180267
0.2780116,4.579125,6.7711225,-2.969358,0.11311826,-4.390966,-14.422671,-4.122815
0.27851486,4.5866327,6.7711225,-2.969358,0.11311826,-4.390966,-14.422671,-4.122815
0.27882496,4.5943747,6.9863057,-3.0343392,-0.0679767,-4.295198,-13.881581,-4.185065
0.27911165,4.602125,6.9863057,-3.0343392,-0.0679767,-4.295198,-13.881581,-4.185065
0.27919766,4.610056,7.1737924,-3.093994,-0.2565285,-4.309563,-13.393165,-4.2664676
0.27925915,4.6180105,7.1737924,-3.093994,-0.2565285,-4.309563,-13.393165,-4.2664676
0.279099,4.6261506,7.3378434,-3.1536489,-0.45679823,-4.1276035,-12.89517,-4.4484267
0.27891296,4.6342893,7.3378434,-3.1536489,-0.45679823,-4.1276035,-12.89517,-4.4484267
0.27849284,4.6425943,7.4763274,-3.2143688,-0.6666553,-3.8833952,-12.354081,-4.4963107
0.2780462,4.6508884,7.4763274,-3.2143688,-0.6666553,-3.8833952,-12.354081,-4.4963107
0.27735195,4.6593103,7.5881805,-3.2729583,-0.8860998,-3.5003228,-11.616667,-4.654328
0.27663025,4.6677275,7.5881805,-3.2729583,-0.8860998,-3.5003228,-11.616667,-4.654328
0.27564463,4.6762385,7.6702056,-3.3251562,-1.1183275,-2.9975405,-10.745177,-4.7500963
0.27463093,4.684744,7.6702056,-3.3251562,-1.1183275,-2.9975405,-10.745177,-4.7500963
0.27333742,4.6933117,7.720273,-3.3656363,-1.3633382,-2.408567,-9.653421,-4.865018
0.27201423,4.7018805,7.720273,-3.3656363,-1.3633382,-2.408567,-9.653421,-4.865018
0.2704033,4.710449,7.739448,-3.392268,-1.620067,-1.8579005,-8.590396,-4.9895163
0.26876572,4.718999,7.739448,-3.392268,-1.620067,-1.8579005,-8.590396,-4.9895163
0.26683274,4.7275214,7.7224035,-3.40079,-1.8863832,-1.532289,-7.603985,-5.085284
0.26487184,4.736032,7.7224035,-3.40079,-1.8863832,-1.532289,-7.603985,-5.085284
0.2626156,4.7444763,7.66701,-3.392268,-2.1526992,-1.2497733,-6.564901,-5.391742
0.26033193,4.7529073,7.66701,-3.392268,-2.1526992,-1.2497733,-6.564901,-5.391742
0.2577543,4.761217,7.5743318,-3.3613753,-2.4200807,-0.91458505,-5.5976434,-5.741296
0.2551504,4.769512,7.5743318,-3.3613753,-2.4200807,-0.91458505,-5.5976434,-5.741296
0.2522622,4.7776384,7.4433045,-3.3049164,-2.675744,-0.29688102,-4.6255975,-6.1004257
0.24934922,4.7857494,7.4433045,-3.3049164,-2.675744,-0.29688102,-4.6255975,-6.1004257
0.24617334,4.793645,7.273927,-3.2175646,-2.9132981,0.37349546,-3.6966474,-6.220136
0.2429745,4.801524,7.273927,-3.2175646,-2.9132981,0.37349546,-3.6966474,-6.220136
0.23954117,4.809143,7.0683312,-3.0929286,-3.130612,0.93852705,-2.681506,-6.1530986
0.23581345,4.8173447,7.0683312,-3.0929286,-3.130612,0.93852705,-2.681506,-6.1530986
0.23242243,4.8241034,6.8318424,-2.9363348,-3.3266206,1.6711528,-1.7477672,-5.865794
0.22874627,4.831379,6.8318424,-2.9363348,-3.3266206,1.6711528,-1.7477672,-5.865794
0.22488858,4.8383284,6.5602,-2.7499135,-3.50452,2.1499932,-0.641646,-5.7365074
0.22101897,4.8452554,6.5602,-2.7499135,-3.50452,2.1499932,-0.641646,-5.7365074
0.21701519,4.851822,6.2512736,-2.5357955,-3.6547222,2.0015526,0.6703765,-5.659893
0.21299012,4.8583875,6.2512736,-2.5357955,-3.6547222,2.0015526,0.6703765,-5.659893
0.20886318,4.8645306,5.8997364,-2.31209,-3.7761624,3.074155,1.3120226,-5.2480903
0.2047173,4.870672,5.8997364,-2.31209,-3.7761624,3.074155,1.3120226,-5.2480903
0.2005473,4.8763804,5.502393,-2.075601,-3.8667097,1.3263878,3.6008794,-5.7987566
0.19638973,4.8820496,5.502393,-2.075601,-3.8667097,1.3263878,3.6008794,-5.7987566
0.19213282,4.8872795,5.0528507,-1.8391124,-3.92743,5.45878,3.5098996,-4.0797195
0.18786533,4.892506,5.0528507,-1.8391124,-3.92743,5.45878,3.5098996,-4.0797195
0.18364139,4.8971395,4.555372,-1.560013,-3.948735,3.6343982,2.1883004,-3.0789435
0.17939621,4.901785,4.555372,-1.560013,-3.948735,3.6343982,2.1883004,-3.0789435
0.1752366,4.905857,4.050437,-1.2596085,-3.924234,3.3039982,2.1930888,-3.145981
0.17107448,4.9099245,4.050437,-1.2596085,-3.924234,3.3039982,2.1930888,-3.145981
0.16704127,4.9134603,3.5433712,-0.99755347,-3.8731012,2.801216,4.8219223,-3.9695864
0.16302693,4.916975,3.5433712,-0.99755347,-3.8731012,2.801216,4.8219223,-3.9695864
0.1591226,4.919932,2.99476,-0.76532584,-3.7942717,3.169923,5.2863975,-3.323152
0.15521789,4.9228873,2.99476,-0.76532584,-3.7942717,3.169923,5.2863975,-3.323152
0.15148312,4.925216,2.3907552,-0.5384245,-3.6717663,3.2034419,5.7029886,-2.9017725
0.14774473,4.9275475,2.3907552,-0.5384245,-3.6717663,3.2034419,5.7029886,-2.9017725
0.1441897,4.929228,1.7505312,-0.33069792,-3.5204988,3.8977604,5.865794,-2.1068976
0.14065282,4.9309,1.7505312,-0.33069792,-3.5204988,3.8977604,5.865794,-2.1068976
0.13731249,4.931895,1.0815451,-0.12829769,-3.3511217,4.050989,5.5976434,-1.436521
0.13397239,4.9328914,1.0815451,-0.12829769,-3.3511217,4.050989,5.5976434,-1.436521
0.13085619,4.933188,0.39551476,0.08155942,-3.1615047,4.098873,4.9655743,-0.8714894
0.12773676,4.933487,0.39551476,0.08155942,-3.1615047,4.098873,4.9655743,-0.8714894
0.124873385,4.933086,-0.29264608,0.29141653,-2.9559085,4.1611223,4.232949,-0.31603462
0.122000724,4.932687,-0.29264608,0.29141653,-2.9559085,4.1611223,4.232949,-0.31603462
0.1193844,4.9315968,-0.97121954,0.4991431,-2.7364643,3.9695864,3.667917,0.019153614
0.11676149,4.9305077,-0.97121954,0.4991431,-2.7364643,3.9695864,3.667917,0.019153614
0.11440927,4.9287496,-1.6359446,0.70154333,-2.5074322,3.715801,2.8443117,0.33039984
0.1120501,4.9269915,-1.6359446,0.70154333,-2.5074322,3.715801,2.8443117,0.33039984
0.10996128,4.9245815,-2.2804296,0.8922257,-2.264552,3.2513258,1.9393034,0.61770403
0.107867084,4.922173,-2.2804296,0.8922257,-2.264552,3.2513258,1.9393034,0.61770403
0.10604917,4.919137,-2.902544,1.0658637,-2.006758,2.5713725,0.90021986,0.842759
0.104235984,4.916119,-2.902544,1.0658637,-2.006758,2.5713725,0.90021986,0.842759
0.102700494,4.9125,-3.4916353,1.2192619,-1.7308545,1.9009962,-0.19153613,1.0103531
0.101165816,4.9088984,-3.4916353,1.2192619,-1.7308545,1.9009962,-0.19153613,1.0103531
0.09992339,4.90474,-4.046638,1.3449631,-1.4357762,1.4748282,-1.388637,1.1492168
0.09867352,4.90058,-4.046638,1.3449631,-1.4357762,1.4748282,-1.388637,1.1492168
0.097734176,4.8959055,-4.562226,1.4440327,-1.1225885,1.2497733,-2.6384103,1.2976574
0.09679082,4.891247,-4.562226,1.4440327,-1.1225885,1.2497733,-2.6384103,1.2976574
0.09615731,4.8860984,-5.0320077,1.5228622,-0.7955523,1.0965444,-3.7445314,1.2114661
0.09551644,4.880953,-5.0320077,1.5228622,-0.7955523,1.0965444,-3.7445314,1.2114661
0.09519011,4.875364,-5.4559827,1.5846475,-0.46532035,0.866701,-4.7548847,1.1204864
0.094852224,4.8697166,-5.4559827,1.5846475,-0.46532035,0.866701,-4.7548847,1.1204864
0.09483178,4.863653,-5.8362823,1.630454,-0.1340231,0.6943185,-5.5880666,0.93852705
0.09480243,4.8576593,-5.8362823,1.630454,-0.1340231,0.6943185,-5.5880666,0.93852705
0.095086046,4.8514266,-6.172906,1.659216,0.19407836,0.6991069,-6.373365,0.7374141
0.09536212,4.845127,-6.172906,1.659216,0.19407836,0.6991069,-6.373365,0.7374141
0.09596724,4.8384705,-6.466919,1.6783909,0.5157882,0.6560113,-6.5744777,0.2777274
0.09656103,4.8317957,-6.466919,1.6783909,0.5157882,0.6560113,-6.5744777,0.2777274
0.09745631,4.8248515,-6.7268434,1.6965003,0.8300412,0.8762778,-7.3310456,0.272939
0.09833487,4.817937,-6.7268434,1.6965003,0.8300412,0.8762778,-7.3310456,0.272939
0.099528484,4.81075,-6.9516144,1.7156751,1.1379026,0.7182605,-7.666234,0.009576807
0.100701824,4.8035994,-6.9516144,1.7156751,1.1379026,0.7182605,-7.666234,0.009576807
0.10219972,4.7962055,-7.1391006,1.7401762,1.437242,0.44532153,-7.7667904,-0.45968673
0.10368388,4.7888026,-7.1391006,1.7401762,1.437242,0.44532153,-7.7667904,-0.45968673
0.105474025,4.781261,-7.29676,1.7593509,1.7280592,0.033518825,-7.881712,-0.8619126
0.107254475,4.7736926,-7.29676,1.7593509,1.7280592,0.033518825,-7.881712,-0.8619126
0.10932288,4.765978,-7.426722,1.7721341,2.009289,-0.20111294,-8.207323,-1.1252748
0.11137796,4.758251,-7.426722,1.7721341,2.009289,-0.20111294,-8.207323,-1.1252748
0.11368315,4.75044,-7.527922,1.7742647,2.2724092,-0.25378537,-8.317456,-1.4317327
0.11597971,4.7425995,-7.527922,1.7742647,2.2724092,-0.25378537,-8.317456,-1.4317327
0.11849812,4.734711,-7.602491,1.7700036,2.5195506,-0.17238252,-8.327033,-1.6567876
0.12101056,4.726785,-7.602491,1.7700036,2.5195506,-0.17238252,-8.327033,-1.6567876
0.12372487,4.718832,-7.654689,1.7689383,2.7496479,-0.06703765,-8.422802,-1.8435353
0.12643331,4.7108407,-7.654689,1.7689383,2.7496479,-0.06703765,-8.422802,-1.8435353
0.12930885,4.7028437,-7.6877117,1.77533,2.9552438,0.10534488,-8.63828,-1.7860745
0.13217829,4.694807,-7.6877117,1.77533,2.9552438,0.10534488,-8.63828,-1.7860745
0.13520142,4.686779,-7.7026258,1.7902436,3.1405997,0.038307227,-8.829816,-1.685518
0.13821782,4.6787114,-7.7026258,1.7902436,3.1405997,0.038307227,-8.829816,-1.685518
0.1413749,4.670667,-7.6983647,1.81581,3.3089116,-0.19153613,-9.107543,-1.5849615
0.14452404,4.6625824,-7.6983647,1.81581,3.3089116,-0.19153613,-9.107543,-1.5849615
0.14779355,4.654538,-7.675994,1.8456373,3.460179,-0.4165911,-9.452309,-1.5035586
0.15105368,4.646453,-7.675994,1.8456373,3.460179,-0.4165911,-9.452309,-1.5035586
0.15441853,4.6384254,-7.635514,1.8743995,3.5975983,-0.6655881,-9.935937,-1.460463
0.15777184,4.630358,-7.635514,1.8743995,3.5975983,-0.6655881,-9.935937,-1.460463
0.16124535,4.6223497,-7.579055,1.89677,3.7232995,-1.2066777,-10.261548,-1.4317327
0.16470243,4.614302,-7.579055,1.89677,3.7232995,-1.2066777,-10.261548,-1.4317327
0.1681863,4.6063976,-7.506617,1.9052922,3.8394134,-0.9911995,-10.94629,-1.2593501
0.1716547,4.598479,-7.506617,1.9052922,3.8394134,-0.9911995,-10.94629,-1.2593501
0.17523184,4.5905833,-7.4235263,1.9020964,3.9480703,-1.8148049,-11.33894,-1.3311762
0.17876548,4.582802,-7.4235263,1.9020964,3.9480703,-1.8148049,-11.33894,-1.3311762
0.18255953,4.575121,-7.3244567,1.8850521,4.051401,-2.2601264,-12.109872,-1.3120226
0.18630156,4.567457,-7.3244567,1.8850521,4.051401,-2.2601264,-12.109872,-1.3120226
0.19009902,4.5598664,-7.2094083,1.840311,4.141948,-2.2122424,-12.5264635,-1.3742718
0.19386053,4.5522904,-7.2094083,1.840311,4.141948,-2.2122424,-12.5264635,-1.3742718
0.19771837,4.5448127,-7.07625,1.7785257,4.2229085,-2.327164,-12.823344,-1.340753
0.20153998,4.5373487,-7.07625,1.7785257,4.2229085,-2.327164,-12.823344,-1.340753
0.20546092,4.5299983,-6.930309,1.7092835,4.296412,-2.5905263,-13.22557,-1.3215994
0.20935251,4.5226464,-6.930309,1.7092835,4.296412,-2.5905263,-13.22557,-1.3215994
0.2132969,4.515465,-6.7715845,1.6315192,4.3592625,-2.681506,-13.488933,-1.2018893
0.21722503,4.50826,-6.7715845,1.6315192,4.3592625,-2.681506,-13.488933,-1.2018893
0.2211771,4.501211,-6.6011424,1.546298,4.4114604,-2.3558946,-16.04594,-1.043872
0.22511594,4.4941397,-6.6011424,1.546298,4.4114604,-2.3558946,-16.04594,-1.043872
0.22915986,4.487279,-6.3848934,1.4664032,4.4593973,-4.5681367,-18.80406,0.4213795
0.23316948,4.4804287,-6.3848934,1.4664032,4.4593973,-4.5681367,-18.80406,0.4213795
0.23736477,4.473791,-6.0780973,1.360942,4.4998775,-5.8945246,-10.984597,-2.2170308
0.24154271,4.4671392,-6.0780973,1.360942,4.4998775,-5.8945246,-10.984597,-2.2170308
0.24551436,4.460864,-5.814977,1.1734555,4.4679193,2.5474305,-20.628443,3.9743748
0.24975745,4.4541183,-5.814977,1.1734555,4.4679193,2.5474305,-20.628443,3.9743748
0.2561706,4.4446764,-5.5188336,1.1297797,4.517987,-7.5800424,-24.631548,3.3423057
0.25772923,4.442367,-5.5188336,1.1297797,4.517987,-7.5800424,-24.631548,3.3423057
0.25772923,4.442367,-5.5188336,1.1297797,4.517987,-7.5800424,-24.631548,3.3423057
0.26638636,4.4306016,-5.069292,0.9912953,4.5297046,-6.191406,-23.20939,1.7621324
0.2703265,4.42581,-4.5323987,0.72497916,4.4636583,-7.225701,-24.325089,2.2601264
0.2740242,4.4212904,-4.5323987,0.72497916,4.4636583,-7.225701,-24.325089,2.2601264
0.2805286,4.4143314,-3.9635475,0.4661199,4.393351,-7.053318,-24.372972,1.8770541
0.28215107,4.412586,-3.9635475,0.4661199,4.393351,-7.053318,-24.372972,1.8770541
0.28215107,4.412586,-3.9635475,0.4661199,4.393351,-7.053318,-24.372972,1.8770541
0.29020375,4.4052153,-3.3574119,0.15612793,4.277237,-5.133168,-22.759281,1.5514427
0.29414123,4.4022136,-2.7597985,-0.1368198,4.1185126,-3.739743,-22.42888,1.9536686
0.298071,4.399206,-2.7597985,-0.1368198,4.1185126,-3.739743,-22.42888,1.9536686
0.30190715,4.3968306,-2.1952083,-0.34987268,3.947005,-4.0557775,-22.596476,2.1547816
0.3057445,4.3944464,-2.1952083,-0.34987268,3.947005,-4.0557775,-22.596476,2.1547816
0.3095329,4.3926344,-1.6476625,-0.5181845,3.7573879,-4.1611223,-22.558168,1.6998832
0.31316027,4.390894,-1.6476625,-0.5181845,3.7573879,-4.1611223,-22.558168,1.6998832
0.31671107,4.389718,-1.113965,-0.6737131,3.5454004,-4.6112323,-22.22298,1.1109096
0.32026413,4.3885374,-1.113965,-0.6737131,3.5454004,-4.6112323,-22.22298,1.1109096
0.32364678,4.387939,-0.6005075,-0.8207196,3.3174338,-4.8027687,-21.777658,0.36391866
0.32702842,4.3873386,-0.6005075,-0.8207196,3.3174338,-4.8027687,-21.777658,0.36391866
0.33023432,4.3873014,-0.11155113,-0.9698566,3.0798798,-5.070919,-21.08334,-0.15801731
0.33343932,4.3872643,-0.11155113,-0.9698566,3.0798798,-5.070919,-21.08334,-0.15801731
0.33645055,4.387765,0.34864312,-1.1200589,2.8274121,-4.9799395,-20.63802,-0.45968673
0.3394609,4.3882666,0.34864312,-1.1200589,2.8274121,-4.9799395,-20.63802,-0.45968673
0.34228534,4.3892903,0.78220576,-1.2670654,2.5632265,-4.912902,-20.005949,-0.7469909
0.34507188,4.3903027,0.78220576,-1.2670654,2.5632265,-4.912902,-20.005949,-0.7469909
0.34766236,4.3918023,1.185941,-1.4012887,2.299041,-4.8698063,-19.541473,-0.9576807
0.3502534,4.3933067,1.185941,-1.4012887,2.299041,-4.8698063,-19.541473,-0.9576807
0.35263562,4.3952646,1.5630445,-1.5227288,2.0391164,-5.00867,-18.842367,-1.2737153
0.35501513,4.3972263,1.5630445,-1.5227288,2.0391164,-5.00867,-18.842367,-1.2737153
0.3571873,4.399614,1.9156471,-1.6356469,1.7887793,-4.9799395,-18.277336,-1.5897499
0.35935587,4.402006,1.9156471,-1.6356469,1.7887793,-4.9799395,-18.277336,-1.5897499
0.3613291,4.404793,2.240553,-1.7379123,1.5512253,-5.209783,-17.7554,-1.9057846
0.36329767,4.407584,2.240553,-1.7379123,1.5512253,-5.209783,-17.7554,-1.9057846
0.3650684,4.4107437,2.5420227,-1.8369819,1.3221934,-5.171476,-17.204733,-2.3319526
0.36683303,4.413909,2.5420227,-1.8369819,1.3221934,-5.171476,-17.204733,-2.3319526
0.36840168,4.4174137,2.8189914,-1.9360515,1.1048795,-4.793192,-16.385916,-2.5617957
0.3699627,4.420923,2.8189914,-1.9360515,1.1048795,-4.793192,-16.385916,-2.5617957
0.37134415,4.424739,3.0661328,-2.0244684,0.9035445,-4.8362875,-15.547946,-2.906561
0.37271628,4.4285583,3.0661328,-2.0244684,0.9035445,-4.8362875,-15.547946,-2.906561
0.37390798,4.432649,3.2877078,-2.1022327,0.7149927,-4.7979803,-14.853627,-3.1842883
0.37508813,4.436742,3.2877078,-2.1022327,0.7149927,-4.7979803,-14.853627,-3.1842883
0.37609324,4.441078,3.4890428,-2.171475,0.53602827,-4.745308,-14.197616,-3.289633
