Pitch,Roll,Gyro_X,Gyro_Y,Gyro_Z,Accel_X,Accel_Y,Accel_Z
0.25886077,4.7174683,0.3614263,-0.106992394,-0.41844872,-0.076614454,-8.743625,1.508347
0.25834566,4.7179246,0.3614263,-0.106992394,-0.41844872,-0.076614454,-8.743625,1.508347
0.2578376,4.718373,0.3550347,-0.108057655,-0.41525292,-0.019153614,-8.676587,1.5562311
0.25731513,4.7188334,0.3550347,-0.108057655,-0.41525292,-0.019153614,-8.676587,1.5562311
0.25682455,4.719265,0.34757784,-0.11231872,-0.4088613,0.11492168,-8.623915,1.6280571
0.2563232,4.719705,0.34757784,-0.11231872,-0.4088613,0.11492168,-8.623915,1.6280571
0.25582576,4.7201457,0.340121,-0.11977556,-0.403535,0.12449849,-8.580819,1.7286136
0.25533015,4.720585,0.340121,-0.11977556,-0.403535,0.12449849,-8.580819,1.7286136
0.25484106,4.7210226,0.33479467,-0.12829769,-0.39820868,0.14844051,-8.6095495,1.8243817
0.2543557,4.7214565,0.33479467,-0.12829769,-0.39820868,0.14844051,-8.6095495,1.8243817
0.2538761,4.721889,0.3284031,-0.1368198,-0.39075184,0.1340753,-8.599973,1.8435353
0.25339442,4.7223234,0.3284031,-0.1368198,-0.39075184,0.1340753,-8.599973,1.8435353
0.25292653,4.722755,0.32414204,-0.14640717,-0.38009918,0.07182605,-8.614338,1.8531121
0.25197762,4.7236347,0.31988096,-0.15599456,-0.36518547,0.14844051,-8.623915,1.7717092
0.25197762,4.7236347,0.31988096,-0.15599456,-0.36518547,0.14844051,-8.623915,1.7717092
0.25133604,4.7242336,0.31988096,-0.15599456,-0.36518547,0.14844051,-8.623915,1.7717092
0.251088,4.724473,0.31348938,-0.16558194,-0.3502718,0.12928689,-8.643068,1.8579005
0.2506415,4.7249036,0.31348938,-0.16558194,-0.3502718,0.12928689,-8.643068,1.8579005
0.25020352,4.725342,0.30603254,-0.17623459,-0.3321623,-0.047884032,-8.801085,1.8195933
0.24979119,4.7257547,0.30603254,-0.17623459,-0.3321623,-0.047884032,-8.801085,1.8195933
0.24938856,4.7261806,0.29644516,-0.18901776,-0.3097917,-0.062249243,-8.963891,2.006341
0.24902157,4.726569,0.29644516,-0.18901776,-0.3097917,-0.062249243,-8.963891,2.006341
0.24863568,4.7269964,0.2857925,-0.20499672,-0.2863559,-0.08619126,-9.14585,2.0398598
0.24826522,4.7274065,0.2857925,-0.20499672,-0.2863559,-0.08619126,-9.14585,2.0398598
0.24792571,4.727812,0.27513987,-0.22097568,-0.25759378,-0.047884032,-9.217676,2.2026656
0.24756956,4.728236,0.27513987,-0.22097568,-0.25759378,-0.047884032,-9.217676,2.2026656
0.2472913,4.728598,0.2655525,-0.23695466,-0.22776636,-0.07182605,-9.23683,2.2649148
0.24690281,4.7291026,0.2655525,-0.23695466,-0.22776636,-0.07182605,-9.23683,2.2649148
0.24669723,4.729399,0.26129144,-0.25186837,-0.19793896,-0.062249243,-9.260772,2.327164
0.2464189,4.7298,0.26129144,-0.25186837,-0.19793896,-0.062249243,-9.260772,2.327164
0.2461733,4.7302027,0.25809565,-0.26465154,-0.16811156,-0.19153613,-9.3182335,2.3511062
0.24592808,4.730604,0.25809565,-0.26465154,-0.16811156,-0.19153613,-9.3182335,2.3511062
0.24571131,4.7310085,0.25703037,-0.27636945,-0.1372189,-0.25378537,-9.375694,2.255338
0.24549438,4.731413,0.25703037,-0.27636945,-0.1372189,-0.25378537,-9.375694,2.255338
0.245309,4.7318187,0.25809565,-0.28808734,-0.10526095,-0.30645782,-9.370906,2.1691468
0.24512342,4.7322245,0.25809565,-0.28808734,-0.10526095,-0.30645782,-9.370906,2.1691468
0.24493673,4.7326326,0.25809565,-0.28808734,-0.10526095,-0.30645782,-9.370906,2.1691468
0.24478003,4.733043,0.2591609,-0.29874,-0.07330302,-0.25378537,-9.433155,2.1691468
0.24462269,4.733455,0.2591609,-0.29874,-0.07330302,-0.25378537,-9.433155,2.1691468
0.2444873,4.733884,0.2623567,-0.30939263,-0.041345086,-0.21068975,-9.3661175,1.9967642
0.24436137,4.7342825,0.2623567,-0.30939263,-0.041345086,-0.21068975,-9.3661175,1.9967642
0.24425809,4.7346935,0.26448724,-0.31791475,-0.010452416,-0.05746084,-9.251195,1.9440918
0.24415381,4.7351074,0.26448724,-0.31791475,-0.010452416,-0.05746084,-9.251195,1.9440918
0.24407157,4.735517,0.26342195,-0.3221758,0.01724446,0.14844051,-9.102755,1.8626889
0.24398874,4.7359285,0.26342195,-0.3221758,0.01724446,0.14844051,-9.102755,1.8626889
0.24392289,4.736327,0.25703037,-0.3200453,0.039615013,0.2633622,-8.844181,1.6950948
0.24385639,4.7367277,0.25703037,-0.3200453,0.039615013,0.2633622,-8.844181,1.6950948
0.24380185,4.737108,0.24318193,-0.31471896,0.055593982,0.35434186,-8.599973,1.5658079
0.24374814,4.7374816,0.24318193,-0.31471896,0.055593982,0.35434186,-8.599973,1.5658079
0.24370548,4.737837,0.22081138,-0.30406633,0.06731189,0.30166942,-8.408437,1.5179238
0.24366148,4.738201,0.22081138,-0.30406633,0.06731189,0.30166942,-8.408437,1.5179238
0.24362685,4.7385235,0.18991871,-0.29128313,0.07476874,0.32561144,-8.231265,1.5227122
0.24359217,4.738844,0.18991871,-0.29128313,0.07476874,0.32561144,-8.231265,1.5227122
0.2435663,4.7391243,0.15050393,-0.27636945,0.08222559,0.2873042,-8.121132,1.5227122
0.24354023,4.739405,0.15050393,-0.27636945,0.08222559,0.2873042,-8.121132,1.5227122
0.24352369,4.7396355,0.10363229,-0.2561294,0.088617176,0.35913026,-8.0445175,1.6280571
0.24350718,4.739865,0.10363229,-0.2561294,0.088617176,0.35913026,-8.0445175,1.6280571
0.2434963,4.740038,0.051434334,-0.2326936,0.09181297,0.37828386,-8.049306,1.6998832
0.24348538,4.740211,0.051434334,-0.2326936,0.09181297,0.37828386,-8.049306,1.6998832
0.24347685,4.7403173,-0.0071552116,-0.20499672,0.09500877,0.44532153,-8.087613,1.6950948
0.2434682,4.7404237,-0.0071552116,-0.20499672,0.09500877,0.44532153,-8.087613,1.6950948
0.24346144,4.740462,-0.06787529,-0.17410405,0.09607403,0.39264908,-8.226477,1.6903064
0.24345458,4.7404995,-0.06787529,-0.17410405,0.09607403,0.39264908,-8.226477,1.6903064
0.24345236,4.740469,-0.13072589,-0.14214613,0.09713929,0.29688102,-8.274361,1.733402
0.2434501,4.7404385,-0.13072589,-0.14214613,0.09713929,0.29688102,-8.274361,1.733402
0.24345638,4.7403393,-0.19464175,-0.110188186,0.10033509,0.16280572,-8.379706,1.8148049
0.24346258,4.7402406,-0.19464175,-0.110188186,0.10033509,0.16280572,-8.379706,1.8148049
0.2434694,4.7400684,-0.25855762,-0.08036078,0.104596145,0.01436521,-8.451532,1.6041151
0.24347636,4.739896,-0.25855762,-0.08036078,0.104596145,0.01436521,-8.451532,1.6041151
0.24349155,4.7396555,-0.3214082,-0.054794434,0.11098773,-0.11492168,-8.63828,1.5993267
0.24350691,4.7394147,-0.3214082,-0.054794434,0.11098773,-0.11492168,-8.63828,1.5993267
0.2435314,4.7391086,-0.38319355,-0.033489145,0.118444584,-0.11971009,-8.671799,1.6328455
0.24355607,4.7388015,-0.38319355,-0.033489145,0.118444584,-0.11971009,-8.671799,1.6328455
0.24358884,4.7384295,-0.44284838,-0.012183856,0.12803197,-0.15322891,-8.671799,1.5562311
0.2436218,4.7380567,-0.44284838,-0.012183856,0.12803197,-0.15322891,-8.671799,1.5562311
0.24366666,4.7376204,-0.4993074,0.0069909045,0.14188041,0.023942016,-8.51857,1.5562311
0.24371162,4.7371845,-0.4993074,0.0069909045,0.14188041,0.023942016,-8.51857,1.5562311
0.24376969,4.7366853,-0.55683166,0.030426722,0.1567941,0.19632454,-8.389283,1.5562311
0.24382834,4.7361817,-0.55683166,0.030426722,0.1567941,0.19632454,-8.389283,1.5562311
0.24390067,4.7356143,-0.6143559,0.0581236,0.17170781,0.45010993,-8.0684595,1.5705963
0.24397327,4.7350454,-0.6143559,0.0581236,0.17170781,0.45010993,-8.0684595,1.5705963
0.24405408,4.734406,-0.67614126,0.090081535,0.18129519,0.62728083,-7.8146744,1.541866
0.24413493,4.7337666,-0.67614126,0.090081535,0.18129519,0.62728083,-7.8146744,1.541866
0.24422261,4.733041,-0.74857926,0.12736578,0.19194783,0.60333884,-7.536947,1.340753
0.24431041,4.732315,-0.74857926,0.12736578,0.19194783,0.60333884,-7.536947,1.340753
0.24440841,4.7314973,-0.8348657,0.17210689,0.20046994,0.4213795,-7.2113357,1.2545617
0.2445072,4.730674,-0.8348657,0.17210689,0.20046994,0.4213795,-7.2113357,1.2545617
0.24461974,4.729746,-0.93500054,0.21897852,0.20899206,0.29209262,-7.1347213,1.3120226
0.24473263,4.728816,-0.93500054,0.21897852,0.20899206,0.29209262,-7.1347213,1.3120226
0.24484742,4.7277536,-1.0489838,0.26585016,0.21857944,0.6847417,-7.0006456,1.2258313
0.24496184,4.726696,-1.0489838,0.26585016,0.21857944,0.6847417,-7.0006456,1.2258313
0.24509118,4.7254963,-1.1778809,0.3159176,0.23136261,0.8619126,-6.991069,1.3311762
0.24522167,4.724285,-1.1778809,0.3159176,0.23136261,0.8619126,-6.991069,1.3311762
0.24536839,4.72293,-1.319561,0.37237662,0.2441458,0.79966336,-6.919243,1.4173675
0.24551469,4.7215757,-1.319561,0.37237662,0.2441458,0.79966336,-6.919243,1.4173675
0.24567981,4.720049,-1.4740244,0.43629247,0.2590595,0.59855044,-6.8091097,1.4030021
0.24584413,4.7185283,-1.4740244,0.43629247,0.2590595,0.59855044,-6.8091097,1.4030021
0.24602687,4.716829,-1.6370099,0.5044694,0.27823424,0.62249243,-6.7564373,1.3934253
0.24620956,4.715126,-1.6370099,0.5044694,0.27823424,0.62249243,-6.7564373,1.3934253
0.24640591,4.7132387,-1.8074522,0.5747769,0.30060482,0.34476504,-6.847417,1.0773908
0.24660362,4.711333,-1.8074522,0.5747769,0.30060482,0.34476504,-6.847417,1.0773908
0.24682358,4.709243,-1.9874818,0.6482801,0.32830167,-0.02873042,-6.9719152,0.8619126
0.24704319,4.7071495,-1.9874818,0.6482801,0.32830167,-0.02873042,-6.9719152,0.8619126
0.24729435,4.7048416,-2.1760337,0.716457,0.36132488,-0.35434186,-7.129933,0.7134721
0.24754322,4.7025504,-2.1760337,0.716457,0.36132488,-0.35434186,-7.129933,0.7134721
0.2478271,4.7000513,-2.370977,0.77930766,0.40073967,-0.6655881,-7.2304893,0.5410896
0.2481111,4.6975455,-2.370977,0.77930766,0.40073967,-0.6655881,-7.2304893,0.5410896
0.24843948,4.694832,-2.569116,0.8315056,0.4508071,-0.80445176,-7.2544312,0.4309563
0.24876857,4.6921053,-2.569116,0.8315056,0.4508071,-0.80445176,-7.2544312,0.4309563
0.24914406,4.6891637,-2.7715166,0.87518144,0.50833136,-0.92416185,-7.1634517,0.2633622
0.24951877,4.686223,-2.7715166,0.87518144,0.50833136,-0.92416185,-7.1634517,0.2633622
0.24992913,4.683025,-2.9771125,0.91353095,0.5733125,-0.91937345,-7.2065473,-0.090979666
0.25033772,4.6798286,-2.9771125,0.91353095,0.5733125,-0.91937345,-7.2065473,-0.090979666
0.25080818,4.6764007,-3.1891,0.9422931,0.64361995,-0.6464345,-7.240066,-0.22984336
0.25127763,4.6729608,-3.1891,0.9422931,0.64361995,-0.6464345,-7.240066,-0.22984336
0.25180718,4.6692963,-3.4042835,0.9646636,0.7096664,-0.45489833,-7.345411,-0.33997664
0.2523332,4.665633,-3.4042835,0.9646636,0.7096664,-0.45489833,-7.345411,-0.33997664
0.25291908,4.661765,-3.6205323,0.98809946,0.77251697,-0.4165911,-7.565677,-0.21547815
0.2535029,4.657891,-3.6205323,0.98809946,0.77251697,-0.4165911,-7.565677,-0.21547815
0.2541443,4.653819,-3.836781,1.0126005,0.8311065,-0.5363012,-7.776367,-0.08619126
0.25478536,4.6497326,-3.836781,1.0126005,0.8311065,-0.5363012,-7.776367,-0.08619126
0.2554813,4.6454425,-4.0455728,1.0424279,0.88969606,-0.7613561,-8.0684595,-0.08619126
0.25617445,4.641153,-4.0455728,1.0424279,0.88969606,-0.7613561,-8.0684595,-0.08619126
0.25692976,4.6366625,-4.2469077,1.0743859,0.94935083,-0.90979666,-8.394072,0
0.25768217,4.632172,-4.2469077,1.0743859,0.94935083,-0.90979666,-8.394072,0
0.25848913,4.6274986,-4.4343944,1.1063439,1.0132667,-0.9672575,-8.748413,-0.023942016
0.25929517,4.62281,-4.4343944,1.1063439,1.0132667,-0.9672575,-8.748413,-0.023942016
0.26014513,4.617929,-4.606967,1.1372365,1.0739868,-0.90979666,-8.983045,-0.16759412
0.2609954,4.6130238,-4.606967,1.1372365,1.0739868,-0.90979666,-8.983045,-0.16759412
0.26187375,4.607971,-4.7646265,1.1702597,1.1325763,-0.94810385,-9.222465,-0.48362875
0.26274776,4.6029186,-4.7646265,1.1702597,1.1325763,-0.94810385,-9.222465,-0.48362875
0.26366583,4.597684,-4.9073715,1.2022176,1.18797,-1.0295067,-9.44752,-0.6464345
0.2645872,4.592403,-4.9073715,1.2022176,1.18797,-1.0295067,-9.44752,-0.6464345
0.2655326,4.587061,-5.0320077,1.2341756,1.2465596,-1.2593501,-9.548077,-0.90500826
0.26648134,4.581672,-5.0320077,1.2341756,1.2465596,-1.2593501,-9.548077,-0.90500826
0.2674637,4.5761466,-5.1438603,1.2650682,1.3030187,-1.4030021,-9.634268,-1.2401965
0.2684408,4.5706134,-5.1438603,1.2650682,1.3030187,-1.4030021,-9.634268,-1.2401965
0.2694691,4.5649333,-5.24293,1.2948956,1.3626735,-1.4556746,-9.706094,-1.7046716
0.2704958,4.559204,-5.24293,1.2948956,1.3626735,-1.4556746,-9.706094,-1.7046716
0.27157173,4.5534244,-5.3292165,1.324723,1.421263,-1.5370775,-9.744401,-2.111686
0.27266392,4.547488,-5.3292165,1.324723,1.421263,-1.5370775,-9.744401,-2.111686
0.27378342,4.5416737,-5.4059153,1.3545505,1.4766568,-1.7190368,-9.744401,-2.6048915
0.27490804,4.5357633,-5.4059153,1.3545505,1.4766568,-1.7190368,-9.744401,-2.6048915
0.27610576,4.529718,-5.4751577,1.3865083,1.5331157,-1.8866309,-9.720459,-3.0597897
0.27728796,4.5236816,-5.4751577,1.3865083,1.5331157,-1.8866309,-9.720459,-3.0597897
0.27852875,4.517555,-5.536943,1.4152706,1.5885096,-2.0925324,-9.80665,-3.466804
0.27975053,4.5114555,-5.536943,1.4152706,1.5885096,-2.0925324,-9.80665,-3.466804
0.28103325,4.5052423,-5.589141,1.4387063,1.6449685,-2.255338,-9.811439,-3.7588966
0.2822977,4.4990497,-5.589141,1.4387063,1.6449685,-2.255338,-9.811439,-3.7588966
0.28360796,4.492783,-5.6360126,1.4546853,1.6992971,-2.27928,-9.816227,-4.098873
0.28489983,4.486537,-5.6360126,1.4546853,1.6992971,-2.27928,-9.816227,-4.098873
0.2862335,4.4802074,-5.6711664,1.4642727,1.7525603,-2.183512,-9.883265,-4.309563
0.28754565,4.4739113,-5.6711664,1.4642727,1.7525603,-2.183512,-9.883265,-4.309563
0.28890306,4.467538,-5.697798,1.4749253,1.8058234,-2.1212628,-9.883265,-4.596867
0.29024118,4.4611845,-5.697798,1.4749253,1.8058234,-2.1212628,-9.883265,-4.596867
0.29160872,4.4547987,-5.712712,1.4834474,1.8505646,-2.0590134,-9.902418,-4.8362875
0.29295793,4.448427,-5.712712,1.4834474,1.8505646,-2.0590134,-9.902418,-4.8362875
0.2943445,4.442005,-5.716973,1.4930348,1.8889141,-2.2122424,-9.797073,-5.0374002
0.29571378,4.435591,-5.716973,1.4930348,1.8889141,-2.2122424,-9.797073,-5.0374002
0.2970943,4.4291716,-5.7116466,1.5036875,1.9230026,-2.0398598,-9.753978,-5.1523223
0.29846,4.4227476,-5.7116466,1.5036875,1.9230026,-2.0398598,-9.753978,-5.1523223
0.29982686,4.41633,-5.697798,1.5132748,1.9506994,-1.8722657,-9.92636,-5.21936
0.30524364,4.3904877,-5.6200337,1.5452328,1.989049,-2.0159178,-10.280702,-5.2720323
0.30524364,4.3904877,-5.6200337,1.5452328,1.989049,-2.0159178,-10.280702,-5.2720323
0.30524364,4.3904877,-5.6200337,1.5452328,1.989049,-2.0159178,-10.280702,-5.2720323
0.30524364,4.3904877,-5.6200337,1.5452328,1.989049,-2.0159178,-10.280702,-5.2720323
0.30665222,4.383652,-5.6200337,1.5452328,1.989049,-2.0159178,-10.280702,-5.2720323
0.30785194,4.377904,-5.5433345,1.562277,2.0018322,-2.2744915,-10.271125,-5.45878
0.30785194,4.377904,-5.5433345,1.562277,2.0018322,-2.2744915,-10.271125,-5.45878
0.3104752,4.365176,-5.4474607,1.5718644,2.0071585,-2.6431987,-10.237606,-5.837064
0.3104752,4.365176,-5.4474607,1.5718644,2.0071585,-2.6431987,-10.237606,-5.837064
0.3130141,4.353156,-5.331347,1.5697339,2.0103543,-2.6719291,-10.242394,-6.1100025
0.31428576,4.347019,-5.331347,1.5697339,2.0103543,-2.6719291,-10.242394,-6.1100025
0.31555134,4.341006,-5.199254,1.5569507,2.009289,-2.7868507,-10.357317,-6.2823853
0.31680056,4.3349934,-5.199254,1.5569507,2.009289,-2.7868507,-10.357317,-6.2823853
0.31803292,4.3291254,-5.053313,1.5356454,2.005028,-2.6623523,-10.625467,-6.4882865
0.31925383,4.323235,-5.053313,1.5356454,2.005028,-2.6623523,-10.625467,-6.4882865
0.32046834,4.3175235,-4.892458,1.5111443,1.9975711,-2.9161377,-10.82658,-6.7708025
0.32167172,4.3117905,-4.892458,1.5111443,1.9975711,-2.9161377,-10.82658,-6.7708025
0.32282043,4.3062835,-4.714559,1.4770559,1.9783963,-2.4277205,-11.468226,-6.6750345
0.32395577,4.300768,-4.714559,1.4770559,1.9783963,-2.4277205,-11.468226,-6.6750345
0.32506534,4.2954774,-4.517485,1.4429674,1.9549605,-2.681506,-11.851298,-6.7085533
0.32616514,4.290163,-4.517485,1.4429674,1.9549605,-2.681506,-11.851298,-6.7085533
0.32724553,4.28508,-4.2980404,1.4110094,1.9272636,-2.9831753,-12.028469,-6.8186865
0.32831413,4.2799845,-4.2980404,1.4110094,1.9272636,-2.9831753,-12.028469,-6.8186865
0.32936534,4.275152,-4.0615516,1.3726599,1.8985015,-3.3758245,-12.181698,-6.861782
0.33040622,4.2703047,-4.0615516,1.3726599,1.8985015,-3.3758245,-12.181698,-6.861782
0.33144182,4.2657223,-3.8101494,1.3225925,1.8708047,-3.7205894,-12.363658,-6.9862804
0.33246106,4.261153,-3.8101494,1.3225925,1.8708047,-3.7205894,-12.363658,-6.9862804
0.33346888,4.2568493,-3.5459638,1.2586766,1.8409772,-3.763685,-12.579136,-6.9958572
0.33446023,4.252563,-3.5459638,1.2586766,1.8409772,-3.763685,-12.579136,-6.9958572
0.33544275,4.248576,-3.268995,1.1873039,1.8111498,-3.8355112,-12.684481,-6.9527617
0.33641285,4.244595,-3.268995,1.1873039,1.8111498,-3.8355112,-12.684481,-6.9527617
0.33736476,4.2409515,-2.9803083,1.1127354,1.7781266,-3.9360676,-12.804191,-6.7612257
0.3383084,4.237308,-2.9803083,1.1127354,1.7781266,-3.9360676,-12.804191,-6.7612257
0.3392409,4.234027,-2.6777732,1.0296447,1.7397771,-3.98874,-12.785037,-6.6510925
0.34017143,4.2307334,-2.6777732,1.0296447,1.7397771,-3.98874,-12.785037,-6.6510925
0.34110186,4.2278147,-2.3656507,0.94335836,1.7014276,-3.9695864,-12.832921,-6.517017
0.3420286,4.224899,-2.3656507,0.94335836,1.7014276,-3.9695864,-12.832921,-6.517017
0.34296066,4.2223606,-2.0460713,0.8496151,1.6566864,-3.9360676,-12.86644,-6.38773
0.34389532,4.2198105,-2.0460713,0.8496151,1.6566864,-3.9360676,-12.86644,-6.38773
0.34483275,4.2176476,-1.7211658,0.7505455,1.6034232,-3.9600096,-12.808979,-6.2392898
0.34576958,4.2154818,-1.7211658,0.7505455,1.6034232,-3.9600096,-12.808979,-6.2392898
0.34673992,4.2136436,-1.3941295,0.64721483,1.5437684,-3.9552212,-12.842498,-6.0860605
0.34765512,4.2119055,-1.3941295,0.64721483,1.5437684,-3.9552212,-12.842498,-6.0860605
0.34860584,4.210507,-1.061767,0.5342968,1.4723957,-3.6583402,-14.058752,-5.741296
0.349556,4.209105,-1.061767,0.5342968,1.4723957,-3.6583402,-14.058752,-5.741296
0.35048735,4.2081127,-0.71022975,0.41605246,1.3925009,-4.548983,-12.014104,-6.196194
0.3514223,4.2071137,-0.71022975,0.41605246,1.3925009,-4.548983,-12.014104,-6.196194
0.35232145,4.206515,-0.35656196,0.28182915,1.296627,-2.480393,-13.575124,-5.2528787
0.35322103,4.2059145,-0.35656196,0.28182915,1.296627,-2.480393,-13.575124,-5.2528787
0.35412574,4.2057457,-0.0028941538,0.16251951,1.195427,-4.2281604,-13.340492,-5.626374
0.35503057,4.205576,-0.0028941538,0.16251951,1.195427,-4.2281604,-13.340492,-5.626374
0.3558644,4.2058215,0.36355683,0.033622514,1.075052,-3.4093432,-13.029245,-5.5258174
0.35669628,4.2060657,0.36355683,0.033622514,1.075052,-3.4093432,-13.029245,-5.5258174
0.35745978,4.2067385,0.73213834,-0.10060081,0.93656766,-3.347094,-12.650962,-5.659893
0.3582206,4.207409,0.73213834,-0.10060081,0.93656766,-3.347094,-12.650962,-5.659893
0.35889757,4.2084994,1.0964588,-0.22843254,0.7831696,-2.9161377,-12.143391,-5.6359506
0.35957378,4.20959,1.0964588,-0.22843254,0.7831696,-2.9161377,-12.143391,-5.6359506
0.36015826,4.211093,1.447996,-0.3466769,0.61911887,-2.6240451,-11.841722,-5.5497594
0.36074156,4.2125936,1.447996,-0.3466769,0.61911887,-2.6240451,-11.841722,-5.5497594
0.36123216,4.2145047,1.7814238,-0.44787702,0.4508071,-2.801216,-11.784261,-5.391742
0.36172098,4.2164125,1.7814238,-0.44787702,0.4508071,-2.801216,-11.784261,-5.391742
0.3621034,4.2187014,2.0988727,-0.5416203,0.27823424,-2.9161377,-11.640609,-5.315128
0.36248443,4.2209935,2.0988727,-0.5416203,0.27823424,-2.9161377,-11.640609,-5.315128
0.36275643,4.223652,2.4035382,-0.63216776,0.106726676,-3.2369606,-11.501745,-5.3486466
0.36302507,4.2263055,2.4035382,-0.63216776,0.106726676,-3.2369606,-11.501745,-5.3486466
0.36318606,4.2293215,2.6943555,-0.7205847,-0.059454583,-3.490746,-11.348516,-5.3821654
0.36334273,4.2323313,2.6943555,-0.7205847,-0.059454583,-3.490746,-11.348516,-5.3821654
0.36339754,4.2358046,2.9691937,-0.8111322,-0.21711372,-3.8067808,-11.267113,-5.482722
0.3634433,4.239039,2.9691937,-0.8111322,-0.21711372,-3.8067808,-11.267113,-5.482722
0.3633934,4.2426486,3.232314,-0.90274495,-0.36838126,-4.185065,-11.27669,-5.57849
0.36333618,4.2462587,3.232314,-0.90274495,-0.36838126,-4.185065,-11.27669,-5.57849
0.36319104,4.250166,3.4879775,-0.99968404,-0.51219195,-4.510676,-11.247959,-5.6982
0.363053,4.2540345,3.4879775,-0.99968404,-0.51219195,-4.510676,-11.247959,-5.6982
0.3629231,4.2581496,3.7340536,-1.0998188,-0.64748055,-4.6926355,-11.171345,-5.770026
0.3627942,4.262263,3.7340536,-1.0998188,-0.64748055,-4.6926355,-11.171345,-5.770026
0.36257112,4.266671,3.9748032,-1.1978232,-0.76785547,-4.3957543,-10.922348,-5.8945246
0.3623402,4.2711926,3.9748032,-1.1978232,-0.76785547,-4.3957543,-10.922348,-5.8945246
0.36204943,4.2758636,4.2102265,-1.2905012,-0.878643,-4.271256,-10.721235,-5.841852
0.36176923,4.280308,4.2102265,-1.2905012,-0.878643,-4.271256,-10.721235,-5.841852
0.3614134,4.285247,4.4381933,-1.3757224,-0.9851694,-4.2281604,-10.55843,-5.837064
0.36103654,4.290392,4.4381933,-1.3757224,-0.9851694,-4.2281604,-10.55843,-5.837064
0.36059877,4.2956057,4.655507,-1.4492257,-1.0874348,-4.0892963,-10.409989,-5.8801594
0.36015758,4.3007755,4.655507,-1.4492257,-1.0874348,-4.0892963,-10.409989,-5.8801594
0.35963202,4.306259,4.8653646,-1.5131415,-1.1854391,-3.9264908,-10.295067,-5.9567738
0.3590993,4.3117294,4.8653646,-1.5131415,-1.1854391,-3.9264908,-10.295067,-5.9567738
0.35849157,4.317413,5.0635037,-1.5696005,-1.2802477,-3.8594532,-10.247183,-5.9519854
0.35787812,4.3230643,5.0635037,-1.5696005,-1.2802477,-3.8594532,-10.247183,-5.9519854
0.35718286,4.3289795,5.2488594,-1.6175374,-1.3718604,-3.845088,-10.184934,-5.875371
0.3564825,4.33485,5.2488594,-1.6175374,-1.3718604,-3.845088,-10.184934,-5.875371
0.3556973,4.3409586,5.4224977,-1.6590827,-1.4613426,-3.7972038,-10.146626,-5.932832
0.3549083,4.3470087,5.4224977,-1.6590827,-1.4613426,-3.7972038,-10.146626,-5.932832
0.35403234,4.3532877,5.5822873,-1.6931711,-1.5444332,-3.7301662,-10.127473,-5.8083334
0.35314846,4.3595366,5.5822873,-1.6931711,-1.5444332,-3.7301662,-10.127473,-5.8083334
0.35217178,4.365955,5.7271633,-1.7198027,-1.624328,-3.4045548,-10.022128,-5.6886234
0.3511833,4.372368,5.7271633,-1.7198027,-1.624328,-3.4045548,-10.022128,-5.6886234
0.35009313,4.378928,5.8571258,-1.7379123,-1.7020924,-2.944868,-9.974244,-5.449203
0.34899437,4.3854628,5.8571258,-1.7379123,-1.7020924,-2.944868,-9.974244,-5.449203
0.34778267,4.3921676,5.9743047,-1.7400428,-1.7745304,-2.3415294,-9.80665,-5.118803
0.34656265,4.398845,5.9743047,-1.7400428,-1.7745304,-2.3415294,-9.80665,-5.118803
0.34523132,4.4056497,6.080831,-1.7261944,-1.8512294,-1.7429788,-9.548077,-4.88896
0.34389183,4.4124255,6.080831,-1.7261944,-1.8512294,-1.7429788,-9.548077,-4.88896
0.34243238,4.419312,6.176705,-1.6963669,-1.93432,-1.2114661,-9.270349,-4.572925
0.34096768,4.4261556,6.176705,-1.6963669,-1.93432,-1.2114661,-9.270349,-4.572925
0.3393743,4.4331226,6.2629914,-1.6516259,-2.0238023,-0.8810662,-8.90643,-4.367024
0.33777297,4.4400597,6.2629914,-1.6516259,-2.0238023,-0.8810662,-8.90643,-4.367024
0.33604345,4.447062,6.3364944,-1.5941015,-2.119676,-0.6703765,-8.561666,-4.098873
0.3343102,4.4540195,6.3364944,-1.5941015,-2.119676,-0.6703765,-8.561666,-4.098873
0.33242336,4.461085,6.394019,-1.531251,-2.2219415,-0.5554548,-8.327033,-3.6774938
0.33053586,4.468097,6.394019,-1.531251,-2.2219415,-0.5554548,-8.327033,-3.6774938
0.32851064,4.4751334,6.434499,-1.4630741,-2.3231416,-0.5410896,-8.192958,-3.1364043
0.32647175,4.4821653,6.434499,-1.4630741,-2.3231416,-0.5410896,-8.192958,-3.1364043
0.3242835,4.48925,6.459,-1.3938318,-2.4232764,-0.60812724,-8.1642275,-2.4947581
0.32209438,4.4962864,6.459,-1.3938318,-2.4232764,-0.60812724,-8.1642275,-2.4947581
0.31976688,4.503373,6.4728484,-1.3277855,-2.518085,-0.545878,-7.9870567,-1.9680338
0.31743625,4.510418,6.4728484,-1.3277855,-2.518085,-0.545878,-7.9870567,-1.9680338
0.31499782,4.517472,6.470718,-1.2649349,-2.6011755,-0.2873042,-7.7811556,-1.4413095
0.3125538,4.5244913,6.470718,-1.2649349,-2.6011755,-0.2873042,-7.7811556,-1.4413095
0.31000325,4.5315332,6.4526086,-1.2031496,-2.6778746,-0.45968673,-7.326257,-0.9864111
0.3074983,4.5384007,6.4526086,-1.2031496,-2.6778746,-0.45968673,-7.326257,-0.9864111
0.3048569,4.545389,6.409998,-1.1498863,-2.7449863,-0.30166942,-7.019799,-0.5746084
0.30216816,4.5524545,6.409998,-1.1498863,-2.7449863,-0.30166942,-7.019799,-0.5746084
0.2994615,4.559337,6.345017,-1.10408,-2.8025105,-0.04309563,-6.703765,-0.095768064
0.29677,4.5661397,6.345017,-1.10408,-2.8025105,-0.04309563,-6.703765,-0.095768064
0.29399693,4.5729327,6.257665,-1.0604041,-2.8493822,0.30166942,-6.5744777,0.51714754
0.29122114,4.5796947,6.257665,-1.0604041,-2.8493822,0.30166942,-6.5744777,0.51714754
0.28839305,4.586337,6.147943,-1.0167283,-2.8856013,1.1492168,-6.4739213,1.0965444
0.285572,4.5929294,6.147943,-1.0167283,-2.8856013,1.1492168,-6.4739213,1.0965444
0.28270102,4.599404,6.019046,-0.96772605,-2.9122329,1.4269443,-6.3781533,1.4700398
0.2798237,4.6058626,6.019046,-0.96772605,-2.9122329,1.4269443,-6.3781533,1.4700398
0.27692375,4.6121507,5.87417,-0.9165934,-2.9324727,1.3551182,-6.253655,1.8052281
0.27400678,4.6184487,5.87417,-0.9165934,-2.9324727,1.3551182,-6.253655,1.8052281
0.27107692,4.624565,5.717576,-0.8697218,-2.9441907,1.3742718,-6.157887,2.207454
0.26809865,4.6307583,5.717576,-0.8697218,-2.9441907,1.3742718,-6.157887,2.207454
0.26491106,4.6371794,5.5503297,-0.8324375,-2.9463212,1.316811,-6.042965,2.633622
0.26226637,4.6424875,5.5503297,-0.8324375,-2.9463212,1.316811,-6.042965,2.633622
0.2593484,4.648174,5.3734956,-0.80580586,-2.9377992,1.3024458,-5.884948,3.1316159
0.25641555,4.65387,5.3734956,-0.80580586,-2.9377992,1.3024458,-5.884948,3.1316159
0.25350636,4.659373,5.19027,-0.7908922,-2.9143634,1.3503298,-5.7748146,3.6822822
0.25057995,4.664891,5.19027,-0.7908922,-2.9143634,1.3503298,-5.7748146,3.6822822
0.24769631,4.670197,5.0038486,-0.78556585,-2.8792095,1.4269443,-5.645528,4.1276035
0.24480462,4.6755023,5.0038486,-0.78556585,-2.8792095,1.4269443,-5.645528,4.1276035
0.24195366,4.6806245,4.8121014,-0.7866311,-2.829142,1.4700398,-5.521029,4.55856
0.23910931,4.6857204,4.8121014,-0.7866311,-2.829142,1.4700398,-5.521029,4.55856
0.23633653,4.6906033,4.618223,-0.79515326,-2.7652264,1.4891934,-5.434838,4.9799395
0.23353142,4.69553,4.618223,-0.79515326,-2.7652264,1.4891934,-5.434838,4.9799395
0.23082542,4.700215,4.4190187,-0.8068711,-2.687462,1.460463,-5.056554,5.1666875
0.22810712,4.704909,4.4190187,-0.8068711,-2.687462,1.460463,-5.056554,5.1666875
0.22547467,4.709389,4.2112923,-0.8175238,-2.5958493,1.9201498,-4.6160207,5.363012
0.2228462,4.7138515,4.2112923,-0.8175238,-2.5958493,1.9201498,-4.6160207,5.363012
0.22031844,4.718098,3.9865212,-0.81858903,-2.489323,1.6280571,-4.1706996,5.48751
0.21778966,4.722337,3.9865212,-0.81858903,-2.489323,1.6280571,-4.1706996,5.48751
0.21778966,4.722337,3.7415104,-0.8207196,-2.368948,1.7429788,-3.8307228,5.6551046
0.21277626,4.7306204,3.7415104,-0.8207196,-2.368948,1.7429788,-3.8307228,5.6551046
0.2105747,4.734192,3.4773247,-0.8260459,-2.240051,2.1643584,-3.6535518,5.8801594
0.20831296,4.7378526,3.4773247,-0.8260459,-2.240051,2.1643584,-3.6535518,5.8801594
0.20615512,4.74128,3.1939645,-0.8196543,-2.0983708,2.4756045,-3.3901896,6.0956373
0.20615512,4.74128,3.1939645,-0.8196543,-2.0983708,2.4756045,-3.3901896,6.0956373
0.20224509,4.7473507,2.8946252,-0.798349,-1.9481685,2.480393,-3.2225955,6.2728086
0.20007144,4.7507153,2.8946252,-0.798349,-1.9481685,2.480393,-3.2225955,6.2728086
0.1983098,4.753374,2.5771763,-0.76532584,-1.785183,2.3415294,-3.1364043,6.4068837
0.19647042,4.7561455,2.5771763,-0.76532584,-1.785183,2.3415294,-3.1364043,6.4068837
0.19479656,4.7585917,2.2458792,-0.72484577,-1.6126101,2.1260512,-3.2034419,6.540959
0.19312446,4.761031,2.2458792,-0.72484577,-1.6126101,2.1260512,-3.2034419,6.540959
0.19163245,4.7631216,1.9007335,-0.68436575,-1.4336457,1.8100165,-3.3279405,6.5696893
0.1901377,4.765213,1.9007335,-0.68436575,-1.4336457,1.8100165,-3.3279405,6.5696893
0.18883486,4.7669425,1.5502614,-0.64814675,-1.2482897,1.5466543,-3.2848446,6.4404025
0.18752317,4.7686815,1.5502614,-0.64814675,-1.2482897,1.5466543,-3.2848446,6.4404025
0.18640062,4.77005,1.1891367,-0.6151235,-1.0576074,1.9728222,-3.169923,6.4404025
0.18527612,4.7714195,1.1891367,-0.6151235,-1.0576074,1.9728222,-3.169923,6.4404025
0.18435386,4.7724013,0.81522894,-0.58210033,-0.8605335,2.3223755,-3.4332852,6.6989765
0.18342914,4.7733846,0.81522894,-0.58210033,-0.8605335,2.3223755,-3.4332852,6.6989765
0.18271784,4.7739825,0.43386427,-0.5235108,-0.6528069,1.5658079,-3.9504328,6.4643445
0.18200618,4.7745805,0.43386427,-0.5235108,-0.6528069,1.5658079,-3.9504328,6.4643445
0.18149528,4.7747946,0.05782592,-0.47344336,-0.4514719,1.7621324,-4.036624,6.2967505
0.1809833,4.7750087,0.05782592,-0.47344336,-0.4514719,1.7621324,-4.036624,6.2967505
0.18066224,4.774848,-0.30862504,-0.42763698,-0.2597243,2.1547816,-3.7972038,6.0381765
0.18033898,4.774686,-0.30862504,-0.42763698,-0.2597243,2.1547816,-3.7972038,6.0381765
0.18020765,4.774133,-0.675076,-0.36265585,-0.06904196,2.078167,-3.5098996,5.57849
0.18008001,4.773595,-0.675076,-0.36265585,-0.06904196,2.078167,-3.5098996,5.57849
0.18014672,4.7727013,-1.0489838,-0.2838263,0.12483617,2.1308396,-3.3662477,5.267244
0.18021587,4.771779,-1.0489838,-0.2838263,0.12483617,2.1308396,-3.3662477,5.267244
0.18047912,4.7704663,-1.4250222,-0.19753987,0.31764904,2.1978772,-3.5769374,4.984728
0.18074264,4.7691536,-1.4250222,-0.19753987,0.31764904,2.1978772,-3.5769374,4.984728
0.1811966,4.767451,-1.7999953,-0.10273133,0.5072661,2.0398598,-3.9073372,4.4340615
0.18165135,4.7657466,-1.7999953,-0.10273133,0.5072661,2.0398598,-3.9073372,4.4340615
0.18229404,4.7636604,-2.165381,-0.00046594674,0.6936874,1.910573,-4.2664676,4.0701427
0.18293774,4.761572,-2.165381,-0.00046594674,0.6936874,1.910573,-4.2664676,4.0701427
0.18375365,4.759118,-2.5169182,0.100734174,0.86945605,1.910573,-4.7261543,3.7014358
0.18457049,4.756662,-2.5169182,0.100734174,0.86945605,1.910573,-4.7261543,3.7014358
0.1855497,4.753849,-2.854607,0.2051301,1.0324415,1.7860745,-5.2289367,3.4141316
0.18652874,4.7510357,-2.854607,0.2051301,1.0324415,1.7860745,-5.2289367,3.4141316
0.18766487,4.747888,-3.1699255,0.3159176,1.18797,1.5131354,-5.7748146,3.193865
0.18894798,4.7443295,-3.1699255,0.3159176,1.18797,1.5131354,-5.7748146,3.193865
0.19006681,4.741304,-3.4650037,0.43096617,1.3349766,1.2641385,-6.349423,2.9113493
0.19134486,4.7378435,-3.4650037,0.43096617,1.3349766,1.2641385,-6.349423,2.9113493
0.19277103,4.7340755,-3.7345154,0.5460147,1.4755915,0.79008657,-6.8569937,2.5570073
0.19418868,4.730324,-3.7345154,0.5460147,1.4755915,0.79008657,-6.8569937,2.5570073
0.19573653,4.7263002,-3.9763305,0.65467167,1.6087495,0.4165911,-7.311892,2.0685902
0.19728251,4.722274,-3.9763305,0.65467167,1.6087495,0.4165911,-7.311892,2.0685902
0.1989473,4.7180085,-4.1925793,0.7569371,1.7355161,0.038307227,-7.73806,1.5993267
0.20060965,4.7137403,-4.1925793,0.7569371,1.7355161,0.038307227,-7.73806,1.5993267
0.20238008,4.7092566,-4.3832617,0.84854984,1.8580215,-0.34955344,-8.130709,1.0630256
0.20414798,4.7047696,-4.3832617,0.84854984,1.8580215,-0.34955344,-8.130709,1.0630256
0.20601323,4.7000895,-4.5515733,0.92950994,1.9709395,-0.6895301,-8.384495,0.6512229
0.20787796,4.695402,-4.5515733,0.92950994,1.9709395,-0.6895301,-8.384495,0.6512229
0.20981896,4.690542,-4.69858,0.9998174,2.077466,-0.866701,-8.556877,0.2777274
0.21175966,4.6856756,-4.69858,0.9998174,2.077466,-0.866701,-8.556877,0.2777274
0.21376869,4.6806383,-4.8221507,1.0616027,2.174405,-1.091756,-8.7532015,-0.076614454
0.21577512,4.6756024,-4.8221507,1.0616027,2.174405,-1.091756,-8.7532015,-0.076614454
0.21786298,4.6703725,-4.9265466,1.1180618,2.2649524,-1.1827357,-8.963891,-0.545878
0.21994074,4.6651454,-4.9265466,1.1180618,2.2649524,-1.1827357,-8.963891,-0.545878
0.22211935,4.659772,-5.012833,1.1691945,2.3427167,-1.2066777,-9.203311,-1.0103531
0.22428583,4.6543975,-5.012833,1.1691945,2.3427167,-1.2066777,-9.203311,-1.0103531
0.22655375,4.6489077,-5.0842056,1.2181966,2.4098284,-1.5275006,-9.414001,-1.4413095
0.22880928,4.6434135,-5.0842056,1.2181966,2.4098284,-1.5275006,-9.414001,-1.4413095
0.23113294,4.63783,-5.14173,1.2640029,2.4641569,-1.6759412,-9.667787,-1.9153614
0.23344031,4.632252,-5.14173,1.2640029,2.4641569,-1.6759412,-9.667787,-1.9153614
0.23580302,4.6266017,-5.1886015,1.2991567,2.5110285,-1.9009962,-9.854534,-2.2649148
0.23815435,4.620944,-5.1886015,1.2991567,2.5110285,-1.9009962,-9.854534,-2.2649148
0.24054754,4.6152353,-5.22269,1.3289841,2.552574,-2.1164744,-10.084377,-2.585738
0.2429292,4.609519,-5.22269,1.3289841,2.552574,-2.1164744,-10.084377,-2.585738
0.24534814,4.6037583,-5.2461257,1.3502893,2.5845318,-2.3942018,-10.223241,-2.9161377
0.2477508,4.5980015,-5.2461257,1.3502893,2.5845318,-2.3942018,-10.223241,-2.9161377
0.25017855,4.5922165,-5.2567782,1.3598768,2.6090329,-2.6144683,-10.352529,-3.1842883
0.2525949,4.5864234,-5.2567782,1.3598768,2.6090329,-2.6144683,-10.352529,-3.1842883
0.2550254,4.580627,-5.252517,1.356681,2.6303382,-2.743755,-10.55843,-3.3039982
0.25744435,4.5748224,-5.252517,1.356681,2.6303382,-2.743755,-10.55843,-3.3039982
0.25987208,4.5690317,-5.2322774,1.3449631,2.6473825,-2.825158,-10.7356,-3.5529952
0.26228815,4.5632334,-5.2322774,1.3449631,2.6473825,-2.825158,-10.7356,-3.5529952
0.2647084,4.557455,-5.1971235,1.3268535,2.6591003,-2.8107927,-10.927136,-3.6631286
0.2671118,4.5516796,-5.1971235,1.3268535,2.6591003,-2.8107927,-10.927136,-3.6631286
0.26950517,4.5459614,-5.1449256,1.3034178,2.6644266,-2.753332,-11.070788,-3.7588966
0.27188644,4.540235,-5.1449256,1.3034178,2.6644266,-2.753332,-11.070788,-3.7588966
0.27426165,4.534567,-5.0746183,1.2757208,2.6601655,-2.7964275,-11.21444,-3.8786068
0.2766199,4.5289025,-5.0746183,1.2757208,2.6601655,-2.7964275,-11.21444,-3.8786068
0.27895752,4.5233226,-4.9872665,1.2416325,2.6473825,-2.6767175,-11.252748,-4.0653543
0.281283,4.517735,-4.9872665,1.2416325,2.6473825,-2.6767175,-11.252748,-4.0653543
0.2835862,4.512254,-4.883936,1.2054135,2.6271424,-2.72939,-11.324574,-4.175488
0.28587973,4.50676,-4.883936,1.2054135,2.6271424,-2.72939,-11.324574,-4.175488
0.28813657,4.5013995,-4.766757,1.167064,2.5994456,-2.7006595,-11.377247,-4.261679
0.29038367,4.4960275,-4.766757,1.167064,2.5994456,-2.7006595,-11.377247,-4.261679
0.29259932,4.490788,-4.6357293,1.123388,2.5642917,-2.767697,-11.45865,-4.3382936
0.29479894,4.4855523,-4.6357293,1.123388,2.5642917,-2.767697,-11.45865,-4.3382936
0.2969541,4.480464,-4.494049,1.0775816,2.5206158,-2.753332,-11.568783,-4.3382936
0.2990933,4.47538,-4.494049,1.0775816,2.5206158,-2.753332,-11.568783,-4.3382936
0.30118474,4.4704514,-4.3417163,1.0275142,2.468418,-2.7581203,-11.717223,-4.3861775
0.30326286,4.465523,-4.3417163,1.0275142,2.468418,-2.7581203,-11.717223,-4.3861775
0.30530292,4.460762,-4.175535,0.9710552,2.411959,-2.8921957,-11.779472,-4.5537715
0.30733025,4.4560013,-4.175535,0.9710552,2.411959,-2.8921957,-11.779472,-4.5537715
0.3093086,4.451436,-3.9976358,0.90713936,2.3501737,-3.0597897,-12.014104,-4.6351743
0.31127664,4.446866,-3.9976358,0.90713936,2.3501737,-3.0597897,-12.014104,-4.6351743
0.31321117,4.442502,-3.8069534,0.83470136,2.283062,-3.3327289,-11.9135475,-4.855441
0.31513655,4.4381332,-3.8069534,0.83470136,2.283062,-3.3327289,-11.9135475,-4.855441
0.31700653,4.4339952,-3.603488,0.7505455,2.2116892,-3.1794999,-11.865664,-5.133168
0.31886843,4.4298525,-3.603488,0.7505455,2.2116892,-3.1794999,-11.865664,-5.133168
0.32071307,4.425946,-3.3883047,0.66106325,2.142447,-3.5769374,-11.496957,-5.66947
0.3225512,4.4220343,-3.3883047,0.66106325,2.142447,-3.5769374,-11.496957,-5.66947
0.3243028,4.418393,-3.1667297,0.55986315,2.070009,-3.098097,-12.368446,-5.482722
0.3260476,4.4147487,-3.1667297,0.55986315,2.070009,-3.098097,-12.368446,-5.482722
0.32774225,4.4113846,-2.9249146,0.45759776,1.9943753,-3.241749,-12.847286,-5.602432
0.32943097,4.408018,-2.9249146,0.45759776,1.9943753,-3.241749,-12.847286,-5.602432
0.33106288,4.404962,-2.6543374,0.36172396,1.9176762,-3.1794999,-13.239936,-5.731719
0.33268976,4.4019046,-2.6543374,0.36172396,1.9176762,-3.1794999,-13.239936,-5.731719
0.3343682,4.3991528,-2.3539329,0.2711765,1.8484341,-5.0182467,-13.024457,-6.4308257
0.3360431,4.396397,-2.3539329,0.2711765,1.8484341,-5.0182467,-13.024457,-6.4308257
0.33765998,4.394009,-2.032223,0.1539974,1.7759961,-4.357447,-12.6222315,-6.775591
0.33927384,4.3916183,-2.032223,0.1539974,1.7759961,-4.357447,-12.6222315,-6.775591
0.34083852,4.3896136,-1.701991,0.017643549,1.7014276,-3.9552212,-12.765883,-6.6510925
0.34240067,4.3876076,-1.701991,0.017643549,1.7014276,-3.9552212,-12.765883,-6.6510925
0.34392115,4.3859873,-1.3674979,-0.105927125,1.6236633,-3.845088,-12.74673,-6.5601125
0.34543976,4.384365,-1.3674979,-0.105927125,1.6236633,-3.845088,-12.74673,-6.5601125
0.34690306,4.3831334,-1.0276786,-0.21777989,1.5373769,-3.7588966,-12.871228,-6.435614
0.3483647,4.3819013,-1.0276786,-0.21777989,1.5373769,-3.7588966,-12.871228,-6.435614
0.3497534,4.3810678,-0.6825329,-0.31898,1.4425683,-3.7062242,-13.2351465,-6.220136
0.35114095,4.380234,-0.6825329,-0.31898,1.4425683,-3.7062242,-13.2351465,-6.220136
0.35241854,4.3798428,-0.32353875,-0.4191149,1.3339113,-3.5913026,-14.159308,-5.693412
0.35371736,4.3794456,-0.32353875,-0.4191149,1.3339113,-3.5913026,-14.159308,-5.693412
0.3549554,4.3794475,0.058891185,-0.50327075,1.2209933,-4.3143516,-13.900735,-5.9759274
0.35616556,4.37945,0.058891185,-0.50327075,1.2209933,-4.3143516,-13.900735,-5.9759274
0.35736263,4.379874,0.4604959,-0.59168774,1.1016836,-4.960786,-13.508086,-6.5218053
0.35856438,4.380302,0.4604959,-0.59168774,1.1016836,-4.960786,-13.508086,-6.5218053
0.35968623,4.3811865,0.86742693,-0.69501835,0.9802435,-4.7644615,-13.168109,-7.005434
0.36080727,4.3820715,0.86742693,-0.69501835,0.9802435,-4.7644615,-13.168109,-7.005434
0.36183593,4.383417,1.2700969,-0.8068711,0.85134655,-4.4819455,-13.062764,-7.3549876
0.36286375,4.384763,1.2700969,-0.8068711,0.85134655,-4.4819455,-13.062764,-7.3549876
0.36378345,4.386564,1.6674405,-0.9155281,0.7139274,-3.9743748,-12.899959,-7.5561004
0.36470386,4.3883696,1.6674405,-0.9155281,0.7139274,-3.9743748,-12.899959,-7.5561004
0.36551893,4.3906155,2.056262,-1.0124671,0.57118195,-3.8259344,-12.5743475,-7.6949644
0.36633173,4.3928595,2.056262,-1.0124671,0.57118195,-3.8259344,-12.5743475,-7.6949644
0.36702955,4.3955326,2.4344308,-1.0944926,0.42097968,-3.8067808,-12.301409,-7.728483
0.36772534,4.3982067,2.4344308,-1.0944926,0.42097968,-3.8067808,-12.301409,-7.728483
0.36830452,4.4012938,2.7998166,-1.1679958,0.26864687,-3.916914,-11.822568,-7.608773
0.36888033,4.4043784,2.7998166,-1.1679958,0.26864687,-3.916914,-11.822568,-7.608773
0.3693245,4.4078493,3.148158,-1.2383033,0.10992247,-3.892972,-11.525687,-7.5561004
0.36976695,4.4113355,3.148158,-1.2383033,0.10992247,-3.892972,-11.525687,-7.5561004
0.37006977,4.4151883,3.4773247,-1.3043497,-0.050932467,-3.8307228,-11.319786,-7.2831616
0.37036818,4.4190416,3.4773247,-1.3043497,-0.050932467,-3.8307228,-11.319786,-7.2831616
0.370524,4.4232464,3.7894473,-1.3586781,-0.21072213,-3.8881836,-11.434708,-7.120356
0.37067455,4.4274516,3.7894473,-1.3586781,-0.21072213,-3.8881836,-11.434708,-7.120356
0.37068617,4.431992,4.089852,-1.406615,-0.36625075,-4.050989,-11.530476,-6.95755
0.3701974,4.451449,4.657638,-1.5024889,-0.6762427,-4.6112323,-11.602302,-7.177817
0.3701974,4.451449,4.657638,-1.5024889,-0.6762427,-4.6112323,-11.602302,-7.177817
0.3701974,4.451449,4.657638,-1.5024889,-0.6762427,-4.6112323,-11.602302,-7.177817
0.3701974,4.451449,4.657638,-1.5024889,-0.6762427,-4.6112323,-11.602302,-7.177817
0.36991638,4.4566097,4.657638,-1.5024889,-0.6762427,-4.6112323,-11.602302,-7.177817
0.36949977,4.4621506,4.9228888,-1.5589478,-0.8253797,-4.960786,-11.554418,-7.4268136
0.36907825,4.4676347,4.9228888,-1.5589478,-0.8253797,-4.960786,-11.554418,-7.4268136
0.36848617,4.473926,5.1764216,-1.6249943,-0.9638641,-5.21936,-11.429919,-7.503428
0.3679983,4.479013,5.1764216,-1.6249943,-0.9638641,-5.21936,-11.429919,-7.503428
0.36735085,4.4849157,5.4224977,-1.6963669,-1.0938264,-5.6407394,-11.3964,-7.551312
0.3666783,4.490942,5.4224977,-1.6963669,-1.0938264,-5.6407394,-11.3964,-7.551312
0.3658987,4.497252,5.6632476,-1.7720008,-1.2173971,-6.0956373,-11.415554,-7.5465236
0.36509642,4.5036397,5.6632476,-1.7720008,-1.2173971,-6.0956373,-11.415554,-7.5465236
0.36421108,4.510146,5.901867,-1.8529608,-1.326054,-6.033388,-11.377247,-7.469909
0.36330333,4.5167146,5.901867,-1.8529608,-1.326054,-6.033388,-11.377247,-7.469909
0.36330333,4.5167146,5.901867,-1.8529608,-1.326054,-6.033388,-11.377247,-7.469909
0.36127427,4.530393,6.13729,-1.9317904,-1.4240583,-5.803545,-11.401189,-7.2783732
0.36016342,4.5374336,6.3684525,-2.007424,-1.5156711,-5.463568,-11.468226,-7.0341644
0.35902828,4.5445247,6.3684525,-2.007424,-1.5156711,-5.463568,-11.468226,-7.0341644
0.3577001,4.5524607,6.595354,-2.0745358,-1.6008923,-5.2289367,-11.401189,-6.919243
0.35655463,4.559209,6.595354,-2.0745358,-1.6008923,-5.2289367,-11.401189,-6.919243
0.35521355,4.5667753,6.8158636,-2.1309948,-1.6871786,-4.9416323,-11.209652,-6.871359
0.3538554,4.574334,6.8158636,-2.1309948,-1.6871786,-4.9416323,-11.209652,-6.871359
0.35239416,4.582128,7.0299816,-2.175736,-1.7755957,-4.687847,-10.912771,-6.6893997
0.35091496,4.5899134,7.0299816,-2.175736,-1.7755957,-4.687847,-10.912771,-6.6893997
0.34932807,4.597909,7.232382,-2.2098243,-1.8661431,-4.280833,-10.371682,-6.2967505
0.347721,4.6059036,7.232382,-2.2098243,-1.8661431,-4.280833,-10.371682,-6.2967505
0.34600708,4.614073,7.421999,-2.227934,-1.95456,-3.7780502,-9.792285,-5.6886234
0.34427252,4.6222396,7.421999,-2.227934,-1.95456,-3.7780502,-9.792285,-5.6886234
0.34241623,4.6305776,7.597768,-2.2300644,-2.0483034,-3.1890767,-9.289502,-4.9320555
0.3405409,4.638905,7.597768,-2.2300644,-2.0483034,-3.1890767,-9.289502,-4.9320555
0.3385295,4.64738,7.7575574,-2.2130203,-2.1484382,-2.4995465,-8.858546,-4.1371803
0.3364994,4.6558437,7.7575574,-2.2130203,-2.1484382,-2.4995465,-8.858546,-4.1371803
0.3343238,4.664425,7.8939114,-2.1746707,-2.2517688,-1.8291701,-8.508993,-3.4093432
0.33209974,4.673114,7.8939114,-2.1746707,-2.2517688,-1.8291701,-8.508993,-3.4093432
0.32977426,4.6816516,8.0036335,-2.1171465,-2.361491,-1.0103531,-8.2169,-2.5905263
0.3274017,4.6902885,8.0036335,-2.1171465,-2.361491,-1.0103531,-8.2169,-2.5905263
0.32485586,4.698993,8.0792675,-2.0404475,-2.4765396,-0.35434186,-7.762002,-1.6998832
0.32229722,4.707674,8.0792675,-2.0404475,-2.4765396,-0.35434186,-7.762002,-1.6998832
0.31957102,4.7163935,8.113356,-1.9392473,-2.5937188,-0.1340753,-7.321469,-0.79008657
0.3168271,4.7251043,8.113356,-1.9392473,-2.5937188,-0.1340753,-7.321469,-0.79008657
0.31395352,4.7338037,8.103768,-1.8231335,-2.7098324,0.45010993,-6.95755,0.37828386
0.31106642,4.7424774,8.103768,-1.8231335,-2.7098324,0.45010993,-6.95755,0.37828386
0.308079,4.751093,8.048374,-1.6910406,-2.82062,1.1109096,-6.5696893,1.5370775
0.30508265,4.759677,8.048374,-1.6910406,-2.82062,1.1109096,-6.5696893,1.5370775
0.3020003,4.76812,7.9461093,-1.5376426,-2.9228854,1.5562311,-6.2249246,2.7341783
0.29890522,4.776551,7.9461093,-1.5376426,-2.9228854,1.5562311,-6.2249246,2.7341783
0.2957356,4.7847767,7.800168,-1.370396,-3.0155635,1.8579005,-5.8562174,3.9073372
0.29255262,4.792999,7.800168,-1.370396,-3.0155635,1.8579005,-5.8562174,3.9073372
0.2893104,4.800953,7.611616,-1.1967579,-3.0965235,2.030283,-5.583278,4.7548847
0.28605372,4.8089128,7.611616,-1.1967579,-3.0965235,2.030283,-5.583278,4.7548847
0.28274867,4.816576,7.3836493,-1.0295115,-3.1657658,2.336741,-5.3438582,5.78918
0.27944115,4.824222,7.3836493,-1.0295115,-3.1657658,2.336741,-5.3438582,5.78918
0.2760934,4.8315554,7.1183987,-0.870787,-3.2243552,2.2649148,-4.960786,6.612785
0.27274162,4.8388805,7.1183987,-0.870787,-3.2243552,2.2649148,-4.960786,6.612785
0.26936063,4.845853,6.817994,-0.725911,-3.2701616,3.1364043,-4.3861775,7.575254
0.26597732,4.8528175,6.817994,-0.725911,-3.2701616,3.1364043,-4.3861775,7.575254
0.26259327,4.859405,6.483501,-0.58742666,-3.2989237,2.432509,-3.8259344,8.130709
0.259205,4.8659935,6.483501,-0.58742666,-3.2989237,2.432509,-3.8259344,8.130709
0.25583258,4.872163,6.115985,-0.46705177,-3.3127723,2.4037786,-3.289633,8.8777
0.25245696,4.878334,6.115985,-0.46705177,-3.3127723,2.4037786,-3.289633,8.8777
0.24909797,4.88408,5.720772,-0.3765043,-3.3095765,3.3279405,-2.9640217,9.883265
0.24573983,4.889822,5.720772,-0.3765043,-3.3095765,3.3279405,-2.9640217,9.883265
0.24241592,4.8951254,5.306384,-0.29341367,-3.2893364,4.1132383,-2.834735,10.79785
0.23909345,4.900425,5.306384,-0.29341367,-3.2893364,4.1132383,-2.834735,10.79785
0.2358238,4.905264,4.876017,-0.1996704,-3.2552478,5.33907,-2.504335,11.616667
0.23255275,4.910105,4.876017,-0.1996704,-3.2552478,5.33907,-2.504335,11.616667
0.22934447,4.914481,4.4307365,-0.093143955,-3.210507,5.9759274,-2.8060043,12.703634
0.2261418,4.918852,4.4307365,-0.093143955,-3.210507,5.9759274,-2.8060043,12.703634
0.22304343,4.9227467,3.9801297,0.046405688,-3.14233,4.31914,-3.2465374,12.679692
0.21994764,4.9266405,3.9801297,0.046405688,-3.14233,4.31914,-3.2465374,12.679692
0.21695355,4.930079,3.5412407,0.15932372,-3.0624352,4.333505,-3.2513258,12.684481
0.21396814,4.933511,3.5412407,0.15932372,-3.0624352,4.333505,-3.2513258,12.684481
0.21108499,4.9365015,3.1130044,0.24774067,-2.9729528,5.386954,-2.8060043,12.703634
0.20820443,4.939493,3.1130044,0.24774067,-2.9729528,5.386954,-2.8060043,12.703634
0.20544423,4.942053,2.6773112,0.34787554,-2.860035,4.630386,-1.8243817,12.018892
0.20239083,4.944889,2.6773112,0.34787554,-2.860035,4.630386,-1.8243817,12.018892
0.20006865,4.9467688,2.2235086,0.45866305,-2.7140937,4.237737,-1.4221559,11.860875
0.19755092,4.9488096,2.2235086,0.45866305,-2.7140937,4.237737,-1.4221559,11.860875
0.19518672,4.950399,1.7494658,0.5545368,-2.5436513,4.295198,-1.2737153,11.865664
0.1928124,4.951998,1.7494658,0.5545368,-2.5436513,4.295198,-1.2737153,11.865664
0.19066289,4.953102,1.2637053,0.65254116,-2.344447,3.9025488,-1.0103531,11.511322
0.18850826,4.954211,1.2637053,0.65254116,-2.344447,3.9025488,-1.0103531,11.511322
0.1866106,4.9548225,0.77261835,0.7441539,-2.1175456,3.2082303,-0.81402856,11.09473
0.18470229,4.9554386,0.77261835,0.7441539,-2.1175456,3.2082303,-0.81402856,11.09473
0.18305852,4.955561,0.27940091,0.8165919,-1.8714694,2.825158,-0.6560113,10.749966
0.1814149,4.9556856,0.27940091,0.8165919,-1.8714694,2.825158,-0.6560113,10.749966
0.18004207,4.955327,-0.2084902,0.8677246,-1.6094143,2.7246015,-0.6368576,10.409989
0.17865916,4.954968,-0.2084902,0.8677246,-1.6094143,2.7246015,-0.6368576,10.409989
0.17755353,4.9541388,-0.6867939,0.9060741,-1.3367066,2.6862943,-0.78529817,10.242394
0.17645472,4.953316,-0.6867939,0.9060741,-1.3367066,2.6862943,-0.78529817,10.242394
0.1756277,4.952036,-1.1512493,0.93483627,-1.0576074,2.5330653,-1.13964,10.170568
0.17479181,4.9507456,-1.1512493,0.93483627,-1.0576074,2.5330653,-1.13964,10.170568
0.17423932,4.949029,-1.5965297,0.9550763,-0.7753123,2.2649148,-1.7669208,10.036493
0.173685,4.9473133,-1.5965297,0.9550763,-0.7753123,2.2649148,-1.7669208,10.036493
0.17340392,4.9451923,-2.0194397,0.9604026,-0.49408248,2.0111294,-2.5617957,10.031705
0.17311966,4.9430623,-2.0194397,0.9604026,-0.49408248,2.0111294,-2.5617957,10.031705
0.17309833,4.9405603,-2.4103918,0.9486847,-0.21817899,1.8770541,-3.4572272,9.950302
0.17307454,4.9380484,-2.4103918,0.9486847,-0.21817899,1.8770541,-3.4572272,9.950302
0.17330064,4.935198,-2.769386,0.9188573,0.05026766,2.0350714,-4.19943,9.89763
0.17352386,4.932353,-2.769386,0.9188573,0.05026766,2.0350714,-4.19943,9.89763
0.17399032,4.929176,-3.0921612,0.8794425,0.3101922,2.1787236,-4.9703627,9.921572
0.17444429,4.9260674,-3.0921612,0.8794425,0.3101922,2.1787236,-4.9703627,9.921572
0.17513248,4.9226456,-3.3808477,0.8378972,0.5583988,2.2457612,-5.683835,9.758766
0.17581975,4.919216,-3.3808477,0.8378972,0.5583988,2.2457612,-5.683835,9.758766
0.1767174,4.9155664,-3.6343806,0.7984824,0.79062647,2.1547816,-6.4164605,9.490616
0.17761926,4.911889,-3.6343806,0.7984824,0.79062647,2.1547816,-6.4164605,9.490616
0.17872296,4.9080176,-3.853825,0.7622634,1.0090057,1.8195933,-6.9767036,9.074024
0.17982467,4.904145,-3.853825,0.7622634,1.0090057,1.8195933,-6.9767036,9.074024
0.18111807,4.900108,-4.039181,0.7271097,1.215667,1.4173675,-7.4986396,8.561666
0.1824149,4.896053,-4.039181,0.7271097,1.215667,1.4173675,-7.4986396,8.561666
0.18388876,4.8918657,-4.1925793,0.6898254,1.4063493,0.91458505,-7.9248075,7.8386164
0.1853609,4.8876767,-4.1925793,0.6898254,1.4063493,0.91458505,-7.9248075,7.8386164
0.18699034,4.8833895,-4.312954,0.6450843,1.5778569,0.4261679,-8.360553,7.144298
0.1886248,4.8790836,-4.312954,0.6450843,1.5778569,0.4261679,-8.360553,7.144298
0.19039296,4.8746977,-4.409893,0.5886253,1.7333854,0.48841715,-8.652645,6.2823853
0.1921582,4.8703136,-4.409893,0.5886253,1.7333854,0.48841715,-8.652645,6.2823853
0.19404104,4.8658843,-4.4833965,0.52684,1.8729352,0.30166942,-8.901642,5.602432
0.19593436,4.861426,-4.4833965,0.52684,1.8729352,0.30166942,-8.901642,5.602432
0.19791846,4.8569565,-4.5355945,0.46185884,1.9911795,0.05746084,-9.165004,4.9081135
0.19991404,4.852458,-4.5355945,0.46185884,1.9911795,0.05746084,-9.165004,4.9081135
0.20198433,4.8479643,-4.572879,0.39581242,2.0891838,-0.36870706,-9.375694,4.2425256
0.20406684,4.843442,-4.572879,0.39581242,2.0891838,-0.36870706,-9.375694,4.2425256
0.20621781,4.8389273,-4.594184,0.325505,2.1733396,-0.81402856,-9.581595,3.5913026
0.20836875,4.834411,-4.594184,0.325505,2.1733396,-0.81402856,-9.581595,3.5913026
0.21056378,4.8299136,-4.602706,0.25200173,2.2415166,-0.9768343,-9.720459,2.9831753
0.21273506,4.825464,-4.602706,0.25200173,2.2415166,-0.9768343,-9.720459,2.9831753
0.21496233,4.820985,-4.598445,0.17423743,2.2979758,-1.1061212,-9.576807,2.303222
0.2172511,4.8163834,-4.598445,0.17423743,2.2979758,-1.1061212,-9.576807,2.303222
0.21948689,4.811896,-4.586727,0.09966891,2.3416514,-0.79966336,-9.509769,1.7956513
0.22171836,4.807421,-4.586727,0.09966891,2.3416514,-0.79966336,-9.509769,1.7956513
0.22393823,4.8029275,-4.569683,0.033622514,2.368283,-0.60333884,-9.3421755,1.1109096
0.22618258,4.7983904,-4.569683,0.033622514,2.368283,-0.60333884,-9.3421755,1.1109096
0.22840773,4.793873,-4.5515733,-0.027097559,2.3746748,-0.35434186,-8.887277,0.5554548
0.23063129,4.7893615,-4.5515733,-0.027097559,2.3746748,-0.35434186,-8.887277,0.5554548
0.23286073,4.7848225,-4.537725,-0.078230254,2.359761,-0.5267244,-8.508993,-0.07182605
0.23509337,4.780275,-4.537725,-0.078230254,2.359761,-0.5267244,-8.508993,-0.07182605
0.23731408,4.7757463,-4.5281377,-0.1187103,2.3288684,-0.6464345,-8.145074,-0.7278373
0.23955362,4.7711773,-4.5281377,-0.1187103,2.3288684,-0.6464345,-8.145074,-0.7278373
0.2417379,4.766646,-4.5238767,-0.14960296,2.2819967,-0.39743748,-7.9104424,-1.283292
0.2439391,4.7620773,-4.5238767,-0.14960296,2.2819967,-0.39743748,-7.9104424,-1.283292
0.24608636,4.7575226,-4.5228114,-0.16451667,2.2244725,-0.25857377,-7.690176,-1.9201498
0.24823347,4.752966,-4.5228114,-0.16451667,2.2244725,-0.25857377,-7.690176,-1.9201498
0.25031072,4.74841,-4.526007,-0.16558194,2.1552303,-0.076614454,-7.5800424,-2.3415294
0.25240043,4.743826,-4.526007,-0.16558194,2.1552303,-0.076614454,-7.5800424,-2.3415294
0.2544023,4.739266,-4.529203,-0.15599456,2.0753355,-0.06703765,-7.431602,-2.7820623
0.2564202,4.734668,-4.529203,-0.15599456,2.0753355,-0.06703765,-7.431602,-2.7820623
0.25834712,4.7300925,-4.5313334,-0.13788506,1.9901142,-0.1340753,-7.3645644,-3.3183637
0.2602895,4.7254786,-4.5313334,-0.13788506,1.9901142,-0.1340753,-7.3645644,-3.3183637
0.26214615,4.7208714,-4.530268,-0.11338398,1.8985015,-0.40701428,-7.2831616,-3.8881836
0.2640009,4.716266,-4.524942,-0.08249131,1.807954,-0.7326257,-7.2448545,-4.390966
0.2640009,4.716266,-4.524942,-0.08249131,1.807954,-0.7326257,-7.2448545,-4.390966
0.2640009,4.716266,-4.524942,-0.08249131,1.807954,-0.7326257,-7.2448545,-4.390966
0.26984832,4.7003903,-4.515354,-0.04946811,1.7227329,-1.0534488,-7.345411,-5.080496
0.27085534,4.6976514,-4.515354,-0.04946811,1.7227329,-1.0534488,-7.345411,-5.080496
0.2724764,4.693058,-4.501506,-0.014314385,1.6481644,-1.3120226,-7.489063,-5.7604494
0.27415547,4.6882963,-4.501506,-0.014314385,1.6481644,-1.3120226,-7.489063,-5.7604494
0.27570388,4.683731,-4.485527,0.0251004,1.5853138,-1.4077905,-7.7428484,-6.2105594
0.27727193,4.6791034,-4.485527,0.0251004,1.5853138,-1.4077905,-7.7428484,-6.2105594
0.27874455,4.6746254,-4.469548,0.06877624,1.5395074,-1.5131354,-8.00621,-6.612785
0.2802587,4.6700153,-4.469548,0.06877624,1.5395074,-1.5131354,-8.00621,-6.612785
0.28174073,4.665393,-4.4525037,0.11990894,1.5064842,-1.5753847,-8.408437,-6.8091097
0.28322127,4.6607676,-4.4525037,0.11990894,1.5064842,-1.5753847,-8.408437,-6.8091097
0.28468338,4.656137,-4.4301333,0.17849848,1.4883747,-1.7381904,-8.801085,-6.9240313
0.28614226,4.6515083,-4.4301333,0.17849848,1.4883747,-1.7381904,-8.801085,-6.9240313
0.28759038,4.646886,-4.404567,0.24134909,1.4819831,-1.934515,-9.222465,-6.991069
0.28759038,4.646886,-4.404567,0.24134909,1.4819831,-1.934515,-9.222465,-6.991069
0.29048607,4.6376467,-4.371544,0.3073955,1.4841136,-2.2361844,-9.629479,-6.9527617
0.29192096,4.633053,-4.371544,0.3073955,1.4841136,-2.2361844,-9.629479,-6.9527617
0.29336935,4.628459,-4.3310637,0.37450713,1.4958315,-2.6048915,-10.065224,-6.8426285
0.29481637,4.6238575,-4.3310637,0.37450713,1.4958315,-2.6048915,-10.065224,-6.8426285
0.29628244,4.6192827,-4.2820616,0.43948826,1.5192673,-2.9400797,-10.381259,-6.813898
0.29774663,4.6147,-4.2820616,0.43948826,1.5192673,-2.9400797,-10.381259,-6.813898
0.29940885,4.6096506,-4.219211,0.4980778,1.5554863,-3.2561142,-10.726024,-6.679823
0.3007395,4.6055965,-4.219211,0.4980778,1.5554863,-3.2561142,-10.726024,-6.679823
0.30226037,4.60112,-4.1457076,0.5492105,1.598097,-3.4141316,-11.128249,-6.6510925
0.30378672,4.596613,-4.1457076,0.5492105,1.598097,-3.4141316,-11.128249,-6.6510925
0.30554417,4.5916233,-4.0615516,0.5918211,1.642838,-3.6391866,-11.453861,-6.5936313
0.30695662,4.5875998,-4.0615516,0.5918211,1.642838,-3.6391866,-11.453861,-6.5936313
0.30851054,4.5833664,-3.9646127,0.6269748,1.6907749,-3.8402996,-11.75553,-6.531382
0.31007612,4.5790873,-3.9646127,0.6269748,1.6907749,-3.8402996,-11.75553,-6.531382
0.31170884,4.5748396,-3.853825,0.65254116,1.7397771,-4.0174704,-11.971008,-6.5457473
0.3133353,4.570592,-3.853825,0.65254116,1.7397771,-4.0174704,-11.971008,-6.5457473
0.31500518,4.5664454,-3.7334502,0.66852015,1.7855835,-4.1419687,-12.167333,-6.5505357
0.31667042,4.562295,-3.7334502,0.66852015,1.7855835,-4.1419687,-12.167333,-6.5505357
0.31837067,4.5582685,-3.6024227,0.6738465,1.8260635,-4.185065,-12.277467,-6.4308257
0.32006642,4.5542374,-3.6024227,0.6738465,1.8260635,-4.185065,-12.277467,-6.4308257
0.32179502,4.550346,-3.458612,0.6695854,1.860152,-4.2760444,-12.148179,-6.459556
0.32351908,4.54645,-3.458612,0.6695854,1.860152,-4.2760444,-12.148179,-6.459556
0.32525614,4.542705,-3.3062792,0.65893275,1.8825225,-3.9600096,-12.028469,-6.4787097
0.32698873,4.5389557,-3.3062792,0.65893275,1.8825225,-3.9600096,-12.028469,-6.4787097
0.32874936,4.5353656,-3.1454244,0.6450843,1.900632,-4.31914,-11.535264,-6.6750345
0.33050594,4.531771,-3.1454244,0.6450843,1.900632,-4.31914,-11.535264,-6.6750345
0.33224437,4.5283437,-2.983504,0.6184527,1.9038278,-3.5338416,-12.042834,-6.2584434
0.33397517,4.5249186,-2.983504,0.6184527,1.9038278,-3.5338416,-12.042834,-6.2584434
0.33570892,4.52166,-2.809866,0.5928863,1.8931751,-3.845088,-12.239159,-6.172252
0.33743158,4.5184107,-2.809866,0.5928863,1.8931751,-3.845088,-12.239159,-6.172252
0.33914334,4.5153494,-2.6213143,0.57158107,1.8708047,-4.050989,-11.903971,-6.4164605
0.34085137,4.512285,-2.6213143,0.57158107,1.8708047,-4.050989,-11.903971,-6.4164605
0.3425258,4.509433,-2.4210443,0.54175365,1.8345857,-3.9456444,-11.48738,-6.4499793
0.34419867,4.5065737,-2.4210443,0.54175365,1.8345857,-3.9456444,-11.48738,-6.4499793
0.34585273,4.503921,-2.2207747,0.51299155,1.7951708,-4.5298295,-11.382035,-6.5984197
0.34750232,4.5012674,-2.2207747,0.51299155,1.7951708,-4.5298295,-11.382035,-6.5984197
0.34911346,4.498818,-2.0300925,0.47677252,1.7493645,-4.5154643,-11.152191,-6.564901
0.3507204,4.4963675,-2.0300925,0.47677252,1.7493645,-4.5154643,-11.152191,-6.564901
0.35227028,4.4941177,-1.846867,0.42883563,1.6961012,-3.940856,-11.089942,-6.339846
0.35381925,4.4918633,-1.846867,0.42883563,1.6961012,-3.940856,-11.089942,-6.339846
0.35530186,4.489814,-1.6668372,0.37983346,1.6311201,-3.7205894,-11.372458,-6.105214
0.35678235,4.4877615,-1.6668372,0.37983346,1.6311201,-3.7205894,-11.372458,-6.105214
0.35816914,4.4859247,-1.4804159,0.3308313,1.5469642,-3.4620156,-12.0332575,-5.5641246
0.35955378,4.4840865,-1.4804159,0.3308313,1.5469642,-3.4620156,-12.0332575,-5.5641246
0.3608557,4.482468,-1.279081,0.29248178,1.4468293,-3.8163576,-12.243947,-5.5737014
0.36215565,4.480849,-1.279081,0.29248178,1.4468293,-3.8163576,-12.243947,-5.5737014
0.36337158,4.479461,-1.0660281,0.25839332,1.3371071,-4.3047748,-12.172121,-5.602432
0.36458352,4.4780746,-1.0660281,0.25839332,1.3371071,-4.3047748,-12.172121,-5.602432
0.36569878,4.476924,-0.8487141,0.21897852,1.2188628,-4.5154643,-12.200851,-5.592855
0.3668149,4.47577,-0.8487141,0.21897852,1.2188628,-4.5154643,-12.200851,-5.592855
0.36780584,4.474869,-0.62926966,0.1689111,1.0942268,-4.256891,-12.354081,-5.415684
0.36879578,4.473967,-0.62926966,0.1689111,1.0942268,-4.256891,-12.354081,-5.415684
0.3696594,4.473325,-0.40662938,0.11351735,0.9631993,-4.1419687,-12.473791,-5.195418
0.37052286,4.472681,-0.40662938,0.11351735,0.9631993,-4.1419687,-12.473791,-5.195418
0.3712821,4.47229,-0.18185858,0.062384658,0.8300412,-4.4915223,-12.5025215,-5.0996494
0.37203914,4.4719,-0.18185858,0.062384658,0.8300412,-4.4915223,-12.5025215,-5.0996494
0.37268806,4.4717617,0.040781688,0.011251962,0.6926221,-4.7405195,-12.406754,-5.0661306
0.37333706,4.4716234,0.040781688,0.011251962,0.6926221,-4.7405195,-12.406754,-5.0661306
0.3738642,4.4717402,0.26129144,-0.047337584,0.55413777,-4.7261543,-12.334928,-4.999093
0.37439162,4.4718575,0.26129144,-0.047337584,0.55413777,-4.7261543,-12.334928,-4.999093
0.3747968,4.4722276,0.4754096,-0.11231872,0.4145881,-4.711789,-12.334928,-4.8219223
0.37520164,4.4725976,0.4754096,-0.11231872,0.4145881,-4.711789,-12.334928,-4.8219223
0.37547553,4.4732184,0.6842014,-0.17943038,0.277169,-4.620809,-12.5264635,-4.5441947
0.37574917,4.4738398,0.6842014,-0.17943038,0.277169,-4.620809,-12.5264635,-4.5441947
0.37588236,4.4747143,0.8908627,-0.24547677,0.13761935,-4.5681367,-12.765883,-4.175488
0.37601563,4.475587,0.8908627,-0.24547677,0.13761935,-4.5681367,-12.765883,-4.175488
0.3760033,4.47672,1.1017851,-0.30832738,-0.0051260935,-4.7261543,-13.125013,-3.8163576
0.37599176,4.4778557,1.1017851,-0.30832738,-0.0051260935,-4.7261543,-13.125013,-3.8163576
0.37582842,4.479265,1.3190991,-0.3765043,-0.145741,-4.8698063,-13.441049,-3.5338416
0.3756669,4.480675,1.3190991,-0.3765043,-0.145741,-4.8698063,-13.441049,-3.5338416
0.37535885,4.4824524,1.5481309,-0.45320335,-0.28316012,-5.023035,-13.843274,-3.1555579
0.37504846,4.4842205,1.5481309,-0.45320335,-0.28316012,-5.023035,-13.843274,-3.1555579
0.37466842,4.4863424,1.7931417,-0.540555,-0.41844872,-5.0374002,-14.255077,-2.7820623
0.37428463,4.4884596,1.7931417,-0.540555,-0.41844872,-5.0374002,-14.255077,-2.7820623
0.37380692,4.490899,2.0541315,-0.6428204,-0.5569331,-4.9799395,-14.580688,-2.456451
0.37332556,4.4933367,2.0541315,-0.6428204,-0.5569331,-4.9799395,-14.580688,-2.456451
0.3727412,4.496113,2.334296,-0.75573844,-0.6964827,-4.912902,-14.805743,-2.1452048
0.3721541,4.4988813,2.334296,-0.75573844,-0.6964827,-4.912902,-14.805743,-2.1452048
0.3714613,4.502017,2.6347005,-0.8771786,-0.8381629,-5.0134583,-14.896723,-1.982399
0.3707649,4.5051465,2.6347005,-0.8771786,-0.8381629,-5.0134583,-14.896723,-1.982399
0.36996183,4.508662,2.9521494,-1.0082061,-0.9777125,-5.056554,-14.839262,-1.8435353
0.36915496,4.512168,2.9521494,-1.0082061,-0.9777125,-5.056554,-14.839262,-1.8435353
0.3682231,4.5160685,3.2834468,-1.1498863,-1.120458,-4.8937483,-14.757859,-1.7956513
0.36728433,4.5199656,3.2834468,-1.1498863,-1.120458,-4.8937483,-14.757859,-1.7956513
0.36622557,4.5242715,3.623266,-1.2990233,-1.2663993,-4.8602295,-14.628572,-1.7190368
0.36515746,4.5285773,3.623266,-1.2990233,-1.2663993,-4.8602295,-14.628572,-1.7190368
0.36398935,4.5332913,3.969477,-1.4534867,-1.4134057,-5.118803,-14.662091,-1.5945383
0.36281237,4.538001,3.969477,-1.4534867,-1.4134057,-5.118803,-14.662091,-1.5945383
0.36154392,4.5431185,4.319949,-1.6132764,-1.5614774,-5.4539914,-14.66688,-1.3024458
0.36026552,4.5482364,4.319949,-1.6132764,-1.5614774,-5.4539914,-14.66688,-1.3024458
0.3588737,4.553774,4.6714864,-1.7762618,-1.7042229,-5.530606,-14.5088625,-1.1875241
0.35747266,4.559305,4.6714864,-1.7762618,-1.7042229,-5.530606,-14.5088625,-1.1875241
0.35593945,4.5652514,5.0230236,-1.942443,-1.8395115,-5.315128,-14.331692,-1.2689269
0.35439527,4.57119,5.0230236,-1.942443,-1.8395115,-5.315128,-14.331692,-1.2689269
0.35271427,4.577534,5.3692346,-2.1064937,-1.9726696,-5.133168,-14.130578,-1.3742718
0.35101807,4.5838766,5.3692346,-2.1064937,-1.9726696,-5.133168,-14.130578,-1.3742718
0.3492573,4.59059,5.7037277,-2.2652183,-2.1026318,-5.2002063,-13.79539,-1.5275006
0.3475084,4.59729,5.7037277,-2.2652183,-2.1026318,-5.2002063,-13.79539,-1.5275006
0.34569985,4.6042657,6.0254374,-2.417551,-2.2315288,-5.5258174,-12.579136,-1.4987702
0.34386396,4.6112447,6.0254374,-2.417551,-2.2315288,-5.5258174,-12.579136,-1.4987702
0.34185767,4.6185694,6.3364944,-2.5411217,-2.3391206,-6.244078,-11.96622,-2.633622
0.3398407,4.6258373,6.3364944,-2.5411217,-2.3391206,-6.244078,-11.96622,-2.633622
0.3377156,4.633226,6.6411605,-2.6412566,-2.4200807,-4.8123455,-12.339716,-2.4660277
0.33553323,4.640731,6.6411605,-2.6412566,-2.4200807,-4.8123455,-12.339716,-2.4660277
0.33318204,4.6485643,6.9330425,-2.7531092,-2.510628,-3.8833952,-12.492945,-2.2744915
0.33080798,4.656399,6.9330425,-2.7531092,-2.510628,-3.8833952,-12.492945,-2.2744915
0.32828233,4.664555,7.2057505,-2.8628316,-2.6118283,-3.5529952,-12.401965,-1.7908629
0.32566246,4.672937,7.2057505,-2.8628316,-2.6118283,-3.5529952,-12.401965,-1.7908629
0.32310086,4.681032,7.457153,-2.9555097,-2.7162242,-3.6583402,-12.090718,-1.4317327
0.3204387,4.68937,7.457153,-2.9555097,-2.7162242,-3.6583402,-12.090718,-1.4317327
0.31755888,4.69804,7.6883154,-3.0481875,-2.8280768,-3.1172507,-11.722012,-0.81881696
0.31440312,4.7074585,7.6883154,-3.0481875,-2.8280768,-3.1172507,-11.722012,-0.81881696
0.31159115,4.715571,7.905629,-3.1355393,-2.949517,-2.4947581,-11.166556,-0.32561144
0.30854326,4.724277,7.905629,-3.1355393,-2.949517,-2.4947581,-11.166556,-0.32561144
0.30527216,4.733381,8.108029,-3.2079773,-3.0762835,-2.2505496,-10.726024,0.023942016
0.30198193,4.742433,8.108029,-3.2079773,-3.0762835,-2.2505496,-10.726024,0.023942016
0.29852837,4.751709,8.29232,-3.2697625,-3.20305,-1.8818425,-10.213664,0.36391866
0.29504502,4.7609525,8.29232,-3.2697625,-3.20305,-1.8818425,-10.213664,0.36391866
0.29140422,4.7703648,8.459567,-3.31983,-3.3298163,-1.541866,-9.3421755,0.50278234
0.28773323,4.7797446,8.459567,-3.31983,-3.3298163,-1.541866,-9.3421755,0.50278234
0.283905,4.7892704,8.606573,-3.36031,-3.456583,-1.2306197,-8.853758,0.6655881
0.28004637,4.7987633,8.606573,-3.36031,-3.456583,-1.2306197,-8.853758,0.6655881
0.27603576,4.8083873,8.734405,-3.3912027,-3.5865452,1.3790601,-8.121132,1.2018893
0.27199486,4.8179846,8.734405,-3.3912027,-3.5865452,1.3790601,-8.121132,1.2018893
0.26781842,4.827694,8.837735,-3.3933332,-3.7111812,-0.7565677,-8.944737,1.7046716
0.26360995,4.837376,8.837735,-3.3933332,-3.7111812,-0.7565677,-8.944737,1.7046716
0.25925243,4.8470993,8.930413,-3.3720279,-3.8262298,0.19153613,-7.551312,1.4700398
0.25486514,4.8567953,8.930413,-3.3720279,-3.8262298,0.19153613,-7.551312,1.4700398
0.25034076,4.8665457,9.012439,-3.36031,-3.9466045,1.4460979,-6.081272,1.6376339
0.24578837,4.87627,9.012439,-3.36031,-3.9466045,1.4460979,-6.081272,1.6376339
0.2411296,4.8860073,9.050789,-3.307047,-4.0499353,1.1683705,-5.530606,1.9536686
0.23644435,4.8957205,9.050789,-3.307047,-4.0499353,1.1683705,-5.530606,1.9536686
0.23168163,4.905384,9.035874,-3.2292826,-4.134091,1.508347,-4.673482,2.3558946
0.22689466,4.915024,9.035874,-3.2292826,-4.134091,1.508347,-4.673482,2.3558946
0.22189693,4.924833,8.970894,-3.1461918,-4.21079,2.5809495,-4.1802764,3.1555579
0.21683206,4.9347043,8.970894,-3.1461918,-4.21079,2.5809495,-4.1802764,3.1555579
0.21683206,4.9347043,8.970894,-3.1461918,-4.21079,2.5809495,-4.1802764,3.1555579
0.20714349,4.9529953,8.856911,-3.0449917,-4.274706,3.9695864,-3.8355112,3.86903
0.20714349,4.9529953,8.856911,-3.0449917,-4.274706,3.9695864,-3.8355112,3.86903
0.20714349,4.9529953,8.856911,-3.0449917,-4.274706,3.9695864,-3.8355112,3.86903
0.19144091,4.9813333,8.488329,-2.7232819,-4.399342,8.614338,-2.7006595,5.779603
0.1866535,4.989675,8.488329,-2.7232819,-4.399342,8.614338,-2.7006595,5.779603
0.17996505,5.000925,8.227339,-2.4516394,-4.4568663,6.8761473,-2.542642,5.626374
0.17703892,5.005831,8.227339,-2.4516394,-4.4568663,6.8761473,-2.542642,5.626374
0.17201565,5.013914,7.917347,-2.1725402,-4.517586,7.5321584,-1.2641385,5.5880666
0.1669657,5.0220194,7.917347,-2.1725402,-4.517586,7.5321584,-1.2641385,5.5880666
0.16194442,5.0296993,7.558353,-1.9008977,-4.5793715,8.6574335,0.25857377,5.8322754
0.15692466,5.037364,7.558353,-1.9008977,-4.5793715,8.6574335,0.25857377,5.8322754
0.15199102,5.044528,7.1343775,-1.5909058,-4.6155906,8.623915,2.0638018,5.865794
0.14705184,5.0516953,7.1343775,-1.5909058,-4.6155906,8.623915,2.0638018,5.865794
0.14221504,5.0583496,6.6411605,-1.2542822,-4.617721,7.85777,3.4715924,6.3542113
0.13737072,5.065015,6.6411605,-1.2542822,-4.617721,7.85777,3.4715924,6.3542113
0.13273172,5.0710316,6.084027,-0.9165934,-4.5761757,7.240066,4.5777135,6.8522053
0.1280736,5.0770793,6.084027,-0.9165934,-4.5761757,7.240066,4.5777135,6.8522053
0.123636514,5.082465,5.475761,-0.6044709,-4.4888244,6.7947445,5.2289367,7.177817
0.11917817,5.087886,5.475761,-0.6044709,-4.4888244,6.7947445,5.2289367,7.177817
0.11496609,5.0926194,4.831276,-0.32963267,-4.359927,6.646304,5.506664,7.493851
0.11075573,5.097362,4.831276,-0.32963267,-4.359927,6.646304,5.506664,7.493851
0.10678108,5.101428,4.160159,-0.093143955,-4.198007,7.0102224,5.410896,7.943961
0.10282418,5.105487,4.160159,-0.093143955,-4.198007,7.0102224,5.410896,7.943961
0.09912466,5.108862,3.4762595,0.12203947,-4.0062594,7.1059904,5.329493,8.197746
0.095434226,5.112238,3.4762595,0.12203947,-4.0062594,7.1059904,5.329493,8.197746
0.09202962,5.11492,2.7880988,0.32337445,-3.7900107,7.192182,5.1906295,8.494628
0.08862281,5.117613,2.7880988,0.32337445,-3.7900107,7.192182,5.1906295,8.494628
0.085519515,5.1196213,2.104199,0.5183178,-3.5439346,7.28795,5.0038815,8.580819
0.08243837,5.121623,2.104199,0.5183178,-3.5439346,7.28795,5.0038815,8.580819
0.07967498,5.122958,1.4288213,0.7100654,-3.2701616,7.2113357,4.6160207,8.7053175
0.07691407,5.1242986,1.4288213,0.7100654,-3.2701616,7.2113357,4.6160207,8.7053175
0.074510574,5.124981,0.767292,0.8943562,-2.9665613,6.205771,4.1515455,8.504205
0.07210835,5.125668,0.767292,0.8943562,-2.9665613,6.205771,4.1515455,8.504205
0.07006967,5.125718,0.12493758,1.0552112,-2.6416557,5.6982,3.241749,8.647857
0.06803107,5.1257725,0.12493758,1.0552112,-2.6416557,5.6982,3.241749,8.647857
0.06635629,5.1252246,-0.48545894,1.1777165,-2.29651,5.401319,2.111686,8.829816
0.0646804,5.12468,-0.48545894,1.1777165,-2.29651,5.401319,2.111686,8.829816
0.0633732,5.1235714,-1.0585712,1.2767861,-1.9364506,4.793192,0.79966336,8.992621
0.062063925,5.1224656,-1.0585712,1.2767861,-1.9364506,4.793192,0.79966336,8.992621
0.06111948,5.1208467,-1.581616,1.3470936,-1.5657386,4.343082,-0.60812724,9.074024
0.060171135,5.1192284,-1.581616,1.3470936,-1.5657386,4.343082,-0.60812724,9.074024
0.059585437,5.1171565,-2.0471365,1.3907695,-1.1865044,3.9360676,-1.7669208,9.021352
0.05899693,5.1150875,-2.0471365,1.3907695,-1.1865044,3.9360676,-1.7669208,9.021352
0.058766793,5.1126122,-2.459394,1.4152706,-0.80300915,3.3901896,-2.8107927,8.801085
0.05852222,5.110026,-2.459394,1.4152706,-0.80300915,3.3901896,-2.8107927,8.801085
0.058637917,5.107313,-2.8194535,1.4248579,-0.41844872,3.0310593,-3.8163576,8.7292595
0.058755886,5.1044536,-2.8194535,1.4248579,-0.41844872,3.0310593,-3.8163576,8.7292595
0.0592146,5.101387,-3.1262496,1.4248579,-0.034953497,2.695871,-4.76925,8.619126
0.05967596,5.098275,-3.1262496,1.4248579,-0.034953497,2.695871,-4.76925,8.619126
0.060484465,5.094904,-3.3840435,1.4152706,0.34321538,2.1978772,-5.693412,8.494628
0.061288353,5.0915346,-3.3840435,1.4152706,0.34321538,2.1978772,-5.693412,8.494628
0.06242626,5.0879674,-3.594966,1.397161,0.7149927,1.8195933,-6.579266,8.207323
0.063564114,5.084388,-3.594966,1.397161,0.7149927,1.8195933,-6.579266,8.207323
0.065026306,5.080659,-3.7654083,1.3726599,1.0761173,1.292869,-7.2592196,7.9248075
0.06648518,5.0769286,-3.7654083,1.3726599,1.0761173,1.292869,-7.2592196,7.9248075
0.068263195,5.0730624,-3.8996315,1.3417673,1.4255241,0.92416185,-7.872135,7.536947
0.07003305,5.069206,-3.8996315,1.3417673,1.4255241,0.92416185,-7.872135,7.536947
0.07210118,5.0652523,-4.002962,1.3023524,1.7589519,0.6464345,-8.312668,7.0724716
0.0741668,5.061296,-4.002962,1.3023524,1.7589519,0.6464345,-8.312668,7.0724716
0.07651285,5.0572715,-4.081792,1.2576114,2.07427,0.40222588,-8.604761,6.7133417
0.07885678,5.0532446,-4.081792,1.2576114,2.07427,0.40222588,-8.604761,6.7133417
0.08145618,5.049168,-4.1414466,1.2107397,2.3661525,0.2873042,-8.810662,6.26802
0.084053874,5.0450892,-4.1414466,1.2107397,2.3661525,0.2873042,-8.810662,6.26802
0.08688304,5.0409822,-4.179796,1.1649333,2.6282077,0.11492168,-8.892065,5.837064
0.08971082,5.0368724,-4.179796,1.1649333,2.6282077,0.11492168,-8.892065,5.837064
0.09273296,5.0327444,-4.2053623,1.1212575,2.8583047,0.10055647,-9.030929,5.257667
0.09575413,5.028615,-4.2053623,1.1212575,2.8583047,0.10055647,-9.030929,5.257667
0.09894629,5.024474,-4.2213416,1.0839733,3.0628355,0.08619126,-9.045294,4.7070007
0.102138,5.0203314,-4.2213416,1.0839733,3.0628355,0.08619126,-9.045294,4.7070007
0.10546728,5.016179,-4.231994,1.05095,3.2354083,0.10055647,-9.121908,4.2281604
0.108796746,5.012025,-4.231994,1.05095,3.2354083,0.10055647,-9.121908,4.2281604
0.11222766,5.0078573,-4.2383857,1.0253837,3.3738928,0.023942016,-9.150639,3.6583402
0.115663186,5.0036845,-4.2383857,1.0253837,3.3738928,0.023942016,-9.150639,3.6583402
0.11917303,4.999491,-4.243712,1.006209,3.4804192,-0.05267244,-9.193734,3.2465374
0.12275155,4.9952183,-4.243712,1.006209,3.4804192,-0.05267244,-9.193734,3.2465374
0.1262708,4.9910507,-4.2458425,0.99449104,3.5539224,-0.01436521,-9.246407,2.944868
0.12978826,4.9868884,-4.2458425,0.99449104,3.5539224,-0.01436521,-9.246407,2.944868
0.13337657,4.982642,-4.247973,0.9912953,3.5975983,-0.20590134,-9.275137,2.5809495
0.13696158,4.978404,-4.247973,0.9912953,3.5975983,-0.20590134,-9.275137,2.5809495
0.1405924,4.974102,-4.2469077,0.99768686,3.6178384,-0.32561144,-9.41879,2.2170308
0.14421645,4.9698076,-4.2469077,0.99768686,3.6178384,-0.32561144,-9.41879,2.2170308
0.14787273,4.9654756,-4.243712,1.0126005,3.6135774,-0.5410896,-9.557653,1.7956513
0.15134086,4.961361,-4.243712,1.0126005,3.6135774,-0.5410896,-9.557653,1.7956513
0.15501095,4.9570007,-4.239451,1.0275142,3.5858803,-0.7374141,-9.792285,1.3838485
0.15884772,4.9524345,-4.239451,1.0275142,3.5858803,-0.7374141,-9.792285,1.3838485
0.1624902,4.94808,-4.2287984,1.0392321,3.540074,-1.0199299,-9.935937,0.9576807
0.16612114,4.9437323,-4.2287984,1.0392321,3.540074,-1.0199299,-9.935937,0.9576807
0.16972129,4.9393797,-4.2096233,1.046689,3.4782887,-1.2401965,-10.151415,0.5506664
0.17333564,4.935002,-4.2096233,1.046689,3.4782887,-1.2401965,-10.151415,0.5506664
0.17686935,4.930662,-4.1851225,1.0498848,3.4037201,-1.4413095,-10.433931,0.20590134
0.18039957,4.926318,-4.1851225,1.0498848,3.4037201,-1.4413095,-10.433931,0.20590134
0.18384916,4.922003,-4.1531644,1.0498848,3.3163686,-1.6759412,-10.730812,-0.16759412
0.18729892,4.917679,-4.1531644,1.0498848,3.3163686,-1.6759412,-10.730812,-0.16759412
0.19065437,4.9133863,-4.1137495,1.0456238,3.2194295,-1.8291701,-11.123461,-0.39743748
0.19402663,4.9090643,-4.1137495,1.0456238,3.2194295,-1.8291701,-11.123461,-0.39743748
0.19725454,4.9048357,-4.0658126,1.0360364,3.1171641,-1.910573,-11.559206,-0.5267244
0.20050825,4.900564,-4.0658126,1.0360364,3.1171641,-1.910573,-11.559206,-0.5267244
0.20363143,4.8963785,-4.007223,1.0275142,3.012768,-2.0015526,-11.865664,-0.7469909
0.20677307,4.892159,-4.007223,1.0275142,3.012768,-2.0015526,-11.865664,-0.7469909
0.20979886,4.8880143,-3.9347854,1.0168616,2.9041111,-2.1164744,-12.148179,-0.8810662
0.21282116,4.8838654,-3.9347854,1.0168616,2.9041111,-2.1164744,-12.148179,-0.8810662
0.21572544,4.879798,-3.8506293,1.0051436,2.7879972,-2.2744915,-12.315774,-1.0295067
0.21863191,4.8757186,-3.8506293,1.0051436,2.7879972,-2.2744915,-12.315774,-1.0295067
0.22141895,4.871739,-3.7536902,0.99023,2.6718836,-2.4851813,-12.382812,-1.1300632
0.22420532,4.867751,-3.7536902,0.99023,2.6718836,-2.4851813,-12.382812,-1.1300632
0.22687837,4.863863,-3.6492944,0.97425103,2.556835,-2.695871,-12.492945,-1.2593501
0.22955072,4.8599668,-3.6492944,0.97425103,2.556835,-2.695871,-12.492945,-1.2593501
0.23209763,4.8561907,-3.5374417,0.954011,2.4417863,-2.7629087,-12.469003,-1.412579
0.2346462,4.8524027,-3.5374417,0.954011,2.4417863,-2.7629087,-12.469003,-1.412579
0.23708194,4.8487225,-3.4202626,0.9305752,2.3299336,-2.7485435,-12.5264635,-1.6759412
0.23950955,4.845046,-3.4202626,0.9305752,2.3299336,-2.7485435,-12.5264635,-1.6759412
0.24181317,4.8414965,-3.2988224,0.9039436,2.219146,-2.6240451,-12.521675,-1.958457
0.24412046,4.8379335,-3.2988224,0.9039436,2.219146,-2.6240451,-12.521675,-1.958457
0.24630433,4.8344955,-3.176317,0.8762467,2.106228,-2.4995465,-12.469003,-2.135628
0.24848284,4.831058,-3.176317,0.8762467,2.106228,-2.4995465,-12.469003,-2.135628
0.25054783,4.8277407,-3.0495505,0.8474846,1.9922447,-2.4947581,-12.3876,-2.4947581
0.2526079,4.824424,-3.0495505,0.8474846,1.9922447,-2.4947581,-12.3876,-2.4947581
0.2545468,4.82124,-2.922784,0.8187224,1.8793267,-2.4612393,-12.291832,-2.767697
0.25649044,4.818041,-2.922784,0.8187224,1.8793267,-2.4612393,-12.291832,-2.767697
0.25831473,4.8149757,-2.7960176,0.78782976,1.7642782,-2.5378537,-12.071565,-3.1890767
0.26013464,4.811911,-2.7960176,0.78782976,1.7642782,-2.5378537,-12.071565,-3.1890767
0.26184013,4.8089676,-2.672447,0.752676,1.6492296,-2.5953147,-11.975797,-3.41892
0.26351434,4.8060713,-2.672447,0.752676,1.6492296,-2.5953147,-11.975797,-3.41892
0.26510265,4.8032565,-2.5488763,0.7143265,1.5384421,-2.6671407,-11.827356,-3.6056678
0.2667173,4.8003883,-2.5488763,0.7143265,1.5384421,-2.6671407,-11.827356,-3.6056678
0.2681867,4.797705,-2.4263709,0.67278117,1.4276546,-2.6767175,-11.563994,-3.8881836
0.2696526,4.7950225,-2.4263709,0.67278117,1.4276546,-2.6767175,-11.563994,-3.8881836
0.27101514,4.7924595,-2.305996,0.6269748,1.3232586,-2.6767175,-11.305421,-4.1132383
0.2723827,4.7898827,-2.305996,0.6269748,1.3232586,-2.6767175,-11.305421,-4.1132383
0.27364308,4.787443,-2.1888168,0.5811685,1.224189,-2.743755,-10.989386,-4.357447
0.2749006,4.7850056,-2.1888168,0.5811685,1.224189,-2.743755,-10.989386,-4.357447
0.2760631,4.7826815,-2.0780294,0.5364273,1.1293806,-2.7150247,-10.601525,-4.6351743
0.27722186,4.780361,-2.0780294,0.5364273,1.1293806,-2.7150247,-10.601525,-4.6351743
0.2782947,4.778148,-1.9746987,0.49168622,1.0441594,-2.6288335,-10.141838,-5.0374002
0.27937043,4.775925,-1.9746987,0.49168622,1.0441594,-2.6288335,-10.141838,-5.0374002
0.2803628,4.773814,-1.8820207,0.44907564,0.9631993,-2.8443117,-9.691729,-5.2145715
0.281354,4.771703,-1.8820207,0.44907564,0.9631993,-2.8443117,-9.691729,-5.2145715
0.2822549,4.7696896,-1.8021258,0.40966088,0.88436973,-2.5713725,-9.461885,-5.2480903
0.28315753,4.7676697,-1.8021258,0.40966088,0.88436973,-2.5713725,-9.461885,-5.2480903
0.2839773,4.765723,-1.7318183,0.37237662,0.8119317,-2.0733786,-9.524135,-5.0278234
0.28479698,4.763775,-1.7318183,0.37237662,0.8119317,-2.0733786,-9.524135,-5.0278234
0.28554133,4.7619033,-1.6689677,0.34467974,0.7458854,-1.8914193,-9.533711,-4.879383
0.28628787,4.7600236,-1.6689677,0.34467974,0.7458854,-1.8914193,-9.533711,-4.879383
0.2869567,4.758212,-1.6103783,0.3276355,0.6809042,-1.6089035,-9.864111,-4.4196963
0.28762418,4.756401,-1.6103783,0.3276355,0.6809042,-1.6089035,-9.864111,-4.4196963
0.2882313,4.754645,-1.557115,0.31378707,0.61698836,-2.0015526,-10.275913,-3.916914
0.288837,4.7528896,-1.557115,0.31378707,0.61698836,-2.0015526,-10.275913,-3.916914
0.288837,4.7528896,-1.557115,0.31378707,0.61698836,-2.0015526,-10.275913,-3.916914
0.28995165,4.749464,-1.500656,0.3041997,0.5583988,-2.4372973,-10.649409,-3.572149
0.2919096,4.7430882,-1.3536495,0.2860902,0.47637343,-2.777274,-10.874464,-2.920926
0.2919096,4.7430882,-1.3536495,0.2860902,0.47637343,-2.777274,-10.874464,-2.920926
0.2919096,4.7430882,-1.3536495,0.2860902,0.47637343,-2.777274,-10.874464,-2.920926
0.2919096,4.7430882,-1.3536495,0.2860902,0.47637343,-2.777274,-10.874464,-2.920926
0.2919096,4.7430882,-1.3536495,0.2860902,0.47637343,-2.777274,-10.874464,-2.920926
0.29279423,4.7401977,-1.2684283,0.27863333,0.45187235,-2.9161377,-11.104307,-2.5905263
0.29323032,4.738818,-1.174685,0.26904595,0.43908918,-3.0597897,-11.592725,-2.2361844
0.29364592,4.737501,-1.174685,0.26904595,0.43908918,-3.0597897,-11.592725,-2.2361844
0.29364592,4.737501,-1.174685,0.26904595,0.43908918,-3.0597897,-11.592725,-2.2361844
0.29450226,4.7350006,-1.0713544,0.25732806,0.44121972,-3.2225955,-12.052411,-1.934515
0.29493144,4.733872,-0.95630586,0.24347961,0.44867656,-3.2992098,-12.425907,-1.6472107
0.2953614,4.7327385,-0.95630586,0.24347961,0.44867656,-3.2992098,-12.425907,-1.6472107
0.29579964,4.731737,-0.8306046,0.22430485,0.46145973,-3.347094,-12.684481,-1.4891934
0.29623652,4.7307367,-0.8306046,0.22430485,0.46145973,-3.347094,-12.684481,-1.4891934
0.29666486,4.7298784,-0.69851184,0.19980377,0.47424293,-3.0885203,-12.74673,-1.2306197
0.2970924,4.72902,-0.69851184,0.19980377,0.47424293,-3.0885203,-12.74673,-1.2306197
0.29751766,4.7283177,-0.5578969,0.17317216,0.48809135,-3.0023289,-12.689269,-0.9576807
0.29794243,4.7276144,-0.5578969,0.17317216,0.48809135,-3.0023289,-12.689269,-0.9576807
0.2983559,4.7270713,-0.41621676,0.14547528,0.49874398,-2.7246015,-12.4785795,-0.78529817
0.29877076,4.7265253,-0.41621676,0.14547528,0.49874398,-2.7246015,-12.4785795,-0.78529817
0.29915088,4.7261586,-0.27453658,0.11564788,0.49767873,-2.432509,-12.248735,-0.45968673
0.29953253,4.7257905,-0.27453658,0.11564788,0.49767873,-2.432509,-12.248735,-0.45968673
0.2998844,4.7256,-0.13498695,0.085820474,0.4859608,-2.2266076,-11.884817,-0.1436521
0.30028546,4.725383,-0.13498695,0.085820474,0.4859608,-2.2266076,-11.884817,-0.1436521
0.30056915,4.7253666,0.00030163955,0.05918886,0.46359026,-1.8148049,-11.501745,0.12449849
0.3009145,4.7253475,0.00030163955,0.05918886,0.46359026,-1.8148049,-11.501745,0.12449849
0.30119434,4.725478,0.12813337,0.037883572,0.4295018,-1.6041151,-11.046846,0.3878607
0.3014836,4.7256136,0.12813337,0.037883572,0.4295018,-1.6041151,-11.046846,0.3878607
0.3017409,4.72588,0.24211667,0.028296193,0.38689122,-1.2593501,-10.58716,0.60333884
0.3019994,4.7261486,0.24211667,0.028296193,0.38689122,-1.2593501,-10.58716,0.60333884
0.30221453,4.7265306,0.34225154,0.0251004,0.33575854,-1.2401965,-10.261548,0.7038953
0.3024217,4.7268996,0.34225154,0.0251004,0.33575854,-1.2401965,-10.261548,0.7038953
0.30257577,4.727366,0.42640743,0.020839343,0.27290794,-0.79966336,-9.969456,0.9528923
0.30273366,4.727845,0.42640743,0.020839343,0.27290794,-0.79966336,-9.969456,0.9528923
0.30282128,4.728368,0.49351907,0.020839343,0.20260048,-0.5793968,-9.672575,1.1971009
0.3029119,4.728909,0.49351907,0.020839343,0.20260048,-0.5793968,-9.672575,1.1971009
0.30294117,4.7295065,0.541456,0.031491987,0.12909722,-0.6703765,-9.581595,1.4987702
0.30297017,4.7301016,0.541456,0.031491987,0.12909722,-0.6703765,-9.581595,1.4987702
0.30293334,4.7307334,0.57234865,0.040014103,0.049202394,-0.60333884,-9.514558,1.9680338
0.30289635,4.7313647,0.57234865,0.040014103,0.049202394,-0.60333884,-9.514558,1.9680338
0.30278906,4.7320223,0.59258866,0.046405688,-0.033888236,-0.7086837,-9.629479,2.4181437
0.3026821,4.732677,0.59258866,0.046405688,-0.033888236,-0.7086837,-9.629479,2.4181437
0.30249867,4.733355,0.61069816,0.049601484,-0.11804412,-0.6703765,-9.825804,2.920926
0.30231586,4.7340302,0.61069816,0.049601484,-0.11804412,-0.6703765,-9.825804,2.920926
0.3020485,4.7347226,0.62880766,0.046405688,-0.20326528,-0.50757074,-10.031705,3.1794999
0.30177996,4.735418,0.62880766,0.046405688,-0.20326528,-0.50757074,-10.031705,3.1794999
0.30142897,4.7361364,0.6522435,0.04107937,-0.28848645,-0.33997664,-10.304645,3.6008794
0.30107868,4.7368526,0.6522435,0.04107937,-0.28848645,-0.33997664,-10.304645,3.6008794
0.3006438,4.737604,0.6820709,0.03681831,-0.3737076,-0.34955344,-10.510546,3.8594532
0.30021062,4.738353,0.6820709,0.03681831,-0.3737076,-0.34955344,-10.510546,3.8594532
0.29969752,4.7391376,0.7182899,0.030426722,-0.45573297,-0.29209262,-10.644621,4.0653543
0.29918188,4.7399263,0.7182899,0.030426722,-0.45573297,-0.29209262,-10.644621,4.0653543
0.29858938,4.740757,0.7587699,0.018708814,-0.5356278,-0.2681506,-10.764331,4.31914
0.29799676,4.741587,0.7587699,0.018708814,-0.5356278,-0.2681506,-10.764331,4.31914
0.29732743,4.742466,0.80244577,0.0016645822,-0.6133921,-0.19153613,-10.91756,4.6112323
0.29665813,4.743345,0.80244577,0.0016645822,-0.6133921,-0.19153613,-10.91756,4.6112323
0.29591867,4.7442746,0.84931743,-0.019640706,-0.6847648,-0.06703765,-10.91756,4.8602295
0.29517543,4.745209,0.84931743,-0.019640706,-0.6847648,-0.06703765,-10.91756,4.8602295
0.29437193,4.7461967,0.8983196,-0.043076526,-0.74974597,-0.019153614,-10.941502,5.2624555
0.2935836,4.747165,0.8983196,-0.043076526,-0.74974597,-0.019153614,-10.941502,5.2624555
0.29272413,4.748209,0.9473217,-0.064381815,-0.8083355,-0.05746084,-10.893618,5.6790466
0.29185346,4.749266,0.9473217,-0.064381815,-0.8083355,-0.05746084,-10.893618,5.6790466
0.29094973,4.7503576,0.99206287,-0.0856871,-0.85733765,-0.1340753,-10.874464,5.9280434
0.2900458,4.7514486,0.99206287,-0.0856871,-0.85733765,-0.1340753,-10.874464,5.9280434
0.28910452,4.7525887,1.0336082,-0.109122925,-0.8967524,-0.22984336,-10.726024,6.2009826
0.28816298,4.753729,1.0336082,-0.109122925,-0.8967524,-0.22984336,-10.726024,6.2009826
0.28719464,4.754913,1.0698272,-0.13575453,-0.9255146,-0.38307226,-10.582372,6.315904
0.28621948,4.7561045,1.0698272,-0.13575453,-0.9255146,-0.38307226,-10.582372,6.315904
0.28522947,4.757333,1.0996546,-0.16984299,-0.94468933,-0.47884035,-10.457873,6.5840545
0.28425324,4.7585435,1.0996546,-0.16984299,-0.94468933,-0.47884035,-10.457873,6.5840545
0.28325674,4.759802,1.1230904,-0.21245357,-0.9510809,-0.2633622,-10.323798,6.7708025
0.28226203,4.7610574,1.1230904,-0.21245357,-0.9510809,-0.2633622,-10.323798,6.7708025
0.28126934,4.762338,1.1401346,-0.25506416,-0.9468199,0.047884032,-10.160992,6.9144545
0.2802703,4.763626,1.1401346,-0.25506416,-0.9468199,0.047884032,-10.160992,6.9144545
0.27927858,4.7649307,1.1518525,-0.29660946,-0.939363,0.37828386,-9.873688,7.0245876
0.27828464,4.7662373,1.1518525,-0.29660946,-0.939363,0.37828386,-9.873688,7.0245876
0.2772985,4.7675543,1.1550483,-0.33389372,-0.92977566,0.61770403,-9.557653,7.0006456
0.27631098,4.7688713,1.1550483,-0.33389372,-0.92977566,0.61770403,-9.557653,7.0006456
0.2753272,4.7701917,1.1486567,-0.37224326,-0.9223188,0.80924016,-9.222465,6.919243
0.27434298,4.771511,1.1486567,-0.37224326,-0.9223188,0.80924016,-9.222465,6.919243
0.2733623,4.7728243,1.1316125,-0.40846223,-0.9148619,0.9816227,-8.887277,6.943185
0.27238318,4.7741337,1.1316125,-0.40846223,-0.9148619,0.9816227,-8.887277,6.943185
0.271408,4.7754254,1.1039156,-0.4425507,-0.9074051,1.0342951,-8.456321,6.799533
0.27043137,4.776718,1.1039156,-0.4425507,-0.9074051,1.0342951,-8.456321,6.799533
0.2694642,4.7779756,1.0634356,-0.4723781,-0.8967524,1.163582,-8.00621,6.7803793
0.26849744,4.7792315,1.0634356,-0.4723781,-0.8967524,1.163582,-8.00621,6.7803793
0.26753426,4.780438,1.0091071,-0.49474865,-0.88716507,1.5562311,-7.6135616,6.646304
0.26657054,4.7816434,1.0091071,-0.49474865,-0.88716507,1.5562311,-7.6135616,6.646304
0.26561493,4.7827835,0.9398649,-0.5054013,-0.8743819,1.7764976,-7.2113357,6.5218053
0.26466355,4.783917,0.9398649,-0.5054013,-0.8743819,1.7764976,-7.2113357,6.5218053
0.2637168,4.7849727,0.8578395,-0.50646657,-0.862664,2.0350714,-6.933608,6.4499793
0.26277605,4.7860203,0.8578395,-0.50646657,-0.862664,2.0350714,-6.933608,6.4499793
0.26184478,4.786972,0.76090044,-0.4968792,-0.8498808,2.0925324,-6.679823,6.4068837
0.26091117,4.787925,0.76090044,-0.4968792,-0.8498808,2.0925324,-6.679823,6.4068837
0.25999692,4.788759,0.650113,-0.47450864,-0.8339018,2.054225,-6.3781533,6.3589997
0.25908235,4.7895937,0.650113,-0.47450864,-0.8339018,2.054225,-6.3781533,6.3589997
0.25819147,4.7902946,0.5265423,-0.4425507,-0.8136618,2.0159178,-6.05733,6.181829
0.25729847,4.790997,0.5265423,-0.4425507,-0.8136618,2.0159178,-6.05733,6.181829
0.25643668,4.7915497,0.38912317,-0.4010054,-0.78489965,2.1308396,-5.7508726,5.961562
0.2555747,4.7921014,0.38912317,-0.4010054,-0.78489965,2.1308396,-5.7508726,5.961562
0.2547501,4.792483,0.23465982,-0.34987268,-0.7508112,2.336741,-5.410896,5.6359506
0.25392038,4.7928667,0.23465982,-0.34987268,-0.7508112,2.336741,-5.410896,5.6359506
0.25313246,4.7930574,0.061021715,-0.28808734,-0.7124617,2.657564,-5.0421886,5.3438582
0.2523446,4.793248,0.061021715,-0.28808734,-0.7124617,2.657564,-5.0421886,5.3438582
0.25160736,4.793225,-0.13179116,-0.21245357,-0.6666553,2.9161377,-4.630386,5.171476
0.25087014,4.7932014,-0.13179116,-0.21245357,-0.6666553,2.9161377,-4.630386,5.171476
0.25018457,4.792945,-0.34164825,-0.1251019,-0.61871845,3.0550013,-4.2904096,4.9895163
0.24950166,4.79269,-0.34164825,-0.1251019,-0.61871845,3.0550013,-4.2904096,4.9895163
0.2488757,4.7921815,-0.5706801,-0.026032293,-0.5697163,3.0550013,-4.084508,4.8985367
0.24824674,4.7916703,-0.5706801,-0.026032293,-0.5697163,3.0550013,-4.084508,4.8985367
0.24764808,4.790845,-0.81569093,0.07836362,-0.5175183,2.8874073,-3.9791632,4.9176903
0.24711677,4.7901125,-0.81569093,0.07836362,-0.5175183,2.8874073,-3.9791632,4.9176903
0.24662039,4.789051,-1.0756154,0.18275954,-0.45892876,2.8682537,-3.9552212,5.0421886
0.24612398,4.787989,-1.0756154,0.18275954,-0.45892876,2.8682537,-3.9552212,5.0421886
0.24570005,4.7866383,-1.3472579,0.28715545,-0.3950129,2.906561,-4.0557775,5.0421886
0.2452716,4.785274,-1.3472579,0.28715545,-0.3950129,2.906561,-4.0557775,5.0421886
0.24491431,4.7836103,-1.6263572,0.39261663,-0.3279012,3.3183637,-4.295198,4.984728
0.24455602,4.781945,-1.6263572,0.39261663,-0.3279012,3.3183637,-4.295198,4.984728
0.24427316,4.779974,-1.9129133,0.5002083,-0.25759378,3.4715924,-4.4819455,4.9559975
0.24398865,4.7779965,-1.9129133,0.5002083,-0.25759378,3.4715924,-4.4819455,4.9559975
0.243782,4.775694,-2.2026653,0.6131264,-0.18728632,3.0023289,-4.7548847,4.951209
0.2435747,4.773399,-2.2026653,0.6131264,-0.18728632,3.0023289,-4.7548847,4.951209
0.24344939,4.770795,-2.495613,0.7207181,-0.11271781,2.5139117,-4.960786,4.7979803
0.24332272,4.7681966,-2.495613,0.7207181,-0.11271781,2.5139117,-4.960786,4.7979803
0.24328452,4.7652555,-2.7864301,0.8187224,-0.028561912,2.1164744,-5.1810527,4.6591167
0.24324332,4.7622557,-2.7864301,0.8187224,-0.028561912,2.1164744,-5.1810527,4.6591167
0.24330229,4.759082,-3.0729864,0.9039436,0.06837715,1.7381904,-5.3821654,4.462792
0.24335869,4.755908,-3.0729864,0.9039436,0.06837715,1.7381904,-5.3821654,4.462792
0.24352936,4.7523956,-3.3531508,0.9731858,0.1780994,1.1875241,-5.5018754,4.1946416
0.24369678,4.7488832,-3.3531508,0.9731858,0.1780994,1.1875241,-5.5018754,4.1946416
0.24398416,4.745083,-3.623728,1.0253837,0.2952785,0.7134721,-5.5497594,3.8881836
0.24426758,4.7412863,-3.623728,1.0253837,0.2952785,0.7134721,-5.5497594,3.8881836
0.2446766,4.7372265,-3.8836524,1.0637332,0.42097968,0.29209262,-5.6551046,3.5242648
0.24508251,4.733158,-3.8836524,1.0637332,0.42097968,0.29209262,-5.6551046,3.5242648
0.24562185,4.7288337,-4.138251,1.087169,0.5594641,0.15322891,-5.683835,3.2225955
0.24615633,4.724512,-4.138251,1.087169,0.5594641,0.15322891,-5.683835,3.2225955
0.24682964,4.7199283,-4.3864574,1.1020827,0.7075358,0.18195933,-5.7604494,2.8634653
0.24749638,4.715357,-4.3864574,1.1020827,0.7075358,0.18195933,-5.7604494,2.8634653
0.2482993,4.7105217,-4.629338,1.1106049,0.85773814,0.35913026,-5.923255,2.4995465
0.24909735,4.705684,-4.629338,1.1106049,0.85773814,0.35913026,-5.923255,2.4995465
0.25003475,4.7006044,-4.867957,1.123388,1.0122014,0.45010993,-6.009446,2.1883004
0.25096697,4.6955233,-4.867957,1.123388,1.0122014,0.45010993,-6.009446,2.1883004
0.25203398,4.690194,-5.10338,1.1425629,1.1645343,0.39743748,-6.1100025,1.6998832
0.25309333,4.684873,-5.10338,1.1425629,1.1645343,0.39743748,-6.1100025,1.6998832
0.25427973,4.6792774,-5.335608,1.1691945,1.3147366,0.272939,-6.2632318,1.0247183
0.2554582,4.67369,-5.335608,1.1691945,1.3147366,0.272939,-6.2632318,1.0247183
0.2567578,4.66784,-5.568901,1.2054135,1.4638736,0.08619126,-6.4643445,0.49320555
0.25805154,4.6619883,-5.568901,1.2054135,1.4638736,0.08619126,-6.4643445,0.49320555
0.25805154,4.6619883,-5.568901,1.2054135,1.4638736,0.08619126,-6.4643445,0.49320555
0.26077554,4.650044,-5.7979326,1.248024,1.6087495,-0.21068975,-6.564901,-0.18195933
0.26077554,4.650044,-5.7979326,1.248024,1.6087495,-0.21068975,-6.564901,-0.18195933
0.26077554,4.650044,-5.7979326,1.248024,1.6087495,-0.21068975,-6.564901,-0.18195933
0.26077554,4.650044,-5.7979326,1.248024,1.6087495,-0.21068975,-6.564901,-0.18195933
0.2680381,4.620984,-6.2229733,1.340702,1.8782614,-0.49320555,-6.9048777,-1.6184803
0.26939374,4.6157193,-6.4093947,1.3886389,1.9997016,-0.6799533,-7.043741,-2.2122424
0.27114224,4.608882,-6.4093947,1.3886389,1.9997016,-0.6799533,-7.043741,-2.2122424
0.2730599,4.601666,-6.576641,1.4397717,2.113685,-0.9816227,-7.225701,-2.9783869
0.2748828,4.5947514,-6.576641,1.4397717,2.113685,-0.9816227,-7.225701,-2.9783869
0.2768599,4.587442,-6.7193866,1.4930348,2.2180808,-1.1444284,-7.5704656,-3.715801
0.27882686,4.5801096,-6.7193866,1.4930348,2.2180808,-1.1444284,-7.5704656,-3.715801
0.28087276,4.572633,-6.8365655,1.5441675,2.3128893,-1.3215994,-8.0924015,-4.3478703
0.28289926,4.5651627,-6.8365655,1.5441675,2.3128893,-1.3215994,-8.0924015,-4.3478703
0.2849951,4.5575466,-6.927113,1.5846475,2.39598,-1.340753,-8.499416,-4.8027687
0.28707078,4.5499372,-6.927113,1.5846475,2.39598,-1.340753,-8.499416,-4.8027687
0.28921267,4.542238,-6.991029,1.6134098,2.4641569,-1.9488802,-8.619126,-5.683835
0.29134846,4.5344915,-6.991029,1.6134098,2.4641569,-1.9488802,-8.619126,-5.683835
0.29351252,4.5267572,-7.031509,1.6453676,2.5259423,-2.456451,-8.8777,-6.181829
0.29567245,4.5189667,-7.031509,1.6453676,2.5259423,-2.456451,-8.8777,-6.181829
0.2978714,4.5111456,-7.0453577,1.6762604,2.5877275,-2.6862943,-9.11712,-6.7229185
0.30004805,4.50333,-7.0453577,1.6762604,2.5877275,-2.6862943,-9.11712,-6.7229185
0.30226877,4.495475,-7.0293784,1.707153,2.6473825,-2.834735,-9.423578,-7.1730285
0.30446208,4.48764,-7.0293784,1.707153,2.6473825,-2.834735,-9.423578,-7.1730285
0.3066909,4.479804,-6.9888983,1.7401762,2.7038414,-2.992752,-9.619903,-7.7093296
0.308905,4.471941,-6.9888983,1.7401762,2.7038414,-2.992752,-9.619903,-7.7093296
0.3111333,4.4641404,-6.9239173,1.7742647,2.7549741,-2.9879637,-9.816227,-8.336611
0.31334215,4.456328,-6.9239173,1.7742647,2.7549741,-2.9879637,-9.816227,-8.336611
0.31558156,4.448539,-6.8408265,1.8126142,2.8039763,-3.2465374,-9.940725,-8.872911
0.31779197,4.440769,-6.8408265,1.8126142,2.8039763,-3.2465374,-9.940725,-8.872911
0.32000342,4.4330807,-6.741757,1.8467026,2.8423257,-3.1747115,-10.386047,-9.069236
0.32220295,4.4253497,-6.741757,1.8467026,2.8423257,-3.1747115,-10.386047,-9.069236
0.32438847,4.4177494,-6.6256433,1.8797258,2.8700228,-3.4811692,-11.137826,-9.102755
0.3265615,4.4101067,-6.6256433,1.8797258,2.8700228,-3.4811692,-11.137826,-9.102755
0.32872492,4.4025683,-6.483963,1.9095532,2.8891973,-3.6152446,-11.774684,-9.107543
0.330858,4.3950486,-6.483963,1.9095532,2.8891973,-3.6152446,-11.774684,-9.107543
0.33299646,4.3876753,-6.313521,1.9340543,2.9051764,-4.673482,-12.066776,-9.428367
0.33511987,4.3802676,-6.313521,1.9340543,2.9051764,-4.673482,-12.066776,-9.428367
0.33723322,4.3730593,-6.1153817,1.9351196,2.915829,-5.046977,-12.282255,-9.629479
0.33932328,4.365846,-6.1153817,1.9351196,2.915829,-5.046977,-12.282255,-9.629479
0.34140733,4.3588448,-5.8948717,1.9052922,2.9168942,-5.257667,-12.641385,-9.744401
0.3434728,4.3518243,-5.8948717,1.9052922,2.9168942,-5.257667,-12.641385,-9.744401
0.34553668,4.3450603,-5.6519914,1.8530942,2.9105027,-5.7269306,-12.880805,-9.849746
0.34757662,4.338299,-5.6519914,1.8530942,2.9105027,-5.7269306,-12.880805,-9.849746
0.34959987,4.3317986,-5.383545,1.7763952,2.892393,-5.1810527,-13.345281,-9.706094
0.35159987,4.3253,-5.383545,1.7763952,2.892393,-5.1810527,-13.345281,-9.706094
0.3535749,4.319126,-5.0884666,1.6815866,2.8572395,-5.0757074,-13.953407,-9.543288
0.35553163,4.3129425,-5.0884666,1.6815866,2.8572395,-5.0757074,-13.953407,-9.543288
0.35746416,4.3071203,-4.7571692,1.5835823,2.807172,-5.185841,-14.087482,-9.5385
0.35937765,4.3012953,-4.7571692,1.5835823,2.807172,-5.185841,-14.087482,-9.5385
0.36127242,4.295861,-4.392849,1.4717295,2.7411256,-5.497087,-14.082694,-9.653421
0.3631501,4.2904224,-4.392849,1.4717295,2.7411256,-5.497087,-14.082694,-9.653421
0.36498663,4.285443,-4.0008316,1.3470936,2.6601655,-5.583278,-14.00608,-9.634268
0.36682084,4.280425,-4.0008316,1.3470936,2.6601655,-5.583278,-14.00608,-9.634268
0.36860514,4.2758822,-3.5853784,1.207544,2.5632265,-5.377377,-14.025233,-9.543288
0.37037036,4.2713504,-3.5853784,1.207544,2.5632265,-5.377377,-14.025233,-9.543288
0.37207377,4.267323,-3.1475549,1.0605375,2.4503086,-5.046977,-14.073117,-9.524135
0.3737753,4.26327,-3.1475549,1.0605375,2.4503086,-5.046977,-14.073117,-9.524135
0.37539497,4.259754,-2.6937523,0.91672677,2.3224766,-4.76925,-14.523228,-9.533711
0.37700123,4.256244,-2.6937523,0.91672677,2.3224766,-4.76925,-14.523228,-9.533711
0.3785061,4.253294,-2.2165136,0.7803729,2.1765356,-5.48751,-15.9262295,-8.892065
0.38000014,4.250348,-2.2165136,0.7803729,2.1765356,-5.48751,-15.9262295,-8.892065
0.38149974,4.2479434,-1.7009257,0.6418885,2.0199416,-5.90889,-13.072341,-9.916783
0.38300043,4.245526,-1.7009257,0.6418885,2.0199416,-5.90889,-13.072341,-9.916783
0.38430288,4.243765,-1.2002515,0.4799683,1.8377814,-3.8833952,-14.623784,-8.619126
0.38559964,4.242006,-1.2002515,0.4799683,1.8377814,-3.8833952,-14.623784,-8.619126
0.38687527,4.240758,-0.69851184,0.36811554,1.674796,-5.90889,-14.494497,-9.442732
0.3881454,4.2395105,-0.69851184,0.36811554,1.674796,-5.90889,-14.494497,-9.442732
0.38930213,4.23888,-0.17440173,0.216848,1.4809178,-5.770026,-14.623784,-9.605537
0.39045712,4.238249,-0.17440173,0.216848,1.4809178,-5.770026,-14.623784,-9.605537
0.3915113,4.2382426,0.3550347,0.045340426,1.2636039,-5.2049947,-13.565547,-10.0748005
0.3925596,4.2382355,0.3550347,0.045340426,1.2636039,-5.2049947,-13.565547,-10.0748005
0.39346555,4.238847,0.8738185,-0.11338398,1.0271151,-4.146757,-12.100295,-10.271125
0.39437234,4.239459,0.8738185,-0.11338398,1.0271151,-4.146757,-12.100295,-10.271125
0.39511785,4.240643,1.3553181,-0.24334624,0.77677804,-3.7924154,-11.247959,-10.184934
0.39586642,4.2418323,1.3553181,-0.24334624,0.77677804,-3.7924154,-11.247959,-10.184934
0.39643732,4.2435436,1.7920765,-0.33602425,0.5200493,-4.0414124,-10.927136,-10.055647
0.39707026,4.2454405,1.7920765,-0.33602425,0.5200493,-4.0414124,-10.927136,-10.055647
0.39740506,4.247383,2.1936812,-0.4127233,0.26332054,-4.0701427,-10.788273,-10.103531
0.39777648,4.24954,2.1936812,-0.4127233,0.26332054,-4.0701427,-10.788273,-10.103531
0.39796308,4.2521677,2.5643933,-0.48196548,0.008722344,-4.2521024,-10.419566,-10.079589
0.39814913,4.254798,2.5643933,-0.48196548,0.008722344,-4.2521024,-10.419566,-10.079589
0.398148,4.2578297,2.9106042,-0.5501424,-0.24054953,-4.453215,-10.060435,-10.01734
0.39814553,4.260877,2.9106042,-0.5501424,-0.24054953,-4.453215,-10.060435,-10.01734
0.3979605,4.264309,3.2312486,-0.6225804,-0.48236457,-4.6160207,-9.888053,-9.940725
0.39777234,4.267754,3.2312486,-0.6225804,-0.48236457,-4.6160207,-9.888053,-9.940725
0.39740777,4.2715487,3.5284574,-0.6982142,-0.71139646,-4.548983,-9.825804,-9.667787
0.3970405,4.2753386,3.5284574,-0.6982142,-0.71139646,-4.548983,-9.825804,-9.667787
0.39650166,4.2794847,3.8022306,-0.7749132,-0.92657983,-4.390966,-9.844957,-9.514558
0.39596096,4.283613,3.8022306,-0.7749132,-0.92657983,-4.390966,-9.844957,-9.514558
0.3952561,4.2880764,4.058959,-0.84628594,-1.12898,-4.271256,-9.864111,-9.308656
0.39454845,4.2925243,4.058959,-0.84628594,-1.12898,-4.271256,-9.864111,-9.308656
0.3936879,4.2972746,4.2975783,-0.9133976,-1.3196625,-4.261679,-9.773131,-9.074024
0.39282256,4.302017,4.2975783,-0.9133976,-1.3196625,-4.261679,-9.773131,-9.074024
0.39181864,4.3070154,4.5180883,-0.97731346,-1.4975616,-4.3143516,-9.667787,-8.858546
0.39080194,4.31204,4.5180883,-0.97731346,-1.4975616,-4.3143516,-9.667787,-8.858546
0.3896534,4.317293,4.721554,-1.0380335,-1.6648082,-4.3287168,-9.586384,-8.561666
0.3884949,4.3225517,4.721554,-1.0380335,-1.6648082,-4.3287168,-9.586384,-8.561666
0.3872114,4.3280196,4.90691,-1.0912968,-1.8139452,-4.189853,-9.552865,-8.24563
0.38591462,4.3335037,4.90691,-1.0912968,-1.8139452,-4.189853,-9.552865,-8.24563
0.38449755,4.3391767,5.0752215,-1.1339073,-1.9492338,-4.027047,-9.548077,-7.85777
0.38307148,4.3448434,5.0752215,-1.1339073,-1.9492338,-4.027047,-9.548077,-7.85777
0.38152644,4.350689,5.229685,-1.1616042,-2.070674,-3.8259344,-9.586384,-7.4124484
0.3799752,4.356515,5.229685,-1.1616042,-2.070674,-3.8259344,-9.586384,-7.4124484
0.37831184,4.3624997,5.3734956,-1.176518,-2.180396,-3.7205894,-9.682152,-7.0724716
0.37663037,4.368507,5.3734956,-1.176518,-2.180396,-3.7205894,-9.682152,-7.0724716
0.3748478,4.374643,5.506654,-1.1786485,-2.2773352,-3.6774938,-9.801862,-6.694188
0.3730571,4.3807645,5.506654,-1.1786485,-2.2773352,-3.6774938,-9.801862,-6.694188
0.37116918,4.3870077,5.6323547,-1.1733221,-2.364687,-3.620033,-9.911995,-6.3781533
0.36926562,4.393261,5.6323547,-1.1733221,-2.364687,-3.620033,-9.911995,-6.3781533
0.36727354,4.3996153,5.7505994,-1.1690611,-2.4435165,-3.5290532,-10.055647,-5.8945246
0.36526972,4.4059668,5.7505994,-1.1690611,-2.4435165,-3.5290532,-10.055647,-5.8945246
0.3631762,4.4124293,5.8592563,-1.1679958,-2.513824,-3.3901896,-10.170568,-5.3486466
0.36107552,4.418875,5.8592563,-1.1679958,-2.513824,-3.3901896,-10.170568,-5.3486466
0.35887444,4.4254446,5.963652,-1.1669306,-2.5777397,-3.2369606,-10.362105,-4.5681367
0.35666737,4.4319963,5.963652,-1.1669306,-2.5777397,-3.2369606,-10.362105,-4.5681367
0.35435635,4.438667,6.064852,-1.1648,-2.6341987,-3.040636,-10.443508,-3.8163576
0.35203895,4.445322,6.064852,-1.1648,-2.6341987,-3.040636,-10.443508,-3.8163576
0.3496157,4.4521265,6.1628566,-1.1616042,-2.6832008,-2.834735,-10.457873,-3.0550013
0.3471841,4.4589105,6.1628566,-1.1616042,-2.6832008,-2.834735,-10.457873,-3.0550013
0.34468967,4.4658446,6.2555346,-1.1573431,-2.7311378,-2.5570073,-10.357317,-2.4133554
0.3421854,4.472746,6.2555346,-1.1573431,-2.7311378,-2.5570073,-10.357317,-2.4133554
0.33965257,4.4797997,6.3418207,-1.1520169,-2.7705526,-2.3750482,-10.28549,-1.685518
0.337114,4.486811,6.3418207,-1.1520169,-2.7705526,-2.3750482,-10.28549,-1.685518
0.33453202,4.49393,6.419585,-1.148821,-2.8078368,-2.0207062,-10.0748005,-1.1300632
0.3319456,4.501007,6.419585,-1.148821,-2.8078368,-2.0207062,-10.0748005,-1.1300632
0.32931247,4.508168,6.4824357,-1.1477557,-2.8397949,-1.4700398,-9.753978,-0.5506664
0.3266704,4.5153036,6.4824357,-1.1477557,-2.8397949,-1.4700398,-9.753978,-0.5506664
0.32397875,4.5224566,6.528242,-1.1381683,-2.8717527,-0.63206923,-9.26556,-0.21547815
0.32126805,4.529612,6.528242,-1.1381683,-2.8717527,-0.63206923,-9.26556,-0.21547815
0.3185149,4.536749,6.5538087,-1.1179284,-2.9047759,0.22026655,-8.734048,0.12928689
0.3157378,4.543903,6.5538087,-1.1179284,-2.9047759,0.22026655,-8.734048,0.12928689
0.3129142,4.551015,6.550613,-1.0827746,-2.940995,0.89064306,-7.9966335,0.45010993
0.3100784,4.558116,6.550613,-1.0827746,-2.940995,0.89064306,-7.9966335,0.45010993
0.30719954,4.565147,6.514394,-1.0380335,-2.9825401,1.2114661,-7.40766,0.9911995
0.30429766,4.5721955,6.514394,-1.0380335,-2.9825401,1.2114661,-7.40766,0.9911995
0.30135635,4.579141,6.4419556,-0.98370504,-3.0272813,0.9624691,-6.9527617,1.6041151
0.29840758,4.586069,6.4419556,-0.98370504,-3.0272813,0.9624691,-6.9527617,1.6041151
0.2954146,4.592893,6.345017,-0.92511547,-3.065631,0.6847417,-6.6175733,2.1930888
0.2924152,4.5997005,6.345017,-0.92511547,-3.065631,0.6847417,-6.6175733,2.1930888
0.28931552,4.606517,6.224642,-0.87291753,-3.0922625,0.7517793,-6.253655,2.8395233
0.28634402,4.613024,6.224642,-0.87291753,-3.0922625,0.7517793,-6.253655,2.8395233
0.2832788,4.6195135,6.0861573,-0.8260459,-3.1071763,1.2880806,-5.9902925,3.3566709
0.28019688,4.6260123,6.0861573,-0.8260459,-3.1071763,1.2880806,-5.9902925,3.3566709
0.27709734,4.632324,5.9327593,-0.7802395,-3.1125026,2.1404164,-5.8705826,3.7828386
0.2740004,4.638608,5.9327593,-0.7802395,-3.1125026,2.1404164,-5.8705826,3.7828386
0.27089956,4.644711,5.766578,-0.72697634,-3.110372,1.8339585,-5.415684,4.0222588
0.26778957,4.650811,5.766578,-0.72697634,-3.110372,1.8339585,-5.415684,4.0222588
0.2646949,4.656702,5.588679,-0.6758436,-3.1007845,1.4987702,-5.1475334,4.3718123
0.26158884,4.6625967,5.588679,-0.6758436,-3.1007845,1.4987702,-5.1475334,4.3718123
0.26158884,4.6625967,5.588679,-0.6758436,-3.1007845,1.4987702,-5.1475334,4.3718123
0.26158884,4.6625967,5.588679,-0.6758436,-3.1007845,1.4987702,-5.1475334,4.3718123
0.26158884,4.6625967,5.588679,-0.6758436,-3.1007845,1.4987702,-5.1475334,4.3718123
0.24836268,4.686201,5.2041187,-0.6066014,-3.0528476,1.5035586,-4.405331,4.9320555
0.24631192,4.689751,4.9995875,-0.5810351,-3.005976,1.7238252,-3.9983168,5.3103395
0.24302645,4.695428,4.9995875,-0.5810351,-3.005976,1.7238252,-3.9983168,5.3103395
0.24019472,4.7002015,4.783339,-0.5629256,-2.9441907,1.8866309,-3.6822822,5.645528
0.23691392,4.70572,4.783339,-0.5629256,-2.9441907,1.8866309,-3.6822822,5.645528
0.23435171,4.7099247,4.5575027,-0.54588133,-2.8717527,2.1260512,-3.4859576,6.033388
0.23152,4.714563,4.5575027,-0.54588133,-2.8717527,2.1260512,-3.4859576,6.033388
0.22869217,4.7190747,4.3220797,-0.5299024,-2.791858,2.5091233,-3.2273839,6.325481
0.2258589,4.7235866,4.3220797,-0.5299024,-2.791858,2.5091233,-3.2273839,6.325481
0.22311583,4.72783,4.077069,-0.5139234,-2.703441,3.3327289,-3.0502129,6.5984197
0.22036235,4.7320824,4.077069,-0.5139234,-2.703441,3.3327289,-3.0502129,6.5984197
0.21772039,4.73605,3.8182094,-0.4872918,-2.603306,3.2944214,-2.8874073,6.8665705
0.21505795,4.7400427,3.8182094,-0.4872918,-2.603306,3.2944214,-2.8874073,6.8665705
0.212495,4.743765,3.5476322,-0.4510728,-2.497845,3.1842883,-2.906561,7.129933
0.20983629,4.7476206,3.5476322,-0.4510728,-2.497845,3.1842883,-2.906561,7.129933
0.20745988,4.7509394,3.268533,-0.41165802,-2.3881228,3.4093432,-3.107674,7.52737
0.20507503,4.7542663,3.268533,-0.41165802,-2.3881228,3.4093432,-3.107674,7.52737
0.20276652,4.7573533,2.983042,-0.37117797,-2.272009,3.6774938,-3.074155,7.809886
0.20044309,4.760457,2.983042,-0.37117797,-2.272009,3.6774938,-3.074155,7.809886
0.19825049,4.7632623,2.6943555,-0.32111055,-2.143112,3.6535518,-3.1794999,7.97748
0.1960244,4.766107,2.6943555,-0.32111055,-2.143112,3.6535518,-3.1794999,7.97748
0.19398837,4.7685966,2.4035382,-0.26145574,-2.0014317,3.3183637,-3.217807,8.135497
0.19196212,4.771072,2.4035382,-0.26145574,-2.0014317,3.3183637,-3.217807,8.135497
0.19005409,4.7732973,2.115917,-0.20499672,-1.8480335,3.1411927,-3.4380736,8.355764
0.18798515,4.7757096,2.115917,-0.20499672,-1.8480335,3.1411927,-3.4380736,8.355764
0.18641298,4.77746,1.8357522,-0.15705982,-1.6818523,3.0693667,-3.7253778,8.585608
0.18472375,4.7793403,1.8357522,-0.15705982,-1.6818523,3.0693667,-3.7253778,8.585608
0.18318458,4.780978,1.5673057,-0.11551451,-1.5060837,2.992752,-3.9935284,8.614338
0.18164535,4.782615,1.5673057,-0.11551451,-1.5060837,2.992752,-3.9935284,8.614338
0.1802812,4.7840023,1.3127074,-0.079295516,-1.3249887,2.882619,-4.209007,8.63828
0.17891426,4.7853928,1.3127074,-0.079295516,-1.3249887,2.882619,-4.209007,8.63828
0.17774788,4.786523,1.068762,-0.050533377,-1.1417632,2.5187001,-3.9121256,8.451532
0.17657907,4.787656,1.068762,-0.050533377,-1.1417632,2.5187001,-3.9121256,8.451532
0.17558317,4.788547,0.8280121,-0.03455441,-0.9617336,3.3135753,-4.462792,8.623915
0.17458633,4.789439,0.8280121,-0.03455441,-0.9617336,3.3135753,-4.462792,8.623915
0.17377867,4.7900934,0.5893929,-0.014314385,-0.77637756,2.8778305,-4.8841715,8.825027
0.17297103,4.790748,0.5893929,-0.014314385,-0.77637756,2.8778305,-4.8841715,8.825027
0.17235258,4.7911725,0.35929576,0.012317227,-0.588891,2.4468741,-4.8985367,8.494628
0.17173733,4.791595,0.35929576,0.012317227,-0.588891,2.4468741,-4.8985367,8.494628
0.17130138,4.7917967,0.13772075,0.024035135,-0.4088613,2.360683,-4.390966,8.1402855
0.17086545,4.791999,0.13772075,0.024035135,-0.4088613,2.360683,-4.390966,8.1402855
0.1706101,4.7919736,-0.091311105,0.029361458,-0.23096216,2.0398598,-4.367024,7.9487495
0.17035392,4.791949,-0.091311105,0.029361458,-0.23096216,2.0398598,-4.367024,7.9487495
0.17027536,4.791689,-0.32886508,0.029361458,-0.053062994,2.0398598,-4.0797195,7.61835
0.17019676,4.7914286,-0.32886508,0.029361458,-0.053062994,2.0398598,-4.0797195,7.61835
0.17028934,4.7909245,-0.5738759,0.02723093,0.119509846,2.1260512,-3.7541082,7.4268136
0.17038184,4.7904205,-0.5738759,0.02723093,0.119509846,2.1260512,-3.7541082,7.4268136
0.17064543,4.7896624,-0.82953936,0.032557253,0.2920827,2.2170308,-3.7349546,7.2687964
0.17090909,4.788904,-0.82953936,0.032557253,0.2920827,2.2170308,-3.7349546,7.2687964
0.17134404,4.7878838,-1.0915945,0.04427516,0.46359026,2.2266076,-3.7588966,7.153875
0.17177902,4.7868633,-1.0915945,0.04427516,0.46359026,2.2266076,-3.7588966,7.153875
0.1723796,4.785576,-1.3589758,0.057058334,0.62977153,2.2457612,-3.8642416,7.0102224
0.17298003,4.784288,-1.3589758,0.057058334,0.62977153,2.2457612,-3.8642416,7.0102224
0.17373483,4.78273,-1.6274225,0.073037304,0.78530014,2.3319526,-4.0892963,6.885724
0.17448968,4.7811728,-1.6274225,0.073037304,0.78530014,2.3319526,-4.0892963,6.885724
0.17538835,4.779347,-1.8937385,0.0911468,0.9301761,2.408567,-4.3287168,6.7803793
0.17628698,4.777521,-1.8937385,0.0911468,0.9301761,2.408567,-4.3287168,6.7803793
0.17731616,4.775432,-2.1536632,0.11458261,1.0612036,2.3798366,-4.630386,6.564901
0.17834523,4.773343,-2.1536632,0.11458261,1.0612036,2.3798366,-4.630386,6.564901
0.17949598,4.770992,-2.411457,0.14654055,1.1826438,2.255338,-4.8362875,6.2249246
0.18064663,4.7686396,-2.411457,0.14654055,1.1826438,2.255338,-4.8362875,6.2249246
0.18191156,4.766029,-2.66499,0.18489006,1.2955618,2.0159178,-4.9703627,5.837064
0.1831763,4.763417,-2.66499,0.18489006,1.2955618,2.0159178,-4.9703627,5.837064
0.18486843,4.7598734,-2.918523,0.22643538,1.401023,1.6567876,-5.0900726,5.233725
0.18591861,4.7576723,-2.918523,0.22643538,1.401023,1.6567876,-5.0900726,5.233725
0.187393,4.75454,-3.1752517,0.27011123,1.5043536,1.2737153,-5.3725886,4.7548847
0.18886678,4.751406,-3.1752517,0.27011123,1.5043536,1.2737153,-5.3725886,4.7548847
0.19044024,4.748004,-3.4330456,0.31378707,1.6044885,1.0342951,-5.592855,4.1419687
0.19201304,4.7445993,-3.4330456,0.31378707,1.6044885,1.0342951,-5.592855,4.1419687
0.19367623,4.7409277,-3.6929703,0.35639766,1.6982318,0.82360536,-5.932832,3.6248214
0.19533853,4.7372537,-3.6929703,0.35639766,1.6982318,0.82360536,-5.932832,3.6248214
0.19708642,4.733314,-3.949699,0.3968777,1.7887793,0.6368576,-6.411672,3.1842883
0.19883321,4.7293725,-3.949699,0.3968777,1.7887793,0.6368576,-6.411672,3.1842883
0.20066749,4.725154,-4.2011013,0.438423,1.8729352,0.272939,-6.9479733,2.6671407
0.20248924,4.720958,-4.2011013,0.438423,1.8729352,0.272939,-6.9479733,2.6671407
0.20439105,4.7165,-4.445047,0.4810336,1.9549605,-0.04309563,-7.469909,2.1930888
0.20629308,4.712034,-4.445047,0.4810336,1.9549605,-0.04309563,-7.469909,2.1930888
0.2082531,4.7073364,-4.674079,0.52151364,2.0284638,-0.33997664,-7.9248075,1.5897499
0.21021122,4.7026353,-4.674079,0.52151364,2.0284638,-0.33997664,-7.9248075,1.5897499
0.21222244,4.697685,-4.889262,0.5641242,2.098771,-0.5363012,-8.327033,0.9672575
0.21423008,4.692736,-4.889262,0.5641242,2.098771,-0.5363012,-8.327033,0.9672575
0.21625786,4.6875567,-5.0874014,0.6067348,2.1648176,-0.7469909,-8.671799,0.24420857
0.21828473,4.682377,-5.0874014,0.6067348,2.1648176,-0.7469909,-8.671799,0.24420857
0.22035292,4.6769133,-5.266366,0.65254116,2.223407,-0.9959879,-8.868123,-0.51714754
0.22241431,4.6714525,-5.266366,0.65254116,2.223407,-0.9959879,-8.868123,-0.51714754
0.22457659,4.665758,-5.428286,0.6994128,2.2798662,-1.1204864,-9.107543,-1.2785037
0.22672985,4.660062,-5.428286,0.6994128,2.2798662,-1.1204864,-9.107543,-1.2785037
0.22901855,4.6540375,-5.5699663,0.7473497,2.3320642,-1.1827357,-9.23683,-2.0973208
0.23118562,4.648309,-5.5699663,0.7473497,2.3320642,-1.1827357,-9.23683,-2.0973208
0.23345658,4.6422896,-5.6967325,0.7952866,2.37574,-1.2066777,-9.32781,-2.920926
0.23573342,4.6362286,-5.6967325,0.7952866,2.37574,-1.2066777,-9.32781,-2.920926
0.23801094,4.6301165,-5.8117814,0.845354,2.411959,-1.2066777,-9.394848,-3.5865142
0.24030124,4.6239433,-5.8117814,0.845354,2.411959,-1.2066777,-9.394848,-3.5865142
0.24261366,4.6176443,-5.915112,0.89861727,2.4396558,-1.3024458,-9.56723,-4.185065
0.2449175,4.6113396,-5.915112,0.89861727,2.4396558,-1.3024458,-9.56723,-4.185065
0.2472333,4.604925,-6.00779,0.9550763,2.4598958,-1.532289,-9.773131,-4.6686935
0.24954467,4.5984917,-6.00779,0.9550763,2.4598958,-1.532289,-9.773131,-4.6686935
0.25185338,4.5919757,-6.0866194,1.0115353,2.4748096,-1.7190368,-10.04607,-5.0661306
0.2541524,4.585453,-6.0866194,1.0115353,2.4748096,-1.7190368,-10.04607,-5.0661306
0.25646588,4.578805,-6.150535,1.0637332,2.4854622,-1.9967642,-10.342952,-5.439626
0.25875524,4.572189,-6.150535,1.0637332,2.4854622,-1.9967642,-10.342952,-5.439626
0.2610448,4.5654855,-6.197407,1.1106049,2.4918537,-2.2409728,-10.754754,-5.7365074
0.2633188,4.5587883,-6.197407,1.1106049,2.4918537,-2.2409728,-10.754754,-5.7365074
0.26558268,4.5520444,-6.225104,1.1489544,2.4939842,-2.5187001,-11.161768,-6.0381765
0.2678394,4.54528,-6.225104,1.1489544,2.4939842,-2.5187001,-11.161768,-6.0381765
0.27008158,4.538513,-6.23043,1.1777165,2.4971802,-2.8395233,-11.621455,-6.3589997
0.2723206,4.5317125,-6.23043,1.1777165,2.4971802,-2.8395233,-11.621455,-6.3589997
0.27454308,4.5249405,-6.213386,1.2000871,2.5025065,-3.074155,-12.023681,-6.622362
0.27675754,4.518147,-6.213386,1.2000871,2.5025065,-3.074155,-12.023681,-6.622362
0.27897018,4.5113688,-6.1718407,1.216066,2.508898,-3.3135753,-12.440272,-6.8426285
0.28116584,4.5045953,-6.1718407,1.216066,2.508898,-3.3135753,-12.440272,-6.8426285
0.2834045,4.497737,-6.103664,1.2267187,2.5184853,-3.5098996,-12.756307,-7.1059904
0.28567097,4.4907417,-6.103664,1.2267187,2.5184853,-3.5098996,-12.756307,-7.1059904
0.28773248,4.4844522,-6.0099206,1.2288493,2.529138,-3.5913026,-12.971785,-7.374141
0.28987736,4.4778614,-6.0099206,1.2288493,2.529138,-3.5913026,-12.971785,-7.374141
0.2920403,4.4713173,-5.8906107,1.2203271,2.5344644,-3.7205894,-13.13459,-7.6614456
0.294188,4.4647717,-5.8906107,1.2203271,2.5344644,-3.7205894,-13.13459,-7.6614456
0.29632547,4.458377,-5.747865,1.2043482,2.5355296,-3.7828386,-13.120225,-7.929596
0.2984586,4.451948,-5.747865,1.2043482,2.5355296,-3.7828386,-13.120225,-7.929596
0.30057538,4.4457083,-5.5838146,1.1798471,2.5355296,-3.7205894,-13.148955,-8.130709
0.30268803,4.439435,-5.5838146,1.1798471,2.5355296,-3.7205894,-13.148955,-8.130709
0.30479395,4.433359,-5.3984585,1.1500196,2.5323339,-3.845088,-12.909535,-8.269572
0.30688336,4.4272876,-5.3984585,1.1500196,2.5323339,-3.845088,-12.909535,-8.269572
0.30896735,4.42137,-5.2013845,1.1138006,2.5195506,-3.3423057,-12.53604,-8.465898
0.31110713,4.4152503,-5.2013845,1.1138006,2.5195506,-3.3423057,-12.53604,-8.465898
0.3131746,4.4095387,-4.9957886,1.0786469,2.5035717,-3.8355112,-12.124237,-8.844181
0.3151471,4.4040527,-4.9957886,1.0786469,2.5035717,-3.8355112,-12.124237,-8.844181
0.31712988,4.3986335,-4.7891273,1.0328406,2.4769402,-3.2130187,-12.995727,-8.317456
0.31911942,4.393158,-4.7891273,1.0328406,2.4769402,-3.2130187,-12.995727,-8.317456
0.32109213,4.3879156,-4.5643563,0.98596895,2.4417863,-3.7828386,-13.148955,-8.441956
0.32305044,4.382677,-4.5643563,0.98596895,2.4417863,-3.7828386,-13.148955,-8.441956
0.3249786,4.3776846,-4.3150845,0.9369668,2.3949146,-3.6391866,-12.607866,-8.647857
0.326895,4.3726907,-4.3150845,0.9369668,2.3949146,-3.6391866,-12.607866,-8.647857
0.32877982,4.3679705,-4.05516,0.8826383,2.3416514,-3.8115692,-12.0571995,-8.7771435
0.3306556,4.363244,-4.05516,0.8826383,2.3416514,-3.8115692,-12.0571995,-8.7771435
0.33251,4.358791,-3.7973661,0.82617927,2.2937145,-4.285621,-11.903971,-8.949526
0.3343491,4.3543496,-3.7973661,0.82617927,2.2937145,-4.285621,-11.903971,-8.949526
0.33614728,4.35016,-3.542768,0.748415,2.2329946,-3.845088,-12.492945,-8.532935
0.33792692,4.3459907,-3.542768,0.748415,2.2329946,-3.845088,-12.492945,-8.532935
0.339664,4.342107,-3.2807128,0.66106325,2.1658828,-3.8546648,-13.072341,-8.202535
0.34139052,4.338226,-3.2807128,0.66106325,2.1658828,-3.8546648,-13.072341,-8.202535
0.34306613,4.3346605,-2.999483,0.57158107,2.0849228,-4.0653543,-13.570335,-8.030152
0.344735,4.3310914,-2.999483,0.57158107,2.0849228,-4.0653543,-13.570335,-8.030152
0.34636173,4.3278584,-2.6990786,0.47890306,1.9986364,-4.534618,-13.891158,-8.001422
0.34797943,4.324629,-2.6990786,0.47890306,1.9986364,-4.534618,-13.891158,-8.001422
0.34955722,4.3217444,-2.378434,0.3755724,1.9027625,-4.8123455,-14.121001,-7.9966335
0.35112044,4.318875,-2.378434,0.3755724,1.9027625,-4.8123455,-14.121001,-7.9966335
0.35112044,4.318875,-2.378434,0.3755724,1.9027625,-4.8123455,-14.121001,-7.9966335
0.3541104,4.313903,-2.0418103,0.2647849,1.7983667,-4.6591167,-14.245501,-7.872135
0.3541104,4.313903,-2.0418103,0.2647849,1.7983667,-4.6591167,-14.245501,-7.872135
0.3541104,4.313903,-2.0418103,0.2647849,1.7983667,-4.6591167,-14.245501,-7.872135
0.35841236,4.30855,-1.3291484,0.054927804,1.5650737,-4.156334,-13.996503,-7.7189064
0.35952,4.3071637,-1.3291484,0.054927804,1.5650737,-4.156334,-13.996503,-7.7189064
0.36076525,4.3059235,-0.9595016,-0.03242388,1.4383073,-4.285621,-13.565547,-7.8146744
0.36211962,4.304572,-0.9595016,-0.03242388,1.4383073,-4.285621,-13.565547,-7.8146744
0.36317784,4.30381,-0.5919854,-0.11551451,1.3019534,-4.2185836,-13.010092,-8.00621
0.36435154,4.3029637,-0.5919854,-0.11551451,1.3019534,-4.2185836,-13.010092,-8.00621
0.36544466,4.302516,-0.23192601,-0.19540934,1.1570774,-4.3239284,-12.354081,-8.111555
0.36653373,4.3020697,-0.23192601,-0.19540934,1.1570774,-4.3239284,-12.354081,-8.111555
0.36751863,4.3020124,0.10895862,-0.27530417,1.0036794,-4.0462008,-11.8896055,-8.24563
0.36850107,4.3019557,0.10895862,-0.27530417,1.0036794,-4.0462008,-11.8896055,-8.24563
0.36935517,4.302274,0.42853796,-0.35306847,0.8406939,-3.6343982,-11.640609,-8.063671
0.3702132,4.3025947,0.42853796,-0.35306847,0.8406939,-3.6343982,-11.640609,-8.063671
0.37093887,4.303272,0.72787726,-0.42337593,0.6670558,-3.3806129,-11.358093,-8.015787
0.37170047,4.3039823,0.72787726,-0.42337593,0.6670558,-3.3806129,-11.358093,-8.015787
0.3722276,4.3049207,1.0091071,-0.48303074,0.4806345,-3.040636,-11.104307,-7.8769236
0.37278968,4.305921,1.0091071,-0.48303074,0.4806345,-3.040636,-11.104307,-7.8769236
0.37318572,4.3072395,1.2711622,-0.5320329,0.28462583,-2.7724855,-10.94629,-7.603985
0.37358227,4.3085613,1.2711622,-0.5320329,0.28462583,-2.7724855,-10.94629,-7.603985
0.3737957,4.3101816,1.5214993,-0.5661214,0.08329086,-2.5474305,-11.046846,-7.3406224
0.37400883,4.311804,1.5214993,-0.5661214,0.08329086,-2.5474305,-11.046846,-7.3406224
0.37403575,4.313711,1.7665101,-0.58742666,-0.123370446,-2.6384103,-11.166556,-7.1107793
0.37406233,4.3156514,1.7665101,-0.58742666,-0.123370446,-2.6384103,-11.166556,-7.1107793
0.37389976,4.3178053,2.008325,-0.6012751,-0.3289665,-2.753332,-11.353305,-6.789956
0.37373385,4.319995,2.008325,-0.6012751,-0.3289665,-2.753332,-11.353305,-6.789956
0.37338236,4.322461,2.2480097,-0.612993,-0.5313667,-2.9831753,-11.468226,-6.5361705
0.37303004,4.324926,2.2480097,-0.612993,-0.5313667,-2.9831753,-11.468226,-6.5361705
0.37249398,4.327667,2.4876943,-0.63003725,-0.7295059,-3.1507695,-11.626244,-6.244078
0.37195715,4.330406,2.4876943,-0.63003725,-0.7295059,-3.1507695,-11.626244,-6.244078
0.37124267,4.33343,2.7263134,-0.6534731,-0.91805774,-3.3327289,-11.741165,-5.851429
0.37052715,4.33645,2.7263134,-0.6534731,-0.91805774,-3.3327289,-11.741165,-5.851429
0.3696457,4.3397584,2.965998,-0.689692,-1.0970222,-3.6056678,-11.808203,-5.401319
0.36876437,4.3430586,2.965998,-0.689692,-1.0970222,-3.6056678,-11.808203,-5.401319
0.36772114,4.3466682,3.207813,-0.7386942,-1.2663993,-3.9600096,-11.9374895,-4.9464207
0.36667636,4.350274,3.207813,-0.7386942,-1.2663993,-3.9600096,-11.9374895,-4.9464207
0.36549053,4.354207,3.4517584,-0.798349,-1.4197973,-3.9121256,-12.014104,-4.501099
0.3642999,4.3581295,3.4517584,-0.798349,-1.4197973,-3.9121256,-12.014104,-4.501099
0.36299488,4.3624315,3.6967692,-0.8654607,-1.5582817,-3.7684734,-11.999739,-4.060566
0.36170706,4.366638,3.6967692,-0.8654607,-1.5582817,-3.7684734,-11.999739,-4.060566
0.360317,4.3711925,3.9407148,-0.9347029,-1.6839828,-3.5865142,-11.975797,-3.7445314
0.35891712,4.3757377,3.9407148,-0.9347029,-1.6839828,-3.5865142,-11.975797,-3.7445314
0.35743105,4.380554,4.179334,-1.0028799,-1.7969009,-3.5913026,-11.884817,-3.6343982
0.35593823,4.3853474,4.179334,-1.0028799,-1.7969009,-3.5913026,-11.884817,-3.6343982
0.35436848,4.390446,4.4094315,-1.0699915,-1.8991663,-3.6248214,-11.654974,-3.3854012
0.35279053,4.39552,4.4094315,-1.0699915,-1.8991663,-3.6248214,-11.654974,-3.3854012
0.3511505,4.4008427,4.62568,-1.1371031,-1.9918443,-3.4811692,-11.45865,-3.1028855
0.3494973,4.4061556,4.62568,-1.1371031,-1.9918443,-3.4811692,-11.45865,-3.1028855
0.34777084,4.411702,4.8291454,-1.2063453,-2.0760002,-3.442862,-11.080365,-3.0262709
0.3460257,4.4172482,4.8291454,-1.2063453,-2.0760002,-3.442862,-11.080365,-3.0262709
0.3442326,4.423007,5.0187626,-1.2766528,-2.1526992,-3.217807,-10.769119,-2.7102363
0.3424275,4.4287434,5.0187626,-1.2766528,-2.1526992,-3.217807,-10.769119,-2.7102363
0.34056756,4.434714,5.1966615,-1.3490907,-2.2262025,-2.858677,-10.481815,-2.2601264
0.33870006,4.4406505,5.1966615,-1.3490907,-2.2262025,-2.858677,-10.481815,-2.2601264
0.33677775,4.4468074,5.362843,-1.4193982,-2.2975752,-2.6192567,-10.232818,-1.8243817
0.33484453,4.452942,5.362843,-1.4193982,-2.2975752,-2.6192567,-10.232818,-1.8243817
0.332863,4.459258,5.520502,-1.4843793,-2.3636217,-2.4229321,-9.931149,-1.4269443
0.33086655,4.4655647,5.520502,-1.4843793,-2.3636217,-2.4229321,-9.931149,-1.4269443
0.3288165,4.4720254,5.665378,-1.5429689,-2.4264722,-2.1883004,-9.725247,-1.0965444
0.3267471,4.47849,5.665378,-1.5429689,-2.4264722,-2.1883004,-9.725247,-1.0965444
0.32461742,4.4850955,5.7996016,-1.6004932,-2.4914534,-1.8770541,-9.56723,-0.7374141
0.32248083,4.4916644,5.7996016,-1.6004932,-2.4914534,-1.8770541,-9.56723,-0.7374141
0.32027036,4.498403,5.9210415,-1.660148,-2.5596302,-1.5801731,-9.433155,-0.29209262
0.3180351,4.5051575,5.9210415,-1.660148,-2.5596302,-1.5801731,-9.433155,-0.29209262
0.31575382,4.5119877,6.028633,-1.7251291,-2.626742,-1.2976574,-9.241618,0.19153613
0.31345648,4.5188074,6.028633,-1.7251291,-2.626742,-1.2976574,-9.241618,0.19153613
0.31108698,4.5257487,6.124507,-1.789045,-2.6938536,-0.9864111,-9.064447,0.58418524
0.3086986,4.5326858,6.124507,-1.789045,-2.6938536,-0.9864111,-9.064447,0.58418524
0.3062469,4.5397167,6.2075977,-1.8508303,-2.7556388,-0.6895301,-8.772355,0.9864111
0.30378073,4.546729,6.2075977,-1.8508303,-2.7556388,-0.6895301,-8.772355,0.9864111
0.30126095,4.5537877,6.2757745,-1.9083546,-2.8131633,-0.17238252,-8.413225,1.4652514
0.2987035,4.5608907,6.2757745,-1.9083546,-2.8131633,-0.17238252,-8.413225,1.4652514
0.2960936,4.568001,6.3247766,-1.9541609,-2.868557,0.39264908,-7.920019,1.7429788
0.29344776,4.5751476,6.3247766,-1.9541609,-2.868557,0.39264908,-7.920019,1.7429788
0.29066238,4.582501,6.3524737,-1.9861189,-2.9196897,1.2401965,-7.321469,2.0159178
