Pitch,Roll,Gyro_X,Gyro_Y,Gyro_Z,Accel_X,Accel_Y,Accel_Z
0.44790292,4.022745,-2.0922158,0.16306978,-0.84204614,3.8400898,-3.0168552,6.998354
0.44711524,4.020918,-2.0922158,0.16306978,-0.84204614,3.8331041,-3.0245976,7.01299
0.44634056,4.019125,-2.0826285,0.17585295,-0.8367198,3.5915976,-3.2046032,7.2045116
0.44556305,4.0173225,-2.0826285,0.17585295,-0.8367198,3.584693,-3.212302,7.218917
0.4447829,4.0155277,-2.064519,0.19396245,-0.8303282,3.0414643,-3.4306755,7.372134
0.4440044,4.013735,-2.064519,0.19396245,-0.8303282,3.0345488,-3.4383864,7.3864594
0.4432259,4.0119624,-2.0346916,0.2046151,-0.82393664,2.745112,-3.5178392,7.467665
0.44244814,4.0101905,-2.0346916,0.2046151,-0.82393664,2.7381983,-3.5254962,7.4818153
0.4416831,4.008462,-1.996342,0.19396245,-0.81754506,2.9516592,-3.451577,7.538721
0.44091725,4.00673,-1.996342,0.19396245,-0.81754506,2.9448457,-3.4591064,7.5525427
0.44016874,4.0050507,-1.9505357,0.1747877,-0.8100882,3.4266,-3.3323448,7.700023
0.43941864,4.0033674,-1.9505357,0.1747877,-0.8100882,3.4199214,-3.3397117,7.7134585
0.4386886,4.001744,-1.8983376,0.16306978,-0.8005008,3.2506166,-3.409068,7.764724
0.4379581,4.0001163,-1.8983376,0.16306978,-0.8005008,3.2441063,-3.4162211,7.777692
0.437243,3.9985435,-1.8440092,0.15561293,-0.7887829,3.1228108,-3.3800418,7.81898
0.43652877,3.9969707,-1.8440092,0.15561293,-0.7887829,3.116445,-3.386986,7.8315225
0.43583408,3.9954548,-1.7875501,0.14282976,-0.7759997,3.04321,-3.3649528,7.872347
0.4351401,3.993939,-1.7875501,0.14282976,-0.7759997,3.0370178,-3.3716774,7.884428
0.43446708,3.9924853,-1.7278954,0.1268508,-0.7621513,3.2129707,-3.2919333,7.886447
0.433794,3.9910305,-1.7278954,0.1268508,-0.7621513,3.206963,-3.2984095,7.898047
0.43311894,3.989588,-1.6639794,0.11193709,-0.74723756,3.224876,-3.3383486,8.0149
0.43249273,3.9882488,-1.6639794,0.11193709,-0.74723756,3.2192836,-3.3443317,8.025576
0.43186054,3.986922,-1.5968678,0.10021918,-0.73338914,3.1944795,-3.369394,8.165468
0.43123606,3.9856098,-1.5968678,0.10021918,-0.73338914,3.1888976,-3.3752594,8.175944
0.4306275,3.9843516,-1.525495,0.089566536,-0.71314913,3.1930346,-3.5149455,8.281778
0.430019,3.9830923,-1.525495,0.089566536,-0.71314913,3.1875935,-3.5205815,8.291843
0.42943847,3.9819095,-1.448796,0.0789139,-0.6897133,3.1105719,-3.7030349,8.459332
0.42886132,3.9807324,-1.448796,0.0789139,-0.6897133,3.1054096,-3.7083046,8.468747
0.42831,3.9796286,-1.3657054,0.06719598,-0.6630817,3.0382261,-3.9670193,8.635622
0.4277571,3.9785202,-1.3657054,0.06719598,-0.6630817,3.0332785,-3.9719841,8.644505
0.42723903,3.9775052,-1.2698317,0.054412812,-0.6311238,2.9951172,-4.2733865,8.781955
0.42672178,3.9764915,-1.2698317,0.054412812,-0.6311238,2.990487,-4.2779145,8.790103
0.42624477,3.9755828,-1.1590441,0.036303315,-0.5949048,2.9383287,-4.497421,9.022493
0.42576826,3.974674,-1.1590441,0.036303315,-0.5949048,2.9340591,-4.50146,9.029821
0.42533967,3.9738848,-1.033343,0.016063292,-0.5501637,2.8823338,-4.69647,9.199034
0.42491102,3.9730945,-1.033343,0.016063292,-0.5501637,2.8784904,-4.699954,9.205443
0.4245363,3.97244,-0.8895322,-0.0073725274,-0.49903098,2.879919,-4.927841,9.354454
0.42416188,3.9717855,-0.8895322,-0.0073725274,-0.49903098,2.876563,-4.930681,9.35981
0.42384422,3.971285,-0.727612,-0.034004137,-0.446833,2.9455404,-5.0476823,9.565103
0.4235268,3.9707847,-0.727612,-0.034004137,-0.446833,2.9426928,-5.0497665,9.569281
0.42326912,3.970457,-0.5475823,-0.061701015,-0.39250454,2.8829184,-5.209002,9.711016
0.42301106,3.9701285,-0.5475823,-0.061701015,-0.39250454,2.8806038,-5.210226,9.71389
0.42281207,3.9699895,-0.34944314,-0.08726736,-0.3371108,2.8309326,-5.37807,9.969137
0.42261323,3.9698505,-0.34944314,-0.08726736,-0.3371108,2.8291492,-5.3783216,9.9706
0.42247963,3.969917,-0.13425972,-0.11496424,-0.2763907,2.5789537,-5.6313057,10.262618
0.42234606,3.9699836,-0.13425972,-0.11496424,-0.2763907,2.577755,-5.6305056,10.262543
0.42228052,3.970272,0.09903321,-0.14266111,-0.21140957,2.414361,-5.839251,10.624731
0.42221493,3.970561,0.09903321,-0.14266111,-0.21140957,2.4137707,-5.8373036,10.622999
0.42222297,3.9710884,0.3504356,-0.17355378,-0.14110212,2.3228655,-6.0256653,11.031288
0.42223096,3.9716163,0.3504356,-0.17355378,-0.14110212,2.322935,-6.0224905,11.027773
0.4223174,3.9724045,0.6210128,-0.20764224,-0.06759887,2.1800604,-6.3387976,11.51073
0.42240337,3.9731908,0.6210128,-0.20764224,-0.06759887,2.18083,-6.3342986,11.505285
0.42257267,3.974253,0.9107647,-0.2417307,0.013361229,2.0339117,-6.67315,11.871272
0.422742,3.975316,0.9107647,-0.2417307,0.013361229,2.035431,-6.66724,11.863752
0.42299917,3.976679,1.2218219,-0.28221077,0.094321325,1.8749342,-6.90879,12.203544
0.42325607,3.9780426,1.2218219,-0.28221077,0.094321325,1.8772383,-6.90136,12.193775
0.4236059,3.9797304,1.556315,-0.32801712,0.17741196,1.775033,-7.0694413,12.420996
0.42395517,3.9814188,1.556315,-0.32801712,0.17741196,1.778162,-7.0603743,12.40879
0.42440024,3.9834542,1.911048,-0.37808457,0.26050258,1.6193476,-7.193199,12.542427
0.4248442,3.985486,1.911048,-0.37808457,0.26050258,1.6233311,-7.1824217,12.527626
0.42539167,3.9878914,2.284956,-0.42921725,0.3499848,1.4031839,-7.303846,12.586636
0.42593765,3.990293,2.284956,-0.42921725,0.3499848,1.4080753,-7.291263,12.569035
0.4265869,3.9930778,2.6737773,-0.48567626,0.43733647,1.2032051,-7.3629775,12.53897
0.42722565,3.9958184,2.6737773,-0.48567626,0.43733647,1.2089272,-7.3487873,12.518766
0.42797875,3.9990058,3.0764472,-0.5442658,0.5225576,0.9954014,-7.332399,12.509571
0.42874297,4.002242,3.0764472,-0.5442658,0.5225576,1.0022383,-7.3158445,12.485597
0.42959926,4.0058346,3.4865742,-0.60392064,0.6077788,0.746541,-7.3742085,12.439749
0.43045014,4.0094066,3.4865742,-0.60392064,0.6077788,0.7541504,-7.3561687,12.413151
0.43141136,4.0134096,3.8998969,-0.6614449,0.69513047,0.33657742,-7.4127173,12.4454975
0.43237802,4.017439,3.8998969,-0.6614449,0.69513047,0.34521675,-7.392658,12.415331
0.43345717,4.0219126,4.318546,-0.7200344,0.7835474,0.2542982,-7.5237966,12.573273
0.43451446,4.0263004,4.318546,-0.7200344,0.7835474,0.2637396,-7.502292,12.540241
0.43815526,4.0413156,5.1590395,-0.8436051,0.9667729,-0.08686638,-7.6550817,12.369036
0.43815526,4.0413156,5.1590395,-0.8436051,0.9667729,-0.08686638,-7.6550817,12.369036
0.43815526,4.0413156,5.1590395,-0.8436051,0.9667729,-0.08686638,-7.6550817,12.369036
0.43983278,4.04819,5.1590395,-0.8436051,0.9667729,-0.07192135,-7.6226807,12.316608
0.44088006,4.052441,5.573427,-0.9107168,1.0615815,0.076262474,-7.645979,12.284061
0.44232166,4.058299,5.573427,-0.9107168,1.0615815,0.089084625,-7.618956,12.239101
0.44425344,4.066061,5.980358,-0.97995895,1.1585205,0.16851044,-7.6459236,12.126572
0.44520283,4.0698805,5.980358,-0.97995895,1.1585205,0.17693996,-7.6287575,12.097036
0.44684464,4.076398,6.3755713,-1.0460054,1.2597207,0.13884068,-7.5854664,11.926735
0.4484593,4.082817,6.3755713,-1.0460054,1.2597207,0.15316582,-7.557338,11.876752
0.4484593,4.082817,6.756936,-1.1120517,1.357725,0.15316582,-7.557338,11.876752
0.45201463,4.0967946,6.756936,-1.1120517,1.357725,0.041012764,-7.4783435,11.66193
0.45385706,4.103951,7.120191,-1.1802287,1.454664,-0.05282116,-7.3766336,11.495415
0.4556496,4.110925,7.120191,-1.1802287,1.454664,-0.036972046,-7.3479404,11.440297
0.4556496,4.110925,7.4642715,-1.2516015,1.5526683,-0.036972046,-7.3479404,11.440297
0.45961776,4.126156,7.4642715,-1.2516015,1.5526683,-0.04025364,-7.28222,11.027122
0.4616974,4.134032,7.788112,-1.3240393,1.6485422,0.025959969,-7.141511,10.739088
0.46378556,4.1419563,7.788112,-1.3240393,1.6485422,0.044348717,-7.1112986,10.675526
0.46599588,4.150237,8.0895815,-1.3943468,1.7390896,0.08294392,-6.8745494,10.278429
0.46820807,4.1585445,8.0895815,-1.3943468,1.7390896,0.102378845,-6.844219,10.211322
0.47052544,4.167145,8.36442,-1.4625238,1.8232455,0.026948929,-6.6412077,9.854267
0.47284654,4.1757827,8.36442,-1.4625238,1.8232455,0.047290802,-6.611119,9.784019
0.47521287,4.184613,8.36442,-1.4625238,1.8232455,0.068011284,-6.5810466,9.712004
0.47789016,4.194493,8.6104965,-1.5296354,1.9042057,0.21591663,-6.323331,9.224116
0.48006275,4.20242,8.828876,-1.5935513,1.98197,0.56050205,-6.0153623,8.886049
0.4825467,4.2115107,8.828876,-1.5935513,1.98197,0.5821676,-5.9868727,8.811197
0.48513588,4.2208967,9.017427,-1.6521409,2.0501468,0.662179,-5.766835,8.446351
0.48771212,4.23027,9.017427,-1.6521409,2.0501468,0.6845913,-5.7391653,8.368744
0.49035525,4.2398267,9.176151,-1.701143,2.1076713,0.77458954,-5.582593,7.963785
0.49298987,4.2493896,9.176151,-1.701143,2.1076713,0.7974405,-5.556114,7.8842273
0.49568152,4.2591166,9.305049,-1.7448188,2.1566734,1.0841188,-5.424775,7.5684705
0.4983663,4.2688603,9.305049,-1.7448188,2.1566734,1.1073422,-5.399589,7.4870625
0.50108904,4.278709,9.404119,-1.7810378,2.1992838,1.4037943,-5.269746,7.0119557
0.50381476,4.2886147,9.404119,-1.7810378,2.1992838,1.4273028,-5.24598,6.928892
0.50657237,4.2986054,9.475491,-1.8098,2.2376335,1.7575064,-5.1703224,6.481037
0.50931585,4.3085947,9.475491,-1.8098,2.2376335,1.7810917,-5.1482306,6.397011
0.5120783,4.318665,9.523428,-1.8289747,2.2621346,2.120839,-5.083815,5.933905
0.5148311,4.3287544,9.523428,-1.8289747,2.2621346,2.1444383,-5.063357,5.8488374
0.51758903,4.3388963,9.546864,-1.8364316,2.277048,2.4553432,-4.9192266,5.423262
0.5203366,4.349057,9.546864,-1.8364316,2.277048,2.478819,-4.900468,5.3374376
0.5230705,4.359225,9.546864,-1.8343011,2.2834399,2.655369,-4.8778224,4.7678766
0.5257906,4.369402,9.546864,-1.8343011,2.2834399,2.6785407,-4.860854,4.681822
0.52848876,4.3795776,9.524493,-1.8225832,2.2823746,3.0127306,-4.6101356,3.9828348
0.531175,4.389773,9.524493,-1.8225832,2.2823746,3.0355408,-4.59492,3.896576
0.53382075,4.399929,9.476556,-1.8044736,2.2674608,3.2159877,-4.34596,3.2025259
0.53645146,4.4100943,9.476556,-1.8044736,2.2674608,3.2382555,-4.3325114,3.1165228
0.53903043,4.4201984,9.403053,-1.7789073,2.2429597,3.6191769,-3.9368565,2.4516711
0.5415964,4.430321,9.403053,-1.7789073,2.2429597,3.64083,-3.9251213,2.3660717
0.54417217,4.4405537,9.403053,-1.7789073,2.2429597,3.6625342,-3.914143,2.2795663
0.54662716,4.450495,9.299723,-1.7469494,2.2024796,3.9848552,-3.530684,1.4294506
0.54909146,4.4605427,9.299723,-1.7469494,2.2024796,4.0055523,-3.5214567,1.3446074
0.55146676,4.470442,9.165499,-1.7043388,2.147086,4.250533,-2.9910798,0.6386211
0.5538245,4.4803367,9.165499,-1.7043388,2.147086,4.2702794,-2.9834616,0.55520546
0.55609107,4.4900737,8.997188,-1.6542714,2.0778437,4.686671,-2.3923857,-0.25461984
0.55834097,4.4998064,8.997188,-1.6542714,2.0778437,4.7054625,-2.38628,-0.3365121
0.5604837,4.5092897,8.78946,-1.5935513,1.9947531,5.1925983,-1.5573032,-1.2398129
0.5626158,4.5187864,8.78946,-1.5935513,1.9947531,5.210351,-1.5526712,-1.3195653
0.56463104,4.527986,8.536993,-1.515787,1.8967488,5.5192084,-0.9214177,-2.0814576
0.5666364,4.5371995,8.536993,-1.515787,1.8967488,5.535871,-0.91813374,-2.15865
0.5685177,4.54609,8.239784,-1.4241743,1.7817003,5.728648,-0.3264351,-2.9800253
0.5703807,4.5549483,8.239784,-1.4241743,1.7817003,5.7440825,-0.32436037,-3.0540714
0.5720966,4.563424,7.896769,-1.3283005,1.6474769,6.4190927,0.40995264,-3.9005246
0.5738061,4.5719194,7.896769,-1.3283005,1.6474769,6.4332256,0.41105795,-3.9713507
0.5753528,4.5799723,7.506882,-1.2260351,1.4983399,7.0972257,1.1828456,-4.8811297
0.576892,4.5880346,7.506882,-1.2260351,1.4983399,7.109925,1.1831784,-4.9481683
0.5782517,4.5955987,7.067993,-1.113117,1.3321586,7.916014,1.997457,-6.02609
0.57960486,4.603171,7.067993,-1.113117,1.3321586,7.92716,1.997252,-6.0888796
0.58076435,4.610183,6.576906,-0.98741585,1.1510637,8.8464985,3.0409937,-7.166855
0.58191836,4.617201,6.576906,-0.98741585,1.1510637,8.855978,3.0404701,-7.224909
0.58286035,4.6235933,6.028295,-0.8499967,0.9486634,9.811829,4.2995706,-8.489151
0.5837979,4.6299906,6.028295,-0.8499967,0.9486634,9.819528,4.2990007,-8.541929
0.58450365,4.635693,5.420029,-0.70085967,0.7228274,10.605838,5.701908,-9.910491
0.5852064,4.641399,5.420029,-0.70085967,0.7228274,10.611599,5.701554,-9.95746
0.5856499,4.6463413,4.7489123,-0.5421353,0.46929443,11.304768,6.918177,-11.27178
0.5860913,4.6512856,4.7489123,-0.5421353,0.46929443,11.308382,6.9183526,-11.312388
0.5862497,4.655403,4.0160108,-0.38234562,0.19019513,11.807681,8.0782795,-12.452256
0.5864069,4.659521,4.0160108,-0.38234562,0.19019513,11.808962,8.079276,-12.486008
0.5862571,4.662754,3.2213233,-0.22362122,-0.11233997,12.3153105,9.034342,-13.403073
0.586107,4.665981,3.2213233,-0.22362122,-0.11233997,12.314084,9.03643,-13.429448
0.5856352,4.6682644,2.370177,-0.06702734,-0.4319193,12.458646,9.8395,-14.204605
0.5851631,4.6705475,2.370177,-0.06702734,-0.4319193,12.45478,9.842871,-14.2232
0.58436245,4.67183,1.4700285,0.09169707,-0.76108605,11.974156,10.489296,-14.812941
0.58356345,4.6731105,1.4700285,0.09169707,-0.76108605,11.967594,10.494045,-14.823266
0.5824284,4.673365,0.5325958,0.24083409,-1.0945138,11.71407,11.065307,-15.193823
0.5812914,4.67362,0.5325958,0.24083409,-1.0945138,11.704709,11.071526,-15.195683
0.5798247,4.67283,-0.43466428,0.3718616,-1.4236805,11.568152,11.337759,-15.519277
0.5783577,4.6720414,-0.43466428,0.3718616,-1.4236805,11.556069,11.345391,-15.51247
0.5765663,4.670201,-1.4200339,0.48797545,-1.7453904,11.115136,11.359172,-15.57831
0.57477415,4.668363,-1.4200339,0.48797545,-1.7453904,11.100331,11.368101,-15.56275
0.57266307,4.66548,-2.4139256,0.5849145,-2.0596435,10.589686,10.980849,-15.2654915
0.5705504,4.6626024,-2.4139256,0.5849145,-2.0596435,10.572203,10.990932,-15.241164
0.5681299,4.658697,-3.4046216,0.66267884,-2.3621786,9.733325,10.159322,-14.71018
0.56570697,4.6547995,-3.4046216,0.66267884,-2.3621786,9.713217,10.170307,-14.677164
0.5629955,4.6499157,-4.3740125,0.715942,-2.6434083,9.082546,9.195706,-13.836115
0.560281,4.6450424,-4.3740125,0.715942,-2.6434083,9.0599375,9.207268,-13.794689
0.5573018,4.639229,-5.3103795,0.75748736,-2.8980064,8.460473,7.92171,-12.739649
0.554319,4.633428,-5.3103795,0.75748736,-2.8980064,8.435544,7.933469,-12.690122
0.55109745,4.6267405,-6.19881,0.79583687,-3.1270385,7.6041093,6.5185027,-11.531607
0.5478718,4.6200695,-6.19881,0.79583687,-3.1270385,7.5770364,6.530038,-11.474373
0.54442835,4.6125813,-7.028651,0.82672954,-3.334765,6.68617,4.9996505,-10.289526
0.5409808,4.605111,-7.028651,0.82672954,-3.334765,6.657123,5.0105734,-10.225105
0.5373405,4.5969076,-7.7913804,0.8416432,-3.5158598,5.8745985,3.3499937,-8.756008
0.53369606,4.588724,-7.7913804,0.8416432,-3.5158598,5.843762,3.3599043,-8.68507
0.5298884,4.579895,-8.480607,0.84057796,-3.6681926,5.0213776,1.726758,-7.095237
0.526077,4.5710874,-8.480607,0.84057796,-3.6681926,4.9889803,1.7352576,-7.0184946
0.5221275,4.561724,-9.089938,0.8277948,-3.7949593,4.0551214,0.105266094,-5.356574
0.5181751,4.552384,-9.089938,0.8277948,-3.7949593,4.0213733,0.112024784,-5.274791
0.51411104,4.542585,-9.6161785,0.80009794,-3.890833,3.0480647,-1.385833,-3.4554267
0.5100444,4.53281,-9.6161785,0.80009794,-3.890833,3.0131822,-1.3810976,-3.3694487
0.50588936,4.5226874,-10.062525,0.75961787,-3.9526184,2.1538525,-2.809258,-1.5564227
0.5017328,4.5125914,-10.062525,0.75961787,-3.9526184,2.1180305,-2.806724,-1.4672475
0.49757022,4.5022736,-10.431106,0.7063547,-3.9781847,1.3973379,-4.1080947,0.35740316
0.49341244,4.491982,-10.431106,0.7063547,-3.9781847,1.3613477,-4.1081204,0.44859052
0.48933217,4.4814863,-10.724053,0.64669985,-3.9675322,0.74655163,-5.249669,2.3755329
0.48525822,4.4710135,-10.724053,0.64669985,-3.9675322,0.71112907,-5.252723,2.4684567
0.48127124,4.46037,-10.945629,0.58384925,-3.9217257,0.31725883,-6.2345266,4.248358
0.47729072,4.4497466,-10.945629,0.58384925,-3.9217257,0.28250694,-6.240666,4.342656
0.47341794,4.439005,-11.100092,0.5241944,-3.842896,0.14806461,-6.9813604,6.0898943
0.46955237,4.4282823,-11.100092,0.5241944,-3.842896,0.11418009,-6.990613,6.1850195
0.46581832,4.4174957,-11.188509,0.47306174,-3.7331738,0.13405466,-7.471047,7.7936816
0.46209222,4.4067264,-11.188509,0.47306174,-3.7331738,0.10126686,-7.483408,7.889061
0.45850077,4.395885,-11.217271,0.43684274,-3.59682,0.06002617,-7.871211,9.316033
0.4548216,4.384769,-11.217271,0.43684274,-3.59682,0.027531624,-7.887145,9.41421
0.4514962,4.37426,-11.188509,0.41766798,-3.440226,0.18486118,-7.9997525,10.842724
0.44814882,4.3636675,-11.188509,0.41766798,-3.440226,0.15520287,-8.017872,10.935926
0.44494098,4.3530197,-11.107549,0.41873327,-3.262327,0.2177105,-7.922927,12.13541
0.44173238,4.342353,-11.107549,0.41873327,-3.262327,0.18919182,-7.9440894,12.228819
0.43871388,4.3318033,-10.9807825,0.43897328,-3.069514,-0.14413643,-7.727318,13.187532
0.4357007,4.321255,-10.9807825,0.43897328,-3.069514,-0.17099953,-7.7510777,13.279376
0.43287557,4.310838,-10.811405,0.4656049,-2.8660486,-0.30635166,-7.417053,14.202851
0.43005797,4.300432,-10.811405,0.4656049,-2.8660486,-0.33153725,-7.443203,14.292861
0.42743263,4.2901926,-10.604744,0.490106,-2.654061,-0.25447273,-7.350794,15.262058
0.42481437,4.279963,-10.604744,0.490106,-2.654061,-0.27793503,-7.379088,15.349888
0.42239192,4.269934,-10.360799,0.5124765,-2.4356818,-0.12249184,-7.1066513,16.220825
0.41998038,4.2599344,-10.360799,0.5124765,-2.4356818,-0.14414406,-7.1367598,16.305979
0.41775116,4.250128,-10.081699,0.53910816,-2.2162373,0.113536835,-6.751094,17.212624
0.41553175,4.240348,-10.081699,0.53910816,-2.2162373,0.09357262,-6.78283,17.29517
0.41349295,4.2308316,-9.765316,0.5795882,-1.997858,0.31941414,-6.6330285,18.07414
0.4114583,4.221322,-9.765316,0.5795882,-1.997858,0.30107117,-6.6659985,18.153679
0.40959188,4.2121034,-9.415909,0.6339167,-1.7837399,-0.017435074,-6.555459,18.804934
0.40772843,4.202891,-9.415909,0.6339167,-1.7837399,-0.034259796,-6.589319,18.881266
0.40601993,4.194,-9.033479,0.6925062,-1.5760133,0.1945095,-6.4506407,19.634453
0.40431306,4.1851153,-9.033479,0.6925062,-1.5760133,0.17906952,-6.4850283,19.707375
0.40274972,4.176587,-8.61483,0.7532263,-1.3736131,1.0842953,-6.490207,20.461708
0.40118712,4.1680646,-8.61483,0.7532263,-1.3736131,1.0701504,-6.5247297,20.530987
0.39975107,4.1599226,-8.164223,0.8373822,-1.1744087,1.2247295,-6.654259,21.353386
0.3983145,4.1517854,-8.164223,0.8373822,-1.1744087,1.2117023,-6.6885705,21.418934
0.3969844,4.1440563,-7.6784625,0.94603914,-0.9805305,0.6729107,-6.9229136,22.127327
0.39322507,4.121878,-7.156483,1.0525656,-0.793044,-0.017242432,-7.4666014,22.811234
0.39322507,4.121878,-7.156483,1.0525656,-0.793044,-0.017242432,-7.4666014,22.811234
0.39322507,4.121878,-7.156483,1.0525656,-0.793044,-0.017242432,-7.4666014,22.811234
0.39322507,4.121878,-7.156483,1.0525656,-0.793044,-0.017242432,-7.4666014,22.811234
0.3908718,4.1078515,-5.9772353,1.2080942,-0.4329846,-0.11046982,-8.594073,23.769209
0.3908718,4.1078515,-5.9772353,1.2080942,-0.4329846,-0.11046982,-8.594073,23.769209
0.3908718,4.1078515,-5.9772353,1.2080942,-0.4329846,-0.11046982,-8.594073,23.769209
0.3908718,4.1078515,-5.9772353,1.2080942,-0.4329846,-0.11046982,-8.594073,23.769209
0.38645387,4.0815516,-4.615827,1.3007722,-0.086773634,-0.47151756,-9.609985,24.2948
0.38599974,4.078844,-4.615827,1.3007722,-0.086773634,-0.47566032,-9.623209,24.315708
0.38512635,4.0736637,-4.615827,1.3007722,-0.086773634,-0.48361588,-9.648665,24.35561
0.38512635,4.0736637,-4.615827,1.3007722,-0.086773634,-0.48361588,-9.648665,24.35561
0.38372886,4.0653586,-3.873338,1.3220775,0.08579921,-0.83633804,-10.178371,24.285263
0.38316256,4.061921,-3.0956948,1.3156859,0.26050258,-1.0282593,-10.18609,23.9907
0.38258523,4.058442,-3.0956948,1.3156859,0.26050258,-1.0335331,-10.203676,24.017227
0.3820515,4.0549984,-2.290355,1.2805322,0.43840176,-1.4358368,-10.6905575,23.631536
0.38172507,4.0529094,-2.290355,1.2805322,0.43840176,-1.4388218,-10.701279,23.647358
0.38148582,4.0510435,-1.4615792,1.2123553,0.6173662,-1.4457893,-10.916942,23.23518
0.38123634,4.049118,-1.4615792,1.2123553,0.6173662,-1.4480762,-10.927036,23.24961
0.38118064,4.048019,-0.61788976,1.1164814,0.7910043,-1.9992504,-11.253882,22.544174
0.3811234,4.0469184,-0.61788976,1.1164814,0.7910043,-1.9997749,-11.259921,22.552216
0.38127673,4.0466685,0.23325653,0.9886497,0.9593161,-2.103714,-11.285711,21.76836
0.38142982,4.046418,0.23325653,0.9886497,0.9593161,-2.102314,-11.287563,21.769814
0.38180572,4.047027,1.081207,0.8341864,1.120171,-2.1850777,-11.371407,20.864372
0.3821828,4.0476356,1.081207,0.8341864,1.120171,-2.181635,-11.369067,20.859146
0.38278913,4.049097,1.9195702,0.65628725,1.2735691,-2.15695,-11.453582,19.95663
0.3833979,4.050559,1.9195702,0.65628725,1.2735691,-2.1513882,-11.447134,19.944721
0.38424367,4.0528717,2.7376933,0.45921332,1.4163145,-2.0574856,-11.551572,18.83919
0.3850904,4.0551796,2.7376933,0.45921332,1.4163145,-2.049759,-11.541166,18.820623
0.38617566,4.058323,3.5291848,0.24829094,1.5484073,-1.6807346,-11.431108,17.957489
0.38726005,4.061454,3.5291848,0.24829094,1.5484073,-1.6708527,-11.416981,17.932373
0.3885737,4.065388,4.2865877,0.03736858,1.6730433,-0.456995,-10.805454,16.32069
0.38989115,4.0693235,4.2865877,0.03736858,1.6730433,-0.4450035,-10.787847,16.289104
0.39142838,4.074012,4.99925,-0.16183588,1.7870265,-2.245821,-11.178767,15.083094
0.39296994,4.078701,4.99925,-0.16183588,1.7870265,-2.231802,-11.1581,15.045347
0.39472347,4.0841093,5.663975,-0.38128036,1.8818351,-2.81921,-11.268533,13.905218
0.3964812,4.0895205,5.663975,-0.38128036,1.8818351,-2.8032494,-11.245168,13.86149
0.3984478,4.0956254,6.287154,-0.63374805,1.9617299,-0.8461046,-10.496044,12.6915655
0.400418,4.101734,6.287154,-0.63374805,1.9617299,-0.8282385,-10.47031,12.641948
0.40258414,4.108483,6.857071,-0.8734325,2.038429,0.88646984,-9.618668,11.581436
0.40475067,4.11523,6.857071,-0.8734325,2.038429,0.9060774,-9.591071,11.526326
0.40708157,4.122544,7.362006,-1.0470706,2.1044753,-1.0313063,-9.556816,10.278927
0.4094168,4.1298714,7.362006,-1.0470706,2.1044753,-1.0102167,-9.527806,10.218751
0.4118809,4.137687,7.79983,-1.2089908,2.1481512,-1.9791842,-9.305813,9.096185
0.41434592,4.145511,7.79983,-1.2089908,2.1481512,-1.9569664,-9.275908,9.031591
0.4169315,4.1537924,8.179064,-1.4092605,2.1779785,0.12531948,-8.416434,8.120301
0.41951606,4.162083,8.179064,-1.4092605,2.1779785,0.14855957,-8.385967,8.051481
0.42222273,4.170765,8.492251,-1.596747,2.2035449,-0.6555271,-8.383507,7.2800846
0.42492664,4.1794586,8.492251,-1.596747,2.2035449,-0.63126945,-8.352989,7.2074904
0.42771792,4.1884775,8.745785,-1.7554715,2.2173934,-0.44824553,-8.08264,6.6770806
0.43050462,4.1975102,8.745785,-1.7554715,2.2173934,-0.4233079,-8.052427,6.601255
0.43336228,4.2068243,8.951381,-1.9099349,2.219524,-0.3546791,-7.8879757,5.972207
0.43621334,4.2161536,8.951381,-1.9099349,2.219524,-0.3292327,-7.858358,5.893504
0.43911314,4.225721,9.114367,-2.0537455,2.2131324,0.5537348,-7.5462675,5.764736
0.4420044,4.235304,9.114367,-2.0537455,2.2131324,0.57947016,-7.5174875,5.6835313
0.44493157,4.245079,9.236872,-2.1698594,2.2024796,0.35649157,-7.163366,5.265351
0.44784844,4.254871,9.236872,-2.1698594,2.2024796,0.38237858,-7.135683,5.1820397
0.450782,4.2648106,9.322093,-2.2625375,2.1854355,0.18811321,-6.6822715,4.891428
0.45370352,4.274768,9.322093,-2.2625375,2.1854355,0.21397209,-6.6558747,4.8064055
0.4566223,4.284837,9.370029,-2.3488238,2.1577387,0.2972288,-6.4337077,4.5000544
0.45952716,4.2949247,9.370029,-2.3488238,2.1577387,0.32286358,-6.4087296,4.4136696
0.46242005,4.3050847,9.3785515,-2.430849,2.1257806,0.46328068,-6.101928,4.1924887
0.46529728,4.3152647,9.3785515,-2.430849,2.1257806,0.48860383,-6.078516,4.105095
0.4681498,4.325482,9.356181,-2.503287,2.0895617,0.66689634,-5.8739243,3.7970266
0.47098482,4.33572,9.356181,-2.503287,2.0895617,0.6917739,-5.852165,3.7089543
0.47378483,4.345965,9.307179,-2.562942,2.051212,0.93657756,-5.6923923,3.515416
0.4765659,4.35623,9.307179,-2.562942,2.051212,0.96091104,-5.672355,3.4269714
0.47929364,4.366464,9.233676,-2.6055524,2.0149932,1.8849634,-4.9876103,2.8790705
0.48200098,4.376719,9.233676,-2.6055524,2.0149932,1.908586,-4.9693108,2.7906258
0.4846592,4.3869114,9.133541,-2.6204662,1.9777089,1.1368688,-4.688624,2.0897698
0.4872955,4.397124,9.133541,-2.6204662,1.9777089,1.1598115,-4.6721416,2.0016205
0.48985085,4.4072247,9.00571,-2.623662,1.9329678,2.4940362,-4.6134925,1.8474061
0.4923867,4.4173546,9.00571,-2.623662,1.9329678,2.516039,-4.598752,1.7599595
0.49496505,4.427849,8.862964,-2.6204662,1.8839656,3.2757943,-4.8093443,1.5831926
0.4973275,4.437571,8.862964,-2.6204662,1.8839656,3.296238,-4.7967553,1.499274
0.49962404,4.447263,8.710631,-2.587443,1.825376,3.3783355,-4.66033,0.86021125
0.5019591,4.457227,8.710631,-2.587443,1.825376,3.3984902,-4.6488667,0.77425575
0.5041995,4.4671035,8.552972,-2.542702,1.7550687,3.5327234,-4.0395327,-0.014761724
0.5063115,4.4765186,8.552972,-2.542702,1.7550687,3.5509098,-4.029986,-0.09589287
0.50836486,4.485992,8.387856,-2.4936998,1.6741085,3.951645,-2.7806783,-1.1447071
0.5104092,4.4955263,8.387856,-2.4936998,1.6741085,3.9692063,-2.7722428,-1.2267663
0.5123429,4.504801,8.199305,-2.4329796,1.5856916,4.5460424,-1.2849655,-2.4701116
0.5142605,4.5140986,8.199305,-2.4329796,1.5856916,4.5624757,-1.2779813,-2.5500412
0.5160667,4.5231204,7.969207,-2.3552153,1.4898177,5.4590087,-0.017135143,-3.9395585
0.51785356,4.532147,7.969207,-2.3552153,1.4898177,5.4742994,-0.011490822,-4.017052
0.51951677,4.540864,7.686912,-2.2657332,1.3811607,6.460559,1.3390989,-5.5522823
0.52116,4.5495763,7.686912,-2.2657332,1.3811607,6.474586,1.3435473,-5.6269636
0.522663,4.557915,7.3428316,-2.1666636,1.25759,7.3110137,2.6164322,-7.2881165
0.52414894,4.5662565,7.3428316,-2.1666636,1.25759,7.323675,2.6198492,-7.3595
0.5254775,4.574141,6.932705,-2.0643983,1.1159099,7.655814,3.9013848,-8.983121
0.5267904,4.5820265,6.932705,-2.0643983,1.1159099,7.6669846,3.9039402,-9.050484
0.5279335,4.589407,6.4597273,-1.970655,0.9603813,7.978376,5.0602584,-10.391956
0.5290648,4.596802,6.4597273,-1.970655,0.9603813,7.987984,5.0621614,-10.455021
0.5300096,4.603626,5.92816,-1.8875643,0.78993905,8.417391,6.1509504,-11.647979
0.53094274,4.610455,5.92816,-1.8875643,0.78993905,8.425309,6.1524243,-11.706114
0.53168064,4.6166716,5.3411994,-1.8183221,0.60671353,8.661416,7.0781307,-12.572985
0.53240955,4.622905,5.3411994,-1.8183221,0.60671353,8.667596,7.079395,-12.625955
0.53293097,4.628462,4.705237,-1.757602,0.41177014,8.853976,7.9475803,-13.080122
0.5334438,4.6340275,4.705237,-1.757602,0.41177014,8.858321,7.948844,-13.127339
0.5337442,4.638896,4.028794,-1.7022083,0.20936988,9.052394,8.568173,-13.384058
0.5340367,4.6437664,4.028794,-1.7022083,0.20936988,9.054877,8.569646,-13.425311
0.53411335,4.6479044,3.3182623,-1.6468146,0.0037738485,9.486485,9.222817,-13.52734
0.53418374,4.652043,3.3182623,-1.6468146,0.0037738485,9.487079,9.224651,-13.562348
0.534043,4.65541,2.5853605,-1.5807681,-0.20288746,9.337445,9.988383,-13.600353
0.5338969,4.65878,2.5853605,-1.5807681,-0.20288746,9.336215,9.990693,-13.628813
0.5335413,4.66136,1.8354143,-1.4998081,-0.40741822,8.816049,10.079802,-13.123822
0.53318256,4.6639338,1.8354143,-1.4998081,-0.40741822,8.813007,10.082679,-13.145514
0.53261125,4.665715,1.0790765,-1.4177827,-0.60981846,8.501705,9.679234,-12.111799
0.53205276,4.667447,1.0790765,-1.4177827,-0.60981846,8.496977,9.682696,-12.126335
0.5312712,4.668445,0.33978298,-1.3410836,-0.8068924,8.610059,9.308683,-10.889637
0.5304688,4.6694665,0.33978298,-1.3410836,-0.8068924,8.6032505,9.313055,-10.898121
0.5295025,4.6697025,-0.36968315,-1.2558625,-0.9901179,7.8576307,9.121616,-9.918298
0.52854174,4.6699357,-0.36968315,-1.2558625,-0.9901179,7.8494644,9.126464,-9.920076
0.5274024,4.669444,-1.0429302,-1.1663803,-1.1626908,7.0161786,8.887723,-8.819113
0.52626145,4.66895,-1.0429302,-1.1663803,-1.1626908,7.0064735,8.893181,-8.814672
0.5249573,4.6677737,-1.6799585,-1.0822244,-1.3182193,7.0384684,8.707638,-7.468423
0.52365696,4.6665993,-1.6799585,-1.0822244,-1.3182193,7.027392,8.713583,-7.4581385
0.5222216,4.66477,-2.2839634,-0.98741585,-1.4481816,6.6799655,8.336828,-6.1493654
0.52078635,4.662939,-2.2839634,-0.98741585,-1.4481816,6.667724,8.3431015,-6.133416
0.5192314,4.6604867,-2.8506842,-0.8840852,-1.5579039,6.3719273,7.96656,-4.718693
0.51767236,4.658025,-2.8506842,-0.8840852,-1.5579039,6.3586035,7.9730334,-4.697277
0.51602376,4.654981,-3.3843815,-0.7743629,-1.6473861,5.6789117,7.38582,-3.483307
0.5143777,4.6519384,-3.3843815,-0.7743629,-1.6473861,5.6648154,7.3922515,-3.45683
0.51266223,4.6483707,-3.877599,-0.6635754,-1.7102367,5.032411,6.7234626,-2.0371532
0.5109426,4.6447897,-3.877599,-0.6635754,-1.7102367,5.017658,6.7297125,-2.0059538
0.50914174,4.640744,-4.3250103,-0.55811423,-1.7475209,4.5520825,5.9554143,-0.5629082
0.50734866,4.636714,-4.3250103,-0.55811423,-1.7475209,4.5366697,5.961429,-0.52772045
0.50550216,4.632352,-4.7298107,-0.46117517,-1.7634999,4.03715,5.3017063,0.7888861
0.5036649,4.6280074,-4.7298107,-0.46117517,-1.7634999,4.021327,5.3073454,0.8269005
0.5018929,4.623298,-5.0888047,-0.3706277,-1.7581736,3.646917,4.5508432,1.8975863
0.50012445,4.6185927,-5.0888047,-0.3706277,-1.7581736,3.6316533,4.5554566,1.9387918
0.49838805,4.613525,-5.404123,-0.2864718,-1.731542,3.8560731,3.879435,3.1754665
0.49665454,4.6084614,-5.404123,-0.2864718,-1.731542,3.8410845,3.8831024,3.2198544
0.49496394,4.6030703,-5.6800265,-0.19485907,-1.6857356,4.00841,3.0623996,4.4737644
0.49326232,4.5976405,-5.6800265,-0.19485907,-1.6857356,3.9936695,3.065033,4.521399
0.4914968,4.5914736,-5.918646,-0.08194104,-1.6218197,3.4755774,2.233719,5.485264
0.48998198,4.58618,-5.918646,-0.08194104,-1.6218197,3.4624314,2.2350287,5.531721
0.48845774,4.5803747,-6.11572,0.039499108,-1.546186,3.075696,1.3113644,6.497218
0.48690197,4.574449,-6.11572,0.039499108,-1.546186,3.062173,1.3115401,6.549226
0.4854093,4.568276,-6.273379,0.15880872,-1.4598995,3.1210127,0.4632398,7.4604874
0.4839217,4.5621257,-6.273379,0.15880872,-1.4598995,3.10806,0.4621321,7.514455
0.48250958,4.5557914,-6.390558,0.28131413,-1.3640257,3.2011023,-0.2773366,8.240362
0.48109746,4.5494614,-6.390558,0.28131413,-1.3640257,3.188786,-0.27976155,8.295883
0.47975472,4.542961,-6.4640613,0.41234165,-1.2660214,3.0860906,-0.9678621,8.7933655
0.47841507,4.5364847,-6.4640613,0.41234165,-1.2660214,3.0743933,-0.97159314,8.8501215
0.47714722,4.529902,-6.5034757,0.54763025,-1.1690823,3.0393715,-1.5029249,9.367428
0.4758764,4.5233173,-6.5034757,0.54763025,-1.1690823,3.0282612,-1.5079215,9.42507
0.47467306,4.5166545,-6.507737,0.68504936,-1.071078,3.0129433,-1.9351318,9.684443
0.4734647,4.5099826,-6.507737,0.68504936,-1.071078,3.002365,-1.9413626,9.742775
0.47232088,4.503277,-6.4811053,0.8214032,-0.97733474,2.8917885,-2.2308621,10.184399
0.47116664,4.4965353,-6.4811053,0.8214032,-0.97733474,2.88167,-2.2382793,10.243248
0.47005132,4.489663,-6.4246464,0.9566918,-0.885722,2.737813,-2.4572222,10.537789
0.46890828,4.482655,-6.4246464,0.9566918,-0.885722,2.7277842,-2.4660573,10.598862
0.46781516,4.475626,-6.3415556,1.0898498,-0.79730505,2.4260921,-2.7150187,11.181969
0.46620566,4.465355,-6.3415556,1.0898498,-0.79730505,2.411952,-2.729713,11.271288
0.4657812,4.46254,-6.230768,1.2208774,-0.7120839,2.235839,-3.2271852,11.889498
0.46477854,4.4559216,-6.230768,1.2208774,-0.7120839,2.2270203,-3.2374766,11.946955
0.46362597,4.448035,-6.094414,1.3476439,-0.6247322,2.0397081,-3.853779,12.752732
0.4628196,4.4425607,-6.094414,1.3476439,-0.6247322,2.032611,-3.8630736,12.800144
0.46191314,4.436203,-5.9261026,1.4626924,-0.5363152,2.292776,-4.477679,13.530304
0.46059734,4.4270744,-5.9261026,1.4626924,-0.5363152,2.2811823,-4.4944305,13.609193
0.4600842,4.423422,-5.726898,1.5713494,-0.45109406,2.228776,-5.2627535,14.291926
0.45914036,4.41676,-5.726898,1.5713494,-0.45109406,2.2204494,-5.2757382,14.349375
0.45914036,4.41676,-5.726898,1.5713494,-0.45109406,2.2204494,-5.2757382,14.349375
0.45752838,4.4052496,-5.4861484,1.6778759,-0.36800346,1.9668055,-5.9121056,14.884195
0.45668986,4.399281,-5.2049184,1.7673581,-0.29236966,2.5292215,-6.384405,15.519678
0.45668986,4.399281,-5.2049184,1.7673581,-0.29236966,2.5292215,-6.384405,15.519678
0.4550234,4.387619,-4.8864045,1.851514,-0.21780115,3.467391,-6.5391455,15.950178
0.45421007,4.3820105,-4.8864045,1.851514,-0.21780115,3.4602003,-6.55177,15.998257
0.45342454,4.376684,-4.5391283,1.9527141,-0.14536318,2.4907846,-6.9422526,16.192324
0.4526329,4.371382,-4.5391283,1.9527141,-0.14536318,2.483779,-6.954606,16.237705
0.45185697,4.366356,-4.1652203,2.0539143,-0.08144731,0.5280323,-7.9576488,16.706886
0.4510693,4.3613176,-4.1652203,2.0539143,-0.08144731,0.52105904,-7.969704,16.749966
0.45025364,4.3563185,-3.757224,2.1071775,-0.026053555,-0.7503052,-8.642556,17.032139
0.44952604,4.3519144,-3.757224,2.1071775,-0.026053555,-0.756752,-8.653324,17.069775
0.44873983,4.3473325,-3.309813,2.0911984,0.027209666,-1.0175076,-8.793886,17.324415
0.44808617,4.3435674,-3.309813,2.0911984,0.027209666,-1.023304,-8.803258,17.35658
0.44744653,4.3399696,-2.830444,2.0294132,0.08792974,-0.84222794,-8.97987,17.861362
0.4467903,4.336319,-2.830444,2.0294132,0.08792974,-0.84804726,-8.98911,17.892532
0.446214,4.33317,-2.3287046,1.9516488,0.1550414,-0.83400726,-9.255712,18.307274
0.4456319,4.330023,-2.3287046,1.9516488,0.1550414,-0.8391781,-9.263805,18.334131
0.44514593,4.3274264,-1.8088554,1.8696234,0.2296099,-1.0158806,-9.457274,18.586126
0.4446543,4.3248262,-1.8088554,1.8696234,0.2296099,-1.0202446,-9.464045,18.608305
0.44426936,4.3227854,-1.2804843,1.7801412,0.3116353,-1.0667591,-9.469408,18.678375
0.4438809,4.3207455,-1.2804843,1.7801412,0.3116353,-1.0702114,-9.474794,18.695759
0.4436089,4.319265,-0.74359095,1.6821369,0.4011175,-1.0391102,-9.315956,18.852007
0.4433352,4.3177896,-0.74359095,1.6821369,0.4011175,-1.041542,-9.3199215,18.864561
0.44318795,4.316882,-0.20243664,1.582002,0.49592602,-1.9478588,-9.604966,19.03505
0.44303876,4.3159733,-0.20243664,1.582002,0.49592602,-1.9491844,-9.607504,19.042746
0.44302654,4.3156543,0.3504356,1.4594966,0.5928651,-2.3706741,-9.809666,19.10284
0.4430138,4.3153358,0.3504356,1.4594966,0.5928651,-2.3707848,-9.810711,19.105474
0.44315404,4.3156295,0.916091,1.3082291,0.69513047,-2.4892502,-9.958683,18.949608
0.44329455,4.3159237,0.916091,1.3082291,0.69513047,-2.487997,-9.95822,18.946968
0.4436032,4.316852,1.4934644,1.1335257,0.8027222,-2.6289082,-9.884415,18.565355
0.44391304,4.31778,1.4934644,1.1335257,0.8027222,-2.6261578,-9.88245,18.55724
0.44439304,4.319356,2.0750988,0.93964756,0.9049876,-2.4590874,-9.634741,17.94498
0.44487485,4.3209324,2.0750988,0.93964756,0.9049876,-2.4548035,-9.631274,17.931261
0.44552785,4.3231535,2.652472,0.7351168,1.0051224,-2.2239532,-9.042145,16.98302
0.4461858,4.325383,2.652472,0.7351168,1.0051224,-2.218113,-9.037236,16.96364
0.44701275,4.3282447,3.2149317,0.53165126,1.1031268,-2.239502,-8.633503,15.990683
0.4478522,4.3311405,3.2149317,0.53165126,1.1031268,-2.2320538,-8.627226,15.965516
0.4488292,4.3345737,3.7539556,0.32605526,1.1915437,-2.0557957,-8.313358,14.872672
0.4498197,4.3380456,3.7539556,0.32605526,1.1915437,-2.0470161,-8.305992,14.842492
0.45096406,4.342121,4.270609,0.12152447,1.2735691,-1.6202888,-7.837741,13.839822
0.4521107,4.346198,4.270609,0.12152447,1.2735691,-1.610137,-7.82934,13.804371
0.4534022,4.350832,4.753174,-0.07554945,1.3513334,-1.751936,-7.3985605,12.739357
0.4546978,4.3554773,4.753174,-0.07554945,1.3513334,-1.7404804,-7.3893538,12.698933
0.45612422,4.3606415,5.1984544,-0.26303598,1.4216409,-1.6081657,-7.1015844,11.81123
0.4575504,4.365804,5.1984544,-0.26303598,1.4216409,-1.5955706,-7.0918045,11.766275
0.45910352,4.371468,5.607516,-0.45265308,1.4855567,-1.3615961,-6.832325,11.003465
0.46065497,4.3771315,5.607516,-0.45265308,1.4855567,-1.3479176,-6.822157,10.954109
0.4623261,4.3832636,5.976097,-0.6369438,1.5441463,-1.0841961,-6.4427505,10.321248
0.4639911,4.3893833,5.976097,-0.6369438,1.5441463,-1.0695429,-6.4324307,10.267871
0.46576443,4.395917,6.3073945,-0.81377774,1.5974095,-1.599822,-6.268565,9.63146
0.46753561,4.4024568,6.3073945,-0.81377774,1.5974095,-1.5842581,-6.2583175,9.574367
0.46939597,4.409379,6.6046033,-0.98954636,1.6432159,-0.63897324,-5.7546544,9.150009
0.47125274,4.4163094,6.6046033,-0.98954636,1.6432159,-0.6226864,-5.7446275,9.089484
0.47319242,4.423582,6.8645277,-1.1514666,1.6836959,-0.86905146,-5.629224,8.475293
0.47512695,4.4308634,6.8645277,-1.1514666,1.6836959,-0.85211277,-5.619631,8.411674
0.4771276,4.438452,7.090364,-1.3059299,1.7188497,-0.18818235,-5.4856143,8.144268
0.47912163,4.44605,7.090364,-1.3059299,1.7188497,-0.1707635,-5.4765997,8.077885
0.48116538,4.45391,7.284242,-1.4422837,1.7465465,0.21099281,-5.300183,7.6357307
0.48320508,4.4617963,7.284242,-1.4422837,1.7465465,0.22877312,-5.2918787,7.566847
0.48527828,4.4699078,7.446162,-1.5615934,1.7635907,0.29471493,-5.2646937,7.146472
0.48734194,4.4780307,7.446162,-1.5615934,1.7635907,0.312665,-5.257227,7.075567
0.48942298,4.486369,7.5835814,-1.6734462,1.7699823,0.7856474,-5.2165303,6.428219
0.49149045,4.494712,7.5835814,-1.6734462,1.7699823,0.80359316,-5.2099466,6.3554716
0.49354935,4.503221,7.6933036,-1.7746463,1.7625254,1.506185,-5.1366434,5.754614
0.49559525,4.5117435,7.6933036,-1.7746463,1.7625254,1.5239053,-5.1309805,5.680402
0.49761167,4.5204277,7.77959,-1.861998,1.7369591,2.5373387,-4.986735,5.1260304
0.49961162,4.529116,7.77959,-1.861998,1.7369591,2.5546205,-4.9819756,5.050507
0.5015575,4.537896,7.8413754,-1.9205875,1.6975443,2.6671882,-4.5705175,4.2081404
0.5034955,4.5467243,7.8413754,-1.9205875,1.6975443,2.6839006,-4.5666833,4.131555
0.50535744,4.555602,7.870137,-1.9600023,1.6421506,2.3695393,-3.969386,3.053873
0.5071988,4.564475,7.870137,-1.9600023,1.6421506,2.3853846,-3.9664829,2.977071
0.5089442,4.573393,7.8594847,-1.9972866,1.5739737,3.36286,-2.9534388,1.880064
0.5106686,4.5823045,7.8594847,-1.9972866,1.5739737,3.3776681,-2.9513788,1.8031058
0.5122761,4.5911694,7.8072867,-2.0217876,1.4930135,3.003603,-2.2025352,0.5583005
0.5138657,4.600043,7.8072867,-2.0217876,1.4930135,3.0172334,-2.2012959,0.48185062
0.5153345,4.6087956,7.7050214,-2.038832,1.3960745,3.810322,-1.1995132,-0.5271909
0.51678675,4.6175566,7.7050214,-2.038832,1.3960745,3.8227532,-1.1991036,-0.6025014
0.51814747,4.6262407,7.550558,-2.0484192,1.2906133,4.0594463,-0.24609542,-1.7400858
0.51946366,4.6347437,7.550558,-2.0484192,1.2906133,4.0706863,-0.24655366,-1.8130317
0.52067214,4.6431007,7.3417664,-2.0462887,1.1755648,4.6747723,0.57160974,-2.655562
0.52186674,4.6514735,7.3417664,-2.0462887,1.1755648,4.684965,0.5704162,-2.7272377
0.52294254,4.659588,7.0839725,-2.0292444,1.0530593,5.0197496,1.6320996,-3.7303605
0.5240022,4.6677012,7.0839725,-2.0292444,1.0530593,5.028778,1.6302607,-3.799676
0.5249266,4.675468,6.7761106,-2.0015476,0.91990125,5.788435,3.261256,-5.1396713
0.5258402,4.683272,6.7761106,-2.0015476,0.91990125,5.796213,3.2589433,-5.206219
0.5266011,4.6906657,6.4085946,-1.9663938,0.77182955,6.98063,5.1769304,-7.1654186
0.5273471,4.6980577,6.4085946,-1.9663938,0.77182955,6.986979,5.1743755,-7.2283406
0.5279162,4.704999,5.9686403,-1.9152611,0.6077788,8.241589,6.1442413,-8.541946
0.52847207,4.7119374,5.9686403,-1.9152611,0.6077788,8.246313,6.141715,-8.6009245
0.5288335,4.718319,5.459444,-1.8481495,0.4277491,8.929339,6.249908,-9.483534
0.5291852,4.7247286,5.459444,-1.8481495,0.4277491,8.932325,6.2476625,-9.537966
0.5293349,4.7305174,4.895919,-1.7746463,0.2328057,9.331036,6.638821,-10.587893
0.5294746,4.736307,4.895919,-1.7746463,0.2328057,9.332225,6.637093,-10.637042
0.529405,4.7414427,4.288718,-1.7022083,0.025079139,9.594985,7.067234,-12.026192
0.52932686,4.7465777,4.288718,-1.7022083,0.025079139,9.594328,7.0662475,-12.0697975
0.5290234,4.7510257,3.647429,-1.628705,-0.19436534,10.405778,7.449451,-12.988672
0.5287134,4.755463,3.647429,-1.628705,-0.19436534,10.403148,7.449451,-13.0264015
0.5281697,4.7591887,2.9752471,-1.5466796,-0.426593,10.7001915,7.8816767,-13.843451
0.5276215,4.762905,2.9752471,-1.5466796,-0.426593,10.695538,7.8828573,-13.8751335
0.5268355,4.76585,2.2743032,-1.4518712,-0.67266905,10.478162,8.598913,-14.72874
0.526044,4.768799,2.2743032,-1.4518712,-0.67266905,10.471425,8.60144,-14.754004
0.5250044,4.770952,1.5509887,-1.3517363,-0.9272673,10.687626,9.333344,-15.237077
0.5239619,4.773103,1.5509887,-1.3517363,-0.9272673,10.678751,9.337385,-15.255671
0.5226701,4.774436,0.80849934,-1.2452098,-1.1871918,10.370865,9.85539,-15.339221
0.5213742,4.7757688,0.80849934,-1.2452098,-1.1871918,10.359812,9.861023,-15.350964
0.5198342,4.7762656,0.053226836,-1.129096,-1.4439205,9.920497,10.318386,-15.087526
0.51829374,4.77676,0.053226836,-1.129096,-1.4439205,9.907336,10.325621,-15.092226
0.51651603,4.7764163,-0.70524144,-1.0065906,-1.6931925,9.647923,10.626535,-14.543965
0.5147227,4.7760677,-0.70524144,-1.0065906,-1.6931925,9.632565,10.635403,-14.541545
0.51264936,4.7748437,-1.4573182,-0.87875885,-1.9232895,9.202993,10.847181,-13.770353
0.51072264,4.7737055,-1.4573182,-0.87875885,-1.9232895,9.186467,10.857056,-13.761178
0.5085534,4.7717237,-2.197677,-0.74347025,-2.1331468,8.53098,10.849324,-12.8015
0.50636756,4.769727,-2.197677,-0.74347025,-2.1331468,8.512185,10.860764,-12.784963
0.50399894,4.7669277,-2.9177957,-0.6103122,-2.3216984,7.979425,10.547758,-11.550064
0.5016194,4.7641163,-2.9177957,-0.6103122,-2.3216984,7.9589076,10.560311,-11.526461
0.4990956,4.7605577,-3.6102176,-0.484611,-2.4814882,7.702489,10.023081,-10.026326
0.4965753,4.757006,-3.6102176,-0.484611,-2.4814882,7.680695,10.036331,-9.996202
0.49391726,4.7527256,-4.2632246,-0.36423612,-2.6125157,7.3177066,9.356007,-8.499245
0.49126258,4.748455,-4.2632246,-0.36423612,-2.6125157,7.294693,9.369767,-8.462712
0.4885032,4.743514,-4.872556,-0.24705704,-2.7169116,6.7248564,8.569948,-7.0029
0.4857443,4.7385807,-4.872556,-0.24705704,-2.7169116,6.700862,8.583875,-6.9603844
0.48289827,4.7330194,-5.436081,-0.13520426,-2.795741,5.981764,7.6690974,-5.4805384
0.48005542,4.7274714,-5.436081,-0.13520426,-2.795741,5.9569664,7.6829114,-5.432397
0.47714525,4.721382,-5.948473,-0.032938875,-2.8522003,5.4718647,6.581043,-3.9907293
0.47423497,4.7153015,-5.948473,-0.032938875,-2.8522003,5.4464035,6.594471,-3.937622
0.47127804,4.7087464,-6.4022756,0.06293493,-2.8820276,4.79801,5.582983,-2.4819756
0.4683204,4.702202,-6.4022756,0.06293493,-2.8820276,4.7720613,5.595762,-2.4244633
0.46531984,4.6952686,-6.798554,0.1534824,-2.8830929,4.1375656,4.4542103,-0.92205524
0.4623177,4.688347,-6.798554,0.1534824,-2.8830929,4.111145,4.466169,-0.86088514
0.45932487,4.6811647,-7.1383734,0.23550777,-2.8607223,3.644234,3.4144855,0.56266165
0.4563324,4.673996,-7.1383734,0.23550777,-2.8607223,3.617822,3.42529,0.6263528
0.45342252,4.6665325,-7.4206686,0.31114155,-2.8138506,3.3095832,2.4486694,2.0239718
0.4505451,4.6591625,-7.4206686,0.31114155,-2.8138506,3.2841115,2.457789,2.0897431
0.447732,4.651492,-7.6486354,0.3846448,-2.7446084,3.067641,1.4986542,3.360198
0.44492143,4.6438403,-7.6486354,0.3846448,-2.7446084,3.042694,1.5061737,3.4287424
0.44219387,4.635977,-7.8265343,0.45814803,-2.6604526,3.028029,0.72251475,4.643715
0.44219387,4.635977,-7.8265343,0.45814803,-2.6604526,3.028029,0.72251475,4.643715
0.44219387,4.635977,-7.8265343,0.45814803,-2.6604526,3.028029,0.72251475,4.643715
0.44219387,4.635977,-7.8265343,0.45814803,-2.6604526,3.028029,0.72251475,4.643715
0.43035677,4.597905,-8.040652,0.6371125,-2.4473996,3.109211,-0.67822385,6.916091
0.42943367,4.594951,-8.040652,0.6371125,-2.4473996,3.1009545,-0.6775199,6.942773
0.4267855,4.586016,-8.083263,0.7425737,-2.3291552,3.0293632,-1.3133674,7.7561083
0.42441422,4.5780344,-8.083263,0.7425737,-2.3291552,3.008111,-1.3131135,7.828285
0.42216825,4.5700984,-8.089655,0.8554917,-2.2098458,3.1076732,-1.8598168,8.5848
0.41981837,4.561817,-8.089655,0.8554917,-2.2098458,3.0865674,-1.8613205,8.659755
0.41752693,4.553376,-8.057696,0.9748013,-2.090536,3.094698,-2.419418,9.3442745
0.41527596,4.54511,-8.057696,0.9748013,-2.090536,3.074441,-2.4226608,9.419127
0.41309223,4.536755,-7.993781,1.1015677,-1.9712265,2.858447,-2.8627245,9.944869
0.41097632,4.5286894,-7.993781,1.1015677,-1.9712265,2.8393679,-2.8675177,10.017916
0.40890294,4.520502,-7.896842,1.2283342,-1.8561779,2.5333529,-3.2899146,10.427209
0.40691286,4.5126753,-7.896842,1.2283342,-1.8561779,2.515376,-3.2960482,10.498068
0.40691286,4.5126753,-7.896842,1.2283342,-1.8561779,2.515376,-3.2960482,10.498068
0.4029169,4.4965487,-7.6124163,1.4701493,-1.6388639,2.2446032,-3.7323604,11.122818
0.40073022,4.487523,-7.6124163,1.4701493,-1.6388639,1.9470739,-3.8665116,11.5204525
0.39906293,4.480677,-7.6124163,1.4701493,-1.6388639,1.9319639,-3.8743327,11.582334
0.39906293,4.480677,-7.6124163,1.4701493,-1.6388639,1.9319639,-3.8743327,11.582334
0.39539644,4.4653516,-7.430256,1.577741,-1.5334028,1.6401205,-3.9320502,12.07987
0.39353427,4.457474,-7.2225294,1.6768106,-1.4311373,1.6519337,-3.9956746,12.663298
0.39353427,4.457474,-7.2225294,1.6768106,-1.4311373,1.6519337,-3.9956746,12.663298
0.38995126,4.4424324,-6.9903016,1.7705538,-1.3363289,1.576252,-3.9894342,13.397453
0.38812816,4.434761,-6.9903016,1.7705538,-1.3363289,1.5596561,-4.001766,13.466532
0.38640955,4.427523,-6.734638,1.8642972,-1.2468467,1.0460014,-4.085761,14.05839
0.38467732,4.4202776,-6.734638,1.8642972,-1.2468467,1.0302076,-4.098412,14.123543
0.3829881,4.41325,-6.4608655,1.9484531,-1.1616255,0.8855076,-4.3361936,15.043821
0.38130045,4.406278,-6.4608655,1.9484531,-1.1616255,0.87009525,-4.349252,15.10643
0.37965086,4.3995543,-6.1625915,2.0176952,-1.0817306,1.2620392,-4.893734,16.20586
0.37799105,4.3928375,-6.1625915,2.0176952,-1.0817306,1.24687,-4.907083,16.266096
0.37637424,4.3864164,-5.8323593,2.0826764,-1.0007706,1.6295128,-5.3271766,17.30529
0.37474877,4.380009,-5.8323593,2.0826764,-1.0007706,1.6146336,-5.340587,17.362694
0.3731672,4.373927,-5.4733653,2.161506,-0.91874516,0.8483658,-6.0478735,18.389217
0.37157524,4.367852,-5.4733653,2.161506,-0.91874516,0.8337765,-6.0611525,18.443592
0.37002167,4.3621426,-5.077087,2.2350092,-0.8431114,0.04380989,-6.854277,19.524216
0.3684579,4.3564396,-5.077087,2.2350092,-0.8431114,0.029457092,-6.8671627,19.575243
0.3669416,4.351157,-4.639263,2.2744238,-0.7685429,-0.5064049,-7.4872932,20.427002
0.36541554,4.34588,-4.639263,2.2744238,-0.7685429,-0.520422,-7.499523,20.47422
0.36394882,4.341077,-4.159894,2.2776198,-0.6939744,-0.6009407,-7.826676,21.05356
0.36247325,4.3362794,-4.159894,2.2776198,-0.6939744,-0.6145191,-7.837988,21.096527
0.3610659,4.3320093,-3.640045,2.2552493,-0.6215364,-0.5604305,-8.254959,21.67595
0.35964796,4.3277354,-3.640045,2.2552493,-0.6215364,-0.5734863,-8.265084,21.714294
0.35830584,4.3240247,-3.0850422,2.226487,-0.54483736,-0.5331783,-8.369442,22.106834
0.35695714,4.320318,-3.0850422,2.226487,-0.54483736,-0.5456104,-8.378137,22.140196
0.3556884,4.3171945,-2.5055385,2.1977248,-0.4649425,-1.1798058,-8.610226,22.460566
0.354414,4.314075,-2.5055385,2.1977248,-0.4649425,-1.1915646,-8.617329,22.488798
0.35322565,4.3115606,-1.903664,2.1625712,-0.38291714,-1.973465,-8.780634,22.81821
0.3520327,4.3090506,-1.903664,2.1625712,-0.38291714,-1.9844799,-8.785978,22.84113
0.3509392,4.307172,-1.2836801,2.1061122,-0.297696,-2.7463646,-9.03361,23.08839
0.34984007,4.305292,-1.2836801,2.1061122,-0.297696,-2.7565212,-9.037061,23.105812
0.34885666,4.30407,-0.64452136,2.025152,-0.20608325,-3.311491,-9.277921,23.395224
0.347873,4.302853,-0.64452136,2.025152,-0.20608325,-3.3205853,-9.279363,23.406866
0.34701726,4.3023086,0.0095509915,1.9207561,-0.10701366,-3.6541195,-9.599564,23.704725
0.34616223,4.3017673,0.0095509915,1.9207561,-0.10701366,-3.6620255,-9.598941,23.71045
0.34545428,4.3019195,0.67640656,1.799316,0.00057805516,-3.888853,-9.998439,23.815449
0.34474647,4.302073,0.67640656,1.799316,0.00057805516,-3.8954067,-9.995714,23.815086
0.34419817,4.3029327,1.35498,1.6682885,0.11669188,-3.996254,-10.421823,23.774994
0.3436518,4.303793,1.35498,1.6682885,0.11669188,-4.0013123,-10.41699,23.768406
0.3432747,4.3053675,2.0388799,1.5308694,0.24026255,-4.2154922,-10.659049,23.386799
0.34289992,4.306943,2.0388799,1.5308694,0.24026255,-4.2189674,-10.652145,23.373873
0.34270316,4.309223,2.7227795,1.3891891,0.36915955,-4.2543125,-10.954481,22.804039
0.34250858,4.311515,2.7227795,1.3891891,0.36915955,-4.256115,-10.94558,22.784742
0.34249583,4.314516,3.4066794,1.2443132,0.50125235,-4.126951,-11.059226,21.954685
0.34248704,4.3175178,3.4066794,1.2443132,0.50125235,-4.1270313,-11.048458,21.929031
0.34266296,4.321226,4.0831223,1.098372,0.63654095,-3.9051304,-11.160331,20.905859
0.3428435,4.324934,4.0831223,1.098372,0.63654095,-3.9034615,-11.14784,20.873838
0.34320948,4.32934,4.7499776,0.95349604,0.77396005,-3.2679977,-10.740968,19.724636
0.34358045,4.3337455,4.7499776,0.95349604,0.77396005,-3.264553,-10.726933,19.686283
0.3441372,4.338822,5.3955283,0.8256643,0.91564023,-3.6233196,-10.337885,18.36336
0.34469953,4.343899,5.3955283,0.8256643,0.91564023,-3.6181068,-10.322575,18.31886
0.34543878,4.3496165,6.0101857,0.70102835,1.0487983,-4.176296,-10.157501,16.82244
0.34618372,4.355335,6.0101857,0.70102835,1.0487983,-4.169402,-10.141182,16.772013
0.34710452,4.3617053,6.5896897,0.5614787,1.1734343,-3.6820412,-9.711841,15.552069
0.34802562,4.368038,6.5896897,0.5614787,1.1734343,-3.6735172,-9.694787,15.495929
0.349118,4.3749914,7.130844,0.41766798,1.2948743,-2.5668688,-9.130875,14.280089
0.35019514,4.3818145,7.130844,0.41766798,1.2948743,-2.5569153,-9.113628,14.219307
0.35145092,4.3892703,7.630453,0.30155417,1.4248366,-1.525382,-8.520922,13.147132
0.35270938,4.3967137,7.630453,0.30155417,1.4248366,-1.5137548,-8.503387,13.080516
0.3541431,4.4046173,8.075733,0.22165933,1.5729084,-2.199627,-7.7147245,11.927394
0.3555892,4.412564,8.075733,0.22165933,1.5729084,-2.186286,-7.697507,11.855952
0.3571903,4.420865,8.458163,0.15241714,1.7252412,-0.6152868,-7.6756716,11.225661
0.35878828,4.4291296,8.458163,0.15241714,1.7252412,-0.6005621,-7.6593657,11.151061
0.3605878,4.437737,8.776677,0.123655,1.9276415,1.5037575,-7.6147966,10.924687
0.36239406,4.446358,8.776677,0.123655,1.9276415,1.5203829,-7.5996637,10.846542
0.3644255,4.455215,9.036602,0.13111185,2.1438901,-0.89823055,-6.3979373,9.324711
0.36646244,4.464077,9.036602,0.13111185,2.1438901,-0.8795147,-6.384507,9.244064
0.368637,4.473168,9.239002,0.123655,2.2631998,-2.3295841,-7.109236,8.284918
0.37081057,4.482238,9.239002,0.123655,2.2631998,-2.3096418,-7.0974007,8.202185
0.37310773,4.491506,9.406249,0.086370744,2.3537471,-4.09381,-6.823046,6.977897
0.37540323,4.5007534,9.406249,0.086370744,2.3537471,-4.072785,-6.812937,6.893403
0.37780577,4.510219,9.547929,-0.009503056,2.4272504,-4.1800885,-7.0622253,6.442933
0.3802078,4.5196733,9.547929,-0.009503056,2.4272504,-4.1581297,-7.0538454,6.3564687
0.38268188,4.529298,9.67576,-0.15224849,2.5071454,-1.4205093,-7.5155935,5.674664
0.38516518,4.53896,9.67576,-0.15224849,2.5071454,-1.3978546,-7.508974,5.5862823
0.387769,4.5487695,9.788679,-0.26410127,2.630716,-0.2009654,-7.082118,4.2515373
0.39036718,4.55857,9.788679,-0.26410127,2.630716,-0.17730641,-7.077589,4.161897
0.39304936,4.5685196,9.863247,-0.3322782,2.699958,-0.52640915,-6.8059845,2.8163557
0.39572403,4.5784593,9.863247,-0.3322782,2.699958,-0.50211287,-6.8034987,2.7255235
0.39839357,4.5884595,9.902662,-0.37275824,2.7138066,-0.42042446,-7.1754,1.6047182
0.40111962,4.5986996,9.902662,-0.37275824,2.7138066,-0.39571518,-7.174764,1.5113177
0.4037267,4.6084766,9.916511,-0.38660666,2.759613,0.2695341,-6.9692383,0.3735695
0.40638423,4.61847,9.916511,-0.38660666,2.759613,0.29356933,-6.970566,0.28261614
0.40907386,4.6284113,9.900532,-0.3855414,2.8054194,1.0121789,-5.7232704,-0.9904978
0.41175485,4.6383286,9.900532,-0.3855414,2.8054194,1.0363703,-5.7267,-1.080534
0.41446516,4.648192,9.837681,-0.371693,2.7990277,1.5779424,-3.7249012,-2.0845346
0.41717604,4.658065,9.837681,-0.371693,2.7990277,1.6023488,-3.7303925,-2.1738894
0.4198699,4.667779,9.721567,-0.371693,2.7170024,0.16610718,-2.6211343,-3.6502855
0.42255673,4.6774855,9.721567,-0.371693,2.7170024,0.19022942,-2.6284733,-3.737807
0.42515576,4.6870623,9.546864,-0.391933,2.598758,0.0124287605,-1.238186,-4.877434
0.4277517,4.6966515,9.546864,-0.391933,2.598758,0.03568411,-1.2469853,-4.963539
0.430213,4.706034,9.313571,-0.4515878,2.4762526,1.2931209,0.51557755,-5.6413674
0.4326704,4.7154284,9.313571,-0.4515878,2.4762526,1.3150883,0.5056057,-5.7253504
0.4349671,4.7245703,9.022754,-0.5421353,2.3335073,2.915762,2.382115,-6.3767185
0.43726355,4.7337413,9.022754,-0.5421353,2.3335073,2.9362447,2.371201,-6.458345
0.43937665,4.74258,8.66802,-0.6252259,2.1662607,4.243157,4.347539,-7.240733
0.44148847,4.7514462,8.66802,-0.6252259,2.1662607,4.2619524,4.335952,-7.3193
0.44339347,4.7598987,8.2451105,-0.6816849,1.9755783,5.5143003,6.2017355,-8.064422
0.44529626,4.7683773,8.2451105,-0.6816849,1.9755783,5.5312066,6.189801,-8.139235
0.4469705,4.776371,7.756154,-0.7179039,1.7625254,6.843725,7.806511,-9.038029
0.44864196,4.784388,7.756154,-0.7179039,1.7625254,6.8585505,7.794574,-9.108492
0.45006382,4.79185,7.2011514,-0.73707867,1.5249715,8.1400795,9.296644,-9.901815
0.45148262,4.7993336,7.2011514,-0.73707867,1.5249715,8.152647,9.285075,-9.967365
0.45263445,4.8061953,6.5886245,-0.7456008,1.265047,9.02475,10.323318,-10.827079
0.45378283,4.813077,6.5886245,-0.7456008,1.265047,9.034912,10.312488,-10.887178
0.454642,4.819278,5.919638,-0.7477313,0.98062134,10.182148,11.691753,-11.712267
0.45549762,4.825495,5.919638,-0.7477313,0.98062134,10.189716,11.682047,-11.766473
0.45605755,4.8309617,5.1920624,-0.7402745,0.68128204,10.3909855,12.641312,-12.762278
0.45661312,4.8364315,5.1920624,-0.7402745,0.68128204,10.395893,12.633073,-12.809943
0.4568606,4.841092,4.4101586,-0.7296218,0.36915955,10.105988,12.75132,-13.487499
0.4571048,4.8457537,4.4101586,-0.7296218,0.36915955,10.108139,12.744884,-13.528176
0.457028,4.8495765,3.5888395,-0.73281765,0.050645486,10.418708,12.764606,-13.748413
0.45694843,4.853399,3.5888395,-0.73281765,0.050645486,10.418008,12.76027,-13.781887
0.4565481,4.8563643,2.7483459,-0.7456008,-0.27106437,10.4719305,13.059938,-14.210284
0.45614573,4.859329,2.7483459,-0.7456008,-0.27106437,10.468379,13.057871,-14.236447
0.45543084,4.86142,1.8993301,-0.75305766,-0.58957845,9.978433,13.225801,-14.350948
0.4547132,4.8635144,1.8993301,-0.75305766,-0.58957845,9.97209,13.226103,-14.369714
0.4536872,4.8647385,1.0535102,-0.762645,-0.9017009,9.623037,13.003788,-14.031528
0.4526583,4.8659635,1.0535102,-0.762645,-0.9017009,9.613935,13.006519,-14.0429125
0.451329,4.866335,0.22153862,-0.77116716,-1.204236,9.396271,12.5807085,-13.242586
0.44999152,4.866708,0.22153862,-0.77116716,-1.204236,9.3844185,12.585859,-13.246733
0.44838163,4.866254,-0.58167076,-0.7701019,-1.4939879,8.943983,12.124013,-12.305282
0.44676226,4.865796,-0.58167076,-0.7701019,-1.4939879,8.929623,12.131454,-12.302326
0.444875,4.8645453,-1.3454654,-0.7562534,-1.7688262,8.29516,11.494623,-11.248697
0.4429937,4.8632984,-1.3454654,-0.7562534,-1.7688262,8.278443,11.504156,-11.23894
0.4408592,4.861289,-2.0634537,-0.7296218,-2.0202286,7.383178,10.893212,-10.044668
0.4387316,4.8592873,-2.0634537,-0.7296218,-2.0202286,7.3642373,10.904657,-10.028346
0.4363827,4.85659,-2.7271135,-0.69872916,-2.24713,6.830943,10.2714,-8.727479
0.43403694,4.8538976,-2.7271135,-0.69872916,-2.24713,6.8100104,10.284451,-8.705087
0.43148807,4.8505654,-3.3332489,-0.6635754,-2.4473996,6.442477,9.705254,-7.341112
0.43148807,4.8505654,-3.3332489,-0.6635754,-2.4473996,6.442477,9.705254,-7.341112
0.43148807,4.8505654,-3.3332489,-0.6635754,-2.4473996,6.442477,9.705254,-7.341112
0.43148807,4.8505654,-3.3332489,-0.6635754,-2.4473996,6.442477,9.705254,-7.341112
0.41862428,4.8307843,-4.3718815,-0.58368057,-2.7691095,5.5083437,8.582602,-4.5909815
0.41663134,4.8277273,-4.3718815,-0.58368057,-2.7691095,5.490419,8.59371,-4.564596
0.41393787,4.823389,-4.8097053,-0.54533106,-2.895876,5.226751,7.9718904,-3.387351
0.4109656,4.818605,-4.8097053,-0.54533106,-2.895876,5.1999526,7.9882154,-3.3457565
0.40777817,4.813315,-5.1974616,-0.5101774,-2.9981413,5.022742,7.3687143,-2.1599054
0.40466085,4.808146,-5.1974616,-0.5101774,-2.9981413,4.9945626,7.3853626,-2.1145983
0.40129748,4.802451,-5.540477,-0.47182783,-3.0780363,4.604988,6.694385,-0.9200468
0.39786705,4.796649,-5.540477,-0.47182783,-3.0780363,4.573891,6.7120457,-0.86879826
0.39436612,4.790514,-5.843012,-0.4249562,-3.1344953,4.053692,6.06422,0.15767765
0.39172566,4.785891,-5.843012,-0.4249562,-3.1344953,4.029693,6.0773287,0.19883108
0.38851166,4.7800026,-6.1071973,-0.36956245,-3.1675184,3.6700432,5.417938,0.9744854
0.3852608,4.77405,-6.1071973,-0.36956245,-3.1675184,3.6404185,5.433486,1.0278339
0.38134018,4.7665634,-6.3362293,-0.30138552,-3.1803017,3.5711207,4.642605,1.9188137
0.3776534,4.759211,-6.539695,-0.21829489,-3.1685836,3.326733,3.7783508,2.646047
0.37565133,4.7552214,-6.539695,-0.21829489,-3.1685836,3.3084147,3.7872262,2.6821961
0.37244153,4.748828,-6.539695,-0.21829489,-3.1685836,3.2790136,3.8010778,2.740254
0.36926743,4.7422075,-6.717594,-0.11496424,-3.1344953,2.929082,2.895029,3.4565694
0.36608827,4.7355824,-6.717594,-0.11496424,-3.1344953,2.8998895,2.9078827,3.5170865
0.36297548,4.7287807,-6.869927,0.005410646,-3.0791016,2.7228322,1.9144723,4.2066674
0.35986024,4.721981,-6.869927,0.005410646,-3.0791016,2.694158,1.9261241,4.2691126
0.3566003,4.7145176,-6.995628,0.13963397,-3.008794,2.6593275,0.9609395,5.032135
0.35223204,4.704533,-6.995628,0.13963397,-3.008794,2.6190147,0.9755917,5.124319
0.35066378,4.700768,-7.0946975,0.2919668,-2.9235728,2.3746843,0.03725022,5.604476
0.34779868,4.6938972,-7.0946975,0.2919668,-2.9235728,2.3481936,0.045940578,5.668144
0.34494597,4.6867113,-7.165005,0.46027857,-2.8276992,2.1110988,-0.89410484,6.319029
0.34207693,4.6794987,-7.165005,0.46027857,-2.8276992,2.0845184,-0.8865578,6.3861074
0.339307,4.6721926,-7.203355,0.63498193,-2.7211726,1.8720813,-1.6604427,6.8707447
0.3365341,4.6648955,-7.203355,0.63498193,-2.7211726,1.8463392,-1.6543748,6.9388204
0.3338621,4.657537,-7.208681,0.81394637,-2.6082547,1.7305288,-2.4105918,7.5103345
0.33118606,4.6501865,-7.208681,0.81394637,-2.6082547,1.7056394,-2.4060082,7.5790815
0.3286133,4.642812,-7.176723,0.99823713,-2.488945,1.5667658,-2.967378,7.9881063
0.32603267,4.635438,-7.176723,0.99823713,-2.488945,1.5427222,-2.9642634,8.057226
0.32355636,4.628081,-7.110677,1.1825279,-2.3675048,1.4094963,-3.2924383,8.380025
0.32107598,4.62074,-7.110677,1.1825279,-2.3675048,1.3863454,-3.2907588,8.448956
0.3186885,4.6134243,-7.0137377,1.3678839,-2.24713,1.1964507,-3.3856757,8.7618885
0.31628612,4.6060953,-7.0137377,1.3678839,-2.24713,1.1739936,-3.3853533,8.830792
0.31396148,4.5987997,-6.8901668,1.5500441,-2.1320813,0.9271898,-3.4719865,9.143623
0.3117716,4.5919604,-6.8901668,1.5500441,-2.1320813,0.9066858,-3.4728763,9.207994
0.30954766,4.5848484,-6.742095,1.7236822,-2.0191634,0.7134676,-3.488841,9.538303
0.30721065,4.5774174,-6.742095,1.7236822,-2.0191634,0.69155693,-3.4910412,9.608286
0.305053,4.570428,-6.572718,1.8887982,-1.9083759,0.5180845,-3.3501036,9.841714
0.30289564,4.563482,-6.572718,1.8887982,-1.9083759,0.49782944,-3.3532677,9.907164
0.30079925,4.556635,-6.3862967,2.0432615,-1.8018494,0.15252209,-3.337813,10.19194
0.29868072,4.5497627,-6.3862967,2.0432615,-1.8018494,0.1326046,-3.3419776,10.256708
0.29664043,4.5430813,-6.1828313,2.1849418,-1.6985188,-0.16431522,-3.2029033,10.578248
0.29459205,4.536421,-6.1828313,2.1849418,-1.6985188,-0.18359661,-3.2078867,10.641018
0.2926098,4.5299354,-5.9655175,2.310643,-1.5962534,-0.422534,-3.0839367,10.951128
0.29061708,4.5234647,-5.9655175,2.310643,-1.5962534,-0.4413147,-3.0896554,11.012104
0.28868592,4.5171804,-5.7364855,2.4192998,-1.4971838,-0.6366968,-3.0716963,11.253274
0.28674385,4.5109096,-5.7364855,2.4192998,-1.4971838,-0.65502167,-3.0780392,11.312348
0.28486758,4.504858,-5.497866,2.5141084,-1.4023752,-1.137208,-3.09412,11.642283
0.28297457,4.498802,-5.497866,2.5141084,-1.4023752,-1.1550932,-3.1009755,11.699322
0.28114605,4.4929843,-5.247529,2.5822854,-1.3096973,-1.0766068,-3.170144,12.118014
0.27930653,4.4871798,-5.247529,2.5822854,-1.3096973,-1.0940008,-3.1773643,12.172659
0.27753186,4.4816146,-4.989735,2.6302223,-1.2212802,-1.7620125,-3.1223392,12.397413
0.2757446,4.476056,-4.989735,2.6302223,-1.2212802,-1.7789307,-3.1298418,12.44971
0.27402347,4.4707565,-4.7255497,2.6547234,-1.1381897,-2.398571,-3.0941634,12.48041
0.27229035,4.4654636,-4.7255497,2.6547234,-1.1381897,-2.4149942,-3.1018276,12.530187
0.27062726,4.4604454,-4.4549723,2.64194,-1.0540338,-2.0333214,-3.4062,13.041844
0.2689528,4.4554334,-4.4549723,2.64194,-1.0540338,-2.049201,-3.4139152,13.088951
0.2673572,4.4507046,-4.1801343,2.6099823,-0.97094315,-2.4186783,-3.670394,13.32013
0.26575097,4.445982,-4.1801343,2.6099823,-0.97094315,-2.4339266,-3.6780753,13.364495
0.26422694,4.4415507,-3.8989043,2.5673716,-0.8878525,-2.649516,-3.6567292,13.401321
0.26269317,4.437125,-3.8989043,2.5673716,-0.8878525,-2.6640854,-3.6642818,13.442868
0.26125184,4.4329987,-3.6144786,2.5055864,-0.8026313,-3.4582968,-4.1886353,13.55821
0.2598016,4.4288774,-3.6144786,2.5055864,-0.8026313,-3.472085,-4.195986,13.596874
0.25845122,4.42507,-3.321531,2.4150388,-0.71634495,-3.5998497,-4.4183936,13.742714
0.2570928,4.421267,-3.321531,2.4150388,-0.71634495,-3.612774,-4.4254484,13.77837
0.25584564,4.417794,-3.020061,2.2914681,-0.6311238,-3.8784313,-4.4272223,13.585861
0.2545915,4.4143248,-3.020061,2.2914681,-0.6311238,-3.8903685,-4.4338865,13.6183605
0.25345638,4.4111953,-2.713265,2.1465921,-0.54483736,-3.9203396,-4.3490257,13.508808
0.25231528,4.408069,-2.713265,2.1465921,-0.54483736,-3.9312086,-4.3552256,13.5380745
0.2513042,4.405288,-2.4022079,1.9878678,-0.4532246,-3.9360533,-4.1884537,13.468324
0.25028834,4.4025097,-2.4022079,1.9878678,-0.4532246,-3.9457407,-4.1941295,13.494312
0.24940722,4.400078,-2.0911505,1.823817,-0.35948133,-3.8679476,-4.065111,13.406909
0.24852222,4.3976474,-2.0911505,1.823817,-0.35948133,-3.8763885,-4.070219,13.429617
0.24777551,4.39556,-1.7811586,1.6629622,-0.26254228,-3.648881,-3.55754,13.224051
0.24704824,4.3935366,-1.7811586,1.6629622,-0.26254228,-3.655818,-3.5619102,13.242935
0.24644534,4.3917828,-1.4775581,1.5106293,-0.16027687,-4.628827,-3.6328287,13.163508
0.24582112,4.389976,-1.4775581,1.5106293,-0.16027687,-4.6347857,-3.6368613,13.18034
0.24536973,4.388554,-1.1771536,1.3487091,-0.052685168,-5.333413,-3.678452,13.346783
0.24491937,4.387141,-1.1771536,1.3487091,-0.052685168,-5.3377113,-3.6817331,13.359909
0.24463181,4.386061,-0.8692922,1.1644183,0.06129813,-5.555932,-3.6460724,13.652409
0.24434195,4.3849773,-0.8692922,1.1644183,0.06129813,-5.5586967,-3.6487408,13.662432
0.24423447,4.384254,-0.5518434,0.96414864,0.18699934,-5.396923,-3.7417068,14.0712805
0.24412638,4.3835306,-0.5518434,0.96414864,0.18699934,-5.397956,-3.7436914,14.077903
0.24421094,4.3831725,-0.22267666,0.7628137,0.32335317,-5.468974,-4.0897503,14.545547
0.24429528,4.382815,-0.22267666,0.7628137,0.32335317,-5.468171,-4.0910473,14.548715
0.24458094,4.3828344,0.12140376,0.5689355,0.47035968,-5.695285,-4.460335,15.13729
0.24486656,4.3828545,0.12140376,0.5689355,0.47035968,-5.6925564,-4.4609184,15.1368885
0.24536106,4.383268,0.48359367,0.38038373,0.62482303,-6.5976343,-5.4471703,15.74569
0.24585578,4.3836813,0.48359367,0.38038373,0.62482303,-6.5929117,-5.447016,15.741573
0.24656437,4.384523,0.87454575,0.16733085,0.78248215,-5.9636583,-6.0110664,16.365492
0.24727477,4.3853664,0.87454575,0.16733085,0.78248215,-5.9568806,-6.0100956,16.35732
0.24821043,4.3866653,1.2953252,-0.043591518,0.94972867,-6.259197,-6.491888,16.502876
0.24914734,4.3879657,1.2953252,-0.043591518,0.94972867,-6.250263,-6.490078,16.490398
0.25030762,4.3897552,1.7480626,-0.24599177,1.1180404,-6.100336,-6.832094,16.535574
0.25146818,4.3915443,1.7480626,-0.24599177,1.1180404,-6.0892696,-6.8293886,16.518496
0.25285202,4.393851,2.2284968,-0.4451962,1.2874175,-6.1335497,-7.237515,16.463049
0.25423583,4.3961577,2.2284968,-0.4451962,1.2874175,-6.120367,-7.2339,16.441105
0.25583705,4.399,2.7281058,-0.6380091,1.454664,-5.7172604,-7.248452,16.155563
0.25743786,4.401844,2.7281058,-0.6380091,1.454664,-5.702018,-7.243946,16.128572
0.2592524,4.405237,3.2383676,-0.82229984,1.6187148,-5.6081467,-7.1953874,15.636747
0.2610623,4.408626,3.2383676,-0.82229984,1.6187148,-5.5909348,-7.1900644,15.604637
0.2630794,4.4125676,3.7539556,-0.9927421,1.7817003,-5.4855785,-7.0737104,15.035833
0.26509476,4.4165125,3.7539556,-0.9927421,1.7817003,-5.4664345,-7.0676637,14.998493
0.2673056,4.4210014,4.2652826,-1.1525319,1.9404247,-5.1246185,-6.9937673,14.4293165
0.26951405,4.425495,4.2652826,-1.1525319,1.9404247,-5.1036663,-6.9871354,14.38681
0.27190825,4.4305234,4.767022,-1.3027341,2.094888,-4.46805,-6.77869,13.740728
0.274299,4.4355574,4.767022,-1.3027341,2.094888,-4.4453983,-6.7716384,13.6931305
0.27686483,4.441104,5.249587,-1.4326963,2.2450902,-4.042818,-6.534196,13.090048
0.27942613,4.4466567,5.249587,-1.4326963,2.2450902,-4.0185795,-6.526927,13.037554
0.28215075,4.4526963,5.709781,-1.5402881,2.388901,-4.0502853,-6.289432,12.314894
0.28486997,4.4587436,5.709781,-1.5402881,2.388901,-4.0245934,-6.2821655,12.257736
0.28773805,4.465244,6.144409,-1.632966,2.5273852,-3.9161224,-6.016114,11.731844
0.29060543,4.4717655,6.144409,-1.632966,2.5273852,-3.8890753,-6.009065,11.670211
0.2936121,4.47871,6.547079,-1.7213831,2.6605434,-3.5159779,-5.8966274,11.077879
0.29651827,4.485449,6.547079,-1.7213831,2.6605434,-3.488617,-5.8902426,11.01421
0.2996476,4.492805,6.922052,-1.8023431,2.78731,-2.9037275,-6.0992203,10.4371605
0.3028679,4.500409,6.922052,-1.8023431,2.78731,-2.8734655,-6.093107,10.365352
0.30645126,4.5090055,7.269328,-1.8737159,2.8991625,-2.030592,-6.5895996,9.714393
0.31022757,4.518114,7.269328,-1.8737159,2.8991625,-1.995182,-6.583782,9.628445
0.31261528,4.5239754,7.589973,-1.9365665,2.9929059,-1.1348495,-7.059253,8.898011
0.31589153,4.532054,7.589973,-1.9365665,2.9929059,-1.104188,-7.0551896,8.821868
0.31923947,4.540493,7.8903775,-1.9898297,3.0632133,-0.38815165,-7.482451,7.9283695
0.3225776,4.5489554,7.8903775,-1.9898297,3.0632133,-0.35698223,-7.4794807,7.8487277
0.32594228,4.5577183,8.170542,-2.0345707,3.1068892,0.07662773,-7.6445446,6.861351
0.3293056,4.5665317,8.170542,-2.0345707,3.1068892,0.107963085,-7.6427813,6.7785707
0.33265123,4.5755997,8.431532,-2.0750508,3.1207376,0.51737785,-7.320665,5.5107822
0.3359803,4.584685,8.431532,-2.0750508,3.1207376,0.5483248,-7.3201838,5.4256544
0.33928078,4.5940676,8.663759,-2.1112697,3.1047587,0.9237337,-6.4822006,3.8438964
0.3425464,4.6034203,8.663759,-2.1112697,3.1047587,0.9540148,-6.48304,3.7565014
0.34572595,4.613001,8.853376,-2.140032,3.0546913,1.5389229,-5.1579213,2.1348517
0.3488877,4.622607,8.853376,-2.140032,3.0546913,1.5681777,-5.160069,2.0453694
0.35190192,4.6323233,8.985469,-2.1570761,2.9662743,2.9607282,-3.577636,0.7004711
0.35489818,4.642063,8.985469,-2.1570761,2.9662743,2.9883914,-3.581056,0.6100426
0.35773233,4.651789,9.039798,-2.1517498,2.8384426,3.3640795,-1.5929208,-1.0602689
0.3605511,4.6615386,9.039798,-2.1517498,2.8384426,3.390048,-1.597651,-1.1504844
0.36321357,4.6712213,9.000383,-2.1261835,2.6680002,3.2230163,-0.3913505,-2.5375814
0.36591864,4.681142,9.000383,-2.1261835,2.6680002,3.2478838,-0.39753342,-2.6290667
0.3682687,4.69048,8.873616,-2.1102045,2.4549475,4.557551,0.86059,-3.3518817
0.37065595,4.7000523,8.873616,-2.1102045,2.4549475,4.5794544,0.853611,-3.439848
0.37279662,4.709414,8.661629,-2.0857034,2.2131324,5.0252476,2.0532942,-4.459469
0.37491882,4.718788,8.661629,-2.0857034,2.2131324,5.044683,2.045518,-4.545329
0.37677222,4.7278523,8.370811,-2.043093,1.9468162,5.162208,3.6755543,-5.5284324
0.37860745,4.736927,8.370811,-2.043093,1.9468162,5.178995,3.667236,-5.611286
0.38033217,4.7465906,7.9958386,-1.9930254,1.6602601,5.194755,5.612025,-6.556512
0.3825446,4.759185,7.9958386,-1.9930254,1.6602601,5.214966,5.5992746,-6.6711063
0.38320506,4.7636075,7.527122,-1.9418927,1.3598555,5.5322394,7.7257113,-7.458301
0.3843158,4.771123,7.527122,-1.9418927,1.3598555,5.542371,7.717855,-7.526545
0.3843158,4.771123,6.9593363,-1.8843685,1.0487983,5.542371,7.717855,-7.526545
0.38570967,4.782987,6.9593363,-1.8843685,1.0487983,5.9812555,9.568414,-8.1561165
0.3868591,4.7936783,6.2946115,-1.8129958,0.7324147,6.5040894,11.079483,-8.746166
0.38745093,4.8011184,6.2946115,-1.8129958,0.7324147,6.5094824,11.071537,-8.813529
0.3876805,4.8072386,5.540404,-1.7320356,0.4075091,6.72226,12.415901,-9.6111765
0.38789523,4.8132367,5.540404,-1.7320356,0.4075091,6.7242165,12.409768,-9.66548
0.38778526,4.818557,4.7116284,-1.6521409,0.07514657,7.1398067,13.674096,-10.537325
0.38766757,4.823839,4.7116284,-1.6521409,0.07514657,7.138737,13.669308,-10.585206
0.38766757,4.823839,3.8210673,-1.5828986,-0.26254228,7.138737,13.669308,-10.585206
0.38766757,4.823839,3.8210673,-1.5828986,-0.26254228,7.138737,13.669308,-10.585206
0.38651264,4.8348446,3.8210673,-1.5828986,-0.26254228,7.3389034,14.533358,-11.437085
0.385276,4.8400393,2.885765,-1.5264397,-0.60555744,7.4090276,14.939004,-12.102345
0.38428247,4.8420963,1.9206355,-1.4848943,-0.9475073,7.261108,15.088682,-12.595472
0.38314286,4.844447,1.9206355,-1.4848943,-0.9475073,7.2507057,15.09004,-12.6172905
0.38138416,4.846044,0.94591844,-1.4550669,-1.2873267,6.894675,14.826361,-12.895958
0.3802157,4.8471017,0.94591844,-1.4550669,-1.2873267,6.884002,14.829305,-12.906101
0.37846464,4.847425,-0.023472207,-1.4316311,-1.6132976,6.671665,14.413842,-12.790182
0.3766717,4.8477535,-0.023472207,-1.4316311,-1.6132976,6.655269,14.419886,-12.794033
0.37458408,4.8471007,-0.9704923,-1.4039342,-1.916898,6.133379,13.714688,-12.549708
0.37249494,4.846445,-0.9704923,-1.4039342,-1.916898,6.1142383,13.722925,-12.5447645
0.370138,4.844845,-1.8791629,-1.370911,-2.1938667,5.4078865,12.900035,-11.832229
0.36778724,4.843247,-1.8791629,-1.370911,-2.1938667,5.38631,12.91023,-11.818782
0.36519212,4.840758,-2.7388313,-1.3368225,-2.4442039,5.089534,12.251885,-11.021567
0.36259422,4.838263,-2.7388313,-1.3368225,-2.4442039,5.0656404,12.263815,-10.99997
0.35979047,4.834928,-3.5452366,-1.294212,-2.6604526,4.450858,11.089769,-9.639539
0.35700083,4.831607,-3.5452366,-1.294212,-2.6604526,4.425153,11.103019,-9.610317
0.354041,4.827506,-4.2866607,-1.242014,-2.8404822,3.5646648,9.652254,-7.850112
0.35107565,4.823395,-4.2866607,-1.242014,-2.8404822,3.5372808,9.666549,-7.8135247
0.34798694,4.8186264,-4.9503202,-1.1962076,-2.9874887,3.2357886,8.474999,-6.0900984
0.34489593,4.8138514,-4.9503202,-1.1962076,-2.9874887,3.20718,8.489853,-6.0472093
0.3416559,4.8084564,-5.5298243,-1.1557276,-3.1014721,3.52671,7.552566,-4.4183526
0.33842024,4.8030653,-5.5298243,-1.1557276,-3.1014721,3.4966974,7.5678053,-4.369546
0.33483538,4.7967453,-6.025172,-1.1056602,-3.1845627,3.4250925,6.631647,-2.6553087
0.33173987,4.791285,-6.025172,-1.1056602,-3.1845627,3.39631,6.6457195,-2.605513
0.32839698,4.785144,-6.4459515,-1.0449401,-3.2431521,2.8624105,5.8418655,-1.1175818
0.32499355,4.778888,-6.4459515,-1.0449401,-3.2431521,2.8306909,5.856642,-1.0601735
0.32159767,4.7724414,-6.7964234,-0.97995895,-3.2751102,2.2674944,5.2246065,0.33036137
0.3182071,4.7659936,-6.7964234,-0.97995895,-3.2751102,2.2358236,5.238501,0.3898921
0.31486437,4.7592487,-7.0861754,-0.9245652,-3.2804365,2.0465486,4.931072,1.8697433
0.31152797,4.7525077,-7.0861754,-0.9245652,-3.2804365,2.0153158,4.94392,1.9323473
0.30824074,4.745525,-7.313077,-0.8734325,-3.2559354,1.5056696,4.735908,3.34292
0.30496275,4.7385535,-7.313077,-0.8734325,-3.2559354,1.4749179,4.7475777,3.408001
0.30176145,4.731386,-7.4856496,-0.81590825,-3.1962805,0.5637903,4.571756,4.882869
0.29856592,4.724222,-7.4856496,-0.81590825,-3.1962805,0.533751,4.582091,4.9500556
0.2954733,4.7169123,-7.6081553,-0.75518817,-3.1014721,-0.30458736,4.2898903,6.5031695
0.29238957,4.709613,-7.6081553,-0.75518817,-3.1014721,-0.33363056,4.2987413,6.5719037
0.2894397,4.702228,-7.6784625,-0.6934028,-2.972575,-0.940835,3.7367961,8.279209
0.28649545,4.694846,-7.6784625,-0.6934028,-2.972575,-0.9686127,3.7440588,8.348959
0.28371572,4.687425,-7.699768,-0.6230954,-2.8095896,-1.3444147,2.9266567,10.210047
0.28094402,4.6800146,-7.699768,-0.6230954,-2.8095896,-1.3706074,2.9322438,10.280265
0.27836975,4.672608,-7.6656795,-0.53680897,-2.6082547,-1.5146666,1.9215636,12.155754
0.27580026,4.6652045,-7.6656795,-0.53680897,-2.6082547,-1.5389843,1.9254265,12.226059
0.27345613,4.657859,-7.5698056,-0.428152,-2.3770921,-1.6473799,0.82201433,14.0532055
0.2711209,4.650531,-7.5698056,-0.428152,-2.3770921,-1.6695089,0.8241463,14.122893
0.26903206,4.6433096,-7.410016,-0.29392865,-2.1192982,-1.7659321,-0.24267483,15.891472
0.26695067,4.6361055,-7.410016,-0.29392865,-2.1192982,-1.7856808,-0.24223232,15.960042
0.26512796,4.629071,-7.180984,-0.14053059,-1.84446,-1.6353931,-1.3010912,17.726868
0.26331112,4.622054,-7.180984,-0.14053059,-1.84446,-1.6526508,-1.3022203,17.793678
0.26176473,4.615279,-6.879514,0.03523805,-1.5557733,-1.7918415,-2.3912783,19.280296
0.26021764,4.6085,-6.879514,0.03523805,-1.5557733,-1.806551,-2.3938398,19.344814
0.2589452,4.6020412,-6.5088024,0.22805092,-1.2617604,-2.2304535,-3.354886,20.699097
0.25767225,4.595585,-6.5088024,0.22805092,-1.2617604,-2.2425652,-3.3586712,20.760492
0.25666782,4.5895185,-6.0656524,0.4261901,-0.96774733,-2.4484463,-4.263295,21.84761
0.2556606,4.5834484,-6.0656524,0.4261901,-0.96774733,-2.4580345,-4.2680626,21.90525
0.25491494,4.5778227,-5.5564556,0.6211335,-0.6747996,-2.5273838,-5.269251,23.031197
0.25416803,4.5722094,-5.5564556,0.6211335,-0.6747996,-2.5345001,-5.2747393,23.0844
0.2536756,4.567098,-4.985474,0.81394637,-0.38504767,-2.4913063,-6.3147545,23.956371
0.25318044,4.5619974,-4.985474,0.81394637,-0.38504767,-2.4960175,-6.320698,24.004604
0.25293174,4.557458,-4.3548374,1.0078245,-0.101687334,-2.795271,-7.1071777,24.569378
0.25267914,4.5529284,-4.3548374,1.0078245,-0.101687334,-2.797676,-7.1133223,24.612097
0.25266758,4.5490074,-3.6634808,1.1963763,0.17741196,-3.1521301,-8.014733,25.008104
0.25265107,4.545039,-3.6634808,1.1963763,0.17741196,-3.1522846,-8.020914,25.045397
0.2528702,4.5418725,-2.9177957,1.3678839,0.45331544,-3.1693554,-8.931527,25.127726
0.2530863,4.538683,-2.9177957,1.3678839,0.45331544,-3.1672935,-8.937255,25.15757
0.2535389,4.5362163,-2.125239,1.5234125,0.7249579,-3.1007328,-9.612823,25.11348
0.25398934,4.5337386,-2.125239,1.5234125,0.7249579,-3.0964413,-9.618081,25.136509
0.2546689,4.532047,-1.2943327,1.666158,0.9891435,-2.7883015,-10.178066,24.826447
0.25534716,4.530349,-1.2943327,1.666158,0.9891435,-2.781845,-10.182637,24.842056
0.25624487,4.5294733,-0.43040323,1.8046423,1.2458723,-2.586546,-10.789684,24.380577
0.25714353,4.528593,-0.43040323,1.8046423,1.2458723,-2.577999,-10.793423,24.388407
0.258258,4.5285497,0.45483154,1.9399309,1.4898177,-2.7972374,-10.939899,23.521603
0.25937116,4.5285034,0.45483154,1.9399309,1.4898177,-2.786646,-10.942731,23.52152
0.26068053,4.529309,1.3517842,2.0624363,1.7113928,-3.114174,-10.681232,22.282763
0.26199302,4.530112,1.3517842,2.0624363,1.7113928,-3.101694,-10.683124,22.274652
0.26348558,4.5317683,2.2444758,2.1647017,1.9105972,-2.9151287,-10.420671,21.142784
0.2649806,4.5334206,2.2444758,2.1647017,1.9105972,-2.9009304,-10.421648,21.126657
0.26664922,4.5359144,3.1169274,2.250988,2.0938227,-2.8659363,-9.985967,19.996471
0.2683208,4.5383997,3.1169274,2.250988,2.0938227,-2.850071,-9.986132,19.972485
0.27015597,4.5416937,3.9520948,2.330883,2.2610693,-3.1295424,-9.4923,18.825184
0.2719979,4.5449805,3.9520948,2.330883,2.2610693,-3.1120844,-9.491845,18.79365
0.2739925,4.5490236,4.735064,2.3926682,2.4155326,-3.169796,-9.03586,17.835619
0.27599615,4.5530586,4.735064,2.3926682,2.4155326,-3.1508236,-9.035006,17.79704
0.27815455,4.557806,5.458379,2.4299526,2.5593433,-3.5709286,-8.459112,16.798859
0.28032178,4.5625405,5.458379,2.4299526,2.5593433,-3.5504265,-8.458131,16.753704
0.28263828,4.5679317,6.1145816,2.4342136,2.6903708,-3.6913319,-7.8775215,15.562724
0.28496498,4.573309,6.1145816,2.4342136,2.6903708,-3.6693554,-7.87669,15.511535
0.28743523,4.579284,6.699412,2.4022558,2.8086152,-3.7705355,-7.339535,14.592806
0.28991678,4.5852447,6.699412,2.4022558,2.8086152,-3.7471256,-7.339132,14.536157
0.29262614,4.5919476,7.208608,2.3362093,2.9204679,-3.9322796,-6.769109,13.529199
0.29518425,4.5982327,7.208608,2.3362093,2.9204679,-3.9081888,-6.769424,13.46956
0.2979504,4.605166,7.643236,2.233944,3.021668,-4.092848,-6.3248024,12.585018
0.30072278,4.6120696,7.643236,2.233944,3.021668,-4.06678,-6.3260794,12.519622
0.30363595,4.6194096,8.007557,2.1007857,3.1154113,-4.207008,-5.7580957,11.5738945
0.30657226,4.6267633,8.007557,2.1007857,3.1154113,-4.179451,-5.7605867,11.504376
0.30962822,4.6344457,8.3037,1.9388657,3.2006326,-5.3526816,-5.519577,10.493305
0.31270382,4.642137,8.3037,1.9388657,3.2006326,-5.323875,-5.523488,10.420772
0.31589317,4.6501365,8.541254,1.7417917,3.2783968,-5.404162,-5.173869,9.751674
0.31909472,4.6581297,8.541254,1.7417917,3.2783968,-5.3742337,-5.179338,9.676505
0.32240036,4.666382,8.72448,1.5159557,3.3529654,-5.305057,-4.8505297,8.88077
0.32571298,4.674621,8.72448,1.5159557,3.3529654,-5.274156,-4.857681,8.803549
0.329131,4.683103,8.861898,1.283728,3.4211423,-5.4482117,-4.4971356,7.9580564
0.3325572,4.6915817,8.861898,1.283728,3.4211423,-5.416327,-4.506108,7.8789
0.33606786,4.700252,8.9588375,1.0472393,3.480797,-5.5034046,-4.209654,7.070296
0.33958077,4.7089124,8.9588375,1.0472393,3.480797,-5.4707894,-4.2204843,6.9898095
0.3431631,4.717743,9.018493,0.80009794,3.528734,-5.4663057,-4.0120955,6.2710843
0.3467488,4.7265735,9.018493,0.80009794,3.528734,-5.4330997,-4.024827,6.18943
0.35037038,4.735518,9.04832,0.54549974,3.5702794,-5.0548406,-3.8613665,5.762184
0.354011,4.7445087,9.04832,0.54549974,3.5702794,-5.0212183,-3.8760128,5.679522
0.35767797,4.7535915,9.053646,0.28983626,3.6043677,-4.8293777,-3.5756114,4.9737687
0.36134654,4.7626867,9.053646,0.28983626,3.6043677,-4.7955856,-3.5921283,4.890662
0.36504716,4.77187,9.037667,0.039499108,3.6373909,-5.072795,-3.3942034,4.242
0.3687432,4.781058,9.037667,0.039499108,3.6373909,-5.038845,-3.4126227,4.158618
0.37245342,4.7903295,9.000383,-0.21616437,3.661892,-4.65526,-3.0824864,3.452283
0.37616014,4.799617,9.000383,-0.21616437,3.661892,-4.621313,-3.102792,3.368619
0.37986913,4.808977,8.946054,-0.47715417,3.6853278,-4.2617807,-2.9756207,2.8871708
0.38356453,4.818336,8.946054,-0.47715417,3.6853278,-4.228038,-2.9977367,2.8035169
0.38724494,4.8277645,8.8789425,-0.7360134,3.7087636,-3.3038363,-2.8100743,2.2981935
0.39091605,4.837212,8.8789425,-0.7360134,3.7087636,-3.2704096,-2.8339834,2.214442
0.39456204,4.8467135,8.800114,-0.9788937,3.7279384,-2.6099873,-2.5858204,1.8432591
0.39819238,4.856226,8.800114,-0.9788937,3.7279384,-2.577032,-2.611449,1.7596614
0.4017962,4.8657546,8.714892,-1.1983382,3.7439175,-2.0655277,-2.379318,1.2022474
0.40538412,4.875293,8.714892,-1.1983382,3.7439175,-2.0330627,-2.4066026,1.1191902
0.40893784,4.884895,8.62541,-1.3964773,3.7567005,-1.3449426,-2.1617985,0.70556045
0.41247413,4.894497,8.62541,-1.3964773,3.7567005,-1.3130355,-2.1907525,0.6227453
0.41574404,4.903959,8.531667,-1.5701154,3.7609615,-0.4551847,-2.0565,0.17268968
0.4190147,4.9134398,8.531667,-1.5701154,3.7609615,-0.4257666,-2.0859306,0.091588974
0.42223036,4.9228935,8.437923,-1.7139262,3.7524395,0.08195853,-1.8573552,-0.2187404
0.42542943,4.932365,8.437923,-1.7139262,3.7524395,0.11065221,-1.8881477,-0.29896688
0.428577,4.9418178,8.348441,-1.825779,3.7332647,0.33995533,-1.8620554,-0.62285256
0.431691,4.951254,8.348441,-1.825779,3.7332647,0.36780488,-1.8940651,-0.7019803
0.43474886,4.960719,8.260024,-1.9131306,3.706633,0.6584779,-1.9841712,-0.9150439
0.43777424,4.9701777,8.260024,-1.9131306,3.706633,0.68545973,-2.0174706,-0.9935609
0.44070554,4.979582,8.174803,-1.9845034,3.6789362,1.3627893,-2.2617378,-1.2244921
0.44362652,4.9890547,8.174803,-1.9845034,3.6789362,1.3887659,-2.2962134,-1.3023435
0.4464591,4.9984794,8.0938425,-2.0420277,3.6480436,2.3907578,-1.7851057,-1.6763027
0.4492625,5.0079155,8.0938425,-2.0420277,3.6480436,2.4156222,-1.8205478,-1.7530594
0.45201245,5.017304,8.008622,-2.076116,3.605433,2.4399786,-1.2147529,-2.504179
0.45201245,5.017304,8.008622,-2.076116,3.605433,2.4399786,-1.2147529,-2.504179
0.457462,5.036783,7.908487,-2.103813,3.5457783,4.0970583,-0.835541,-2.6654193
0.45984143,5.0454555,7.908487,-2.103813,3.5457783,4.118054,-0.8700526,-2.7344875
0.45984143,5.0454555,7.908487,-2.103813,3.5457783,4.118054,-0.8700526,-2.7344875
0.45984143,5.0454555,7.792373,-2.108074,3.4733403,4.118054,-0.8700526,-2.7344875
0.4672002,5.073381,7.66028,-2.09103,3.3891842,4.838835,0.70142984,-3.5292199
0.46967062,5.083156,7.66028,-2.09103,3.3891842,4.860528,0.6604781,-3.6054351
0.47184733,5.0920553,7.5090127,-2.060137,3.2890494,5.3488774,1.6044602,-3.837294
0.47398856,5.100936,7.5090127,-2.060137,3.2890494,5.367635,1.5664103,-3.9058242
0.47604522,5.1097107,7.3332443,-2.0100696,3.178262,5.5053425,2.677676,-4.150383
0.47811416,5.11867,7.3332443,-2.0100696,3.178262,5.523425,2.6384447,-4.218805
0.48008904,5.127444,7.13404,-1.9461539,3.0600176,5.5885544,3.7057664,-4.500951
0.4819485,5.135829,7.13404,-1.9461539,3.0600176,5.6047773,3.6682577,-4.564318
0.4819485,5.135829,7.13404,-1.9461539,3.0600176,5.6047773,3.6682577,-4.564318
0.4819485,5.135829,7.13404,-1.9461539,3.0600176,5.6047773,3.6682577,-4.564318
0.4819485,5.135829,6.651475,-1.8034084,2.8054194,6.3194275,4.6657314,-4.7180004
0.48945698,5.171813,6.651475,-1.8034084,2.8054194,6.3261266,4.6477356,-4.7464886
0.49034458,5.176342,6.3777018,-1.7149915,2.675457,6.6977506,4.880323,-4.6840987
0.49184087,5.1840696,6.3777018,-1.7149915,2.675457,6.710736,4.843889,-4.740817
0.4932416,5.191484,6.0932765,-1.6127261,2.5401685,7.1059513,4.9475346,-4.5028977
0.4946231,5.198909,6.0932765,-1.6127261,2.5401685,7.1179237,4.911966,-4.556875
0.49591526,5.2059526,5.801394,-1.4955469,2.3995535,6.966299,4.9497514,-4.5168653
0.49718767,5.2129917,5.801394,-1.4955469,2.3995535,6.977312,4.9154706,-4.567547
0.49840105,5.2198253,5.507381,-1.3741069,2.2493513,7.045263,4.87237,-4.5877957
0.49960575,5.2267065,5.507381,-1.3741069,2.2493513,7.0556684,4.8383493,-4.6368876
0.5006439,5.232822,5.213368,-1.257993,2.086366,7.6488214,4.807976,-4.699511
0.50168854,5.239057,5.213368,-1.257993,2.086366,7.6578364,4.776796,-4.7436438
0.50264144,5.2449756,4.9172244,-1.140814,1.9116625,8.298125,4.675287,-4.838088
0.50357926,5.2508755,4.9172244,-1.140814,1.9116625,8.30621,4.645507,-4.8795576
0.50441647,5.2564254,4.61682,-1.0151128,1.7167192,8.768321,4.7802634,-5.31593
0.50523996,5.261952,4.61682,-1.0151128,1.7167192,8.775414,4.752167,-5.3545513
0.5059428,5.267035,4.3046975,-0.8862157,1.5004704,9.284242,5.128585,-6.10353
0.50663847,5.272127,4.3046975,-0.8862157,1.5004704,9.29023,5.1025963,-6.1389647
0.5071959,5.27676,3.9755306,-0.75944924,1.2554595,10.0085,5.672868,-7.1433134
0.5077451,5.281377,3.9755306,-0.75944924,1.2554595,10.01322,5.649335,-7.1754045
0.5081401,5.285505,3.6197321,-0.6348133,0.9827519,10.744458,6.6006117,-8.482743
0.50853115,5.2896385,3.6197321,-0.6348133,0.9827519,10.747818,6.579707,-8.511542
0.5087482,5.293234,3.2255843,-0.5101774,0.68128204,11.477522,7.8069153,-9.863219
0.50896215,5.2968264,3.2255843,-0.5101774,0.68128204,11.479363,7.789075,-9.8884325
0.5089789,5.299827,2.784565,-0.38660666,0.3499848,12.255225,9.081982,-11.317663
0.5089941,5.302822,2.784565,-0.38660666,0.3499848,12.255353,9.067623,-11.339024
0.5087879,5.3051567,2.2902822,-0.26090547,-0.012205118,12.957479,10.369279,-12.567693
0.508581,5.307494,2.2902822,-0.26090547,-0.012205118,12.955698,10.358858,-12.584897
0.50813437,5.3090916,1.7384752,-0.13094321,-0.40209192,13.440279,11.487772,-13.770622
0.5076861,5.310696,1.7384752,-0.13094321,-0.40209192,13.436426,11.48179,-13.78323
0.50698507,5.311501,1.1302092,0.005410646,-0.8122187,13.693757,12.486217,-14.580929
0.5062821,5.312309,1.1302092,0.005410646,-0.8122187,13.687708,12.485069,-14.588554
0.50531876,5.312268,0.4772021,0.15135187,-1.2383245,13.789551,13.528142,-15.179832
0.50435144,5.312228,0.4772021,0.15135187,-1.2383245,13.7812195,13.532135,-15.182148
0.5031238,5.3113,-0.21202402,0.30688047,-1.6697567,13.555162,14.393801,-15.413465
0.50188005,5.310363,-0.21202402,0.30688047,-1.6697567,13.5444355,14.403219,-15.410112
0.50035155,5.3084674,-0.928947,0.4709312,-2.097993,12.985366,15.055245,-15.324032
0.49892974,5.3067126,-0.928947,0.4709312,-2.097993,12.97309,15.069302,-15.315236
0.4971934,5.303943,-1.6650448,0.64243877,-2.5166419,12.134468,15.395895,-14.840264
0.4954529,5.3011837,-1.6650448,0.64243877,-2.5166419,12.119408,15.41596,-14.824963
0.4934773,5.297508,-2.4064689,0.8128811,-2.9182465,11.101524,15.513109,-13.960795
0.4914893,5.2938337,-2.4064689,0.8128811,-2.9182465,11.084286,15.538369,-13.939305
0.4892746,5.2892523,-3.1415012,0.9790624,-3.2932196,9.810501,15.161715,-12.776788
0.4870542,5.2846975,-3.1415012,0.9790624,-3.2932196,9.791204,15.191832,-12.749126
0.48461917,5.279264,-3.8562937,1.1367215,-3.6362348,8.419686,14.47018,-11.3841715
0.4821678,5.273846,-3.8562937,1.1367215,-3.6362348,8.398329,14.504896,-11.350277
0.47952217,5.2676225,-4.5433893,1.2762711,-3.9451616,7.1589937,13.452116,-9.811834
0.47685373,5.2614107,-4.5433893,1.2762711,-3.9451616,7.1356816,13.490868,-9.771969
0.47400695,5.25447,-5.190005,1.3977113,-4.22,6.01423,12.288349,-8.098658
0.47113326,5.247544,-5.190005,1.3977113,-4.22,5.9890532,12.330528,-8.053165
0.46808916,5.2399464,-5.791879,1.4946504,-4.461815,4.980718,10.982567,-6.5420995
0.46501756,5.2323737,-5.791879,1.4946504,-4.461815,4.953725,11.027628,-6.491268
0.46180153,5.2242136,-6.3447514,1.5670884,-4.6695414,3.9916756,9.672359,-5.133324
0.45854527,5.216056,-6.3447514,1.5670884,-4.6695414,3.9629695,9.719767,-5.077392
0.4551709,5.2074285,-6.8486214,1.6171558,-4.843179,2.9898548,8.375681,-3.739019
0.45176405,5.1988306,-6.8486214,1.6171558,-4.843179,2.95972,8.424475,-3.678866
0.44820705,5.18979,-7.300294,1.6469831,-4.9859247,2.0136178,7.1199746,-2.4848747
0.44461557,5.1807804,-7.300294,1.6469831,-4.9859247,1.9817393,7.1699743,-2.4206405
0.44088888,5.171387,-7.6976376,1.6608316,-5.0956473,1.0531747,6.038646,-1.3282473
0.43712628,5.1620274,-7.6976376,1.6608316,-5.0956473,1.0196617,6.0893726,-1.2602429
0.43323398,5.1523523,-8.043848,1.6618968,-5.172346,0.60664725,5.044549,-0.097504616
0.42930558,5.1427116,-8.043848,1.6618968,-5.172346,0.5715313,5.0955286,-0.026170015
0.4252978,5.1327972,-8.344253,1.6650927,-5.2181525,-0.23050451,4.131911,0.94339097
0.42125353,5.122918,-8.344253,1.6650927,-5.2181525,-0.2667868,4.18264,1.0178841
0.41716322,5.112809,-8.602047,1.6757454,-5.2341313,-1.1510973,3.2471223,1.9472475
0.41303656,5.1027365,-8.602047,1.6757454,-5.2341313,-1.1882553,3.2971687,2.0246437
0.40888542,5.0924826,-8.816165,1.6832021,-5.2256093,-2.0349433,2.3366923,2.8751595
0.40469804,5.082265,-8.816165,1.6832021,-5.2256093,-2.0727851,2.3856828,2.9551125
0.40049905,5.071918,-8.988738,1.6810716,-5.1904554,-2.4316225,1.5435736,3.8317223
0.39626053,5.061596,-8.988738,1.6810716,-5.1904554,-2.4700637,1.5912318,3.913907
0.39203662,5.051214,-9.1165695,1.6768106,-5.131866,-2.4988625,0.82882905,4.878388
0.38777483,5.0408554,-9.1165695,1.6768106,-5.131866,-2.5376513,0.8747659,4.962246
0.3835482,5.0304527,-9.203921,1.6821369,-5.050906,-2.5235147,0.25892687,5.8516574
0.3792891,5.0200834,-9.203921,1.6821369,-5.050906,-2.5624108,0.30292082,5.936961
0.37509403,5.0097084,-9.245466,1.7045075,-4.949706,-2.6007886,-0.2049551,6.899313
0.37086755,4.999365,-9.245466,1.7045075,-4.949706,-2.6395178,-0.16314697,6.985712
0.36672735,4.989046,-9.248662,1.7460527,-4.837853,-2.8642669,-0.5392928,7.709461
0.36255676,4.9787574,-9.248662,1.7460527,-4.837853,-2.9026055,-0.499825,7.7966547
0.35849136,4.9685273,-9.211378,1.8014466,-4.7110868,-3.1603036,-0.7348051,8.726763
0.3543965,4.958326,-9.211378,1.8014466,-4.7110868,-3.1980648,-0.6978159,8.814394
0.35041782,4.948208,-9.134679,1.8674929,-4.5726023,-3.4311347,-0.85872793,9.624967
0.34641865,4.9381366,-9.134679,1.8674929,-4.5726023,-3.4681196,-0.82434225,9.712568
0.34255046,4.9281883,-9.014304,1.9409962,-4.4202695,-3.5757732,-0.8921795,10.498764
0.33865443,4.918266,-9.014304,1.9409962,-4.4202695,-3.6119099,-0.86039734,10.586075
0.33490738,4.9085083,-8.856645,2.0230215,-4.256219,-3.8143024,-0.8782511,11.524768
0.3311332,4.8987756,-8.856645,2.0230215,-4.256219,-3.8493996,-0.84912825,11.611321
0.32751915,4.8892407,-8.660636,2.1167648,-4.084711,-4.352311,-1.1809082,12.462707
0.32387856,4.879729,-8.660636,2.1167648,-4.084711,-4.3862553,-1.1544328,12.548114
0.32040143,4.8704524,-8.424148,2.2137039,-3.906812,-4.5479975,-1.5510979,13.7091875
0.31689873,4.8611975,-8.424148,2.2137039,-3.906812,-4.5807285,-1.5272079,13.793007
0.31357753,4.852216,-8.147179,2.314904,-3.713999,-5.2103453,-1.9168959,14.760556
0.31023133,4.8432536,-8.147179,2.314904,-3.713999,-5.241685,-1.8955622,14.842356
0.30708435,4.834609,-7.824404,2.4192998,-3.5030768,-5.9032593,-2.378786,15.721229
0.30391315,4.825982,-7.824404,2.4192998,-3.5030768,-5.9330215,-2.3599434,15.800524
0.30094814,4.817721,-7.4558225,2.5087821,-3.278306,-5.7741184,-3.027566,17.116901
0.29795986,4.809477,-7.4558225,2.5087821,-3.278306,-5.8022175,-3.0111084,17.19314
0.29520056,4.801645,-7.0414343,2.5897422,-3.0332952,-6.235199,-3.618843,18.161217
0.292419,4.793828,-7.0414343,2.5897422,-3.0332952,-6.2613983,-3.6046715,18.233894
0.28988308,4.786471,-6.5780444,2.669637,-2.7733705,-6.965248,-4.1571693,18.896235
0.2873262,4.7791266,-6.5780444,2.669637,-2.7733705,-6.9893684,-4.145152,18.964842
0.2850243,4.7722898,-6.0699134,2.733553,-2.5027933,-7.5952864,-4.6518373,19.565144
0.2827029,4.765464,-6.0699134,2.733553,-2.5027933,-7.617219,-4.6418123,19.629162
0.28064188,4.759192,-5.5191717,2.7729678,-2.2258246,-8.019768,-5.0593853,20.214811
0.27856284,4.7529306,-5.5191717,2.7729678,-2.2258246,-8.0394335,-5.0511646,20.273727
0.27675375,4.7472677,-4.92795,2.7910771,-1.9403338,-8.497089,-5.350727,20.600037
0.2749285,4.7416124,-4.92795,2.7910771,-1.9403338,-8.514365,-5.344119,20.653387
0.2733804,4.736597,-4.2983785,2.7910771,-1.6495166,-8.983931,-5.439287,20.71993
0.2718181,4.7315884,-4.2983785,2.7910771,-1.6495166,-8.9987335,-5.4341145,20.767294
0.27054095,4.72725,-3.640045,2.770837,-1.3523078,-9.422642,-5.3678017,20.789198
0.2691896,4.7227097,-3.640045,2.770837,-1.3523078,-9.435459,-5.3637133,20.832214
0.2682188,4.7191553,-2.9625368,2.729292,-1.0455116,-9.554808,-5.016124,20.80367
0.2672323,4.7155824,-2.9625368,2.729292,-1.0455116,-9.564165,-5.0133886,20.837555
0.2665373,4.712661,-2.2765064,2.6728327,-0.73125863,-9.65696,-4.5662155,20.52052
0.2658345,4.709742,-2.2765064,2.6728327,-0.73125863,-9.663626,-4.5644283,20.548231
0.26544544,4.707518,-1.5894109,2.6067865,-0.40954876,-9.820552,-4.1086063,20.39218
0.26505044,4.705296,-1.5894109,2.6067865,-0.40954876,-9.824305,-4.1077175,20.41329
0.264979,4.7037783,-0.9076417,2.5290222,-0.083577834,-10.164951,-3.8442802,20.30799
0.26490378,4.702262,-0.9076417,2.5290222,-0.083577834,-10.16567,-3.8442183,20.322393
0.26515773,4.7014403,-0.23439457,2.4406052,0.24665414,-10.373945,-3.730032,20.162594
0.26540953,4.700618,-0.23439457,2.4406052,0.24665414,-10.3715515,-3.730772,20.170393
0.2659914,4.7004867,0.4313957,2.339405,0.5768861,-10.1744995,-3.6844082,19.984873
0.26657164,4.7003546,0.4313957,2.339405,0.5768861,-10.168982,-3.6859255,19.98611
0.2674888,4.7009068,1.0865333,2.2275524,0.90924865,-9.700592,-3.8558378,19.789307
0.26840344,4.701455,1.0865333,2.2275524,0.90924865,-9.691913,-3.858158,19.784079
0.269655,4.7026753,1.7288878,2.1114385,1.2437416,-9.019241,-3.8469467,19.389395
0.27090916,4.7038937,1.7288878,2.1114385,1.2437416,-9.007349,-3.8501368,19.377813
0.27250156,4.7057657,2.354198,1.9974551,1.5761042,-9.313078,-4.2133408,18.75191
0.27409765,4.7076354,2.354198,1.9974551,1.5761042,-9.297955,-4.2174788,18.73417
0.27602452,4.710148,2.962464,1.8664277,1.9042057,-8.499199,-4.3662014,18.241093
0.27795616,4.7126584,2.962464,1.8664277,1.9042057,-8.480913,-4.371372,18.217329
0.28020856,4.715798,3.5526206,1.7236822,2.2205892,-8.105267,-4.6217394,17.550783
0.28246617,4.718936,3.5526206,1.7236822,2.2205892,-8.083931,-4.6280565,17.521152
0.28503197,4.722687,4.1236024,1.5766758,2.5231242,-7.9878645,-4.697672,16.71006
0.28760344,4.726436,4.1236024,1.5766758,2.5231242,-7.963587,-4.705247,16.674757
0.2996351,4.7450094,5.195258,1.2485743,3.0717354,-7.7449226,-4.5807796,14.719384
0.2996351,4.7450094,5.195258,1.2485743,3.0717354,-7.7449226,-4.5807796,14.719384
0.2996351,4.7450094,5.195258,1.2485743,3.0717354,-7.7449226,-4.5807796,14.719384
0.2996351,4.7450094,5.195258,1.2485743,3.0717354,-7.7449226,-4.5807796,14.719384
0.3044085,4.7527266,5.682084,1.0610877,3.315681,-7.3361597,-4.439367,13.565266
0.30634427,4.7558527,5.682084,1.0610877,3.315681,-7.3179913,-4.4463167,13.536189
0.30989635,4.761751,6.1262994,0.86507905,3.5361907,-6.863309,-4.306243,12.43756
0.30989635,4.761751,6.1262994,0.86507905,3.5361907,-6.863309,-4.306243,12.43756
0.31841528,4.775934,6.5215125,0.6690704,3.730069,-6.5489516,-4.2773466,11.190808
0.32126617,4.7807856,6.5215125,0.6690704,3.730069,-6.522321,-4.289132,11.146172
0.3252229,4.7876596,6.866658,0.47838807,3.9015765,-6.336964,-4.148057,9.852468
0.32920864,4.794591,6.866658,0.47838807,3.9015765,-6.2998238,-4.1657023,9.789078
0.3345182,4.8039865,7.1585407,0.2951626,4.0539093,-6.073258,-4.0082884,8.69791
0.33747843,4.8092337,7.1585407,0.2951626,4.0539093,-6.045758,-4.0224323,8.650283
0.34167546,4.81678,7.396095,0.12045921,4.1870675,-5.633323,-3.7702131,7.6530566
0.34589946,4.8243923,7.396095,0.12045921,4.1870675,-5.5941887,-3.7917552,7.584458
0.34589946,4.8243923,7.396095,0.12045921,4.1870675,-5.5941887,-3.7917552,7.584458
0.35446903,4.8400555,7.5846467,-0.042526253,4.2999854,-5.117544,-3.5121732,6.582277
0.3598131,4.849948,7.730588,-0.18846749,4.394794,-4.608592,-3.1162841,5.6659126
0.3630325,4.8559284,7.730588,-0.18846749,4.394794,-4.5789623,-3.135088,5.612979
0.3673407,4.8639956,7.8371143,-0.31736448,4.471493,-4.376559,-2.8162007,4.7565656
0.37175184,4.8722897,7.8371143,-0.31736448,4.471493,-4.336082,-2.8434923,4.683816
0.37620115,4.8807535,7.9106174,-0.43241304,4.532213,-3.4717216,-2.4888687,4.2460256
0.38063592,4.88923,7.9106174,-0.43241304,4.532213,-3.431171,-2.5180616,4.172438
0.38509482,4.8978076,7.9585543,-0.53361315,4.5769544,-3.2994907,-2.0407178,3.2939277
0.38956025,4.9064426,7.9585543,-0.53361315,4.5769544,-3.2588072,-2.071854,3.219797
0.3940013,4.9151564,7.9862514,-0.62629116,4.6067815,-2.251159,-1.6537247,2.767108
0.39842874,4.923895,7.9862514,-0.62629116,4.6067815,-2.2109704,-1.6864905,2.6929393
0.40282696,4.9327145,7.9958386,-0.70085967,4.628087,-1.4528583,-1.7967117,2.422173
0.4071955,4.941533,7.9958386,-0.70085967,4.628087,-1.4133521,-1.830998,2.348198
0.41155016,4.950404,7.989447,-0.7519924,4.6387396,-1.2495421,-1.8230286,1.9007485
0.4158904,4.9593105,7.989447,-0.7519924,4.6387396,-1.2104356,-1.8589637,1.8269713
0.42012525,4.9682255,7.973468,-0.794603,4.64087,-0.8323792,-2.6662211,1.1358267
0.42432886,4.9771676,7.973468,-0.794603,4.64087,-0.7946476,-2.7032595,1.0626309
0.42843115,4.985996,7.9351187,-0.851062,4.6302176,-0.087515,-3.3197823,0.47846925
0.4325191,4.994841,7.9351187,-0.851062,4.6302176,-0.05096507,-3.3576338,0.4070152
0.4365578,5.003667,7.888247,-0.91497785,4.601455,0.56448317,-3.8652332,-0.1665895
0.4405839,5.012526,7.888247,-0.91497785,4.601455,0.6003504,-3.9043257,-0.23718297
0.44452316,5.021352,7.843506,-0.9831548,4.551388,1.0615458,-4.1160765,-0.934356
0.44845548,5.0302305,7.843506,-0.9831548,4.551388,1.0964441,-4.1562667,-1.0041686
0.45226905,5.0391045,7.800895,-1.0587885,4.4736233,1.9298944,-3.5837417,-1.772666
0.45606214,5.048005,7.800895,-1.0587885,4.4736233,1.9634368,-3.6248164,-1.8417695
0.45970395,5.0569158,7.755089,-1.145075,4.3617706,2.9436831,-2.6652071,-2.65762
0.46332029,5.065844,7.755089,-1.145075,4.3617706,2.9755425,-2.7069972,-2.7261226
0.46675056,5.0747433,7.6890426,-1.2302961,4.214764,3.8484755,-1.4078376,-3.6751912
0.4701582,5.0836678,7.6890426,-1.2302961,4.214764,3.8783903,-1.4500742,-3.742909
0.4733424,5.0925164,7.586777,-1.3112562,4.0304737,4.9645395,0.05966568,-4.77709
0.47650012,5.101381,7.586777,-1.3112562,4.0304737,4.9921703,0.017393112,-4.843666
0.47942472,5.1101203,7.4387054,-1.3762374,3.8174205,5.803022,1.8625298,-5.962568
0.4823228,5.118874,7.4387054,-1.3762374,3.8174205,5.8283076,1.8205047,-6.0276823
0.4849598,5.127418,7.239501,-1.4231089,3.5756056,6.378006,2.9959793,-6.7279587
0.48757398,5.1359825,7.239501,-1.4231089,3.5756056,6.4007425,2.9546628,-6.791119
0.48989767,5.1442757,6.9870334,-1.4593279,3.3082242,7.5845118,4.0450664,-7.33107
0.492197,5.1525793,6.9870334,-1.4593279,3.3082242,7.6044626,4.0049644,-7.3918734
0.4942069,5.160545,6.687694,-1.4742417,3.0206027,8.301845,4.8096075,-7.8715644
0.49620047,5.168541,6.687694,-1.4742417,3.0206027,8.319099,4.770971,-7.929769
0.49790612,5.1761284,6.34894,-1.4614586,2.7159371,8.941977,5.462505,-8.526113
0.49959275,5.183728,6.34894,-1.4614586,2.7159371,8.956556,5.4258227,-8.581158
0.5009883,5.190881,5.9729013,-1.4316311,2.3952925,9.907129,6.2057533,-9.001775
0.50236714,5.1980433,5.9729013,-1.4316311,2.3952925,9.9190235,6.171323,-9.053499
0.503455,5.2047143,5.56384,-1.3826289,2.0533426,10.953122,7.2219315,-9.599845
0.5045262,5.2113795,5.56384,-1.3826289,2.0533426,10.962355,7.1901402,-9.647943
0.5053143,5.2174926,5.121755,-1.3027341,1.6890222,11.744865,8.655502,-10.4488535
0.5060905,5.22361,5.121755,-1.3027341,1.6890222,11.751544,8.626642,-10.493063
0.5065853,5.2290993,4.63919,-1.1930119,1.301266,12.416604,10.243789,-11.696613
0.507071,5.234591,4.63919,-1.1930119,1.301266,12.420781,10.218321,-11.736477
0.50726986,5.2393827,4.1065583,-1.0630496,0.8879433,12.93964,12.064332,-13.083697
0.50746244,5.2441754,4.1065583,-1.0630496,0.8879433,12.941294,12.042718,-13.118813
0.5073542,5.2482004,3.518532,-0.9288263,0.45011964,13.155846,13.916974,-14.384278
0.50724196,5.252225,3.518532,-0.9288263,0.45011964,13.154877,13.899699,-14.414286
0.50680745,5.2554197,2.8719165,-0.8020598,-0.006878796,13.342671,15.390871,-14.726215
0.5063697,5.2586207,2.8719165,-0.8020598,-0.006878796,13.338909,15.378392,-14.750849
0.50558513,5.2609277,2.1720378,-0.7040555,-0.47666043,13.499746,15.883609,-16.167969
0.50479966,5.2632337,2.1720378,-0.7040555,-0.47666043,13.492988,15.876429,-16.186852
0.503657,5.264621,1.4284832,-0.613508,-0.9538989,13.607637,16.660088,-16.252552
0.5025072,5.266016,1.4284832,-0.613508,-0.9538989,13.59773,16.658419,-16.265648
0.500964,5.2664757,0.67321074,-0.48674154,-1.433268,13.287532,17.131804,-15.779655
0.49952576,5.266904,0.67321074,-0.48674154,-1.433268,13.275116,17.135635,-15.786371
0.49952576,5.266904,0.67321074,-0.48674154,-1.433268,13.275116,17.135635,-15.786371
0.4935561,5.264378,-0.84905213,-0.20764224,-2.3696353,12.14129,16.543644,-13.857547
0.4935561,5.264378,-0.84905213,-0.20764224,-2.3696353,12.14129,16.543644,-13.857547
0.4913631,5.2628813,-0.84905213,-0.20764224,-2.3696353,12.1222725,16.559128,-13.851839
0.48870322,5.260268,-1.6000636,-0.059570484,-2.8085244,10.863773,16.13137,-12.603504
0.486827,5.2584324,-1.6000636,-0.059570484,-2.8085244,10.84746,16.147057,-12.59438
0.48421556,5.255254,-2.3297698,0.103414975,-3.2175858,9.397793,15.458175,-11.068579
0.4815228,5.251993,-2.3297698,0.103414975,-3.2175858,9.374325,15.4833555,-11.050565
0.47859177,5.2478666,-3.0371053,0.26959622,-3.5882978,8.022358,14.526831,-9.498941
0.4756459,5.243745,-3.0371053,0.26959622,-3.5882978,7.9966054,14.556611,-9.474692
0.47250396,5.2388306,-3.7071567,0.43684274,-3.91853,6.6427126,13.350311,-7.749568
0.46935964,5.233947,-3.7071567,0.43684274,-3.91853,6.615141,13.383894,-7.719515
0.46602485,5.228307,-4.331402,0.5998282,-4.208282,5.4079027,11.989567,-5.993523
0.4626785,5.222692,-4.331402,0.5998282,-4.208282,5.37846,12.026661,-5.9577274
0.45919526,5.216441,-4.9077096,0.752161,-4.454358,4.2129126,10.4195385,-4.26976
0.45568728,5.2101994,-4.9077096,0.752161,-4.454358,4.1819425,10.4593725,-4.2287507
0.45206642,5.203401,-5.4296894,0.8981023,-4.6567583,3.0342216,8.873594,-2.5073013
0.44842157,5.196621,-5.4296894,0.8981023,-4.6567583,3.0019317,8.915527,-2.461547
0.444665,5.189326,-5.8930793,1.0280645,-4.817613,2.0971017,7.5230923,-0.93189764
0.44088587,5.1820574,-5.8930793,1.0280645,-4.817613,2.0635004,7.5667305,-0.8816414
0.4370218,5.1743474,-6.2936187,1.1377867,-4.9411836,1.0091534,6.314356,0.47490358
0.43314475,5.1666894,-6.2936187,1.1377867,-4.9411836,0.97455835,6.359001,0.52908254
0.42916983,5.158613,-6.632373,1.2272689,-5.0296006,0.21597481,5.2750745,1.7888582
0.4251846,5.150599,-6.632373,1.2272689,-5.0296006,0.1802845,5.3204727,1.8467734
0.42103148,5.1420603,-6.906146,1.3007722,-5.0892553,-0.67100716,4.357555,3.0632317
0.41708225,5.1340246,-6.906146,1.3007722,-5.0892553,-0.7065058,4.401781,3.1224904
0.41299596,5.1255665,-7.114938,1.3582965,-5.1212134,-1.6147895,3.523315,4.2389874
0.40887406,5.1171227,-7.114938,1.3582965,-5.1212134,-1.6519732,3.568471,4.302435
0.40476,5.1085854,-7.2630095,1.400907,-5.127605,-2.713869,2.8854609,5.3536463
0.4006102,5.1000614,-7.2630095,1.400907,-5.127605,-2.7514362,2.929726,5.4188485
0.39643618,5.0914097,-7.3546224,1.4264734,-5.1052346,-3.6368408,2.2986894,6.337992
0.39225534,5.082831,-7.3546224,1.4264734,-5.1052346,-3.674819,2.3419235,6.404731
0.38809255,5.07424,-7.3929715,1.432865,-5.055167,-4.368714,1.7715459,7.290969
0.383903,5.0656786,-7.3929715,1.432865,-5.055167,-4.4069076,1.8133988,7.358645
0.3797597,5.057167,-7.38658,1.4254081,-4.975272,-5.0815983,1.1934566,8.20221
0.3756035,5.048708,-7.38658,1.4254081,-4.975272,-5.1196146,1.2335124,8.270098
0.3714937,5.040298,-7.3354473,1.4083639,-4.8676805,-5.7175064,0.6069951,8.984558
0.36737207,5.0319395,-7.3354473,1.4083639,-4.8676805,-5.75533,0.6452799,9.052614
0.36334485,5.023726,-7.241704,1.3827976,-4.7345223,-6.295122,0.0979743,9.852609
0.35929483,5.0155373,-7.241704,1.3827976,-4.7345223,-6.3324018,0.13419199,9.920189
0.35536245,5.007537,-7.107481,1.3497744,-4.5768633,-6.703839,-0.3243432,10.642688
0.35140935,4.9995594,-7.107481,1.3497744,-4.5768633,-6.7403326,-0.29030418,10.709372
0.34759566,4.991808,-6.935973,1.3103596,-4.3978987,-7.0628996,-0.63622093,11.334827
0.34376687,4.9840856,-6.935973,1.3103596,-4.3978987,-7.098344,-0.6044855,11.400153
0.34009263,4.9766083,-6.7282467,1.2709448,-4.198694,-7.357458,-0.9431505,11.990511
0.3364159,4.9691796,-6.7282467,1.2709448,-4.198694,-7.391591,-0.9137888,12.0540495
0.33290058,4.9619975,-6.488562,1.2315301,-3.9803152,-7.48651,-1.1590042,12.642548
0.32938018,4.954854,-6.488562,1.2315301,-3.9803152,-7.519266,-1.1318913,12.704273
0.32605675,4.9480276,-6.217985,1.1953111,-3.7523487,-7.6172676,-1.2215309,13.113125
0.3227297,4.9412365,-6.217985,1.1953111,-3.7523487,-7.648301,-1.1967955,13.172365
0.31959757,4.9347463,-5.919711,1.1654836,-3.5105336,-7.6919117,-1.2982588,13.602747
0.31646258,4.928288,-5.919711,1.1654836,-3.5105336,-7.7212105,-1.2757196,13.659568
0.3135551,4.9221888,-5.598001,1.1409825,-3.2601964,-7.925582,-1.2933121,14.058232
0.31064558,4.916119,-5.598001,1.1409825,-3.2601964,-7.9528313,-1.273037,14.112061
0.30795494,4.910389,-5.256051,1.1207426,-3.004533,-8.021149,-1.2352705,14.3594055
0.30526257,4.904686,-5.256051,1.1207426,-3.004533,-8.0464,-1.2170515,14.410334
0.30281153,4.899374,-4.8949265,1.1036983,-2.7456737,-8.031107,-1.133522,14.587244
0.30035955,4.894086,-4.8949265,1.1036983,-2.7456737,-8.054144,-1.1173706,14.634777
0.29813874,4.889173,-4.515692,1.0866541,-2.484684,-7.984048,-1.0405464,14.7556925
0.2959192,4.884287,-4.515692,1.0866541,-2.484684,-8.004929,-1.0262747,14.799861
0.2939445,4.879809,-4.1215444,1.0738709,-2.2226288,-7.970854,-0.9273987,14.878772
0.29196736,4.8753457,-4.1215444,1.0738709,-2.2226288,-7.989479,-0.91494465,14.919325
0.29023385,4.8712983,-3.7178094,1.0632182,-1.9637696,-7.933997,-0.9183636,15.00408
0.2885017,4.8672714,-3.7178094,1.0632182,-1.9637696,-7.950327,-0.90762424,15.040829
0.2870041,4.863652,-3.3066173,1.0515003,-1.7091714,-7.8686867,-0.85997486,15.107456
0.28550777,4.860051,-3.3066173,1.0515003,-1.7091714,-7.8828163,-0.8508034,15.140455
0.28424716,4.8568745,-2.8932946,1.0376519,-1.4609648,-7.6840296,-0.7951021,15.083438
0.2829876,4.853713,-2.8932946,1.0376519,-1.4609648,-7.6959295,-0.7874174,15.112503
0.28195405,4.850962,-2.4842331,1.0227382,-1.2212802,-7.633869,-0.685215,14.989409
0.28091925,4.848219,-2.4842331,1.0227382,-1.2212802,-7.643651,-0.6788683,15.014713
0.28010443,4.845891,-2.0836937,1.0056939,-0.9943789,-7.608259,-0.520483,14.878205
0.27928856,4.8435698,-2.0836937,1.0056939,-0.9943789,-7.6159725,-0.51538944,14.899673
0.27868104,4.841643,-1.6948721,0.9811929,-0.7749345,-7.4589167,-0.27197075,14.711632
0.27868104,4.841643,-1.6948721,0.9811929,-0.7749345,-7.4589167,-0.27197075,14.711632
0.27868104,4.841643,-1.6948721,0.9811929,-0.7749345,-7.4589167,-0.27197075,14.711632
0.27868104,4.841643,-1.6948721,0.9811929,-0.7749345,-7.4589167,-0.27197075,14.711632
0.27769187,4.836523,-0.965166,0.90449387,-0.3786561,-7.61193,0.16296864,14.050666
0.27755243,4.835811,-0.965166,0.90449387,-0.3786561,-7.61325,0.16417313,14.057306
0.27748346,4.8349314,-0.6296077,0.84483904,-0.2071485,-7.6522064,0.4239521,13.706416
0.27742425,4.8341846,-0.6296077,0.84483904,-0.2071485,-7.652766,0.4249735,13.7134075
0.27750582,4.8337336,-0.31535468,0.7692053,-0.051619902,-7.5658054,0.72694206,13.382485
0.27758622,4.8332872,-0.31535468,0.7692053,-0.051619902,-7.5650425,0.7272377,13.3867035
0.2777982,4.833153,-0.02453747,0.6775925,0.088995,-7.3906555,0.9949722,12.751178
0.27800947,4.833019,-0.02453747,0.6775925,0.088995,-7.3886566,0.9945593,12.752505
0.27834553,4.8331895,0.24071337,0.5710661,0.21576148,-7.237034,1.2041531,12.2051325
0.2786657,4.833352,0.24071337,0.5710661,0.21576148,-7.234005,1.2031078,12.203711
0.27907366,4.8337827,0.48252842,0.4506912,0.326549,-6.8710165,1.579802,11.677866
0.27907366,4.8337827,0.48252842,0.4506912,0.326549,-6.8710165,1.579802,11.677866
0.27907366,4.8337827,0.48252842,0.4506912,0.326549,-6.8710165,1.579802,11.677866
0.2805011,4.83537,0.70090765,0.31966367,0.42242277,-6.555847,1.9332533,11.04094
0.28087485,4.835987,0.8937205,0.17904875,0.50338286,-6.710331,2.0751767,10.403211
0.28144324,4.8369246,0.8937205,0.17904875,0.50338286,-6.704962,2.0725398,10.3946085
0.2820587,4.8380795,1.0630976,0.02032435,0.5694293,-6.3112793,2.2945604,9.617842
0.28267413,4.839235,1.0630976,0.02032435,0.5694293,-6.3054657,2.2915134,9.6072235
0.28332177,4.840593,1.2132999,-0.1490527,0.6237578,-5.8013496,2.4221907,9.111092
0.28396916,4.8419514,1.2132999,-0.1490527,0.6237578,-5.7952366,2.4187727,9.098594
0.2846402,4.843491,1.3432621,-0.31523395,0.6695641,-5.3052673,2.6401024,8.452349
0.28531194,4.8450336,1.3432621,-0.31523395,0.6695641,-5.2989244,2.636345,8.438149
0.28603056,4.8467994,1.4551148,-0.47182783,0.7057831,-5.454946,2.9050894,7.564771
0.28670204,4.848452,1.4551148,-0.47182783,0.7057831,-5.4486074,2.9011378,7.5495653
0.2873969,4.8502965,1.5509887,-0.629487,0.73134947,-5.0541897,2.987822,6.9100943
0.2880822,4.8521194,1.5509887,-0.629487,0.73134947,-5.047722,2.9835472,6.893323
0.2887603,4.8540792,1.6308835,-0.78927666,0.74732846,-4.337432,3.0269597,6.386869
0.28944418,4.8560615,1.6308835,-0.78927666,0.74732846,-4.330981,3.0224006,6.3686347
0.29011178,4.858141,1.6958647,-0.9362831,0.75585055,-4.085266,3.12785,5.784468
0.29078063,4.860233,1.6958647,-0.9362831,0.75585055,-4.0789585,3.1230993,5.765235
0.29142252,4.8624134,1.7501931,-1.0705065,0.7515895,-3.7664533,3.2140272,5.2854943
0.29206175,4.8645954,1.7501931,-1.0705065,0.7515895,-3.760426,3.209142,5.2654357
0.29266477,4.866856,1.7928036,-1.1951424,0.7388063,-3.2280226,3.280812,4.8232646
0.29326612,4.869123,1.7928036,-1.1951424,0.7388063,-3.2223568,3.2758138,4.8024316
0.2938304,4.8714557,1.8258269,-1.3069952,0.7238926,-2.738202,3.3521748,4.364394
0.29439157,4.87379,1.8258269,-1.3069952,0.7238926,-2.7329168,3.3470893,4.342949
0.29490668,4.8761754,1.8492627,-1.402869,0.69939154,-2.2492256,3.4617085,3.9954116
0.29541877,4.8785644,1.8492627,-1.402869,0.69939154,-2.2444048,3.4565692,3.9734674
0.29588628,4.8809896,1.8620459,-1.4785028,0.67169464,-1.8521442,3.5998855,3.5872607
0.29635057,4.8834186,1.8620459,-1.4785028,0.67169464,-1.8477731,3.5947077,3.5649545
0.2967676,4.8858643,1.8641764,-1.5328312,0.6397367,-1.4511995,3.7380235,3.231241
0.29718044,4.888308,1.8641764,-1.5328312,0.6397367,-1.4473157,3.7328544,3.2087994
0.29754165,4.8907557,1.8535237,-1.5690502,0.6013872,-1.0416908,3.9240968,2.970841
0.2978994,4.893206,1.8535237,-1.5690502,0.6013872,-1.0383258,3.9189625,2.948342
0.29820564,4.8956313,1.8279574,-1.588225,0.5587766,-0.72898674,4.1869025,2.6291888
0.29850855,4.898062,1.8279574,-1.588225,0.5587766,-0.72613716,4.181847,2.6068726
0.29876003,4.9004517,1.7885426,-1.592486,0.51297027,-0.40773964,4.3349743,2.2353754
0.29900742,4.902839,1.7885426,-1.592486,0.51297027,-0.40541267,4.3300457,2.2134562
0.2992065,4.905187,1.7331489,-1.5828986,0.46183756,-0.2838292,4.5407534,1.9237447
0.29939902,4.9075003,1.7331489,-1.5828986,0.46183756,-0.28201914,4.5360117,1.9025083
0.2995355,4.9097633,1.6660372,-1.5615934,0.40537855,-0.022163868,4.7421656,1.7141235
0.29966715,4.9120064,1.6660372,-1.5615934,0.40537855,-0.020925522,4.737631,1.6935227
0.29974553,4.91416,1.5861424,-1.5338964,0.34465846,0.070791245,4.9440627,1.3864274
0.29982105,4.9163218,1.5861424,-1.5338964,0.34465846,0.0715003,4.9397516,1.3665602
0.29983437,4.9183764,1.4945296,-1.5008733,0.27754682,0.25358486,5.232665,1.141757
0.29984474,4.920433,1.4945296,-1.5008733,0.27754682,0.25368357,5.2286615,1.1228435
0.29978055,4.9223714,1.3901337,-1.4657196,0.20510884,0.54996014,5.4309645,1.071459
0.29971358,4.9243097,1.3901337,-1.4657196,0.20510884,0.5493307,5.4273376,1.0535975
0.29958692,4.92611,1.2708241,-1.4263048,0.12840979,0.39012337,5.534257,0.8789642
0.2994579,4.927909,1.2708241,-1.4263048,0.12840979,0.3889103,5.53102,0.86235476
0.2992431,4.929564,1.1408619,-1.38689,0.047449693,0.7364445,5.633634,0.8805442
0.2990263,4.931218,1.1408619,-1.38689,0.047449693,0.734406,5.6308837,0.8652196
0.2987277,4.9327183,1.0034428,-1.3464099,-0.03351041,0.9422879,5.6861153,0.96618295
0.2984273,4.934218,1.0034428,-1.3464099,-0.03351041,0.9394622,5.6838703,0.9522331
0.29805115,4.935551,0.85643625,-1.3006036,-0.11553577,1.0173264,5.619915,0.9780688
0.29767337,4.936884,0.85643625,-1.3006036,-0.11553577,1.0137725,5.6181974,0.9656048
0.2972269,4.938045,0.70729923,-1.2494708,-0.19756113,0.9233818,5.6361675,1.1031096
0.29677927,4.9392056,0.70729923,-1.2494708,-0.19756113,0.9191699,5.6349745,1.0921793
0.29625806,4.940192,0.5549664,-1.1972729,-0.27745596,1.0435519,5.6487074,1.2408133
0.29573596,4.941178,0.5549664,-1.1972729,-0.27745596,1.0386372,5.6480665,1.2314367
0.29514498,4.9419866,0.40050304,-1.1440097,-0.35841608,1.0187097,5.647987,1.3912325
0.29455328,4.942795,0.40050304,-1.1440097,-0.35841608,1.0131392,5.6479015,1.3834419
0.2938931,4.943427,0.24817023,-1.0875506,-0.43618038,1.0883241,5.543025,1.5974746
0.29323226,4.9440594,0.24817023,-1.0875506,-0.43618038,1.0821013,5.5434937,1.59125
0.2925096,4.944516,0.096902676,-1.0268306,-0.5118142,1.0513496,5.3481774,1.7541838
0.2917867,4.944972,0.096902676,-1.0268306,-0.5118142,1.0445366,5.3491807,1.7495277
0.2910024,4.945258,-0.04903855,-0.96184945,-0.5821216,1.161643,4.9676447,2.0145476
0.29023993,4.945535,-0.04903855,-0.96184945,-0.5821216,1.1544557,4.969133,2.011509
0.28939775,4.9456573,-0.18645766,-0.8926073,-0.65029854,1.2758007,4.545003,2.2348948
0.28853112,4.945782,-0.18645766,-0.8926073,-0.65029854,1.2676272,4.5470943,2.2331862
0.28763518,4.9457536,-0.31002834,-0.819104,-0.71634495,1.3453655,4.2383485,2.3525815
0.28674123,4.9457245,-0.31002834,-0.819104,-0.71634495,1.3369284,4.240836,2.3522732
0.285796,4.9455576,-0.42081586,-0.74347025,-0.7845219,1.3758907,3.9612393,2.4633303
0.28485012,4.9453897,-0.42081586,-0.74347025,-0.7845219,1.3669596,3.964154,2.4642658
0.28384858,4.945097,-0.5198854,-0.66890174,-0.8569598,1.4053841,3.8094652,2.394495
0.28284824,4.9448037,-0.5198854,-0.66890174,-0.8569598,1.3959346,3.8127828,2.3965578
0.28178498,4.9443936,-0.6104329,-0.59752905,-0.9336589,1.5008068,3.7398946,2.2416391
0.28072193,4.943983,-0.6104329,-0.59752905,-0.9336589,1.490758,3.743613,2.244748
0.27959123,4.943461,-0.69671935,-0.52722156,-1.0178148,1.590198,3.9105456,2.07168
0.278462,4.942939,-0.69671935,-0.52722156,-1.0178148,1.5795169,3.9146543,2.0757868
0.2772637,4.942301,-0.78620154,-0.45371833,-1.1062317,1.5633893,4.1011405,1.865448
0.27606586,4.941663,-0.78620154,-0.45371833,-1.1062317,1.5520506,4.105651,1.8705978
0.27479637,4.9409037,-0.8799448,-0.37595403,-1.1989098,1.5687594,4.316491,1.7140219
0.27352718,4.9401445,-0.8799448,-0.37595403,-1.1989098,1.556737,4.32141,1.7202606
0.27218977,4.939258,-0.98114496,-0.29499394,-1.292653,1.4866047,4.494354,1.6175146
0.27085015,4.9383698,-0.98114496,-0.29499394,-1.292653,1.4739051,4.4996886,1.6249263
0.26944026,4.9373455,-1.0908672,-0.21403383,-1.3885268,1.4030738,4.6682754,1.5425878
0.2680305,4.9363217,-1.0908672,-0.21403383,-1.3885268,1.3896999,4.6740284,1.5512362
0.26655024,4.935152,-1.2091116,-0.13094321,-1.4833354,1.3134031,4.804736,1.5995142
0.26507008,4.933983,-1.2091116,-0.13094321,-1.4833354,1.2993488,4.810913,1.6094959
0.26352164,4.932664,-1.3326823,-0.047852576,-1.5770786,1.1553545,4.8941574,1.6160603
0.26197314,4.931346,-1.3326823,-0.047852576,-1.5770786,1.1406403,4.9007483,1.6274202
0.26036397,4.9298735,-1.460514,0.036303315,-1.6654955,0.8763447,4.917345,1.8125815
0.25875446,4.9284024,-1.460514,0.036303315,-1.6654955,0.86103773,4.9243236,1.8253717
0.2570871,4.9267797,-1.5872804,0.117263414,-1.7475209,0.62490654,4.941287,2.0358882
0.25541922,4.925158,-1.5872804,0.117263414,-1.7475209,0.6090317,4.9486237,2.0500913
0.25366515,4.923355,-1.7129816,0.19289719,-1.82422,0.33854198,4.9133883,2.14258
0.25197577,4.9216204,-1.7129816,0.19289719,-1.82422,0.32244635,4.9209023,2.1578739
0.25020865,4.919709,-1.8344218,0.26426992,-1.8923969,-0.082256794,4.9336834,2.4046445
0.24844033,4.917801,-1.8344218,0.26426992,-1.8923969,-0.099117756,4.9416156,2.4215817
0.24662684,4.915759,-1.948405,0.32925105,-1.9552475,-0.42287636,4.916332,2.6887624
0.24481207,4.913719,-1.948405,0.32925105,-1.9552475,-0.44019842,4.9244986,2.7069588
0.24295488,4.911559,-2.0549316,0.3846448,-2.0085106,-0.63510275,4.885043,3.051911
0.24109614,4.909401,-2.0549316,0.3846448,-2.0085106,-0.65286016,4.893398,3.071262
0.23920524,4.9071317,-2.1540012,0.43151644,-2.0511212,-0.9103532,4.8397107,3.316727
0.23731256,4.9048653,-2.1540012,0.43151644,-2.0511212,-0.92845106,4.8481936,3.3371482
0.23539712,4.902502,-2.2413528,0.474127,-2.0820138,-1.1814065,4.8472486,3.6553874
0.23350845,4.9001765,-2.2413528,0.474127,-2.0820138,-1.1994815,4.855669,3.6764362
0.23157662,4.897731,-2.3180518,0.5124765,-2.1011887,-1.3759971,4.8164325,4.0625486
0.2296117,4.89525,-2.3180518,0.5124765,-2.1011887,-1.3948212,4.8251295,4.08511
0.22767219,4.8927364,-2.383033,0.5486955,-2.1118414,-1.6240978,4.714024,4.4049034
0.22571488,4.8902054,-2.383033,0.5486955,-2.1118414,-1.6428671,4.7226067,4.428011
0.2237245,4.887564,-2.4362962,0.58171874,-2.1107762,-1.906168,4.702622,4.7251267
0.22183253,4.8850594,-2.4362962,0.58171874,-2.1107762,-1.9243231,4.7108316,4.748089
0.21992232,4.8824644,-2.4767764,0.6094156,-2.097993,-2.2012367,4.7718096,4.968258
0.21800385,4.8798647,-2.4767764,0.6094156,-2.097993,-2.2196631,4.780046,4.9921846
0.2160992,4.8772244,-2.5012774,0.6328514,-2.078818,-2.6354036,4.931875,5.222442
0.21418823,4.8745813,-2.5012774,0.6328514,-2.078818,-2.6537733,4.939972,5.2468557
0.21231316,4.8719273,-2.5172563,0.6477651,-2.0489907,-3.0979762,5.1538177,5.4964857
0.21045806,4.869307,-2.5172563,0.6477651,-2.0489907,-3.1158242,5.161571,5.520774
0.20862164,4.8666444,-2.5215173,0.6541567,-2.0031843,-3.621914,5.360792,5.7609873
0.20679554,4.8640027,-2.5215173,0.6541567,-2.0031843,-3.6394968,5.3683295,5.785561
0.2050229,4.8613615,-2.516191,0.65309143,-1.9435296,-4.192875,5.4810095,6.073543
0.20325127,4.8587284,-2.516191,0.65309143,-1.9435296,-4.209944,5.4882383,6.0981197
0.20154636,4.856111,-2.5012774,0.64243877,-1.8689611,-4.604661,5.442549,6.4817247
0.19984767,4.853509,-2.5012774,0.64243877,-1.8689611,-4.6210403,5.4494085,6.5060863
0.19822331,4.8509226,-2.4757109,0.62645984,-1.7773483,-4.9288006,5.2692666,6.8894787
0.19660473,4.8483515,-2.4757109,0.62645984,-1.7773483,-4.944418,5.275757,6.913628
0.19508134,4.845819,-2.4362962,0.6062198,-1.6686914,-5.203333,5.0520854,7.4498215
0.19355881,4.843293,-2.4362962,0.6062198,-1.6686914,-5.21803,5.058166,7.473611
0.19215491,4.8408337,-2.3809025,0.5806534,-1.5419248,-5.384818,4.786136,8.009182
0.19075191,4.838381,-2.3809025,0.5806534,-1.5419248,-5.3983727,4.7917485,8.032353
0.18947212,4.8360047,-2.3052688,0.5529566,-1.405571,-5.568755,4.4953,8.528892
0.1881931,4.8336344,-2.3052688,0.5529566,-1.405571,-5.5811186,4.50044,8.551338
0.18705145,4.8313723,-2.2083297,0.52312917,-1.2606951,-5.6735563,4.1699524,8.955872
0.18591167,4.8291183,-2.2083297,0.52312917,-1.2606951,-5.684576,4.17458,8.97727
0.18490618,4.8269796,-2.0900853,0.49117124,-1.1126233,-5.785283,3.8340163,9.39983
0.18490618,4.8269796,-2.0900853,0.49117124,-1.1126233,-5.785283,3.8340163,9.39983
0.18228672,4.8209367,-1.9526662,0.45601752,-0.96135575,-5.968643,3.5100121,9.84048
0.18228672,4.8209367,-1.9526662,0.45601752,-0.96135575,-5.968643,3.5100121,9.84048
0.18156777,4.81911,-1.7960722,0.41873327,-0.80795765,-6.0522146,3.182785,10.16438
0.18085858,4.817311,-1.7960722,0.41873327,-0.80795765,-6.059079,3.185873,10.181562
0.18030237,4.815708,-1.6234994,0.37931848,-0.65242904,-6.0884037,2.8436985,10.369268
0.17970124,4.813979,-1.6234994,0.37931848,-0.65242904,-6.094225,2.8464642,10.385813
0.17929615,4.8125877,-1.4360129,0.34096894,-0.49690044,-6.1316614,2.580379,10.518852
0.17929615,4.8125877,-1.4360129,0.34096894,-0.49690044,-6.1316614,2.580379,10.518852
0.17839696,4.8094163,-1.2400042,0.30261943,-0.34030658,-6.121214,2.2880888,10.668964
0.17819631,4.808495,-1.2400042,0.30261943,-0.34030658,-6.1231623,2.2892966,10.677814
0.17808114,4.807483,-1.033343,0.26853096,-0.18371269,-6.0907555,2.070166,10.68755
0.17808114,4.807483,-1.033343,0.26853096,-0.18371269,-6.0907555,2.070166,10.68755
0.17792007,4.8055444,-0.82029,0.23870356,-0.026053555,-5.9582434,1.8040581,10.758891
0.17795847,4.804739,-0.82029,0.23870356,-0.026053555,-5.9578705,1.8047147,10.7666645
0.17815097,4.804167,-0.6029761,0.21313721,0.12947506,-5.8315067,1.6420846,10.714752
0.17837118,4.8035116,-0.6029761,0.21313721,0.12947506,-5.829377,1.6422801,10.721105
0.17837118,4.8035116,-0.6029761,0.21313721,0.12947506,-5.829377,1.6422801,10.721105
0.17911327,4.8027725,-0.38459685,0.19183193,0.28287312,-5.649807,1.4979839,10.670886
0.17936966,4.802714,-0.16408712,0.1747877,0.43201017,-5.5515575,1.3299947,10.56136
0.17985135,4.8026037,-0.16408712,0.1747877,0.43201017,-5.546894,1.329246,10.562502
0.18048091,4.802719,0.05748789,0.16093926,0.5790166,-5.392356,1.1748085,10.42741
0.18111117,4.8028345,0.05748789,0.16093926,0.5790166,-5.3862553,1.1735988,10.426397
0.18187624,4.803173,0.2758671,0.14922135,0.7164358,-5.235202,1.0809679,10.207779
0.1826421,4.8035116,0.2758671,0.14922135,0.7164358,-5.227786,1.0793128,10.2046385
0.18353334,4.8040714,0.4921158,0.13750345,0.84320223,-5.0850916,0.9431529,9.9025135
0.18442461,4.804631,0.4921158,0.13750345,0.84320223,-5.0764694,0.9410572,9.897266
0.18543853,4.8054113,0.7041034,0.12472027,0.96357715,-4.9517384,0.8571286,9.688811
0.18644647,4.8061867,0.7041034,0.12472027,0.96357715,-4.941989,0.8546052,9.681518
0.1875626,4.807172,0.90969944,0.11087183,1.0732994,-4.849798,0.7798495,9.408864
0.18868427,4.8081627,0.90969944,0.11087183,1.0732994,-4.838954,0.7768831,9.399527
0.18990037,4.8093534,1.1089039,0.09169707,1.1755648,-4.7027044,0.7783227,9.105775
0.19111769,4.8105454,1.1089039,0.09169707,1.1755648,-4.6909437,0.7749443,9.094531
0.19242637,4.811938,1.3006516,0.06826125,1.2682427,-4.5298615,0.7999053,8.750994
0.19373363,4.8133287,1.3006516,0.06826125,1.2682427,-4.517235,0.79610586,8.73787
0.19512147,4.814906,1.4796159,0.042694904,1.3513334,-4.3937054,0.9116435,8.392591
0.19651327,4.8164883,1.4796159,0.042694904,1.3513334,-4.380268,0.90741825,8.377671
0.1979723,4.8182425,1.6479278,0.014998026,1.4259019,-4.193809,0.98903704,8.002003
0.19937849,4.8199344,1.6479278,0.014998026,1.4259019,-4.1802435,0.98458385,7.9860697
0.20090073,4.821857,1.8034563,-0.014829379,1.490883,-3.8734727,1.180728,7.623196
0.20247892,4.8238516,1.8034563,-0.014829379,1.490883,-3.8582597,1.1755152,7.604426
0.20405437,4.825922,1.943006,-0.04572205,1.5494726,-3.7089992,1.3186078,7.2401867
0.20562299,4.827985,1.943006,-0.04572205,1.5494726,-3.6938882,1.3132181,7.2208004
0.20724209,4.8301897,2.067642,-0.076614715,1.5974095,-3.5873141,1.3027124,6.9271493
