Pitch,Roll,Gyro_X,Gyro_Y,Gyro_Z,Accel_X,Accel_Y,Accel_Z
0.2872246,4.803878,0.5286728,-0.29980525,-0.5622594,2.504335,-5.4539914,5.2528787
0.286579,4.8045497,0.5286728,-0.29980525,-0.5622594,2.504335,-5.4539914,5.2528787
0.28596616,4.80501,0.3433168,-0.21564937,-0.5409541,2.4851813,-5.21936,5.2002063
0.28534707,4.8054743,0.3433168,-0.21564937,-0.5409541,2.4851813,-5.21936,5.2002063
0.28476828,4.8057013,0.13559023,-0.12616715,-0.51219195,2.5905263,-4.865018,5.00867
0.28418896,4.805928,0.13559023,-0.12616715,-0.51219195,2.5905263,-4.865018,5.00867
0.28365555,4.805894,-0.09770269,-0.028162822,-0.47384244,2.681506,-4.582502,4.8602295
0.28312275,4.8058596,-0.09770269,-0.028162822,-0.47384244,2.681506,-4.582502,4.8602295
0.28264332,4.8055353,-0.3576272,0.07729836,-0.42910135,2.753332,-4.4244847,4.735731
0.28216282,4.805211,-0.3576272,0.07729836,-0.42910135,2.753332,-4.4244847,4.735731
0.28174794,4.804572,-0.6431181,0.19021639,-0.37690338,2.5378537,-4.357447,4.735731
0.28133088,4.8039303,-0.6431181,0.19021639,-0.37690338,2.5378537,-4.357447,4.735731
0.2809932,4.8029556,-0.95097953,0.31165653,-0.3140528,2.087744,-4.4819455,4.6686935
0.28065372,4.801977,-0.95097953,0.31165653,-0.3140528,2.087744,-4.4819455,4.6686935
0.2804047,4.8006477,-1.27482,0.43309668,-0.23841901,1.6519991,-4.7022123,4.7022123
0.28015462,4.7993155,-1.27482,0.43309668,-0.23841901,1.6519991,-4.7022123,4.7022123
0.28000462,4.7976274,-1.6071824,0.5492105,-0.15000206,1.2641385,-5.00867,4.6112323
0.2798533,4.7959347,-1.6071824,0.5492105,-0.15000206,1.2641385,-5.00867,4.6112323
0.27980873,4.793885,-1.9427407,0.65680224,-0.05199773,0.94331545,-5.377377,4.477157
0.2797628,4.7918296,-1.9427407,0.65680224,-0.05199773,0.94331545,-5.377377,4.477157
0.27983004,4.7894206,-2.2729728,0.752676,0.054528717,0.61291564,-5.889736,4.3622355
0.27989566,4.787011,-2.2729728,0.752676,0.054528717,0.61291564,-5.889736,4.3622355
0.28007725,4.7842646,-2.5946827,0.8368319,0.16851202,0.39743748,-6.4260373,4.1946416
0.28025657,4.7815228,-2.5946827,0.8368319,0.16851202,0.39743748,-6.4260373,4.1946416
0.28055137,4.778442,-2.898283,0.90713936,0.2856911,0.25857377,-7.067683,3.9025488
0.28084314,4.775367,-2.898283,0.90713936,0.2856911,0.25857377,-7.067683,3.9025488
0.2812544,4.772002,-3.1816432,0.96572894,0.4081965,0.08619126,-7.6470804,3.7588966
0.28166446,4.7686243,-3.1816432,0.96572894,0.4081965,0.08619126,-7.6470804,3.7588966
0.28219205,4.7649875,-3.441568,1.0136658,0.5317672,-0.17238252,-8.331821,3.5051112
0.2827181,4.7613387,-3.441568,1.0136658,0.5317672,-0.17238252,-8.331821,3.5051112
0.28337154,4.757446,-3.6769912,1.0498848,0.6606642,-0.545878,-8.954314,3.323152
0.28401965,4.7535634,-3.6769912,1.0498848,0.6606642,-0.545878,-8.954314,3.323152
0.28479704,4.7494445,-3.8857832,1.0775816,0.79062647,-0.80445176,-9.380483,3.083732
0.2855676,4.74534,-3.8857832,1.0775816,0.79062647,-0.80445176,-9.380483,3.083732
0.28645873,4.7410383,-4.070074,1.0978217,0.92271924,-0.90021986,-9.758766,2.657564
0.28731072,4.7369065,-4.070074,1.0978217,0.92271924,-0.90021986,-9.758766,2.657564
0.28831342,4.7324347,-4.2287984,1.1127354,1.0516162,-0.90979666,-9.959879,2.2840683
0.28935403,4.7277727,-4.2287984,1.1127354,1.0516162,-0.90979666,-9.959879,2.2840683
0.29045478,4.7231607,-4.3640866,1.1223228,1.1751869,-0.9528923,-10.189722,1.7717092
0.29154828,4.7185607,-4.3640866,1.1223228,1.1751869,-0.9528923,-10.189722,1.7717092
0.2927504,4.713801,-4.477005,1.1297797,1.2944965,-0.9576807,-10.357317,1.364695
0.29394978,4.709035,-4.477005,1.1297797,1.2944965,-0.9576807,-10.357317,1.364695
0.2952362,4.704168,-4.5750093,1.1329755,1.405284,-1.067814,-10.362105,0.8858546
0.2965202,4.6992946,-4.5750093,1.1329755,1.405284,-1.067814,-10.362105,0.8858546
0.2978847,4.694315,-4.654904,1.1340407,1.5043536,-1.115698,-10.338163,0.45968673
0.29924506,4.689334,-4.654904,1.1340407,1.5043536,-1.115698,-10.338163,0.45968673
0.30071342,4.684152,-4.717755,1.1361712,1.598097,-1.1587936,-10.213664,0.05267244
0.30211696,4.679182,-4.717755,1.1361712,1.598097,-1.1587936,-10.213664,0.05267244
0.30360684,4.6740704,-4.7678223,1.139367,1.683318,-1.2210429,-10.103531,-0.46926352
0.3051053,4.6689067,-4.7678223,1.139367,1.683318,-1.2210429,-10.103531,-0.46926352
0.306666,4.663707,-4.805106,1.1436281,1.7568213,-1.2210429,-9.969456,-0.9672575
0.3082313,4.6584635,-4.805106,1.1436281,1.7568213,-1.2210429,-9.969456,-0.9672575
0.30985945,4.6531925,-4.8296075,1.1489544,1.8218025,-1.1971009,-9.935937,-1.412579
0.31148678,4.6478925,-4.8296075,1.1489544,1.8218025,-1.1971009,-9.935937,-1.412579
0.31316587,4.642574,-4.8455863,1.155346,1.8740004,-1.2162545,-9.883265,-1.8148049
0.31484413,4.637225,-4.8455863,1.155346,1.8740004,-1.2162545,-9.883265,-1.8148049
0.31655863,4.631882,-4.851978,1.167064,1.9176762,-1.2593501,-9.888053,-2.15957
0.31827244,4.626508,-4.851978,1.167064,1.9176762,-1.2593501,-9.888053,-2.15957
0.32001963,4.621136,-4.8509126,1.1830429,1.9549605,-1.3934253,-9.988609,-2.5139117
0.321766,4.615733,-4.8509126,1.1830429,1.9549605,-1.3934253,-9.988609,-2.5139117
0.3235326,4.610352,-4.8413253,1.2043482,1.9879837,-1.4652514,-10.041282,-2.7964275
0.32529652,4.604945,-4.8413253,1.2043482,1.9879837,-1.4652514,-10.041282,-2.7964275
0.32708767,4.599538,-4.824281,1.2288493,2.0146153,-1.6376339,-10.007763,-3.145981
0.32887223,4.594115,-4.824281,1.2288493,2.0146153,-1.6376339,-10.007763,-3.145981
0.3306652,4.5887327,-4.79978,1.2544156,2.0348554,-2.030283,-10.371682,-3.4045548
0.33246204,4.5833025,-4.79978,1.2544156,2.0348554,-2.030283,-10.371682,-3.4045548
0.33427718,4.577899,-4.7624955,1.2767861,2.049769,-2.4420857,-10.457873,-3.7828386
0.33608022,4.5724945,-4.7624955,1.2767861,2.049769,-2.4420857,-10.457873,-3.7828386
0.33787534,4.567134,-4.7134933,1.2906346,2.0604217,-2.2409728,-10.496181,-3.9456444
0.33966005,4.5617676,-4.7134933,1.2906346,2.0604217,-2.2409728,-10.496181,-3.9456444
0.3414602,4.5564265,-4.6570344,1.3034178,2.070009,-2.585738,-10.649409,-4.189853
0.34323916,4.551111,-4.6570344,1.3034178,2.070009,-2.585738,-10.649409,-4.189853
0.34505197,4.5457973,-4.595249,1.3183315,2.081727,-3.1268275,-10.754754,-4.5202527
0.34684724,4.5404983,-4.595249,1.3183315,2.081727,-3.1268275,-10.754754,-4.5202527
0.34863827,4.5352564,-4.530268,1.3193967,2.0891838,-3.0789435,-10.802638,-4.6495395
0.35037622,4.530134,-4.530268,1.3193967,2.0891838,-3.0789435,-10.802638,-4.6495395
0.35215184,4.524948,-4.4599605,1.3108746,2.090249,-3.0885203,-10.907983,-4.8458643
0.35395932,4.5196304,-4.4599605,1.3108746,2.090249,-3.0885203,-10.907983,-4.8458643
0.35571074,4.5145173,-4.3864574,1.3034178,2.0891838,-3.0693667,-10.979809,-4.9943047
0.35744688,4.509413,-4.3864574,1.3034178,2.0891838,-3.0693667,-10.979809,-4.9943047
0.35917607,4.5043616,-4.309758,1.2970262,2.0838575,-3.0885203,-10.965444,-4.9703627
0.36090007,4.4992886,-4.309758,1.2970262,2.0838575,-3.0885203,-10.965444,-4.9703627
0.3626066,4.4943,-4.2245374,1.2970262,2.0753355,-3.1603463,-10.931925,-4.975151
0.3642976,4.4893203,-4.2245374,1.2970262,2.0753355,-3.1603463,-10.931925,-4.975151
0.36597005,4.4844174,-4.13399,1.3023524,2.0625522,-3.1890767,-10.888829,-5.1475334
0.3676339,4.4795036,-4.13399,1.3023524,2.0625522,-3.1890767,-10.888829,-5.1475334
0.36926904,4.474691,-4.0359855,1.3066136,2.0444427,-3.2369606,-10.850522,-5.2480903
0.37090528,4.469838,-4.0359855,1.3066136,2.0444427,-3.2369606,-10.850522,-5.2480903
0.37250045,4.4651213,-3.9315894,1.3098093,2.0210068,-3.3087866,-10.85531,-5.535394
0.3740825,4.460408,-3.9315894,1.3098093,2.0210068,-3.3087866,-10.85531,-5.535394
0.37563464,4.455778,-3.825063,1.3098093,1.9901142,-3.371036,-10.869676,-5.693412
0.3771753,4.451148,-3.825063,1.3098093,1.9901142,-3.371036,-10.869676,-5.693412
0.37867522,4.446624,-3.7174714,1.304483,1.95283,-3.371036,-10.769119,-5.889736
0.38016564,4.442094,-3.7174714,1.304483,1.95283,-3.371036,-10.769119,-5.889736
0.38161433,4.437662,-3.607749,1.2959609,1.9112847,-3.3518825,-10.749966,-6.0142345
0.38304943,4.4332385,-3.607749,1.2959609,1.9112847,-3.3518825,-10.749966,-6.0142345
0.38443494,4.4289255,-3.4969616,1.2863735,1.864413,-3.3518825,-10.730812,-6.0381765
0.385814,4.4245987,-3.4969616,1.2863735,1.864413,-3.3518825,-10.730812,-6.0381765
0.387141,4.4203978,-3.3829782,1.2767861,1.8154109,-3.4572272,-10.7356,-6.1004257
0.38845655,4.4162006,-3.3829782,1.2767861,1.8154109,-3.4572272,-10.7356,-6.1004257
0.38971928,4.412115,-3.264734,1.2671988,1.7600172,-3.6104562,-10.907983,-6.129156
0.39097235,4.4080296,-3.264734,1.2671988,1.7600172,-3.6104562,-10.907983,-6.129156
0.39216864,4.404086,-3.144359,1.2533504,1.7035581,-3.8163576,-10.989386,-6.220136
0.39336172,4.4001236,-3.144359,1.2533504,1.7035581,-3.8163576,-10.989386,-6.220136
0.39450744,4.3962817,-3.015462,1.2373713,1.6449685,-4.0701427,-11.09473,-6.277597
0.39563736,4.3924637,-3.015462,1.2373713,1.6449685,-4.0701427,-11.09473,-6.277597
0.39671728,4.38877,-2.8812387,1.2150007,1.586379,-4.1276035,-11.252748,-6.3206925
0.3977864,4.385085,-2.8812387,1.2150007,1.586379,-4.1276035,-11.252748,-6.3206925
0.39880362,4.3815584,-2.737428,1.1873039,1.5267242,-4.295198,-11.415554,-6.3302693
0.3998136,4.378029,-2.737428,1.1873039,1.5267242,-4.295198,-11.415554,-6.3302693
0.40077332,4.3746734,-2.5808342,1.1542808,1.4670694,-4.3382936,-11.511322,-6.555324
0.40172443,4.3713217,-2.5808342,1.1542808,1.4670694,-4.3382936,-11.511322,-6.555324
0.40262532,4.368167,-2.4093266,1.1138006,1.4074146,-4.4101195,-11.683704,-6.5936313
0.40352732,4.3649845,-2.4093266,1.1138006,1.4074146,-4.4101195,-11.683704,-6.5936313
0.40437037,4.362039,-2.2239707,1.0658637,1.3434987,-4.3766007,-11.798626,-6.6989765
0.4051987,4.3591237,-2.2239707,1.0658637,1.3434987,-4.3766007,-11.798626,-6.6989765
0.4060039,4.3563614,-2.020505,1.0115353,1.2785176,-4.4244847,-11.87524,-6.8043213
0.40679598,4.353625,-2.020505,1.0115353,1.2785176,-4.4244847,-11.87524,-6.8043213
0.40753716,4.3511496,-1.7999953,0.95294577,1.2114059,-4.4101195,-11.894394,-6.7564373
0.4082687,4.3486905,-1.7999953,0.95294577,1.2114059,-4.4101195,-11.894394,-6.7564373
0.4089534,4.3464885,-1.5635066,0.8900951,1.138968,-4.3861775,-11.980585,-6.813898
0.4096371,4.3442764,-1.5635066,0.8900951,1.138968,-4.3861775,-11.980585,-6.813898
0.41026342,4.3423624,-1.3099736,0.82617927,1.0633341,-4.271256,-12.014104,-6.789956
0.41088513,4.340451,-1.3099736,0.82617927,1.0633341,-4.271256,-12.014104,-6.789956
0.41145545,4.3388486,-1.0425923,0.7569371,0.98556983,-4.285621,-12.023681,-6.7468605
0.41202372,4.337244,-1.0425923,0.7569371,0.98556983,-4.285621,-12.023681,-6.7468605
0.41253284,4.3359585,-0.76668876,0.68876016,0.9035445,-4.223372,-12.090718,-6.646304
0.4130497,4.334648,-0.76668876,0.68876016,0.9035445,-4.223372,-12.090718,-6.646304
0.4134933,4.333697,-0.4843937,0.619518,0.81512755,-4.2521024,-12.090718,-6.564901
0.41393632,4.3327427,-0.4843937,0.619518,0.81512755,-4.2521024,-12.090718,-6.564901
0.41432208,4.332116,-0.19464175,0.54814523,0.7256453,-4.3239284,-12.181698,-6.4068837
0.41470492,4.3314924,-0.19464175,0.54814523,0.7256453,-4.3239284,-12.181698,-6.4068837
0.4150274,4.331204,0.09617544,0.47677252,0.6340326,-4.3287168,-12.20564,-6.349423
0.41534612,4.3309183,0.09617544,0.47677252,0.6340326,-4.3287168,-12.20564,-6.349423
0.41560635,4.3309674,0.3848621,0.402204,0.5413546,-4.3957543,-12.263102,-6.2345014
0.41586694,4.3310165,0.3848621,0.402204,0.5413546,-4.3957543,-12.263102,-6.2345014
0.41605124,4.3314104,0.66928774,0.32657024,0.44548076,-4.3239284,-12.325351,-5.9184666
0.41648576,4.3331566,0.9473217,0.25093648,0.34641117,-4.261679,-12.41633,-5.616797
0.41648576,4.3331566,0.9473217,0.25093648,0.34641117,-4.261679,-12.41633,-5.616797
0.41648576,4.3331566,0.9473217,0.25093648,0.34641117,-4.261679,-12.41633,-5.616797
0.41651407,4.334237,1.2168336,0.17317216,0.24308053,-4.309563,-12.445061,-5.267244
0.41651407,4.334237,1.2168336,0.17317216,0.24308053,-4.309563,-12.445061,-5.267244
0.41651863,4.3366446,1.4767581,0.09434259,0.13655408,-4.19943,-12.41633,-4.951209
0.41647255,4.338036,1.4767581,0.09434259,0.13655408,-4.19943,-12.41633,-4.951209
0.41647255,4.338036,1.4767581,0.09434259,0.13655408,-4.19943,-12.41633,-4.951209
0.41647255,4.338036,1.4767581,0.09434259,0.13655408,-4.19943,-12.41633,-4.951209
0.41647255,4.338036,1.4767581,0.09434259,0.13655408,-4.19943,-12.41633,-4.951209
0.41607085,4.343961,1.7249647,0.013382491,0.02896237,-4.10845,-12.229582,-4.6495395
0.41585344,4.346263,1.9667798,-0.06970814,-0.08928198,-3.9600096,-12.105083,-4.271256
0.41545293,4.3497534,2.201138,-0.15599456,-0.2117874,-3.787627,-12.004527,-3.9600096
0.41513076,4.3521996,2.4333656,-0.24015045,-0.34068438,-3.4715924,-11.860875,-3.5098996
0.4147793,4.3548484,2.4333656,-0.24015045,-0.34068438,-3.4715924,-11.860875,-3.5098996
0.4147793,4.3548484,2.4333656,-0.24015045,-0.34068438,-3.4715924,-11.860875,-3.5098996
0.41387156,4.3609138,2.6613324,-0.3221758,-0.47384244,-3.3279405,-11.789049,-3.1794999
0.4133768,4.363904,2.8829072,-0.3967443,-0.6101963,-3.145981,-11.669339,-2.7150247
0.41284084,4.367124,2.8829072,-0.3967443,-0.6101963,-3.145981,-11.669339,-2.7150247
0.41220707,4.3706055,3.099156,-0.4691823,-0.7508112,-2.9400797,-11.51611,-2.255338
0.41156867,4.3740916,3.099156,-0.4691823,-0.7508112,-2.9400797,-11.51611,-2.255338
0.41082412,4.377837,3.3079479,-0.53735924,-0.89355665,-2.753332,-11.310209,-1.8148049
0.4100756,4.381581,3.3079479,-0.53735924,-0.89355665,-2.753332,-11.310209,-1.8148049
0.40922606,4.3855696,3.5018258,-0.60340565,-1.0373673,-2.834735,-11.152191,-1.2593501
0.40837216,4.389556,3.5018258,-0.60340565,-1.0373673,-2.834735,-11.152191,-1.2593501
0.40837216,4.389556,3.5018258,-0.60340565,-1.0373673,-2.834735,-11.152191,-1.2593501
0.4064369,4.3980055,3.6807904,-0.66625625,-1.1811781,-2.9113493,-10.936713,-0.81881696
0.4053507,4.4024134,3.8437757,-0.72484577,-1.317532,-2.432509,-10.7116585,-0.4357447
0.40426132,4.406809,3.8437757,-0.72484577,-1.317532,-2.432509,-10.7116585,-0.4357447
0.40305373,4.4113946,3.989717,-0.78343534,-1.4506899,-2.0638018,-10.5680065,-0.11492168
0.40183902,4.415981,3.989717,-0.78343534,-1.4506899,-2.0638018,-10.5680065,-0.11492168
0.40051046,4.4207206,4.118614,-0.8377638,-1.5859785,-1.8722657,-10.462662,0.25857377
0.39917535,4.425456,4.118614,-0.8377638,-1.5859785,-1.8722657,-10.462662,0.25857377
0.3977235,4.430339,4.230467,-0.8888965,-1.7180713,-1.6950948,-10.362105,0.6512229
0.39626312,4.4352217,4.230467,-0.8888965,-1.7180713,-1.6950948,-10.362105,0.6512229
0.39469305,4.440223,4.3263407,-0.9347029,-1.845903,-1.6376339,-10.34774,1.1540052
0.39311552,4.445219,4.3263407,-0.9347029,-1.845903,-1.6376339,-10.34774,1.1540052
0.39143464,4.450318,4.406235,-0.97518295,-1.9641474,-1.5897499,-10.228029,1.8100165
0.38974613,4.45541,4.406235,-0.97518295,-1.9641474,-1.5897499,-10.228029,1.8100165
0.3879564,4.4605846,4.4712167,-1.0092714,-2.0728045,-1.4077905,-10.132261,2.3463178
0.3861605,4.465747,4.4712167,-1.0092714,-2.0728045,-1.4077905,-10.132261,2.3463178
0.38426617,4.470991,4.5276756,-1.0401641,-2.1740046,-1.3311762,-9.959879,2.834735
0.38236552,4.476222,4.5276756,-1.0401641,-2.1740046,-1.3311762,-9.959879,2.834735
0.3803708,4.4815173,4.5798736,-1.067861,-2.2698784,-1.2018893,-9.782708,3.0933087
0.37836564,4.48681,4.5798736,-1.067861,-2.2698784,-1.2018893,-9.782708,3.0933087
0.37627566,4.492149,4.6203537,-1.0976883,-2.35723,-1.0630256,-9.701305,3.3039982
0.3741771,4.497479,4.6203537,-1.0976883,-2.35723,-1.0630256,-9.701305,3.3039982
0.37199685,4.502847,4.6491156,-1.1264504,-2.4381902,-0.91937345,-9.576807,3.5098996
0.36981007,4.5082006,4.6491156,-1.1264504,-2.4381902,-0.91937345,-9.576807,3.5098996
0.3675484,4.5135922,4.6682906,-1.1552126,-2.5074322,-0.8571242,-9.404425,3.5673606
0.3652799,4.5189695,4.6682906,-1.1552126,-2.5074322,-0.8571242,-9.404425,3.5673606
0.36294726,4.5243573,4.674682,-1.180779,-2.5681524,-0.6847417,-9.121908,3.6343982
0.36060572,4.529736,4.674682,-1.180779,-2.5681524,-0.6847417,-9.121908,3.6343982
0.35820562,4.535105,4.665095,-1.1999537,-2.6203504,-0.35434186,-8.829816,3.8067808
0.35579887,4.54046,4.665095,-1.1999537,-2.6203504,-0.35434186,-8.829816,3.8067808
0.353338,4.54579,4.6395283,-1.2138022,-2.6618958,0.19632454,-8.39886,3.86903
0.3508681,4.551111,4.6395283,-1.2138022,-2.6618958,0.19632454,-8.39886,3.86903
0.34835237,4.5563736,4.5926566,-1.2138022,-2.6938536,0.94810385,-7.8386164,3.9312792
0.34582794,4.561627,4.5926566,-1.2138022,-2.6938536,0.94810385,-7.8386164,3.9312792
0.34326178,4.5667834,4.515958,-1.1924969,-2.71942,1.7477672,-7.240066,4.027047
0.3406821,4.5719414,4.515958,-1.1924969,-2.71942,1.7477672,-7.240066,4.027047
0.3380767,4.576935,4.401974,-1.1434947,-2.7385948,2.5953147,-6.4978633,4.271256
0.3354533,4.5819387,4.401974,-1.1434947,-2.7385948,2.5953147,-6.4978633,4.271256
0.33280385,4.586728,4.247511,-1.0614693,-2.756704,3.3901896,-5.6886234,4.5202527
0.33013952,4.5915236,4.247511,-1.0614693,-2.756704,3.3901896,-5.6886234,4.5202527
0.3274435,4.596062,4.0493717,-0.9442903,-2.7694874,4.2904096,-4.596867,4.5394063
0.32474414,4.600589,4.0493717,-0.9442903,-2.7694874,4.2904096,-4.596867,4.5394063
0.32201004,4.6048064,3.8000998,-0.7930227,-2.78014,5.2385135,-3.4859576,4.6351743
0.3192683,4.609021,3.8000998,-0.7930227,-2.78014,5.2385135,-3.4859576,4.6351743
0.3164973,4.612858,3.4975648,-0.6076667,-2.7907927,5.9280434,-2.5474305,4.7788267
0.31372005,4.616692,3.4975648,-0.6076667,-2.7907927,5.9280434,-2.5474305,4.7788267
0.31091642,4.6200852,3.1407013,-0.38183063,-2.7982495,6.1530986,-1.6759412,4.8123455
0.3081161,4.6234665,3.1407013,-0.38183063,-2.7982495,6.1530986,-1.6759412,4.8123455
0.30528787,4.626354,2.7263134,-0.12829769,-2.80038,6.033388,-0.8714894,4.865018
0.30245557,4.629242,2.7263134,-0.12829769,-2.80038,6.033388,-0.8714894,4.865018
0.29961693,4.631567,2.2544012,0.1358879,-2.7950537,5.7365074,-0.23463176,5.118803
0.296775,4.6338925,2.2544012,0.1358879,-2.7950537,5.7365074,-0.23463176,5.118803
0.293942,4.6356177,1.7356174,0.4032693,-2.7705526,5.305551,0.05746084,5.583278
0.29110634,4.637344,1.7356174,0.4032693,-2.7705526,5.305551,0.05746084,5.583278
0.28830904,4.6384387,1.1827452,0.6631938,-2.7226157,4.7261543,-0.05746084,5.9519854
0.28550678,4.639536,1.1827452,0.6631938,-2.7226157,4.7261543,-0.05746084,5.9519854
0.28274077,4.639991,0.60537183,0.90500885,-2.6501777,4.074931,-0.38307226,6.1195793
0.2800188,4.6404405,0.60537183,0.90500885,-2.6501777,4.074931,-0.38307226,6.1195793
0.2773626,4.6402464,0.016280606,1.119127,-2.5521734,3.5194764,-0.8283938,6.26802
0.27471164,4.6400547,0.016280606,1.119127,-2.5521734,3.5194764,-0.8283938,6.26802
0.27216253,4.6392226,-0.57707167,1.3034178,-2.4317985,3.064578,-1.4269443,6.2967505
0.26961243,4.638394,-0.57707167,1.3034178,-2.4317985,3.064578,-1.4269443,6.2967505
0.26719275,4.6369386,-1.166163,1.4514894,-2.2890532,2.7724855,-2.111686,6.411672
0.26477367,4.6354895,-1.166163,1.4514894,-2.2890532,2.7724855,-2.111686,6.411672
0.2625049,4.633439,-1.73821,1.5697339,-2.1250024,2.336741,-2.896984,6.3685765
0.26023346,4.6313934,-1.73821,1.5697339,-2.1250024,2.336741,-2.896984,6.3685765
0.2581383,4.6287813,-2.2846906,1.6613466,-1.9385811,1.7908629,-3.787627,6.244078
0.25603935,4.626174,-2.2846906,1.6613466,-1.9385811,1.7908629,-3.787627,6.244078
0.25413862,4.6230407,-2.7981482,1.7220666,-1.7308545,1.3455414,-4.6591167,6.1004257
0.25223327,4.619912,-2.7981482,1.7220666,-1.7308545,1.3455414,-4.6591167,6.1004257
0.25052202,4.6162524,-3.2721908,1.7529594,-1.5039532,1.0295067,-5.544971,5.971139
0.24884923,4.612691,-3.2721908,1.7529594,-1.5039532,1.0295067,-5.544971,5.971139
0.24738565,4.608642,-3.7036228,1.7561551,-1.2610729,0.79487497,-6.349423,5.645528
0.24593201,4.6046414,-3.7036228,1.7561551,-1.2610729,0.79487497,-6.349423,5.645528
0.24471429,4.600213,-4.090314,1.7348498,-1.0022136,0.58418524,-6.9288197,5.161899
0.24349223,4.5957956,-4.090314,1.7348498,-1.0022136,0.58418524,-6.9288197,5.161899
0.24253711,4.591055,-4.4311986,1.6933045,-0.73163646,0.36870706,-7.455544,4.673482
0.24157678,4.5863256,-4.4311986,1.6933045,-0.73163646,0.36870706,-7.455544,4.673482
0.24088499,4.5812807,-4.727342,1.6325845,-0.45360243,0.20590134,-7.704541,4.036624
0.24018979,4.576268,-4.727342,1.6325845,-0.45360243,0.20590134,-7.704541,4.036624
0.23977037,4.57098,-4.984071,1.5558854,-0.17130736,0.1388637,-7.824251,3.4715924
0.23934458,4.565708,-4.984071,1.5558854,-0.17130736,0.1388637,-7.824251,3.4715924
0.23919213,4.5602274,-5.2056456,1.4664032,0.106726676,0.24420857,-7.8912888,2.896984
0.23903266,4.5547633,-5.2056456,1.4664032,0.106726676,0.24420857,-7.8912888,2.896984
0.23914161,4.549041,-5.396328,1.3726599,0.38049963,0.48362875,-8.015787,2.4229321
0.23924246,4.543351,-5.396328,1.3726599,0.38049963,0.48362875,-8.015787,2.4229321
0.23960665,4.5375443,-5.5614443,1.2831777,0.65001154,0.63206923,-8.111555,1.9967642
0.23995999,4.5317945,-5.5614443,1.2831777,0.65001154,0.63206923,-8.111555,1.9967642
0.24057041,4.5258617,-5.698863,1.2000871,0.9099361,0.5746084,-8.207323,1.436521
0.241175,4.519915,-5.698863,1.2000871,0.9099361,0.5746084,-8.207323,1.436521
0.24202557,4.5138464,-5.8117814,1.1255186,1.1613384,0.320823,-8.259995,0.7613561
0.24286813,4.5077815,-5.8117814,1.1255186,1.1613384,0.320823,-8.259995,0.7613561
0.24394165,4.5016255,-5.9076552,1.0594722,1.4031535,0.076614454,-8.269572,0.15322891
0.24500948,4.4954605,-5.9076552,1.0594722,1.4031535,0.076614454,-8.269572,0.15322891
0.24628903,4.4892035,-5.9907455,0.99768686,1.6321853,-0.15801731,-8.173804,-0.5267244
0.24756199,4.4829445,-5.9907455,0.99768686,1.6321853,-0.15801731,-8.173804,-0.5267244
0.24902499,4.476591,-6.058923,0.9422931,1.8505646,-0.24899697,-8.049306,-1.2114661
0.2504801,4.470242,-6.058923,0.9422931,1.8505646,-0.24899697,-8.049306,-1.2114661
0.25212228,4.4637866,-6.1111207,0.8943562,2.057226,-0.39264908,-8.1163435,-1.8483237
0.2537551,4.4573364,-6.1111207,0.8943562,2.057226,-0.39264908,-8.1163435,-1.8483237
0.25558087,4.45078,-6.146274,0.8560067,2.247908,-0.4309563,-8.178593,-2.7485435
0.25739524,4.444221,-6.146274,0.8560067,2.247908,-0.4309563,-8.178593,-2.7485435
0.259412,4.43759,-6.1675797,0.8283098,2.4258075,-0.5315128,-8.317456,-3.763685
0.26141638,4.430954,-6.1675797,0.8283098,2.4258075,-0.5315128,-8.317456,-3.763685
0.2635886,4.4242806,-6.1761017,0.8070045,2.5802708,-0.7326257,-8.480263,-4.5872903
0.26574838,4.4176006,-6.1761017,0.8070045,2.5802708,-0.7326257,-8.480263,-4.5872903
0.26804522,4.410903,-6.1718407,0.7931561,2.714494,-1.1252748,-9.011775,-5.209783
0.2703292,4.404198,-6.1718407,0.7931561,2.714494,-1.1252748,-9.011775,-5.209783
0.27274308,4.397466,-6.1484046,0.78569925,2.830608,-1.532289,-9.351752,-6.0621185
0.27516302,4.390672,-6.1484046,0.78569925,2.830608,-1.532289,-9.351752,-6.0621185
0.2776519,4.383945,-6.0994024,0.7771771,2.9264817,-1.364695,-9.481039,-6.646304
0.28006124,4.3773894,-6.0994024,0.7771771,2.9264817,-1.364695,-9.481039,-6.646304
0.282611,4.3707047,-6.0301604,0.772916,3.0053113,-1.733402,-9.792285,-7.1490865
0.28511465,4.364096,-6.0301604,0.772916,3.0053113,-1.733402,-9.792285,-7.1490865
0.28768465,4.3575306,-5.9417434,0.77398133,3.068162,-2.1643584,-10.13705,-7.656657
0.29022595,4.350995,-5.9417434,0.77398133,3.068162,-2.1643584,-10.13705,-7.656657
0.29283163,4.3444977,-5.8288255,0.76652443,3.1139681,-2.542642,-10.453085,-8.255207
0.29543412,4.3379645,-5.8288255,0.76652443,3.1139681,-2.542642,-10.453085,-8.255207
0.29804122,4.3315964,-5.6914062,0.75587183,3.1459262,-2.5761611,-10.721235,-8.719683
0.30063492,4.3252177,-5.6914062,0.75587183,3.1459262,-2.5761611,-10.721235,-8.719683
0.30323377,4.318983,-5.533747,0.74308866,3.1608398,-2.5474305,-11.056423,-9.035717
0.30581906,4.3127384,-5.533747,0.74308866,3.1608398,-2.5474305,-11.056423,-9.035717
0.30839813,4.3066645,-5.3537173,0.7345665,3.1608398,-2.7485435,-11.319786,-9.44752
0.31096634,4.300575,-5.3537173,0.7345665,3.1608398,-2.7485435,-11.319786,-9.44752
0.3135139,4.294673,-5.151317,0.732436,3.1459262,-2.930503,-11.554418,-9.696517
0.3135139,4.294673,-5.151317,0.732436,3.1459262,-2.930503,-11.554418,-9.696517
0.3135139,4.294673,-5.151317,0.732436,3.1459262,-2.930503,-11.554418,-9.696517
0.3135139,4.294673,-5.151317,0.732436,3.1459262,-2.930503,-11.554418,-9.696517
0.32379606,4.271948,-4.6900578,0.7345665,3.0841408,-3.5338416,-12.124237,-10.0748005
0.32585496,4.267314,-4.6900578,0.7345665,3.0841408,-3.5338416,-12.124237,-10.0748005
0.32823598,4.262104,-4.4354596,0.7366971,3.0415301,-3.9360676,-12.497733,-10.0029745
0.33076808,4.2565246,-4.4354596,0.7366971,3.0415301,-3.9360676,-12.497733,-10.0029745
0.33076808,4.2565246,-4.4354596,0.7366971,3.0415301,-3.9360676,-12.497733,-10.0029745
0.33076808,4.2565246,-4.4354596,0.7366971,3.0415301,-3.9360676,-12.497733,-10.0029745
0.33076808,4.2565246,-4.4354596,0.7366971,3.0415301,-3.9360676,-12.497733,-10.0029745
0.34008572,4.237254,-3.8793914,0.7281749,2.9381995,-4.060566,-12.492945,-11.027693
0.34189525,4.2335286,-3.5853784,0.71326125,2.8742838,-3.9983168,-12.248735,-11.69807
0.34404165,4.2291927,-3.5853784,0.71326125,2.8742838,-3.9983168,-12.248735,-11.69807
0.34614632,4.2251105,-3.286039,0.6898254,2.7933235,-3.8355112,-12.023681,-12.167333
0.3482461,4.2210126,-3.286039,0.6898254,2.7933235,-3.8355112,-12.023681,-12.167333
0.3502695,4.2172313,-2.9856346,0.6631938,2.7006457,-3.7780502,-11.769896,-12.291832
0.35228056,4.2134504,-2.9856346,0.6631938,2.7006457,-3.7780502,-11.769896,-12.291832
0.35420844,4.2099853,-2.6799037,0.6376275,2.5962498,-3.620033,-11.664551,-12.263102
0.35612687,4.206517,-2.6799037,0.6376275,2.5962498,-3.620033,-11.664551,-12.263102
0.3579526,4.203365,-2.370977,0.6173874,2.4780054,-3.5529952,-11.602302,-12.119449
0.35976446,4.20022,-2.370977,0.6173874,2.4780054,-3.5529952,-11.602302,-12.119449
0.361453,4.197431,-2.0545936,0.6014085,2.3469777,-3.514688,-11.650186,-11.856087
0.36314252,4.1946263,-2.0545936,0.6014085,2.3469777,-3.514688,-11.650186,-11.856087
0.36471003,4.192173,-1.7350142,0.58756006,2.2074282,-3.691859,-11.779472,-11.616667
0.36627248,4.189716,-1.7350142,0.58756006,2.2074282,-3.691859,-11.779472,-11.616667
0.36771163,4.187609,-1.4111738,0.5737116,2.0582912,-3.9312792,-11.9374895,-11.372458
0.3691493,4.1854954,-1.4111738,0.5737116,2.0582912,-3.9312792,-11.9374895,-11.372458
0.37045825,4.183749,-1.0798765,0.55347157,1.9016973,-4.1419687,-12.047623,-11.104307
0.37176368,4.182,-1.0798765,0.55347157,1.9016973,-4.1419687,-12.047623,-11.104307
0.37294817,4.1806245,-0.74644876,0.5204484,1.7429729,-4.343082,-12.186486,-11.032481
0.37413007,4.179246,-0.74644876,0.5204484,1.7429729,-4.343082,-12.186486,-11.032481
0.3751982,4.1782517,-0.40769464,0.47357672,1.5789222,-4.6782703,-12.29662,-10.931925
0.37626755,4.177253,-0.40769464,0.47357672,1.5789222,-4.6782703,-12.29662,-10.931925
0.37722066,4.1766534,-0.06574476,0.4085956,1.4084798,-4.8602295,-12.373235,-10.812215
0.3781744,4.176052,-0.06574476,0.4085956,1.4084798,-4.8602295,-12.373235,-10.812215
0.37901452,4.1758623,0.2804662,0.325505,1.2391028,-4.6926355,-12.445061,-10.6637745
0.3798549,4.1756716,0.2804662,0.325505,1.2391028,-4.6926355,-12.445061,-10.6637745
0.38059035,4.1759024,0.6309382,0.22963117,1.0675952,-4.572925,-12.540829,-10.448297
0.3813258,4.1761327,0.6309382,0.22963117,1.0675952,-4.572925,-12.540829,-10.448297
0.3819539,4.1767864,0.98034495,0.12949632,0.8928918,-4.309563,-12.497733,-10.247183
0.38258234,4.17744,0.98034495,0.12949632,0.8928918,-4.309563,-12.497733,-10.247183
0.38310143,4.178518,1.3297517,0.031491987,0.7149927,-4.036624,-12.272678,-9.931149
0.38362128,4.179595,1.3297517,0.031491987,0.7149927,-4.036624,-12.272678,-9.931149
0.384031,4.1810894,1.6748973,-0.06331655,0.5338977,-3.821146,-12.004527,-9.730036
0.38444144,4.182583,1.6748973,-0.06331655,0.5338977,-3.821146,-12.004527,-9.730036
0.38473502,4.1844897,2.0157819,-0.1549293,0.34747645,-3.596091,-11.678916,-9.476251
0.38502997,4.1863995,2.0157819,-0.1549293,0.34747645,-3.596091,-11.678916,-9.476251
0.38520443,4.1886983,2.346014,-0.24015045,0.15785937,-3.4093432,-11.252748,-9.313444
0.38537946,4.190999,2.346014,-0.24015045,0.15785937,-3.4093432,-11.252748,-9.313444
0.3854256,4.193684,2.6623976,-0.31898,-0.03282297,-3.2369606,-10.970232,-9.002198
0.38547188,4.196371,2.6623976,-0.31898,-0.03282297,-3.2369606,-10.970232,-9.002198
0.38538182,4.199423,2.9638674,-0.391418,-0.22563584,-3.0119057,-10.759542,-8.78672
0.38529122,4.2024794,2.9638674,-0.391418,-0.22563584,-3.0119057,-10.759542,-8.78672
0.38506413,4.2058487,3.2493582,-0.45533386,-0.41844872,-2.9400797,-10.582372,-8.623915
0.38483196,4.209278,3.2493582,-0.45533386,-0.41844872,-2.9400797,-10.582372,-8.623915
0.38446102,4.213004,3.51887,-0.5160539,-0.61232686,-2.954445,-10.328587,-8.341399
0.3840884,4.216728,3.51887,-0.5160539,-0.61232686,-2.954445,-10.328587,-8.341399
0.38357618,4.220758,3.768142,-0.576774,-0.80300915,-3.0310593,-10.16578,-8.073248
0.38306075,4.2247934,3.768142,-0.576774,-0.80300915,-3.0310593,-10.16578,-8.073248
0.38239735,4.2291327,4.0003695,-0.6406899,-0.99049574,-2.882619,-10.0748005,-7.675811
0.38169062,4.2337313,4.0003695,-0.6406899,-0.99049574,-2.882619,-10.0748005,-7.675811
0.38093975,4.2380104,4.2198143,-0.70460576,-1.1726559,-2.72939,-9.9790325,-7.359776
0.38013312,4.242584,4.2198143,-0.70460576,-1.1726559,-2.72939,-9.9790325,-7.359776
0.37918502,4.2474356,4.42328,-0.7663911,-1.346294,-2.743755,-9.993398,-6.9719152
0.3782328,4.2522826,4.42328,-0.7663911,-1.346294,-2.743755,-9.993398,-6.9719152
0.37714943,4.257368,4.6118317,-0.82391536,-1.5092795,-2.7820623,-9.950302,-6.603208
0.37606138,4.2624474,4.6118317,-0.82391536,-1.5092795,-2.7820623,-9.950302,-6.603208
0.3748513,4.267746,4.7897305,-0.87504804,-1.6584165,-2.6144683,-9.706094,-6.363788
0.37363562,4.273039,4.7897305,-0.87504804,-1.6584165,-2.6144683,-9.706094,-6.363788
0.37229747,4.278536,4.9505854,-0.9197892,-1.7958356,-2.1164744,-9.433155,-6.244078
0.37095422,4.2840204,4.9505854,-0.9197892,-1.7958356,-2.1164744,-9.433155,-6.244078
0.3694953,4.289672,5.090135,-0.95920396,-1.9268632,-1.757344,-9.069236,-5.971139
0.36802772,4.2953215,5.090135,-0.95920396,-1.9268632,-1.757344,-9.069236,-5.971139
0.36644608,4.301117,5.206249,-0.9943577,-2.0514991,-1.5562311,-8.853758,-5.6886234
0.36485335,4.3069153,5.206249,-0.9943577,-2.0514991,-1.5562311,-8.853758,-5.6886234
0.36315784,4.3128214,5.3010573,-1.0252503,-2.1654825,-1.5849615,-8.647857,-5.2768207
0.36145425,4.318719,5.3010573,-1.0252503,-2.1654825,-1.5849615,-8.647857,-5.2768207
0.35964736,4.3247194,5.378822,-1.0540125,-2.2698784,-1.5370775,-8.432379,-4.8027687
0.3578319,4.3307095,5.378822,-1.0540125,-2.2698784,-1.5370775,-8.432379,-4.8027687
0.3559185,4.336789,5.440607,-1.0795789,-2.3604257,-1.3982137,-8.2169,-4.2664676
0.3539961,4.3428583,5.440607,-1.0795789,-2.3604257,-1.3982137,-8.2169,-4.2664676
0.35198706,4.349008,5.4896092,-1.1019495,-2.433929,-1.1013328,-8.001422,-3.715801
0.34996814,4.3551455,5.4896092,-1.1019495,-2.433929,-1.1013328,-8.001422,-3.715801
0.34787554,4.361375,5.5300894,-1.1211241,-2.4967797,-0.59376204,-7.85777,-2.896984
0.34577075,4.3675923,5.5300894,-1.1211241,-2.4967797,-0.59376204,-7.85777,-2.896984
0.3436231,4.373874,5.5631127,-1.1307116,-2.542586,-0.20111294,-7.6135616,-2.15957
0.3414623,4.380144,5.5631127,-1.1307116,-2.542586,-0.20111294,-7.6135616,-2.15957
0.33927497,4.386455,5.5865483,-1.1275158,-2.5766745,0.20111294,-7.441179,-1.340753
0.3370743,4.3927555,5.5865483,-1.1275158,-2.5766745,0.20111294,-7.441179,-1.340753
0.33485702,4.3990684,5.598266,-1.112602,-2.594784,0.45489833,-7.1730285,-0.61291564
0.33262694,4.4053707,5.598266,-1.112602,-2.594784,0.45489833,-7.1730285,-0.61291564
0.33038843,4.4116616,5.5961356,-1.0881009,-2.6011755,0.7565677,-6.9862804,0.19632454
0.3281377,4.417943,5.5961356,-1.0881009,-2.6011755,0.7565677,-6.9862804,0.19632454
0.3258851,4.4241843,5.5737653,-1.0540125,-2.5937188,0.9720459,-6.6846113,0.89543146
0.32362098,4.430416,5.5737653,-1.0540125,-2.5937188,0.9720459,-6.6846113,0.89543146
0.3213677,4.436578,5.5268936,-1.0092714,-2.570283,1.1300632,-6.373365,1.6328455
0.31910375,4.44273,5.5268936,-1.0092714,-2.570283,1.1300632,-6.373365,1.6328455
0.31686252,4.448784,5.455521,-0.95600814,-2.5329986,1.1061212,-5.985504,2.327164
0.31461143,4.4548297,5.455521,-0.95600814,-2.5329986,1.1061212,-5.985504,2.327164
0.3124011,4.4607363,5.3521905,-0.90061444,-2.4776049,0.9720459,-5.506664,2.753332
0.3101749,4.466653,5.3521905,-0.90061444,-2.4776049,0.9720459,-5.506664,2.753332
0.30800852,4.472386,5.213706,-0.85693854,-2.4083626,1.0582372,-5.109226,3.2321723
0.30583382,4.4781117,5.213706,-0.85693854,-2.4083626,1.0582372,-5.109226,3.2321723
0.30372718,4.4836392,5.036872,-0.82178485,-2.3231416,1.4460979,-4.8219223,4.027047
0.301611,4.4891653,5.036872,-0.82178485,-2.3231416,1.4460979,-4.8219223,4.027047
0.29958737,4.4944425,4.8216887,-0.7802395,-2.2166152,1.7908629,-4.6399627,4.8362875
0.29755697,4.499714,4.8216887,-0.7802395,-2.2166152,1.7908629,-4.6399627,4.8362875
0.29563218,4.5047054,4.573482,-0.72697634,-2.095175,1.9249382,-4.429273,5.707777
0.2936919,4.509717,4.573482,-0.72697634,-2.095175,1.9249382,-4.429273,5.707777
0.2918759,4.514402,4.296513,-0.6587994,-1.958821,1.9919758,-4.2185836,6.5744777
0.29005855,4.5190725,4.296513,-0.6587994,-1.958821,1.9919758,-4.2185836,6.5744777
0.28838044,4.523374,3.993978,-0.5831656,-1.8107493,2.360683,-4.0462008,7.4746976
0.28668648,4.5277014,3.993978,-0.5831656,-1.8107493,2.360683,-4.0462008,7.4746976
0.28513145,4.531663,3.666942,-0.49474865,-1.6488291,2.8921957,-3.9073372,8.283937
0.28357312,4.5356216,3.666942,-0.49474865,-1.6488291,2.8921957,-3.9073372,8.283937
0.28216144,4.5391855,3.31647,-0.38715693,-1.4783869,3.2465374,-3.7732618,9.02614
0.2807473,4.542748,3.31647,-0.38715693,-1.4783869,3.2465374,-3.7732618,9.02614
0.27948245,4.545888,2.9414968,-0.26145574,-1.3047488,3.4476504,-3.6008794,9.758766
0.27821597,4.5490265,2.9414968,-0.26145574,-1.3047488,3.4476504,-3.6008794,9.758766
0.27709985,4.551718,2.5409575,-0.1251019,-1.12898,3.4763808,-3.3423057,10.247183
0.27598515,4.554404,2.5409575,-0.1251019,-1.12898,3.4763808,-3.3423057,10.247183
0.27502507,4.556616,2.1137862,0.016578285,-0.9489504,3.6008794,-3.122039,10.773908
0.2740646,4.5588264,2.1137862,0.016578285,-0.9489504,3.6008794,-3.122039,10.773908
0.2732656,4.560534,1.6599836,0.16465004,-0.7635944,3.7301662,-2.9783869,11.477803
0.27246657,4.562241,1.6599836,0.16465004,-0.7635944,3.7301662,-2.9783869,11.477803
0.27182868,4.563422,1.1838105,0.31485233,-0.5793036,3.6870706,-2.906561,12.014104
0.27119103,4.564604,1.1838105,0.31485233,-0.5793036,3.6870706,-2.906561,12.014104
0.27071354,4.565242,0.68952775,0.4661199,-0.39607814,3.53863,-2.930503,12.272678
0.2702362,4.565881,0.68952775,0.4661199,-0.39607814,3.53863,-2.930503,12.272678
0.26991782,4.5659647,0.18033133,0.60460424,-0.21604845,3.3806129,-2.9496565,12.449849
0.2695995,4.5660496,0.18033133,0.60460424,-0.21604845,3.3806129,-2.9496565,12.449849
0.26943725,4.5655756,-0.33845246,0.7271097,-0.04027982,3.2992098,-3.145981,12.559982
0.26927474,4.5651007,-0.33845246,0.7271097,-0.04027982,3.2992098,-3.145981,12.559982
0.26926565,4.5640683,-0.8614973,0.8336361,0.13122776,3.2034419,-3.3423057,12.473791
0.2692557,4.5630355,-0.8614973,0.8336361,0.13122776,3.2034419,-3.3423057,12.473791
0.2693943,4.5614533,-1.3802811,0.92311835,0.29634374,3.098097,-3.643975,12.349293
0.26953143,4.5598707,-1.3802811,0.92311835,0.29634374,3.098097,-3.643975,12.349293
0.26980978,4.5577555,-1.8884122,0.99236053,0.45187235,2.920926,-3.964798,12.0332575
0.27008596,4.5556393,-1.8884122,0.99236053,0.45187235,2.920926,-3.964798,12.0332575
0.2704974,4.5530167,-2.3763034,1.0392321,0.59887886,2.6719291,-4.4340615,11.717223
0.2709056,4.550395,-2.3763034,1.0392321,0.59887886,2.6719291,-4.4340615,11.717223
0.27144623,4.5472984,-2.8354323,1.0690596,0.74055904,2.3175871,-5.1235914,11.463438
0.2719838,4.5441976,-2.8354323,1.0690596,0.74055904,2.3175871,-5.1235914,11.463438
0.2726507,4.5406594,-3.264734,1.0882343,0.8790434,1.8052281,-6.042965,11.142614
0.27331343,4.53712,-3.264734,1.0882343,0.8790434,1.8052281,-6.042965,11.142614
0.27410805,4.5331807,-3.655686,1.094626,1.0185931,1.3551182,-6.8282633,10.644621
0.27490187,4.5292196,-3.655686,1.094626,1.0185931,1.3551182,-6.8282633,10.644621
0.27582622,4.524914,-4.007223,1.0861038,1.1581427,1.0486604,-7.5800424,9.931149
0.27674893,4.5205874,-4.007223,1.0861038,1.1581427,1.0486604,-7.5800424,9.931149
0.2777912,4.515992,-4.3225417,1.0637332,1.2944965,1.0199299,-8.149862,9.294291
0.27918053,4.5098224,-4.3225417,1.0637332,1.2944965,1.0199299,-8.149862,9.294291
0.2799973,4.5063925,-4.6005754,1.0317754,1.4255241,1.0199299,-8.614338,8.552089
0.28114945,4.5015287,-4.6005754,1.0317754,1.4255241,1.0199299,-8.614338,8.552089
0.28241932,4.4964375,-4.8423905,0.9934258,1.5480295,0.62249243,-9.035717,7.7667904
0.28369546,4.491291,-4.8423905,0.9934258,1.5480295,0.62249243,-9.035717,7.7667904
0.28509623,4.4858923,-5.045856,0.9444236,1.6577517,0.2873042,-9.26556,6.95755
0.28509623,4.4858923,-5.045856,0.9444236,1.6577517,0.2873042,-9.26556,6.95755
0.28790048,4.475102,-5.2099066,0.88689935,1.7578865,0.36870706,-9.471462,6.191406
0.2893857,4.4695463,-5.2099066,0.88689935,1.7578865,0.36870706,-9.471462,6.191406
0.29089177,4.464131,-5.335608,0.82617927,1.8473688,0.14844051,-9.586384,5.1475334
0.29368952,4.4539976,-5.335608,0.82617927,1.8473688,0.14844051,-9.586384,5.1475334
0.2940874,4.452608,-5.4261556,0.7633287,1.9219373,-0.36391866,-9.662998,4.175488
0.2940874,4.452608,-5.4261556,0.7633287,1.9219373,-0.36391866,-9.662998,4.175488
0.29733723,4.441333,-5.48368,0.6876949,1.9837227,-0.6847417,-9.710882,3.5098996
0.29733723,4.441333,-5.48368,0.6876949,1.9837227,-0.6847417,-9.710882,3.5098996
0.30074105,4.429847,-5.512442,0.60247374,2.0348554,-0.8714894,-9.801862,2.8060043
0.3024944,4.4240737,-5.512442,0.60247374,2.0348554,-0.8714894,-9.801862,2.8060043
0.3043136,4.4182973,-5.515638,0.52151364,2.0806618,-1.2210429,-9.888053,2.0733786
0.3064303,4.411544,-5.515638,0.52151364,2.0806618,-1.2210429,-9.888053,2.0733786
0.3079832,4.406762,-5.4943323,0.44907564,2.122207,-1.5370775,-9.9790325,1.2258313
0.30984363,4.4010105,-5.4943323,0.44907564,2.122207,-1.5370775,-9.9790325,1.2258313
0.31174928,4.39532,-5.452787,0.381964,2.1605566,-1.7908629,-10.036493,0.30166942
0.31363603,4.3896627,-5.452787,0.381964,2.1605566,-1.7908629,-10.036493,0.30166942
0.31557754,4.3840375,-5.393132,0.3223092,2.194645,-2.1212628,-10.175357,-0.60333884
0.31751367,4.3784065,-5.393132,0.3223092,2.194645,-2.1212628,-10.175357,-0.60333884
0.3194765,4.372856,-5.319629,0.26904595,2.2244725,-2.2649148,-10.323798,-1.4891934
0.32143417,4.3673,-5.319629,0.26904595,2.2244725,-2.2649148,-10.323798,-1.4891934
0.32340923,4.3618345,-5.234408,0.22110906,2.2457776,-2.5091233,-10.46745,-2.2505496
0.32538003,4.3563633,-5.234408,0.22110906,2.2457776,-2.5091233,-10.46745,-2.2505496
0.32734758,4.350984,-5.1395993,0.17956375,2.2596262,-2.7246015,-10.577583,-2.9975405
0.32931027,4.3456054,-5.1395993,0.17956375,2.2596262,-2.7246015,-10.577583,-2.9975405
0.3312377,4.340277,-5.034138,0.14121422,2.262822,-2.930503,-10.625467,-3.8402996
0.33315966,4.334961,-5.034138,0.14121422,2.262822,-2.930503,-10.625467,-3.8402996
0.3350906,4.329675,-4.9222856,0.104995236,2.2596262,-2.9640217,-10.630256,-4.5154643
0.33701274,4.3243914,-4.9222856,0.104995236,2.2596262,-2.9640217,-10.630256,-4.5154643
0.33895665,4.3191915,-4.804041,0.073037304,2.2425818,-3.0262709,-10.654198,-5.1140146
0.34089085,4.31399,-4.804041,0.073037304,2.2425818,-3.0262709,-10.654198,-5.1140146
0.3428333,4.308898,-4.679405,0.046405688,2.2159503,-3.083732,-10.553641,-5.6982
0.34476537,4.3038077,-4.679405,0.046405688,2.2159503,-3.083732,-10.553641,-5.6982
0.34668773,4.2988367,-4.5483775,0.020839343,2.1765356,-3.1555579,-10.453085,-6.205771
0.3485987,4.293871,-4.5483775,0.020839343,2.1765356,-3.1555579,-10.453085,-6.205771
0.35047337,4.2890425,-4.409893,0.0016645822,2.1200764,-3.169923,-10.328587,-6.670246
0.3523433,4.2842054,-4.409893,0.0016645822,2.1200764,-3.169923,-10.328587,-6.670246
0.3541587,4.279527,-4.265017,-0.012183856,2.0540302,-3.2034419,-10.175357,-7.053318
0.3559698,4.274841,-4.265017,-0.012183856,2.0540302,-3.2034419,-10.175357,-7.053318
0.35771424,4.2703075,-4.1148148,-0.020705972,1.9741353,-3.1747115,-10.084377,-7.5465236
0.35944965,4.265779,-4.1148148,-0.020705972,1.9741353,-3.1747115,-10.084377,-7.5465236
0.3611033,4.261408,-3.9571557,-0.021771235,1.8814572,-3.074155,-9.931149,-7.9631147
0.3627486,4.2570424,-3.9571557,-0.021771235,1.8814572,-3.074155,-9.931149,-7.9631147
0.36430266,4.2528358,-3.7973661,-0.016444914,1.7770613,-3.0597897,-9.725247,-8.499416
0.36581972,4.248714,-3.7973661,-0.016444914,1.7770613,-3.0597897,-9.725247,-8.499416
0.36725944,4.244676,-3.6354458,-0.005792269,1.6609476,-2.9879637,-9.595961,-9.102755
0.36872375,4.2405543,-3.6354458,-0.005792269,1.6609476,-2.9879637,-9.595961,-9.102755
0.37003633,4.2366905,-3.4724605,0.011251962,1.5331157,-2.96881,-9.44752,-9.691729
0.37133858,4.2328434,-3.4724605,0.011251962,1.5331157,-2.96881,-9.44752,-9.691729
0.37252057,4.2291484,-3.3126707,0.031491987,1.3999578,-2.9831753,-9.260772,-10.19451
0.37370375,4.225436,-3.3126707,0.031491987,1.3999578,-2.9831753,-9.260772,-10.19451
0.3747473,4.221903,-3.1550117,0.054927804,1.2593428,-2.906561,-9.121908,-10.6637745
0.3757835,4.218382,-3.1550117,0.054927804,1.2593428,-2.906561,-9.121908,-10.6637745
0.3766812,4.2150226,-2.9984179,0.085820474,1.1155322,-2.96881,-8.992621,-11.075577
0.3775761,4.2116613,-2.9984179,0.085820474,1.1155322,-2.96881,-8.992621,-11.075577
0.37832585,4.208462,-2.8471503,0.12417,0.97278666,-2.920926,-8.8777,-11.449073
0.37907305,4.205262,-2.8471503,0.12417,0.97278666,-2.920926,-8.8777,-11.449073
0.37967378,4.2022176,-2.701209,0.16784583,0.8300412,-2.9017725,-8.724471,-11.884817
0.38027185,4.199175,-2.701209,0.16784583,0.8300412,-2.9017725,-8.724471,-11.884817
0.38072187,4.196275,-2.560594,0.21791327,0.6894263,-2.815581,-8.614338,-12.243947
0.38116944,4.193378,-2.560594,0.21791327,0.6894263,-2.815581,-8.614338,-12.243947
0.38147143,4.1906214,-2.4263709,0.27224174,0.5520072,-2.896984,-8.480263,-12.459426
0.3817717,4.187864,-2.4263709,0.27224174,0.5520072,-2.896984,-8.480263,-12.459426
0.381929,4.185239,-2.2985392,0.3308313,0.42097968,-2.9400797,-8.418014,-12.751518
0.3820844,4.182617,-2.2985392,0.3308313,0.42097968,-2.9400797,-8.418014,-12.751518
0.38210303,4.1801157,-2.1749685,0.39261663,0.29847428,-2.9975405,-8.346188,-12.880805
0.38212025,4.1776195,-2.1749685,0.39261663,0.29847428,-2.9975405,-8.346188,-12.880805
0.38200596,4.1752434,-2.0545936,0.45227146,0.18129519,-2.992752,-8.183381,-13.057976
0.3818902,4.1728654,-2.0545936,0.45227146,0.18129519,-2.992752,-8.183381,-13.057976
0.38164893,4.1706114,-1.9384797,0.5097957,0.07050768,-2.96881,-8.121132,-13.115437
0.38140628,4.1683555,-1.9384797,0.5097957,0.07050768,-2.96881,-8.121132,-13.115437
0.38104996,4.1662145,-1.8255616,0.5641242,-0.028561912,-2.954445,-8.034941,-13.196839
0.38069236,4.164074,-1.8255616,0.5641242,-0.028561912,-2.954445,-8.034941,-13.196839
0.38022903,4.1620445,-1.7158394,0.61632216,-0.11910939,-2.9113493,-7.9726915,-13.153744
0.3797651,4.160018,-1.7158394,0.61632216,-0.11910939,-2.9113493,-7.9726915,-13.153744
0.37920246,4.158098,-1.609313,0.6642591,-0.20220003,-2.8203697,-7.9631147,-13.057976
0.3786388,4.156179,-1.609313,0.6642591,-0.20220003,-2.8203697,-7.9631147,-13.057976
0.37799057,4.1543655,-1.5027865,0.7079349,-0.27357274,-2.834735,-7.8865004,-12.962208
0.37734267,4.152557,-1.5027865,0.7079349,-0.27357274,-2.834735,-7.8865004,-12.962208
0.37661964,4.1508536,-1.3941295,0.7473497,-0.33322755,-2.7485435,-7.9008656,-12.957419
0.37589732,4.1491547,-1.3941295,0.7473497,-0.33322755,-2.7485435,-7.9008656,-12.957419
0.37511158,4.14756,-1.2844073,0.78569925,-0.38116443,-2.7485435,-7.905654,-12.871228
0.3743266,4.1459703,-1.2844073,0.78569925,-0.38116443,-2.7485435,-7.905654,-12.871228
0.37348795,4.144488,-1.1736197,0.82085294,-0.42057922,-2.801216,-8.010999,-12.77546
0.3726628,4.143031,-1.1736197,0.82085294,-0.42057922,-2.801216,-8.010999,-12.77546
0.37182277,4.14155,-1.1736197,0.82085294,-0.42057922,-2.801216,-8.010999,-12.77546
0.37092787,4.140151,-1.061767,0.8496151,-0.44614556,-2.8634653,-8.0924015,-12.804191
0.37002704,4.1388893,-0.9477837,0.8719856,-0.45999402,-2.9352913,-8.106767,-12.713211
0.36912575,4.1376286,-0.9477837,0.8719856,-0.45999402,-2.9352913,-8.106767,-12.713211
0.36821494,4.136484,-0.8348657,0.88689935,-0.4631898,-2.920926,-8.279149,-12.5743475
0.36729082,4.135324,-0.8348657,0.88689935,-0.4631898,-2.920926,-8.279149,-12.5743475
0.36638415,4.1342916,-0.7208824,0.8964867,-0.45253718,-2.9975405,-8.470686,-12.397177
0.36547413,4.133258,-0.7208824,0.8964867,-0.45253718,-2.9975405,-8.470686,-12.397177
0.3645792,4.132333,-0.6047686,0.8996825,-0.42910135,-3.122039,-8.652645,-12.176909
0.36368397,4.1314077,-0.6047686,0.8996825,-0.42910135,-3.122039,-8.652645,-12.176909
0.36281392,4.130602,-0.48332843,0.89542145,-0.39927393,-3.1555579,-8.872911,-12.038046
0.36194453,4.129798,-0.48332843,0.89542145,-0.39927393,-3.1555579,-8.872911,-12.038046
0.36110586,4.1291203,-0.35443142,0.8826383,-0.36518547,-3.1507695,-9.112331,-11.860875
0.36026776,4.1284447,-0.35443142,0.8826383,-0.36518547,-3.1507695,-9.112331,-11.860875
0.35947055,4.127906,-0.21807757,0.8634635,-0.32470542,-3.1747115,-9.41879,-11.611878
0.35867232,4.1273665,-0.21807757,0.8634635,-0.32470542,-3.1747115,-9.41879,-11.611878
0.35792497,4.126978,-0.07107108,0.83470136,-0.28209487,-3.193865,-9.557653,-11.358093
0.35717675,4.12659,-0.07107108,0.83470136,-0.28209487,-3.193865,-9.557653,-11.358093
0.35647708,4.1263685,0.089783855,0.7984824,-0.2416148,-3.1268275,-9.77792,-11.066
0.35575503,4.1261406,0.089783855,0.7984824,-0.2416148,-3.1268275,-9.77792,-11.066
0.3550997,4.1260996,0.26342195,0.75800234,-0.20006949,-3.1794999,-9.950302,-10.817003
0.35447618,4.1260605,0.26342195,0.75800234,-0.20006949,-3.1794999,-9.950302,-10.817003
0.35383606,4.1260214,0.26342195,0.75800234,-0.20006949,-3.1794999,-9.950302,-10.817003
0.35324746,4.126177,0.44877797,0.7090002,-0.16171996,-3.2082303,-10.180145,-10.524911
0.352658,4.126333,0.44877797,0.7090002,-0.16171996,-3.2082303,-10.180145,-10.524911
0.35212076,4.1267014,0.6458519,0.65254116,-0.12976204,-3.1986535,-10.366894,-10.175357
0.35158396,4.12707,0.6458519,0.65254116,-0.12976204,-3.1986535,-10.366894,-10.175357
0.35109895,4.127662,0.85357845,0.58969057,-0.107391484,-3.2800562,-10.515334,-9.873688
0.3506073,4.128263,0.85357845,0.58969057,-0.107391484,-3.2800562,-10.515334,-9.873688
0.35014752,4.1291294,1.0719577,0.5204484,-0.092477776,-3.265691,-10.745177,-9.481039
0.34972194,4.129932,1.0719577,0.5204484,-0.092477776,-3.265691,-10.745177,-9.481039
0.3493207,4.1310167,1.2999243,0.44587985,-0.08395566,-3.2465374,-10.903194,-9.160215
0.3489177,4.1321087,1.2999243,0.44587985,-0.08395566,-3.2465374,-10.903194,-9.160215
0.34854278,4.1334696,1.5332172,0.36918083,-0.08608619,-3.1316159,-10.994174,-8.805874
0.34816897,4.1348295,1.5332172,0.36918083,-0.08608619,-3.1316159,-10.994174,-8.805874
0.34781578,4.13647,1.7750323,0.289286,-0.10099989,-3.074155,-11.15698,-8.542512
0.34746382,4.138109,1.7750323,0.289286,-0.10099989,-3.074155,-11.15698,-8.542512
0.34712252,4.1400433,2.0211084,0.20406483,-0.12869677,-3.074155,-11.247959,-8.1163435
0.34678176,4.141979,2.0211084,0.20406483,-0.12869677,-3.074155,-11.247959,-8.1163435
0.3464472,4.144214,2.2703803,0.11138682,-0.17024209,-3.122039,-11.281479,-7.7093296
0.34612,4.146404,2.2703803,0.11138682,-0.17024209,-3.122039,-11.281479,-7.7093296
0.3457876,4.1489487,2.5207174,0.011251962,-0.22457057,-3.0597897,-11.271901,-7.417237
0.3454494,4.1515384,2.5207174,0.011251962,-0.22457057,-3.0597897,-11.271901,-7.417237
0.3451146,4.1544123,2.7785113,-0.09633975,-0.29061696,-2.9352913,-11.233594,-6.9144545
0.34478104,4.1572647,2.7785113,-0.09633975,-0.29061696,-2.9352913,-11.233594,-6.9144545
0.3444394,4.1604605,3.0352402,-0.20925778,-0.36838126,-2.8634653,-11.180922,-6.6079965
0.34409457,4.1636653,3.0352402,-0.20925778,-0.36838126,-2.8634653,-11.180922,-6.6079965
0.3437366,4.167191,3.2951646,-0.32430634,-0.45786348,-2.7964275,-11.128249,-6.3111157
0.34337696,4.170699,3.2951646,-0.32430634,-0.45786348,-2.7964275,-11.128249,-6.3111157
0.34299734,4.1745462,3.5604155,-0.44361597,-0.55799836,-2.801216,-11.013328,-5.9759274
0.34261337,4.1783895,3.5604155,-0.44361597,-0.55799836,-2.801216,-11.013328,-5.9759274
0.34221196,4.182572,3.8235357,-0.56931716,-0.66772056,-2.815581,-11.018116,-5.559336
0.34180394,4.1867595,3.8235357,-0.56931716,-0.66772056,-2.815581,-11.018116,-5.559336
0.34136173,4.191271,4.089852,-0.70247525,-0.7870302,-2.5809495,-11.066,-5.291186
0.34091243,4.1957827,4.089852,-0.70247525,-0.7870302,-2.5809495,-11.066,-5.291186
0.34042972,4.2006483,4.3646903,-0.8388291,-0.91166615,-2.432509,-11.070788,-4.841076
0.3399401,4.2055006,4.3646903,-0.8388291,-0.91166615,-2.432509,-11.070788,-4.841076
0.33940977,4.2107096,4.642724,-0.9783787,-1.0426936,-2.5187001,-11.113884,-4.5394063
0.3388701,4.215915,4.642724,-0.9783787,-1.0426936,-2.5187001,-11.113884,-4.5394063
0.3388701,4.215915,4.642724,-0.9783787,-1.0426936,-2.5187001,-11.113884,-4.5394063
0.33766752,4.227246,4.92715,-1.1211241,-1.1811781,-2.5905263,-11.123461,-4.132392
0.33766752,4.227246,4.92715,-1.1211241,-1.1811781,-2.5905263,-11.123461,-4.132392
0.33624512,4.240029,5.2158365,-1.2713264,-1.321793,-2.5713725,-11.109096,-3.8498764
0.33564243,4.245226,5.507719,-1.4279203,-1.4634731,-2.4133554,-11.061212,-3.5194764
0.3348897,4.2516,5.507719,-1.4279203,-1.4634731,-2.4133554,-11.061212,-3.5194764
0.33407283,4.258276,5.8038626,-1.5855795,-1.6062186,-2.2122424,-10.936713,-3.2561142
0.33315352,4.2656302,5.8038626,-1.5855795,-1.6062186,-2.2122424,-10.936713,-3.2561142
0.33234495,4.271862,6.1010714,-1.7453691,-1.7500293,-2.0159178,-10.788273,-3.074155
0.33146507,4.278516,6.1010714,-1.7453691,-1.7500293,-2.0159178,-10.788273,-3.074155
0.33046263,4.285851,6.397215,-1.9072893,-1.8927747,-1.7812861,-10.529699,-2.8395233
0.32943726,4.2931952,6.397215,-1.9072893,-1.8927747,-1.7812861,-10.529699,-2.8395233
0.32832748,4.3008995,6.6933584,-2.0702748,-2.0376506,-1.4700398,-10.189722,-2.4468741
0.32719463,4.3085966,6.6933584,-2.0702748,-2.0376506,-1.4700398,-10.189722,-2.4468741
0.32596633,4.316661,6.9852405,-2.2311296,-2.1793308,-1.1061212,-9.773131,-2.1787236
0.3247087,4.324741,6.9852405,-2.2311296,-2.1793308,-1.1061212,-9.773131,-2.1787236
0.3233537,4.333104,7.273927,-2.3866584,-2.3220763,-0.6895301,-9.26556,-2.0398598
0.32196927,4.3414664,7.273927,-2.3866584,-2.3220763,-0.6895301,-9.26556,-2.0398598
0.3204747,4.350129,7.558353,-2.530469,-2.4616258,-0.2777274,-8.647857,-1.9776106
0.31894383,4.3588147,7.558353,-2.530469,-2.4616258,-0.2777274,-8.647857,-1.9776106
0.3172997,4.3678164,7.8342566,-2.6657577,-2.5958493,0.019153614,-7.991845,-1.8291701
0.31568557,4.3764725,7.8342566,-2.6657577,-2.5958493,0.019153614,-7.991845,-1.8291701
0.3138865,4.3857636,8.099507,-2.7893283,-2.7268767,0.47884035,-7.2831616,-1.7764976
0.3119866,4.395373,8.099507,-2.7893283,-2.7268767,0.47884035,-7.2831616,-1.7764976
0.3100329,4.40493,8.348779,-2.9001157,-2.8557737,1.0965444,-6.588843,-1.412579
0.30805507,4.414415,8.348779,-2.9001157,-2.8557737,1.0965444,-6.588843,-1.412579
0.30595034,4.4242043,8.582072,-2.993859,-2.974018,1.7812861,-5.932832,-1.067814
0.30379725,4.4340262,8.582072,-2.993859,-2.974018,1.7812861,-5.932832,-1.067814
0.30153406,4.4440193,8.79619,-3.0609708,-3.0816097,2.4181437,-5.133168,-0.93852705
0.2992346,4.4539847,8.79619,-3.0609708,-3.0816097,2.4181437,-5.133168,-0.93852705
0.29681075,4.4641457,8.984742,-3.1035812,-3.1806793,2.7581203,-4.4005427,-0.90500826
0.29434755,4.4742875,8.984742,-3.1035812,-3.1806793,2.7581203,-4.4005427,-0.90500826
0.29176798,4.4845643,9.13814,-3.1280823,-3.2669659,3.016694,-3.4572272,-1.0726024
0.28914878,4.4948215,9.13814,-3.1280823,-3.2669659,3.016694,-3.4572272,-1.0726024
0.28643748,4.5051837,9.247863,-3.1525834,-3.3372734,3.4380736,-2.5187001,-0.7757214
0.28368655,4.515526,9.247863,-3.1525834,-3.3372734,3.4380736,-2.5187001,-0.7757214
0.28086823,4.5259275,9.307517,-3.1632361,-3.3862755,3.98874,-1.757344,-0.090979666
0.27801055,4.5363083,9.307517,-3.1632361,-3.3862755,3.98874,-1.757344,-0.090979666
0.27511007,4.54668,9.321365,-3.147257,-3.408646,4.5681367,-0.9720459,0.6895301
0.2721652,4.557052,9.321365,-3.147257,-3.408646,4.5681367,-0.9720459,0.6895301
0.26919457,4.5673532,9.290473,-3.098255,-3.4033196,5.185841,-0.29209262,1.2880806
0.26618665,4.577635,9.290473,-3.098255,-3.4033196,5.185841,-0.29209262,1.2880806
0.26316977,4.5878,9.213774,-3.0140991,-3.3734922,5.6407394,0.30166942,1.9440918
0.2601208,4.597936,9.213774,-3.0140991,-3.3734922,5.6407394,0.30166942,1.9440918
0.25708213,4.607926,9.089138,-2.908638,-3.320229,5.674258,0.6943185,2.9161377
0.25401375,4.6178875,9.089138,-2.908638,-3.320229,5.674258,0.6943185,2.9161377
0.2509898,4.627632,8.91763,-2.7818716,-3.2403343,5.592855,0.91458505,4.0414124
0.24793567,4.6373587,8.91763,-2.7818716,-3.2403343,5.592855,0.91458505,4.0414124
0.24496496,4.6468096,8.701382,-2.631669,-3.1263509,5.391742,0.8714894,5.185841
0.24196406,4.656254,8.701382,-2.631669,-3.1263509,5.391742,0.8714894,5.185841
0.2390794,4.665388,8.443587,-2.469749,-2.9804096,5.0517654,0.6655881,6.191406
0.23615019,4.674573,8.443587,-2.469749,-2.9804096,5.0517654,0.6655881,6.191406
0.23341557,4.683288,8.148509,-2.308894,-2.8025105,4.582502,0.29209262,7.479486
0.23064318,4.692044,8.148509,-2.308894,-2.8025105,4.582502,0.29209262,7.479486
0.22806123,4.700443,7.820408,-2.1512349,-2.5883925,4.036624,-0.20111294,8.580819
0.22545037,4.708864,7.820408,-2.1512349,-2.5883925,4.036624,-0.20111294,8.580819
0.22310181,4.716798,7.462479,-2.0063589,-2.3401859,3.53863,-0.45010993,9.801862
0.22072294,4.7247705,7.462479,-2.0063589,-2.3401859,3.53863,-0.45010993,9.801862
0.21861519,4.7323203,7.075788,-1.8721356,-2.0568254,3.4620156,-1.0773908,10.860099
0.21649559,4.7398553,7.075788,-1.8721356,-2.0568254,3.4620156,-1.0773908,10.860099
0.21467744,4.7469587,6.660335,-1.7464343,-1.7425724,3.490746,-1.4796166,11.8896055
0.2127938,4.7542615,6.660335,-1.7464343,-1.7425724,3.490746,-1.4796166,11.8896055
0.21123257,4.7611027,6.21612,-1.6388427,-1.4134057,4.429273,-3.620033,13.905523
0.20974864,4.767555,6.21612,-1.6388427,-1.4134057,4.429273,-3.620033,13.905523
0.20861974,4.773533,5.766578,-1.5035541,-1.0533463,3.2082303,-4.903325,14.470555
0.20745644,4.779643,5.766578,-1.5035541,-1.0533463,3.2082303,-4.903325,14.470555
0.20666197,4.7853203,5.327689,-1.3735918,-0.6805038,2.8778305,-4.2042184,14.250289
0.20586139,4.790984,5.327689,-1.3735918,-0.6805038,2.8778305,-4.2042184,14.250289
0.20543249,4.7962055,4.880278,-1.2713264,-0.30659592,2.9113493,-3.8355112,14.317327
0.20499778,4.8014164,4.880278,-1.2713264,-0.30659592,2.9113493,-3.8355112,14.317327
0.2049485,4.806129,4.3955827,-1.176518,0.075834006,2.5091233,-3.9360676,14.705187
0.20489351,4.8108425,4.3955827,-1.176518,0.075834006,2.5091233,-3.9360676,14.705187
0.20523492,4.8150215,3.8725379,-1.0806441,0.4689166,2.2936451,-4.185065,15.073894
0.20557055,4.819189,3.8725379,-1.0806441,0.4689166,2.2936451,-4.185065,15.073894
0.20629582,4.8228173,3.3228614,-0.9900966,0.8545423,2.6719291,-4.390966,15.528792
0.2070163,4.8264437,3.3228614,-0.9900966,0.8545423,2.6719291,-4.390966,15.528792
0.20810947,4.8294973,2.757206,-0.8942228,1.2220585,2.9496565,-4.271256,15.44739
0.20919831,4.8325496,2.757206,-0.8942228,1.2220585,2.9496565,-4.271256,15.44739
0.21063706,4.8350115,2.1819632,-0.7866311,1.5650737,2.8203697,-4.1802764,15.275007
0.21206759,4.8374662,2.1819632,-0.7866311,1.5650737,2.8203697,-4.1802764,15.275007
0.21382722,4.8393435,1.6013942,-0.6790394,1.8761309,3.1651347,-4.084508,15.011644
0.21557988,4.841217,1.6013942,-0.6790394,1.8761309,3.1651347,-4.084508,15.011644
0.21557988,4.841217,1.6013942,-0.6790394,1.8761309,3.1651347,-4.084508,15.011644
0.21962951,4.8437796,1.0229555,-0.572513,2.1435122,3.7253778,-3.9360676,14.810532
0.2218805,4.844471,0.4509085,-0.45533386,2.3661525,3.9839516,-3.7014358,14.365211
0.22413532,4.8451653,0.4509085,-0.45533386,2.3661525,3.9839516,-3.7014358,14.365211
0.22658111,4.845276,-0.11261639,-0.3285674,2.5440516,4.6255975,-3.892972,13.996503
0.2290342,4.845388,-0.11261639,-0.3285674,2.5440516,4.6255975,-3.892972,13.996503
0.23163074,4.844925,-0.6633581,-0.18901776,2.6793404,4.0318356,-4.1515455,13.388376
0.23423281,4.844462,-0.6633581,-0.18901776,2.6793404,4.0318356,-4.1515455,13.388376
0.2369504,4.84344,-1.1938598,-0.047337584,2.7752142,3.3854012,-4.333505,12.74673
0.239671,4.8424177,-1.1938598,-0.047337584,2.7752142,3.3854012,-4.333505,12.74673
0.2424592,4.840867,-1.6966647,0.07942889,2.8327384,3.1651347,-4.5298295,12.071565
0.24525085,4.839314,-1.6966647,0.07942889,2.8327384,3.1651347,-4.5298295,12.071565
0.24808228,4.837262,-2.1664462,0.1987385,2.8583047,3.040636,-4.8027687,11.650186
0.25091413,4.83521,-2.1664462,0.1987385,2.8583047,3.040636,-4.8027687,11.650186
0.253764,4.8326874,-2.6064005,0.31485233,2.8615005,2.5378537,-5.1523223,10.998962
0.25661397,4.8301635,-2.6064005,0.31485233,2.8615005,2.5378537,-5.1523223,10.998962
0.259463,4.8272023,-3.0143967,0.42244405,2.8476522,2.0207062,-5.7029886,10.371682
0.26231173,4.824239,-3.0143967,0.42244405,2.8476522,2.0207062,-5.7029886,10.371682
0.26514655,4.8208685,-3.3872392,0.51725256,2.8178246,1.508347,-6.277597,9.68694
0.2679045,4.817585,-3.3872392,0.51725256,2.8178246,1.508347,-6.277597,9.68694
0.2706968,4.813857,-3.7249281,0.5918211,2.774149,0.89543146,-6.885724,8.815451
0.27356333,4.8100247,-3.7249281,0.5918211,2.774149,0.89543146,-6.885724,8.815451
0.27631602,4.8059616,-4.029594,0.6493454,2.7240815,0.17717093,-7.2592196,7.785944
0.27904522,4.8019257,-4.029594,0.6493454,2.7240815,0.17717093,-7.2592196,7.785944
0.28174472,4.79758,-4.301236,0.68876016,2.6729488,-0.5650316,-7.747637,6.885724
0.28445292,4.7932124,-4.301236,0.68876016,2.6729488,-0.5650316,-7.747637,6.885724
0.28709316,4.788615,-4.53879,0.7004781,2.620751,-0.59376204,-8.159439,6.2871737
0.28972867,4.7840176,-4.53879,0.7004781,2.620751,-0.59376204,-8.159439,6.2871737
0.2923056,4.779209,-4.73906,0.6983475,2.5685527,-0.4213795,-8.485051,5.8083334
0.29487997,4.7743955,-4.73906,0.6983475,2.5685527,-0.4213795,-8.485051,5.8083334
0.29739317,4.76941,-4.905241,0.69515175,2.5152895,-0.48841715,-8.892065,5.2049947
0.29990137,4.7644243,-4.905241,0.69515175,2.5152895,-0.48841715,-8.892065,5.2049947
0.3023558,4.759287,-5.041595,0.6940865,2.4630916,-0.7469909,-9.3421755,4.6160207
0.3048051,4.754149,-5.041595,0.6940865,2.4630916,-0.7469909,-9.3421755,4.6160207
0.3071997,4.7488976,-5.151317,0.6898254,2.4130242,-1.1348516,-9.878476,4.132392
0.30959144,4.743641,-5.151317,0.6898254,2.4130242,-1.1348516,-9.878476,4.132392
0.31193322,4.7382965,-5.235473,0.68343383,2.368283,-1.5227122,-10.362105,3.5913026
0.3142719,4.7329473,-5.235473,0.68343383,2.368283,-1.5227122,-10.362105,3.5913026
0.316568,4.7275352,-5.296193,0.67278117,2.3299336,-1.934515,-10.730812,3.0454245
0.3188587,4.7221236,-5.296193,0.67278117,2.3299336,-1.934515,-10.730812,3.0454245
0.32111946,4.7166657,-5.3302817,0.659998,2.3022368,-2.2601264,-11.027693,2.4708161
0.32337275,4.711213,-5.3302817,0.659998,2.3022368,-2.2601264,-11.027693,2.4708161
0.32559472,4.7057447,-5.3377385,0.6450843,2.2819967,-2.432509,-11.334151,1.8914193
0.32781366,4.7002707,-5.3377385,0.6450843,2.2819967,-2.432509,-11.334151,1.8914193
0.3300008,4.694806,-5.3260207,0.6269748,2.2649524,-2.791639,-11.554418,1.1540052
0.33218563,4.6893363,-5.3260207,0.6269748,2.2649524,-2.791639,-11.554418,1.1540052
0.3343302,4.6838856,-5.296193,0.60247374,2.2564304,-3.083732,-11.688493,0.38307226
0.33647472,4.678431,-5.296193,0.60247374,2.2564304,-3.083732,-11.688493,0.38307226
0.33856553,4.672973,-5.252517,0.57158107,2.2489736,-3.371036,-11.702858,-0.2825158
0.34065723,4.667521,-5.252517,0.57158107,2.2489736,-3.371036,-11.702858,-0.2825158
0.34277514,4.662014,-5.203515,0.5364273,2.2457776,-3.6152446,-11.731588,-0.89543146
0.3448783,4.6565113,-5.203515,0.5364273,2.2457776,-3.6152446,-11.731588,-0.89543146
0.3470458,4.6510386,-5.1449256,0.4980778,2.2468429,-3.7014358,-11.587936,-1.5993267
0.34920433,4.645561,-5.1449256,0.4980778,2.2468429,-3.7014358,-11.587936,-1.5993267
0.35137895,4.640147,-5.0842056,0.46185884,2.2489736,-3.6535518,-11.444284,-2.1787236
0.35354677,4.6347275,-5.0842056,0.46185884,2.2489736,-3.6535518,-11.444284,-2.1787236
0.35571846,4.62937,-5.025616,0.42883563,2.2500389,-3.442862,-11.137826,-2.7581203
0.3578842,4.624008,-5.025616,0.42883563,2.2500389,-3.442862,-11.137826,-2.7581203
0.3600378,4.618705,-4.9702225,0.402204,2.243647,-2.9831753,-10.749966,-3.3662477
0.36213666,4.6135178,-4.9702225,0.402204,2.243647,-2.9831753,-10.749966,-3.3662477
0.36426362,4.6082582,-4.9212203,0.3851598,2.2255378,-2.6479871,-10.352529,-3.787627
0.36643884,4.6028614,-4.9212203,0.3851598,2.2255378,-2.6479871,-10.352529,-3.787627
0.36852428,4.597636,-4.879675,0.3851598,2.1935797,-2.3415294,-9.9550905,-4.2904096
0.3705967,4.592427,-4.879675,0.3851598,2.1935797,-2.3415294,-9.9550905,-4.2904096
0.37263632,4.587202,-4.8455863,0.4000735,2.1488385,-2.054225,-9.495404,-4.8745947
0.3746753,4.581962,-4.8455863,0.4000735,2.1488385,-2.054225,-9.495404,-4.8745947
0.37665066,4.57674,-4.82002,0.42883563,2.0913143,-1.9009962,-9.02614,-5.4922986
0.3786567,4.5714183,-4.82002,0.42883563,2.0913143,-1.9009962,-9.02614,-5.4922986
0.38053504,4.566228,-4.8061714,0.47144622,2.0188763,-1.7429788,-8.37013,-6.26802
0.38250068,4.5607758,-4.8061714,0.47144622,2.0188763,-1.7429788,-8.37013,-6.26802
0.38451952,4.55488,-4.8029757,0.52684,1.9400468,-1.8195933,-8.312668,-6.789956
0.38606066,4.5503616,-4.8029757,0.52684,1.9400468,-1.8195933,-8.312668,-6.789956
0.38606066,4.5503616,-4.8029757,0.52684,1.9400468,-1.8195933,-8.312668,-6.789956
0.38606066,4.5503616,-4.8029757,0.52684,1.9400468,-1.8195933,-8.312668,-6.789956
0.39069617,4.534845,-4.804041,0.6514759,1.7632129,-1.532289,-8.480263,-7.5704656
0.39241698,4.529029,-4.804041,0.6514759,1.7632129,-1.532289,-8.480263,-7.5704656
0.39241698,4.529029,-4.804041,0.6514759,1.7632129,-1.532289,-8.480263,-7.5704656
0.39488053,4.5200944,-4.796584,0.7228486,1.6694696,-2.0638018,-8.207323,-8.355764
0.39618394,4.5153356,-4.796584,0.7228486,1.6694696,-2.0638018,-8.207323,-8.355764
0.39809093,4.5078287,-4.7901926,0.79635185,1.5821179,-2.4420857,-8.159439,-8.791509
0.39940584,4.502223,-4.783801,0.8560067,1.5000926,-2.408567,-8.197746,-9.198523
0.39940584,4.502223,-4.783801,0.8560067,1.5000926,-2.408567,-8.197746,-9.198523
0.40182525,4.491648,-4.77954,0.90926987,1.421263,-2.2266076,-8.63828,-9.313444
0.4029753,4.486236,-4.77954,0.90926987,1.421263,-2.2266076,-8.63828,-9.313444
0.4040481,4.4808245,-4.766757,0.9667942,1.3541514,-2.920926,-8.710106,-9.77792
0.40512085,4.4753704,-4.766757,0.9667942,1.3541514,-2.920926,-8.710106,-9.77792
0.40512085,4.4753704,-4.766757,0.9667942,1.3541514,-2.920926,-8.710106,-9.77792
0.4070892,4.4644966,-4.7422557,1.0200574,1.2955618,-2.7485435,-9.131485,-9.854534
0.407998,4.459121,-4.7007103,1.0701249,1.2486901,-2.9735985,-9.557653,-10.0987425
0.4089026,4.4537206,-4.7007103,1.0701249,1.2486901,-2.9735985,-9.557653,-10.0987425
0.4097579,4.4483447,-4.642121,1.1244533,1.215667,-3.347094,-9.988609,-10.34774
0.4106051,4.442966,-4.642121,1.1244533,1.215667,-3.347094,-9.988609,-10.34774
0.4114197,4.4376407,-4.5643563,1.1766512,1.1986227,-3.8594532,-10.228029,-10.620679
0.4122267,4.4323072,-4.5643563,1.1766512,1.1986227,-3.8594532,-10.228029,-10.620679
0.41301724,4.427063,-4.4652867,1.216066,1.1975574,-4.3861775,-10.563218,-10.860099
0.4138002,4.4218106,-4.4652867,1.216066,1.1975574,-4.3861775,-10.563218,-10.860099
0.41458207,4.416665,-4.3459773,1.2352408,1.2114059,-4.486734,-10.845734,-11.066
0.41535544,4.4115157,-4.3459773,1.2352408,1.2114059,-4.486734,-10.845734,-11.066
0.4161386,4.4065022,-4.204297,1.2373713,1.231646,-4.5537715,-11.085154,-11.200075
0.41691345,4.401485,-4.204297,1.2373713,1.231646,-4.5537715,-11.085154,-11.200075
0.4177045,4.3966293,-4.0413117,1.2277839,1.256147,-4.5154643,-11.252748,-11.228806
0.41848752,4.3917704,-4.0413117,1.2277839,1.256147,-4.5154643,-11.252748,-11.228806
0.41931194,4.3869324,-3.8602169,1.216066,1.2785176,-4.3718123,-11.291056,-11.219229
0.42018208,4.381768,-3.8602169,1.216066,1.2785176,-4.3718123,-11.291056,-11.219229
0.42018208,4.381768,-3.8602169,1.216066,1.2785176,-4.3718123,-11.291056,-11.219229
0.42172027,4.37316,-3.6610124,1.2054135,1.3008882,-4.357447,-11.281479,-11.15698
0.42250073,4.36905,-3.4479594,1.1968913,1.3189976,-4.429273,-11.18571,-11.061212
0.42329925,4.3648047,-3.4479594,1.1968913,1.3189976,-4.429273,-11.18571,-11.061212
0.42411613,4.3607416,-3.228515,1.1904997,1.3371071,-4.4244847,-11.180922,-11.046846
0.42492598,4.3566756,-3.228515,1.1904997,1.3371071,-4.4244847,-11.180922,-11.046846
0.42574525,4.352836,-3.0016136,1.1798471,1.3509556,-4.3957543,-11.171345,-10.979809
0.42655778,4.348994,-3.0016136,1.1798471,1.3509556,-4.3957543,-11.171345,-10.979809
0.4273731,4.345388,-2.7704513,1.167064,1.3573471,-4.390966,-11.200075,-10.888829
0.42818367,4.341772,-2.7704513,1.167064,1.3573471,-4.390966,-11.200075,-10.888829
0.4289924,4.3384013,-2.5350277,1.1489544,1.3562819,-4.4196963,-11.271901,-10.7356
0.42979535,4.3350277,-2.5350277,1.1489544,1.3562819,-4.4196963,-11.271901,-10.7356
0.43059045,4.3319063,-2.2932127,1.1255186,1.3466945,-4.4101195,-11.372458,-10.457873
0.43138185,4.3287754,-2.2932127,1.1255186,1.3466945,-4.4101195,-11.372458,-10.457873
0.432155,4.325916,-2.045006,1.0956912,1.3275198,-4.2904096,-11.540052,-10.156203
0.4329227,4.323056,-2.045006,1.0956912,1.3275198,-4.2904096,-11.540052,-10.156203
0.43366873,4.320468,-1.7925384,1.0573417,1.2955618,-4.285621,-11.664551,-9.873688
0.43441048,4.3178773,-1.7925384,1.0573417,1.2955618,-4.285621,-11.664551,-9.873688
0.43513227,4.315552,-1.5347445,1.0115353,1.2550818,-4.343082,-11.798626,-9.634268
0.43583944,4.31326,-1.5347445,1.0115353,1.2550818,-4.343082,-11.798626,-9.634268
0.43651897,4.3112535,-1.2684283,0.954011,1.2018186,-4.333505,-11.841722,-9.466674
0.43720046,4.30923,-1.2684283,0.954011,1.2018186,-4.333505,-11.841722,-9.466674
0.43783656,4.307536,-0.99891645,0.88370353,1.1357721,-4.280833,-11.918336,-9.270349
0.43846807,4.3058453,-0.99891645,0.88370353,1.1357721,-4.280833,-11.918336,-9.270349
0.4390569,4.304476,-0.7208824,0.8016782,1.0569426,-4.232949,-11.942278,-8.983045
0.43964362,4.303105,-0.7208824,0.8016782,1.0569426,-4.232949,-11.942278,-8.983045
0.4401779,4.3020782,-0.43539152,0.7079349,0.9653298,-4.1132383,-11.918336,-8.78672
0.4407107,4.301051,-0.43539152,0.7079349,0.9653298,-4.1132383,-11.918336,-8.78672
0.4411838,4.30038,-0.14457433,0.6067348,0.8630644,-3.98874,-11.903971,-8.494628
0.44165578,4.2997093,-0.14457433,0.6067348,0.8630644,-3.98874,-11.903971,-8.494628
0.442065,4.299406,0.15476498,0.4991431,0.74908113,-4.0414124,-11.9135475,-8.346188
0.44247344,4.299103,0.15476498,0.4991431,0.74908113,-4.0414124,-11.9135475,-8.346188
0.4428122,4.2991815,0.4604959,0.38409454,0.62551045,-4.098873,-11.9614315,-8.039729
0.4431445,4.299258,0.4604959,0.38409454,0.62551045,-4.098873,-11.9614315,-8.039729
0.4434077,4.2997313,0.77261835,0.25839332,0.4923524,-4.146757,-12.023681,-7.8146744
0.44367605,4.300213,0.77261835,0.25839332,0.4923524,-4.146757,-12.023681,-7.8146744
0.44386068,4.301097,1.0921977,0.11990894,0.3517375,-4.0414124,-12.047623,-7.61835
0.44404495,4.3019757,1.0921977,0.11990894,0.3517375,-4.0414124,-12.047623,-7.61835
0.44414547,4.303298,1.4181687,-0.026032293,0.20260048,-3.9983168,-12.124237,-7.321469
0.44424462,4.3045955,1.4181687,-0.026032293,0.20260048,-3.9983168,-12.124237,-7.321469
0.44425225,4.306339,1.7526617,-0.17623459,0.0460066,-3.9312792,-12.191275,-7.0245876
0.4442603,4.3080835,1.7526617,-0.17623459,0.0460066,-3.9312792,-12.191275,-7.0245876
0.4441709,4.3102756,2.0924811,-0.33069792,-0.11804412,-3.821146,-12.220005,-6.7851677
0.4440817,4.312462,2.0924811,-0.33069792,-0.11804412,-3.821146,-12.220005,-6.7851677
0.44389316,4.3151264,2.4397573,-0.4872918,-0.28422537,-3.8402996,-12.272678,-6.5744777
0.4437059,4.317766,2.4397573,-0.4872918,-0.28422537,-3.8402996,-12.272678,-6.5744777
0.443419,4.3208513,2.7923598,-0.6460162,-0.45253718,-3.8163576,-12.301409,-6.373365
0.44313148,4.3239307,2.7923598,-0.6460162,-0.45253718,-3.8163576,-12.301409,-6.373365
0.44273943,4.3274813,3.1460276,-0.8047406,-0.6240447,-3.7732618,-12.186486,-6.205771
0.4423453,4.3310294,3.1460276,-0.8047406,-0.6240447,-3.7732618,-12.186486,-6.205771
0.44184145,4.3350387,3.5007606,-0.9623997,-0.7976828,-3.7828386,-12.052411,-5.9424086
0.44133565,4.339036,3.5007606,-0.9623997,-0.7976828,-3.7828386,-12.052411,-5.9424086
0.44072214,4.3434787,3.8512325,-1.1200589,-0.97451675,-3.7301662,-11.803414,-5.9424086
0.44010422,4.3479176,3.8512325,-1.1200589,-0.97451675,-3.7301662,-11.803414,-5.9424086
0.43937317,4.352795,4.195313,-1.2766528,-1.1492201,-3.6822822,-11.549629,-5.7604494
0.43863514,4.3576765,4.195313,-1.2766528,-1.1492201,-3.6822822,-11.549629,-5.7604494
0.43778795,4.3629694,4.528741,-1.4289856,-1.3185972,-3.6774938,-11.324574,-5.659893
0.43693385,4.3682566,4.528741,-1.4289856,-1.3185972,-3.6774938,-11.324574,-5.659893
0.43595892,4.3739576,4.8547115,-1.5759921,-1.4869089,-3.514688,-11.070788,-5.4539914
0.43497518,4.379652,4.8547115,-1.5759921,-1.4869089,-3.514688,-11.070788,-5.4539914
0.4338333,4.3859386,5.174291,-1.716607,-1.6498944,-3.3758245,-10.888829,-5.2145715
0.43275017,4.391839,5.174291,-1.716607,-1.6498944,-3.3758245,-10.888829,-5.2145715
0.43151364,4.398308,5.4832177,-1.8486998,-1.8107493,-3.3806129,-10.577583,-5.094861
0.43026638,4.4047604,5.4832177,-1.8486998,-1.8107493,-3.3806129,-10.577583,-5.094861
0.42890766,4.411554,5.7836223,-1.9733357,-1.9684085,-3.5817258,-10.266336,-4.960786
0.42751458,4.41844,5.7836223,-1.9733357,-1.9684085,-3.5817258,-10.266336,-4.960786
0.4260254,4.4255276,6.0744395,-2.0937107,-2.1132843,-2.9783869,-9.859323,-5.0038815
0.42450368,4.432683,6.0744395,-2.0937107,-2.1132843,-2.9783869,-9.859323,-5.0038815
0.42286623,4.4401555,6.350343,-2.2013023,-2.2517688,-2.6240451,-9.461885,-5.315128
0.42121065,4.4476166,6.350343,-2.2013023,-2.2517688,-2.6240451,-9.461885,-5.315128
0.41943324,4.4553924,6.6092024,-2.2950456,-2.3849268,-2.5234885,-9.030929,-5.363012
0.41764146,4.463132,6.6092024,-2.2950456,-2.3849268,-2.5234885,-9.030929,-5.363012
0.41572204,4.4711657,6.845691,-2.3760056,-2.5095627,-2.1978772,-8.418014,-5.2863975
0.413785,4.4791694,6.845691,-2.3760056,-2.5095627,-2.1978772,-8.418014,-5.2863975
0.41170442,4.487482,7.0576787,-2.4367259,-2.6256766,-1.7621324,-7.666234,-4.999093
0.40953788,4.496026,7.0576787,-2.4367259,-2.6256766,-1.7621324,-7.666234,-4.999093
0.40953788,4.496026,7.0576787,-2.4367259,-2.6256766,-1.7621324,-7.666234,-4.999093
0.40512535,4.5127115,7.239839,-2.4665532,-2.7268767,-1.1587936,-6.8905125,-4.55856
0.40281633,4.5210543,7.3953676,-2.461227,-2.8195548,-0.45968673,-6.0764837,-3.9264908
0.400432,4.5295687,7.3953676,-2.461227,-2.8195548,-0.45968673,-6.0764837,-3.9264908
0.3979093,4.538209,7.5157423,-2.4207468,-2.905841,0.023942016,-5.4061074,-3.2848446
0.39536354,4.5468307,7.5157423,-2.4207468,-2.905841,0.023942016,-5.4061074,-3.2848446
0.39268976,4.5555077,7.6009636,-2.3504393,-2.9836056,0.29688102,-4.745308,-2.5091233
0.38998273,4.5642,7.6009636,-2.3504393,-2.9836056,0.29688102,-4.745308,-2.5091233
0.38717806,4.5728207,7.643574,-2.2492392,-3.0485866,0.62249243,-4.1371803,-1.6136919
0.38431472,4.5815334,7.643574,-2.2492392,-3.0485866,0.62249243,-4.1371803,-1.6136919
0.38139156,4.5901237,7.6403785,-2.119277,-3.0954583,1.0726024,-3.4859576,-0.63206923
0.378441,4.598711,7.6403785,-2.119277,-3.0954583,1.0726024,-3.4859576,-0.63206923
0.37544203,4.6072497,7.58605,-1.9637483,-3.1242204,1.4748282,-2.8921957,0.45010993
0.37242568,4.6157618,7.58605,-1.9637483,-3.1242204,1.4748282,-2.8921957,0.45010993
0.36940318,4.624082,7.4773927,-1.7858492,-3.1359384,1.6998832,-2.2744915,1.4987702
0.36634165,4.6324434,7.4773927,-1.7858492,-3.1359384,1.6998832,-2.2744915,1.4987702
0.36328655,4.6405306,7.313342,-1.591971,-3.1316774,1.9488802,-1.7477672,2.7102363
0.36022553,4.6485777,7.313342,-1.591971,-3.1316774,1.9488802,-1.7477672,2.7102363
0.35717246,4.656319,7.0928326,-1.3874403,-3.1061108,2.3654714,-1.2210429,3.9360676
0.35410997,4.664039,7.0928326,-1.3874403,-3.1061108,2.3654714,-1.2210429,3.9360676
0.35108024,4.671378,6.813733,-1.1733221,-3.0603046,2.944868,-0.7182605,5.133168
0.34803155,4.678726,6.813733,-1.1733221,-3.0603046,2.944868,-0.7182605,5.133168
0.34504113,4.68562,6.476044,-0.9485513,-2.9963887,3.7349546,-0.23463176,6.172252
0.34203124,4.6925306,6.476044,-0.9485513,-2.9963887,3.7349546,-0.23463176,6.172252
0.3391009,4.698928,6.0787005,-0.71312785,-2.916494,4.4436383,0.24899697,7.2687964
0.33616832,4.70531,6.0787005,-0.71312785,-2.916494,4.4436383,0.24899697,7.2687964
0.33330318,4.7111793,5.624898,-0.46811703,-2.8270116,5.2720323,0.8379706,8.374918
0.33044654,4.717018,5.624898,-0.46811703,-2.8270116,5.2720323,0.8379706,8.374918
0.3276873,4.7222533,5.1157017,-0.2145841,-2.7290072,6.1004257,1.4317327,9.3182335
0.32493517,4.727468,5.1157017,-0.2145841,-2.7290072,6.1004257,1.4317327,9.3182335
0.3222823,4.732047,4.5521765,0.04427516,-2.6256766,6.229713,2.5187001,9.940725
0.31962705,4.7366266,4.5521765,0.04427516,-2.6256766,6.229713,2.5187001,9.940725
0.31709537,4.740486,3.9407148,0.3010039,-2.5212808,7.1873937,3.083732,10.764331
0.31455472,4.744359,3.9407148,0.3010039,-2.5212808,7.1873937,3.083732,10.764331
0.31212902,4.747503,3.2866426,0.5406884,-2.416885,6.8330517,2.1978772,11.96622
0.30977523,4.750555,3.2866426,0.5406884,-2.416885,6.8330517,2.1978772,11.96622
0.30749646,4.7529554,2.6165912,0.7803729,-2.2858572,5.693412,1.2258313,12.713211
0.3051561,4.755424,2.6165912,0.7803729,-2.2858572,5.693412,1.2258313,12.713211
0.3051561,4.755424,1.2924675,1.1468239,-1.9694737,5.118803,1.5705963,13.900735
0.29852661,4.7587423,1.2924675,1.1468239,-1.9694737,5.118803,1.5705963,13.900735
0.29852661,4.7587423,1.2924675,1.1468239,-1.9694737,5.118803,1.5705963,13.900735
0.29852661,4.7587423,1.2924675,1.1468239,-1.9694737,5.118803,1.5705963,13.900735
0.29561278,4.7597055,0.6245466,1.2703946,-1.7766609,4.525041,1.0295067,14.633361
0.29561278,4.7597055,0.6245466,1.2703946,-1.7766609,4.525041,1.0295067,14.633361
0.2925611,4.75889,-0.03698262,1.3545505,-1.563608,4.644751,0.07182605,15.485697
0.29091302,4.758454,-0.03698262,1.3545505,-1.563608,4.644751,0.07182605,15.485697
0.2897736,4.757525,-0.67614126,1.4088789,-1.3335109,4.745308,-0.9624691,16.247053
0.28848737,4.7564793,-0.67614126,1.4088789,-1.3335109,4.745308,-0.9624691,16.247053
0.2874474,4.75482,-1.2822767,1.4568158,-1.0853043,4.477157,-1.7812861,16.290148
0.28640607,4.7531643,-1.2822767,1.4568158,-1.0853043,4.477157,-1.7812861,16.290148
0.28562048,4.750929,-1.8479322,1.4941001,-0.8243145,3.8019924,-2.705448,16.041151
0.28562048,4.750929,-1.8479322,1.4941001,-0.8243145,3.8019924,-2.705448,16.041151
0.28457862,4.7453856,-2.374173,1.5111443,-0.552672,3.466804,-3.6343982,15.658079
0.2840611,4.7426667,-2.374173,1.5111443,-0.552672,3.466804,-3.6343982,15.658079
0.28381434,4.7394476,-2.8535419,1.510079,-0.2714422,2.9640217,-4.5441947,15.126566
0.28381434,4.7394476,-2.8535419,1.510079,-0.2714422,2.9640217,-4.5441947,15.126566
0.2838916,4.7321243,-3.289235,1.4983611,0.022570781,2.408567,-5.506664,14.480132
0.28392237,4.72843,-3.289235,1.4983611,0.022570781,2.408567,-5.506664,14.480132
0.28424397,4.724451,-3.684448,1.4727948,0.32510588,1.9728222,-6.5265937,13.9438305
0.28456375,4.7204227,-3.684448,1.4727948,0.32510588,1.9728222,-6.5265937,13.9438305
0.28519362,4.7160273,-4.0370507,1.4387063,0.63722837,1.2210429,-7.4124484,13.522451
0.28581363,4.7116566,-4.0370507,1.4387063,0.63722837,1.2210429,-7.4124484,13.522451
0.28674564,4.706981,-4.3459773,1.3960958,0.9536119,0.49320555,-8.944737,13.469779
0.2876738,4.7022886,-4.3459773,1.3960958,0.9536119,0.49320555,-8.944737,13.469779
0.28891417,4.6973515,-4.603771,1.3364409,1.2710607,0.4357447,-8.939949,13.057976
0.29029512,4.691818,-4.603771,1.3364409,1.2710607,0.4357447,-8.939949,13.057976
0.29164386,4.6873126,-4.8168244,1.2618724,1.5799874,-0.12449849,-10.304645,12.583924
0.29316762,4.6821976,-4.8168244,1.2618724,1.5799874,-0.12449849,-10.304645,12.583924
0.29498982,4.6769094,-4.9830055,1.1734555,1.8750657,-0.22505496,-10.534488,11.860875
0.2967911,4.671659,-4.9830055,1.1734555,1.8750657,-0.22505496,-10.534488,11.860875
0.29886857,4.666286,-5.10338,1.0658637,2.1445775,-0.4357447,-10.491392,11.061212
0.30095223,4.6608744,-5.10338,1.0658637,2.1445775,-0.4357447,-10.491392,11.061212
0.30327526,4.655421,-5.1875362,0.9508152,2.3917189,-0.4261679,-10.821792,10.5440645
0.30559012,4.6499653,-5.1875362,0.9508152,2.3917189,-0.4261679,-10.821792,10.5440645
0.3081249,4.644493,-5.235473,0.8368319,2.6143591,-0.51235914,-10.960655,9.65821
0.31064904,4.6390243,-5.235473,0.8368319,2.6143591,-0.51235914,-10.960655,9.65821
0.31336904,4.633555,-5.2450604,0.71965283,2.8050416,-0.1436521,-10.970232,8.585608
0.31607318,4.6281,-5.2450604,0.71965283,2.8050416,-0.1436521,-10.970232,8.585608
0.3189387,4.6226773,-5.221625,0.60780007,2.9573743,-0.19153613,-10.812215,7.431602
0.32179964,4.6172466,-5.221625,0.60780007,2.9573743,-0.19153613,-10.812215,7.431602
0.3247874,4.6118693,-5.174753,0.5087305,3.0734882,-0.34955344,-10.596737,6.3542113
0.32776797,4.6064887,-5.174753,0.5087305,3.0734882,-0.34955344,-10.596737,6.3542113
0.3308146,4.601229,-5.1119027,0.41498718,3.1597745,-0.35434186,-10.323798,5.3725886
0.33387583,4.5959296,-5.1119027,0.41498718,3.1597745,-0.35434186,-10.323798,5.3725886
0.33709732,4.590553,-5.0405297,0.33189657,3.2194295,-0.36391866,-10.160992,4.5681367
0.3401095,4.585512,-5.0405297,0.33189657,3.2194295,-0.36391866,-10.160992,4.5681367
0.34325808,4.580395,-4.964896,0.26371965,3.2545831,-0.6512229,-9.911995,3.6152446
0.34642518,4.5752344,-4.964896,0.26371965,3.2545831,-0.6512229,-9.911995,3.6152446
0.34958968,4.5701923,-4.888197,0.20939115,3.2716274,-1.0390835,-9.710882,2.5378537
0.35274774,4.565148,-4.888197,0.20939115,3.2716274,-1.0390835,-9.710882,2.5378537
0.35591227,4.560186,-4.8114977,0.15825845,3.2748232,-1.3694834,-9.476251,1.7046716
0.35907048,4.5552206,-4.8114977,0.15825845,3.2748232,-1.3694834,-9.476251,1.7046716
0.36221257,4.550337,-4.7369294,0.10819103,3.257779,-1.6567876,-9.390059,0.94810385
0.3653549,4.5454407,-4.7369294,0.10819103,3.257779,-1.6567876,-9.390059,0.94810385
0.36845717,4.5406327,-4.6612954,0.06344992,3.2268863,-1.9057846,-9.409213,0.25378537
0.3715474,4.535832,-4.6612954,0.06344992,3.2268863,-1.9057846,-9.409213,0.25378537
0.3745987,4.5310817,-4.5877924,0.026165664,3.1874714,-2.0398598,-9.471462,-0.3878607
0.37767223,4.526286,-4.5877924,0.026165664,3.1874714,-2.0398598,-9.471462,-0.3878607
0.380769,4.521405,-4.514289,-0.0025964756,3.137404,-2.0733786,-9.44752,-0.93852705
0.38402778,4.5162582,-4.514289,-0.0025964756,3.137404,-2.0733786,-9.44752,-0.93852705
0.38676396,4.5118413,-4.4397206,-0.020705972,3.0756187,-2.1691468,-9.409213,-1.6184803
0.38938066,4.507612,-4.4397206,-0.020705972,3.0756187,-2.1691468,-9.409213,-1.6184803
0.39217135,4.5030084,-4.365152,-0.029228088,3.004246,-2.2409728,-9.495404,-2.2984335
0.3949778,4.4983683,-4.365152,-0.029228088,3.004246,-2.2409728,-9.495404,-2.2984335
0.3977264,4.4937654,-4.288453,-0.030293351,2.9254165,-2.3798366,-9.581595,-2.954445
0.40048066,4.4891396,-4.288453,-0.030293351,2.9254165,-2.3798366,-9.581595,-2.954445
0.40317813,4.484549,-4.2096233,-0.026032293,2.8338037,-2.5330653,-9.672575,-3.6727054
0.40583804,4.4800076,-4.2096233,-0.026032293,2.8338037,-2.5330653,-9.672575,-3.6727054
0.4084302,4.4754963,-4.130794,-0.019640706,2.734734,-2.4995465,-9.792285,-4.2042184
0.41097602,4.4710517,-4.130794,-0.019640706,2.734734,-2.4995465,-9.792285,-4.2042184
0.41344997,4.4666357,-4.049834,-0.011118591,2.6271424,-2.6048915,-9.892841,-4.7740383
0.41591665,4.4622188,-4.049834,-0.011118591,2.6271424,-2.6048915,-9.892841,-4.7740383
0.41827807,4.457869,-3.9646127,0.0016645822,2.5099633,-2.6192567,-9.864111,-5.2289367
0.42063746,4.45351,-3.9646127,0.0016645822,2.5099633,-2.6192567,-9.864111,-5.2289367
0.42287204,4.4492416,-3.8793914,0.017643549,2.3874578,-2.6719291,-9.959879,-5.722142
0.42510247,4.4449677,-3.8793914,0.017643549,2.3874578,-2.6719291,-9.959879,-5.722142
0.42721048,4.4407797,-3.7909746,0.037883572,2.2617567,-2.9783869,-10.151415,-6.042965
0.4293123,4.43659,-3.7909746,0.037883572,2.2617567,-2.9783869,-10.151415,-6.042965
0.4312757,4.432502,-3.6951008,0.057058334,2.1328597,-2.920926,-10.649409,-6.277597
0.43323895,4.4284,-3.6951008,0.057058334,2.1328597,-2.920926,-10.649409,-6.277597
0.43508986,4.4244027,-3.5843132,0.07516783,2.0028975,-3.2225955,-10.093954,-7.144298
0.4369353,4.4204044,-3.5843132,0.07516783,2.0028975,-3.2225955,-10.093954,-7.144298
0.4386567,4.416524,-3.4681995,0.090081535,1.8697393,-3.4763808,-9.801862,-7.6135616
0.4403746,4.4126396,-3.4681995,0.090081535,1.8697393,-3.4763808,-9.801862,-7.6135616
0.44197774,4.408871,-3.3563466,0.100734174,1.7440381,-3.9312792,-9.744401,-8.1881695
0.44357756,4.4050994,-3.3563466,0.100734174,1.7440381,-3.9312792,-9.744401,-8.1881695
0.44505593,4.4014487,-3.248755,0.100734174,1.6247286,-3.739743,-9.911995,-8.389283
0.44653136,4.3977947,-3.248755,0.100734174,1.6247286,-3.739743,-9.911995,-8.389283
0.4478957,4.394265,-3.1411633,0.09540785,1.5118105,-3.7062242,-10.16578,-8.585608
0.44925457,4.390739,-3.1411633,0.09540785,1.5118105,-3.7062242,-10.16578,-8.585608
0.45051596,4.387334,-3.0239842,0.09327733,1.405284,-3.8977604,-10.46745,-8.901642
0.45177475,4.3839254,-3.0239842,0.09327733,1.405284,-3.8977604,-10.46745,-8.901642
0.45293596,4.3806643,-2.8972178,0.0911468,1.3030187,-4.1515455,-10.644621,-9.131485
0.45409724,4.3773937,-2.8972178,0.0911468,1.3030187,-4.1515455,-10.644621,-9.131485
0.45516178,4.3742824,-2.7587333,0.08368994,1.2039491,-4.1419687,-10.927136,-9.380483
0.4562242,4.371169,-2.7587333,0.08368994,1.2039491,-4.1419687,-10.927136,-9.380483
0.45719993,4.3682246,-2.6074657,0.074102566,1.1091405,-4.223372,-11.013328,-9.639056
0.45817372,4.365278,-2.6074657,0.074102566,1.1091405,-4.223372,-11.013328,-9.639056
0.459072,4.362506,-2.446611,0.06877624,1.0249846,-4.4340615,-11.061212,-9.864111
0.45996946,4.3597293,-2.446611,0.06877624,1.0249846,-4.4340615,-11.061212,-9.864111
0.46079668,4.3571405,-2.2761686,0.06451519,0.9472203,-4.6112323,-10.941502,-10.0748005
0.46162295,4.354548,-2.2761686,0.06451519,0.9472203,-4.6112323,-10.941502,-10.0748005
0.46238562,4.352141,-2.1014652,0.061319392,0.8769129,-4.6016555,-10.730812,-10.386047
0.46314695,4.3497324,-2.1014652,0.061319392,0.8769129,-4.6016555,-10.730812,-10.386047
0.4638506,4.347507,-1.927827,0.060254127,0.8140623,-4.5394063,-10.414778,-10.500969
0.46455306,4.3452806,-1.927827,0.060254127,0.8140623,-4.5394063,-10.414778,-10.500969
0.46520305,4.3432274,-1.7605805,0.06344992,0.7597338,-4.367024,-10.084377,-10.7116585
0.46585193,4.341173,-1.7605805,0.06344992,0.7597338,-4.367024,-10.084377,-10.7116585
0.46644905,4.3392787,-1.6039866,0.073037304,0.7096664,-4.1611223,-9.801862,-10.783484
0.46704525,4.3373833,-1.6039866,0.073037304,0.7096664,-4.1611223,-9.801862,-10.783484
0.4675908,4.3356347,-1.4569801,0.090081535,0.66385996,-3.9743748,-9.591172,-10.874464
0.4681355,4.3338847,-1.4569801,0.090081535,0.66385996,-3.9743748,-9.591172,-10.874464
0.46862835,4.3322687,-1.3216915,0.11458261,0.6180536,-4.0557775,-9.562442,-10.745177
0.4691214,4.3306484,-1.3216915,0.11458261,0.6180536,-4.0557775,-9.562442,-10.745177
0.46956044,4.3291483,-1.1970556,0.14654055,0.5733125,-4.2042184,-9.691729,-10.46745
0.46999848,4.327647,-1.1970556,0.14654055,0.5733125,-4.2042184,-9.691729,-10.46745
0.47038132,4.326261,-1.077746,0.17743322,0.5275061,-4.3478703,-9.940725,-10.228029
0.47076336,4.324874,-1.077746,0.17743322,0.5275061,-4.3478703,-9.940725,-10.228029
0.47109383,4.3236012,-0.95843637,0.2083259,0.4870261,-4.4101195,-10.13705,-9.916783
0.4714236,4.3223276,-0.95843637,0.2083259,0.4870261,-4.4101195,-10.13705,-9.916783
0.4717045,4.321171,-0.83912677,0.2349575,0.4508071,-4.4101195,-10.477027,-9.619903
0.47198457,4.3200145,-0.83912677,0.2349575,0.4508071,-4.4101195,-10.477027,-9.619903
0.4722228,4.31898,-0.71449083,0.25945857,0.41671863,-4.620809,-10.730812,-9.437943
0.4724618,4.3179407,-0.71449083,0.25945857,0.41671863,-4.620809,-10.730812,-9.437943
0.4726623,4.3170304,-0.5866591,0.27650282,0.38582596,-4.711789,-11.003751,-9.255983
0.47286224,4.31612,-0.5866591,0.27650282,0.38582596,-4.711789,-11.003751,-9.255983
0.4730341,4.3153486,-0.45243576,0.2828944,0.36025962,-4.8937483,-11.281479,-8.992621
0.4732056,4.314576,-0.45243576,0.2828944,0.36025962,-4.8937483,-11.281479,-8.992621
0.47335216,4.3139534,-0.31288612,0.27756807,0.33469325,-4.9943047,-11.525687,-8.714894
0.47349834,4.31333,-0.31288612,0.27756807,0.33469325,-4.9943047,-11.525687,-8.714894
0.47362396,4.312868,-0.16801015,0.25945857,0.3091269,-5.070919,-11.750742,-8.456321
0.47374922,4.3124065,-0.16801015,0.25945857,0.3091269,-5.070919,-11.750742,-8.456321
0.4738609,4.312116,-0.01674259,0.22963117,0.28462583,-5.1140146,-11.84651,-8.240842
0.47397244,4.3118258,-0.01674259,0.22963117,0.28462583,-5.1140146,-11.84651,-8.240842
0.47406948,4.311722,0.14198181,0.18915112,0.25692895,-5.0757074,-11.942278,-8.0445175
0.47416648,4.311618,0.14198181,0.18915112,0.25692895,-5.0757074,-11.942278,-8.0445175
0.474249,4.311714,0.30922833,0.13695318,0.22070996,-5.0038815,-11.841722,-7.920019
0.4743316,4.31181,0.30922833,0.13695318,0.22070996,-5.0038815,-11.841722,-7.920019
0.47439435,4.3121204,0.48286644,0.07516783,0.17916466,-4.8841715,-11.851298,-7.704541
0.47445723,4.312431,0.48286644,0.07516783,0.17916466,-4.8841715,-11.851298,-7.704541
0.4744932,4.31297,0.66289616,0.003795111,0.1269667,-4.6830587,-11.750742,-7.4363904
0.4745294,4.313509,0.66289616,0.003795111,0.1269667,-4.6830587,-11.750742,-7.4363904
0.47453016,4.314294,0.8525132,-0.07503446,0.06518136,-4.4675803,-11.693281,-7.1059904
0.47453114,4.315078,0.8525132,-0.07503446,0.06518136,-4.4675803,-11.693281,-7.1059904
0.47449338,4.316126,1.0506524,-0.15599456,-0.004060829,-4.261679,-11.563994,-6.8809357
0.47445643,4.3171563,1.0506524,-0.15599456,-0.004060829,-4.261679,-11.563994,-6.8809357
0.474371,4.3184605,1.2605095,-0.23162833,-0.0828904,-4.122815,-11.51611,-6.7372837
0.47428557,4.319763,1.2605095,-0.23162833,-0.0828904,-4.122815,-11.51611,-6.7372837
0.47428557,4.319763,1.2605095,-0.23162833,-0.0828904,-4.122815,-11.51611,-6.7372837
0.47428557,4.319763,1.4746276,-0.30087054,-0.16917682,-4.003105,-11.415554,-6.6079965
0.4738161,4.3246803,1.6919416,-0.3647864,-0.26078957,-3.6248214,-11.27669,-6.4643445
0.4736082,4.3265057,1.6919416,-0.3647864,-0.26078957,-3.6248214,-11.27669,-6.4643445
0.4736082,4.3265057,1.6919416,-0.3647864,-0.26078957,-3.6248214,-11.27669,-6.4643445
0.47305137,4.3305883,1.9049945,-0.4212454,-0.35985917,-3.323152,-11.027693,-6.191406
0.4726594,4.3330674,2.10846,-0.46598652,-0.46532035,-3.107674,-10.726024,-5.9759274
0.47228736,4.335414,2.10846,-0.46598652,-0.46532035,-3.107674,-10.726024,-5.9759274
0.47183314,4.33793,2.3002076,-0.4990097,-0.5707815,-2.882619,-10.496181,-5.602432
0.4713688,4.3404956,2.3002076,-0.4990097,-0.5707815,-2.882619,-10.496181,-5.602432
0.47080335,4.343274,2.4738457,-0.51924974,-0.6805038,-2.7389667,-10.160992,-5.243302
0.47023046,4.34608,2.4738457,-0.51924974,-0.6805038,-2.7389667,-10.160992,-5.243302
0.4695533,4.3490567,2.628309,-0.53096765,-0.790226,-2.60968,-9.988609,-4.7500963
0.46888128,4.3520007,2.628309,-0.53096765,-0.790226,-2.60968,-9.988609,-4.7500963
0.4680942,4.3551335,2.7635977,-0.536294,-0.90207875,-2.5617957,-9.758766,-4.3239284
0.46729198,4.358316,2.7635977,-0.536294,-0.90207875,-2.5617957,-9.758766,-4.3239284
0.46639025,4.3615966,2.8786461,-0.5352287,-1.0128663,-2.4851813,-9.65821,-3.9217024
0.46549618,4.3648367,2.8786461,-0.5352287,-1.0128663,-2.4851813,-9.65821,-3.9217024
0.4644838,4.3682485,2.9755852,-0.5299024,-1.120458,-2.4277205,-9.615114,-3.4476504
0.463455,4.3716993,2.9755852,-0.5299024,-1.120458,-2.4277205,-9.615114,-3.4476504
0.46233568,4.375242,3.05548,-0.52244556,-1.2237886,-2.3798366,-9.586384,-2.9352913
0.46121702,4.3787665,3.05548,-0.52244556,-1.2237886,-2.3798366,-9.586384,-2.9352913
0.46001527,4.3823776,3.1204612,-0.5139234,-1.3185972,-2.1883004,-9.433155,-2.4277205
0.45880318,4.386002,3.1204612,-0.5139234,-1.3185972,-2.1883004,-9.433155,-2.4277205
0.4575205,4.3897057,3.1726592,-0.50433606,-1.4091446,-2.1308396,-9.399636,-1.7717092
0.4562371,4.393393,3.1726592,-0.50433606,-1.4091446,-2.1308396,-9.399636,-1.7717092
0.4548814,4.397162,3.2131393,-0.4936834,-1.4922353,-2.0973208,-9.3661175,-1.1061212
0.45352674,4.400912,3.2131393,-0.4936834,-1.4922353,-2.0973208,-9.3661175,-1.1061212
0.4521039,4.4046974,3.248293,-0.48303074,-1.5668038,-1.8339585,-9.361329,-0.63206923
0.45067558,4.4084826,3.248293,-0.48303074,-1.5668038,-1.8339585,-9.361329,-0.63206923
0.44918334,4.4122944,3.2749245,-0.47024757,-1.6317849,-1.532289,-9.246407,-0.18674773
0.44768724,4.416101,3.2749245,-0.47024757,-1.6317849,-1.532289,-9.246407,-0.18674773
0.4461309,4.41992,3.2909036,-0.4542686,-1.6893092,-1.2018893,-9.14585,0.20111294
0.44457224,4.42373,3.2909036,-0.4542686,-1.6893092,-1.2018893,-9.14585,0.20111294
0.44296375,4.4275384,3.297295,-0.4361591,-1.7415072,-1.0103531,-8.983045,0.7086837
0.44134185,4.431365,3.297295,-0.4361591,-1.7415072,-1.0103531,-8.983045,0.7086837
0.43968058,4.4351625,3.293034,-0.42018014,-1.7883788,-0.8762778,-8.848969,1.1300632
0.43801385,4.43896,3.293034,-0.42018014,-1.7883788,-0.8762778,-8.848969,1.1300632
0.4363093,4.442737,3.2791855,-0.40526643,-1.8267283,-0.81881696,-8.743625,1.5897499
0.43460277,4.446506,3.2791855,-0.40526643,-1.8267283,-0.81881696,-8.743625,1.5897499
0.43286383,4.4502487,3.2568152,-0.39035273,-1.8565557,-0.82360536,-8.561666,1.9153614
0.43112117,4.453987,3.2568152,-0.39035273,-1.8565557,-0.82360536,-8.561666,1.9153614
0.4293574,4.4576836,3.224857,-0.37543905,-1.8746653,-0.7326257,-8.6095495,2.3080103
0.42759037,4.461375,3.224857,-0.37543905,-1.8746653,-0.7326257,-8.6095495,2.3080103
0.42582235,4.4650054,3.183312,-0.36585164,-1.877861,-0.59855044,-8.63828,2.681506
0.42404044,4.4686527,3.183312,-0.36585164,-1.877861,-0.59855044,-8.63828,2.681506
0.42226794,4.4722347,3.135375,-0.36372113,-1.8736,-0.62249243,-8.743625,3.040636
0.42049226,4.475813,3.135375,-0.36372113,-1.8736,-0.62249243,-8.743625,3.040636
0.4187326,4.4793334,3.0810463,-0.37011272,-1.8586862,-0.6512229,-8.781932,3.3423057
0.4169701,4.4828496,3.0810463,-0.37011272,-1.8586862,-0.6512229,-8.781932,3.3423057
0.41523337,4.4863067,3.0235221,-0.3828959,-1.8341851,-0.6607997,-8.839393,3.5913026
0.41349378,4.48976,3.0235221,-0.3828959,-1.8341851,-0.6607997,-8.839393,3.5913026
0.41179612,4.4931474,2.9681284,-0.40313593,-1.7990315,-0.58418524,-8.99741,3.8881836
0.41008544,4.4965515,2.9681284,-0.40313593,-1.7990315,-0.58418524,-8.99741,3.8881836
0.4084298,4.4998975,2.9169958,-0.42976752,-1.7521598,-0.5602432,-9.045294,4.1036615
0.40676793,4.503246,2.9169958,-0.42976752,-1.7521598,-0.5602432,-9.045294,4.1036615
0.4051661,4.506547,2.8711894,-0.46385598,-1.6988965,-0.48841715,-9.165004,4.309563
0.4035696,4.5098286,2.8711894,-0.46385598,-1.6988965,-0.48841715,-9.165004,4.309563
0.40202996,4.5130997,2.8360357,-0.50646657,-1.6392418,-0.4261679,-9.246407,4.5394063
0.4004796,4.5163836,2.8360357,-0.50646657,-1.6392418,-0.4261679,-9.246407,4.5394063
0.3990095,4.5196257,2.809404,-0.55546874,-1.5763912,-0.2825158,-9.351752,4.7405195
0.39752758,4.5228834,2.809404,-0.55546874,-1.5763912,-0.2825158,-9.351752,4.7405195
0.39612338,4.5261307,2.7944903,-0.6087319,-1.5103447,-0.31124622,-9.414001,4.9464207
0.3947163,4.529374,2.7944903,-0.6087319,-1.5103447,-0.31124622,-9.414001,4.9464207
0.3933884,4.532625,2.7912946,-0.665191,-1.438972,-0.2681506,-9.490616,5.1571107
0.3920547,4.53588,2.7912946,-0.665191,-1.438972,-0.2681506,-9.490616,5.1571107
0.39080602,4.539151,2.797686,-0.72697634,-1.3633382,-0.21068975,-9.409213,5.21936
0.38955286,4.5424223,2.797686,-0.72697634,-1.3633382,-0.21068975,-9.409213,5.21936
0.38838118,4.545718,2.8104694,-0.79408795,-1.2909003,-0.1436521,-9.332599,5.243302
0.3872013,4.5490246,2.8104694,-0.79408795,-1.2909003,-0.1436521,-9.332599,5.243302
0.3861038,4.552359,2.829644,-0.86013436,-1.2184623,-0.10055647,-9.303867,5.315128
0.38500258,4.555691,2.829644,-0.86013436,-1.2184623,-0.10055647,-9.303867,5.315128
0.38397613,4.559073,2.8509493,-0.92724603,-1.1460243,0.033518825,-9.260772,5.4204726
0.3829478,4.562446,2.8509493,-0.92724603,-1.1460243,0.033518825,-9.260772,5.4204726
0.38199374,4.565857,2.874385,-0.9911619,-1.0767821,0.17238252,-9.275137,5.511452
0.38103363,4.5692725,2.874385,-0.9911619,-1.0767821,0.17238252,-9.275137,5.511452
0.38014644,4.5727205,2.8967557,-1.0518819,-1.0096705,0.2777274,-9.260772,5.6790466
0.37925333,4.5761733,2.8967557,-1.0518819,-1.0096705,0.2777274,-9.260772,5.6790466
0.37842897,4.579647,2.9159305,-1.1062105,-0.9468199,0.29688102,-9.212888,5.707777
0.37759605,4.583136,2.9159305,-1.1062105,-0.9468199,0.29688102,-9.212888,5.707777
0.37682423,4.5866504,2.930844,-1.1562779,-0.8882303,0.34476504,-9.131485,5.7604494
0.37604922,4.590156,2.930844,-1.1562779,-0.8882303,0.34476504,-9.131485,5.7604494
0.37532765,4.593691,2.9436274,-1.2031496,-0.8349671,0.44532153,-9.054871,5.9041014
0.37460133,4.597224,2.9436274,-1.2031496,-0.8349671,0.44532153,-9.054871,5.9041014
0.37392157,4.6007776,2.9510841,-1.2489558,-0.7880955,0.59376204,-8.863335,5.932832
0.37323672,4.6043296,2.9510841,-1.2489558,-0.7880955,0.59376204,-8.863335,5.932832
0.3725915,4.6078854,2.9532146,-1.2926317,-0.7486807,0.8571242,-8.671799,5.9567738
0.37193713,4.6114607,2.9532146,-1.2926317,-0.7486807,0.8571242,-8.671799,5.9567738
0.3713108,4.6150312,2.9489536,-1.3309813,-0.71991855,1.2114661,-8.336611,5.9902925
0.37067914,4.6186,2.9489536,-1.3309813,-0.71991855,1.2114661,-8.336611,5.9902925
0.37006164,4.6221657,2.9393663,-1.3586781,-0.70180905,1.6567876,-7.929596,6.114791
0.3694389,4.6257296,2.9393663,-1.3586781,-0.70180905,1.6567876,-7.929596,6.114791
0.36882192,4.629261,2.918061,-1.3693308,-0.6911564,2.135628,-7.3789296,5.9902925
0.36819533,4.6328154,2.918061,-1.3693308,-0.6911564,2.135628,-7.3789296,5.9902925
0.36756524,4.63631,2.8786461,-1.3629392,-0.69009113,2.4133554,-6.6654577,5.7125654
0.36694026,4.639747,2.8786461,-1.3629392,-0.69009113,2.4133554,-6.6654577,5.7125654
0.36625808,4.643325,2.8189914,-1.3384382,-0.69967854,2.6479871,-6.0046577,5.530606
0.36561936,4.646648,2.8189914,-1.3384382,-0.69967854,2.6479871,-6.0046577,5.530606
0.36493838,4.6499596,2.7337701,-1.2968928,-0.7167227,2.60968,-5.329493,5.12838
0.36425328,4.6532664,2.7337701,-1.2968928,-0.7167227,2.60968,-5.329493,5.12838
0.36354208,4.6564302,2.615526,-1.2478906,-0.7369628,2.7389667,-4.721366,4.999093
0.36282244,4.6596117,2.615526,-1.2478906,-0.7369628,2.7389667,-4.721366,4.999093
0.36208296,4.6626015,2.4610624,-1.1914316,-0.7550723,2.8395233,-4.2281604,5.118803
0.36133814,4.665596,2.4610624,-1.1914316,-0.7550723,2.8395233,-4.2281604,5.118803
0.36057428,4.6683693,2.273576,-1.1232547,-0.7710512,2.9161377,-3.7780502,5.21936
0.35980648,4.6711435,2.273576,-1.1232547,-0.7710512,2.9161377,-3.7780502,5.21936
0.35902688,4.6736608,2.0541315,-1.0412294,-0.78063864,2.992752,-3.394978,5.434838
0.35824117,4.676186,2.0541315,-1.0412294,-0.78063864,2.992752,-3.394978,5.434838
0.35745323,4.6784177,1.8059249,-0.9464208,-0.7817039,3.0262709,-2.930503,5.506664
0.35666135,4.680653,1.8059249,-0.9464208,-0.7817039,3.0262709,-2.930503,5.506664
0.35587662,4.6825686,1.5300214,-0.84202486,-0.7721165,3.0262709,-2.566584,5.535394
0.3550853,4.6844945,1.5300214,-0.84202486,-0.7721165,3.0262709,-2.566584,5.535394
0.354264,4.686166,1.2306821,-0.7301721,-0.7529417,3.169923,-2.1883004,5.4300494
0.3534583,4.687801,1.2306821,-0.7301721,-0.7529417,3.169923,-2.1883004,5.4300494
0.35279608,4.688865,0.9047112,-0.61192775,-0.7209838,3.2944214,-1.8579005,5.353435
0.3520541,4.690056,0.9047112,-0.61192775,-0.7209838,3.2944214,-1.8579005,5.353435
0.3513552,4.690851,0.55210865,-0.48303074,-0.6730469,3.0597897,-1.5705963,5.2049947
0.3506556,4.691646,0.55210865,-0.48303074,-0.6730469,3.0597897,-1.5705963,5.2049947
0.35002285,4.692016,0.17180921,-0.35306847,-0.61232686,2.0350714,-1.3599066,5.080496
0.3493905,4.6923857,0.17180921,-0.35306847,-0.61232686,2.0350714,-1.3599066,5.080496
0.3488333,4.6923075,-0.23192601,-0.2326936,-0.5345625,1.9488802,-1.5227122,5.281609
0.34827647,4.69223,-0.23192601,-0.2326936,-0.5345625,1.9488802,-1.5227122,5.281609
0.34781227,4.6916866,-0.654836,-0.12616715,-0.43229714,2.585738,-1.7621324,5.291186
0.34734955,4.691145,-0.654836,-0.12616715,-0.43229714,2.585738,-1.7621324,5.291186
0.34699953,4.6901283,-1.089464,-0.019640706,-0.3140528,2.7485435,-2.1499932,5.3342814
0.34664938,4.6891127,-1.089464,-0.019640706,-0.3140528,2.7485435,-2.1499932,5.3342814
0.34642676,4.687619,-1.5283529,0.09327733,-0.18622105,2.1452048,-2.4660277,5.1379566
0.34620377,4.686123,-1.5283529,0.09327733,-0.18622105,2.1452048,-2.4660277,5.1379566
0.3461234,4.684155,-1.964046,0.20726062,-0.043475613,1.5753847,-2.7150247,4.936844
0.34604296,4.682191,-1.964046,0.20726062,-0.043475613,1.5753847,-2.7150247,4.936844
0.3461168,4.6797514,-2.3922822,0.31165653,0.11737932,1.3982137,-3.1172507,4.5537715
0.3461898,4.677317,-2.3922822,0.31165653,0.11737932,1.3982137,-3.1172507,4.5537715
0.34643427,4.6744347,-2.8077354,0.40646508,0.29847428,1.3359646,-3.5625722,4.1515455
0.34667793,4.671549,-2.8077354,0.40646508,0.29847428,1.3359646,-3.5625722,4.1515455
0.3471034,4.668229,-3.20934,0.49062097,0.49128714,1.1300632,-4.122815,3.6296098
0.34752747,4.6649084,-3.20934,0.49062097,0.49128714,1.1300632,-4.122815,3.6296098
0.34814233,4.661175,-3.5928354,0.56732,0.6926221,0.7469909,-4.6591167,3.0933087
0.34875542,4.6574397,-3.5928354,0.56732,0.6926221,0.7469909,-4.6591167,3.0933087
0.34957117,4.653316,-3.9550252,0.63443166,0.90247923,0.18674773,-5.3103395,2.705448
0.3503844,4.6491904,-3.9550252,0.63443166,0.90247923,0.18674773,-5.3103395,2.705448
0.3514061,4.6447115,-4.287388,0.6844991,1.1144669,-0.37828386,-5.9759274,2.4899697
0.35242474,4.6402297,-4.287388,0.6844991,1.1144669,-0.37828386,-5.9759274,2.4899697
0.35365427,4.63543,-4.5877924,0.716457,1.3307155,-0.81881696,-6.6079965,2.2361844
0.35488153,4.630622,-4.5877924,0.716457,1.3307155,-0.81881696,-6.6079965,2.2361844
0.35631824,4.625536,-4.8551736,0.73137075,1.5522906,-1.0821792,-7.1969705,1.8531121
0.35774964,4.620451,-4.8551736,0.73137075,1.5522906,-1.0821792,-7.1969705,1.8531121
0.35938758,4.615108,-5.0927277,0.73350126,1.7759961,-1.2162545,-7.867347,1.3551182
0.36102626,4.609744,-5.0927277,0.73350126,1.7759961,-1.2162545,-7.867347,1.3551182
0.36286008,4.6041837,-5.3068457,0.7260444,1.9986364,-1.3263878,-8.51857,0.9816227
0.3646971,4.598595,-5.3068457,0.7260444,1.9986364,-1.3263878,-8.51857,0.9816227
0.3646971,4.598595,-5.3068457,0.7260444,1.9986364,-1.3263878,-8.51857,0.9816227
0.3646971,4.598595,-5.3068457,0.7260444,1.9986364,-1.3263878,-8.51857,0.9816227
0.3718028,4.579683,-5.6583834,0.70154333,2.4215462,-2.2744915,-9.715671,0.18674773
0.37400204,4.5737934,-5.6583834,0.70154333,2.4215462,-2.2744915,-9.715671,0.18674773
0.3762236,4.5681353,-5.7926064,0.6844991,2.6260772,-2.6862943,-10.160992,-0.5410896
0.37855482,4.5621815,-5.7926064,0.6844991,2.6260772,-2.6862943,-10.160992,-0.5410896
0.38118303,4.5557127,-5.900198,0.66212857,2.8199553,-2.9831753,-10.658986,-1.2593501
0.3835678,4.5498314,-5.900198,0.66212857,2.8199553,-2.9831753,-10.658986,-1.2593501
0.38626578,4.543433,-5.988615,0.639758,3.0063765,-3.2273839,-11.046846,-1.8483237
0.3889701,4.537001,-5.988615,0.639758,3.0063765,-3.2273839,-11.046846,-1.8483237
0.39186472,4.5304117,-6.0578575,0.6184527,3.1800146,-3.41892,-11.295844,-2.4516625
0.39473826,4.5238376,-6.0578575,0.6184527,3.1800146,-3.41892,-11.295844,-2.4516625
0.39779773,4.5171366,-6.104729,0.6003432,3.3398044,-3.572149,-11.554418,-2.8778305
0.40083435,4.5104485,-6.104729,0.6003432,3.3398044,-3.572149,-11.554418,-2.8778305
0.40403146,4.5036793,-6.1302953,0.5822337,3.4825497,-3.715801,-11.611878,-3.2369606
0.40721065,4.496908,-6.1302953,0.5822337,3.4825497,-3.715801,-11.611878,-3.2369606
0.4104914,4.4901514,-6.136687,0.56625473,3.6018593,-3.8402996,-11.63582,-3.6296098
0.41378042,4.483336,-6.136687,0.56625473,3.6018593,-3.8402996,-11.63582,-3.6296098
0.41715625,4.476522,-6.1239038,0.5524063,3.696668,-3.8163576,-11.60709,-3.9504328
0.42051405,4.4697022,-6.1239038,0.5524063,3.696668,-3.8163576,-11.60709,-3.9504328
0.42395544,4.462863,-6.094076,0.5428189,3.7680407,-3.8259344,-11.444284,-4.3047748
0.42737186,4.4560304,-6.094076,0.5428189,3.7680407,-3.8259344,-11.444284,-4.3047748
0.43084568,4.449189,-6.049335,0.5385579,3.813847,-3.964798,-11.377247,-4.525041
0.43429065,4.442361,-6.049335,0.5385579,3.813847,-3.964798,-11.377247,-4.525041
0.43775818,4.435542,-5.9907455,0.5406884,3.8362176,-3.7301662,-11.291056,-4.807557
0.4412108,4.4287086,-5.9907455,0.5406884,3.8362176,-3.7301662,-11.291056,-4.807557
0.44464383,4.421932,-5.9204383,0.55347157,3.8362176,-3.5290532,-11.233594,-5.185841
0.44805887,4.415147,-5.9204383,0.55347157,3.8362176,-3.5290532,-11.233594,-5.185841
0.45145258,4.408388,-5.838413,0.5811685,3.813847,-3.4620156,-11.013328,-5.674258
0.4548216,4.401633,-5.838413,0.5811685,3.813847,-3.4620156,-11.013328,-5.674258
0.45812273,4.394936,-5.747865,0.6216485,3.7669754,-3.2704794,-10.91756,-6.0238113
0.46141252,4.388216,-5.747865,0.6216485,3.7669754,-3.2704794,-10.91756,-6.0238113
0.4646254,4.381543,-5.650926,0.67491174,3.696668,-3.4811692,-10.611102,-6.6271505
0.4678107,4.37488,-5.650926,0.67491174,3.696668,-3.4811692,-10.611102,-6.6271505
0.47089994,4.3682537,-5.549726,0.7345665,3.6071856,-3.4859576,-10.28549,-7.101202
0.4739773,4.361604,-5.549726,0.7345665,3.6071856,-3.4859576,-10.28549,-7.101202
0.47690797,4.3550496,-5.4474607,0.7931561,3.4974635,-3.347094,-10.31901,-7.455544
0.4798177,4.348492,-5.4474607,0.7931561,3.4974635,-3.347094,-10.31901,-7.455544
0.48258942,4.3419785,-5.34413,0.85920244,3.3728275,-3.4093432,-10.28549,-7.560889
0.48534566,4.335449,-5.34413,0.85920244,3.3728275,-3.4093432,-10.28549,-7.560889
0.4879267,4.329031,-5.2376037,0.93164045,3.238604,-3.514688,-10.271125,-7.824251
0.49050266,4.322572,-5.2376037,0.93164045,3.238604,-3.514688,-10.271125,-7.824251
0.4929035,4.316209,-5.128947,1.0072743,3.096924,-3.7014358,-10.266336,-7.9966335
0.49529365,4.309819,-5.128947,1.0072743,3.096924,-3.7014358,-10.266336,-7.9966335
0.4975048,4.3035164,-5.016029,1.0807775,2.9456565,-3.7972038,-10.28549,-8.111555
0.4996961,4.2972136,-5.016029,1.0807775,2.9456565,-3.7972038,-10.28549,-8.111555
0.5016414,4.291201,-4.896719,1.1521502,2.786932,-3.9935284,-10.395624,-8.288726
0.5036911,4.284805,-4.896719,1.1521502,2.786932,-3.9935284,-10.395624,-8.288726
0.5054945,4.27871,-4.7688875,1.2150007,2.6218162,-4.2185836,-10.486604,-8.379706
0.50728095,4.2726107,-4.7688875,1.2150007,2.6218162,-4.2185836,-10.486604,-8.379706
0.5088811,4.266651,-4.629338,1.268264,2.452439,-4.367024,-10.46745,-8.599973
0.5104666,4.260683,-4.629338,1.268264,2.452439,-4.367024,-10.46745,-8.599973
0.5118705,4.2548637,-4.4780703,1.3119398,2.2819967,-4.4915223,-10.520123,-8.762778
0.51325446,4.24906,-4.4780703,1.3119398,2.2819967,-4.4915223,-10.520123,-8.762778
0.5144634,4.2434254,-4.314019,1.3460283,2.1115544,-4.654328,-10.510546,-8.8777
0.51565856,4.237784,-4.314019,1.3460283,2.1115544,-4.654328,-10.510546,-8.8777
0.516681,4.2323475,-4.1361203,1.3652031,1.9400468,-4.6255975,-10.481815,-9.121908
0.5176904,4.2269053,-4.1361203,1.3652031,1.9400468,-4.6255975,-10.481815,-9.121908
0.518533,4.22169,-3.9465032,1.3715947,1.7685392,-4.5058875,-10.433931,-9.351752
0.51936364,4.2164707,-3.9465032,1.3715947,1.7685392,-4.5058875,-10.433931,-9.351752
0.52003205,4.211498,-3.7462335,1.3662684,1.5959663,-4.3382936,-10.433931,-9.533711
0.52068937,4.206522,-3.7462335,1.3662684,1.5959663,-4.3382936,-10.433931,-9.533711
0.5211937,4.201789,-3.5331805,1.3524199,1.4233935,-4.309563,-10.457873,-9.5385
0.5216853,4.1970773,-3.5331805,1.3524199,1.4233935,-4.309563,-10.457873,-9.5385
0.5220348,4.192596,-3.3073444,1.3300494,1.2529513,-4.2999864,-10.462662,-9.629479
0.5223668,4.188225,-3.3073444,1.3300494,1.2529513,-4.2999864,-10.462662,-9.629479
0.52256507,4.184105,-3.071921,1.3002219,1.0867699,-4.256891,-10.491392,-9.744401
0.5227559,4.1799774,-3.071921,1.3002219,1.0867699,-4.256891,-10.491392,-9.744401
0.5228211,4.176152,-2.8247797,1.2650682,0.9269803,-4.333505,-10.486604,-9.763555
0.52287924,4.172331,-2.8247797,1.2650682,0.9269803,-4.333505,-10.486604,-9.763555
0.5228189,4.168808,-2.5659204,1.2235229,0.77251697,-4.333505,-10.5680065,-9.840169
0.5227534,4.165332,-2.5659204,1.2235229,0.77251697,-4.333505,-10.5680065,-9.840169
0.52258,4.1621623,-2.297474,1.175586,0.6244452,-4.3766007,-10.6398325,-9.892841
0.52240384,4.1590323,-2.297474,1.175586,0.6244452,-4.3766007,-10.6398325,-9.892841
0.522135,4.156226,-2.020505,1.1169965,0.4859608,-4.525041,-10.764331,-9.89763
0.52186203,4.1534214,-2.020505,1.1169965,0.4859608,-4.525041,-10.764331,-9.89763
0.5215031,4.150994,-1.7360795,1.05095,0.35919434,-4.7740383,-11.405977,-9.533711
0.5211376,4.148546,-1.7360795,1.05095,0.35919434,-4.7740383,-11.405977,-9.533711
0.52075565,4.146453,-1.4399359,0.9753163,0.24627632,-5.4539914,-10.189722,-10.117896
0.52036804,4.144344,-1.4399359,0.9753163,0.24627632,-5.4539914,-10.189722,-10.117896
0.5198885,4.1426945,-1.1395314,0.881573,0.14188041,-3.7732618,-11.616667,-9.006987
0.51940584,4.1410418,-1.1395314,0.881573,0.14188041,-3.7732618,-11.616667,-9.006987
0.5188899,4.139779,-0.8444531,0.78996027,0.054528717,-7.043741,-13.158532,-8.714894
0.5183741,4.138523,-0.8444531,0.78996027,0.054528717,-7.043741,-13.158532,-8.714894
0.5178627,4.137644,-0.52061266,0.6844991,-0.012582945,-6.0238113,-12.708423,-8.896853
0.5173486,4.1367626,-0.52061266,0.6844991,-0.012582945,-6.0238113,-12.708423,-8.896853
0.5168474,4.136348,-0.16481435,0.53749263,-0.0828904,-6.301539,-13.139379,-8.815451
0.51634884,4.1359363,-0.16481435,0.53749263,-0.0828904,-6.301539,-13.139379,-8.815451
0.51591176,4.1359305,0.19844083,0.38835558,-0.14147994,-6.789956,-12.354081,-8.99741
0.5154684,4.135925,0.19844083,0.38835558,-0.14147994,-6.789956,-12.354081,-8.99741
0.5150778,4.136379,0.561696,0.21578273,-0.19580843,-6.2823853,-12.061988,-8.863335
0.5146809,4.13684,0.561696,0.21578273,-0.19580843,-6.2823853,-12.061988,-8.863335
0.5143246,4.137774,0.9153638,0.033622514,-0.25226745,-5.267244,-11.927913,-8.652645
0.5139686,4.138707,0.9153638,0.033622514,-0.25226745,-5.267244,-11.927913,-8.652645
0.5136395,4.14011,1.26264,-0.133624,-0.31618333,-4.453215,-12.0093155,-8.331821
0.51331085,4.141509,1.26264,-0.133624,-0.31618333,-4.453215,-12.0093155,-8.331821
0.5129944,4.1433477,1.6077857,-0.27849996,-0.39288235,-4.0653543,-11.860875,-8.279149
0.51267886,4.1451774,1.6077857,-0.27849996,-0.39288235,-4.0653543,-11.860875,-8.279149
0.51236135,4.1474304,1.9529314,-0.40739697,-0.4812993,-4.3239284,-11.573571,-8.360553
0.5120424,4.149686,1.9529314,-0.40739697,-0.4812993,-4.3239284,-11.573571,-8.360553
0.5117136,4.152352,2.2948813,-0.5299024,-0.5803689,-4.6160207,-11.180922,-8.446744
0.5113897,4.1549673,2.2948813,-0.5299024,-0.5803689,-4.6160207,-11.180922,-8.446744
0.5110402,4.1580496,2.628309,-0.6609299,-0.6868954,-4.5154643,-10.941502,-8.42759
0.5106837,4.1611753,2.628309,-0.6609299,-0.6868954,-4.5154643,-10.941502,-8.42759
0.51030654,4.1646757,2.9532146,-0.79515326,-0.7934218,-4.1036615,-10.778696,-8.360553
0.50992656,4.1681733,2.9532146,-0.79515326,-0.7934218,-4.1036615,-10.778696,-8.360553
0.50951415,4.1720767,3.2695982,-0.92298496,-0.90207875,-3.8738184,-10.692505,-8.255207
0.5090972,4.175985,3.2695982,-0.92298496,-0.90207875,-3.8738184,-10.692505,-8.255207
0.5086338,4.180281,3.5763943,-1.035903,-1.0139315,-3.8738184,-10.802638,-8.0684595
0.5081624,4.1846037,3.5763943,-1.035903,-1.0139315,-3.8738184,-10.802638,-8.0684595
0.5076402,4.189286,3.8746684,-1.1392337,-1.1257843,-3.9121256,-10.817003,-7.843405
0.5071168,4.1939225,3.8746684,-1.1392337,-1.1257843,-3.9121256,-10.817003,-7.843405
0.50652844,4.1989827,4.166551,-1.2308464,-1.233376,-3.7349546,-10.749966,-7.6470804
0.50593555,4.2040176,4.166551,-1.2308464,-1.233376,-3.7349546,-10.749966,-7.6470804
0.50528634,4.209389,4.4552374,-1.297958,-1.3324456,-3.9312792,-10.673351,-7.747637
0.50463134,4.2147393,4.4552374,-1.297958,-1.3324456,-3.9312792,-10.673351,-7.747637
0.5039037,4.2204347,4.7407284,-1.3288507,-1.4123404,-3.9025488,-11.147403,-7.8529816
0.50316805,4.226118,4.7407284,-1.3288507,-1.4123404,-3.9025488,-11.147403,-7.8529816
0.5023566,4.232121,5.0219584,-1.3480254,-1.4837132,-3.5434184,-11.659762,-7.7093296
0.501532,4.2381415,5.0219584,-1.3480254,-1.4837132,-3.5434184,-11.659762,-7.7093296
0.5006386,4.244424,5.2925353,-1.3735918,-1.5582817,-3.323152,-12.071565,-7.2304893
0.49972993,4.250729,5.2925353,-1.3735918,-1.5582817,-3.323152,-12.071565,-7.2304893
0.49874863,4.2573385,5.5439377,-1.4098108,-1.6360459,-3.193865,-12.287044,-6.622362
0.49775586,4.263932,5.5439377,-1.4098108,-1.6360459,-3.193865,-12.287044,-6.622362
0.49669033,4.270833,5.7836223,-1.4566824,-1.7202018,-3.2465374,-12.272678,-5.841852
0.49561062,4.277724,5.7836223,-1.4566824,-1.7202018,-3.2465374,-12.272678,-5.841852
0.49445894,4.2849045,6.0126543,-1.5099456,-1.809684,-3.289633,-12.090718,-5.1571107
0.4932913,4.2920737,6.0126543,-1.5099456,-1.809684,-3.289633,-12.090718,-5.1571107
0.49204838,4.2995167,6.2363596,-1.5589478,-1.9002316,-3.1124623,-11.789049,-4.606444
0.4907868,4.306955,6.2363596,-1.5589478,-1.9002316,-3.1124623,-11.789049,-4.606444
0.48944774,4.314642,6.4526086,-1.6004932,-1.9886485,-3.016694,-11.683704,-4.2425256
0.48809016,4.322316,6.4526086,-1.6004932,-1.9886485,-3.016694,-11.683704,-4.2425256
0.48664135,4.330222,6.660335,-1.632451,-2.0813265,-2.7629087,-11.583148,-4.084508
0.48517466,4.338106,6.660335,-1.632451,-2.0813265,-2.7629087,-11.583148,-4.084508
0.48360875,4.3462224,6.857409,-1.6537564,-2.1740046,-2.456451,-11.520899,-3.8977604
0.48202452,4.3543158,6.857409,-1.6537564,-2.1740046,-2.456451,-11.520899,-3.8977604
0.48033538,4.362605,7.0406346,-1.6612133,-2.2698784,-2.1930888,-11.401189,-3.6391866
0.4786669,4.370681,7.0406346,-1.6612133,-2.2698784,-2.1930888,-11.401189,-3.6391866
0.4768414,4.379128,7.2068157,-1.6558869,-2.3721437,-2.0829554,-11.314998,-3.3997664
0.47494662,4.387778,7.2068157,-1.6558869,-2.3721437,-2.0829554,-11.314998,-3.3997664
0.47298458,4.396359,7.3559527,-1.6409732,-2.4754744,-2.0159178,-11.061212,-2.8538885
0.471009,4.4048886,7.3559527,-1.6409732,-2.4754744,-2.0159178,-11.061212,-2.8538885
0.4689011,4.413597,7.48485,-1.6217984,-2.5777397,-1.9871874,-10.749966,-2.528277
0.46676275,4.422322,7.48485,-1.6217984,-2.5777397,-1.9871874,-10.749966,-2.528277
0.4645132,4.4311113,7.594572,-1.5972973,-2.6832008,-1.7669208,-10.395624,-2.0446482
0.46223962,4.43989,7.594572,-1.5972973,-2.6832008,-1.7669208,-10.395624,-2.0446482
0.45978528,4.4489794,7.681924,-1.56747,-2.784401,-1.5466543,-10.0987425,-1.5705963
0.45744357,4.457554,7.681924,-1.56747,-2.784401,-1.5466543,-10.0987425,-1.5705963
0.45491531,4.466448,7.7490354,-1.5333815,-2.88134,-1.3982137,-9.758766,-1.1348516
0.45236823,4.475313,7.7490354,-1.5333815,-2.88134,-1.3982137,-9.758766,-1.1348516
0.45236823,4.475313,7.7937765,-1.4907709,-2.9750834,-1.5035586,-9.308656,-0.7422025
0.45236823,4.475313,7.7937765,-1.4907709,-2.9750834,-1.5035586,-9.308656,-0.7422025
0.45236823,4.475313,7.812951,-1.4481603,-3.065631,-2.2170308,-8.848969,-0.38307226
0.44009227,4.5148134,7.812951,-1.4481603,-3.065631,-2.2170308,-8.848969,-0.38307226
0.4382626,4.520377,7.8065596,-1.4204634,-3.1455257,-3.074155,-7.85777,-1.0821792
0.43547824,4.5287757,7.8065596,-1.4204634,-3.1455257,-3.074155,-7.85777,-1.0821792
0.43250495,4.537423,7.760753,-1.4449645,-3.2168984,-2.8443117,-6.8522053,-1.043872
0.42941284,4.546303,7.760753,-1.4449645,-3.2168984,-2.8443117,-6.8522053,-1.043872
0.42647937,4.554754,7.668075,-1.4939667,-3.2648354,-2.566584,-6.1004257,-0.4357447
0.4231737,4.5641994,7.668075,-1.4939667,-3.2648354,-2.566584,-6.1004257,-0.4357447
0.42027754,4.572306,7.5349174,-1.5365773,-3.2882712,-2.2122424,-5.3821654,0.20590134
0.41723776,4.580753,7.5349174,-1.5365773,-3.2882712,-2.2122424,-5.3821654,0.20590134
0.41723776,4.580753,7.369801,-1.5738616,-3.2925322,-1.7717092,-4.55856,0.7757214
0.41141644,4.596483,7.369801,-1.5738616,-3.2925322,-1.7717092,-4.55856,0.7757214
0.4106317,4.598588,7.369801,-1.5738616,-3.2925322,-1.7717092,-4.55856,0.7757214
0.4049407,4.613428,7.176988,-1.5972973,-3.282945,-1.1971009,-3.643975,1.3024458
0.4049407,4.613428,7.176988,-1.5972973,-3.282945,-1.1971009,-3.643975,1.3024458
0.39869696,4.629087,6.950087,-1.6026237,-3.2616396,-0.40222588,-2.7964275,1.9057846
0.3955706,4.6366215,6.689097,-1.5866448,-3.2286162,0.61770403,-2.1404164,2.4995465
0.39243317,4.6441326,6.689097,-1.5866448,-3.2286162,0.61770403,-2.1404164,2.4995465
0.39243317,4.6441326,6.689097,-1.5866448,-3.2286162,0.61770403,-2.1404164,2.4995465
0.3861838,4.658464,6.394019,-1.5408384,-3.1881363,1.6280571,-1.5753847,3.0789435
0.38307598,4.665254,6.068048,-1.4673351,-3.1444604,2.4947581,-1.0390835,3.620033
0.3799568,4.67203,6.068048,-1.4673351,-3.1444604,2.4947581,-1.0390835,3.620033
0.37687233,4.678383,5.7079887,-1.3672003,-3.1007845,3.0310593,-0.6607997,4.19943
0.3737782,4.6847224,5.7079887,-1.3672003,-3.1007845,3.0310593,-0.6607997,4.19943
0.37072602,4.690602,5.3212976,-1.2425643,-3.0560434,3.2513258,-0.31603462,4.687847
0.3677242,4.6963577,5.3212976,-1.2425643,-3.0560434,3.2513258,-0.31603462,4.687847
0.36470425,4.7017584,4.9101057,-1.1072757,-3.0070412,3.347094,-0.02873042,5.2145715
0.361602,4.7072835,4.9101057,-1.1072757,-3.0070412,3.347094,-0.02873042,5.2145715
0.35863003,4.712184,4.4786735,-0.9623997,-2.9463212,3.289633,0.20111294,5.6120086
0.35566202,4.717061,4.4786735,-0.9623997,-2.9463212,3.289633,0.20111294,5.6120086
0.35275984,4.7214394,4.0270014,-0.81539327,-2.8696222,3.4093432,0.34955344,6.1387334
0.34983963,4.725832,4.0270014,-0.81539327,-2.8696222,3.4093432,0.34955344,6.1387334
0.34703004,4.729666,3.5572197,-0.669452,-2.7780094,3.7732618,0.46447513,6.71813
0.34421226,4.733502,3.5572197,-0.669452,-2.7780094,3.7732618,0.46447513,6.71813
0.34150472,4.7367945,3.0725243,-0.5181845,-2.667222,4.4340615,0.44532153,7.4363904
0.33879542,4.7400823,3.0725243,-0.5181845,-2.667222,4.4340615,0.44532153,7.4363904
0.3362163,4.7428074,2.5750458,-0.34880742,-2.5415208,5.070919,0.30645782,8.169016
0.3336129,4.7455544,2.5750458,-0.34880742,-2.5415208,5.070919,0.30645782,8.169016
0.33112305,4.7477503,2.0658493,-0.16238615,-2.4041016,5.2145715,0.36870706,8.7292595
0.3287402,4.7498493,2.0658493,-0.16238615,-2.4041016,5.2145715,0.36870706,8.7292595
0.32644877,4.7514186,1.5481309,0.03681831,-2.2581604,5.1906295,0.25378537,9.255983
0.32416654,4.7529807,1.5481309,0.03681831,-2.2581604,5.1906295,0.25378537,9.255983
0.32205442,4.753949,1.0197598,0.23602276,-2.1026318,4.8602295,0.33518824,9.572019
0.31989613,4.7549386,1.0197598,0.23602276,-2.1026318,4.8602295,0.33518824,9.572019
0.31799015,4.755311,0.48499697,0.4171177,-1.9385811,5.209783,-0.7230489,10.381259
0.31604338,4.7556925,0.48499697,0.4171177,-1.9385811,5.209783,-0.7230489,10.381259
0.31428754,4.7554893,-0.04763526,0.6003432,-1.7553556,4.0462008,-1.4413095,10.491392
0.31253326,4.7552876,-0.04763526,0.6003432,-1.7553556,4.0462008,-1.4413095,10.491392
0.31099904,4.754523,-0.56109273,0.77185076,-1.5497595,3.3183637,-0.7086837,9.988609
0.30945963,4.7537575,-0.56109273,0.77185076,-1.5497595,3.3183637,-0.7086837,9.988609
0.3081417,4.752447,-1.0670934,0.90713936,-1.3335109,3.6152446,-0.320823,9.873688
0.3068252,4.751141,-1.0670934,0.90713936,-1.3335109,3.6152446,-0.320823,9.873688
0.30574355,4.749281,-1.5826813,1.026449,-1.0980874,3.2273839,-0.63206923,9.940725
0.30466092,4.7474256,-1.5826813,1.026449,-1.0980874,3.2273839,-0.63206923,9.940725
0.30383226,4.74503,-2.0982692,1.1319102,-0.84561974,3.3901896,-1.115698,10.089166
0.30300012,4.742634,-2.0982692,1.1319102,-0.84561974,3.3901896,-1.115698,10.089166
0.3024207,4.7397127,-2.5989437,1.2213924,-0.5899563,3.667917,-1.5658079,10.156203
0.30183768,4.7367935,-2.5989437,1.2213924,-0.5899563,3.667917,-1.5658079,10.156203
0.30150747,4.733375,-3.0783126,1.3076788,-0.33322755,3.6966474,-2.2457612,9.940725
0.30117255,4.729954,-3.0783126,1.3076788,-0.33322755,3.6966474,-2.2457612,9.940725
0.3010897,4.726055,-3.5321152,1.3929,-0.076498814,3.4572272,-2.7820623,9.504981
0.30100176,4.7221603,-3.5321152,1.3929,-0.076498814,3.4572272,-2.7820623,9.504981
0.3011653,4.717807,-3.9560905,1.4727948,0.18129519,3.145981,-3.5098996,9.097966
0.3013222,4.7134657,-3.9560905,1.4727948,0.18129519,3.145981,-3.5098996,9.097966
0.3017263,4.7087073,-4.348108,1.5452328,0.4358934,2.6671407,-4.462792,8.75799
0.30212373,4.703943,-4.348108,1.5452328,0.4358934,2.6671407,-4.462792,8.75799
0.30276117,4.698814,-4.703906,1.6048876,0.6851653,2.0829554,-5.482722,8.499416
0.30338052,4.6937647,-4.703906,1.6048876,0.6851653,2.0829554,-5.482722,8.499416
0.30424833,4.6882944,-5.021355,1.6517593,0.9333719,1.6567876,-6.4068837,8.106767
0.3051234,4.6827173,-5.021355,1.6517593,0.9333719,1.6567876,-6.4068837,8.106767
0.30621305,4.6769524,-5.299389,1.6826519,1.1751869,1.2354081,-7.302315,7.8290396
0.30728766,4.6712117,-5.299389,1.6826519,1.1751869,1.2354081,-7.302315,7.8290396
0.30859756,4.6651897,-5.5348125,1.6996962,1.4148715,0.79487497,-8.078036,7.489063
0.3099009,4.6591444,-5.5348125,1.6996962,1.4148715,0.79487497,-8.078036,7.489063
0.31142431,4.652921,-5.7276254,1.7050225,1.6513602,0.31124622,-8.791509,7.015011
0.3129366,4.646692,-5.7276254,1.7050225,1.6513602,0.31124622,-8.791509,7.015011
0.31465998,4.640317,-5.879958,1.695435,1.8771962,-0.18195933,-9.399636,6.3589997
0.31637716,4.633915,-5.879958,1.695435,1.8771962,-0.18195933,-9.399636,6.3589997
0.31829774,4.6273956,-5.996072,1.6656077,2.090249,-0.6560113,-9.911995,5.7125654
0.32021588,4.6208363,-5.996072,1.6656077,2.090249,-0.6560113,-9.911995,5.7125654
0.32231355,4.614238,-6.0780973,1.6123444,2.2894535,-0.9768343,-10.405201,5.2241483
0.32438886,4.607663,-6.0780973,1.6123444,2.2894535,-0.9768343,-10.405201,5.2241483
0.32664686,4.601026,-6.12923,1.5441675,2.4737444,-1.1061212,-10.6877165,4.8027687
0.32889766,4.5943656,-6.12923,1.5441675,2.4737444,-1.1061212,-10.6877165,4.8027687
0.33131346,4.587691,-6.150535,1.47386,2.6463172,-1.163582,-10.965444,4.3957543
0.33371753,4.5810056,-6.150535,1.47386,2.6463172,-1.163582,-10.965444,4.3957543
0.33626947,4.5743356,-6.140948,1.4067484,2.8018458,-1.163582,-11.080365,3.9695864
0.33880994,4.5676546,-6.140948,1.4067484,2.8018458,-1.163582,-11.080365,3.9695864
0.34147716,4.561014,-6.103664,1.3460283,2.9371343,-1.2114661,-11.161768,3.3901896
0.34412766,4.5543747,-6.103664,1.3460283,2.9371343,-1.2114661,-11.161768,3.3901896
0.34689304,4.54777,-6.045074,1.288504,3.0500524,-1.2593501,-11.152191,2.7724855
0.34964168,4.5411663,-6.045074,1.288504,3.0500524,-1.2593501,-11.152191,2.7724855
0.35246566,4.5346556,-5.96731,1.2309798,3.1395345,-1.2785037,-11.195287,2.255338
0.35529557,4.5280933,-5.96731,1.2309798,3.1395345,-1.2785037,-11.195287,2.255338
0.35825428,4.521465,-5.874632,1.1766512,3.205581,-1.3359646,-11.099519,1.6232687
0.36102986,4.5152106,-5.874632,1.1766512,3.205581,-1.3359646,-11.099519,1.6232687
0.36393175,4.508862,-5.7691708,1.1297797,3.2524526,-1.4221559,-10.998962,1.0486604
0.36681142,4.5025263,-5.7691708,1.1297797,3.2524526,-1.4221559,-10.998962,1.0486604
0.36971518,4.496282,-5.655187,1.0903648,3.2812147,-1.5849615,-10.927136,0.33997664
0.37261152,4.49002,-5.655187,1.0903648,3.2812147,-1.5849615,-10.927136,0.33997664
0.37549734,4.483881,-5.5348125,1.05095,3.2876062,-1.7142484,-10.821792,-0.2873042
0.37837923,4.4777174,-5.5348125,1.05095,3.2876062,-1.7142484,-10.821792,-0.2873042
0.38123202,4.471683,-5.411242,1.0083395,3.2748232,-1.9249382,-10.692505,-0.89543146
0.38407564,4.4656363,-5.411242,1.0083395,3.2748232,-1.9249382,-10.692505,-0.89543146
0.38687372,4.4597178,-5.287671,0.9635984,3.2449958,-2.1643584,-10.601525,-1.4556746
0.38966876,4.453777,-5.287671,0.9635984,3.2449958,-2.1643584,-10.601525,-1.4556746
