Pitch,Roll,Gyro_X,Gyro_Y,Gyro_Z,Accel_X,Accel_Y,Accel_Z
0.32459372,4.6546464,-0.13316926,0.00058943406,0.19402859,-0.9864111,-9.667787,-0.7086837
0.32470423,4.654353,-0.13849558,-0.0026063593,0.19402859,-0.9672575,-9.624691,-0.59855044
0.32475755,4.654212,-0.13849558,-0.0026063593,0.19402859,-0.9672575,-9.624691,-0.59855044
0.32480705,4.654069,-0.1470177,-0.0026063593,0.18870227,-0.89543146,-9.639056,-0.47884035
0.32485703,4.653925,-0.1470177,-0.0026063593,0.18870227,-0.89543146,-9.639056,-0.47884035
0.32490706,4.653779,-0.15447456,-0.0004758304,0.187637,-0.81402856,-9.701305,-0.37828386
0.3249587,4.6536293,-0.15447456,-0.0004758304,0.187637,-0.81402856,-9.701305,-0.37828386
0.32501116,4.653479,-0.16086614,0.0037852274,0.18870227,-0.8379706,-9.691729,-0.30645782
0.32506236,4.6533327,-0.16086614,0.0037852274,0.18870227,-0.8379706,-9.691729,-0.30645782
0.32506236,4.6533327,-0.16086614,0.0037852274,0.18870227,-0.8379706,-9.691729,-0.30645782
0.32506236,4.6533327,-0.16086614,0.0037852274,0.18870227,-0.8379706,-9.691729,-0.30645782
0.32506236,4.6533327,-0.16086614,0.0037852274,0.18870227,-0.8379706,-9.691729,-0.30645782
0.32526037,4.6527348,-0.16406193,0.017633665,0.18124542,-0.866701,-9.710882,-0.31603462
0.32530338,4.652561,-0.16406193,0.024025252,0.1791149,-0.89064306,-9.682152,-0.37828386
0.32534388,4.6523986,-0.16406193,0.024025252,0.1791149,-0.89064306,-9.682152,-0.37828386
0.3253796,4.652228,-0.16406193,0.029351573,0.1759191,-0.90500826,-9.653421,-0.46926352
0.32541528,4.6520576,-0.16406193,0.029351573,0.1759191,-0.90500826,-9.653421,-0.46926352
0.32541528,4.6520576,-0.16406193,0.029351573,0.1759191,-0.90500826,-9.653421,-0.46926352
0.3254805,4.6517067,-0.16406193,0.03361263,0.17378856,-0.8714894,-9.629479,-0.5315128
0.32550728,4.651529,-0.16619246,0.035743162,0.16846225,-0.89543146,-9.615114,-0.5410896
0.3255344,4.65135,-0.16619246,0.035743162,0.16846225,-0.89543146,-9.615114,-0.5410896
0.32555786,4.6511664,-0.16938825,0.03787369,0.16526645,-0.93373865,-9.639056,-0.5602432
0.32558146,4.6509833,-0.16938825,0.03787369,0.16526645,-0.93373865,-9.639056,-0.5602432
0.32560307,4.650796,-0.17364931,0.03787369,0.16313592,-0.8523358,-9.595961,-0.5506664
0.32562464,4.6506085,-0.17364931,0.03787369,0.16313592,-0.8523358,-9.595961,-0.5506664
0.32564336,4.6504116,-0.1768451,0.038938954,0.1610054,-0.8619126,-9.576807,-0.6560113
0.32566214,4.6502137,-0.1768451,0.038938954,0.1610054,-0.8619126,-9.576807,-0.6560113
0.3256786,4.6500096,-0.18110617,0.04000422,0.15887487,-0.91937345,-9.509769,-0.6847417
0.32569504,4.6498055,-0.18110617,0.04000422,0.15887487,-0.91937345,-9.509769,-0.6847417
0.3257082,4.6495886,-0.18856302,0.043200012,0.15567908,-0.92895025,-9.461885,-0.7038953
0.32572114,4.6493764,-0.18856302,0.043200012,0.15567908,-0.92895025,-9.461885,-0.7038953
0.32573408,4.649154,-0.19708513,0.04533054,0.15567908,-0.8858546,-9.481039,-0.6943185
0.3257469,4.648933,-0.19708513,0.04533054,0.15567908,-0.8858546,-9.481039,-0.6943185
0.32576093,4.648707,-0.20560725,0.04746107,0.15674433,-0.8379706,-9.461885,-0.62728083
0.325775,4.64848,-0.20560725,0.04746107,0.15674433,-0.8379706,-9.461885,-0.62728083
0.32579076,4.6482525,-0.2130641,0.051722128,0.1578096,-0.8379706,-9.495404,-0.51714754
0.3258066,4.6480246,-0.2130641,0.051722128,0.1578096,-0.8379706,-9.495404,-0.51714754
0.3258224,4.6477814,-0.22158621,0.05704845,0.15887487,-0.8379706,-9.41879,-0.58418524
0.3258382,4.6475387,-0.22158621,0.05704845,0.15887487,-0.8379706,-9.41879,-0.58418524
0.32585484,4.6472907,-0.22691253,0.06237477,0.15994012,-0.8475474,-9.485827,-0.5650316
0.32585484,4.6472907,-0.22691253,0.06237477,0.15994012,-0.8475474,-9.485827,-0.5650316
0.32585484,4.6472907,-0.22691253,0.06237477,0.15994012,-0.8475474,-9.485827,-0.5650316
0.32590345,4.6465106,-0.23223886,0.06663583,0.15994012,-0.8810662,-9.428367,-0.60812724
0.32592008,4.6462355,-0.23649992,0.069831625,0.1610054,-0.89064306,-9.404425,-0.7374141
0.32593587,4.6459746,-0.23649992,0.069831625,0.1610054,-0.89064306,-9.404425,-0.7374141
0.32595336,4.6456914,-0.24076097,0.07302742,0.16207066,-0.8714894,-9.3661175,-0.842759
0.32597086,4.6454077,-0.24076097,0.07302742,0.16207066,-0.8714894,-9.3661175,-0.842759
0.32598934,4.6451173,-0.2460873,0.07515795,0.16313592,-0.7661445,-9.375694,-0.866701
0.32600775,4.644827,-0.2460873,0.07515795,0.16313592,-0.7661445,-9.375694,-0.866701
0.32602632,4.6445227,-0.2556747,0.07622321,0.16313592,-0.82360536,-9.414001,-0.8331822
0.32604414,4.6442304,-0.2556747,0.07622321,0.16313592,-0.82360536,-9.414001,-0.8331822
0.3260643,4.643923,-0.26526207,0.07728848,0.16526645,-0.8475474,-9.375694,-0.842759
0.32608443,4.643615,-0.26526207,0.07728848,0.16526645,-0.8475474,-9.375694,-0.842759
0.32610646,4.643301,-0.27484944,0.07728848,0.16739698,-0.90979666,-9.361329,-0.7661445
0.3261284,4.642988,-0.27484944,0.07728848,0.16739698,-0.90979666,-9.361329,-0.7661445
0.32615262,4.64267,-0.28337154,0.07835374,0.1695275,-0.92895025,-9.270349,-0.6991069
0.32617667,4.642353,-0.28337154,0.07835374,0.1695275,-0.92895025,-9.270349,-0.6991069
0.3262038,4.6420245,-0.2908284,0.08048427,0.17272331,-0.8810662,-9.375694,-0.7517793
0.3262308,4.641697,-0.2908284,0.08048427,0.17272331,-0.8810662,-9.375694,-0.7517793
0.3262611,4.6413646,-0.29935053,0.082614794,0.1759191,-0.8619126,-9.390059,-0.6703765
0.3262914,4.641033,-0.29935053,0.082614794,0.1759191,-0.8619126,-9.390059,-0.6703765
0.32632655,4.6406913,-0.3057421,0.08581059,0.18124542,-0.90979666,-9.399636,-0.7134721
0.32636163,4.6403494,-0.3057421,0.08581059,0.18124542,-0.90979666,-9.399636,-0.7134721
0.32640114,4.640005,-0.31106842,0.08794112,0.18550648,-0.92416185,-9.409213,-0.6655881
0.3264406,4.639661,-0.31106842,0.08794112,0.18550648,-0.92416185,-9.409213,-0.6655881
0.32648456,4.639314,-0.31639475,0.08900639,0.18976754,-0.94810385,-9.442732,-0.62728083
0.32652852,4.638967,-0.31639475,0.08900639,0.18976754,-0.94810385,-9.442732,-0.62728083
0.32657987,4.638616,-0.32065582,0.08900639,0.19722438,-0.94331545,-9.428367,-0.63206923
0.32663113,4.638265,-0.32065582,0.08900639,0.19722438,-0.94331545,-9.428367,-0.63206923
0.32669225,4.6379123,-0.32278633,0.09007165,0.20681177,-0.91937345,-9.490616,-0.61291564
0.32669225,4.6379123,-0.32278633,0.09007165,0.20681177,-0.91937345,-9.490616,-0.61291564
0.32682177,4.6372013,-0.32598212,0.09113691,0.21426861,-0.92416185,-9.5385,-0.61770403
0.3268913,4.6368403,-0.32598212,0.09113691,0.21426861,-0.92416185,-9.5385,-0.61770403
0.32696375,4.636486,-0.3270474,0.09113691,0.22066021,-0.93373865,-9.481039,-0.6895301
0.32703754,4.6361256,-0.3270474,0.09113691,0.22066021,-0.93373865,-9.481039,-0.6895301
0.32711828,4.6357665,-0.32811266,0.09113691,0.2270518,-0.9624691,-9.457097,-0.641646
0.32719904,4.6354074,-0.32811266,0.09113691,0.2270518,-0.9624691,-9.457097,-0.641646
0.32728675,4.635045,-0.32811266,0.09007165,0.23450863,-1.0055647,-9.533711,-0.7038953
0.3273745,4.6346827,-0.32811266,0.09007165,0.23450863,-1.0055647,-9.533711,-0.7038953
0.32746893,4.634312,-0.32811266,0.08900639,0.24090023,-0.9816227,-9.600749,-0.78529817
0.32756177,4.633949,-0.32811266,0.08900639,0.24090023,-0.9816227,-9.600749,-0.78529817
0.32766286,4.6335793,-0.32811266,0.086875856,0.24835707,-0.9624691,-9.600749,-0.8331822
0.32776383,4.6332107,-0.32811266,0.086875856,0.24835707,-0.9624691,-9.600749,-0.8331822
0.3278728,4.6328435,-0.32811266,0.084745325,0.25581393,-0.92416185,-9.629479,-0.80924016
0.32798153,4.6324773,-0.32811266,0.084745325,0.25581393,-0.92416185,-9.629479,-0.80924016
0.3280942,4.6321135,-0.32811266,0.082614794,0.25900972,-0.93852705,-9.591172,-0.7613561
0.32820806,4.631746,-0.32811266,0.082614794,0.25900972,-0.93852705,-9.591172,-0.7613561
0.32832006,4.631397,-0.32491687,0.08154953,0.26007497,-1.0007763,-9.605537,-0.7038953
0.328434,4.631042,-0.32491687,0.08154953,0.26007497,-1.0007763,-9.605537,-0.7038953
0.328549,4.6306915,-0.32172108,0.079419,0.26114026,-0.9864111,-9.619903,-0.7038953
0.32866532,4.630337,-0.32172108,0.079419,0.26114026,-0.9864111,-9.619903,-0.7038953
0.32878658,4.6299763,-0.31852528,0.08048427,0.2632708,-0.9959879,-9.600749,-0.7182605
0.32889962,4.6296396,-0.31852528,0.08048427,0.2632708,-0.9959879,-9.600749,-0.7182605
0.32889962,4.6296396,-0.3153295,0.08154953,0.2654013,-1.0247183,-9.634268,-0.7757214
0.32913604,4.628944,-0.3153295,0.08154953,0.2654013,-1.0247183,-9.634268,-0.7757214
0.32925525,4.628594,-0.31319895,0.082614794,0.26753184,-1.0582372,-9.615114,-0.8571242
0.3293754,4.628241,-0.31319895,0.082614794,0.26753184,-1.0582372,-9.615114,-0.8571242
0.3294982,4.6278844,-0.31106842,0.08581059,0.27072763,-1.0726024,-9.548077,-0.93373865
0.32962075,4.627528,-0.31106842,0.08581059,0.27072763,-1.0726024,-9.548077,-0.93373865
0.32974467,4.6271796,-0.3089379,0.08794112,0.2717929,-1.1300632,-9.648633,-0.8379706
0.32987016,4.626827,-0.3089379,0.08794112,0.2717929,-1.1300632,-9.648633,-0.8379706
0.3299914,4.6264853,-0.30467683,0.08794112,0.27072763,-1.1587936,-9.65821,-0.866701
0.3301133,4.626142,-0.30467683,0.08794112,0.27072763,-1.1587936,-9.65821,-0.866701
0.33023423,4.625813,-0.30041578,0.086875856,0.26753184,-1.1061212,-9.672575,-0.7038953
0.33035508,4.6254845,-0.30041578,0.086875856,0.26753184,-1.1061212,-9.672575,-0.7038953
0.3304731,4.625154,-0.29508945,0.084745325,0.2654013,-1.0821792,-9.677363,-0.81402856
0.3304731,4.625154,-0.29508945,0.084745325,0.2654013,-1.0821792,-9.677363,-0.81402856
0.33070675,4.62449,-0.28869787,0.08368006,0.2622055,-1.0630256,-9.710882,-0.8523358
0.330822,4.6241627,-0.28869787,0.08368006,0.2622055,-1.0630256,-9.710882,-0.8523358
0.33092952,4.6238503,-0.28230628,0.084745325,0.25794446,-1.0821792,-9.763555,-0.8714894
0.3310384,4.623534,-0.28230628,0.084745325,0.25794446,-1.0821792,-9.763555,-0.8714894
0.33114442,4.623222,-0.27697995,0.08794112,0.2536834,-1.1013328,-9.734824,-0.81881696
0.33114442,4.623222,-0.27697995,0.08794112,0.2536834,-1.1013328,-9.734824,-0.81881696
0.33135122,4.6226063,-0.2727189,0.09007165,0.24942234,-1.1444284,-9.797073,-0.80445176
0.33135122,4.6226063,-0.2727189,0.09007165,0.24942234,-1.1444284,-9.797073,-0.80445176
0.33154052,4.621999,-0.26632732,0.09113691,0.24303076,-1.1109096,-9.916783,-0.8714894
0.33163485,4.6216965,-0.26632732,0.09113691,0.24303076,-1.1109096,-9.916783,-0.8714894
0.33172482,4.621406,-0.25887048,0.09433271,0.23663917,-1.1061212,-9.9790325,-0.7469909
0.3318141,4.6211185,-0.25887048,0.09433271,0.23663917,-1.1061212,-9.9790325,-0.7469909
0.3318141,4.6211185,-0.25887048,0.09433271,0.23663917,-1.1061212,-9.9790325,-0.7469909
0.33196944,4.6205583,-0.2524789,0.0975285,0.22492126,-1.043872,-10.0987425,-0.7278373
0.33203706,4.6202803,-0.24182624,0.100724295,0.21320336,-0.9576807,-10.189722,-0.7326257
0.33210155,4.620015,-0.24182624,0.100724295,0.21320336,-0.9576807,-10.189722,-0.7326257
0.33210155,4.620015,-0.24182624,0.100724295,0.21320336,-0.9576807,-10.189722,-0.7326257
0.33220974,4.6194944,-0.22904307,0.10605062,0.20255071,-0.9672575,-10.295067,-0.7757214
0.33225012,4.6192417,-0.21732515,0.11137694,0.18976754,-1.0247183,-10.31901,-0.82360536
0.33229062,4.618988,-0.21732515,0.11137694,0.18976754,-1.0247183,-10.31901,-0.82360536
0.33231336,4.6187487,-0.20241146,0.117768526,0.17272331,-1.2210429,-10.376471,-0.8331822
0.33231336,4.6187487,-0.20241146,0.117768526,0.17272331,-1.2210429,-10.376471,-0.8331822
0.33232382,4.618302,-0.18643248,0.12522538,0.15567908,-1.3072342,-10.409989,-0.82360536
0.33232903,4.618078,-0.18643248,0.12522538,0.15567908,-1.3072342,-10.409989,-0.82360536
0.33231613,4.6178675,-0.16938825,0.1305517,0.13863485,-1.3742718,-10.405201,-0.8714894
0.3323033,4.6176567,-0.16938825,0.1305517,0.13863485,-1.3742718,-10.405201,-0.8714894
0.33227316,4.6174555,-0.1502135,0.13481276,0.12265587,-1.3503298,-10.386047,-0.9864111
0.33224288,4.6172557,-0.1502135,0.13481276,0.12265587,-1.3503298,-10.386047,-0.9864111
0.33219546,4.617078,-0.12997347,0.13587803,0.10561164,-1.3215994,-10.323798,-0.90979666
0.3321493,4.616905,-0.12997347,0.13587803,0.10561164,-1.3215994,-10.323798,-0.90979666
0.33208406,4.616743,-0.11079871,0.13374749,0.087502144,-1.3551182,-10.280702,-1.0247183
0.33201867,4.616581,-0.11079871,0.13374749,0.087502144,-1.3551182,-10.280702,-1.0247183
0.33193642,4.616442,-0.088428155,0.13161696,0.07045791,-1.4030021,-10.266336,-1.0295067
0.331854,4.6163025,-0.088428155,0.13161696,0.07045791,-1.4030021,-10.266336,-1.0295067
0.33175233,4.61619,-0.06712287,0.12842117,0.051283155,-1.412579,-10.228029,-0.9672575
0.33165237,4.61608,-0.06712287,0.12842117,0.051283155,-1.412579,-10.228029,-0.9672575
0.33153054,4.616,-0.04368705,0.12416011,0.0289126,-1.316811,-10.151415,-0.8714894
0.33140874,4.6159205,-0.04368705,0.12416011,0.0289126,-1.316811,-10.151415,-0.8714894
0.33126923,4.615873,-0.018120702,0.11883379,0.00973784,-1.2641385,-10.16578,-0.81402856
0.33112982,4.6158257,-0.018120702,0.11883379,0.00973784,-1.2641385,-10.16578,-0.81402856
0.3309697,4.6158023,0.0074456446,0.115637995,-0.010502185,-1.1779473,-10.041282,-0.8475474
0.33081034,4.615779,0.0074456446,0.115637995,-0.010502185,-1.1779473,-10.041282,-0.8475474
0.33063152,4.6157823,0.03514252,0.11457273,-0.02861168,-1.1348516,-10.036493,-0.8714894
0.33045366,4.615786,0.03514252,0.11457273,-0.02861168,-1.1348516,-10.036493,-0.8714894
0.3302555,4.615818,0.060708866,0.115637995,-0.048851706,-1.1204864,-9.964667,-0.8331822
0.33005774,4.6158495,0.060708866,0.115637995,-0.048851706,-1.1204864,-9.964667,-0.8331822
0.32983804,4.6159115,0.08627521,0.11457273,-0.07122226,-1.1827357,-10.0748005,-0.79487497
0.3296187,4.615973,0.08627521,0.11457273,-0.07122226,-1.1827357,-10.0748005,-0.79487497
0.32937613,4.616064,0.11290683,0.11137694,-0.09465808,-1.2114661,-10.060435,-0.78529817
0.32913452,4.6161547,0.11290683,0.11137694,-0.09465808,-1.2114661,-10.060435,-0.78529817
0.32886708,4.6162686,0.1406037,0.10605062,-0.11809389,-1.2162545,-9.950302,-0.8858546
0.32860067,4.616382,0.1406037,0.10605062,-0.11809389,-1.2162545,-9.950302,-0.8858546
0.3283134,4.6165185,0.16723531,0.099659026,-0.13833392,-1.2401965,-9.773131,-0.9624691
0.32802674,4.616655,0.16723531,0.099659026,-0.13833392,-1.2401965,-9.773131,-0.9624691
0.32772127,4.6168165,0.1917364,0.09539797,-0.15431288,-1.2545617,-9.701305,-0.9864111
0.32741067,4.6169815,0.1917364,0.09539797,-0.15431288,-1.2545617,-9.701305,-0.9864111
0.32710466,4.6171675,0.21304168,0.09007165,-0.16922659,-1.2497733,-9.629479,-0.8619126
0.3267897,4.6173596,0.21304168,0.09007165,-0.16922659,-1.2497733,-9.629479,-0.8619126
0.3267897,4.6173596,0.21304168,0.09007165,-0.16922659,-1.2497733,-9.629479,-0.8619126
0.32613382,4.617801,0.23434697,0.08154953,-0.18307503,-1.2306197,-9.581595,-0.79966336
0.32579657,4.618039,0.25352174,0.07302742,-0.1926624,-1.1827357,-9.543288,-0.8619126
0.32545584,4.6182795,0.25352174,0.07302742,-0.1926624,-1.1827357,-9.543288,-0.8619126
0.32511312,4.6185265,0.27056596,0.06663583,-0.19905399,-1.1875241,-9.519346,-0.9768343
0.32476825,4.6187754,0.27056596,0.06663583,-0.19905399,-1.1875241,-9.519346,-0.9768343
0.32442242,4.619042,0.28654492,0.06130951,-0.20224978,-1.1683705,-9.533711,-0.9624691
0.3240753,4.6193094,0.28654492,0.06130951,-0.20224978,-1.1683705,-9.533711,-0.9624691
0.32372952,4.6195855,0.29719758,0.058113717,-0.20118453,-1.13964,-9.457097,-0.9911995
0.32338443,4.619861,0.29719758,0.058113717,-0.20118453,-1.13964,-9.457097,-0.9911995
0.32304367,4.620145,0.30678496,0.05491792,-0.19692346,-1.1587936,-9.41879,-1.0151415
0.3227025,4.6204286,0.30678496,0.05491792,-0.19692346,-1.1587936,-9.41879,-1.0151415
0.32236734,4.620722,0.31317654,0.053852655,-0.19159715,-1.0582372,-9.490616,-0.9816227
0.32203183,4.621015,0.31317654,0.053852655,-0.19159715,-1.0582372,-9.490616,-0.9816227
0.32170454,4.621306,0.3174376,0.051722128,-0.1841403,-1.0390835,-9.442732,-1.067814
0.32137674,4.6215973,0.3174376,0.051722128,-0.1841403,-1.0390835,-9.442732,-1.067814
0.32105914,4.6218834,0.32169867,0.050656863,-0.17668344,-1.115698,-9.41879,-1.1731589
0.32073727,4.622173,0.32169867,0.050656863,-0.17668344,-1.115698,-9.41879,-1.1731589
0.32042918,4.6224594,0.32276392,0.048526336,-0.16816132,-1.067814,-9.399636,-1.1683705
0.320121,4.6227465,0.32276392,0.048526336,-0.16816132,-1.067814,-9.399636,-1.1683705
0.31982392,4.623038,0.32169867,0.04533054,-0.15537815,-0.9816227,-9.442732,-1.1300632
0.3195266,4.623329,0.32169867,0.04533054,-0.15537815,-0.9816227,-9.442732,-1.1300632
0.31924272,4.623614,0.32063338,0.04533054,-0.14259498,-1.0295067,-9.509769,-1.2066777
0.31895813,4.623899,0.32063338,0.04533054,-0.14259498,-1.0295067,-9.509769,-1.2066777
0.31868628,4.6241884,0.32276392,0.04746107,-0.13087706,-1.0007763,-9.509769,-1.1348516
0.31868628,4.6241884,0.32276392,0.04746107,-0.13087706,-1.0007763,-9.509769,-1.1348516
0.31815913,4.6247716,0.32169867,0.051722128,-0.11596337,-1.0151415,-9.466674,-1.1492168
0.31789804,4.62506,0.32169867,0.051722128,-0.11596337,-1.0151415,-9.466674,-1.1492168
0.31766006,4.6253443,0.32276392,0.05491792,-0.0999844,-1.0582372,-9.466674,-1.067814
0.31742388,4.6256256,0.32276392,0.05491792,-0.0999844,-1.0582372,-9.466674,-1.067814
0.31719875,4.6259146,0.3259597,0.055983186,-0.08294017,-1.043872,-9.457097,-1.091756
0.3169723,4.626205,0.3259597,0.055983186,-0.08294017,-1.043872,-9.457097,-1.091756
0.3167565,4.6264997,0.3302208,0.055983186,-0.07015699,-1.0151415,-9.385271,-1.1300632
0.31654653,4.6267867,0.3302208,0.055983186,-0.07015699,-1.0151415,-9.385271,-1.1300632
0.31634974,4.627072,0.33448184,0.05491792,-0.05737382,-1.0582372,-9.375694,-1.2497733
0.31615296,4.627357,0.33448184,0.05491792,-0.05737382,-1.0582372,-9.375694,-1.2497733
0.31597057,4.6276407,0.33767763,0.053852655,-0.04459065,-1.0199299,-9.351752,-1.316811
0.31578782,4.627925,0.33767763,0.053852655,-0.04459065,-1.0199299,-9.351752,-1.316811
0.31561622,4.6282187,0.33767763,0.052787393,-0.029676944,-0.93373865,-9.308656,-1.2258313
0.3154477,4.628506,0.33767763,0.052787393,-0.029676944,-0.93373865,-9.308656,-1.2258313
0.31529325,4.6287923,0.33448184,0.051722128,-0.014763243,-0.91937345,-9.270349,-1.2210429
0.31513882,4.6290784,0.33448184,0.051722128,-0.014763243,-0.91937345,-9.270349,-1.2210429
0.31499568,4.6293664,0.3323513,0.050656863,-0.001980069,-0.8762778,-9.232041,-1.1731589
0.31485268,4.6296544,0.3323513,0.050656863,-0.001980069,-0.8762778,-9.232041,-1.1731589
0.31471783,4.6299458,0.3291555,0.048526336,0.007607311,-0.80445176,-9.217676,-1.0821792
0.31458333,4.6302366,0.3291555,0.048526336,0.007607311,-0.80445176,-9.217676,-1.0821792
0.3144547,4.630535,0.327025,0.04533054,0.015064162,-0.79966336,-9.212888,-0.9816227
0.31432733,4.6308303,0.327025,0.04533054,0.015064162,-0.79966336,-9.212888,-0.9816227
0.31420493,4.6311336,0.32809025,0.041069485,0.020390484,-0.7374141,-9.198523,-0.90500826
0.3140823,4.6314373,0.32809025,0.041069485,0.020390484,-0.7374141,-9.198523,-0.90500826
0.31396335,4.6317434,0.32809025,0.036808424,0.023586277,-0.7326257,-9.174581,-0.8714894
0.31384417,4.6320505,0.32809025,0.036808424,0.023586277,-0.7326257,-9.174581,-0.8714894
0.31372663,4.6323576,0.3302208,0.03361263,0.024651542,-0.7134721,-9.184157,-0.90979666
0.31360897,4.6326647,0.3302208,0.03361263,0.024651542,-0.7134721,-9.184157,-0.90979666
0.31349376,4.632982,0.3355471,0.029351573,0.026782071,-0.81881696,-9.260772,-0.8571242
0.31337845,4.633299,0.3355471,0.029351573,0.026782071,-0.81881696,-9.260772,-0.8571242
0.31326503,4.6336303,0.34087342,0.024025252,0.027847335,-0.8283938,-9.313444,-0.7517793
0.31315133,4.6339617,0.34087342,0.024025252,0.027847335,-0.8283938,-9.313444,-0.7517793
0.31304178,4.6343045,0.34619975,0.017633665,0.031043129,-0.79966336,-9.409213,-0.6991069
0.3129324,4.6346464,0.34619975,0.017633665,0.031043129,-0.79966336,-9.409213,-0.6991069
0.31282622,4.635001,0.3536566,0.010176814,0.033173658,-0.79966336,-9.385271,-0.6512229
0.31271964,4.6353564,0.3536566,0.010176814,0.033173658,-0.79966336,-9.385271,-0.6512229
0.31261724,4.6357226,0.36324397,-0.0015410949,0.03636945,-0.7086837,-9.452309,-0.6751649
0.31251484,4.636088,0.36324397,-0.0015410949,0.03636945,-0.7086837,-9.452309,-0.6751649
0.3124169,4.636471,0.37283134,-0.012193739,0.039565243,-0.6464345,-9.504981,-0.61770403
0.31231916,4.636853,0.37283134,-0.012193739,0.039565243,-0.6464345,-9.504981,-0.61770403
0.31222212,4.63725,0.383484,-0.020715855,0.039565243,-0.5410896,-9.615114,-0.60333884
0.31212527,4.6376457,0.383484,-0.020715855,0.039565243,-0.5410896,-9.615114,-0.60333884
0.3120281,4.638065,0.39307138,-0.02923797,0.03636945,-0.62728083,-9.701305,-0.4405331
0.31193113,4.6384826,0.39307138,-0.02923797,0.03636945,-0.62728083,-9.701305,-0.4405331
0.31183374,4.638921,0.4047893,-0.03669482,0.034238923,-0.7565677,-9.77792,-0.37349546
0.3117364,4.6393576,0.4047893,-0.03669482,0.034238923,-0.7565677,-9.77792,-0.37349546
0.3116397,4.6398168,0.42183352,-0.04308641,0.033173658,-0.7469909,-9.753978,-0.31603462
0.31154305,4.640275,0.42183352,-0.04308641,0.033173658,-0.7469909,-9.753978,-0.31603462
0.31144816,4.640754,0.43887776,-0.052673787,0.034238923,-0.6703765,-9.739613,-0.29688102
0.31135246,4.6412363,0.43887776,-0.052673787,0.034238923,-0.6703765,-9.739613,-0.29688102
0.3112556,4.6417317,0.45592198,-0.06332643,0.032108393,-0.6512229,-9.682152,-0.32561144
0.31115845,4.642227,0.45592198,-0.06332643,0.032108393,-0.6512229,-9.682152,-0.32561144
0.3110591,4.64275,0.47403148,-0.07184855,0.027847335,-0.50757074,-9.65821,-0.22984336
0.31095967,4.6432714,0.47403148,-0.07184855,0.027847335,-0.50757074,-9.65821,-0.22984336
0.31085443,4.6438136,0.49214098,-0.080370665,0.02145575,-0.47884035,-9.720459,-0.22505496
0.3107492,4.6443543,0.49214098,-0.080370665,0.02145575,-0.47884035,-9.720459,-0.22505496
0.31064433,4.64493,0.5134463,-0.08889278,0.017194692,-0.6464345,-9.768343,-0.07182605
0.31053954,4.645504,0.5134463,-0.08889278,0.017194692,-0.6464345,-9.768343,-0.07182605
0.3104303,4.646108,0.53794736,-0.096349634,0.011868369,-0.6991069,-9.763555,-0.05267244
0.31032103,4.6467104,0.53794736,-0.096349634,0.011868369,-0.6991069,-9.763555,-0.05267244
0.3102074,4.647346,0.5656442,-0.10700227,0.0065420466,-0.6895301,-9.677363,-0.02873042
0.31009364,4.6479807,0.5656442,-0.10700227,0.0065420466,-0.6895301,-9.677363,-0.02873042
0.30997622,4.648654,0.5965369,-0.12191598,-0.00091480464,-0.48841715,-9.662998,0.10534488
0.3098584,4.6493278,0.5965369,-0.12191598,-0.00091480464,-0.48841715,-9.662998,0.10534488
0.3097346,4.65004,0.6295601,-0.13363388,-0.008371656,-0.39743748,-9.77792,0.16280572
0.3097346,4.65004,0.6295601,-0.13363388,-0.008371656,-0.39743748,-9.77792,0.16280572
0.30954814,4.651059,0.6625833,-0.142156,-0.021154828,-0.37349546,-9.844957,0.15801731
0.30931783,4.6523123,0.6625833,-0.142156,-0.021154828,-0.37349546,-9.844957,0.15801731
0.3091705,4.653069,0.6945412,-0.15174338,-0.039264325,-0.56982,-9.931149,0.19153613
0.3091705,4.653069,0.6945412,-0.15174338,-0.039264325,-0.56982,-9.931149,0.19153613
0.30883476,4.654726,0.72649914,-0.16452655,-0.060569614,-0.6368576,-9.950302,0.21547815
0.3086741,4.655488,0.72649914,-0.16452655,-0.060569614,-0.6368576,-9.950302,0.21547815
0.30846217,4.6564097,0.75845706,-0.18050553,-0.08294017,-0.6703765,-9.940725,0.14844051
0.30827853,4.657206,0.75845706,-0.18050553,-0.08294017,-0.6703765,-9.940725,0.14844051
0.30806276,4.6580973,0.78934973,-0.19861501,-0.104245454,-0.6847417,-9.945514,0.18674773
0.3078458,4.658991,0.78934973,-0.19861501,-0.104245454,-0.6847417,-9.945514,0.18674773
0.30761486,4.6599207,0.81704664,-0.21565925,-0.12022442,-0.7469909,-9.911995,0.22505496
0.30738354,4.66085,0.81704664,-0.21565925,-0.12022442,-0.7469909,-9.911995,0.22505496
0.30713397,4.6618104,0.84580874,-0.23483402,-0.13726866,-0.7517793,-9.911995,0.16759412
0.30687764,4.662794,0.84580874,-0.23483402,-0.13726866,-0.7517793,-9.911995,0.16759412
0.3066202,4.6637735,0.8745709,-0.25294352,-0.15005183,-0.7230489,-9.911995,0.20111294
0.30635938,4.6647635,0.8745709,-0.25294352,-0.15005183,-0.7230489,-9.911995,0.20111294
0.30608523,4.6657987,0.90333307,-0.26998773,-0.16496553,-0.8283938,-10.012551,0.272939
0.30581117,4.6668305,0.90333307,-0.26998773,-0.16496553,-0.8283938,-10.012551,0.272939
0.30552423,4.667907,0.93635625,-0.29022777,-0.17881396,-0.8714894,-10.022128,0.31124622
0.3052376,4.6689796,0.93635625,-0.29022777,-0.17881396,-0.8714894,-10.022128,0.31124622
0.3049361,4.6700926,0.97257525,-0.31046778,-0.19159715,-0.8714894,-9.993398,0.24899697
0.30463096,4.671215,0.97257525,-0.31046778,-0.19159715,-0.8714894,-9.993398,0.24899697
0.30431837,4.6723747,1.0109248,-0.33283833,-0.20331505,-0.79966336,-9.9550905,0.30645782
0.30400655,4.673528,1.0109248,-0.33283833,-0.20331505,-0.79966336,-9.9550905,0.30645782
0.3036841,4.67473,1.0503396,-0.35627416,-0.2139677,-0.7469909,-9.911995,0.32561144
0.30335754,4.6759434,1.0503396,-0.35627416,-0.2139677,-0.7469909,-9.911995,0.32561144
0.30301812,4.6772013,1.0918849,-0.38077524,-0.22462034,-0.7374141,-9.907207,0.25857377
0.30267972,4.678452,1.0918849,-0.38077524,-0.22462034,-0.7374141,-9.907207,0.25857377
0.30233592,4.679743,1.1355608,-0.40634158,-0.23527299,-0.78050977,-9.888053,0.30166942
0.3019891,4.681041,1.1355608,-0.40634158,-0.23527299,-0.78050977,-9.888053,0.30166942
0.30162516,4.6823897,1.1792365,-0.4351037,-0.24912143,-0.8283938,-9.825804,0.21068975
0.30125988,4.683738,1.1792365,-0.4351037,-0.24912143,-0.8283938,-9.825804,0.21068975
0.30125988,4.683738,1.2250429,-0.46493113,-0.2651004,-0.93373865,-9.782708,0.22505496
0.30045992,4.686689,1.2250429,-0.46493113,-0.2651004,-0.93373865,-9.782708,0.22505496
0.30008292,4.688074,1.2719146,-0.49475855,-0.2789488,-1.115698,-9.797073,0.16280572
0.30008292,4.688074,1.2719146,-0.49475855,-0.2789488,-1.115698,-9.797073,0.16280572
0.2992876,4.690984,1.3209168,-0.5267165,-0.28747094,-1.2545617,-9.77792,0.009576807
0.29888424,4.692455,1.3209168,-0.5267165,-0.28747094,-1.2545617,-9.77792,0.009576807
0.2984655,4.694007,1.369919,-0.5618702,-0.291732,-1.2641385,-9.749189,-0.090979666
0.29804558,4.6955566,1.369919,-0.5618702,-0.291732,-1.2641385,-9.749189,-0.090979666
0.2976229,4.697169,1.418921,-0.5991545,-0.29386252,-1.13964,-9.68694,-0.07182605
0.297199,4.6987786,1.418921,-0.5991545,-0.29386252,-1.13964,-9.68694,-0.07182605
0.29677424,4.700444,1.4689884,-0.6364387,-0.2949278,-0.9624691,-9.557653,-0.076614454
0.2963469,4.7021136,1.4689884,-0.6364387,-0.2949278,-0.9624691,-9.557653,-0.076614454
0.29591864,4.7038426,1.5201212,-0.673723,-0.2949278,-0.90979666,-9.452309,-0.08619126
0.29548916,4.7055697,1.5201212,-0.673723,-0.2949278,-0.90979666,-9.452309,-0.08619126
0.29505944,4.7073464,1.5733844,-0.70887667,-0.29599306,-0.866701,-9.351752,-0.1388637
0.294625,4.709136,1.5733844,-0.70887667,-0.29599306,-0.866701,-9.351752,-0.1388637
0.29418945,4.71098,1.6298434,-0.7418999,-0.2981236,-0.89543146,-9.212888,-0.1388637
0.29375154,4.7128263,1.6298434,-0.7418999,-0.2981236,-0.89543146,-9.212888,-0.1388637
0.29330924,4.714736,1.6873677,-0.7749231,-0.30238464,-1.0103531,-9.045294,-0.08619126
0.29286376,4.716651,1.6873677,-0.7749231,-0.30238464,-1.0103531,-9.045294,-0.08619126
0.2924162,4.718626,1.744892,-0.806881,-0.30451518,-1.115698,-8.90643,-0.05267244
0.29195955,4.7206316,1.744892,-0.806881,-0.30451518,-1.115698,-8.90643,-0.05267244
0.29195955,4.7206316,1.744892,-0.806881,-0.30451518,-1.115698,-8.90643,-0.05267244
0.29106453,4.72471,1.8045468,-0.8431,-0.3013194,-1.1492168,-8.738836,0.009576807
0.29061845,4.726823,1.8652668,-0.8814495,-0.29599306,-1.1348516,-8.585608,0.023942016
0.29017067,4.728933,1.8652668,-0.8814495,-0.29599306,-1.1348516,-8.585608,0.023942016
0.28973213,4.7311063,1.9270521,-0.92299485,-0.28534043,-1.13964,-8.384495,-0.07182605
0.28973213,4.7311063,1.9270521,-0.92299485,-0.28534043,-1.13964,-8.384495,-0.07182605
0.28885153,4.735524,1.986707,-0.96560544,-0.2768183,-1.2785037,-8.250419,0
0.2884139,4.737771,1.986707,-0.96560544,-0.2768183,-1.2785037,-8.250419,0
0.28798613,4.7400894,2.0474272,-1.0103465,-0.26403514,-1.3072342,-8.073248,0.02873042
0.2875568,4.742404,2.0474272,-1.0103465,-0.26403514,-1.3072342,-8.073248,0.02873042
0.2871439,4.744787,2.1060166,-1.0561529,-0.24486037,-1.2689269,-7.8769236,0.019153614
0.28672856,4.747172,2.1060166,-1.0561529,-0.24486037,-1.2689269,-7.8769236,0.019153614
0.2863437,4.7496104,2.1592798,-1.1030245,-0.21716349,-1.1204864,-7.6710224,-0.12928689
0.28595853,4.752039,2.1592798,-1.1030245,-0.21716349,-1.1204864,-7.6710224,-0.12928689
0.28560704,4.7545166,2.204021,-1.1498961,-0.18627082,-0.8858546,-7.3406224,-0.31603462
0.2852543,4.7569895,2.204021,-1.1498961,-0.18627082,-0.8858546,-7.3406224,-0.31603462
0.28493288,4.7595115,2.2391746,-1.1967678,-0.15111709,-0.60812724,-6.9958572,-0.4405331
0.28460908,4.7620335,2.2391746,-1.1967678,-0.15111709,-0.60812724,-6.9958572,-0.4405331
0.28432235,4.764584,2.2636757,-1.2404437,-0.11276757,-0.4405331,-6.679823,-0.5554548
0.28403327,4.7671356,2.2636757,-1.2404437,-0.11276757,-0.4405331,-6.679823,-0.5554548
0.28377107,4.7697372,2.2732632,-1.2798585,-0.073352784,-0.20111294,-6.315904,-0.5554548
0.2835103,4.7722993,2.2732632,-1.2798585,-0.073352784,-0.20111294,-6.315904,-0.5554548
0.28328222,4.7748766,2.2700675,-1.313947,-0.03074221,0.01436521,-5.985504,-0.5506664
0.28305134,4.7774553,2.2700675,-1.313947,-0.03074221,0.01436521,-5.985504,-0.5506664
0.28285334,4.780039,2.2540884,-1.3427091,0.012933633,0.2873042,-5.6215854,-0.5410896
0.28265315,4.782611,2.2540884,-1.3427091,0.012933633,0.2873042,-5.6215854,-0.5410896
0.28249007,4.7851806,2.2263916,-1.362949,0.061935797,0.58897364,-5.2241483,-0.47884035
0.2823241,4.787746,2.2263916,-1.362949,0.061935797,0.58897364,-5.2241483,-0.47884035
0.28220263,4.7902884,2.1891072,-1.3767976,0.11519902,0.8762778,-4.76925,-0.4357447
0.2820783,4.792822,2.1891072,-1.3767976,0.11519902,0.8762778,-4.76925,-0.4357447
0.28200254,4.795332,2.144366,-1.3831891,0.17165804,1.1300632,-4.4005427,-0.34955344
0.28192353,4.797837,2.144366,-1.3831891,0.17165804,1.1300632,-4.4005427,-0.34955344
0.28189674,4.800296,2.0900376,-1.3821238,0.22918232,1.3072342,-4.074931,-0.24899697
0.28186664,4.802752,2.0900376,-1.3821238,0.22918232,1.3072342,-4.074931,-0.24899697
0.28189278,4.8051558,2.0282524,-1.3757322,0.28883713,1.5610195,-3.7445314,-0.1388637
0.2819156,4.807566,2.0282524,-1.3757322,0.28883713,1.5610195,-3.7445314,-0.1388637
0.28200045,4.8099103,1.9622059,-1.362949,0.35275298,1.6184803,-3.5194764,-0.038307227
0.28208187,4.812252,1.9622059,-1.362949,0.35275298,1.6184803,-3.5194764,-0.038307227
0.28223503,4.8145247,1.8865721,-1.3416438,0.4241257,1.7381904,-3.2609026,0.038307227
0.2823848,4.8167953,1.8865721,-1.3416438,0.4241257,1.7381904,-3.2609026,0.038307227
0.28261164,4.818984,1.8024162,-1.3118163,0.4997595,1.8195933,-3.217807,0.14844051
0.28283623,4.821182,1.8024162,-1.3118163,0.4997595,1.8195933,-3.217807,0.14844051
0.28314146,4.8232603,1.7108035,-1.2745321,0.58178484,1.7764976,-3.193865,0.2633622
0.28344572,4.8253517,1.7108035,-1.2745321,0.58178484,1.7764976,-3.193865,0.2633622
0.2838436,4.827339,1.6127992,-1.2233994,0.67233235,1.7190368,-3.2752678,0.33518824
0.28423876,4.829327,1.6127992,-1.2233994,0.67233235,1.7190368,-3.2752678,0.33518824
0.28473756,4.831192,1.507338,-1.1637446,0.77353245,1.6519991,-3.323152,0.19632454
0.285233,4.833054,1.507338,-1.1637446,0.77353245,1.6519991,-3.323152,0.19632454
0.2858441,4.834785,1.3944199,-1.092372,0.88431996,1.6903064,-3.4045548,0.19632454
0.286453,4.836517,1.3944199,-1.092372,0.88431996,1.6903064,-3.4045548,0.19632454
0.28719085,4.838102,1.2687187,-1.0092813,1.0057601,1.5897499,-3.5290532,0.12449849
0.28792548,4.839685,1.2687187,-1.0092813,1.0057601,1.5897499,-3.5290532,0.12449849
0.28880006,4.841107,1.1302344,-0.915538,1.1357224,1.4221559,-3.5817258,0.08619126
0.2896731,4.8425303,1.1302344,-0.915538,1.1357224,1.4221559,-3.5817258,0.08619126
0.29069293,4.84377,0.9779016,-0.8132726,1.2742068,1.2114661,-3.8355112,0.06703765
0.29171154,4.8450108,0.9779016,-0.8132726,1.2742068,1.2114661,-3.8355112,0.06703765
0.2928936,4.8460565,0.8095898,-0.7056809,1.4233438,1.0773908,-4.003105,0.038307227
0.29407242,4.8471017,0.8095898,-0.7056809,1.4233438,1.0773908,-4.003105,0.038307227
0.29542217,4.8479366,0.6242338,-0.5916976,1.5788724,0.89064306,-4.295198,0.10055647
0.29676858,4.8487716,0.6242338,-0.5916976,1.5788724,0.89064306,-4.295198,0.10055647
0.29829237,4.8493767,0.41970298,-0.4755838,1.7397273,0.770933,-4.5202527,0.14844051
0.29981267,4.849982,0.41970298,-0.4755838,1.7397273,0.770933,-4.5202527,0.14844051
0.30151775,4.8503447,0.19812799,-0.35414362,1.9059086,0.61770403,-4.831499,0.30645782
0.30321735,4.850708,0.19812799,-0.35414362,1.9059086,0.61770403,-4.831499,0.30645782
0.3051066,4.8508,-0.040491257,-0.22524664,2.0795467,0.25378537,-5.171476,0.37349546
0.3070015,4.850893,-0.040491257,-0.22524664,2.0795467,0.25378537,-5.171476,0.37349546
0.3090834,4.8507013,-0.29722,-0.08995804,2.258511,-0.11492168,-5.482722,0.521936
0.31117174,4.85051,-0.29722,-0.08995804,2.258511,-0.11492168,-5.482722,0.521936
0.3134661,4.850002,-0.56886244,0.0495916,2.442802,-0.39743748,-5.8801594,0.50757074
0.3157536,4.849496,-0.56886244,0.0495916,2.442802,-0.39743748,-5.8801594,0.50757074
0.3182526,4.848649,-0.8564838,0.19446756,2.6324189,-0.6607997,-6.1866174,0.40701428
0.32075873,4.8478,-0.8564838,0.19446756,2.6324189,-0.6607997,-6.1866174,0.40701428
0.3234779,4.846592,-1.16328,0.3436046,2.8241665,-0.8858546,-6.622362,0.33518824
0.3261988,4.8453836,-1.16328,0.3436046,2.8241665,-0.8858546,-6.622362,0.33518824
0.3291392,4.843803,-1.4839246,0.4927416,3.0169795,-1.1109096,-6.9719152,0.320823
0.33207527,4.842223,-1.4839246,0.4927416,3.0169795,-1.1109096,-6.9719152,0.320823
0.3352243,4.840261,-1.8173524,0.6429439,3.2097924,-1.3982137,-7.398083,0.33997664
0.3383773,4.838294,-1.8173524,0.6429439,3.2097924,-1.3982137,-7.398083,0.33997664
0.3417366,4.835929,-2.1646285,0.7899504,3.3972788,-1.7621324,-7.833828,0.36870706
0.3417366,4.835929,-2.1646285,0.7899504,3.3972788,-1.7621324,-7.833828,0.36870706
0.34888405,4.830367,-2.5151005,0.92950004,3.575178,-2.054225,-8.274361,0.45968673
0.35244134,4.827589,-2.5151005,0.92950004,3.575178,-2.054225,-8.274361,0.45968673
0.35613257,4.8244534,-2.866638,1.0562665,3.7434897,-2.1978772,-8.724471,0.48362875
0.35984072,4.8212943,-2.866638,1.0562665,3.7434897,-2.1978772,-8.724471,0.48362875
0.36371124,4.817747,-3.2139142,1.1681193,3.8947573,-2.3175871,-9.303867,0.59376204
0.36758035,4.8141923,-3.2139142,1.1681193,3.8947573,-2.3175871,-9.303867,0.59376204
0.3715787,4.8102856,-3.5494723,1.2661237,4.030046,-2.3558946,-9.821015,0.7757214
0.3755688,4.8063774,-3.5494723,1.2661237,4.030046,-2.3558946,-9.821015,0.7757214
0.37968397,4.802106,-3.870117,1.3502795,4.144029,-2.7485435,-10.414778,0.8571242
0.3837864,4.797837,-3.870117,1.3502795,4.144029,-2.7485435,-10.414778,0.8571242
0.38798735,4.7932444,-4.167326,1.41313,4.232446,-3.3135753,-11.042058,1.0103531
0.3921806,4.7886496,-4.167326,1.41313,4.232446,-3.3135753,-11.042058,1.0103531
0.39644673,4.783771,-4.4410987,1.4482838,4.3027534,-3.86903,-11.611878,1.0821792
0.4007019,4.7788935,-4.4410987,1.4482838,4.3027534,-3.86903,-11.611878,1.0821792
0.40504205,4.7737536,-4.687175,1.4514797,4.353886,-4.156334,-12.023681,1.2545617
0.40504205,4.7737536,-4.687175,1.4514797,4.353886,-4.156334,-12.023681,1.2545617
0.41390553,4.762891,-4.8991623,1.4237827,4.385844,-4.2999864,-13.852851,1.8052281
0.4183908,4.7573614,-4.8991623,1.4237827,4.385844,-4.2999864,-13.852851,1.8052281
0.42265105,4.752054,-5.0451035,1.3779764,4.400758,-5.391742,-15.227123,2.777274
0.42699698,4.7466154,-5.0451035,1.3779764,4.400758,-5.391742,-15.227123,2.777274
0.42699698,4.7466154,-5.0451035,1.3779764,4.400758,-5.391742,-15.227123,2.777274
0.42699698,4.7466154,-5.0451035,1.3779764,4.400758,-5.391742,-15.227123,2.777274
0.42699698,4.7466154,-5.0451035,1.3779764,4.400758,-5.391742,-15.227123,2.777274
0.44481763,4.7244244,-5.223003,1.183033,4.3474946,-0.6751649,-18.459295,5.9759274
0.4494701,4.7182584,-5.244308,1.1691846,4.340038,-6.105214,-18.938135,4.951209
0.45374814,4.712571,-5.244308,1.1691846,4.340038,-6.105214,-18.938135,4.951209
0.45797992,4.7069674,-5.1196723,1.106334,4.28784,-5.3342814,-20.925323,4.8267107
0.46218905,4.7013683,-5.1196723,1.106334,4.28784,-5.3342814,-20.925323,4.8267107
0.46628386,4.696087,-4.8746614,0.9582622,4.179183,-6.2009826,-20.436905,4.3526587
0.46628386,4.696087,-4.8746614,0.9582622,4.179183,-6.2009826,-20.436905,4.3526587
0.47434568,4.6858325,-4.551886,0.7846241,4.042829,-5.3103395,-21.025879,4.6399627
0.47827747,4.6809216,-4.551886,0.7846241,4.042829,-5.3103395,-21.025879,4.6399627
0.48209363,4.676435,-4.187566,0.5971375,3.8841047,-7.2592196,-22.203827,4.6830587
0.48589125,4.671954,-4.187566,0.5971375,3.8841047,-7.2592196,-22.203827,4.6830587
0.48589125,4.671954,-3.7635906,0.35319197,3.6891613,-5.985504,-21.346703,4.4005427
0.48956254,4.667934,-3.7635906,0.35319197,3.6891613,-5.985504,-21.346703,4.4005427
0.49648392,4.6606874,-3.302331,0.079419,3.457999,-5.985504,-22.064962,4.630386
0.4998608,4.6573334,-3.302331,0.079419,3.457999,-5.985504,-22.064962,4.630386
0.50302136,4.6545887,-2.8282883,-0.1751792,3.2172492,-6.6510925,-22.859838,4.8506527
0.5061882,4.6518345,-2.8282883,-0.1751792,3.2172492,-6.6510925,-22.859838,4.8506527
0.50910133,4.6497464,-2.3286793,-0.44575638,2.962651,-6.751649,-23.18545,4.831499
0.51201785,4.6476536,-2.3286793,-0.44575638,2.962651,-6.751649,-23.18545,4.831499
0.51467246,4.6462584,-1.8013734,-0.7355083,2.6867473,-6.7133417,-23.410503,4.582502
0.51733816,4.6448574,-1.8013734,-0.7355083,2.6867473,-6.7133417,-23.410503,4.582502
0.51733816,4.6448574,-1.2527622,-1.028456,2.394865,-6.5457473,-23.305159,4.3143516
0.52212024,4.6435113,-1.2527622,-1.028456,2.394865,-6.5457473,-23.305159,4.3143516
0.5242398,4.6435766,-0.6956289,-1.3150122,2.0859382,-6.5457473,-22.993914,3.8594532
0.5263109,4.643643,-0.6956289,-1.3150122,2.0859382,-6.5457473,-22.993914,3.8594532
0.52808654,4.6444454,-0.13636506,-1.5983725,1.7578368,-6.4547677,-22.610842,3.5529952
0.52987087,4.645258,-0.13636506,-1.5983725,1.7578368,-6.4547677,-22.610842,3.5529952
0.53131473,4.6467977,0.41970298,-1.8721455,1.4105606,-6.3542113,-22.13679,3.1507695
0.53275955,4.648346,0.41970298,-1.8721455,1.4105606,-6.3542113,-22.13679,3.1507695
0.53384477,4.650607,0.9683142,-2.1342006,1.0451748,-6.2249246,-21.543026,2.753332
0.53492564,4.6528745,0.9683142,-2.1342006,1.0451748,-6.2249246,-21.543026,2.753332
0.5356301,4.6558347,1.5020117,-2.3845377,0.6638102,-6.0381765,-20.90138,2.408567
0.5363294,4.6588097,1.5020117,-2.3845377,0.6638102,-6.0381765,-20.90138,2.408567
0.5366284,4.6624417,2.0175996,-2.6210263,0.26966238,-5.932832,-20.005949,1.6567876
0.53691673,4.6660748,2.0175996,-2.6210263,0.26966238,-5.932832,-20.005949,1.6567876
0.53679717,4.670332,2.5086865,-2.8383403,-0.12981181,-6.0285997,-19.158401,1.0726024
0.53666425,4.6745906,2.5086865,-2.8383403,-0.12981181,-6.0285997,-19.158401,1.0726024
0.53611314,4.679422,2.9720767,-3.046067,-0.5346123,-5.693412,-18.061857,0.59855044
0.53554416,4.684262,2.9720767,-3.046067,-0.5346123,-5.693412,-18.061857,0.59855044
0.5345482,4.689625,3.4067044,-3.2346187,-0.9447391,-5.865794,-17.017986,0.12449849
0.5335345,4.694972,3.4067044,-3.2346187,-0.9447391,-5.865794,-17.017986,0.12449849
0.5320853,4.700801,3.811505,-3.4071915,-1.359127,-5.746084,-15.897499,-0.33518824
0.53061616,4.7066135,3.811505,-3.4071915,-1.359127,-5.746084,-15.897499,-0.33518824
0.5287188,4.712835,4.1875434,-3.5648508,-1.7777759,-5.7125654,-15.016433,-0.7182605
0.5267898,4.719073,4.1875434,-3.5648508,-1.7777759,-5.7125654,-15.016433,-0.7182605
0.5244459,4.725677,4.53695,-3.7012045,-2.1910985,-5.5497594,-14.164097,-1.1923125
0.5220836,4.7322507,4.53695,-3.7012045,-2.1910985,-5.5497594,-14.164097,-1.1923125
0.51930857,4.7391596,4.8597255,-3.815188,-2.6022906,-5.315128,-13.43626,-1.70946
0.51650864,4.7460485,4.8597255,-3.815188,-2.6022906,-5.315128,-13.43626,-1.70946
0.5133047,4.7532167,5.159065,-3.8929522,-3.0006995,-4.783615,-12.684481,-2.303222
0.5100574,4.760398,5.159065,-3.8929522,-3.0006995,-4.783615,-12.684481,-2.303222
0.5064115,4.767824,5.439229,-3.9259753,-3.3831294,-4.132392,-11.736377,-2.9831753
0.5064115,4.767824,5.439229,-3.9259753,-3.3831294,-4.132392,-11.736377,-2.9831753
0.5023981,4.775902,5.697023,-3.9099963,-3.7463846,-3.5338416,-10.572795,-3.7493198
0.4946621,4.7903104,5.697023,-3.9099963,-3.7463846,-3.5338416,-10.572795,-3.7493198
0.49025664,4.797963,5.931381,-3.84395,-4.085139,-2.9831753,-9.677363,-4.3718123
0.48579052,4.8056397,5.931381,-3.84395,-4.085139,-2.9831753,-9.677363,-4.3718123
0.4810509,4.813328,6.135912,-3.7320971,-4.397261,-2.5905263,-8.66701,-4.8841715
0.47625417,4.821031,6.135912,-3.7320971,-4.397261,-2.5905263,-8.66701,-4.8841715
0.4711809,4.828767,6.3148766,-3.5872211,-4.682752,-2.5187001,-8.049306,-5.085284
0.4660756,4.836478,6.3148766,-3.5872211,-4.682752,-2.5187001,-8.049306,-5.085284
0.4607319,4.8441944,6.466144,-3.4178443,-4.9309587,-2.528277,-7.728483,-5.0996494
0.45536837,4.8518715,6.466144,-3.4178443,-4.9309587,-2.528277,-7.728483,-5.0996494
0.4497996,4.859538,6.5961065,-3.2335534,-5.1408157,-2.27928,-7.589619,-4.793192
0.44421908,4.8671594,6.5961065,-3.2335534,-5.1408157,-2.27928,-7.589619,-4.793192
0.43845773,4.8747854,6.7100897,-3.0354142,-5.309128,-2.1212628,-7.7572136,-4.3382936
0.4327045,4.882345,6.7100897,-3.0354142,-5.309128,-2.1212628,-7.7572136,-4.3382936
0.42682272,4.8898935,6.8134203,-2.8255572,-5.43909,-2.0733786,-7.9152308,-3.8115692
0.42092285,4.8974166,6.8134203,-2.8255572,-5.43909,-2.0733786,-7.9152308,-3.8115692
0.41502428,4.904822,6.9114246,-2.6061127,-5.5307026,-2.1404164,-8.034941,-3.169923
0.4090627,4.9122643,6.9114246,-2.6061127,-5.5307026,-2.1404164,-8.034941,-3.169923
0.40308505,4.919672,7.005168,-2.3781462,-5.5818353,-2.231396,-8.250419,-2.681506
0.40308505,4.919672,7.005168,-2.3781462,-5.5818353,-2.231396,-8.250419,-2.681506
0.39114076,4.934383,7.090389,-2.1469836,-5.5903573,-2.3989902,-8.42759,-2.231396
0.38518038,4.941713,7.090389,-2.1469836,-5.5903573,-2.3989902,-8.42759,-2.231396
0.37928632,4.949016,7.1596313,-1.9126256,-5.559465,-2.4612393,-8.485051,-1.7525556
0.3730612,4.956704,7.1596313,-1.9126256,-5.559465,-2.4612393,-8.485051,-1.7525556
0.36761537,4.9635334,7.210764,-1.6803979,-5.489157,-2.6862943,-8.465898,-1.4652514
0.36186504,4.970727,7.210764,-1.6803979,-5.489157,-2.6862943,-8.465898,-1.4652514
0.35631317,4.9778094,7.23633,-1.4577576,-5.3815656,-2.5617957,-8.255207,-1.2497733
0.35078552,4.984849,7.23633,-1.4577576,-5.3815656,-2.5617957,-8.255207,-1.2497733
0.34537834,4.9919004,7.227808,-1.2510962,-5.2452116,-2.5809495,-7.9631147,-1.115698
0.33999088,4.9989185,7.227808,-1.2510962,-5.2452116,-2.5809495,-7.9631147,-1.115698
0.33482704,5.0058126,7.1766753,-1.0614792,-5.080096,-2.2888567,-7.3310456,-1.0534488
0.32964712,5.0127244,7.1766753,-1.0614792,-5.080096,-2.2888567,-7.3310456,-1.0534488
0.32470956,5.0194635,7.0733447,-0.88464534,-4.888348,-1.541866,-6.421249,-1.3790601
0.3197826,5.026189,7.0733447,-0.88464534,-4.888348,-1.541866,-6.421249,-1.3790601
0.3150736,5.032729,6.9029026,-0.714203,-4.681687,-0.60812724,-5.195418,-1.6567876
0.3103803,5.0392504,6.9029026,-0.714203,-4.681687,-0.60812724,-5.195418,-1.6567876
0.3059443,5.0454903,6.6536307,-0.54163015,-4.462242,0.009576807,-3.8977604,-2.0015526
0.3059443,5.0454903,6.6536307,-0.54163015,-4.462242,0.009576807,-3.8977604,-2.0015526
0.29724446,5.0577497,6.3265944,-0.3669268,-4.23108,0.45968673,-2.6719291,-2.0015526
0.29312924,5.0635757,6.3265944,-0.3669268,-4.23108,0.45968673,-2.6719291,-2.0015526
0.28922504,5.0690646,5.921794,-0.19115818,-3.9913955,0.8571242,-0.770933,-2.1068976
0.28541622,5.0744286,5.921794,-0.19115818,-3.9913955,0.8571242,-0.770933,-2.1068976
0.28180656,5.079415,5.4360332,-0.011128475,-3.7431889,2.954445,-0.60812724,-1.316811
0.2782033,5.084401,5.4360332,-0.011128475,-3.7431889,2.954445,-0.60812724,-1.316811
0.27506146,5.088859,4.8757043,0.18914124,-3.4768727,-0.48841715,3.3806129,-2.72939
0.27197883,5.0932426,4.8757043,0.18914124,-3.4768727,-0.48841715,3.3806129,-2.72939
0.26906487,5.097073,4.247198,0.35745302,-3.220144,4.8362875,3.514688,-0.8810662
0.2661565,5.1009054,4.247198,0.35745302,-3.220144,4.8362875,3.514688,-0.8810662
0.2635809,5.1040354,3.5526457,0.56944066,-2.9527626,4.0940847,2.6623523,0.320823
0.26100767,5.107171,3.5526457,0.56944066,-2.9527626,4.0940847,2.6623523,0.320823
0.25882277,5.109565,2.8357227,0.8336262,-2.6587496,3.4572272,2.657564,0.79008657
0.2566442,5.1119585,2.8357227,0.8336262,-2.6587496,3.4572272,2.657564,0.79008657
0.25488496,5.113622,2.1251915,1.0733107,-2.354084,1.5514427,4.3287168,0.24420857
0.25312886,5.1152887,2.1251915,1.0733107,-2.354084,1.5514427,4.3287168,0.24420857
0.25176916,5.1162176,1.4008116,1.2735804,-2.0291784,0.9528923,6.0956373,0.019153614
0.2504112,5.1171484,1.4008116,1.2735804,-2.0291784,0.9528923,6.0956373,0.019153614
0.24942894,5.117322,0.64127797,1.4344354,-1.6850979,1.460463,6.9719152,0.33997664
0.24844697,5.1174974,0.64127797,1.4344354,-1.6850979,1.460463,6.9719152,0.33997664
0.24784103,5.1168914,-0.14914823,1.5729197,-1.3271691,1.9919758,6.8330517,0.8810662
0.24722171,5.116275,-0.14914823,1.5729197,-1.3271691,1.9919758,6.8330517,0.8810662
0.24700245,5.1149054,-0.9512924,1.7060778,-0.9607181,2.1978772,6.4308257,1.3455414
0.24677604,5.1135087,-0.9512924,1.7060778,-0.9607181,2.1978772,6.4308257,1.3455414
0.24693333,5.1113267,-1.7438492,1.8349749,-0.59426713,1.9632454,5.60722,1.6424223
0.24708611,5.109149,-1.7438492,1.8349749,-0.59426713,1.9632454,5.60722,1.6424223
0.24761046,5.1062117,-2.5119047,1.9510887,-0.23101193,1.9057846,4.644751,1.9967642
0.24812932,5.1032734,-2.5119047,1.9510887,-0.23101193,1.9057846,4.644751,1.9967642
0.24900274,5.099614,-3.245872,2.053354,0.1247864,1.9871874,3.5434184,2.3511062
0.2498695,5.095952,-3.245872,2.053354,0.1247864,1.9871874,3.5434184,2.3511062
0.25107348,5.091609,-3.9361634,2.150293,0.46993208,2.2840683,2.4612393,2.6048915
0.2522698,5.087262,-3.9361634,2.150293,0.46993208,2.2840683,2.4612393,2.6048915
0.25378174,5.082282,-4.575322,2.241906,0.80122936,2.6767175,1.0869676,2.8060043
0.25528505,5.0772967,-4.575322,2.241906,0.80122936,2.6767175,1.0869676,2.8060043
0.25708663,5.071732,-5.159087,2.3303227,1.110156,2.4181437,-0.29209262,2.8921957
0.25888947,5.066128,-5.159087,2.3303227,1.110156,2.4181437,-0.29209262,2.8921957
0.2610805,5.0596805,-5.682132,2.4059565,1.3977774,1.7190368,-1.7190368,2.9592333
0.26308334,5.0537496,-5.682132,2.4059565,1.3977774,1.7190368,-1.7190368,2.9592333
0.2653161,5.0474205,-6.1444564,2.4592197,1.6672894,0.9959879,-3.2082303,3.0214825
0.26761436,5.0408673,-6.1444564,2.4592197,1.6672894,0.9959879,-3.2082303,3.0214825
0.2701369,5.033915,-6.5439305,2.480525,1.915496,0.36391866,-4.7884035,3.1794999
0.2726459,5.0269604,-6.5439305,2.480525,1.915496,0.36391866,-4.7884035,3.1794999
0.27535543,5.019665,-6.8773584,2.467742,2.1519847,-0.15801731,-6.3829417,3.2609026
0.27804893,5.0123744,-6.8773584,2.467742,2.1519847,-0.15801731,-6.3829417,3.2609026
0.28091526,5.004805,-7.140479,2.424066,2.3778207,-0.5746084,-8.0445175,3.1794999
0.28376597,4.997242,-7.140479,2.424066,2.3778207,-0.5746084,-8.0445175,3.1794999
0.2867731,4.989461,-7.334357,2.3526933,2.588743,-0.9672575,-9.797073,3.064578
0.28976706,4.981681,-7.334357,2.3526933,2.588743,-0.9672575,-9.797073,3.064578
0.2929173,4.973771,-7.4653845,2.2632113,2.7900782,-1.2497733,-11.257536,3.083732
0.2960476,4.9658775,-7.4653845,2.2632113,2.7900782,-1.2497733,-11.257536,3.083732
0.29932693,4.9579115,-7.5314307,2.150293,2.9764993,-1.5131354,-12.545617,3.040636
0.29932693,4.9579115,-7.5314307,2.150293,2.9764993,-1.5131354,-12.545617,3.040636
0.30622888,4.9418197,-7.533561,2.0182004,3.1543984,-1.685518,-13.666103,3.074155
0.3096898,4.933704,-7.533561,2.0182004,3.1543984,-1.685518,-13.666103,3.074155
0.31306994,4.926154,-7.476037,1.8786507,3.325906,-1.9249382,-14.686033,3.0502129
0.31306994,4.926154,-7.476037,1.8786507,3.325906,-1.9249382,-14.686033,3.0502129
0.32013577,4.9106297,-7.3641844,1.7337747,3.4835653,-2.2840683,-15.514427,3.0885203
0.3237534,4.902914,-7.3641844,1.7337747,3.4835653,-2.2840683,-15.514427,3.0885203
0.32746884,4.8954268,-7.201199,1.5793114,3.6273758,-2.5761611,-16.16565,3.1794999
0.3311937,4.8879023,-7.201199,1.5793114,3.6273758,-2.5761611,-16.16565,3.1794999
0.33499587,4.8806767,-6.995603,1.4163259,3.7584035,-2.8682537,-16.70674,3.2752678
0.33880204,4.873429,-6.995603,1.4163259,3.7584035,-2.8682537,-16.70674,3.2752678
0.34268844,4.8664956,-6.749527,1.2448183,3.8723867,-2.944868,-17.118542,3.4476504
0.34657654,4.859547,-6.749527,1.2448183,3.8723867,-2.944868,-17.118542,3.4476504
0.3505368,4.852947,-6.4651012,1.070115,3.9693258,-2.9400797,-17.429789,3.6822822
0.3544921,4.846344,-6.4651012,1.070115,3.9693258,-2.9400797,-17.429789,3.6822822
0.35850185,4.8401136,-6.1444564,0.89541155,4.0438943,-2.7820623,-17.884687,3.8786068
0.36251095,4.8338747,-6.1444564,0.89541155,4.0438943,-2.7820623,-17.884687,3.8786068
0.36654904,4.828045,-5.791854,0.7270998,4.0939617,-2.9975405,-17.563864,3.7014358
0.37058738,4.822207,-5.791854,0.7270998,4.0939617,-2.9975405,-17.563864,3.7014358
0.37463793,4.8167896,-5.4147506,0.5630491,4.1163325,-2.9017725,-18.0858,3.8498764
0.37867293,4.811386,-5.4147506,0.5630491,4.1163325,-2.9017725,-18.0858,3.8498764
0.38270158,4.8064303,-5.013146,0.40752044,4.114202,-3.6296098,-18.459295,3.7493198
0.3867233,4.8014774,-5.013146,0.40752044,4.114202,-3.6296098,-18.459295,3.7493198
0.39072594,4.7969723,-4.5849094,0.24560025,4.086505,-3.8546648,-18.148048,3.2609026
0.3946901,4.792507,-4.5849094,0.24560025,4.086505,-3.8546648,-18.148048,3.2609026
0.3986002,4.788514,-4.135368,0.068766356,4.0279155,-4.0318356,-19.694704,3.0358477
0.4025007,4.784529,-4.135368,0.068766356,4.0279155,-4.0318356,-19.694704,3.0358477
0.40636152,4.7810483,-3.6496072,-0.111263335,3.9352374,-4.7261543,-20.0682,3.0214825
0.4101599,4.7776227,-3.6496072,-0.111263335,3.9352374,-4.7261543,-20.0682,3.0214825
0.41377962,4.7748165,-3.1201708,-0.31259832,3.808471,-4.4436383,-14.489709,1.4987702
0.4174275,4.77199,-3.1201708,-0.31259832,3.808471,-4.4436383,-14.489709,1.4987702
0.42089108,4.7697105,-2.662107,-0.5405649,3.6060708,0.35913026,-21.576546,5.2289367
0.42434967,4.7674356,-2.662107,-0.5405649,3.6060708,0.35913026,-21.576546,5.2289367
0.4276382,4.7657003,-2.1688895,-0.6332429,3.4271061,-4.6351743,-23.367409,4.405331
0.4276382,4.7657003,-2.1688895,-0.6332429,3.4271061,-4.6351743,-23.367409,4.405331
0.43582886,4.762762,-1.5755373,-0.79196733,3.176769,-4.2904096,-23.195026,3.6822822
0.43582886,4.762762,-1.5755373,-0.79196733,3.176769,-4.2904096,-23.195026,3.6822822
0.43582886,4.762762,-1.5755373,-0.79196733,3.176769,-4.2904096,-23.195026,3.6822822
0.44240773,4.7604146,-1.5755373,-0.79196733,3.176769,-4.2904096,-23.195026,3.6822822
0.445184,4.760616,-0.2514136,-1.2042247,2.5450673,-5.2528787,-19.948488,1.3694834
0.44751054,4.761011,-0.2514136,-1.2042247,2.5450673,-5.2528787,-19.948488,1.3694834
0.4494686,4.7621193,0.3920061,-1.4172776,2.1913993,-4.3766007,-17.903841,0.7613561
0.45143878,4.7632394,0.3920061,-1.4172776,2.1913993,-4.3766007,-17.903841,0.7613561
0.4530364,4.7650146,0.9736405,-1.6015683,1.8217527,-4.357447,-16.25663,0.39743748
0.45463142,4.766794,0.9736405,-1.6015683,1.8217527,-4.357447,-16.25663,0.39743748
0.4558305,4.7691665,1.4860327,-1.7539011,1.4329312,-3.643975,-15.682021,0.40222588
0.45701715,4.7715244,1.4860327,-1.7539011,1.4329312,-3.643975,-15.682021,0.40222588
0.45778957,4.774394,1.9409007,-1.874276,1.0249349,-3.41892,-15.279796,0.2825158
0.45855445,4.7772555,1.9409007,-1.874276,1.0249349,-3.41892,-15.279796,0.2825158
0.45889562,4.780551,2.3510275,-1.9531056,0.6073512,-3.5434184,-14.757859,0.11492168
0.45923093,4.783846,2.3510275,-1.9531056,0.6073512,-3.5434184,-14.757859,0.11492168
0.45915082,4.787496,2.7249353,-1.9967815,0.18657175,-3.691859,-13.982138,-0.41180268
0.4590649,4.7911334,2.7249353,-1.9967815,0.18657175,-3.691859,-13.982138,-0.41180268
0.45857292,4.7951016,3.0604935,-2.0159562,-0.22994666,-3.5529952,-12.976573,-0.9768343
0.45807597,4.7990546,3.0604935,-2.0159562,-0.22994666,-3.5529952,-12.976573,-0.9768343
0.45718485,4.803271,3.3513107,-2.0159562,-0.64113873,-3.5051112,-11.980585,-1.6519991
0.45718485,4.803271,3.3513107,-2.0159562,-0.64113873,-3.5051112,-11.980585,-1.6519991
0.45462483,4.812091,3.594191,-2.0010424,-1.0438087,-3.6774938,-11.195287,-2.0111294
0.4533305,4.8165054,3.594191,-2.0010424,-1.0438087,-3.6774938,-11.195287,-2.0111294
0.45167485,4.821047,3.7891345,-1.9786719,-1.4273039,-3.9025488,-10.6158905,-2.2840683
0.4500071,4.8255944,3.7891345,-1.9786719,-1.4273039,-3.9025488,-10.6158905,-2.2840683
0.4500071,4.8255944,3.7891345,-1.9786719,-1.4273039,-3.9025488,-10.6158905,-2.2840683
0.44596055,4.834891,3.9393368,-1.9531056,-1.7831023,-3.8786068,-10.299856,-2.3223755
0.44360417,4.8396173,4.0554504,-1.9243435,-2.1133342,-4.0078936,-10.103531,-2.3319526
0.44124368,4.844329,4.0554504,-1.9243435,-2.1133342,-4.0078936,-10.103531,-2.3319526
0.43858457,4.849085,4.1428022,-1.894516,-2.4116082,-3.9504328,-9.993398,-2.2984335
0.43592456,4.853821,4.1428022,-1.894516,-2.4116082,-3.9504328,-9.993398,-2.2984335
0.43300286,4.8585787,4.2088485,-1.8614929,-2.6736634,-3.8546648,-9.835381,-2.1308396
0.4300637,4.8633447,4.2088485,-1.8614929,-2.6736634,-3.8546648,-9.835381,-2.1308396
0.42689872,4.8681064,4.259981,-1.8210127,-2.9037604,-3.6583402,-9.749189,-2.0207062
0.42372224,4.8728657,4.259981,-1.8210127,-2.9037604,-3.6583402,-9.749189,-2.0207062
0.42036584,4.8775997,4.299396,-1.7666843,-3.0965734,-3.5194764,-9.672575,-1.982399
0.41699162,4.8823414,4.299396,-1.7666843,-3.0965734,-3.5194764,-9.672575,-1.982399
0.41350207,4.887024,4.3324194,-1.697442,-3.2510366,-3.5577838,-9.605537,-1.9680338
0.40998766,4.8917227,4.3324194,-1.697442,-3.2510366,-3.5577838,-9.605537,-1.9680338
0.40636787,4.8963985,4.363312,-1.6186125,-3.3703463,-3.5242648,-9.399636,-2.0207062
0.40275195,4.901053,4.363312,-1.6186125,-3.3703463,-3.5242648,-9.399636,-2.0207062
0.39899597,4.905773,4.39527,-1.5323261,-3.4534369,-3.3662477,-9.284714,-2.3223755
0.39535913,4.9103293,4.39527,-1.5323261,-3.4534369,-3.3662477,-9.284714,-2.3223755
0.39165798,4.9149103,4.427228,-1.4375175,-3.4992433,-3.241749,-8.963891,-2.6527755
0.3879284,4.9195137,4.427228,-1.4375175,-3.4992433,-3.241749,-8.963891,-2.6527755
0.38420734,4.9240866,4.4549246,-1.3341869,-3.514157,-3.0310593,-8.494628,-2.8299465
0.380492,4.9286413,4.4549246,-1.3341869,-3.514157,-3.0310593,-8.494628,-2.8299465
0.3768122,4.933163,4.4740996,-1.2223341,-3.5003085,-2.7868507,-7.9583263,-2.9113493
0.37312776,4.9376817,4.4740996,-1.2223341,-3.5003085,-2.7868507,-7.9583263,-2.9113493
0.36950514,4.9421535,4.4783607,-1.1030245,-3.4587631,-2.3223755,-7.225701,-2.8060043
0.3658783,4.946623,4.4783607,-1.1030245,-3.4587631,-2.3223755,-7.225701,-2.8060043
0.3623519,4.951016,4.463447,-0.96773595,-3.3905864,-1.8818425,-6.4787097,-2.7629087
0.35881856,4.955412,4.463447,-0.96773595,-3.3905864,-1.8818425,-6.4787097,-2.7629087
0.35540444,4.959708,4.4219017,-0.8175337,-3.2979083,-1.1971009,-5.645528,-2.7006595
0.3519946,4.963995,4.4219017,-0.8175337,-3.2979083,-1.1971009,-5.645528,-2.7006595
0.34871644,4.9681554,4.3462677,-0.65241766,-3.1871207,-0.39743748,-4.55856,-2.6001031
0.3454364,4.972316,4.3462677,-0.65241766,-3.1871207,-0.39743748,-4.55856,-2.6001031
0.34230325,4.9762926,4.2237625,-0.47025746,-3.0635502,0.6799533,-3.4524388,-2.657564
0.33916876,4.9802704,4.2237625,-0.47025746,-3.0635502,0.6799533,-3.4524388,-2.657564
0.3362037,4.984001,4.044798,-0.27318352,-2.9335878,1.4030021,-2.2649148,-2.5234885
0.33322915,4.9877443,4.044798,-0.27318352,-2.9335878,1.4030021,-2.2649148,-2.5234885
0.3304436,4.991174,3.7965913,-0.061195903,-2.7951035,1.9057846,-1.2162545,-2.2888567
0.32763258,4.994638,3.7965913,-0.061195903,-2.7951035,1.9057846,-1.2162545,-2.2888567
0.32507178,4.997689,3.4791424,0.1667707,-2.6470318,2.2984335,-0.17238252,-2.0925324
0.32248768,5.000771,3.4791424,0.1667707,-2.6470318,2.2984335,-0.17238252,-2.0925324
0.32014427,5.0034266,3.0913863,0.40219414,-2.487242,2.1691468,0.6847417,-1.6950948
0.31780347,5.0060835,3.0913863,0.40219414,-2.487242,2.1691468,0.6847417,-1.6950948
0.3157129,5.008273,2.6375835,0.6397481,-2.3125386,2.5905263,1.6089035,-1.3551182
0.3136228,5.010467,2.6375835,0.6397481,-2.3125386,2.5905263,1.6089035,-1.3551182
0.31180543,5.0121145,2.127322,0.87517154,-2.1229217,2.7868507,2.3989902,-0.9672575
0.30998838,5.0137653,2.127322,0.87517154,-2.1229217,2.7868507,2.3989902,-0.9672575
0.30844945,5.0148163,1.5616665,1.1073992,-1.9183909,2.896984,3.098097,-0.49799395
0.30690905,5.015871,1.5616665,1.1073992,-1.9183909,2.896984,3.098097,-0.49799395
0.30565652,5.016275,0.94807416,1.3343005,-1.7010769,2.7246015,3.5482068,-0.047884032
0.30440202,5.016682,0.94807416,1.3343005,-1.7010769,2.7246015,3.5482068,-0.047884032
0.30346188,5.0163937,0.290806,1.5526798,-1.4677839,1.5275006,4.060566,-0.10534488
0.30251935,5.0161057,0.290806,1.5526798,-1.4677839,1.5275006,4.060566,-0.10534488
0.3018629,5.0151057,-0.3962896,1.7465578,-1.218512,2.3080103,4.4196963,0.3878607
0.301203,5.0141053,-0.3962896,1.7465578,-1.218512,2.3080103,4.4196963,0.3878607
0.30082777,5.0123835,-1.1089514,1.9116739,-0.96391386,2.1404164,3.3039982,1.2976574
0.30043823,5.010614,-1.1089514,1.9116739,-0.96391386,2.1404164,3.3039982,1.2976574
0.30037507,5.008197,-1.8301356,2.0895731,-0.6816188,1.5562311,1.958457,1.8674773
0.3003064,5.005767,-1.8301356,2.0895731,-0.6816188,1.5562311,1.958457,1.8674773
0.30057538,5.00259,-2.5342753,2.2493627,-0.37695315,0.9911995,1.5658079,1.7764976
0.30083725,4.9994125,-2.5342753,2.2493627,-0.37695315,0.9911995,1.5658079,1.7764976
0.3014373,4.995542,-3.21711,2.3761292,-0.06163488,0.61770403,1.4556746,1.6328455
0.30202803,4.9916725,-3.21711,2.3761292,-0.06163488,0.61770403,1.4556746,1.6328455
0.30296317,4.9870768,-3.8871613,2.4656115,0.26114026,0.19632454,0.90021986,1.6663644
0.3038623,4.982604,-3.8871613,2.4656115,0.26114026,0.19632454,0.90021986,1.6663644
0.30508038,4.9774237,-4.5444293,2.5273967,0.5881764,0.2873042,0.06703765,1.8243817
0.30629277,4.9722123,-4.5444293,2.5273967,0.5881764,0.2873042,0.06703765,1.8243817
0.30779636,4.9664025,-5.1761312,2.5700073,0.91734314,0.34476504,-0.93852705,1.8674773
0.3092857,4.960592,-5.1761312,2.5700073,0.91734314,0.34476504,-0.93852705,1.8674773
0.31106856,4.9541883,-5.7737446,2.6019652,1.243314,0.090979666,-2.1404164,1.8148049
0.3128377,4.947777,-5.7737446,2.6019652,1.243314,0.090979666,-2.1404164,1.8148049
0.31487855,4.940815,-6.3212905,2.6275315,1.5618281,-0.1436521,-3.3087866,1.6280571
0.31690335,4.9338512,-6.3212905,2.6275315,1.5618281,-0.1436521,-3.3087866,1.6280571
0.31919038,4.926369,-6.8091817,2.6424453,1.8707548,-0.4357447,-4.548983,1.4987702
0.32147005,4.9188557,-6.8091817,2.6424453,1.8707548,-0.4357447,-4.548983,1.4987702
0.32147005,4.9188557,-6.8091817,2.6424453,1.8707548,-0.4357447,-4.548983,1.4987702
0.32651946,4.902906,-7.229961,2.645641,2.169029,-1.0534488,-5.765238,1.2976574
0.3292633,4.8946385,-7.581498,2.6317925,2.4545197,-1.70946,-6.919243,1.0773908
0.33200788,4.8862925,-7.581498,2.6317925,2.4545197,-1.70946,-6.919243,1.0773908
0.33504567,4.8776226,-7.861663,2.5934432,2.7240317,-2.1212628,-7.97748,0.7613561
0.3380595,4.8689327,-7.861663,2.5934432,2.7240317,-2.1212628,-7.97748,0.7613561
0.3413105,4.8600445,-8.070455,2.5316577,2.979695,-2.4277205,-9.227253,0.58418524
0.34453836,4.8511343,-8.070455,2.5316577,2.979695,-2.4277205,-9.227253,0.58418524
0.34798804,4.842105,-8.213201,2.4506977,3.2215102,-2.9592333,-10.5919485,0.46926352
0.35141146,4.8330603,-8.213201,2.4506977,3.2215102,-2.9592333,-10.5919485,0.46926352
0.35505304,4.8239546,-8.290964,2.3537586,3.4516072,-3.6343982,-12.20564,0.24899697
0.35867605,4.8148136,-8.290964,2.3537586,3.4516072,-3.6343982,-12.20564,0.24899697
0.36248004,4.805711,-8.308009,2.241906,3.6699865,-4.2521024,-13.814544,0.17717093
0.3662617,4.796581,-8.308009,2.241906,3.6699865,-4.2521024,-13.814544,0.17717093
0.37019774,4.7875404,-8.265398,2.0980952,3.869191,-4.711789,-15.586253,0.22505496
0.37019774,4.7875404,-8.265398,2.0980952,3.869191,-4.711789,-15.586253,0.22505496
0.3778911,4.770746,-8.156741,1.9244571,4.051351,-5.0374002,-17.362751,0.18195933
0.3823786,4.760834,-8.156741,1.9244571,4.051351,-5.0374002,-17.362751,0.18195933
0.38653734,4.75219,-7.9831033,1.739101,4.218598,-5.535394,-19.053057,0.009576807
0.38653734,4.75219,-7.9831033,1.739101,4.218598,-5.535394,-19.053057,0.009576807
0.3950282,4.7349625,-7.7434187,1.5409619,4.3709307,-6.0238113,-20.369867,-0.34955344
0.39924374,4.7266674,-7.7434187,1.5409619,4.3709307,-6.0238113,-20.369867,-0.34955344
0.40361342,4.7186646,-7.436622,1.3257784,4.497697,-6.2105594,-21.65795,-0.4261679
0.40798655,4.7106175,-7.436622,1.3257784,4.497697,-6.2105594,-21.65795,-0.4261679
0.4124378,4.7030573,-7.06378,1.0956813,4.6010275,-6.05733,-23.348255,-0.45010993
0.41687986,4.695483,-7.06378,1.0956813,4.6010275,-6.05733,-23.348255,-0.45010993
0.42141724,4.6884747,-6.6110425,0.8634536,4.678792,-5.861006,-27.715279,1.0630256
0.425945,4.6814566,-6.6110425,0.8634536,4.678792,-5.861006,-27.715279,1.0630256
0.43072295,4.6749754,-6.0315385,0.62376916,4.726729,-10.0987425,-14.872781,-3.7828386
0.43550026,4.668469,-6.0315385,0.62376916,4.726729,-10.0987425,-14.872781,-3.7828386
0.44006535,4.6628017,-5.457361,0.31590772,4.69051,2.954445,-28.965052,4.3382936
0.44461903,4.657131,-5.457361,0.31590772,4.69051,2.954445,-28.965052,4.3382936
0.44919598,4.652143,-4.8704004,0.15824857,4.6681395,-9.188946,-29.8126,3.0454245
0.4537619,4.6471515,-4.8704004,0.15824857,4.6681395,-9.188946,-29.8126,3.0454245
0.45826066,4.642965,-4.1012793,-0.0100632105,4.5967665,-5.9998693,-31.598675,3.289633
0.46274972,4.6387753,-4.1012793,-0.0100632105,4.5967665,-5.9998693,-31.598675,3.289633
0.46704865,4.635684,-3.1542592,-0.34242573,4.3826485,-5.3965306,-27.868507,1.958457
0.47133508,4.632596,-3.1542592,-0.34242573,4.3826485,-5.3965306,-27.868507,1.958457
0.47539553,4.630676,-2.1433232,-0.6332429,4.1248546,-4.841076,-28.33777,2.9735985
0.4794607,4.6287513,-2.1433232,-0.6332429,4.1248546,-4.841076,-28.33777,2.9735985
0.4832687,4.6280203,-1.1057557,-0.8878411,3.8297763,-7.6710224,-25.617958,1.934515
0.48708776,4.627288,-1.1057557,-0.8878411,3.8297763,-7.6710224,-25.617958,1.934515
0.49055532,4.62778,-0.05327443,-1.1914415,3.4697168,-5.3821654,-23.089682,1.6136919
0.49398726,4.628271,-0.05327443,-1.1914415,3.4697168,-5.3821654,-23.089682,1.6136919
0.49704194,4.6299505,0.96618366,-1.4779977,3.0574594,-3.8402996,-20.599712,1.067814
0.5000968,4.631639,0.96618366,-1.4779977,3.0574594,-3.8402996,-20.599712,1.067814
0.5027213,4.634412,1.9153343,-1.6867895,2.61644,-3.064578,-18.760965,0.78529817
0.5053408,4.6371927,1.9153343,-1.6867895,2.61644,-3.064578,-18.760965,0.78529817
0.5075067,4.640979,2.7877858,-1.8433833,2.1466584,-3.466804,-17.439365,0.17717093
0.5096629,4.6447687,2.7877858,-1.8433833,2.1466584,-3.466804,-17.439365,0.17717093
0.5112796,4.6493692,3.585669,-1.9808024,1.6438535,-3.8115692,-16.371552,-0.3878607
0.5129078,4.6540356,3.585669,-1.9808024,1.6438535,-3.8115692,-16.371552,-0.3878607
0.5140049,4.659464,4.303657,-2.0969162,1.1240045,-3.6296098,-15.097836,-1.1540052
0.5150933,4.664906,4.303657,-2.0969162,1.1240045,-3.6296098,-15.097836,-1.1540052
0.51565766,4.6710095,4.9321632,-2.1906595,0.59989434,-3.5625722,-13.570335,-1.757344
0.51621103,4.6771264,4.9321632,-2.1906595,0.59989434,-3.5625722,-13.570335,-1.757344
0.5162581,4.6837845,5.4594693,-2.2577713,0.075784236,-3.7253778,-11.87524,-2.4277205
0.5162922,4.690414,5.4594693,-2.2577713,0.075784236,-3.7253778,-11.87524,-2.4277205
0.5158365,4.6975,5.878118,-2.297186,-0.4387385,-3.6631286,-10.065224,-3.2752678
0.5153667,4.7045684,5.878118,-2.297186,-0.4387385,-3.6631286,-10.065224,-3.2752678
0.51441514,4.7119184,6.1785226,-2.3120997,-0.9330212,-3.53863,-8.413225,-3.9264908
0.5134409,4.7193127,6.1785226,-2.3120997,-0.9330212,-3.53863,-8.413225,-3.9264908
0.5120062,4.7268195,6.3638787,-2.300382,-1.4006723,-3.4045548,-7.038953,-4.1659107
0.5105539,4.7343235,6.3638787,-2.300382,-1.4006723,-3.4045548,-7.038953,-4.1659107
0.5086659,4.7418556,6.4405775,-2.2630975,-1.8353002,-3.3087866,-5.947197,-4.050989
0.50675434,4.7494054,6.4405775,-2.2630975,-1.8353002,-3.3087866,-5.947197,-4.050989
0.5044386,4.756869,6.425664,-2.2034428,-2.233709,-3.0358477,-5.2241483,-3.691859
0.5021077,4.7643166,6.425664,-2.2034428,-2.233709,-3.0358477,-5.2241483,-3.691859
0.49941173,4.7715917,6.3393774,-2.1224825,-2.5873768,-2.4372973,-4.6399627,-3.2034419
0.4966915,4.7788787,6.3393774,-2.1224825,-2.5873768,-2.4372973,-4.6399627,-3.2034419
0.49364892,4.7859316,6.196632,-2.0202172,-2.9005647,-2.15957,-4.4580035,-2.7102363
0.49060062,4.7929525,6.196632,-2.0202172,-2.9005647,-2.15957,-4.4580035,-2.7102363
0.48726046,4.799712,6.0166025,-1.8955812,-3.1775334,-1.8722657,-4.280833,-2.2601264
0.48391742,4.806439,6.0166025,-1.8955812,-3.1775334,-1.8722657,-4.280833,-2.2601264
0.48028824,4.81294,5.8099413,-1.7528359,-3.4118917,-1.6424223,-4.237737,-1.9057846
0.47673744,4.819269,5.8099413,-1.7528359,-3.4118917,-1.6424223,-4.237737,-1.9057846
0.47295234,4.825338,5.584105,-1.596242,-3.599378,-1.2737153,-4.1515455,-1.6041151
0.46896783,4.831697,5.584105,-1.596242,-3.599378,-1.2737153,-4.1515455,-1.6041151
0.46518025,4.837187,5.34229,-1.4247344,-3.7410583,-0.90979666,-3.98874,-1.4221559
0.46127468,4.842826,5.34229,-1.4247344,-3.7410583,-0.90979666,-3.98874,-1.4221559
0.45724767,4.848143,5.0855613,-1.2447047,-3.8390627,-0.46926352,-3.5865142,-1.2785037
0.4532142,4.8534513,5.0855613,-1.2447047,-3.8390627,-0.46926352,-3.5865142,-1.2785037
0.4532142,4.8534513,5.0855613,-1.2447047,-3.8390627,-0.46926352,-3.5865142,-1.2785037
0.44494754,4.86341,4.812854,-1.0636097,-3.900848,0.22505496,-3.0502129,-1.3982137
0.4408428,4.867938,4.5135145,-0.8739927,-3.9232185,0.89064306,-2.456451,-1.508347
0.4367417,4.872452,4.5135145,-0.8739927,-3.9232185,0.89064306,-2.456451,-1.508347
0.43241853,4.876801,4.181152,-0.6715924,-3.9072397,1.1683705,-1.8435353,-1.7046716
0.43241853,4.876801,4.181152,-0.6715924,-3.9072397,1.1683705,-1.8435353,-1.7046716
0.42464638,4.88431,3.8147008,-0.4596048,-3.8614333,0.9624691,-1.3503298,-1.8195933
0.42069268,4.8878956,3.8147008,-0.4596048,-3.8614333,0.9624691,-1.3503298,-1.8195933
0.4168664,4.8909836,3.4141614,-0.24335612,-3.7815382,0.7469909,-0.9911995,-1.8004397
0.4168664,4.8909836,3.4141614,-0.24335612,-3.7815382,0.7469909,-0.9911995,-1.8004397
0.40935412,4.896678,2.981664,-0.028172705,-3.6664898,0.6895301,-0.8283938,-1.5897499
0.40935412,4.896678,2.981664,-0.028172705,-3.6664898,0.6895301,-0.8283938,-1.5897499
0.402183,4.90139,2.5236003,0.18488018,-3.5120265,0.24420857,-0.8379706,-1.2785037
0.3987351,4.903413,2.5236003,0.18488018,-3.5120265,0.24420857,-0.8379706,-1.2785037
0.3954977,4.9049044,2.0474272,0.38941097,-3.32454,0.110133275,-0.9624691,-0.91458505
0.3922654,4.9063964,2.0474272,0.38941097,-3.32454,0.110133275,-0.9624691,-0.91458505
0.38927686,4.907358,1.5606012,0.5800933,-3.1029649,-0.07182605,-1.1875241,-0.48362875
0.38927686,4.907358,1.5606012,0.5800933,-3.1029649,-0.07182605,-1.1875241,-0.48362875
0.3855471,4.9085636,1.5606012,0.5800933,-3.1029649,-0.07182605,-1.1875241,-0.48362875
0.38072798,4.909351,1.068449,0.7547967,-2.849432,-0.33997664,-1.6472107,-0.04309563
0.37825856,4.9093537,0.5784274,0.90926003,-2.5682023,-0.32561144,-2.1643584,0.36391866
0.3758015,4.9093604,0.5784274,0.90926003,-2.5682023,-0.32561144,-2.1643584,0.36391866
0.3736873,4.9089265,0.091601536,1.0445486,-2.265667,-0.56982,-2.7724855,0.7517793
0.37154278,4.908491,0.091601536,1.0445486,-2.265667,-0.56982,-2.7724855,0.7517793
0.3697589,4.9075823,-0.38350642,1.1574667,-1.9439572,-0.6991069,-3.4572272,1.0582372
0.3697589,4.9075823,-0.38350642,1.1574667,-1.9439572,-0.6991069,-3.4572272,1.0582372
0.3665192,4.9053597,-0.8394396,1.2490793,-1.6094642,-1.0103531,-4.381389,1.4413095
0.3665192,4.9053597,-0.8394396,1.2490793,-1.6094642,-1.0103531,-4.381389,1.4413095
0.36394763,4.9023347,-1.2730023,1.3193868,-1.266449,-1.4221559,-5.410896,1.8866309
0.3628823,4.900562,-1.2730023,1.3193868,-1.266449,-1.4221559,-5.410896,1.8866309
0.36217755,4.8984017,-1.6735417,1.368389,-0.90958536,-1.7477672,-6.445191,2.1930888
0.36147127,4.896246,-1.6735417,1.368389,-0.90958536,-1.7477672,-6.445191,2.1930888
0.36147127,4.896246,-1.6735417,1.368389,-0.90958536,-1.7477672,-6.445191,2.1930888
0.36076006,4.8912435,-2.0346663,1.3950206,-0.5484607,-1.9249382,-7.3166804,2.4372973
0.36076006,4.8912435,-2.0346663,1.3950206,-0.5484607,-1.9249382,-7.3166804,2.4372973
0.36073378,4.885637,-2.3531804,1.4003469,-0.18840134,-2.0207062,-8.1642275,2.681506
0.36106077,4.882589,-2.6248229,1.3886291,0.16739698,-2.1978772,-8.896853,2.815581
0.36138463,4.8795404,-2.6248229,1.3886291,0.16739698,-2.1978772,-8.896853,2.815581
0.3620259,4.876287,-2.8495936,1.3598669,0.5114774,-2.1883004,-9.581595,2.7964275
0.3620259,4.876287,-2.8495936,1.3598669,0.5114774,-2.1883004,-9.581595,2.7964275
0.36357775,4.8696413,-3.028558,1.3193868,0.83957887,-2.0973208,-10.218452,2.777274
0.36357775,4.8696413,-3.028558,1.3193868,0.83957887,-2.0973208,-10.218452,2.777274
0.365662,4.8627405,-3.1606507,1.2703847,1.1410487,-1.8579005,-10.764331,2.7820623
0.3668704,4.859225,-3.1606507,1.2703847,1.1410487,-1.8579005,-10.764331,2.7820623
0.3683146,4.8556776,-3.2511983,1.2149909,1.4094954,-1.532289,-11.142614,2.8443117
0.36976334,4.852111,-3.2511983,1.2149909,1.4094954,-1.532289,-11.142614,2.8443117
0.37143606,4.8485093,-3.3012657,1.1542709,1.6374619,-1.5849615,-11.568783,3.016694
0.37310633,4.8449044,-3.3012657,1.1542709,1.6374619,-1.5849615,-11.568783,3.016694
0.3749561,4.8413215,-3.3151143,1.0903549,1.8249484,-1.8148049,-11.903971,3.1890767
0.37680745,4.837727,-3.3151143,1.0903549,1.8249484,-1.8148049,-11.903971,3.1890767
0.3787922,4.834199,-3.2948742,1.0211128,1.9762161,-1.9009962,-12.11466,3.2800562
0.38077888,4.8306603,-3.2948742,1.0211128,1.9762161,-1.9009962,-12.11466,3.2800562
0.38287708,4.8271923,-3.2437415,0.9465443,2.0933952,-1.7477672,-12.310986,3.4045548
0.38496315,4.8237376,-3.2437415,0.9465443,2.0933952,-1.7477672,-12.310986,3.4045548
0.3871255,4.8203874,-3.1659772,0.8719758,2.177551,-1.8914193,-12.301409,3.347094
0.3892886,4.8170295,-3.1659772,0.8719758,2.177551,-1.8914193,-12.301409,3.347094
0.3914891,4.8138013,-3.067973,0.79421145,2.2276185,-1.7669208,-12.440272,3.4284968
0.39369267,4.810563,-3.067973,0.79421145,2.2276185,-1.7669208,-12.440272,3.4284968
0.39589956,4.8074694,-2.9529243,0.71538186,2.245728,-1.6950948,-12.459426,3.2992098
0.3981055,4.804372,-2.9529243,0.71538186,2.245728,-1.6950948,-12.459426,3.2992098
0.40029272,4.8014297,-2.822962,0.64081335,2.2372057,-1.6711528,-12.320562,3.1507695
0.4024791,4.798484,-2.822962,0.64081335,2.2372057,-1.6711528,-12.320562,3.1507695
0.40462294,4.7957,-2.6855428,0.5683754,2.2041826,-1.9440918,-12.157756,2.8395233
0.40676615,4.792913,-2.6855428,0.5683754,2.2041826,-1.9440918,-12.157756,2.8395233
0.40884295,4.7902946,-2.5438628,0.49167636,2.1455932,-2.030283,-11.999739,2.6910827
0.41091728,4.7876763,-2.5438628,0.49167636,2.1455932,-2.030283,-11.999739,2.6910827
0.41290283,4.785226,-2.4011173,0.40965098,2.0635676,-1.8626889,-11.918336,2.633622
0.41488823,4.7827725,-2.4011173,0.40965098,2.0635676,-1.8626889,-11.918336,2.633622
0.4167611,4.780492,-2.2562413,0.32656035,1.960237,-1.6807296,-11.947066,2.566584
0.4186359,4.7782063,-2.2562413,0.32656035,1.960237,-1.6807296,-11.947066,2.566584
0.420381,4.7761,-2.1081696,0.24666552,1.8387969,-1.5370775,-11.9853735,2.5761611
0.4221263,4.7739925,-2.1081696,0.24666552,1.8387969,-1.5370775,-11.9853735,2.5761611
0.4237312,4.7720675,-1.9547715,0.17209701,1.7045736,-1.5466543,-11.899182,2.5330653
0.42533633,4.7701416,-1.9547715,0.17209701,1.7045736,-1.5466543,-11.899182,2.5330653
0.42679352,4.768396,-1.7960471,0.10605062,1.5565019,-1.5897499,-11.81778,2.5091233
0.4282481,4.7666526,-1.7960471,0.10605062,1.5565019,-1.5897499,-11.81778,2.5091233
0.42954412,4.7651005,-1.6298658,0.041069485,1.3977774,-1.6472107,-11.774684,2.552219
0.43084028,4.763548,-1.6298658,0.041069485,1.3977774,-1.6472107,-11.774684,2.552219
0.43196934,4.7621903,-1.4583583,-0.02178112,1.2337267,-1.661576,-11.683704,2.4947581
0.4330975,4.7608337,-1.4583583,-0.02178112,1.2337267,-1.661576,-11.683704,2.4947581
0.4340553,4.7596755,-1.2815243,-0.08569699,1.0632844,-1.6711528,-11.664551,2.4660277
0.43500975,4.7585216,-1.2815243,-0.08569699,1.0632844,-1.6711528,-11.664551,2.4660277
0.4357874,4.7575684,-1.1014947,-0.14854759,0.8896463,-1.70946,-11.63582,2.327164
0.4357874,4.7575684,-1.1014947,-0.14854759,0.8896463,-1.70946,-11.63582,2.327164
0.4357874,4.7575684,-1.1014947,-0.14854759,0.8896463,-1.70946,-11.63582,2.327164
0.43757415,4.755362,-0.9150734,-0.21033293,0.71494293,-1.6424223,-11.63582,2.3463178
0.43772694,4.7551737,-0.72652155,-0.27318352,0.53704375,-1.5897499,-11.69807,2.3558946
0.43848145,4.754227,-0.72652155,-0.27318352,0.53704375,-1.5897499,-11.69807,2.3558946
0.43872383,4.7539163,-0.53477395,-0.33496886,0.36234036,-1.5801731,-11.760319,2.3319526
0.43896666,4.7536054,-0.53477395,-0.33496886,0.36234036,-1.5801731,-11.760319,2.3319526
0.43903655,4.7535133,-0.34089583,-0.39462367,0.1908328,-1.5897499,-11.803414,2.3654714
0.43910632,4.753422,-0.34089583,-0.39462367,0.1908328,-1.5897499,-11.803414,2.3654714
0.4390055,4.75354,-0.15127876,-0.45001742,0.024651542,-1.6567876,-11.8896055,2.255338
0.43890458,4.7536583,-0.15127876,-0.45001742,0.024651542,-1.6567876,-11.8896055,2.255338
0.43864098,4.7539845,0.03514252,-0.5054112,-0.13407286,-1.7812861,-11.9374895,2.1404164
0.43837762,4.7543097,0.03514252,-0.5054112,-0.13407286,-1.7812861,-11.9374895,2.1404164
0.43795758,4.754833,0.21623749,-0.55973965,-0.28427514,-1.8195933,-12.0571995,1.9632454
0.4375355,4.7553587,0.21623749,-0.55973965,-0.28427514,-1.8195933,-12.0571995,1.9632454
0.43696883,4.756072,0.39094085,-0.61193764,-0.42169428,-1.8626889,-12.018892,1.7046716
0.43640155,4.7567854,0.39094085,-0.61193764,-0.42169428,-1.8626889,-12.018892,1.7046716
0.43570527,4.7576804,0.55605686,-0.65987456,-0.5441997,-1.9919758,-11.899182,1.5466543
0.43500954,4.7585735,0.55605686,-0.65987456,-0.5441997,-1.9919758,-11.899182,1.5466543
0.43420026,4.759625,0.7094549,-0.70674616,-0.6539219,-2.0685902,-11.707646,1.283292
0.4333835,4.7606835,0.7094549,-0.70674616,-0.6539219,-2.0685902,-11.707646,1.283292
0.43246576,4.7618885,0.8500698,-0.74935675,-0.750861,-2.0973208,-11.540052,1.0965444
0.43154424,4.763096,0.8500698,-0.74935675,-0.750861,-2.0973208,-11.540052,1.0965444
0.43053344,4.7644367,0.9768363,-0.786641,-0.83288634,-2.0829554,-11.295844,0.90979666
0.42953238,4.7657614,0.9768363,-0.786641,-0.83288634,-2.0829554,-11.295844,0.90979666
0.4284544,4.7672167,1.0897543,-0.8175337,-0.8978675,-1.9871874,-11.027693,0.82360536
0.42737737,4.768666,1.0897543,-0.8175337,-0.8978675,-1.9871874,-11.027693,0.82360536
0.42624438,4.7702136,1.1877587,-0.8409695,-0.9468696,-2.0159178,-10.726024,0.62249243
0.42511243,4.771755,1.1877587,-0.8409695,-0.9468696,-2.0159178,-10.726024,0.62249243
0.4239416,4.7733774,1.2740451,-0.8537527,-0.9830886,-1.9201498,-10.366894,0.47405192
0.42275319,4.7750196,1.2740451,-0.8537527,-0.9830886,-1.9201498,-10.366894,0.47405192
0.42156616,4.7766848,1.3443525,-0.86014426,-1.0075897,-1.9009962,-9.974244,0.33039984
0.42036954,4.778359,1.3443525,-0.86014426,-1.0075897,-1.9009962,-9.974244,0.33039984
0.41915396,4.780088,1.4008116,-0.86014426,-1.0214381,-1.9536686,-9.65821,0.25857377
0.41915396,4.780088,1.4008116,-0.86014426,-1.0214381,-1.9536686,-9.65821,0.25857377
0.41668922,4.783604,1.4434221,-0.8537527,-1.0267645,-1.9632454,-9.275137,0.14844051
0.41546315,4.7853613,1.4434221,-0.8537527,-1.0267645,-1.9632454,-9.275137,0.14844051
0.41426793,4.787097,1.4700538,-0.8452305,-1.0225034,-1.910573,-8.939949,0.05746084
0.41306606,4.788838,1.4700538,-0.8452305,-1.0225034,-1.910573,-8.939949,0.05746084
0.41187346,4.7905903,1.4839022,-0.83351266,-1.008655,-1.7238252,-8.561666,-0.062249243
0.41067794,4.792343,1.4839022,-0.83351266,-1.008655,-1.7238252,-8.561666,-0.062249243
0.40950003,4.794091,1.4839022,-0.8185989,-0.98841494,-1.5275006,-8.288726,-0.16759412
0.40832406,4.7958326,1.4839022,-0.8185989,-0.98841494,-1.5275006,-8.288726,-0.16759412
0.4071704,4.797554,1.4721843,-0.7994242,-0.9660444,-1.460463,-8.025364,-0.14844051
0.40601736,4.7992706,1.4721843,-0.7994242,-0.9660444,-1.460463,-8.025364,-0.14844051
0.40489608,4.8009443,1.4455527,-0.7802494,-0.9394128,-1.4221559,-7.8769236,-0.19632454
0.40376762,4.802626,1.4455527,-0.7802494,-0.9394128,-1.4221559,-7.8769236,-0.19632454
0.40267438,4.8042564,1.4093337,-0.7589441,-0.9085201,-1.436521,-7.7093296,-0.1340753
0.40157858,4.805888,1.4093337,-0.7589441,-0.9085201,-1.436521,-7.7093296,-0.1340753
0.40051967,4.8074584,1.3613968,-0.7355083,-0.87443167,-1.3551182,-7.5225816,-0.12928689
0.3994582,4.80903,1.3613968,-0.7355083,-0.87443167,-1.3551182,-7.5225816,-0.12928689
0.3994582,4.80903,1.3613968,-0.7355083,-0.87443167,-1.3551182,-7.5225816,-0.12928689
0.3994582,4.80903,1.3613968,-0.7355083,-0.87443167,-1.3551182,-7.5225816,-0.12928689
0.39650327,4.813364,1.2378261,-0.6918325,-0.7977326,-1.2976574,-7.2687964,-0.19153613
0.39543238,4.8149185,1.2378261,-0.6918325,-0.7977326,-1.2976574,-7.2687964,-0.19153613
0.39450157,4.816253,1.1621923,-0.6694619,-0.7529915,-1.3024458,-7.201759,-0.21068975
0.39357343,4.817582,1.1621923,-0.6694619,-0.7529915,-1.3024458,-7.201759,-0.21068975
0.3926959,4.81882,1.0801669,-0.64815664,-0.7050546,-1.283292,-7.2209125,-0.2633622
0.3918147,4.8200617,1.0801669,-0.64815664,-0.7050546,-1.283292,-7.2209125,-0.2633622
0.39094684,4.8212657,0.9949458,-0.62578607,-0.65285665,-1.2593501,-7.2352777,-0.2681506
0.39015976,4.822356,0.9949458,-0.62578607,-0.65285665,-1.2593501,-7.2352777,-0.2681506
0.38940138,4.82339,0.9054636,-0.60235023,-0.59852815,-1.2497733,-7.264008,-0.36870706
0.38863757,4.8244295,0.9054636,-0.60235023,-0.59852815,-1.2497733,-7.264008,-0.36870706
0.38793024,4.8253756,0.8159814,-0.5789144,-0.5410039,-1.2162545,-7.3310456,-0.37828386
0.38722214,4.826321,0.8159814,-0.5789144,-0.5410039,-1.2162545,-7.3310456,-0.37828386
0.38658133,4.8271627,0.72649914,-0.5544133,-0.48241434,-1.2162545,-7.350199,-0.47884035
0.38594165,4.8280025,0.72649914,-0.5544133,-0.48241434,-1.2162545,-7.350199,-0.47884035
0.38537642,4.8287373,0.63701695,-0.528847,-0.41956374,-1.2785037,-7.441179,-0.63206923
0.3848067,4.8294773,0.63701695,-0.528847,-0.41956374,-1.2785037,-7.441179,-0.63206923
0.38430434,4.83012,0.5496653,-0.50328064,-0.35671315,-1.3359646,-7.5704656,-0.63206923
0.38380197,4.830762,0.5496653,-0.50328064,-0.35671315,-1.3359646,-7.5704656,-0.63206923
0.38336885,4.83131,0.46657464,-0.47877958,-0.2949278,-1.3551182,-7.728483,-0.7517793
0.3829349,4.831858,0.46657464,-0.47877958,-0.2949278,-1.3551182,-7.728483,-0.7517793
0.3825654,4.8323207,0.38774505,-0.4532132,-0.2320772,-1.340753,-7.819463,-0.7517793
0.38219452,4.832784,0.38774505,-0.4532132,-0.2320772,-1.340753,-7.819463,-0.7517793
0.3818865,4.8331666,0.31530708,-0.42551634,-0.17029186,-1.2737153,-7.9248075,-0.7422025
0.3815781,4.8335495,0.31530708,-0.42551634,-0.17029186,-1.2737153,-7.9248075,-0.7422025
0.3813308,4.833856,0.24819541,-0.39462367,-0.11170231,-1.2258313,-7.991845,-0.78529817
0.3810839,4.8341618,0.24819541,-0.39462367,-0.11170231,-1.2258313,-7.991845,-0.78529817
0.38089597,4.834401,0.19067113,-0.3605352,-0.05417803,-1.2401965,-8.12592,-0.7565677
0.38070858,4.8346395,0.19067113,-0.3605352,-0.05417803,-1.2401965,-8.12592,-0.7565677
0.38057667,4.8348126,0.13847317,-0.3253815,-0.004110598,-1.1971009,-8.130709,-0.8379706
0.38044408,4.8349867,0.13847317,-0.3253815,-0.004110598,-1.1971009,-8.130709,-0.8379706
0.38036168,4.835103,0.091601536,-0.29022777,0.043826304,-1.2258313,-8.154651,-0.7422025
0.38027936,4.8352194,0.091601536,-0.29022777,0.043826304,-1.2258313,-8.154651,-0.7422025
0.38024217,4.835279,0.04686043,-0.25294352,0.08537161,-1.2641385,-8.2169,-0.7134721
0.38020524,4.835338,0.04686043,-0.25294352,0.08537161,-1.2641385,-8.2169,-0.7134721
0.3802087,4.835344,0.0053151157,-0.21352872,0.12372114,-1.2641385,-8.303091,-0.6607997
0.38021234,4.835349,0.0053151157,-0.21352872,0.12372114,-1.2641385,-8.303091,-0.6607997
0.3802538,4.8353014,-0.035164934,-0.17411393,0.15887487,-1.2545617,-8.350976,-0.62728083
0.3802953,4.835254,-0.035164934,-0.17411393,0.15887487,-1.2545617,-8.350976,-0.62728083
0.38036367,4.8351583,-0.073514454,-0.13469915,0.187637,-1.2210429,-8.408437,-0.47405192
0.38043198,4.8350635,-0.073514454,-0.13469915,0.187637,-1.2210429,-8.408437,-0.47405192
0.38052586,4.834921,-0.10866818,-0.093153834,0.21213809,-1.1779473,-8.475474,-0.40701428
0.38061982,4.8347783,-0.10866818,-0.093153834,0.21213809,-1.1779473,-8.475474,-0.40701428
0.38073942,4.834587,-0.14382191,-0.051608525,0.23450863,-1.2210429,-8.571242,-0.35434186
0.3808595,4.8343945,-0.14382191,-0.051608525,0.23450863,-1.2210429,-8.571242,-0.35434186
0.38100016,4.834156,-0.17791037,-0.008997946,0.2536834,-1.283292,-8.6574335,-0.23463176
0.38100016,4.834156,-0.17791037,-0.008997946,0.2536834,-1.283292,-8.6574335,-0.23463176
0.3812872,4.8336663,-0.21093357,0.03361263,0.2717929,-1.3982137,-8.825027,-0.19632454
0.38145044,4.83338,-0.21093357,0.03361263,0.2717929,-1.3982137,-8.825027,-0.19632454
0.381631,4.8330517,-0.24182624,0.07089689,0.28777185,-1.3982137,-8.978256,-0.11492168
0.38181147,4.8327227,-0.24182624,0.07089689,0.28777185,-1.3982137,-8.978256,-0.11492168
0.38200712,4.8323493,-0.27165365,0.10605062,0.2984245,-1.4508862,-9.050082,-0.062249243
0.38219956,4.8319817,-0.27165365,0.10605062,0.2984245,-1.4508862,-9.050082,-0.062249243
0.38240266,4.8315744,-0.30148104,0.14013907,0.30907714,-1.3215994,-9.14585,0
0.38260612,4.8311663,-0.30148104,0.14013907,0.30907714,-1.3215994,-9.14585,0
0.38281682,4.8307285,-0.32811266,0.16996649,0.31866452,-1.283292,-9.198523,0.1436521
0.38302788,4.8302894,-0.32811266,0.16996649,0.31866452,-1.283292,-9.198523,0.1436521
0.383244,4.829817,-0.35261375,0.19872862,0.3218603,-1.3263878,-9.294291,0.20590134
0.38345912,4.829346,-0.35261375,0.19872862,0.3218603,-1.3263878,-9.294291,0.20590134
0.38367447,4.8288484,-0.37285376,0.22429498,0.32079506,-1.412579,-9.289502,0.29688102
0.38389006,4.828349,-0.37285376,0.22429498,0.32079506,-1.412579,-9.289502,0.29688102
0.38409957,4.8278284,-0.39202854,0.244535,0.31546873,-1.4652514,-9.399636,0.4165911
0.38430858,4.827309,-0.39202854,0.244535,0.31546873,-1.4652514,-9.399636,0.4165911
0.38450888,4.826774,-0.40587696,0.2626445,0.30694664,-1.5179238,-9.404425,0.5363012
0.38470852,4.8262405,-0.40587696,0.2626445,0.30694664,-1.5179238,-9.404425,0.5363012
0.38490102,4.825688,-0.41866013,0.2775582,0.2984245,-1.4556746,-9.442732,0.5315128
0.3850936,4.8251348,-0.41866013,0.2775582,0.2984245,-1.4556746,-9.442732,0.5315128
0.38527468,4.8245754,-0.42718226,0.2892761,0.28777185,-1.436521,-9.442732,0.62728083
0.38545582,4.824015,-0.42718226,0.2892761,0.28777185,-1.436521,-9.442732,0.62728083
0.38562387,4.823453,-0.4314433,0.29992875,0.27498868,-1.3694834,-9.481039,0.7086837
0.38579205,4.82289,-0.4314433,0.29992875,0.27498868,-1.3694834,-9.481039,0.7086837
0.38594532,4.8223243,-0.4346391,0.30632034,0.26007497,-1.283292,-9.428367,0.7374141
0.38609838,4.821759,-0.4346391,0.30632034,0.26007497,-1.283292,-9.428367,0.7374141
0.38623178,4.821205,-0.4346391,0.31271192,0.24303076,-1.2641385,-9.481039,0.7613561
0.38637364,4.8206153,-0.4346391,0.31271192,0.24303076,-1.2641385,-9.481039,0.7613561
0.38649127,4.820054,-0.43357384,0.3191035,0.22492126,-1.2976574,-9.452309,0.79966336
0.38660938,4.81949,-0.43357384,0.3191035,0.22492126,-1.2976574,-9.452309,0.79966336
0.38671318,4.8189344,-0.43037805,0.32442984,0.2089423,-1.2545617,-9.552865,0.9911995
0.38681674,4.818381,-0.43037805,0.32442984,0.2089423,-1.2545617,-9.552865,0.9911995
0.3869053,4.8178277,-0.42718226,0.32975614,0.19296333,-1.3120226,-9.514558,1.0199299
0.38699332,4.817277,-0.42718226,0.32975614,0.19296333,-1.3120226,-9.514558,1.0199299
0.38706836,4.8167295,-0.42185593,0.33295193,0.1791149,-1.3215994,-9.533711,1.043872
0.38706836,4.8167295,-0.42185593,0.33295193,0.1791149,-1.3215994,-9.533711,1.043872
0.38721168,4.8156257,-0.41546434,0.33508247,0.16633171,-1.3072342,-9.586384,1.091756
0.387275,4.81508,-0.41546434,0.33508247,0.16633171,-1.3072342,-9.586384,1.091756
0.38732702,4.8145647,-0.4112033,0.33508247,0.15567908,-1.292869,-9.576807,1.1875241
0.38737932,4.814046,-0.4112033,0.33508247,0.15567908,-1.292869,-9.576807,1.1875241
0.38742074,4.8135223,-0.4048117,0.33508247,0.14396116,-1.2593501,-9.605537,1.1827357
0.3874619,4.813,-0.4048117,0.33508247,0.14396116,-1.2593501,-9.605537,1.1827357
0.38749447,4.812491,-0.39735484,0.33508247,0.13330851,-1.2449849,-9.624691,1.292869
0.38752696,4.8119817,-0.39735484,0.33508247,0.13330851,-1.2449849,-9.624691,1.292869
0.3875498,4.8114786,-0.39202854,0.33188668,0.12372114,-1.1923125,-9.634268,1.3072342
0.3875725,4.8109765,-0.39202854,0.33188668,0.12372114,-1.1923125,-9.634268,1.3072342
0.3875875,4.8104873,-0.3867022,0.3286909,0.11306849,-1.2066777,-9.600749,1.4413095
0.3876022,4.8099995,-0.3867022,0.3286909,0.11306849,-1.2066777,-9.600749,1.4413095
0.3876097,4.8095207,-0.3781801,0.3254951,0.10561164,-1.1923125,-9.610326,1.4556746
0.38761693,4.8090434,-0.3781801,0.3254951,0.10561164,-1.1923125,-9.610326,1.4556746
0.38761914,4.808577,-0.37072325,0.32016876,0.09922005,-1.2210429,-9.605537,1.5179238
0.38761914,4.808577,-0.37072325,0.32016876,0.09922005,-1.2210429,-9.605537,1.5179238
0.38762197,4.8079357,-0.37072325,0.32016876,0.09922005,-1.2210429,-9.605537,1.5179238
0.38762268,4.807183,-0.36113587,0.31484246,0.09708953,-1.2258313,-9.591172,1.5514427
0.3876237,4.806765,-0.3504832,0.3073856,0.09602426,-1.2689269,-9.648633,1.6424223
0.3876249,4.806302,-0.3504832,0.3073856,0.09602426,-1.2689269,-9.648633,1.6424223
0.3876262,4.805915,-0.33983058,0.29886347,0.09708953,-1.2689269,-9.634268,1.6424223
0.38762766,4.805466,-0.33983058,0.29886347,0.09708953,-1.2689269,-9.634268,1.6424223
0.38762847,4.8050923,-0.32811266,0.29034138,0.09708953,-1.2737153,-9.696517,1.661576
0.3876294,4.804688,-0.32811266,0.29034138,0.09708953,-1.2737153,-9.696517,1.661576
0.38763133,4.8043027,-0.31639475,0.280754,0.09815479,-1.3072342,-9.725247,1.6903064
0.3876332,4.803918,-0.31639475,0.280754,0.09815479,-1.3072342,-9.725247,1.6903064
0.38763905,4.803548,-0.30361158,0.2711666,0.104546376,-1.3072342,-9.80665,1.6519991
0.387645,4.803174,-0.30361158,0.2711666,0.104546376,-1.3072342,-9.80665,1.6519991
0.38765508,4.8028154,-0.29189366,0.26051396,0.11093796,-1.3024458,-9.911995,1.6328455
0.38766512,4.8024635,-0.29189366,0.26051396,0.11093796,-1.3024458,-9.911995,1.6328455
0.38768202,4.8021264,-0.28230628,0.24986131,0.11626428,-1.3311762,-9.9550905,1.7238252
0.38769916,4.801789,-0.28230628,0.24986131,0.11626428,-1.3311762,-9.9550905,1.7238252
0.38772303,4.8014627,-0.27378416,0.23814341,0.12585166,-1.3503298,-9.988609,1.6711528
0.38774696,4.801137,-0.27378416,0.23814341,0.12585166,-1.3503298,-9.988609,1.6711528
0.38778117,4.8008256,-0.26632732,0.22536023,0.13543904,-1.3311762,-10.031705,1.7429788
0.3878152,4.800515,-0.26632732,0.22536023,0.13543904,-1.3311762,-10.031705,1.7429788
0.38785985,4.8002214,-0.25673994,0.21257706,0.14609168,-1.364695,-10.055647,1.7764976
0.3879046,4.7999277,-0.25673994,0.21257706,0.14609168,-1.364695,-10.055647,1.7764976
0.38795683,4.799649,-0.24928309,0.19979389,0.15354854,-1.3694834,-10.031705,1.8100165
0.38800913,4.7993693,-0.24928309,0.19979389,0.15354854,-1.3694834,-10.031705,1.8100165
0.38806862,4.799101,-0.24182624,0.18914124,0.16313592,-1.3790601,-10.127473,1.7812861
0.3881283,4.798832,-0.24182624,0.18914124,0.16313592,-1.3790601,-10.127473,1.7812861
0.38820153,4.7985735,-0.23330413,0.17742333,0.1759191,-1.4077905,-10.156203,1.8004397
0.3882734,4.79832,-0.23330413,0.17742333,0.1759191,-1.4077905,-10.156203,1.8004397
0.38835362,4.7980795,-0.22584727,0.16783595,0.187637,-1.4460979,-10.208876,1.7525556
0.38843468,4.7978373,-0.22584727,0.16783595,0.187637,-1.4460979,-10.208876,1.7525556
0.3885227,4.7976017,-0.21839042,0.15824857,0.19509386,-1.460463,-10.228029,1.7238252
0.38860947,4.79737,-0.21839042,0.15824857,0.19509386,-1.460463,-10.228029,1.7238252
0.38870272,4.797146,-0.21199884,0.15079172,0.20255071,-1.4508862,-10.261548,1.70946
0.38870272,4.797146,-0.21199884,0.15079172,0.20255071,-1.4508862,-10.261548,1.70946
0.3888971,4.796692,-0.20560725,0.14440013,0.20787703,-1.4077905,-10.28549,1.685518
0.3888971,4.796692,-0.20560725,0.14440013,0.20787703,-1.4077905,-10.28549,1.685518
0.389098,4.7962537,-0.20028092,0.13907382,0.21320336,-1.4556746,-10.237606,1.5849615
0.38919157,4.796055,-0.20028092,0.13907382,0.21320336,-1.4556746,-10.237606,1.5849615
0.38929012,4.795853,-0.19601987,0.13268223,0.21639915,-1.4652514,-10.242394,1.5370775
0.38939083,4.795647,-0.19601987,0.13268223,0.21639915,-1.4652514,-10.242394,1.5370775
0.38949195,4.7954454,-0.19388933,0.12522538,0.21639915,-1.4460979,-10.204087,1.5466543
0.38959268,4.795245,-0.19388933,0.12522538,0.21639915,-1.4460979,-10.204087,1.5466543
0.38969004,4.795046,-0.19282407,0.115637995,0.21426861,-1.4460979,-10.117896,1.4891934
0.38978672,4.7948484,-0.19282407,0.115637995,0.21426861,-1.4460979,-10.117896,1.4891934
0.38987893,4.7946544,-0.19282407,0.10605062,0.21000756,-1.436521,-10.156203,1.5035586
0.38997105,4.7944603,-0.19282407,0.10605062,0.21000756,-1.436521,-10.156203,1.5035586
0.39005864,4.794272,-0.19282407,0.0975285,0.20468123,-1.3694834,-10.127473,1.5610195
0.3901462,4.7940836,-0.19282407,0.0975285,0.20468123,-1.3694834,-10.127473,1.5610195
0.39022434,4.7938943,-0.19282407,0.09220218,0.19722438,-1.388637,-10.103531,1.4939818
0.39030257,4.793705,-0.19282407,0.09220218,0.19722438,-1.388637,-10.103531,1.4939818
0.390374,4.793519,-0.19175881,0.09007165,0.18976754,-1.3503298,-10.0508585,1.5227122
0.39044553,4.793333,-0.19175881,0.09007165,0.18976754,-1.3503298,-10.0508585,1.5227122
0.39050585,4.7931466,-0.19069354,0.09007165,0.1791149,-1.3120226,-10.0269165,1.5035586
0.39056712,4.7929573,-0.19069354,0.09007165,0.1791149,-1.3120226,-10.0269165,1.5035586
0.39056712,4.7929573,-0.19069354,0.09007165,0.1791149,-1.3120226,-10.0269165,1.5035586
0.3906658,4.7925844,-0.18962827,0.09113691,0.1695275,-1.3215994,-10.0029745,1.4508862
0.3907062,4.7923937,-0.18962827,0.09326744,0.1610054,-1.3359646,-9.998186,1.4077905
0.39074647,4.7922034,-0.18962827,0.09326744,0.1610054,-1.3359646,-9.998186,1.4077905
0.39077523,4.7920084,-0.18962827,0.09539797,0.15035275,-1.3072342,-9.9550905,1.3551182
0.39080396,4.791815,-0.18962827,0.09539797,0.15035275,-1.3072342,-9.9550905,1.3551182
0.39080396,4.791815,-0.18962827,0.09539797,0.15035275,-1.3072342,-9.9550905,1.3551182
0.39083156,4.791418,-0.18962827,0.098593764,0.1365043,-1.340753,-9.983821,1.2976574
0.3908319,4.791218,-0.18856302,0.100724295,0.12372114,-1.3311762,-9.935937,1.2497733
0.3908322,4.7910175,-0.18856302,0.100724295,0.12372114,-1.3311762,-9.935937,1.2497733
0.3908206,4.790815,-0.18856302,0.10285482,0.11200323,-1.3694834,-9.940725,1.2258313
0.3908091,4.790612,-0.18856302,0.10285482,0.11200323,-1.3694834,-9.940725,1.2258313
0.39078367,4.790401,-0.18856302,0.10392009,0.10135058,-1.3742718,-9.945514,1.0726024
0.3907584,4.7901907,-0.18856302,0.10392009,0.10135058,-1.3742718,-9.945514,1.0726024
0.39072466,4.78998,-0.18962827,0.10605062,0.091763206,-1.3694834,-9.907207,1.1204864
0.3906909,4.789769,-0.18962827,0.10605062,0.091763206,-1.3694834,-9.907207,1.1204864
0.39064735,4.7895565,-0.19069354,0.10711588,0.08217582,-1.3599066,-9.931149,1.1013328
0.3906038,4.7893434,-0.19069354,0.10711588,0.08217582,-1.3599066,-9.931149,1.1013328
0.39055115,4.789124,-0.19282407,0.10924641,0.073653705,-1.3742718,-9.931149,1.0726024
0.39049882,4.7889066,-0.19282407,0.10924641,0.073653705,-1.3742718,-9.931149,1.0726024
0.39044222,4.788684,-0.1949546,0.113507465,0.06939265,-1.3790601,-9.935937,1.0630256
0.3903855,4.7884617,-0.1949546,0.113507465,0.06939265,-1.3790601,-9.935937,1.0630256
0.39032358,4.7882366,-0.19601987,0.115637995,0.06406633,-1.340753,-9.931149,1.0295067
0.39026156,4.7880116,-0.19601987,0.115637995,0.06406633,-1.340753,-9.931149,1.0295067
0.3901956,4.787779,-0.19921567,0.11883379,0.060870536,-1.340753,-9.969456,0.9864111
0.39012966,4.787546,-0.19921567,0.11883379,0.060870536,-1.340753,-9.969456,0.9864111
0.39006191,4.787314,-0.20134619,0.12096432,0.05767474,-1.2976574,-9.916783,1.0534488
0.38999453,4.787083,-0.20134619,0.12096432,0.05767474,-1.2976574,-9.916783,1.0534488
0.3899253,4.7868423,-0.20347671,0.12416011,0.05767474,-1.292869,-9.931149,0.9720459
0.3899253,4.7868423,-0.20347671,0.12416011,0.05767474,-1.292869,-9.931149,0.9720459
0.3897846,4.786349,-0.20773777,0.1273559,0.05767474,-1.3215994,-9.859323,0.92895025
0.38971606,4.786104,-0.20773777,0.1273559,0.05767474,-1.3215994,-9.859323,0.92895025
0.38964885,4.78586,-0.20986831,0.1305517,0.05767474,-1.2976574,-9.811439,1.0007763
0.38958293,4.7856207,-0.20986831,0.1305517,0.05767474,-1.2976574,-9.811439,1.0007763
0.38951513,4.785365,-0.21412936,0.13374749,0.058740005,-1.2449849,-9.77792,0.91458505
0.3894472,4.7851086,-0.21412936,0.13374749,0.058740005,-1.2449849,-9.77792,0.91458505
0.38938195,4.7848496,-0.21732515,0.13587803,0.060870536,-1.2162545,-9.787497,0.92416185
0.38931656,4.7845907,-0.21732515,0.13587803,0.060870536,-1.2162545,-9.787497,0.92416185
0.3892533,4.7843304,-0.21945569,0.13907382,0.061935797,-1.2210429,-9.701305,0.9624691
0.3891901,4.784071,-0.21945569,0.13907382,0.061935797,-1.2210429,-9.701305,0.9624691
0.38913003,4.78381,-0.22052094,0.14013907,0.06513159,-1.2018893,-9.691729,0.9576807
0.38906994,4.7835493,-0.22052094,0.14013907,0.06513159,-1.2018893,-9.691729,0.9576807
0.38901162,4.7832828,-0.22265148,0.14226961,0.06726212,-1.1683705,-9.639056,0.94331545
0.38895422,4.7830205,-0.22265148,0.14226961,0.06726212,-1.1683705,-9.639056,0.94331545
0.3888981,4.782752,-0.22371674,0.1454654,0.06939265,-1.163582,-9.595961,0.90021986
0.3888417,4.782483,-0.22371674,0.1454654,0.06939265,-1.163582,-9.595961,0.90021986
0.3887885,4.7822094,-0.22691253,0.1486612,0.072588444,-1.1683705,-9.548077,0.8714894
0.3887353,4.781935,-0.22691253,0.1486612,0.072588444,-1.1683705,-9.548077,0.8714894
0.38868248,4.7816534,-0.23117359,0.15079172,0.073653705,-1.1492168,-9.504981,0.81402856
0.38862967,4.7813716,-0.23117359,0.15079172,0.073653705,-1.1492168,-9.504981,0.81402856
0.38857922,4.781085,-0.23543465,0.15292226,0.075784236,-1.1109096,-9.485827,0.81402856
0.3885287,4.780798,-0.23543465,0.15292226,0.075784236,-1.1109096,-9.485827,0.81402856
0.3884838,4.780501,-0.24182624,0.15398751,0.08217582,-1.1540052,-9.428367,0.78050977
0.3884397,4.780209,-0.24182624,0.15398751,0.08217582,-1.1540052,-9.428367,0.78050977
0.3884026,4.7799063,-0.24928309,0.15611805,0.089632675,-1.0965444,-9.437943,0.7613561
0.3883655,4.779602,-0.24928309,0.15611805,0.089632675,-1.0965444,-9.437943,0.7613561
0.3883366,4.779291,-0.2556747,0.1571833,0.09815479,-1.1061212,-9.404425,0.7326257
0.3883076,4.77898,-0.2556747,0.1571833,0.09815479,-1.1061212,-9.404425,0.7326257
0.38828784,4.77866,-0.26206627,0.15824857,0.10774217,-1.1540052,-9.351752,0.6847417
0.38826784,4.77834,-0.26206627,0.15824857,0.10774217,-1.1540052,-9.351752,0.6847417
0.3882574,4.778011,-0.2695231,0.15931384,0.11732955,-1.0630256,-9.399636,0.6560113
0.38824695,4.7776814,-0.2695231,0.15931384,0.11732955,-1.0630256,-9.399636,0.6560113
0.3882471,4.7773438,-0.27804524,0.16144437,0.1279822,-1.1109096,-9.346964,0.6512229
0.38824725,4.777005,-0.27804524,0.16144437,0.1279822,-1.1109096,-9.346964,0.6512229
0.3882599,4.776661,-0.28656733,0.16464016,0.1397001,-1.1348516,-9.380483,0.7038953
0.38827246,4.7763166,-0.28656733,0.16464016,0.1397001,-1.1348516,-9.380483,0.7038953
0.38829592,4.7759566,-0.29615474,0.16783595,0.15141802,-1.1013328,-9.3661175,0.60812724
0.38831946,4.7755966,-0.29615474,0.16783595,0.15141802,-1.1013328,-9.3661175,0.60812724
0.38835666,4.7752247,-0.30680737,0.16996649,0.16526645,-1.1252748,-9.3661175,0.58897364
0.3883939,4.7748523,-0.30680737,0.16996649,0.16526645,-1.1252748,-9.3661175,0.58897364
0.3884474,4.774473,-0.31639475,0.17316228,0.18124542,-1.1492168,-9.409213,0.63206923
0.38850108,4.7740927,-0.31639475,0.17316228,0.18124542,-1.1492168,-9.409213,0.63206923
0.38856956,4.7737017,-0.32598212,0.17635807,0.19615912,-1.1252748,-9.44752,0.61291564
0.38863784,4.773311,-0.32598212,0.17635807,0.19615912,-1.1252748,-9.44752,0.61291564
0.38871977,4.772907,-0.33450425,0.17742333,0.21000756,-1.1348516,-9.442732,0.5506664
0.38880157,4.7725034,-0.33450425,0.17742333,0.21000756,-1.1348516,-9.442732,0.5506664
0.38889712,4.772095,-0.34089583,0.17955387,0.223856,-1.1492168,-9.485827,0.56982
0.38899294,4.771686,-0.34089583,0.17955387,0.223856,-1.1492168,-9.485827,0.56982
0.38910276,4.771268,-0.34622216,0.17955387,0.2355739,-1.13964,-9.495404,0.61770403
0.38920885,4.770863,-0.34622216,0.17955387,0.2355739,-1.13964,-9.495404,0.61770403
0.3893272,4.7704506,-0.35154846,0.18061912,0.24622655,-1.1109096,-9.5385,0.6464345
0.38944605,4.7700357,-0.35154846,0.18061912,0.24622655,-1.1109096,-9.5385,0.6464345
0.38957602,4.769614,-0.35580954,0.18061912,0.25794446,-1.1252748,-9.533711,0.59376204
0.3897057,4.769193,-0.35580954,0.18061912,0.25794446,-1.1252748,-9.533711,0.59376204
0.38984752,4.768773,-0.35794008,0.18061912,0.26966238,-1.1252748,-9.572019,0.641646
0.3899897,4.7683525,-0.35794008,0.18061912,0.26966238,-1.1252748,-9.572019,0.641646
0.39013994,4.767933,-0.35900533,0.18061912,0.27818447,-1.13964,-9.5385,0.6464345
0.3902905,4.767513,-0.35900533,0.18061912,0.27818447,-1.13964,-9.5385,0.6464345
0.39044964,4.767093,-0.3600706,0.17955387,0.2867066,-1.1204864,-9.548077,0.6655881
0.3906089,4.7666736,-0.3600706,0.17955387,0.2867066,-1.1204864,-9.548077,0.6655881
0.3907723,4.7662525,-0.35900533,0.1784886,0.29203293,-1.1204864,-9.557653,0.59855044
0.39093602,4.765831,-0.35900533,0.1784886,0.29203293,-1.1204864,-9.557653,0.59855044
0.39110446,4.7654123,-0.35794008,0.1752928,0.29735923,-1.1109096,-9.56723,0.58897364
0.39127326,4.7649927,-0.35794008,0.1752928,0.29735923,-1.1109096,-9.56723,0.58897364
0.3914484,4.764578,-0.3568748,0.17316228,0.30375084,-1.1300632,-9.557653,0.62728083
0.3914484,4.764578,-0.3568748,0.17316228,0.30375084,-1.1300632,-9.557653,0.62728083
0.39168885,4.7640095,-0.3568748,0.17316228,0.30375084,-1.1300632,-9.557653,0.62728083
0.39198977,4.763318,-0.353679,0.17103174,0.3080119,-1.0821792,-9.56723,0.60812724
0.3921646,4.76293,-0.35154846,0.16890122,0.31120768,-1.163582,-9.552865,0.6464345
0.3921646,4.76293,-0.35154846,0.16890122,0.31120768,-1.163582,-9.552865,0.6464345
0.39253002,4.762126,-0.3504832,0.16464016,0.31333822,-1.1061212,-9.519346,0.6464345
0.39253002,4.762126,-0.3504832,0.16464016,0.31333822,-1.1061212,-9.519346,0.6464345
0.39290094,4.761321,-0.34835267,0.16144437,0.31546873,-1.1348516,-9.552865,0.61770403
0.3930877,4.760919,-0.34835267,0.16144437,0.31546873,-1.1348516,-9.552865,0.61770403
0.39327368,4.76052,-0.34728742,0.15931384,0.316534,-1.1444284,-9.500193,0.5746084
0.39346004,4.7601204,-0.34728742,0.15931384,0.316534,-1.1444284,-9.500193,0.5746084
0.39364654,4.7597218,-0.34622216,0.1571833,0.31759927,-1.1492168,-9.533711,0.545878
0.39383402,4.759321,-0.34622216,0.1571833,0.31759927,-1.1492168,-9.533711,0.545878
0.3940227,4.7589283,-0.34515688,0.15185699,0.31866452,-1.1683705,-9.557653,0.61291564
0.39421102,4.7585363,-0.34515688,0.15185699,0.31866452,-1.1683705,-9.557653,0.61291564
0.3943993,4.7581415,-0.34409162,0.14759593,0.31866452,-1.13964,-9.543288,0.545878
0.39458698,4.7577486,-0.34409162,0.14759593,0.31866452,-1.13964,-9.543288,0.545878
0.39477253,4.757359,-0.34089583,0.14440013,0.31759927,-1.1348516,-9.562442,0.51235914
0.39495894,4.7569675,-0.34089583,0.14440013,0.31759927,-1.1348516,-9.562442,0.51235914
0.39514565,4.7565784,-0.33983058,0.14013907,0.31866452,-1.1923125,-9.519346,0.47884035
0.39533162,4.7561903,-0.33983058,0.14013907,0.31866452,-1.1923125,-9.519346,0.47884035
0.39551905,4.755805,-0.33770004,0.13800855,0.31866452,-1.1731589,-9.543288,0.50757074
0.39570573,4.7554207,-0.33770004,0.13800855,0.31866452,-1.1731589,-9.543288,0.50757074
0.39589077,4.7550364,-0.33663478,0.13587803,0.31759927,-1.1923125,-9.581595,0.46926352
0.396076,4.754652,-0.33663478,0.13587803,0.31759927,-1.1923125,-9.581595,0.46926352
0.39626074,4.7542686,-0.3355695,0.13268223,0.31759927,-1.1971009,-9.528923,0.4405331
0.39644554,4.7538853,-0.3355695,0.13268223,0.31759927,-1.1971009,-9.528923,0.4405331
0.39663175,4.753499,-0.333439,0.13161696,0.316534,-1.2449849,-9.5385,0.4357447
0.3968151,4.7531185,-0.333439,0.13161696,0.316534,-1.2449849,-9.5385,0.4357447
0.39699432,4.7527475,-0.3323737,0.1305517,0.31440347,-1.2210429,-9.548077,0.48362875
0.3971759,4.752372,-0.3323737,0.1305517,0.31440347,-1.2210429,-9.548077,0.48362875
0.39735493,4.7519946,-0.3302432,0.12948643,0.31227294,-1.2114661,-9.552865,0.4213795
0.39753383,4.751618,-0.3302432,0.12948643,0.31227294,-1.2114661,-9.552865,0.4213795
0.39771414,4.7512474,-0.3270474,0.1273559,0.31333822,-1.2497733,-9.5385,0.45489833
0.3978944,4.750877,-0.3270474,0.1273559,0.31333822,-1.2497733,-9.5385,0.45489833
0.3978944,4.750877,-0.3270474,0.1273559,0.31333822,-1.2497733,-9.5385,0.45489833
0.39814278,4.7503805,-0.32385162,0.12522538,0.31546873,-1.2593501,-9.591172,0.48362875
0.39829752,4.750072,-0.32385162,0.12522538,0.31546873,-1.2593501,-9.591172,0.48362875
0.39862517,4.749409,-0.31959054,0.12522538,0.31333822,-1.2689269,-9.591172,0.4213795
0.3988018,4.7490563,-0.31746,0.12416011,0.31227294,-1.3024458,-9.653421,0.47405192
0.3989794,4.7487016,-0.31746,0.12416011,0.31227294,-1.3024458,-9.653421,0.47405192
0.39915627,4.748349,-0.31319895,0.12096432,0.31120768,-1.3263878,-9.648633,0.4405331
0.39933467,4.7479935,-0.31319895,0.12096432,0.31120768,-1.3263878,-9.648633,0.4405331
0.39951116,4.747644,-0.30787262,0.117768526,0.31120768,-1.3742718,-9.682152,0.3878607
0.3996878,4.7472944,-0.30787262,0.117768526,0.31120768,-1.3742718,-9.682152,0.3878607
0.3998622,4.7469497,-0.30361158,0.115637995,0.30907714,-1.3982137,-9.672575,0.3878607
0.40003666,4.7466054,-0.30361158,0.115637995,0.30907714,-1.3982137,-9.672575,0.3878607
0.40021262,4.746264,-0.30148104,0.113507465,0.31014243,-1.4173675,-9.720459,0.39743748
0.40038812,4.7459235,-0.30148104,0.113507465,0.31014243,-1.4173675,-9.720459,0.39743748
0.40056515,4.7455864,-0.29828525,0.11137694,0.31120768,-1.3790601,-9.706094,0.40222588
0.40074193,4.74525,-0.29828525,0.11137694,0.31120768,-1.3790601,-9.706094,0.40222588
0.400919,4.744919,-0.29508945,0.11031167,0.31120768,-1.436521,-9.730036,0.4213795
0.40109554,4.7445884,-0.29508945,0.11031167,0.31120768,-1.436521,-9.730036,0.4213795
0.4012715,4.7442636,-0.29189366,0.10818114,0.31014243,-1.4460979,-9.749189,0.45968673
0.4014494,4.7439365,-0.29189366,0.10818114,0.31014243,-1.4460979,-9.749189,0.45968673
0.4014494,4.7439365,-0.29189366,0.10818114,0.31014243,-1.4460979,-9.749189,0.45968673
0.40179783,4.74329,-0.28869787,0.10498535,0.30907714,-1.4508862,-9.763555,0.40222588
0.40196854,4.742971,-0.28656733,0.10178956,0.30694664,-1.5227122,-9.739613,0.37349546
0.4021406,4.7426496,-0.28656733,0.10178956,0.30694664,-1.5227122,-9.739613,0.37349546
0.40231076,4.7423296,-0.28337154,0.100724295,0.30588135,-1.5035586,-9.773131,0.33518824
0.40248066,4.7420106,-0.28337154,0.100724295,0.30588135,-1.5035586,-9.773131,0.33518824
0.40248066,4.7420106,-0.28337154,0.100724295,0.30588135,-1.5035586,-9.773131,0.33518824
0.40281802,4.7413816,-0.28124103,0.09646323,0.30375084,-1.4939818,-9.787497,0.36391866
0.40298006,4.741067,-0.27804524,0.09220218,0.2984245,-1.4939818,-9.763555,0.2633622
0.403142,4.7407527,-0.27804524,0.09220218,0.2984245,-1.4939818,-9.763555,0.2633622
0.4033032,4.740451,-0.27484944,0.08794112,0.29629397,-1.4987702,-9.744401,0.39264908
0.4034641,4.7401495,-0.27484944,0.08794112,0.29629397,-1.4987702,-9.744401,0.39264908
0.40362027,4.7398505,-0.27165365,0.08368006,0.29203293,-1.4987702,-9.753978,0.34955344
0.4037763,4.7395515,-0.27165365,0.08368006,0.29203293,-1.4987702,-9.753978,0.34955344
0.4039265,4.7392554,-0.26739258,0.08048427,0.2867066,-1.5131354,-9.749189,0.30166942
0.40407693,4.7389593,-0.26739258,0.08048427,0.2867066,-1.5131354,-9.749189,0.30166942
0.40422273,4.738668,-0.26206627,0.07622321,0.28244555,-1.4939818,-9.758766,0.2681506
0.4043685,4.738377,-0.26206627,0.07622321,0.28244555,-1.4939818,-9.758766,0.2681506
0.40450802,4.7380886,-0.25673994,0.071962155,0.27711922,-1.4939818,-9.744401,0.18195933
0.40464777,4.7377996,-0.25673994,0.071962155,0.27711922,-1.4939818,-9.744401,0.18195933
0.40477833,4.7375236,-0.24928309,0.069831625,0.26753184,-1.5370775,-9.715671,0.24899697
0.40491,4.7372446,-0.24928309,0.069831625,0.26753184,-1.5370775,-9.715671,0.24899697
0.4050292,4.736982,-0.24182624,0.06663583,0.25687918,-1.508347,-9.753978,0.2873042
0.40514892,4.7367177,-0.24182624,0.06663583,0.25687918,-1.508347,-9.753978,0.2873042
0.40526068,4.7364635,-0.23330413,0.06344004,0.24835707,-1.5227122,-9.696517,0.30166942
0.4053721,4.7362103,-0.23330413,0.06344004,0.24835707,-1.5227122,-9.696517,0.30166942
0.4054725,4.735963,-0.22371674,0.06130951,0.23770443,-1.4891934,-9.667787,0.23942018
0.40557277,4.7357163,-0.22371674,0.06130951,0.23770443,-1.4891934,-9.667787,0.23942018
0.40566307,4.7354827,-0.21412936,0.05917898,0.2270518,-1.4939818,-9.677363,0.2873042
0.40575314,4.7352495,-0.21412936,0.05917898,0.2270518,-1.4939818,-9.677363,0.2873042
0.40583396,4.7350225,-0.20347671,0.058113717,0.2174644,-1.4987702,-9.615114,0.23942018
0.4059134,4.734799,-0.20347671,0.058113717,0.2174644,-1.4987702,-9.615114,0.23942018
0.40598515,4.734588,-0.19282407,0.055983186,0.2089423,-1.4939818,-9.639056,0.272939
0.40605718,4.7343764,-0.19282407,0.055983186,0.2089423,-1.4939818,-9.639056,0.272939
0.40612152,4.734177,-0.18217143,0.053852655,0.20042017,-1.5179238,-9.643845,0.31124622
0.40612152,4.734177,-0.18217143,0.053852655,0.20042017,-1.5179238,-9.643845,0.31124622
0.4062439,4.7337856,-0.17258404,0.052787393,0.19296333,-1.5179238,-9.68694,0.2825158
0.4062991,4.733599,-0.17258404,0.052787393,0.19296333,-1.5179238,-9.68694,0.2825158
0.4062991,4.733599,-0.17258404,0.052787393,0.19296333,-1.5179238,-9.68694,0.2825158
0.40639982,4.7332344,-0.16299666,0.052787393,0.18657175,-1.5227122,-9.667787,0.2777274
0.40644196,4.7330637,-0.15447456,0.052787393,0.18018015,-1.4891934,-9.65821,0.24420857
0.40644196,4.7330637,-0.15447456,0.052787393,0.18018015,-1.4891934,-9.65821,0.24420857
0.4065214,4.7327256,-0.1470177,0.051722128,0.17485383,-1.4891934,-9.643845,0.19632454
0.40655822,4.732559,-0.1470177,0.051722128,0.17485383,-1.4891934,-9.643845,0.19632454
0.4065897,4.7324004,-0.14169139,0.051722128,0.1695275,-1.5466543,-9.629479,0.22026655
0.40662166,4.7322397,-0.14169139,0.051722128,0.1695275,-1.5466543,-9.629479,0.22026655
0.4066492,4.7320848,-0.13529979,0.050656863,0.16526645,-1.5131354,-9.65821,0.20590134
0.40667677,4.73193,-0.13529979,0.050656863,0.16526645,-1.5131354,-9.65821,0.20590134
0.40670124,4.7317824,-0.12997347,0.048526336,0.16207066,-1.541866,-9.643845,0.22505496
0.40672562,4.7316356,-0.12997347,0.048526336,0.16207066,-1.541866,-9.643845,0.22505496
0.40674633,4.731495,-0.12677768,0.04746107,0.1578096,-1.5131354,-9.629479,0.272939
0.40676728,4.7313538,-0.12677768,0.04746107,0.1578096,-1.5131354,-9.629479,0.272939
0.4067884,4.731212,-0.12358189,0.046395805,0.1578096,-1.5275006,-9.706094,0.2633622
0.4067884,4.731212,-0.12358189,0.046395805,0.1578096,-1.5275006,-9.706094,0.2633622
0.4068297,4.730942,-0.120386094,0.04533054,0.15887487,-1.5514427,-9.715671,0.24420857
0.40685093,4.7308083,-0.120386094,0.04533054,0.15887487,-1.5514427,-9.715671,0.24420857
0.40687165,4.730676,-0.119320825,0.04533054,0.1578096,-1.5514427,-9.744401,0.272939
0.40689218,4.730545,-0.119320825,0.04533054,0.1578096,-1.5514427,-9.744401,0.272939
0.40691358,4.730422,-0.117190294,0.043200012,0.1578096,-1.5610195,-9.720459,0.33997664
0.40693516,4.730297,-0.117190294,0.043200012,0.1578096,-1.5610195,-9.720459,0.33997664
0.406957,4.7301726,-0.1139945,0.043200012,0.15887487,-1.541866,-9.710882,0.2825158
0.40697888,4.730048,-0.1139945,0.043200012,0.15887487,-1.541866,-9.710882,0.2825158
0.4070009,4.729928,-0.11186397,0.041069485,0.15887487,-1.5993267,-9.720459,0.30166942
0.40702286,4.729808,-0.11186397,0.041069485,0.15887487,-1.5993267,-9.720459,0.30166942
0.4070439,4.729692,-0.10866818,0.038938954,0.1578096,-1.541866,-9.739613,0.30166942
0.4070649,4.7295756,-0.10866818,0.038938954,0.1578096,-1.541866,-9.739613,0.30166942
0.40708646,4.729461,-0.105472386,0.036808424,0.15887487,-1.532289,-9.739613,0.25857377
0.40710804,4.7293468,-0.105472386,0.036808424,0.15887487,-1.532289,-9.739613,0.25857377
0.40712866,4.7292385,-0.10121133,0.03254737,0.1578096,-1.5370775,-9.80665,0.272939
0.40714929,4.729131,-0.10121133,0.03254737,0.1578096,-1.5370775,-9.80665,0.272939
0.4071692,4.7290316,-0.09695027,0.029351573,0.15674433,-1.5514427,-9.753978,0.31124622
0.4071891,4.7289324,-0.09695027,0.029351573,0.15674433,-1.5514427,-9.753978,0.31124622
0.40720505,4.728834,-0.092689216,0.027221046,0.15354854,-1.5131354,-9.710882,0.24420857
0.407221,4.7287364,-0.092689216,0.027221046,0.15354854,-1.5131354,-9.710882,0.24420857
0.40723154,4.7286425,-0.088428155,0.025090516,0.14822222,-1.484405,-9.720459,0.23463176
0.4072421,4.728549,-0.088428155,0.025090516,0.14822222,-1.484405,-9.720459,0.23463176
0.4072482,4.7284617,-0.08310183,0.022959989,0.14396116,-1.5275006,-9.701305,0.23463176
0.4072545,4.7283745,-0.08310183,0.022959989,0.14396116,-1.5275006,-9.701305,0.23463176
0.4072557,4.7282867,-0.07990604,0.020829458,0.1397001,-1.4891934,-9.710882,0.15801731
0.40725696,4.7281995,-0.07990604,0.020829458,0.1397001,-1.4891934,-9.710882,0.15801731
0.4072532,4.7281175,-0.07777551,0.01869893,0.13437378,-1.541866,-9.682152,0.20590134
0.40724948,4.7280354,-0.07777551,0.01869893,0.13437378,-1.541866,-9.682152,0.20590134
0.40724108,4.727953,-0.075644985,0.0165684,0.13011272,-1.484405,-9.677363,0.14844051
0.40723273,4.727872,-0.075644985,0.0165684,0.13011272,-1.484405,-9.677363,0.14844051
0.40721717,4.727796,-0.073514454,0.0133726075,0.12265587,-1.4556746,-9.677363,0.19632454
0.4072017,4.7277203,-0.073514454,0.0133726075,0.12265587,-1.4556746,-9.677363,0.19632454
0.40717807,4.7276506,-0.07138392,0.011242079,0.11413376,-1.4652514,-9.682152,0.24420857
0.40715444,4.7275815,-0.07138392,0.011242079,0.11413376,-1.4652514,-9.682152,0.24420857
0.4071217,4.7275124,-0.06818813,0.008046285,0.10561164,-1.4652514,-9.662998,0.19153613
0.40708917,4.727445,-0.06818813,0.008046285,0.10561164,-1.4652514,-9.662998,0.19153613
0.40704668,4.7273808,-0.06392708,0.004850492,0.09602426,-1.4317327,-9.653421,0.15801731
0.40700418,4.727316,-0.06392708,0.004850492,0.09602426,-1.4317327,-9.653421,0.15801731
0.40695304,4.727265,-0.059666015,0.00058943406,0.08643688,-1.4796166,-9.624691,0.272939
0.40690205,4.7272134,-0.059666015,0.00058943406,0.08643688,-1.4796166,-9.624691,0.272939
0.40684462,4.7271614,-0.055404957,-0.0015410949,0.08111056,-1.4700398,-9.619903,0.18195933
0.40684462,4.7271614,-0.055404957,-0.0015410949,0.08111056,-1.4700398,-9.619903,0.18195933
0.40684462,4.7271614,-0.055404957,-0.0015410949,0.08111056,-1.4700398,-9.619903,0.18195933
0.40684462,4.7271614,-0.055404957,-0.0015410949,0.08111056,-1.4700398,-9.619903,0.18195933
0.40684462,4.7271614,-0.055404957,-0.0015410949,0.08111056,-1.4700398,-9.619903,0.18195933
0.40684462,4.7271614,-0.055404957,-0.0015410949,0.08111056,-1.4700398,-9.619903,0.18195933
0.40640464,4.726991,-0.035164934,-0.0100632105,0.06513159,-1.4413095,-9.548077,0.17238252
0.40633407,4.726964,-0.035164934,-0.0100632105,0.06513159,-1.4413095,-9.548077,0.17238252
0.40625346,4.7269425,-0.025577553,-0.012193739,0.05980527,-1.4556746,-9.562442,0.24420857
0.4061752,4.726929,-0.025577553,-0.012193739,0.05980527,-1.4556746,-9.562442,0.24420857
0.40609348,4.726922,-0.017055437,-0.014324268,0.056609474,-1.436521,-9.519346,0.19153613
0.4060115,4.7269144,-0.017055437,-0.014324268,0.056609474,-1.436521,-9.519346,0.19153613
0.40592796,4.7269154,-0.008533322,-0.015389533,0.055544212,-1.4700398,-9.514558,0.17238252
0.40584514,4.7269154,-0.008533322,-0.015389533,0.055544212,-1.4700398,-9.514558,0.17238252
0.40576193,4.726926,-1.12066045e-05,-0.016454797,0.055544212,-1.4700398,-9.495404,0.18674773
0.40567878,4.726937,-1.12066045e-05,-0.016454797,0.055544212,-1.4700398,-9.495404,0.18674773
0.4055949,4.726944,0.004249851,-0.016454797,0.055544212,-1.4556746,-9.476251,0.07182605
0.40551102,4.7269516,0.004249851,-0.016454797,0.055544212,-1.4556746,-9.476251,0.07182605
0.4054278,4.726971,0.010641438,-0.016454797,0.055544212,-1.4413095,-9.476251,0.16280572
0.40534443,4.7269907,0.010641438,-0.016454797,0.055544212,-1.4413095,-9.476251,0.16280572
0.40526685,4.727008,0.014902496,-0.016454797,0.061935797,-1.460463,-9.461885,0.05746084
0.40518922,4.7270255,0.014902496,-0.016454797,0.061935797,-1.460463,-9.461885,0.05746084
0.4051192,4.7270455,0.017033026,-0.016454797,0.06939265,-1.484405,-9.452309,0.07182605
0.40504906,4.7270656,0.017033026,-0.016454797,0.06939265,-1.484405,-9.452309,0.07182605
0.40498567,4.727091,0.019163553,-0.017520063,0.075784236,-1.4652514,-9.495404,0.110133275
0.40492213,4.727116,0.019163553,-0.017520063,0.075784236,-1.4652514,-9.495404,0.110133275
0.40486565,4.7271395,0.019163553,-0.018585326,0.08324109,-1.5035586,-9.485827,0.06703765
0.40480953,4.7271624,0.019163553,-0.018585326,0.08324109,-1.5035586,-9.485827,0.06703765
0.40476486,4.727181,0.01809829,-0.017520063,0.094959,-1.4700398,-9.509769,0.023942016
0.40472013,4.7271996,0.01809829,-0.017520063,0.094959,-1.4700398,-9.509769,0.023942016
0.40468398,4.727216,0.013837231,-0.017520063,0.103481114,-1.4556746,-9.495404,0.04309563
0.40464783,4.7272315,0.013837231,-0.017520063,0.103481114,-1.4556746,-9.495404,0.04309563
0.40461951,4.727247,0.0095761735,-0.017520063,0.11093796,-1.4987702,-9.471462,0.11492168
0.40459064,4.7272635,0.0095761735,-0.017520063,0.11093796,-1.4987702,-9.471462,0.11492168
0.40457162,4.727272,0.0053151157,-0.017520063,0.120525345,-1.4939818,-9.485827,0.05746084
0.40455276,4.72728,0.0053151157,-0.017520063,0.120525345,-1.4939818,-9.485827,0.05746084
0.40454003,4.7272844,0.0010540579,-0.018585326,0.12691693,-1.4796166,-9.509769,0.05267244
0.40452743,4.7272882,0.0010540579,-0.018585326,0.12691693,-1.4796166,-9.509769,0.05267244
0.40452212,4.727289,-0.0021417355,-0.01965059,0.13437378,-1.4891934,-9.519346,0.04309563
0.4045168,4.72729,-0.0021417355,-0.01965059,0.13437378,-1.4891934,-9.519346,0.04309563
0.40452018,4.7272882,-0.007468058,-0.01965059,0.14289589,-1.484405,-9.504981,0.08140286
0.4045236,4.727286,-0.007468058,-0.01965059,0.14289589,-1.484405,-9.504981,0.08140286
0.4045337,4.7272825,-0.011729116,-0.018585326,0.14928748,-1.4796166,-9.442732,0.12928689
0.40454376,4.727279,-0.011729116,-0.018585326,0.14928748,-1.4796166,-9.442732,0.12928689
0.40455803,4.7272706,-0.014924909,-0.018585326,0.15354854,-1.4652514,-9.514558,0.10534488
0.40457222,4.7272625,-0.014924909,-0.018585326,0.15354854,-1.4652514,-9.514558,0.10534488
0.4045896,4.727252,-0.017055437,-0.01965059,0.15674433,-1.4748282,-9.490616,0.095768064
0.40460697,4.7272415,-0.017055437,-0.01965059,0.15674433,-1.4748282,-9.490616,0.095768064
0.40462646,4.7272296,-0.020251231,-0.01965059,0.15887487,-1.5179238,-9.485827,0.12449849
0.40464604,4.7272177,-0.020251231,-0.01965059,0.15887487,-1.5179238,-9.485827,0.12449849
0.40466842,4.7272053,-0.025577553,-0.01965059,0.1610054,-1.4796166,-9.500193,0.20111294
0.40469083,4.727193,-0.025577553,-0.01965059,0.1610054,-1.4796166,-9.500193,0.20111294
0.4047148,4.7271743,-0.027708083,-0.018585326,0.16313592,-1.484405,-9.452309,0.1388637
0.4047388,4.7271557,-0.027708083,-0.018585326,0.16313592,-1.484405,-9.452309,0.1388637
0.4047637,4.727129,-0.03196914,-0.013259004,0.16420119,-1.5227122,-9.476251,0.11971009
0.4047888,4.7271023,-0.03196914,-0.013259004,0.16420119,-1.5227122,-9.476251,0.11971009
0.40481475,4.72707,-0.035164934,-0.0100632105,0.16526645,-1.508347,-9.490616,0.10055647
0.4048408,4.7270374,-0.035164934,-0.0100632105,0.16526645,-1.508347,-9.490616,0.10055647
0.4048694,4.7269945,-0.038360726,-0.0058021527,0.16739698,-1.5514427,-9.528923,0.02873042
0.4048965,4.726954,-0.038360726,-0.0058021527,0.16739698,-1.5514427,-9.528923,0.02873042
0.40492654,4.726902,-0.04368705,-0.0015410949,0.1695275,-1.5801731,-9.514558,-0.009576807
0.40495813,4.7268476,-0.04368705,-0.0015410949,0.1695275,-1.5801731,-9.514558,-0.009576807
0.4049879,4.726791,-0.050078638,0.00058943406,0.17059277,-1.5753847,-9.552865,-0.009576807
0.40501887,4.7267323,-0.050078638,0.00058943406,0.17059277,-1.5753847,-9.552865,-0.009576807
0.40505004,4.7266645,-0.056470223,0.002719963,0.17059277,-1.5705963,-9.591172,-0.038307227
0.4050799,4.7265997,-0.056470223,0.002719963,0.17059277,-1.5705963,-9.591172,-0.038307227
0.4051112,4.7265244,-0.061796546,0.0059157563,0.17059277,-1.5945383,-9.576807,-0.04309563
0.40514365,4.726446,-0.061796546,0.0059157563,0.17059277,-1.5945383,-9.576807,-0.04309563
0.40517497,4.726368,-0.0660576,0.008046285,0.17059277,-1.5849615,-9.562442,-0.01436521
0.40520605,4.72629,-0.0660576,0.008046285,0.17059277,-1.5849615,-9.562442,-0.01436521
0.40523624,4.726207,-0.0692534,0.010176814,0.1695275,-1.5897499,-9.576807,-0.02873042
0.40526637,4.726124,-0.0692534,0.010176814,0.1695275,-1.5897499,-9.576807,-0.02873042
0.40529487,4.7260423,-0.073514454,0.014437872,0.16739698,-1.5705963,-9.548077,0.090979666
0.40532333,4.725961,-0.073514454,0.014437872,0.16739698,-1.5705963,-9.548077,0.090979666
0.40534946,4.7258744,-0.075644985,0.0165684,0.16526645,-1.5945383,-9.557653,0.05746084
0.40537554,4.725788,-0.075644985,0.0165684,0.16526645,-1.5945383,-9.557653,0.05746084
0.40539968,4.725699,-0.07777551,0.019764194,0.16313592,-1.5897499,-9.533711,0.07182605
0.4054239,4.72561,-0.07777551,0.019764194,0.16313592,-1.5897499,-9.533711,0.07182605
0.40544778,4.7255154,-0.07777551,0.021894723,0.16313592,-1.5801731,-9.552865,-0.0047884034
0.40547177,4.7254205,-0.07777551,0.021894723,0.16313592,-1.5801731,-9.552865,-0.0047884034
0.40549573,4.7253284,-0.075644985,0.024025252,0.16313592,-1.5849615,-9.572019,0.01436521
0.4055198,4.725236,-0.075644985,0.024025252,0.16313592,-1.5849615,-9.572019,0.01436521
0.40554076,4.7251444,-0.074579716,0.025090516,0.15994012,-1.6041151,-9.548077,0.023942016
0.40556148,4.725054,-0.074579716,0.025090516,0.15994012,-1.6041151,-9.548077,0.023942016
0.4055804,4.724965,-0.07138392,0.025090516,0.1578096,-1.6472107,-9.586384,0.023942016
0.40559894,4.7248783,-0.07138392,0.025090516,0.1578096,-1.6472107,-9.586384,0.023942016
0.40561575,4.7247963,-0.06712287,0.025090516,0.15567908,-1.6711528,-9.595961,0.06703765
0.4056328,4.7247143,-0.06712287,0.025090516,0.15567908,-1.6711528,-9.595961,0.06703765
0.4056473,4.7246413,-0.06073128,0.026155781,0.15354854,-1.6567876,-9.682152,0.08140286
0.40566164,4.7245693,-0.06073128,0.026155781,0.15354854,-1.6567876,-9.682152,0.08140286
0.40567622,4.724501,-0.055404957,0.026155781,0.15354854,-1.5897499,-9.677363,0.07182605
0.40569103,4.7244315,-0.055404957,0.026155781,0.15354854,-1.5897499,-9.677363,0.07182605
0.40570754,4.724366,-0.049013373,0.027221046,0.15567908,-1.6184803,-9.691729,0.02873042
0.40572426,4.7243004,-0.049013373,0.027221046,0.15567908,-1.6184803,-9.691729,0.02873042
0.40574002,4.7242465,-0.042621784,0.026155781,0.15461381,-1.6376339,-9.682152,0.095768064
0.4057559,4.7241917,-0.042621784,0.026155781,0.15461381,-1.6376339,-9.682152,0.095768064
0.40577248,4.724139,-0.03729546,0.02828631,0.15567908,-1.6759412,-9.734824,0.05267244
0.40578923,4.7240863,-0.03729546,0.02828631,0.15567908,-1.6759412,-9.734824,0.05267244
0.4058054,4.7240415,-0.03409967,0.029351573,0.15461381,-1.661576,-9.706094,0.12928689
0.40582162,4.723996,-0.03409967,0.029351573,0.15461381,-1.661576,-9.706094,0.12928689
0.40583828,4.723947,-0.033034407,0.031482104,0.15567908,-1.6136919,-9.68694,0.05746084
0.405855,4.723898,-0.033034407,0.031482104,0.15567908,-1.6136919,-9.68694,0.05746084
0.4058718,4.723847,-0.033034407,0.034677897,0.15567908,-1.6807296,-9.677363,0.05746084
0.4058885,4.7237964,-0.033034407,0.034677897,0.15567908,-1.6807296,-9.677363,0.05746084
0.4059035,4.723744,-0.03409967,0.036808424,0.15354854,-1.6184803,-9.667787,0.07182605
0.40591806,4.723693,-0.03409967,0.036808424,0.15354854,-1.6184803,-9.667787,0.07182605
