Pitch,Roll,Gyro_X,Gyro_Y,Gyro_Z,Accel_X,Accel_Y,Accel_Z
0.1548067,4.657407,-0.2862545,-0.32324108,-0.697548,1.1300632,-8.595184,-0.07182605
0.15386055,4.6571636,-0.2862545,-0.32324108,-0.697548,1.1300632,-8.595184,-0.07182605
0.15320301,4.656999,-0.2798629,-0.3434811,-0.6741122,1.1013328,-8.571242,-0.019153614
0.15242939,4.656806,-0.2798629,-0.3434811,-0.6741122,1.1013328,-8.571242,-0.019153614
0.15167423,4.656626,-0.2713408,-0.36904746,-0.6485458,1.115698,-8.662222,0.07182605
0.15091087,4.6564445,-0.2713408,-0.36904746,-0.6485458,1.115698,-8.662222,0.07182605
0.15018718,4.656284,-0.26068816,-0.4010054,-0.62084895,1.1683705,-8.738836,0.18674773
0.14946935,4.6561246,-0.26068816,-0.4010054,-0.62084895,1.1683705,-8.738836,0.18674773
0.14878555,4.6559906,-0.24790499,-0.4372244,-0.5920868,1.292869,-8.844181,0.4357447
0.14801358,4.655839,-0.24790499,-0.4372244,-0.5920868,1.292869,-8.844181,0.4357447
0.1474021,4.655733,-0.23192601,-0.4755739,-0.5611941,1.484405,-9.059659,0.5602432
0.14651042,4.6555796,-0.21168599,-0.51498866,-0.5313667,1.5705963,-9.217676,0.78529817
0.14612901,4.655529,-0.21168599,-0.51498866,-0.5313667,1.5705963,-9.217676,0.78529817
0.14553492,4.6554494,-0.21168599,-0.51498866,-0.5313667,1.5705963,-9.217676,0.78529817
0.14494663,4.6554055,-0.1871849,-0.5544035,-0.5047351,1.5658079,-9.476251,1.1731589
0.1443801,4.655362,-0.1871849,-0.5544035,-0.5047351,1.5658079,-9.476251,1.1731589
0.14371276,4.655363,-0.15948802,-0.59594876,-0.47597298,1.1779473,-9.964667,1.541866
0.14334738,4.655363,-0.15948802,-0.59594876,-0.47597298,1.1779473,-9.964667,1.541866
0.14288269,4.655412,-0.12539956,-0.6438857,-0.44614556,0.6464345,-10.43872,1.8866309
0.14240807,4.655462,-0.12539956,-0.6438857,-0.44614556,0.6464345,-10.43872,1.8866309
0.14198288,4.6555676,-0.08385425,-0.7078015,-0.41418764,0.1340753,-10.960655,2.0973208
0.14155778,4.6556735,-0.08385425,-0.7078015,-0.41418764,0.1340753,-10.960655,2.0973208
0.14119059,4.655843,-0.035917353,-0.7930227,-0.37583813,-0.4405331,-11.429919,2.1452048
0.14082302,4.656012,-0.035917353,-0.7930227,-0.37583813,-0.4405331,-11.429919,2.1452048
0.14051358,4.6562576,0.023737457,-0.9038102,-0.3321623,-0.7757214,-11.942278,2.1212628
0.14020221,4.6565046,0.023737457,-0.9038102,-0.3321623,-0.7757214,-11.942278,2.1212628
0.1399541,4.65684,0.09404491,-1.0412294,-0.28316012,-0.9864111,-12.473791,2.2266076
0.1397064,4.657174,0.09404491,-1.0412294,-0.28316012,-0.9864111,-12.473791,2.2266076
0.13950476,4.657617,0.1813966,-1.2031496,-0.23415795,-0.6799533,-12.971785,2.231396
0.13930339,4.6580577,0.1813966,-1.2031496,-0.23415795,-0.6799533,-12.971785,2.231396
0.13913645,4.658632,0.29324937,-1.3789182,-0.19154738,-0.15801731,-13.43626,2.15957
0.13896835,4.6592064,0.29324937,-1.3789182,-0.19154738,-0.15801731,-13.43626,2.15957
0.13883826,4.659946,0.43386427,-1.5578825,-0.1638505,-0.29688102,-13.819332,2.111686
0.13870677,4.6606855,0.43386427,-1.5578825,-0.1638505,-0.29688102,-13.819332,2.111686
0.13859999,4.661625,0.6064371,-1.7400428,-0.15213259,-0.5554548,-14.106636,2.054225
0.1384914,4.6625643,0.6064371,-1.7400428,-0.15213259,-0.5554548,-14.106636,2.054225
0.13839939,4.6637354,0.81096786,-1.9285946,-0.15000206,-0.8379706,-14.255077,2.0207062
0.13830487,4.6649065,0.81096786,-1.9285946,-0.15000206,-0.8379706,-14.255077,2.0207062
0.13821283,4.666341,1.0474566,-2.1246033,-0.15532838,-0.8858546,-14.393941,2.0398598
0.13811727,4.667777,1.0474566,-2.1246033,-0.15532838,-0.8858546,-14.393941,2.0398598
0.1380076,4.669504,1.3148379,-2.3227425,-0.17130736,-0.78050977,-14.45619,2.0350714
0.13789319,4.671236,1.3148379,-2.3227425,-0.17130736,-0.78050977,-14.45619,2.0350714
0.13775477,4.67328,1.6045899,-2.5230122,-0.19900422,-0.7565677,-14.369999,2.0638018
0.13761072,4.6753254,1.6045899,-2.5230122,-0.19900422,-0.7565677,-14.369999,2.0638018
0.13743155,4.6777096,1.9156471,-2.7222166,-0.23841901,-0.8571242,-14.288596,2.0494366
0.13724542,4.680094,1.9156471,-2.7222166,-0.23841901,-0.8571242,-14.288596,2.0494366
0.13701801,4.68283,2.2394874,-2.9182253,-0.28742117,-1.0965444,-14.269443,2.1308396
0.13678202,4.685568,2.2394874,-2.9182253,-0.28742117,-1.0965444,-14.269443,2.1308396
0.13648875,4.6886754,2.5750458,-3.1131687,-0.3460107,-1.2497733,-14.049175,2.0973208
0.13618763,4.69176,2.5750458,-3.1131687,-0.3460107,-1.2497733,-14.049175,2.0973208
0.13581955,4.6952124,2.9116695,-3.3038511,-0.41099185,-1.3838485,-13.9151,2.0733786
0.13543896,4.6986704,2.9116695,-3.3038511,-0.41099185,-1.3838485,-13.9151,2.0733786
0.13498361,4.7024846,3.2429667,-3.4902723,-0.4812993,-1.508347,-13.709199,1.9919758
0.1345147,4.706297,3.2429667,-3.4902723,-0.4812993,-1.508347,-13.709199,1.9919758
0.1339596,4.7104588,3.5657418,-3.6692367,-0.5537373,-1.4987702,-13.350069,1.7764976
0.13339022,4.7146096,3.5657418,-3.6692367,-0.5537373,-1.4987702,-13.350069,1.7764976
0.13272476,4.719107,3.8746684,-3.8375485,-0.6261753,-1.4221559,-13.10586,1.6041151
0.13203818,4.723624,3.8746684,-3.8375485,-0.6261753,-1.4221559,-13.10586,1.6041151
0.13123089,4.72852,4.1633554,-3.9962728,-0.7007438,-1.2737153,-12.603078,1.2497733
0.13044344,4.733173,4.1633554,-3.9962728,-0.7007438,-1.2737153,-12.603078,1.2497733
0.12950349,4.738221,4.4264755,-4.1432796,-0.78276914,-1.1061212,-12.08593,0.92416185
0.12853901,4.7432637,4.4264755,-4.1432796,-0.78276914,-1.1061212,-12.08593,0.92416185
0.12740642,4.748505,4.665095,-4.278568,-0.8701208,-0.8523358,-11.463438,0.58418524
0.12623839,4.753763,4.665095,-4.278568,-0.8701208,-0.8523358,-11.463438,0.58418524
0.12494564,4.759164,4.8781476,-4.4010735,-0.9638641,-0.58897364,-10.922348,0.32561144
0.12363161,4.7645526,4.8781476,-4.4010735,-0.9638641,-0.58897364,-10.922348,0.32561144
0.122207895,4.7701173,5.0635037,-4.5097303,-1.0586727,-0.4165911,-10.419566,0.10534488
0.12072161,4.775835,5.0635037,-4.5097303,-1.0586727,-0.4165911,-10.419566,0.10534488
0.11919913,4.7814174,5.2200975,-4.600278,-1.156677,-0.36391866,-9.993398,-0.08140286
0.11764902,4.787018,5.2200975,-4.600278,-1.156677,-0.36391866,-9.993398,-0.08140286
0.11597025,4.7927985,5.351125,-4.66952,-1.2514855,-0.34476504,-9.706094,-0.20590134
0.11426435,4.798585,5.351125,-4.66952,-1.2514855,-0.34476504,-9.706094,-0.20590134
0.11243993,4.804471,5.45126,-4.718522,-1.3441635,-0.31603462,-9.495404,-0.2825158
0.110597864,4.8103275,5.45126,-4.718522,-1.3441635,-0.31603462,-9.495404,-0.2825158
0.10863379,4.8162756,5.5268936,-4.7472844,-1.4293847,-0.22026655,-9.524135,-0.36391866
0.10665173,4.822194,5.5268936,-4.7472844,-1.4293847,-0.22026655,-9.524135,-0.36391866
0.10458371,4.828139,5.5790915,-4.754741,-1.5050185,-0.33997664,-9.514558,-0.45010993
0.10247859,4.834108,5.5790915,-4.754741,-1.5050185,-0.33997664,-9.514558,-0.45010993
0.10036165,4.8400297,5.5790915,-4.754741,-1.5050185,-0.33997664,-9.514558,-0.45010993
0.09815729,4.846002,5.6099844,-4.7398276,-1.5668038,-0.4405331,-9.370906,-0.641646
0.09593466,4.851945,5.6099844,-4.7398276,-1.5668038,-0.4405331,-9.370906,-0.641646
0.09364798,4.8578796,5.6185064,-4.701478,-1.6147407,-0.44532153,-9.313444,-0.866701
0.09133654,4.863802,5.6185064,-4.701478,-1.6147407,-0.44532153,-9.313444,-0.866701
0.088975735,4.8696914,5.603593,-4.6375623,-1.6456333,-0.22505496,-8.75799,-1.3359646
0.08658838,4.875574,5.603593,-4.6375623,-1.6456333,-0.22505496,-8.75799,-1.3359646
0.08413437,4.8813887,5.5588517,-4.549145,-1.6658734,0.94331545,-8.6813755,-1.2641385
0.081655085,4.8871965,5.5588517,-4.549145,-1.6658734,0.94331545,-8.6813755,-1.2641385
0.07921778,4.8928986,5.4832177,-4.407465,-1.6648082,-0.08619126,-8.647857,-1.6519991
0.07676584,4.898572,5.4832177,-4.407465,-1.6648082,-0.08619126,-8.647857,-1.6519991
0.07432741,4.9041624,5.3862786,-4.2348924,-1.6466986,-0.05746084,-8.259995,-2.1643584
0.07188048,4.909714,5.3862786,-4.2348924,-1.6466986,-0.05746084,-8.259995,-2.1643584
0.06943879,4.9151287,5.265904,-4.056993,-1.6285892,1.0582372,-7.192182,-2.8634653
0.06697811,4.920532,5.265904,-4.056993,-1.6285892,1.0582372,-7.192182,-2.8634653
0.064540066,4.9257593,5.10931,-3.8450053,-1.6030228,2.4516625,-5.861006,-3.3901896
0.062087182,4.9309716,5.10931,-3.8450053,-1.6030228,2.4516625,-5.861006,-3.3901896
0.059683155,4.935969,4.9037137,-3.5808198,-1.5731953,3.3423057,-4.3143516,-3.9935284
0.05727099,4.940943,4.9037137,-3.5808198,-1.5731953,3.3423057,-4.3143516,-3.9935284
0.054929,4.9456387,4.6405935,-3.2708278,-1.5454985,3.8115692,-2.7629087,-4.3622355
0.052578636,4.9503174,4.6405935,-3.2708278,-1.5454985,3.8115692,-2.7629087,-4.3622355
0.05031642,4.95466,4.318884,-2.9278126,-1.5188669,3.8307228,-1.4317327,-4.501099
0.048047945,4.958987,4.318884,-2.9278126,-1.5188669,3.8307228,-1.4317327,-4.501099
0.045873478,4.962941,3.946041,-2.566688,-1.4901048,4.4723687,-0.12928689,-4.5058875
0.043694966,4.9668818,3.946041,-2.566688,-1.4901048,4.4723687,-0.12928689,-4.5058875
0.04161884,4.9704137,3.5273921,-2.1938455,-1.4645385,5.5018754,1.0773908,-4.3526587
0.03954465,4.9739275,3.5273921,-2.1938455,-1.4645385,5.5018754,1.0773908,-4.3526587
0.037571456,4.977009,3.071459,-1.809285,-1.4485594,6.751649,2.3223755,-3.9935284
0.035597708,4.980081,3.071459,-1.809285,-1.4485594,6.751649,2.3223755,-3.9935284
0.033737864,4.9826636,2.5825026,-1.4002235,-1.4421679,7.747637,3.1794999,-3.5865142
0.03187527,4.9852448,2.5825026,-1.4002235,-1.4421679,7.747637,3.1794999,-3.5865142
0.03013144,4.9873037,2.064784,-0.96346503,-1.4432331,8.212111,3.8738184,-3.0693667
0.02838632,4.9893622,2.064784,-0.96346503,-1.4432331,8.212111,3.8738184,-3.0693667
0.026762873,4.9908786,1.5257603,-0.50646657,-1.4474941,8.360553,4.2521024,-2.4947581
0.025145587,4.9923882,1.5257603,-0.50646657,-1.4474941,8.360553,4.2521024,-2.4947581
0.023647185,4.993347,0.9718228,-0.048402846,-1.4485594,8.604761,4.3143516,-1.8626889
0.022152025,4.9943047,0.9718228,-0.048402846,-1.4485594,8.604761,4.3143516,-1.8626889
0.020789288,4.994695,0.41042846,0.40646508,-1.4442984,8.5473,4.4101195,-1.5705963
0.019425372,4.995087,0.41042846,0.40646508,-1.4442984,8.5473,4.4101195,-1.5705963
0.01820014,4.994905,-0.15842277,0.85068035,-1.43045,8.303091,4.1946416,-1.292869
0.016973358,4.9947243,-0.15842277,0.85068035,-1.43045,8.303091,4.1946416,-1.292869
0.015891055,4.993975,-0.72620875,1.268264,-1.4038184,7.7907324,3.9217024,-0.8810662
0.014807518,4.993228,-0.72620875,1.268264,-1.4038184,7.7907324,3.9217024,-0.8810662
0.013869989,4.9919143,-1.2907989,1.6517593,-1.3601425,6.943185,3.4476504,-0.51714754
0.012932745,4.990607,-1.2907989,1.6517593,-1.3601425,6.943185,3.4476504,-0.51714754
0.012142236,4.988735,-1.8479322,1.9915786,-1.2951614,5.9567738,2.6719291,-0.04309563
0.011349868,4.986871,-1.8479322,1.9915786,-1.2951614,5.9567738,2.6719291,-0.04309563
0.010720821,4.9844675,-2.3922822,2.2845263,-1.201418,5.0613422,1.757344,0.5410896
0.010085744,4.9820666,-2.3922822,2.2845263,-1.201418,5.0613422,1.757344,0.5410896
0.00962813,4.9791536,-2.915327,2.5306025,-1.0757169,4.3718123,0.545878,1.316811
0.009163698,4.976248,-2.915327,2.5306025,-1.0757169,4.3718123,0.545878,1.316811
0.008893575,4.9728394,-3.4128058,2.7361984,-0.9148619,3.596091,-0.8379706,1.8148049
0.00861492,4.9694443,-3.4128058,2.7361984,-0.9148619,3.596091,-0.8379706,1.8148049
0.008556236,4.9655943,-3.8793914,2.9023798,-0.72204906,2.6767175,-2.2936451,2.2601264
0.008486449,4.961752,-3.8793914,2.9023798,-0.72204906,2.6767175,-2.2936451,2.2601264
0.008658839,4.957472,-4.3150845,3.0270157,-0.50153935,1.8291701,-3.916914,2.633622
0.008818573,4.9532,-4.3150845,3.0270157,-0.50153935,1.8291701,-3.916914,2.633622
0.009232154,4.9485345,-4.712428,3.1058452,-0.2565285,1.3120226,-5.463568,2.906561
0.0096314605,4.9438767,-4.712428,3.1058452,-0.2565285,1.3120226,-5.463568,2.906561
0.01030507,4.938861,-5.068227,3.14526,0.014048667,0.79487497,-6.885724,3.0502129
0.010961653,4.9338627,-5.068227,3.14526,0.014048667,0.79487497,-6.885724,3.0502129
0.011904201,4.928522,-5.3824797,3.1516516,0.3069964,0.4309563,-8.1402855,2.9592333
0.012828073,4.9231997,-5.3824797,3.1516516,0.3069964,0.4309563,-8.1402855,2.9592333
0.014033551,4.91759,-5.655187,3.1303463,0.62337995,0.24420857,-9.11712,2.6048915
0.015222464,4.911989,-5.655187,3.1303463,0.62337995,0.24420857,-9.11712,2.6048915
0.01669552,4.906143,-5.887415,3.0866704,0.9536119,0.110133275,-9.974244,2.3798366
0.01815699,4.900295,-5.887415,3.0866704,0.9536119,0.110133275,-9.974244,2.3798366
0.019992772,4.8942595,-6.0823584,3.0259504,1.2902355,-0.21068975,-10.769119,2.1499932
0.021791952,4.888231,-6.0823584,3.0259504,1.2902355,-0.21068975,-10.769119,2.1499932
0.024023477,4.881858,-6.237887,2.9481862,1.6268591,-0.4213795,-11.386824,1.9393034
0.02625321,4.875551,-6.237887,2.9481862,1.6268591,-0.4213795,-11.386824,1.9393034
0.028780222,4.8690987,-6.352936,2.8587039,1.9634826,-0.6464345,-11.927913,1.8866309
0.03130263,4.8626575,-6.352936,2.8587039,1.9634826,-0.6464345,-11.927913,1.8866309
0.03412602,4.8561115,-6.4307,2.7638953,2.2969103,-0.91458505,-12.306197,1.7956513
0.03691875,4.849619,-6.4307,2.7638953,2.2969103,-0.91458505,-12.306197,1.7956513
0.04001875,4.843024,-6.472245,2.6680214,2.6239467,-1.1061212,-12.5743475,1.6376339
0.043106392,4.836439,-6.472245,2.6680214,2.6239467,-1.1061212,-12.5743475,1.6376339
0.046474762,4.8298373,-6.4828978,2.5732129,2.9424605,-1.2880806,-12.703634,1.4748282
0.04982767,4.8232493,-6.4828978,2.5732129,2.9424605,-1.2880806,-12.703634,1.4748282
0.053475767,4.8166027,-6.47118,2.4826655,3.2492568,-1.5610195,-12.785037,1.1971009
0.061104618,4.803108,-6.4424176,2.3942485,3.5422046,-1.6663644,-12.89517,0.7565677
0.061104618,4.803108,-6.4424176,2.3942485,3.5422046,-1.6663644,-12.89517,0.7565677
0.064863496,4.796645,-6.4424176,2.3942485,3.5422046,-1.6663644,-12.89517,0.7565677
0.06975773,4.78868,-6.396611,2.3100927,3.813847,-1.541866,-12.919112,0.33518824
0.07302548,4.783342,-6.396611,2.3100927,3.813847,-1.541866,-12.919112,0.33518824
0.07722406,4.7768226,-6.3401523,2.2323284,4.0609884,-1.4077905,-12.808979,-0.29209262
0.08191432,4.7695017,-6.3401523,2.2323284,4.0609884,-1.4077905,-12.808979,-0.29209262
0.085739255,4.7638245,-6.277302,2.1609557,4.277237,-1.3503298,-12.713211,-0.9672575
0.09494295,4.7502713,-6.2101903,2.0927787,4.4593973,-1.316811,-12.564771,-1.5275006
0.09494295,4.7502713,-6.2101903,2.0927787,4.4593973,-1.316811,-12.564771,-1.5275006
0.099374115,4.743919,-6.2101903,2.0927787,4.4593973,-1.316811,-12.564771,-1.5275006
0.10437045,4.737014,-6.1430783,2.0299282,4.6053386,-1.2497733,-12.473791,-1.9632454
0.10880226,4.7308574,-6.1430783,2.0299282,4.6053386,-1.2497733,-12.473791,-1.9632454
0.11316767,4.724974,-6.071706,1.9734691,4.7150607,-1.2401965,-12.540829,-2.3511062
0.117879085,4.7185936,-6.071706,1.9734691,4.7150607,-1.2401965,-12.540829,-2.3511062
0.12267112,4.712261,-5.997137,1.9255322,4.792825,-1.3263878,-12.65575,-2.7150247
0.12744841,4.705915,-5.918308,1.8871827,4.8428926,-1.4460979,-12.794614,-2.930503
0.13226552,4.6996393,-5.918308,1.8871827,4.8428926,-1.4460979,-12.794614,-2.930503
0.13706304,4.693356,-5.830956,1.8530942,4.861002,-1.5610195,-13.019669,-3.0789435
0.14655244,4.68107,-5.830956,1.8530942,4.861002,-1.5610195,-13.019669,-3.0789435
0.14655244,4.68107,-5.7318864,1.8222015,4.853545,-1.7190368,-13.249513,-3.2225955
0.15134524,4.6749163,-5.7318864,1.8222015,4.853545,-1.7190368,-13.249513,-3.2225955
0.15626557,4.6685634,-5.7318864,1.8222015,4.853545,-1.7190368,-13.249513,-3.2225955
0.16096057,4.662543,-5.617903,1.7923741,4.820522,-1.7142484,-13.642161,-3.3087866
0.16562147,4.6565323,-5.617903,1.7923741,4.820522,-1.7142484,-13.642161,-3.3087866
0.17026795,4.650576,-5.487941,1.7657425,4.7661934,-1.8100165,-13.8720045,-3.3375173
0.17491709,4.6445823,-5.487941,1.7657425,4.7661934,-1.8100165,-13.8720045,-3.3375173
0.17943367,4.638794,-5.3377385,1.743372,4.695886,-1.9201498,-14.231135,-3.4093432
0.18394813,4.6329737,-5.3377385,1.743372,4.695886,-1.9201498,-14.231135,-3.4093432
0.18838131,4.6272984,-5.166231,1.7263278,4.6127954,-2.0350714,-14.5088625,-3.442862
0.19277205,4.6216435,-5.166231,1.7263278,4.6127954,-2.0350714,-14.5088625,-3.442862
0.19708456,4.6161294,-4.976614,1.7092835,4.5137258,-2.1739352,-14.757859,-3.5003228
0.20136805,4.6106186,-4.976614,1.7092835,4.5137258,-2.1739352,-14.757859,-3.5003228
0.20552856,4.6053104,-4.766757,1.6879783,4.3997426,-2.3750482,-15.02601,-3.3901896
0.20967266,4.5999894,-4.766757,1.6879783,4.3997426,-2.3750482,-15.02601,-3.3901896
0.21368627,4.5948915,-4.53879,1.659216,4.2751064,-2.5953147,-15.241488,-3.2992098
0.21767107,4.589798,-4.53879,1.659216,4.2751064,-2.5953147,-15.241488,-3.2992098
0.22154427,4.5849066,-4.29591,1.6240623,4.1430135,-2.7102363,-15.47612,-3.2321723
0.22536968,4.5800433,-4.29591,1.6240623,4.1430135,-2.7102363,-15.47612,-3.2321723
0.22906311,4.5754204,-4.0402465,1.5814518,4.003464,-2.906561,-15.552734,-3.0454245
0.23275676,4.5707655,-4.0402465,1.5814518,4.003464,-2.906561,-15.552734,-3.0454245
0.23622423,4.5664597,-3.7749956,1.5292538,3.8575227,-2.9400797,-15.705963,-2.7006595
0.23969153,4.56213,-3.7749956,1.5292538,3.8575227,-2.9400797,-15.705963,-2.7006595
0.24299622,4.5581408,-3.4980268,1.4706643,3.7105162,-2.954445,-15.921441,-2.3750482
0.24629065,4.554154,-3.4980268,1.4706643,3.7105162,-2.954445,-15.921441,-2.3750482
0.24945639,4.5504913,-3.2104053,1.4088789,3.5571182,-3.0789435,-15.883134,-2.1930888
0.2526053,4.546838,-3.2104053,1.4088789,3.5571182,-3.0789435,-15.883134,-2.1930888
0.25563088,4.543486,-2.9174578,1.3417673,3.3930676,-2.920926,-15.792154,-1.934515
0.25864264,4.5401373,-2.9174578,1.3417673,3.3930676,-2.920926,-15.792154,-1.934515
0.26152942,4.5371194,-2.6223795,1.2746556,3.230082,-3.4572272,-15.634137,-1.9393034
0.26440188,4.534102,-2.6223795,1.2746556,3.230082,-3.4572272,-15.634137,-1.9393034
0.2671349,4.5313816,-2.3294318,1.191565,3.0585744,-2.8107927,-16.94616,-1.0726024
0.26985228,4.5286655,-2.3294318,1.191565,3.0585744,-2.8107927,-16.94616,-1.0726024
0.27244383,4.526278,-2.0311577,1.1052786,2.8817406,-3.6583402,-17.626112,-0.6799533
0.2750255,4.5238886,-2.0311577,1.1052786,2.8817406,-3.6583402,-17.626112,-0.6799533
0.2774871,4.521849,-1.7094479,1.0157963,2.7070372,-4.6830587,-17.592594,-0.7230489
0.27993923,4.5198083,-1.7094479,1.0157963,2.7070372,-4.6830587,-17.592594,-0.7230489
0.2822489,4.51814,-1.3728242,0.89329094,2.5302033,-4.831499,-17.410635,-0.6847417
0.28454572,4.5164733,-1.3728242,0.89329094,2.5302033,-4.831499,-17.410635,-0.6847417
0.28673917,4.5151825,-1.0340701,0.74948025,2.3608263,-5.6120086,-17.48725,-0.5650316
0.28891882,4.513894,-1.0340701,0.74948025,2.3608263,-5.6120086,-17.48725,-0.5650316
0.2909546,4.513003,-0.69212025,0.57584214,2.1914492,-5.2528787,-17.827227,-0.22984336
0.29299453,4.512107,-0.69212025,0.57584214,2.1914492,-5.2528787,-17.827227,-0.22984336
0.29488298,4.5116315,-0.33845246,0.37770292,2.017811,-4.745308,-18.693928,0.5602432
0.2967534,4.5111585,-0.33845246,0.37770292,2.017811,-4.745308,-18.693928,0.5602432
0.29851064,4.5111203,0.032259572,0.1838248,1.8388467,-5.023035,-19.096153,0.6607997
0.3002688,4.5110807,0.032259572,0.1838248,1.8388467,-5.023035,-19.096153,0.6607997
0.30188254,4.51151,0.42747268,-0.017510178,1.6439033,-5.6886234,-19.28769,0.7422025
0.30348754,4.5119367,0.42747268,-0.017510178,1.6439033,-5.6886234,-19.28769,0.7422025
0.30495122,4.5128694,0.84505635,-0.2476073,1.4329809,-6.229713,-19.507956,0.5602432
0.3064099,4.5137997,0.84505635,-0.2476073,1.4329809,-6.229713,-19.507956,0.5602432
0.3077003,4.5152655,1.2839453,-0.51072764,1.2114059,-6.1530986,-19.58457,0.4261679
0.30898848,4.5167303,1.2839453,-0.51072764,1.2114059,-6.1530986,-19.58457,0.4261679
0.310216,4.5189676,1.7356174,-0.79195744,0.97704774,-6.0285997,-19.55105,0.18195933
0.31120762,4.5207796,1.7356174,-0.79195744,0.97704774,-6.0285997,-19.55105,0.18195933
0.31212538,4.523368,2.196877,-1.0785136,0.73416746,-5.861006,-19.187132,-0.1436521
0.31303927,4.5259547,2.196877,-1.0785136,0.73416746,-5.861006,-19.187132,-0.1436521
0.31375507,4.529128,2.6602669,-1.3640045,0.48169976,-5.659893,-18.717869,-0.48841715
0.31446335,4.5322895,2.6602669,-1.3640045,0.48169976,-5.659893,-18.717869,-0.48841715
0.31496158,4.536041,3.123657,-1.6462995,0.21857944,-5.60722,-18.23424,-0.79487497
0.31545117,4.539778,3.123657,-1.6462995,0.21857944,-5.60722,-18.23424,-0.79487497
0.3157308,4.5440936,3.587047,-1.9232683,-0.05199773,-5.8322754,-17.659632,-1.2689269
0.3160008,4.5483923,3.587047,-1.9232683,-0.05199773,-5.8322754,-17.659632,-1.2689269
0.316029,4.5532894,4.047241,-2.1991718,-0.3342928,-5.626374,-17.00362,-1.5514427
0.31604642,4.5581665,4.047241,-2.1991718,-0.3342928,-5.626374,-17.00362,-1.5514427
0.3158113,4.5635996,4.4999785,-2.4708142,-0.6261753,-5.439626,-16.309301,-1.9153614
0.31556398,4.5690527,4.4999785,-2.4708142,-0.6261753,-5.439626,-16.309301,-1.9153614
0.31512836,4.574956,4.944194,-2.731804,-0.9223188,-5.2959743,-15.7586355,-2.1978772
0.31471786,4.5807915,4.944194,-2.731804,-0.9223188,-5.2959743,-15.7586355,-2.1978772
0.31389868,4.587102,5.378822,-2.9800107,-1.2227234,-5.1379566,-15.35641,-2.5139117
0.3130632,4.593382,5.378822,-2.9800107,-1.2227234,-5.1379566,-15.35641,-2.5139117
0.31192002,4.600155,5.804928,-3.2122383,-1.5263238,-4.9320555,-15.021221,-2.7150247
0.3107562,4.6069207,5.804928,-3.2122383,-1.5263238,-4.9320555,-15.021221,-2.7150247
0.30926663,4.614187,6.221446,-3.425291,-1.8320546,-4.582502,-14.733917,-2.9592333
0.3077539,4.6214437,6.221446,-3.425291,-1.8320546,-4.582502,-14.733917,-2.9592333
0.3059159,4.6291685,6.6305075,-3.6191692,-2.1420467,-4.357447,-14.5567465,-3.040636
0.30405146,4.636882,6.6305075,-3.6191692,-2.1420467,-4.357447,-14.5567465,-3.040636
0.301865,4.645037,7.026786,-3.7906768,-2.4488428,-4.2042184,-14.226347,-3.2273839
0.2996487,4.6531773,7.026786,-3.7906768,-2.4488428,-4.2042184,-14.226347,-3.2273839
0.29710656,4.6617336,7.409216,-3.9376833,-2.7535083,-4.060566,-13.771448,-3.490746
0.29444343,4.670561,7.409216,-3.9376833,-2.7535083,-4.060566,-13.771448,-3.490746
0.29159337,4.679347,7.7714057,-4.060189,-3.0453908,-3.9791632,-13.22557,-3.8355112
0.2884497,4.6888943,7.7714057,-4.060189,-3.0453908,-3.9791632,-13.22557,-3.8355112
0.28546125,4.697427,8.109095,-4.161389,-3.3234248,-3.964798,-12.6461735,-4.1946416
0.2822368,4.70651,8.109095,-4.161389,-3.3234248,-3.964798,-12.6461735,-4.1946416
0.27866888,4.716029,8.416956,-4.245545,-3.5876105,-3.9312792,-11.899182,-4.5154643
0.2750581,4.725531,8.416956,-4.245545,-3.5876105,-3.9312792,-11.899182,-4.5154643
0.2711628,4.735302,8.693925,-4.3179827,-3.835817,-3.9552212,-11.147403,-4.8123455
0.2672273,4.7450438,8.693925,-4.3179827,-3.835817,-3.9552212,-11.147403,-4.8123455
0.26303217,4.755008,8.941066,-4.3808336,-4.0637836,-4.1515455,-10.381259,-5.1666875
0.2587875,4.764962,8.941066,-4.3808336,-4.0637836,-4.1515455,-10.381259,-5.1666875
0.25430003,4.7750998,9.15625,-4.434097,-4.267249,-3.9360676,-9.481039,-5.3199162
0.24977116,4.785206,9.15625,-4.434097,-4.267249,-3.9360676,-9.481039,-5.3199162
0.24500442,4.795481,9.341605,-4.477772,-4.4462137,-3.107674,-8.623915,-5.2049947
0.24020132,4.8057127,9.341605,-4.477772,-4.4462137,-3.107674,-8.623915,-5.2049947
0.2352005,4.816065,9.495004,-4.500143,-4.600677,-2.7629087,-7.6470804,-4.999093
0.2301592,4.8263836,9.495004,-4.500143,-4.600677,-2.7629087,-7.6470804,-4.999093
0.22492607,4.836789,9.619639,-4.504404,-4.738096,-1.8004397,-6.9000893,-4.606444
0.21965368,4.847161,9.619639,-4.504404,-4.738096,-1.8004397,-6.9000893,-4.606444
0.21420914,4.8575864,9.7165785,-4.4852295,-4.858471,-0.8283938,-5.923255,-4.1802764
0.20872664,4.867978,9.7165785,-4.4852295,-4.858471,-0.8283938,-5.923255,-4.1802764
0.20310098,4.878382,9.777299,-4.435162,-4.9607363,-0.1388637,-4.8506527,-3.8259344
0.19743933,4.888753,9.777299,-4.435162,-4.9607363,-0.1388637,-4.8506527,-3.8259344
0.19164252,4.8990936,9.797539,-4.3573976,-5.0459576,1.043872,-3.5913026,-3.4284968
0.18581203,4.909403,9.797539,-4.3573976,-5.0459576,1.043872,-3.5913026,-3.4284968
0.1798737,4.919636,9.768777,-4.250871,-5.112004,2.1021092,-2.480393,-3.0933087
0.17390426,4.929839,9.768777,-4.250871,-5.112004,2.1021092,-2.480393,-3.0933087
0.167869,4.939912,9.681425,-4.114517,-5.161006,2.873042,-1.3359646,-3.0358477
0.16181138,4.949946,9.681425,-4.114517,-5.161006,2.873042,-1.3359646,-3.0358477
0.15571538,4.959831,9.532288,-3.9483361,-5.1940293,4.7500963,0.10055647,-2.705448
0.14959355,4.9696913,9.532288,-3.9483361,-5.1940293,4.7500963,0.10055647,-2.705448
0.14350617,4.979287,9.309648,-3.7352831,-5.197225,4.5441947,0.92416185,-2.3319526
0.13739668,4.988861,9.309648,-3.7352831,-5.197225,4.5441947,0.92416185,-2.3319526
0.1313994,4.998092,9.009243,-3.484946,-5.1684628,3.6391866,3.2225955,-2.743755
0.12537777,5.0073147,9.009243,-3.484946,-5.1684628,3.6391866,3.2225955,-2.743755
0.11945449,5.0161304,8.630009,-3.234609,-5.116265,7.6470804,3.1316159,-0.9720459
0.11350477,5.024949,8.630009,-3.234609,-5.116265,7.6470804,3.1316159,-0.9720459
0.10772569,5.033271,8.182598,-2.9278126,-5.03424,7.311892,2.2744915,0.2825158
0.10193011,5.041589,8.182598,-2.9278126,-5.03424,7.311892,2.2744915,0.2825158
0.09636339,5.0493813,7.694707,-2.550709,-4.91493,6.0238113,1.9967642,0.50757074
0.09078426,5.057173,7.694707,-2.550709,-4.91493,6.0238113,1.9967642,0.50757074
0.085458726,5.0644217,7.1887064,-2.200237,-4.779641,6.95755,3.1364043,0.7422025
0.080129504,5.071666,7.1887064,-2.200237,-4.779641,6.95755,3.1364043,0.7422025
0.07507676,5.078349,6.6486173,-1.8625482,-4.6198516,6.83784,4.3622355,0.91937345
0.07002279,5.0850306,6.6486173,-1.8625482,-4.6198516,6.83784,4.3622355,0.91937345
0.065280885,5.0911045,6.05633,-1.5216635,-4.424908,7.3406224,5.463568,1.4221559
0.060539655,5.097179,6.05633,-1.5216635,-4.424908,7.3406224,5.463568,1.4221559
0.056134105,5.1025963,5.407584,-1.1871705,-4.2033334,8.0684595,6.0764837,2.4133554
0.05173076,5.1080146,5.407584,-1.1871705,-4.2033334,8.0684595,6.0764837,2.4133554
0.047696758,5.112735,4.7151623,-0.8452207,-3.9529963,8.264784,6.5361705,3.2130187
0.04366597,5.1174583,4.7151623,-0.8452207,-3.9529963,8.264784,6.5361705,3.2130187
0.039983347,5.121505,3.9929128,-0.50114024,-3.6792233,8.528147,6.3685765,4.19943
0.032956086,5.129248,3.9929128,-0.50114024,-3.6792233,8.528147,6.3685765,4.19943
0.029441306,5.132816,3.2514887,-0.15919036,-3.3852103,8.259995,6.8569937,4.76925
0.02664073,5.1353445,2.499412,0.17636795,-3.0688267,8.1881695,6.8569937,5.4300494
0.02391857,5.1378093,2.499412,0.17636795,-3.0688267,8.1881695,6.8569937,5.4300494
0.02391857,5.1378093,2.499412,0.17636795,-3.0688267,8.1881695,6.8569937,5.4300494
0.02149305,5.1396384,1.742009,0.49701256,-2.732203,8.130709,6.8426285,6.009446
0.019191705,5.14138,1.742009,0.49701256,-2.732203,8.130709,6.8426285,6.009446
0.01731724,5.1423883,0.9878018,0.7995477,-2.3806658,8.106767,6.5696893,6.493075
0.015489522,5.143376,0.9878018,0.7995477,-2.3806658,8.106767,6.5696893,6.493075
0.01406191,5.1436486,0.23998614,1.0807775,-2.0142148,7.867347,6.0238113,6.9862804
0.011607292,5.144124,0.23998614,1.0807775,-2.0142148,7.867347,6.0238113,6.9862804
0.0113685,5.144015,-0.48865473,1.3353757,-1.6349807,7.2927384,5.2768207,7.216124
0.010361929,5.143556,-0.48865473,1.3353757,-1.6349807,7.2927384,5.2768207,7.216124
0.009816624,5.1424026,-1.1938598,1.550559,-1.2525507,6.7947445,4.285621,7.560889
0.009275114,5.141263,-1.1938598,1.550559,-1.2525507,6.7947445,4.285621,7.560889
0.009151987,5.1394463,-1.8639112,1.7263278,-0.86692506,6.373365,3.3087866,7.9822683
0.009024023,5.1376095,-1.8639112,1.7263278,-0.86692506,6.373365,3.3087866,7.9822683
0.009308229,5.1351805,-2.492417,1.8690732,-0.47597298,5.8562174,2.006341,8.365341
0.009588805,5.1327443,-2.492417,1.8690732,-0.47597298,5.8562174,2.006341,8.365341
0.010266022,5.1297226,-3.0772474,1.9830564,-0.08608619,5.6215854,0.50757074,8.839393
0.010937764,5.1267,-3.0772474,1.9830564,-0.08608619,5.6215854,0.50757074,8.839393
0.011996388,5.123155,-3.6045532,2.0757344,0.3038006,5.195418,-0.93852705,9.045294
0.013045744,5.119619,-3.6045532,2.0757344,0.3038006,5.195418,-0.93852705,9.045294
0.0144741805,5.1156006,-4.07327,2.1481724,0.68836105,4.855441,-2.3654714,9.313444
0.01589454,5.111584,-4.07327,2.1481724,0.68836105,4.855441,-2.3654714,9.313444
0.017676199,5.107159,-4.4780703,2.2014356,1.0643994,4.4963107,-3.620033,9.390059
0.019450916,5.1027308,-4.4780703,2.2014356,1.0643994,4.4963107,-3.620033,9.390059
0.021568242,5.0979567,-4.82002,2.2376547,1.4255241,4.0222588,-4.7740383,9.232041
0.023674112,5.0931883,-4.82002,2.2376547,1.4255241,4.0222588,-4.7740383,9.232041
0.026104625,5.088131,-5.1055107,2.2557642,1.7717351,3.4476504,-5.755661,9.02614
0.028528001,5.083069,-5.1055107,2.2557642,1.7717351,3.4476504,-5.755661,9.02614
0.031260177,5.077775,-5.339869,2.25896,2.1051629,2.719813,-6.5936313,8.724471
0.03398808,5.072471,-5.339869,2.25896,2.1051629,2.719813,-6.5936313,8.724471
0.036996305,5.066991,-5.528421,2.2483072,2.4215462,2.3080103,-7.3645644,8.39886
0.040003695,5.061495,-5.528421,2.2483072,2.4215462,2.3080103,-7.3645644,8.39886
0.043279443,5.055855,-5.6796885,2.2248714,2.7251468,1.8579005,-8.169016,7.9726915
0.046548605,5.0502105,-5.6796885,2.2248714,2.7251468,1.8579005,-8.169016,7.9726915
0.050071128,5.0444584,-5.795802,2.1886525,3.012768,1.2976574,-8.90643,7.5848308
0.053590965,5.0386963,-5.795802,2.1886525,3.012768,1.2976574,-8.90643,7.5848308
0.057344176,5.0328503,-5.883154,2.1364546,3.2801495,0.8523358,-9.514558,7.1490865
0.06108765,5.0270047,-5.883154,2.1364546,3.2801495,0.8523358,-9.514558,7.1490865
0.06504648,5.0211005,-5.940678,2.0714734,3.528356,0.5410896,-10.007763,6.742072
0.06899961,5.0151906,-5.940678,2.0714734,3.528356,0.5410896,-10.007763,6.742072
0.073141515,5.009256,-5.971571,1.9947743,3.7531269,0.25857377,-10.601525,6.5265937
0.07728223,5.0033092,-5.971571,1.9947743,3.7531269,0.25857377,-10.601525,6.5265937
0.081577025,4.997379,-5.9737015,1.9106185,3.951266,-0.047884032,-11.085154,6.0716953
0.08587106,4.991437,-5.9737015,1.9106185,3.951266,-0.047884032,-11.085154,6.0716953
0.09029854,4.985524,-5.944939,1.820071,4.119578,-0.1436521,-11.540052,5.793968
0.09471263,4.979617,-5.944939,1.820071,4.119578,-0.1436521,-11.540052,5.793968
0.0994302,4.9735117,-5.8863497,1.727393,4.2580624,-0.22984336,-11.9135475,5.473145
0.1038455,4.9677863,-5.8863497,1.727393,4.2580624,-0.22984336,-11.9135475,5.473145
0.10851472,4.961937,-5.7968674,1.6357802,4.3709803,-0.521936,-12.301409,4.9703627
0.11306533,4.956226,-5.7968674,1.6357802,4.3709803,-0.521936,-12.301409,4.9703627
0.117631085,4.9506855,-5.677558,1.546298,4.4519405,-0.866701,-12.674904,4.429273
0.12226745,4.945049,-5.677558,1.546298,4.4519405,-0.866701,-12.674904,4.429273
0.12691867,4.93957,-5.5305514,1.4536201,4.5052037,-1.1204864,-12.923901,3.9073372
0.1315853,4.934064,-5.5305514,1.4536201,4.5052037,-1.1204864,-12.923901,3.9073372
0.13620391,4.928729,-5.359044,1.3556157,4.5297046,-1.3024458,-13.249513,3.3518825
0.14086112,4.9233484,-5.359044,1.3556157,4.5297046,-1.3024458,-13.249513,3.3518825
0.14537017,4.9181576,-5.1672964,1.252285,4.5297046,-1.6376339,-13.584701,2.791639
0.14992046,4.9129286,-5.1672964,1.252285,4.5297046,-1.6376339,-13.584701,2.791639
0.15451804,4.9078474,-4.957439,1.1446934,4.5115952,-1.9201498,-13.862428,2.3415294
0.15909912,4.902762,-4.957439,1.1446934,4.5115952,-1.9201498,-13.862428,2.3415294
0.16367663,4.897897,-4.7337337,1.0339059,4.471115,-2.2457612,-14.231135,1.9967642
0.16825145,4.8930182,-4.7337337,1.0339059,4.471115,-2.2457612,-14.231135,1.9967642
0.1727661,4.888401,-4.49831,0.9209878,4.4157214,-2.60968,-14.647726,1.5562311
0.17727415,4.8837795,-4.49831,0.9209878,4.4157214,-2.60968,-14.647726,1.5562311
0.18171714,4.879402,-4.2543645,0.80806977,4.3475447,-2.8634653,-14.997279,1.1875241
0.18615517,4.875021,-4.2543645,0.80806977,4.3475447,-2.8634653,-14.997279,1.1875241
0.19049859,4.8709097,-4.002962,0.69728225,4.2665844,-3.1316159,-15.1936035,0.7182605
0.1948299,4.866803,-4.002962,0.69728225,4.2665844,-3.1316159,-15.1936035,0.7182605
0.19905958,4.8629646,-3.7451682,0.58969057,4.1781673,-3.2369606,-15.428236,0.33039984
0.20328629,4.8591228,-3.7451682,0.58969057,4.1781673,-3.2369606,-15.428236,0.33039984
0.20739408,4.8555603,-3.4809825,0.4842294,4.0780325,-3.2465374,-15.610195,-0.04309563
0.21149516,4.8519983,-3.4809825,0.4842294,4.0780325,-3.2465374,-15.610195,-0.04309563
0.2154744,4.848718,-3.2104053,0.3851598,3.9683104,-3.2273839,-15.705963,-0.32561144
0.21945135,4.845436,-3.2104053,0.3851598,3.9683104,-3.2273839,-15.705963,-0.32561144
0.22329573,4.842443,-2.9355671,0.29354703,3.8468702,-3.2609026,-15.763424,-0.6464345
0.22714202,4.839445,-2.9355671,0.29354703,3.8468702,-3.2609026,-15.763424,-0.6464345
0.23083155,4.836749,-2.6532722,0.20726062,3.709451,-3.2130187,-15.710752,-0.8762778
0.2345267,4.8340464,-2.6532722,0.20726062,3.709451,-3.2130187,-15.710752,-0.8762778
0.23805553,4.831644,-2.3688464,0.12843105,3.5571182,-3.1651347,-15.672444,-1.0486604
0.24157935,4.829243,-2.3688464,0.12843105,3.5571182,-3.1651347,-15.672444,-1.0486604
0.2449345,4.8271394,-2.0812252,0.05599307,3.3930676,-3.1268275,-15.547946,-1.1875241
0.24830166,4.8250275,-2.0812252,0.05599307,3.3930676,-3.1268275,-15.547946,-1.1875241
0.25145856,4.8232307,-1.7904079,-0.012183856,3.214103,-3.0550013,-15.490485,-1.340753
0.25462377,4.8214293,-1.7904079,-0.012183856,3.214103,-3.0550013,-15.490485,-1.340753
0.2575955,4.819927,-1.500656,-0.07396919,3.0234208,-3.122039,-15.284584,-1.388637
0.260566,4.818426,-1.500656,-0.07396919,3.0234208,-3.122039,-15.284584,-1.388637
0.2633339,4.8172183,-1.2162304,-0.12829769,2.8242164,-3.2225955,-15.1696615,-1.508347
0.26610628,4.816009,-1.2162304,-0.12829769,2.8242164,-3.2225955,-15.1696615,-1.508347
0.26866424,4.815089,-0.9360658,-0.17836511,2.6164896,-3.2800562,-15.006856,-1.5945383
0.27122384,4.8141694,-0.9360658,-0.17836511,2.6164896,-3.2800562,-15.006856,-1.5945383
0.2735652,4.8135295,-0.6633581,-0.22736728,2.3981106,-3.3327289,-14.954184,-1.6663644
0.27590322,4.812891,-0.6633581,-0.22736728,2.3981106,-3.3327289,-14.954184,-1.6663644
0.27801377,4.8125253,-0.39917254,-0.2774347,2.174405,-3.3854012,-14.93503,-1.5849615
0.28012338,4.8121605,-0.39917254,-0.2774347,2.174405,-3.3854012,-14.93503,-1.5849615
0.28199846,4.812059,-0.14457433,-0.32750213,1.941112,-3.4715924,-14.863204,-1.5945383
0.28387067,4.811958,-0.14457433,-0.32750213,1.941112,-3.4715924,-14.863204,-1.5945383
0.28549835,4.812114,0.10150176,-0.38183063,1.6992971,-3.4476504,-14.757859,-1.4652514
0.2871236,4.8122697,0.10150176,-0.38183063,1.6992971,-3.4476504,-14.757859,-1.4652514
0.28850314,4.8126726,0.33799046,-0.4361591,1.4564167,-3.5673606,-14.709975,-1.2545617
0.28988177,4.813077,0.33799046,-0.4361591,1.4564167,-3.5673606,-14.709975,-1.2545617
0.29101512,4.8137207,0.5670223,-0.49474865,1.2124711,-3.715801,-14.566323,-1.0007763
0.2921476,4.814366,0.5670223,-0.49474865,1.2124711,-3.715801,-14.566323,-1.0007763
0.29302296,4.8152475,0.79072785,-0.5586645,0.9642646,-3.6343982,-14.4370365,-0.93373865
0.29389754,4.8161297,0.79072785,-0.5586645,0.9642646,-3.6343982,-14.4370365,-0.93373865
0.2945186,4.8172445,1.0091071,-0.6268414,0.7171232,-3.643975,-14.240712,-0.770933
0.29513878,4.8183594,1.0091071,-0.6268414,0.7171232,-3.643975,-14.240712,-0.770933
0.29549786,4.819701,1.2210947,-0.69608366,0.46998185,-3.4811692,-14.073117,-0.63206923
0.2958559,4.8210435,1.2210947,-0.69608366,0.46998185,-3.4811692,-14.073117,-0.63206923
0.295954,4.822611,1.4309518,-0.7685216,0.22390577,-3.2609026,-13.843274,-0.641646
0.296051,4.824177,1.4309518,-0.7685216,0.22390577,-3.2609026,-13.843274,-0.641646
0.29588956,4.825967,1.637613,-0.8409596,-0.022170324,-3.1172507,-13.55597,-0.5410896
0.29572737,4.827753,1.637613,-0.8409596,-0.022170324,-3.1172507,-13.55597,-0.5410896
0.29532313,4.82975,1.8368175,-0.91126704,-0.26718116,-3.169923,-13.101071,-0.7422025
0.29491773,4.8317466,1.8368175,-0.91126704,-0.26718116,-3.169923,-13.101071,-0.7422025
0.29425877,4.8339443,2.0264347,-0.97944397,-0.50793093,-2.992752,-12.722788,-0.62249243
0.29359213,4.836163,2.0264347,-0.97944397,-0.50793093,-2.992752,-12.722788,-0.62249243
0.2926918,4.8385334,2.205399,-1.0454904,-0.7390933,-2.9496565,-12.794614,-0.34955344
0.2917805,4.840928,2.205399,-1.0454904,-0.7390933,-2.9496565,-12.794614,-0.34955344
0.29064435,4.8434806,2.3758414,-1.1072757,-0.9606683,-2.944868,-12.823344,-0.1340753
0.28949916,4.8460484,2.3758414,-1.1072757,-0.9606683,-2.944868,-12.823344,-0.1340753
0.288161,4.8487825,2.5441532,-1.1648,-1.1683949,-3.289633,-12.454638,0.062249243
0.28681904,4.8515205,2.5441532,-1.1648,-1.1683949,-3.289633,-12.454638,0.062249243
0.2853325,4.8544083,2.7060733,-1.2191285,-1.3558815,-3.9025488,-12.109872,-0.04309563
0.28383327,4.857314,2.7060733,-1.2191285,-1.3558815,-3.9025488,-12.109872,-0.04309563
0.28213805,4.86036,2.8573408,-1.2851748,-1.5295196,-3.4045548,-11.774684,0.033518825
0.2804308,4.863421,2.8573408,-1.2851748,-1.5295196,-3.4045548,-11.774684,0.033518825
0.27854118,4.866609,2.9926295,-1.3533518,-1.6839828,-2.882619,-11.45865,0.22026655
0.27663895,4.8698115,2.9926295,-1.3533518,-1.6839828,-2.882619,-11.45865,0.22026655
0.27456367,4.87313,3.1162002,-1.4098108,-1.8245978,-2.2744915,-11.219229,0.32561144
0.27246863,4.8764734,3.1162002,-1.4098108,-1.8245978,-2.2744915,-11.219229,0.32561144
0.27024594,4.8799047,3.2269876,-1.4524214,-1.9524295,-2.1883004,-11.238382,0.47884035
0.26802015,4.883334,3.2269876,-1.4524214,-1.9524295,-2.1883004,-11.238382,0.47884035
0.2657058,4.886855,3.332449,-1.4758573,-2.0642822,-2.4612393,-10.912771,0.320823
0.2633806,4.8903847,3.332449,-1.4758573,-2.0642822,-2.4612393,-10.912771,0.320823
0.26093093,4.894047,3.4293878,-1.4960972,-2.1612213,-2.360683,-10.342952,0.23463176
0.25853038,4.897627,3.4293878,-1.4960972,-2.1612213,-2.360683,-10.342952,0.23463176
0.25600386,4.9012976,3.5135438,-1.5184678,-2.244312,-1.685518,-10.103531,0.30166942
0.2534529,4.904995,3.5135438,-1.5184678,-2.244312,-1.685518,-10.103531,0.30166942
0.25081137,4.908758,3.5849166,-1.531251,-2.3135543,-1.13964,-9.524135,0.33039984
0.24816567,4.9125185,3.5849166,-1.531251,-2.3135543,-1.13964,-9.524135,0.33039984
0.24546404,4.916317,3.6403103,-1.5216635,-2.3710785,-0.866701,-8.872911,0.21068975
0.2427582,4.9201126,3.6403103,-1.5216635,-2.3710785,-0.866701,-8.872911,0.21068975
0.2400063,4.92393,3.6743987,-1.4960972,-2.4147544,-0.56982,-8.0445175,0.11971009
0.23725265,4.927742,3.6743987,-1.4960972,-2.4147544,-0.56982,-8.0445175,0.11971009
0.23446685,4.9315457,3.6797252,-1.4598782,-2.4435165,-0.019153614,-7.120356,-0.16280572
0.23167913,4.9353437,3.6797252,-1.4598782,-2.4435165,-0.019153614,-7.120356,-0.16280572
0.23167913,4.9353437,3.6797252,-1.4598782,-2.4435165,-0.019153614,-7.120356,-0.16280572
0.23167913,4.9353437,3.6797252,-1.4598782,-2.4435165,-0.019153614,-7.120356,-0.16280572
0.22039756,4.950018,3.5849166,-1.3437644,-2.4722786,1.9967642,-5.0374002,-0.51235914
0.2163225,4.9551363,3.47839,-1.2489558,-2.4797354,2.9975405,-4.0940847,-0.6895301
0.2163225,4.9551363,3.47839,-1.2489558,-2.4797354,2.9975405,-4.0940847,-0.6895301
0.21371734,4.958278,3.3271224,-1.1264504,-2.489323,4.003105,-2.8874073,-0.61291564
0.21188863,4.9604807,3.3271224,-1.1264504,-2.489323,4.003105,-2.8874073,-0.61291564
0.20782854,4.9653616,3.3271224,-1.1264504,-2.489323,4.003105,-2.8874073,-0.61291564
0.20622346,4.967189,3.1300485,-0.96879137,-2.4999754,4.3526587,-2.0350714,-0.36870706
0.20336905,4.970434,3.1300485,-0.96879137,-2.4999754,4.3526587,-2.0350714,-0.36870706
0.20336905,4.970434,3.1300485,-0.96879137,-2.4999754,4.3526587,-2.0350714,-0.36870706
0.1959898,4.978199,2.6123302,-0.5831656,-2.4989102,4.711789,-0.7134721,0.39743748
0.19530086,4.9788694,2.6123302,-0.5831656,-2.4989102,4.711789,-0.7134721,0.39743748
0.19230966,4.9817786,2.6123302,-0.5831656,-2.4989102,4.711789,-0.7134721,0.39743748
0.1899984,4.9837885,2.3002076,-0.37117797,-2.4839964,5.0661306,-0.17717093,0.6991069
0.18742333,4.986028,2.3002076,-0.37117797,-2.4839964,5.0661306,-0.17717093,0.6991069
0.18493348,4.9879017,1.9582577,-0.14001559,-2.4531038,5.2289367,0.19632454,0.89543146
0.18244193,4.9897776,1.9582577,-0.14001559,-2.4531038,5.2289367,0.19632454,0.89543146
0.1800794,4.991242,1.5864804,0.10392997,-2.401971,5.243302,0.48841715,1.1348516
0.17770591,4.992715,1.5864804,0.10392997,-2.401971,5.243302,0.48841715,1.1348516
0.17417641,4.9943614,1.190202,0.35107133,-2.3274026,5.363012,0.47884035,1.283292
0.17325044,4.9947944,1.190202,0.35107133,-2.3274026,5.363012,0.47884035,1.283292
0.1707619,4.995505,0.7715531,0.5971474,-2.2347245,5.33907,0.35434186,1.541866
0.16912131,4.9959755,0.7715531,0.5971474,-2.2347245,5.33907,0.35434186,1.541866
0.16722603,4.9961076,0.33799046,0.8378972,-2.1239371,5.1762643,0.02873042,1.9249382
0.16533831,4.9962425,0.33799046,0.8378972,-2.1239371,5.1762643,0.02873042,1.9249382
0.1636414,4.9959116,-0.106224805,1.0701249,-1.9939748,4.7500963,-0.40222588,2.3319526
0.16194053,4.9955826,-0.106224805,1.0701249,-1.9939748,4.7500963,-0.40222588,2.3319526
0.16043863,4.9947863,-0.55470115,1.2853082,-1.845903,4.3287168,-0.94810385,2.801216
0.15894134,4.9939957,-0.55470115,1.2853082,-1.845903,4.3287168,-0.94810385,2.801216
0.15766095,4.9927506,-0.99785113,1.4802517,-1.6775913,3.7828386,-1.6280571,3.2704794
0.15637824,4.9915085,-0.99785113,1.4802517,-1.6775913,3.7828386,-1.6280571,3.2704794
0.15531613,4.989802,-1.432479,1.6570855,-1.4847784,3.323152,-2.2744915,3.572149
0.15423276,4.9880686,-1.432479,1.6570855,-1.4847784,3.323152,-2.2744915,3.572149
0.15339378,4.9858665,-1.8543237,1.8179405,-1.269595,2.8107927,-2.9496565,3.6870706
0.15263556,4.9838877,-1.8543237,1.8179405,-1.269595,2.8107927,-2.9496565,3.6870706
0.1520931,4.981383,-2.2601895,1.9596206,-1.0341716,2.0350714,-3.691859,3.691859
0.15154284,4.9788666,-2.2601895,1.9596206,-1.0341716,2.0350714,-3.691859,3.691859
0.15126519,4.975956,-2.647946,2.0746691,-0.7774428,1.4939818,-4.4340615,3.643975
0.15098183,4.973049,-2.647946,2.0746691,-0.7774428,1.4939818,-4.4340615,3.643975
0.15097594,4.9697685,-3.011201,2.1673472,-0.50580037,1.115698,-5.2049947,3.53863
0.15096338,4.966501,-3.011201,2.1673472,-0.50580037,1.115698,-5.2049947,3.53863
0.15121941,4.9628806,-3.349955,2.2365894,-0.2267011,1.1013328,-5.90889,3.3518825
0.15146789,4.959263,-3.349955,2.2365894,-0.2267011,1.1013328,-5.90889,3.3518825
0.15199558,4.9553337,-3.6620777,2.2887874,0.0609203,0.8523358,-6.6175733,3.2752678
0.15251501,4.9514074,-3.6620777,2.2887874,0.0609203,0.8523358,-6.6175733,3.2752678
0.15331215,4.947196,-3.9422421,2.3282022,0.34747645,0.50278234,-7.129933,3.1028855
0.15410045,4.9429865,-3.9422421,2.3282022,0.34747645,0.50278234,-7.129933,3.1028855
0.15514947,4.938534,-4.1893835,2.3527033,0.6265757,0.61770403,-7.5800424,3.145981
0.15619005,4.9340787,-4.1893835,2.3527033,0.6265757,0.61770403,-7.5800424,3.145981
0.15748033,4.9293957,-4.404567,2.3686821,0.89608765,0.80924016,-7.7667904,3.0214825
0.15876062,4.924714,-4.404567,2.3686821,0.89608765,0.80924016,-7.7667904,3.0214825
0.16028626,4.9198375,-4.594184,2.3846612,1.1560122,0.7565677,-7.905654,2.896984
0.16179992,4.9149675,-4.594184,2.3846612,1.1560122,0.7565677,-7.905654,2.896984
0.16355436,4.909917,-4.7646265,2.4059665,1.4042188,0.7517793,-7.991845,2.896984
0.16529958,4.904862,-4.7646265,2.4059665,1.4042188,0.7517793,-7.991845,2.896984
0.16726533,4.89966,-4.9126983,2.4294024,1.638577,0.80924016,-8.0924015,2.873042
0.16922157,4.894454,-4.9126983,2.4294024,1.638577,0.80924016,-8.0924015,2.873042
0.17137367,4.889104,-5.0437255,2.4549687,1.8537604,0.8714894,-8.264784,2.6288335
0.1735096,4.8837647,-5.0437255,2.4549687,1.8537604,0.8714894,-8.264784,2.6288335
0.17584546,4.878273,-5.158774,2.4826655,2.049769,0.5793968,-8.331821,2.480393
0.17816184,4.872797,-5.158774,2.4826655,2.049769,0.5793968,-8.331821,2.480393
0.18063961,4.867206,-5.2567782,2.5071666,2.2244725,0.33518824,-8.403648,2.207454
0.18310224,4.86162,-5.2567782,2.5071666,2.2244725,0.33518824,-8.403648,2.207454
0.18571155,4.8559303,-5.3377385,2.5263414,2.3810663,0.2633622,-8.580819,2.087744
0.18831816,4.850216,-5.3377385,2.5263414,2.3810663,0.2633622,-8.580819,2.087744
0.19103639,4.8444424,-5.4016542,2.5423203,2.5163548,0.18195933,-8.676587,1.9297266
0.19374377,4.838661,-5.4016542,2.5423203,2.5163548,0.18195933,-8.676587,1.9297266
0.19653413,4.8328276,-5.449591,2.5540383,2.6303382,0.23463176,-8.839393,1.6663644
0.19933005,4.8269515,-5.449591,2.5540383,2.6303382,0.23463176,-8.839393,1.6663644
0.20219006,4.8210435,-5.484745,2.565756,2.7240815,0.23942018,-9.040505,1.4748282
0.20504399,4.8151164,-5.484745,2.565756,2.7240815,0.23942018,-9.040505,1.4748282
0.2079508,4.809166,-5.5039196,2.5796046,2.7975848,0.076614454,-9.165004,1.340753
0.21084851,4.8032017,-5.5039196,2.5796046,2.7975848,0.076614454,-9.165004,1.340753
0.21378623,4.797202,-5.5145726,2.589192,2.8519132,-0.25378537,-9.433155,1.1540052
0.21670875,4.7912006,-5.5145726,2.589192,2.8519132,-0.25378537,-9.433155,1.1540052
0.21964288,4.785195,-5.5145726,2.593453,2.8913279,-0.56982,-9.562442,0.91937345
0.22258191,4.7791457,-5.5145726,2.593453,2.8913279,-0.56982,-9.562442,0.91937345
0.22551888,4.773115,-5.508181,2.589192,2.9168942,-0.82360536,-9.830592,0.8331822
0.22844926,4.767066,-5.508181,2.589192,2.9168942,-0.82360536,-9.830592,0.8331822
0.23136926,4.761011,-5.4953976,2.577474,2.9296775,-1.091756,-10.041282,0.61291564
0.2342703,4.754963,-5.4953976,2.577474,2.9296775,-1.091756,-10.041282,0.61291564
0.23715676,4.7489176,-5.4740925,2.5582993,2.9328732,-1.1731589,-10.280702,0.45968673
0.24004668,4.7428303,-5.4740925,2.5582993,2.9328732,-1.1731589,-10.280702,0.45968673
0.2428996,4.7367973,-5.4463954,2.5306025,2.9296775,-1.3790601,-10.635044,0.35913026
0.2457474,4.730741,-5.4463954,2.5306025,2.9296775,-1.3790601,-10.635044,0.35913026
0.24856317,4.7247314,-5.408046,2.4965138,2.919025,-1.5993267,-10.989386,0.2873042
0.25137165,4.718706,-5.408046,2.4965138,2.919025,-1.5993267,-10.989386,0.2873042
0.25422108,4.7125626,-5.3601093,2.4549687,2.8966544,-1.7621324,-11.324574,0.24420857
0.25690395,4.7067494,-5.3601093,2.4549687,2.8966544,-1.7621324,-11.324574,0.24420857
0.25960562,4.7008395,-5.3015194,2.4091623,2.867892,-2.0254946,-11.674128,0.05267244
0.26229835,4.6949205,-5.3015194,2.4091623,2.867892,-2.0254946,-11.674128,0.05267244
0.2649577,4.689078,-5.231212,2.3580296,2.834869,-2.183512,-12.0332575,0.10055647
0.2676045,4.6832356,-5.231212,2.3580296,2.834869,-2.183512,-12.0332575,0.10055647
0.27020398,4.677477,-5.1481214,2.2962441,2.7975848,-2.3463178,-12.330139,0
0.27279395,4.671712,-5.1481214,2.2962441,2.7975848,-2.3463178,-12.330139,0
0.27532995,4.6660624,-5.0511823,2.2291327,2.7539089,-2.5378537,-12.65575,-0.07182605
0.2778595,4.6604004,-5.0511823,2.2291327,2.7539089,-2.5378537,-12.65575,-0.07182605
0.2803472,4.654868,-4.9425254,2.1566947,2.7091677,-2.6144683,-12.943054,0.023942016
0.2828279,4.6493225,-4.9425254,2.1566947,2.7091677,-2.6144683,-12.943054,0.023942016
0.2852431,4.643936,-4.8210855,2.0757344,2.658035,-2.6862943,-13.28782,0.01436521
0.29004022,4.633245,-4.6847315,1.9894481,2.6026413,-2.9161377,-13.488933,0.1436521
0.29004022,4.633245,-4.6847315,1.9894481,2.6026413,-2.9161377,-13.488933,0.1436521
0.29252976,4.627699,-4.6847315,1.9894481,2.6026413,-2.9161377,-13.488933,0.1436521
0.2947319,4.62281,-4.533464,1.89677,2.540856,-2.8060043,-13.804967,0.21068975
0.2969732,4.617806,-4.533464,1.89677,2.540856,-2.8060043,-13.804967,0.21068975
0.29919827,4.6129084,-4.3704786,1.7977004,2.471614,-3.3279405,-13.737929,-0.07182605
0.3014074,4.6080184,-4.3704786,1.7977004,2.471614,-3.3279405,-13.737929,-0.07182605
0.30356815,4.6032796,-4.1968403,1.691174,2.4023716,-3.3518825,-13.9438305,-0.1340753
0.30608997,4.5977163,-4.1968403,1.691174,2.4023716,-3.3518825,-13.9438305,-0.1340753
0.30812356,4.593269,-4.0136147,1.5707991,2.323542,-3.074155,-14.772224,0.25857377
0.30983016,4.5895195,-4.0136147,1.5707991,2.323542,-3.074155,-14.772224,0.25857377
0.3117967,4.5852604,-3.8133452,1.4472284,2.2372556,-3.145981,-15.279796,0.22505496
0.3137706,4.580965,-3.8133452,1.4472284,2.2372556,-3.145981,-15.279796,0.22505496
0.31565613,4.57696,-3.5885744,1.320462,2.146708,-3.3901896,-15.227123,0.02873042
0.31754532,4.572929,-3.5885744,1.320462,2.146708,-3.3901896,-15.227123,0.02873042
0.31936496,4.569197,-3.3435636,1.1851734,2.0561607,-3.86903,-15.586253,-0.076614454
0.32117924,4.5654607,-3.3435636,1.1851734,2.0561607,-3.86903,-15.586253,-0.076614454
0.32294753,4.562051,-3.083639,1.0317754,1.9624174,-4.88896,-15.801731,-0.272939
0.3247212,4.558615,-3.083639,1.0317754,1.9624174,-4.88896,-15.801731,-0.272939
0.3263898,4.555531,-2.8034744,0.84428877,1.8580215,-4.261679,-15.634137,-0.12449849
0.32805482,4.5524426,-2.8034744,0.84428877,1.8580215,-4.261679,-15.634137,-0.12449849
0.32961744,4.5497227,-2.5105267,0.63869274,1.7451034,-3.6727054,-15.600618,0.0047884034
0.33118707,4.546983,-2.5105267,0.63869274,1.7451034,-3.6727054,-15.600618,0.0047884034
0.332685,4.544626,-2.210122,0.44694513,1.6279243,-4.3287168,-15.605407,-0.038307227
0.33411825,4.5423656,-2.210122,0.44694513,1.6279243,-4.3287168,-15.605407,-0.038307227
0.3354898,4.540383,-1.8979996,0.25093648,1.4968967,-3.3135753,-15.7825775,0.076614454
0.3369235,4.538307,-1.8979996,0.25093648,1.4968967,-3.3135753,-15.7825775,0.076614454
0.33817756,4.536722,-1.5709634,0.060254127,1.3509556,-3.083732,-16.338032,0.24899697
0.33942494,4.535144,-1.5709634,0.060254127,1.3509556,-3.083732,-16.338032,0.24899697
0.340565,4.533973,-1.2258178,-0.109122925,1.2028838,-3.4332852,-16.280571,0.047884032
0.34171626,4.53279,-1.2258178,-0.109122925,1.2028838,-3.4332852,-16.280571,0.047884032
0.3427466,4.532049,-0.86575836,-0.27210838,1.0473552,-4.189853,-15.978902,-0.33997664
0.34377864,4.5313063,-0.86575836,-0.27210838,1.0473552,-4.189853,-15.978902,-0.33997664
0.3446915,4.5310054,-0.50037265,-0.44681177,0.88969606,-4.572925,-15.749059,-0.6464345
0.3456095,4.5307026,-0.50037265,-0.44681177,0.88969606,-4.572925,-15.749059,-0.6464345
0.34638694,4.530841,-0.13498695,-0.63642883,0.7277759,-4.3239284,-15.619772,-0.8475474
0.34716362,4.5309796,-0.13498695,-0.63642883,0.7277759,-4.3239284,-15.619772,-0.8475474
0.3477979,4.531558,0.23039876,-0.83030695,0.56265986,-3.8498764,-15.792154,-0.7517793
0.34843192,4.532137,0.23039876,-0.83030695,0.56265986,-3.8498764,-15.792154,-0.7517793
0.34892341,4.5331593,0.6011108,-1.015663,0.3932828,-3.6391866,-15.753847,-0.80445176
0.3494154,4.5341864,0.6011108,-1.015663,0.3932828,-3.6391866,-15.753847,-0.80445176
0.34975526,4.535656,0.9760839,-1.1882358,0.21964471,-3.7732618,-15.298949,-1.2354081
0.35009238,4.537126,0.9760839,-1.1882358,0.21964471,-3.7732618,-15.298949,-1.2354081
0.350278,4.539035,1.3521222,-1.3533518,0.0460066,-4.1611223,-14.839262,-1.6711528
0.3504605,4.5409536,1.3521222,-1.3533518,0.0460066,-4.1611223,-14.839262,-1.6711528
0.35047457,4.5432854,1.7153774,-1.5205983,-0.12976204,-4.271256,-14.5567465,-2.006341
0.35048264,4.5456142,1.7153774,-1.5205983,-0.12976204,-4.271256,-14.5567465,-2.006341
0.35032955,4.548334,2.06798,-1.6899754,-0.30233487,-4.0462008,-14.312538,-2.1404164
0.35016915,4.5510654,2.06798,-1.6899754,-0.30233487,-4.0462008,-14.312538,-2.1404164
0.34977657,4.554946,2.4077992,-1.8529608,-0.47490773,-3.787627,-14.178462,-2.2457612
0.34949556,4.557661,2.4077992,-1.8529608,-0.47490773,-3.787627,-14.178462,-2.2457612
0.3490518,4.5608964,2.7369661,-2.003163,-0.6517416,-3.6104562,-14.044387,-2.3463178
0.3490518,4.5608964,2.7369661,-2.003163,-0.6517416,-3.6104562,-14.044387,-2.3463178
0.3490518,4.5608964,2.7369661,-2.003163,-0.6517416,-3.6104562,-14.044387,-2.3463178
0.34707707,4.5744524,3.3676026,-2.2503045,-0.995822,-3.5482068,-13.661315,-2.7102363
0.34667817,4.576555,3.3676026,-2.2503045,-0.995822,-3.5482068,-13.661315,-2.7102363
0.34610718,4.5795436,3.3676026,-2.2503045,-0.995822,-3.5482068,-13.661315,-2.7102363
0.34527296,4.5835304,3.6626809,-2.3515046,-1.1620033,-3.6296098,-13.512875,-2.882619
0.3443539,4.587883,3.6626809,-2.3515046,-1.1620033,-3.6296098,-13.512875,-2.882619
0.343272,4.5926385,3.9428453,-2.4399216,-1.3207277,-3.6774938,-13.378799,-3.064578
0.34217334,4.5974207,3.9428453,-2.4399216,-1.3207277,-3.6774938,-13.378799,-3.064578
0.3409408,4.6024632,4.207031,-2.521947,-1.4698647,-3.845088,-13.412318,-3.0885203
0.33969048,4.6075287,4.207031,-2.521947,-1.4698647,-3.845088,-13.412318,-3.0885203
0.33830068,4.6128416,4.454172,-2.598646,-1.6094143,-3.6583402,-13.220781,-3.122039
0.33689353,4.6181684,4.454172,-2.598646,-1.6094143,-3.6583402,-13.220781,-3.122039
0.33535293,4.6237226,4.687465,-2.6700187,-1.7415072,-3.4093432,-12.86644,-3.1555579
0.3337807,4.6293344,4.687465,-2.6700187,-1.7415072,-3.4093432,-12.86644,-3.1555579
0.33210075,4.6350965,4.9037137,-2.7275429,-1.8682736,-3.323152,-12.378023,-3.217807
0.33039808,4.6408787,4.9037137,-2.7275429,-1.8682736,-3.323152,-12.378023,-3.217807
0.32857797,4.646853,5.1007876,-2.7744145,-1.9843874,-3.3614593,-11.971008,-3.1316159
0.32673526,4.6528416,5.1007876,-2.7744145,-1.9843874,-3.3614593,-11.971008,-3.1316159
0.32478616,4.6590023,5.2808175,-2.8138294,-2.0930445,-3.5434184,-11.611878,-3.0597897
0.32281876,4.6651583,5.2808175,-2.8138294,-2.0930445,-3.5434184,-11.611878,-3.0597897
0.320759,4.6714473,5.444868,-2.8468525,-2.1931794,-3.7541082,-11.295844,-3.1028855
0.31866753,4.6777697,5.444868,-2.8468525,-2.1931794,-3.7541082,-11.295844,-3.1028855
0.3164763,4.6842012,5.5918746,-2.8809412,-2.2815962,-3.4380736,-10.989386,-3.145981
0.31425428,4.6906595,5.5918746,-2.8809412,-2.2815962,-3.4380736,-10.989386,-3.145981
0.31194282,4.697208,5.7229023,-2.9097033,-2.361491,-3.1842883,-10.745177,-3.1747115
0.30959943,4.7037826,5.7229023,-2.9097033,-2.361491,-3.1842883,-10.745177,-3.1747115
0.3071795,4.7104216,5.8336897,-2.9278126,-2.433929,-3.107674,-10.55843,-3.2034419
0.30472666,4.7170877,5.8336897,-2.9278126,-2.433929,-3.107674,-10.55843,-3.2034419
0.30220085,4.723815,5.9263678,-2.9352696,-2.4957144,-3.040636,-10.371682,-3.169923
0.29966432,4.730509,5.9263678,-2.9352696,-2.4957144,-3.040636,-10.371682,-3.169923
0.29704455,4.737301,5.9998713,-2.9288778,-2.5479124,-3.0550013,-10.13705,-3.098097
0.2944143,4.7440586,5.9998713,-2.9288778,-2.5479124,-3.0550013,-10.13705,-3.098097
0.29171753,4.750864,6.0541997,-2.9107685,-2.5873272,-2.834735,-9.868899,-3.0597897
0.28901628,4.7576227,6.0541997,-2.9107685,-2.5873272,-2.834735,-9.868899,-3.0597897
0.28623164,4.7644773,6.092549,-2.8788104,-2.615024,-2.528277,-9.533711,-2.930503
0.2834711,4.7712164,6.092549,-2.8788104,-2.615024,-2.528277,-9.533711,-2.930503
0.28065333,4.777981,6.111724,-2.831939,-2.6363294,-2.1643584,-9.131485,-2.8299465
0.277816,4.784738,6.111724,-2.831939,-2.6363294,-2.1643584,-9.131485,-2.8299465
0.27494356,4.791468,6.1138544,-2.7754798,-2.651243,-1.8195933,-8.791509,-2.7629087
0.2720553,4.7981844,6.1138544,-2.7754798,-2.651243,-1.8195933,-8.791509,-2.7629087
0.26914787,4.80484,6.098941,-2.7083683,-2.6618958,-1.5897499,-8.341399,-2.5761611
0.2662137,4.81151,6.098941,-2.7083683,-2.6618958,-1.5897499,-8.341399,-2.5761611
0.2632671,4.8181,6.0659175,-2.6306038,-2.667222,-1.3263878,-7.85777,-2.360683
0.26030642,4.8246765,6.0659175,-2.6306038,-2.667222,-1.3263878,-7.85777,-2.360683
0.25732973,4.8311653,6.011589,-2.542187,-2.6661568,-0.90021986,-7.297527,-2.0015526
0.2543402,4.8376417,6.011589,-2.542187,-2.6661568,-0.90021986,-7.297527,-2.0015526
0.25133392,4.8440084,5.93489,-2.4431174,-2.6618958,-0.35434186,-6.7133417,-1.6280571
0.24527846,4.8565927,5.834755,-2.3270035,-2.6533735,0.48362875,-5.9998693,-1.4030021
0.24527846,4.8565927,5.834755,-2.3270035,-2.6533735,0.48362875,-5.9998693,-1.4030021
0.2422212,4.862829,5.834755,-2.3270035,-2.6533735,0.48362875,-5.9998693,-1.4030021
0.23912911,4.868985,5.704793,-2.187454,-2.6405904,0.93852705,-5.104438,-1.3551182
0.2361068,4.874974,5.704793,-2.187454,-2.6405904,0.93852705,-5.104438,-1.3551182
0.23311973,4.8807,5.5396767,-2.0329905,-2.631003,1.8243817,-4.285621,-1.1109096
0.23007266,4.886516,5.5396767,-2.0329905,-2.631003,1.8243817,-4.285621,-1.1109096
0.22703329,4.892112,5.3330154,-1.8625482,-2.6246114,2.9257145,-3.3423057,-0.9528923
0.22398646,4.8976994,5.3330154,-1.8625482,-2.6246114,2.9257145,-3.3423057,-0.9528923
0.2209731,4.9030056,5.0837436,-1.6665395,-2.6214156,3.6056678,-2.4277205,-0.7134721
0.21795358,4.908304,5.0837436,-1.6665395,-2.6214156,3.6056678,-2.4277205,-0.7134721
0.21497992,4.9132776,4.7939916,-1.447095,-2.6203504,4.036624,-1.6711528,-0.34955344
0.21200156,4.9182453,4.7939916,-1.447095,-2.6203504,4.036624,-1.6711528,-0.34955344
0.20907645,4.922845,4.4658904,-1.2095411,-2.6203504,4.209007,-1.2114661,0.12449849
0.20615084,4.927436,4.4658904,-1.2095411,-2.6203504,4.209007,-1.2114661,0.12449849
0.20328069,4.931637,4.1058307,-0.9666608,-2.6182199,4.285621,-0.90021986,0.7230489
0.20041147,4.93583,4.1058307,-0.9666608,-2.6182199,4.285621,-0.90021986,0.7230489
0.19761562,4.9395986,3.7212703,-0.7205847,-2.6086323,4.1611223,-0.4357447,1.163582
0.19481617,4.943369,3.7212703,-0.7205847,-2.6086323,4.1611223,-0.4357447,1.163582
0.19210528,4.9466867,3.3143394,-0.4787697,-2.5894578,4.4340615,-0.18674773,1.7860745
0.18939178,4.9500065,3.3143394,-0.4787697,-2.5894578,4.4340615,-0.18674773,1.7860745
0.18678133,4.952862,2.885038,-0.24015045,-2.5511081,3.964798,0.023942016,2.1883004
0.18417177,4.9557166,2.885038,-0.24015045,-2.5511081,3.964798,0.023942016,2.1883004
0.18167938,4.9580994,2.442953,-0.015379649,-2.493584,3.821146,-0.10534488,2.777274
0.17918561,4.9604845,2.442953,-0.015379649,-2.493584,3.821146,-0.10534488,2.777274
0.17681533,4.9623895,1.9944767,0.18595533,-2.4222112,4.213795,-0.2873042,3.3183637
0.17444871,4.964294,1.9944767,0.18595533,-2.4222112,4.213795,-0.2873042,3.3183637
0.172216,4.965724,1.5438699,0.3787682,-2.3327289,4.285621,-0.5650316,3.6343982
0.16998452,4.9671564,1.5438699,0.3787682,-2.3327289,4.285621,-0.5650316,3.6343982
0.16791457,4.9681177,1.0943283,0.56838524,-2.219811,3.8977604,-0.79487497,3.8642416
0.16584355,4.969083,1.0943283,0.56838524,-2.219811,3.8977604,-0.79487497,3.8642416
0.16395411,4.9695835,0.64691716,0.7441539,-2.0855875,3.4380736,-1.0773908,4.10845
0.16206716,4.9700856,0.64691716,0.7441539,-2.0855875,3.4380736,-1.0773908,4.10845
0.16037124,4.9701343,0.20483242,0.89861727,-1.930059,3.1316159,-1.3982137,4.3287168
0.1586754,4.9701853,0.20483242,0.89861727,-1.930059,3.1316159,-1.3982137,4.3287168
0.15718935,4.969795,-0.22979549,1.0296447,-1.7510946,2.7102363,-1.8722657,4.5441947
0.15570283,4.969407,-0.22979549,1.0296447,-1.7510946,2.7102363,-1.8722657,4.5441947
0.1544331,4.968589,-0.65377074,1.1372365,-1.5529554,2.7341783,-2.1212628,4.7405195
0.15316355,4.967774,-0.65377074,1.1372365,-1.5529554,2.7341783,-2.1212628,4.7405195
0.1521172,4.966542,-1.0670934,1.2256534,-1.3409678,2.9879637,-2.4468741,4.9655743
0.1510691,4.965311,-1.0670934,1.2256534,-1.3409678,2.9879637,-2.4468741,4.9655743
0.15025873,4.9636803,-1.4676328,1.3066136,-1.1140664,3.040636,-2.566584,4.999093
0.14944434,4.9620476,-1.4676328,1.3066136,-1.1140664,3.040636,-2.566584,4.999093
0.14886694,4.960019,-1.8617806,1.3854431,-0.882904,3.41892,-3.0885203,5.243302
0.14828657,4.9579916,-1.8617806,1.3854431,-0.882904,3.41892,-3.0885203,5.243302
0.14796124,4.9555855,-2.2431452,1.4685338,-0.64321953,2.633622,-3.4380736,5.171476
0.1476326,4.953182,-2.2431452,1.4685338,-0.64321953,2.633622,-3.4380736,5.171476
0.14756355,4.9504128,-2.6064005,1.5441675,-0.39607814,1.8435353,-3.466804,4.711789
0.14749032,4.9476466,-2.6064005,1.5441675,-0.39607814,1.8435353,-3.466804,4.711789
0.1476717,4.944531,-2.9579377,1.6016918,-0.14680627,1.4652514,-3.4572272,4.429273
0.14784837,4.941415,-2.9579377,1.6016918,-0.14680627,1.4652514,-3.4572272,4.429273
0.14826857,4.937955,-3.3020182,1.6400414,0.10566141,1.5610195,-3.4380736,4.0557775
0.14868364,4.934494,-3.3020182,1.6400414,0.10566141,1.5610195,-3.4380736,4.0557775
0.14935265,4.9306974,-3.6407723,1.670934,0.36771646,1.5370775,-3.5673606,3.86903
0.15001608,4.9268985,-3.6407723,1.670934,0.36771646,1.5370775,-3.5673606,3.86903
0.1509218,4.922772,-3.969939,1.6922393,0.6265757,1.6807296,-4.0557775,3.6774938
0.15182158,4.918643,-3.969939,1.6922393,0.6265757,1.6807296,-4.0557775,3.6774938
0.15294717,4.914198,-4.2852573,1.7050225,0.8705213,2.087744,-4.3622355,3.643975
0.15406662,4.90975,-4.2852573,1.7050225,0.8705213,2.087744,-4.3622355,3.643975
0.15540335,4.9049997,-4.585662,1.7220666,1.102749,2.2409728,-4.687847,3.490746
0.15673353,4.900247,-4.585662,1.7220666,1.102749,2.2409728,-4.687847,3.490746
0.15827332,4.8952065,-4.871153,1.7497636,1.3221934,2.078167,-5.0996494,3.3087866
0.15980628,4.8901625,-4.871153,1.7497636,1.3221934,2.078167,-5.0996494,3.3087866
0.16153973,4.884846,-5.14173,1.7763952,1.5309852,1.8722657,-5.5737014,3.2225955
0.16326432,4.8795314,-5.14173,1.7763952,1.5309852,1.8722657,-5.5737014,3.2225955
0.16518183,4.8739514,-5.392067,1.799831,1.7301897,1.7190368,-6.009446,3.107674
0.16708793,4.8683786,-5.392067,1.799831,1.7301897,1.7190368,-6.009446,3.107674
0.1691753,4.8625617,-5.6200337,1.820071,1.9187415,1.5179238,-6.5840545,2.9783869
0.17125261,4.856746,-5.6200337,1.820071,1.9187415,1.5179238,-6.5840545,2.9783869
0.17349146,4.8507295,-5.8213687,1.8339194,2.0966406,1.1683705,-7.043741,2.6623523
0.1757244,4.844702,-5.8213687,1.8339194,2.0966406,1.1683705,-7.043741,2.6623523
0.17810884,4.838491,-5.9896803,1.840311,2.2638872,1.0869676,-7.5848308,2.4420857
0.18048018,4.8322864,-5.9896803,1.840311,2.2638872,1.0869676,-7.5848308,2.4420857
0.18299317,4.8259225,-6.128165,1.8392458,2.4194157,0.9768343,-8.049306,2.2026656
0.18549275,4.8195653,-6.128165,1.8392458,2.4194157,0.9768343,-8.049306,2.2026656
0.18811774,4.813085,-6.234691,1.8317889,2.5621612,0.7565677,-8.576031,1.9249382
0.19073686,4.8065925,-6.234691,1.8317889,2.5621612,0.7565677,-8.576031,1.9249382
0.19346762,4.8000264,-6.3071294,1.8211362,2.6931887,0.49320555,-9.002198,1.7190368
0.19618987,4.793454,-6.3071294,1.8211362,2.6931887,0.49320555,-9.002198,1.7190368
0.1990105,4.786825,-6.3497396,1.8072878,2.8124983,0.37349546,-9.370906,1.4269443
0.20182246,4.7801905,-6.3497396,1.8072878,2.8124983,0.37349546,-9.370906,1.4269443
0.2047248,4.7735233,-6.3646536,1.7923741,2.923286,0.15801731,-9.701305,1.1013328
0.20762397,4.7668376,-6.3646536,1.7923741,2.923286,0.15801731,-9.701305,1.1013328
0.21059218,4.7601633,-6.3561316,1.77533,3.024486,0.009576807,-9.940725,0.7086837
0.21355678,4.7534695,-6.3561316,1.77533,3.024486,0.009576807,-9.940725,0.7086837
0.21659529,4.746791,-6.327369,1.7550899,3.1129029,-0.22026655,-10.232818,0.50757074
0.21962087,4.7401137,-6.327369,1.7550899,3.1129029,-0.22026655,-10.232818,0.50757074
0.22271653,4.7334557,-6.281563,1.7284583,3.1906674,-0.48362875,-10.582372,0.30645782
0.22582039,4.7267528,-6.281563,1.7284583,3.1906674,-0.48362875,-10.582372,0.30645782
0.22893952,4.7201915,-6.220843,1.6996962,3.26204,-0.7469909,-10.907983,0.1340753
0.23207943,4.7135596,-6.220843,1.6996962,3.26204,-0.7469909,-10.907983,0.1340753
0.23526521,4.7070007,-6.1484046,1.670934,3.3259559,-1.067814,-11.300632,-0.038307227
0.23843698,4.700444,-6.1484046,1.670934,3.3259559,-1.067814,-11.300632,-0.038307227
0.24165438,4.6939607,-6.0610533,1.6379108,3.3824148,-1.316811,-11.7268,-0.23463176
0.24486072,4.6874733,-6.0610533,1.6379108,3.3824148,-1.316811,-11.7268,-0.23463176
0.2481133,4.681057,-5.9609184,1.6016918,3.4335475,-1.5753847,-12.052411,-0.51235914
0.25134692,4.674651,-5.9609184,1.6016918,3.4335475,-1.5753847,-12.052411,-0.51235914
0.25461566,4.668349,-5.851196,1.5590812,3.4772234,-1.757344,-12.430696,-0.6464345
0.2578759,4.6620364,-5.851196,1.5590812,3.4772234,-1.757344,-12.430696,-0.6464345
0.2625503,4.6532054,-5.729756,1.5143402,3.5091813,-1.9488802,-12.847286,-0.8283938
0.26456153,4.649391,-5.729756,1.5143402,3.5091813,-1.9488802,-12.847286,-0.8283938
0.26849464,4.642145,-5.597663,1.4642727,3.5336823,-2.1691468,-13.297397,-0.81881696
0.27441224,4.6313868,-5.4517217,1.4078137,3.5485961,-2.3750482,-13.656527,-0.8619126
0.27441224,4.6313868,-5.4517217,1.4078137,3.5485961,-2.3750482,-13.656527,-0.8619126
0.27441224,4.6313868,-5.4517217,1.4078137,3.5485961,-2.3750482,-13.656527,-0.8619126
0.27441224,4.6313868,-5.4517217,1.4078137,3.5485961,-2.3750482,-13.656527,-0.8619126
0.2865618,4.610919,-5.12149,1.2831777,3.5507267,-2.7006595,-14.140155,-0.79966336
0.28829572,4.6079884,-5.12149,1.2831777,3.5507267,-2.7006595,-14.140155,-0.79966336
0.29411048,4.5983114,-4.936134,1.2181966,3.5390089,-2.906561,-14.350845,-0.8714894
0.29411048,4.5983114,-4.936134,1.2181966,3.5390089,-2.906561,-14.350845,-0.8714894
0.29759982,4.5925736,-4.936134,1.2181966,3.5390089,-2.906561,-14.350845,-0.8714894
0.30061853,4.587757,-4.7369294,1.1489544,3.515573,-2.9783869,-14.45619,-1.0486604
0.30374226,4.582758,-4.7369294,1.1489544,3.515573,-2.9783869,-14.45619,-1.0486604
0.30693924,4.5778027,-4.5270724,1.0765164,3.4804192,-2.9783869,-14.561535,-1.1587936
0.31012806,4.5728445,-4.5270724,1.0765164,3.4804192,-2.9783869,-14.561535,-1.1587936
0.31326094,4.568118,-4.309758,0.9987521,3.431417,-3.2992098,-14.250289,-1.4748282
0.31639618,4.5633755,-4.309758,0.9987521,3.431417,-3.2992098,-14.250289,-1.4748282
0.31952947,4.5587764,-4.090314,0.9209878,3.3728275,-3.41892,-14.087482,-1.6759412
0.32253954,4.554348,-4.090314,0.9209878,3.3728275,-3.41892,-14.087482,-1.6759412
0.3255448,4.550088,-3.8698041,0.83044034,3.2971938,-2.777274,-14.494497,-1.3551182
0.3285429,4.5458255,-3.8698041,0.83044034,3.2971938,-2.777274,-14.494497,-1.3551182
0.3314773,4.541807,-3.6407723,0.7473497,3.2087767,-2.408567,-15.289372,-1.0534488
0.33439595,4.5377984,-3.6407723,0.7473497,3.2087767,-2.408567,-15.289372,-1.0534488
0.3372682,4.5340486,-3.3968267,0.6823686,3.1150334,-4.027047,-14.987702,-1.5562311
0.3401166,4.530318,-3.3968267,0.6823686,3.1150334,-4.027047,-14.987702,-1.5562311
0.34293523,4.5268574,-3.1432939,0.60460424,3.0159638,-4.88896,-14.513651,-2.0733786
0.34573328,4.5234065,-3.1432939,0.60460424,3.0159638,-4.88896,-14.513651,-2.0733786
0.34841236,4.5202255,-2.886565,0.4842294,2.9051764,-4.3047748,-14.346057,-1.9680338
0.35108885,4.517039,-2.886565,0.4842294,2.9051764,-4.3047748,-14.346057,-1.9680338
0.35364938,4.514154,-2.6298363,0.35000607,2.7858667,-4.0222588,-14.432248,-2.0398598
0.35620067,4.5112734,-2.6298363,0.35000607,2.7858667,-4.0222588,-14.432248,-2.0398598
0.3586592,4.5086856,-2.374173,0.21471748,2.6527088,-4.213795,-14.446613,-2.1978772
0.36111414,4.5060964,-2.374173,0.21471748,2.6527088,-4.213795,-14.446613,-2.1978772
0.3634345,4.5038233,-2.1185093,0.08155942,2.5025065,-3.3183637,-14.915876,-1.8291701
0.36572832,4.5015717,-2.1185093,0.08155942,2.5025065,-3.3183637,-14.915876,-1.8291701
0.36792165,4.4996133,-1.8564543,-0.036684938,2.3373904,-3.6487634,-15.509639,-1.8148049
0.37014726,4.4976225,-1.8564543,-0.036684938,2.3373904,-3.6487634,-15.509639,-1.8148049
0.37218544,4.495991,-1.5784203,-0.14108086,2.158426,-3.8259344,-15.519216,-1.9536686
0.37421525,4.494364,-1.5784203,-0.14108086,2.158426,-3.8259344,-15.519216,-1.9536686
0.3761042,4.4930778,-1.2876031,-0.24441151,1.9709395,-4.548983,-15.322891,-2.2505496
0.37798727,4.4917936,-1.2876031,-0.24441151,1.9709395,-4.548983,-15.322891,-2.2505496
0.37969565,4.490862,-0.9882638,-0.3583948,1.7749308,-4.6112323,-15.241488,-2.480393
0.3814073,4.4899263,-0.9882638,-0.3583948,1.7749308,-4.6112323,-15.241488,-2.480393
0.38294947,4.489347,-0.68572867,-0.48303074,1.5672042,-4.19943,-15.1936035,-2.4612393
0.38445508,4.488781,-0.68572867,-0.48303074,1.5672042,-4.19943,-15.1936035,-2.4612393
0.38580793,4.4885693,-0.3789325,-0.6044709,1.3498904,-3.8786068,-15.140931,-2.5474305
0.38711163,4.488365,-0.3789325,-0.6044709,1.3498904,-3.8786068,-15.140931,-2.5474305
0.3882278,4.4885154,-0.07000581,-0.71099734,1.1229889,-3.821146,-14.800955,-2.7485435
0.38936064,4.488668,-0.07000581,-0.71099734,1.1229889,-3.821146,-14.800955,-2.7485435
0.39026678,4.4891644,0.23359455,-0.8047406,0.89182657,-3.9839516,-14.4130945,-2.954445
0.3911769,4.4896636,0.23359455,-0.8047406,0.89182657,-3.9839516,-14.4130945,-2.954445
0.39188012,4.4904714,0.5286728,-0.89102703,0.66385996,-4.343082,-13.8241205,-3.2848446
0.39258566,4.4912825,0.5286728,-0.89102703,0.66385996,-4.343082,-13.8241205,-3.2848446
0.3931005,4.492397,0.81096786,-0.97944397,0.4326976,-4.1611223,-13.330915,-3.5865142
0.39361504,4.493512,0.81096786,-0.97944397,0.4326976,-4.1611223,-13.330915,-3.5865142
0.3939188,4.494949,1.0783492,-1.067861,0.19727415,-3.6296098,-12.909535,-3.667917
0.3942218,4.496386,1.0783492,-1.067861,0.19727415,-3.6296098,-12.909535,-3.667917
0.3943036,4.4981303,1.330817,-1.1456252,-0.04241035,-3.2369606,-12.588713,-3.643975
0.39438415,4.499874,1.330817,-1.1456252,-0.04241035,-3.2369606,-12.588713,-3.643975
0.39424637,4.5018945,1.5705014,-1.2063453,-0.28529066,-3.1316159,-12.301409,-3.8163576
0.39410725,4.503912,1.5705014,-1.2063453,-0.28529066,-3.1316159,-12.301409,-3.8163576
0.3937424,4.506192,1.8005986,-1.2553475,-0.5292362,-3.0550013,-12.095507,-3.9025488
0.39337537,4.5084724,1.8005986,-1.2553475,-0.5292362,-3.0550013,-12.095507,-3.9025488
0.39278245,4.511001,2.0200431,-1.293697,-0.7721165,-3.098097,-11.87524,-3.9600096
0.39218777,4.5135245,2.0200431,-1.293697,-0.7721165,-3.098097,-11.87524,-3.9600096
0.3913705,4.516283,2.2288349,-1.3245896,-1.0107358,-3.1747115,-11.650186,-4.036624
0.39055046,4.519038,2.2288349,-1.3245896,-1.0107358,-3.1747115,-11.650186,-4.036624
0.3895148,4.522015,2.4291046,-1.3501561,-1.2387023,-3.1986535,-11.3964,-4.0653543
0.38847604,4.524987,2.4291046,-1.3501561,-1.2387023,-3.1986535,-11.3964,-4.0653543
0.38723087,4.528169,2.6187217,-1.3725265,-1.4538858,-3.169923,-11.180922,-4.1276035
0.38598216,4.531346,2.6187217,-1.3725265,-1.4538858,-3.169923,-11.180922,-4.1276035
0.38453823,4.534718,2.7987514,-1.3906361,-1.6541555,-3.169923,-11.099519,-4.1706996
0.383086,4.5380955,2.7987514,-1.3906361,-1.6541555,-3.169923,-11.099519,-4.1706996
0.38145974,4.541636,2.970259,-1.4034193,-1.8363158,-3.0358477,-10.94629,-4.1706996
0.37984696,4.5451317,2.970259,-1.4034193,-1.8363158,-3.0358477,-10.94629,-4.1706996
0.37804586,4.5488486,3.1311138,-1.4119414,-2.0003664,-2.9879637,-10.831368,-4.2185836
0.3762147,4.5526104,3.1311138,-1.4119414,-2.0003664,-2.9879637,-10.831368,-4.2185836
0.37426144,4.556468,3.2813163,-1.4162024,-2.147373,-2.8921957,-10.67814,-4.1659107
0.37231117,4.5603023,3.2813163,-1.4162024,-2.147373,-2.8921957,-10.67814,-4.1659107
0.37021554,4.564305,3.4229963,-1.4162024,-2.2773352,-2.9017725,-10.529699,-4.1515455
0.3681104,4.5683074,3.4229963,-1.4162024,-2.2773352,-2.9017725,-10.529699,-4.1515455
0.36589727,4.572424,3.5550892,-1.4151372,-2.3913186,-3.0071173,-10.400413,-3.8977604
0.36368102,4.5765285,3.5550892,-1.4151372,-2.3913186,-3.0071173,-10.400413,-3.8977604
0.3613668,4.580759,3.6775944,-1.4130067,-2.4850616,-3.2609026,-10.390836,-3.5338416
0.3590496,4.5849767,3.6775944,-1.4130067,-2.4850616,-3.2609026,-10.390836,-3.5338416
0.35665023,4.5893025,3.792643,-1.4151372,-2.5596302,-3.1842883,-10.366894,-3.347094
0.3542433,4.5936236,3.792643,-1.4151372,-2.5596302,-3.1842883,-10.366894,-3.347094
0.3517705,4.598049,3.9002347,-1.4193982,-2.6118283,-3.0502129,-10.443508,-3.217807
0.34928983,4.6024704,3.9002347,-1.4193982,-2.6118283,-3.0502129,-10.443508,-3.217807
0.34677032,4.6069784,4.001435,-1.4236592,-2.646982,-3.0693667,-10.55843,-3.0358477
0.3442481,4.611473,4.001435,-1.4236592,-2.646982,-3.0693667,-10.55843,-3.0358477
0.34169537,4.616066,4.0973086,-1.4289856,-2.667222,-3.1411927,-10.606314,-2.858677
0.3391375,4.62065,4.0973086,-1.4289856,-2.667222,-3.1411927,-10.606314,-2.858677
0.33658493,4.6253157,4.1889215,-1.4353771,-2.6704178,-3.4237084,-10.606314,-2.753332
0.33402684,4.6299734,4.1889215,-1.4353771,-2.6704178,-3.4237084,-10.606314,-2.753332
0.33147728,4.634715,4.2773385,-1.4492257,-2.659765,-3.5242648,-10.668563,-2.4995465
0.32892254,4.639447,4.2773385,-1.4492257,-2.659765,-3.5242648,-10.668563,-2.4995465
0.32637295,4.6442633,4.3614945,-1.4694656,-2.6373947,-3.3566709,-10.702082,-2.2457612
0.3238183,4.6490703,4.3614945,-1.4694656,-2.6373947,-3.3566709,-10.702082,-2.2457612
0.32128528,4.6539607,4.444585,-1.4971625,-2.6011755,-3.2225955,-10.721235,-2.0829554
0.31874704,4.658843,4.444585,-1.4971625,-2.6011755,-3.2225955,-10.721235,-2.0829554
0.316238,4.66381,4.5276756,-1.5291204,-2.558565,-3.1316159,-10.740389,-1.8722657
0.31370133,4.6688128,4.5276756,-1.5291204,-2.558565,-3.1316159,-10.740389,-1.8722657
0.31111127,4.6740646,4.613962,-1.5632089,-2.5127587,-2.930503,-10.769119,-1.6950948
0.30862623,4.6790843,4.613962,-1.5632089,-2.5127587,-2.930503,-10.769119,-1.6950948
0.3062243,4.6840672,4.699183,-1.5951668,-2.465887,-2.7102363,-10.764331,-1.4796166
0.30378622,4.689107,4.699183,-1.5951668,-2.465887,-2.7102363,-10.764331,-1.4796166
0.3013325,4.6943164,4.783339,-1.62819,-2.4190154,-2.5330653,-10.70687,-1.2258313
0.29887235,4.6995206,4.783339,-1.62819,-2.4190154,-2.5330653,-10.70687,-1.2258313
0.2964345,4.7048206,4.8653646,-1.6569521,-2.368948,-2.384625,-10.658986,-0.9864111
0.29399797,4.7100987,4.8653646,-1.6569521,-2.368948,-2.384625,-10.658986,-0.9864111
0.29158175,4.715472,4.9463243,-1.6825185,-2.321011,-2.2170308,-10.481815,-0.7613561
0.28916213,4.720834,4.9463243,-1.6825185,-2.321011,-2.2170308,-10.481815,-0.7613561
0.28676072,4.726288,5.025154,-1.7038238,-2.2773352,-2.1499932,-10.405201,-0.5315128
0.28437302,4.7316914,5.025154,-1.7038238,-2.2773352,-2.1499932,-10.405201,-0.5315128
0.28199324,4.7372084,5.0997224,-1.7219334,-2.2347245,-2.0207062,-10.304645,-0.3878607
0.27959555,4.7427454,5.0997224,-1.7219334,-2.2347245,-2.0207062,-10.304645,-0.3878607
0.27723014,4.7483296,5.168965,-1.7389776,-2.1953099,-1.9201498,-10.151415,-0.23463176
0.2748752,4.7538676,5.168965,-1.7389776,-2.1953099,-1.9201498,-10.151415,-0.23463176
0.2725242,4.759506,5.233946,-1.7560217,-2.1612213,-1.6663644,-9.983821,-0.21547815
0.27015942,4.765155,5.233946,-1.7560217,-2.1612213,-1.6663644,-9.983821,-0.21547815
0.26781178,4.770843,5.2925353,-1.7720008,-2.1335244,-1.3982137,-9.801862,-0.090979666
0.2654588,4.776519,5.2925353,-1.7720008,-2.1335244,-1.3982137,-9.801862,-0.090979666
0.263111,4.7822504,5.343668,-1.7826533,-2.1100886,-1.1061212,-9.624691,-0.0047884034
0.26075932,4.7879653,5.343668,-1.7826533,-2.1100886,-1.1061212,-9.624691,-0.0047884034
0.25837708,4.7937956,5.3862786,-1.7879797,-2.0941098,-0.7613561,-9.394848,0.17238252
0.25601622,4.799545,5.3862786,-1.7879797,-2.0941098,-0.7613561,-9.394848,0.17238252
0.25365454,4.805336,5.4224977,-1.784784,-2.0823917,-0.2633622,-9.193734,0.56982
0.25127697,4.811134,5.4224977,-1.784784,-2.0823917,-0.2633622,-9.193734,0.56982
0.248894,4.8169665,5.4501944,-1.7698702,-2.0770655,-0.14844051,-8.762778,0.7613561
0.24649963,4.822794,5.4501944,-1.7698702,-2.0770655,-0.14844051,-8.762778,0.7613561
0.24410243,4.8286476,5.468304,-1.7421733,-2.0770655,-0.009576807,-8.470686,1.1013328
0.24169557,4.834491,5.468304,-1.7421733,-2.0770655,-0.009576807,-8.470686,1.1013328
0.23928402,4.8403397,5.4736304,-1.7102154,-2.083457,0.5602432,-8.09719,1.4173675
0.23686305,4.846179,5.4736304,-1.7102154,-2.083457,0.5602432,-8.09719,1.4173675
0.23443697,4.852007,5.4651084,-1.66867,-2.095175,1.067814,-7.7189064,1.8243817
0.23200187,4.857826,5.4651084,-1.66867,-2.095175,1.067814,-7.7189064,1.8243817
0.2295593,4.8636065,5.440607,-1.6100805,-2.1100886,1.5466543,-7.2065473,2.0973208
0.22710834,4.8693795,5.440607,-1.6100805,-2.1100886,1.5466543,-7.2065473,2.0973208
0.22465345,4.875092,5.3979964,-1.5344467,-2.127133,1.9632454,-6.7612257,2.4612393
0.22219081,4.8807983,5.3979964,-1.5344467,-2.127133,1.9632454,-6.7612257,2.4612393
0.21971917,4.886412,5.3330154,-1.442834,-2.1484382,2.5378537,-6.229713,2.6144683
0.21724081,4.8920197,5.3330154,-1.442834,-2.1484382,2.5378537,-6.229713,2.6144683
0.21475393,4.8975096,5.2445984,-1.3405687,-2.1740046,3.2225955,-5.631162,2.8107927
0.2122613,4.9029946,5.2445984,-1.3405687,-2.1740046,3.2225955,-5.631162,2.8107927
0.20975809,4.9083285,5.133811,-1.2265854,-2.212354,3.8833952,-5.267244,3.1794999
0.2072377,4.913684,5.133811,-1.2265854,-2.212354,3.8833952,-5.267244,3.1794999
0.2047054,4.9188566,5.001718,-1.0934273,-2.2592256,4.8745947,-4.711789,3.4763808
0.20217207,4.924019,5.001718,-1.0934273,-2.2592256,4.8745947,-4.711789,3.4763808
0.20217207,4.924019,4.8376675,-0.9368334,-2.309293,4.1611223,-4.309563,3.6583402
0.20217207,4.924019,4.8376675,-0.9368334,-2.309293,4.1611223,-4.309563,3.6583402
0.19337891,4.940316,4.638463,-0.7717174,-2.3604257,3.8355112,-3.7493198,3.7301662
0.19337891,4.940316,4.638463,-0.7717174,-2.3604257,3.8355112,-3.7493198,3.7301662
0.19337891,4.940316,4.638463,-0.7717174,-2.3604257,3.8355112,-3.7493198,3.7301662
0.18490005,4.955829,4.1569633,-0.46492124,-2.4349942,4.122815,-3.0071173,4.4675803
0.18163474,4.961191,4.1569633,-0.46492124,-2.4349942,4.122815,-3.0071173,4.4675803
0.18163474,4.961191,4.1569633,-0.46492124,-2.4349942,4.122815,-3.0071173,4.4675803
0.17906997,4.9651403,3.8821254,-0.30939263,-2.4531038,3.9552212,-2.7006595,4.6591167
0.17665756,4.968855,3.8821254,-0.30939263,-2.4531038,3.9552212,-2.7006595,4.6591167
0.1741805,4.972434,3.591308,-0.15599456,-2.4477775,3.572149,-2.480393,4.8027687
0.17170979,4.9760056,3.591308,-0.15599456,-2.4477775,3.572149,-2.480393,4.8027687
0.16931956,4.9792376,3.2877078,-0.012183856,-2.4232764,3.1364043,-2.4277205,4.912902
0.16690704,4.982503,3.2877078,-0.012183856,-2.4232764,3.1364043,-2.4277205,4.912902
0.16458358,4.985422,2.9734547,0.10819103,-2.3806658,2.9735985,-2.681506,5.104438
0.16227368,4.988328,2.9734547,0.10819103,-2.3806658,2.9735985,-2.681506,5.104438
0.160022,4.990935,2.657071,0.20299956,-2.3231416,3.2082303,-2.6192567,5.3342814
0.15777023,4.9935455,2.657071,0.20299956,-2.3231416,3.2082303,-2.6192567,5.3342814
0.15563884,4.995791,2.3374918,0.27863333,-2.252834,3.7253778,-2.432509,5.4300494
0.15349866,4.998049,2.3374918,0.27863333,-2.252834,3.7253778,-2.432509,5.4300494
0.1514555,4.999984,2.0136514,0.35320187,-2.1708088,3.6774938,-2.4851813,5.645528
0.1494141,5.001921,2.0136514,0.35320187,-2.1708088,3.6774938,-2.4851813,5.645528
0.14748408,5.0035257,1.68555,0.4267051,-2.0770655,3.691859,-2.9400797,5.8466406
0.1455556,5.005132,1.68555,0.4267051,-2.0770655,3.691859,-2.9400797,5.8466406
0.1437435,5.0064144,1.3638401,0.48529464,-1.9790611,3.6343982,-2.3702598,5.913678
0.14193276,5.007699,1.3638401,0.48529464,-1.9790611,3.6343982,-2.3702598,5.913678
0.1402372,5.008655,1.041065,0.5449495,-1.8736,4.4915223,-2.4660277,6.373365
0.13854259,5.009613,1.041065,0.5449495,-1.8736,4.4915223,-2.4660277,6.373365
0.13698992,5.010243,0.7129636,0.6184527,-1.7521598,4.003105,-2.801216,6.5457473
0.13543333,5.0108767,0.7129636,0.6184527,-1.7521598,4.003105,-2.801216,6.5457473
0.13405183,5.011182,0.3880579,0.7047391,-1.6104796,3.1890767,-2.8634653,6.2488666
0.1326652,5.01149,0.3880579,0.7047391,-1.6104796,3.1890767,-2.8634653,6.2488666
0.13143988,5.011475,0.06954383,0.77185076,-1.4602773,3.5242648,-2.7389667,5.971139
0.13021332,5.0114617,0.06954383,0.77185076,-1.4602773,3.5242648,-2.7389667,5.971139
0.12915023,5.0111284,-0.24683972,0.8283098,-1.3015529,3.8977604,-2.1930888,5.4539914
0.12808675,5.0107965,-0.24683972,0.8283098,-1.3015529,3.8977604,-2.1930888,5.4539914
0.12720416,5.0101366,-0.5738759,0.8900951,-1.1300454,3.892972,-1.8722657,5.1523223
0.12632076,5.009478,-0.5738759,0.8900951,-1.1300454,3.892972,-1.8722657,5.1523223
0.1256334,5.008476,-0.91689104,0.9572068,-0.94468933,3.715801,-1.7860745,4.912902
0.12493867,5.0074654,-0.91689104,0.9572068,-0.94468933,3.715801,-1.7860745,4.912902
0.1244611,5.006126,-1.2694936,1.0243185,-0.7486807,3.3854012,-2.0446482,4.8458643
0.123977646,5.004774,-1.2694936,1.0243185,-0.7486807,3.3854012,-2.0446482,4.8458643
0.12371129,5.003077,-1.6189003,1.0861038,-0.53988886,2.8921957,-2.5761611,4.759673
0.12344309,5.00138,-1.6189003,1.0861038,-0.53988886,2.8921957,-2.5761611,4.759673
0.12339892,4.9993496,-1.9565892,1.135106,-0.31724858,2.504335,-3.1364043,4.5681367
0.12335262,4.9973197,-1.9565892,1.135106,-0.31724858,2.504335,-3.1364043,4.5681367
0.12352756,4.994974,-2.2751033,1.1691945,-0.08928198,2.4756045,-3.763685,4.525041
0.12370002,4.992629,-2.2751033,1.1691945,-0.08928198,2.4756045,-3.763685,4.525041
0.12409354,4.9899936,-2.5680509,1.195826,0.14081514,2.5809495,-4.462792,4.6399627
0.12448436,4.9873576,-2.5680509,1.195826,0.14081514,2.5809495,-4.462792,4.6399627
0.12510377,4.98446,-2.8333018,1.2235229,0.37836912,2.504335,-5.2863975,4.6495395
0.12572044,4.981561,-2.8333018,1.2235229,0.37836912,2.504335,-5.2863975,4.6495395
0.12740992,4.975293,-3.0665948,1.2501545,0.6148578,2.4277205,-6.2105594,4.759673
0.12740992,4.975293,-3.0665948,1.2501545,0.6148578,2.4277205,-6.2105594,4.759673
0.12848037,4.971951,-3.2626033,1.2735903,0.84388965,2.1787236,-7.1059904,4.8123455
0.12956384,4.9685574,-3.2626033,1.2735903,0.84388965,2.1787236,-7.1059904,4.8123455
0.1308157,4.9651527,-3.418132,1.2927651,1.0654647,1.8387469,-7.8912888,4.855441
0.13207997,4.9617047,-3.418132,1.2927651,1.0654647,1.8387469,-7.8912888,4.855441
0.13356026,4.958127,-3.5321152,1.3055483,1.2795829,1.4652514,-8.384495,4.783615
0.13504349,4.9545326,-3.5321152,1.3055483,1.2795829,1.4652514,-8.384495,4.783615
0.13671805,4.95088,-3.607749,1.3066136,1.4830483,1.1923125,-8.791509,4.745308
0.1383915,4.947221,-3.607749,1.3066136,1.4830483,1.1923125,-8.791509,4.745308
0.14024615,4.9435234,-3.6503596,1.3023524,1.674796,1.0486604,-9.112331,4.663905
0.14209808,4.939823,-3.6503596,1.3023524,1.674796,1.0486604,-9.112331,4.663905
0.14411634,4.936111,-3.6652734,1.2948956,1.8537604,1.0390835,-9.452309,4.606444
0.14613388,4.932392,-3.6652734,1.2948956,1.8537604,1.0390835,-9.452309,4.606444
0.14829923,4.92869,-3.6578164,1.2853082,2.0199416,0.9768343,-9.605537,4.3526587
0.15047075,4.924969,-3.6578164,1.2853082,2.0199416,0.9768343,-9.605537,4.3526587
0.15276267,4.921295,-3.63225,1.2757208,2.171209,0.82360536,-9.643845,3.8594532
0.15505922,4.9176073,-3.63225,1.2757208,2.171209,0.82360536,-9.643845,3.8594532
0.15747717,4.9139504,-3.594966,1.2714598,2.3107588,0.62728083,-9.639056,3.323152
0.15989304,4.9102907,-3.594966,1.2714598,2.3107588,0.62728083,-9.639056,3.323152
0.16241147,4.906666,-3.5544858,1.2693293,2.4343295,0.33997664,-9.624691,2.7964275
0.1649333,4.903031,-3.5544858,1.2693293,2.4343295,0.33997664,-9.624691,2.7964275
0.16753744,4.899418,-3.5129406,1.2661335,2.5419211,0.38307226,-9.514558,2.2697031
0.1701424,4.8957987,-3.5129406,1.2661335,2.5419211,0.38307226,-9.514558,2.2697031
0.17282914,4.8921967,-3.474591,1.2661335,2.6324687,0.4309563,-9.504981,1.9536686
0.1755245,4.8885775,-3.474591,1.2661335,2.6324687,0.4309563,-9.504981,1.9536686
0.17826019,4.885005,-3.4426332,1.2767861,2.7112982,0.2633622,-9.528923,1.5466543
0.18100676,4.8814135,-3.4426332,1.2767861,2.7112982,0.2633622,-9.528923,1.5466543
0.18382384,4.877818,-3.4160016,1.2948956,2.77841,0.22505496,-9.528923,1.1540052
0.18663979,4.874217,-3.4160016,1.2948956,2.77841,0.22505496,-9.528923,1.1540052
0.18952121,4.870604,-3.3957615,1.3183315,2.830608,-0.08140286,-9.528923,0.79966336
0.19239761,4.866989,-3.3957615,1.3183315,2.830608,-0.08140286,-9.528923,0.79966336
0.19533886,4.8633556,-3.3808477,1.3481588,2.8700228,-0.39743748,-9.615114,0.40222588
0.19827127,4.8597226,-3.3808477,1.3481588,2.8700228,-0.39743748,-9.615114,0.40222588
0.20126753,4.8560634,-3.3744562,1.3779863,2.9009154,-0.7565677,-9.648633,0.095768064
0.20425437,4.8524036,-3.3744562,1.3779863,2.9009154,-0.7565677,-9.648633,0.095768064
0.20727609,4.84873,-3.373391,1.4067484,2.919025,-1.0007763,-9.677363,-0.16759412
0.21029747,4.8450446,-3.373391,1.4067484,2.919025,-1.0007763,-9.677363,-0.16759412
0.21333282,4.8413424,-3.3797824,1.43338,2.927547,-1.1683705,-9.701305,-0.25857377
0.21636157,4.8376355,-3.3797824,1.43338,2.927547,-1.1683705,-9.701305,-0.25857377
0.21938992,4.8339057,-3.3925657,1.4600116,2.9264817,-1.1444284,-9.682152,-0.5315128
0.22241482,4.830167,-3.3925657,1.4600116,2.9264817,-1.1444284,-9.682152,-0.5315128
0.2254291,4.826394,-3.4117403,1.4845127,2.911568,-1.067814,-9.514558,-0.94331545
0.22843714,4.8226156,-3.4117403,1.4845127,2.911568,-1.067814,-9.514558,-0.94331545
0.23150593,4.818678,-3.4394374,1.510079,2.8817406,-0.9576807,-9.337387,-1.1875241
0.23439285,4.8149586,-3.4394374,1.510079,2.8817406,-0.9576807,-9.337387,-1.1875241
0.23730756,4.8110943,-3.4756563,1.5356454,2.8380647,-0.8331822,-9.270349,-1.4317327
0.24045774,4.806901,-3.4756563,1.5356454,2.8380647,-0.8331822,-9.270349,-1.4317327
0.24309276,4.8032537,-3.5214627,1.5686686,2.7773447,-0.6751649,-9.188946,-1.484405
0.2459576,4.7992725,-3.5214627,1.5686686,2.7773447,-0.6751649,-9.188946,-1.484405
0.24868083,4.795307,-3.5704648,1.6070181,2.701711,-0.45968673,-8.987833,-1.4508862
0.2514298,4.7912874,-3.5704648,1.6070181,2.701711,-0.45968673,-8.987833,-1.4508862
0.25408307,4.787198,-3.623728,1.6560203,2.6143591,-0.2681506,-8.75799,-1.541866
0.25673407,4.783095,-3.623728,1.6560203,2.6143591,-0.2681506,-8.75799,-1.541866
0.2592817,4.7789116,-3.6855135,1.711414,2.5120938,-0.4261679,-8.494628,-1.5945383
0.26182386,4.774718,-3.6855135,1.711414,2.5120938,-0.4261679,-8.494628,-1.5945383
0.2642625,4.770419,-3.756886,1.7689383,2.3970451,-0.6560113,-8.2169,-1.7621324
0.26668772,4.766123,-3.756886,1.7689383,2.3970451,-0.6560113,-8.2169,-1.7621324
0.26899937,4.7617126,-3.8389115,1.8253974,2.2766705,-0.7757214,-7.920019,-1.9201498
0.2713044,4.757291,-3.8389115,1.8253974,2.2766705,-0.7757214,-7.920019,-1.9201498
0.27348262,4.752756,-3.9358506,1.8786606,2.1552303,-0.79966336,-7.642292,-2.054225
0.2756536,4.74821,-3.9358506,1.8786606,2.1552303,-0.79966336,-7.642292,-2.054225
0.27769843,4.7435246,-4.046638,1.9319237,2.03379,-0.6799533,-7.465121,-2.2601264
0.2797292,4.738842,-4.046638,1.9319237,2.03379,-0.6799533,-7.465121,-2.2601264
0.281639,4.734003,-4.17447,1.9841217,1.9176762,-0.5315128,-7.2687964,-2.5713725
0.28354034,4.7291517,-4.17447,1.9841217,1.9176762,-0.5315128,-7.2687964,-2.5713725
0.28532568,4.7241383,-4.317215,2.0363197,1.8058234,-0.6464345,-7.225701,-2.8299465
0.28709817,4.719124,-4.317215,2.0363197,1.8058234,-0.6464345,-7.225701,-2.8299465
0.2887706,4.713914,-4.4759398,2.089583,1.6961012,-1.1109096,-7.2113357,-3.0358477
0.29042965,4.7087035,-4.4759398,2.089583,1.6961012,-1.1109096,-7.2113357,-3.0358477
0.2919893,4.7033,-4.646382,2.138585,1.5949011,-1.5466543,-7.3406224,-3.1842883
0.2935349,4.697896,-4.646382,2.138585,1.5949011,-1.5466543,-7.3406224,-3.1842883
0.2949947,4.6922865,-4.8221507,2.1790652,1.5107453,-1.8531121,-7.5321584,-3.2848446
0.29643837,4.6866827,-4.8221507,2.1790652,1.5107453,-1.8531121,-7.5321584,-3.2848446
0.29781067,4.680865,-4.9989843,2.2078273,1.4446988,-2.0254946,-7.785944,-3.2800562
0.29917303,4.675024,-4.9989843,2.2078273,1.4446988,-2.0254946,-7.785944,-3.2800562
0.3004413,4.6690617,-5.1758184,2.2280674,1.3946314,-1.7190368,-8.149862,-3.2225955
0.30169746,4.663082,-5.1758184,2.2280674,1.3946314,-1.7190368,-8.149862,-3.2225955
0.30290955,4.656909,-5.347326,2.2440462,1.3562819,-1.9440918,-8.207323,-3.2609026
0.30410767,4.6507235,-5.347326,2.2440462,1.3562819,-1.9440918,-8.207323,-3.2609026
0.30526736,4.6443644,-5.511377,2.2621558,1.3360418,-1.9440918,-8.37013,-3.3327289
0.30641127,4.6380005,-5.511377,2.2621558,1.3360418,-1.9440918,-8.37013,-3.3327289
0.30750087,4.6314774,-5.6679707,2.2738736,1.3243239,-1.6041151,-9.064447,-2.9879637
0.3085731,4.624951,-5.6679707,2.2738736,1.3243239,-1.6041151,-9.064447,-2.9879637
0.30960736,4.618279,-5.809651,2.2909179,1.3211281,-1.4700398,-9.758766,-2.882619
0.3106234,4.6116033,-5.809651,2.2909179,1.3211281,-1.4700398,-9.758766,-2.882619
0.31162816,4.604798,-5.92683,2.3143537,1.3275198,-1.685518,-10.0748005,-2.8921957
0.31264114,4.597798,-5.92683,2.3143537,1.3275198,-1.685518,-10.0748005,-2.8921957
0.3136464,4.5910573,-6.020573,2.3463116,1.3466945,-2.6527755,-9.773131,-3.3758245
0.3146631,4.5841107,-6.020573,2.3463116,1.3466945,-2.6527755,-9.773131,-3.3758245
0.3156757,4.577073,-6.098337,2.355899,1.3743913,-2.4468741,-10.04607,-3.442862
0.3166675,4.570038,-6.098337,2.355899,1.3743913,-2.4468741,-10.04607,-3.442862
0.31770355,4.562936,-6.1633186,2.3452463,1.4095451,-3.040636,-10.041282,-3.667917
0.3187184,4.5558434,-6.1633186,2.3452463,1.4095451,-3.040636,-10.041282,-3.667917
0.3197229,4.5486865,-6.2155166,2.3228757,1.4500252,-2.4660277,-10.505757,-3.4715924
0.32070556,4.541532,-6.2155166,2.3228757,1.4500252,-2.4660277,-10.505757,-3.4715924
0.3216739,4.5343714,-6.247474,2.2919831,1.48944,-2.1787236,-11.281479,-3.122039
0.32262033,4.5272093,-6.247474,2.2919831,1.48944,-2.1787236,-11.281479,-3.122039
0.32398903,4.5169787,-6.2496047,2.2706778,1.5267242,-2.2744915,-11.631032,-3.122039
0.32457626,4.512476,-6.2496047,2.2706778,1.5267242,-2.2744915,-11.631032,-3.122039
0.32595974,4.502436,-6.2229733,2.2536337,1.5682695,-2.8634653,-11.722012,-3.394978
0.32595974,4.502436,-6.2229733,2.2536337,1.5682695,-2.8634653,-11.722012,-3.394978
0.32595974,4.502436,-6.1718407,2.2270021,1.6108801,-3.193865,-11.9135475,-3.5817258
0.3289473,4.481305,-6.1718407,2.2270021,1.6108801,-3.193865,-11.9135475,-3.5817258
0.32958123,4.476861,-6.097272,2.1833262,1.647099,-3.2273839,-12.200851,-3.7205894
0.33054817,4.469955,-6.001398,2.1289978,1.679057,-3.0119057,-12.469003,-3.821146
0.33153507,4.4631104,-6.001398,2.1289978,1.679057,-3.0119057,-12.469003,-3.821146
0.3329026,4.453376,-6.001398,2.1289978,1.679057,-3.0119057,-12.469003,-3.821146
0.3336128,4.4485016,-5.884219,2.0725386,1.7099497,-2.882619,-12.665327,-3.8355112
0.33445743,4.4426126,-5.884219,2.0725386,1.7099497,-2.882619,-12.665327,-3.8355112
0.3354702,4.43589,-5.7446694,2.0224712,1.7408423,-2.8921957,-12.832921,-3.9264908
0.33641833,4.4294806,-5.7446694,2.0224712,1.7408423,-2.8921957,-12.832921,-3.9264908
0.33741286,4.4231076,-5.590206,1.9777302,1.7706697,-3.241749,-12.885593,-4.1036615
0.33840185,4.416653,-5.590206,1.9777302,1.7706697,-3.241749,-12.885593,-4.1036615
0.3394222,4.410361,-5.4261556,1.932989,1.8015624,-3.5434184,-12.943054,-4.2521024
0.34087572,4.4012003,-5.4261556,1.932989,1.8015624,-3.5434184,-12.943054,-4.2521024
0.3414395,4.397852,-5.251452,1.8797258,1.832455,-3.6631286,-13.081918,-4.3143516
0.34245104,4.3917727,-5.251452,1.8797258,1.832455,-3.6631286,-13.081918,-4.3143516
0.34354794,4.3859463,-5.0660963,1.8136795,1.8633478,-3.5529952,-16.984467,-3.6727054
0.34462848,4.380145,-5.0660963,1.8136795,1.8633478,-3.5529952,-16.984467,-3.6727054
0.34594527,4.374398,-4.824281,1.7401762,1.8921099,-6.5984197,-10.6637745,-5.66947
0.34724292,4.368681,-4.824281,1.7401762,1.8921099,-6.5984197,-10.6637745,-5.66947
0.34838265,4.3633885,-4.563291,1.6155403,1.8974363,-0.16759412,-16.457743,-2.3223755
0.3495052,4.3581233,-4.563291,1.6155403,1.8974363,-0.16759412,-16.457743,-2.3223755
0.3507465,4.3531036,-4.3225417,1.5111443,1.8953058,-5.4779334,-17.00362,-2.552219
0.35196513,4.348129,-4.3225417,1.5111443,1.8953058,-5.4779334,-17.00362,-2.552219
0.35323793,4.3434696,-4.026398,1.4589463,1.9208721,-6.6079965,-17.223886,-3.5769374
0.35450906,4.3387723,-4.026398,1.4589463,1.9208721,-6.6079965,-17.223886,-3.5769374
0.35575697,4.3345118,-3.6684692,1.3066136,1.9027625,-5.023035,-17.386692,-3.2704794
0.35700575,4.3302164,-3.6684692,1.3066136,1.9027625,-5.023035,-17.386692,-3.2704794
0.35828987,4.3263793,-3.2796476,1.139367,1.8665435,-5.995081,-18.248606,-3.5434184
0.35956195,4.3225536,-3.2796476,1.139367,1.8665435,-5.995081,-18.248606,-3.5434184
0.3608294,4.319194,-2.8599334,0.95933735,1.8090193,-5.171476,-17.161638,-3.9073372
0.36209035,4.315834,-2.8599334,0.95933735,1.8090193,-5.171476,-17.161638,-3.9073372
0.36330727,4.312991,-2.427436,0.76972026,1.7184718,-4.261679,-16.25184,-3.9935284
0.36452928,4.310125,-2.427436,0.76972026,1.7184718,-4.261679,-16.25184,-3.9935284
0.36569262,4.3077507,-2.0109177,0.6067348,1.602358,-3.6774938,-16.055517,-3.8115692
0.3668524,4.305377,-2.0109177,0.6067348,1.602358,-3.6774938,-16.055517,-3.8115692
0.36793637,4.3034577,-1.6146393,0.47144622,1.4660041,-3.6870706,-15.524004,-4.0318356
0.36901337,4.301546,-1.6146393,0.47144622,1.4660041,-3.6870706,-15.524004,-4.0318356
0.37000412,4.3000665,-1.2396662,0.35320187,1.3136714,-4.0222588,-15.212758,-4.232949
0.37099382,4.2985854,-1.2396662,0.35320187,1.3136714,-4.0222588,-15.212758,-4.232949
0.3718738,4.297533,-0.88173735,0.24028382,1.1496205,-4.122815,-14.958972,-4.3287168
0.37275746,4.296474,-0.88173735,0.24028382,1.1496205,-4.122815,-14.958972,-4.3287168
0.37351573,4.2958307,-0.5333958,0.12417,0.97491723,-3.8977604,-14.805743,-4.405331
0.3742751,4.295186,-0.5333958,0.12417,0.97491723,-3.8977604,-14.805743,-4.405331
0.3749047,4.2949486,-0.19464175,0.0069909045,0.7884959,-3.7205894,-14.800955,-4.43885
0.3755347,4.294711,-0.19464175,0.0069909045,0.7884959,-3.7205894,-14.800955,-4.43885
0.3760288,4.29488,0.14091654,-0.109122925,0.5924873,-3.643975,-14.571112,-4.4244847
0.37652564,4.2950497,0.14091654,-0.109122925,0.5924873,-3.643975,-14.571112,-4.4244847
0.37687775,4.295623,0.4722138,-0.22523674,0.3879565,-3.5338416,-14.379576,-4.4101195
0.37723014,4.296197,0.4722138,-0.22523674,0.3879565,-3.5338416,-14.379576,-4.4101195
0.3774381,4.2971735,0.8013805,-0.3370895,0.18022992,-3.4955344,-14.288596,-4.333505
0.3776453,4.29815,0.8013805,-0.3370895,0.18022992,-3.4955344,-14.288596,-4.333505
0.37771046,4.2995324,1.1326778,-0.44681177,-0.028561912,-3.2800562,-14.274231,-3.98874
0.37777463,4.3009176,1.1326778,-0.44681177,-0.028561912,-3.2800562,-14.274231,-3.98874
0.37769032,4.3026967,1.463975,-0.5522729,-0.23309268,-3.4476504,-14.106636,-4.146757
0.37760016,4.304558,1.463975,-0.5522729,-0.23309268,-3.4476504,-14.106636,-4.146757
0.37736765,4.306735,1.798468,-0.65453833,-0.43229714,-3.4811692,-13.814544,-4.2042184
0.3771393,4.3088474,1.798468,-0.65453833,-0.43229714,-3.4811692,-13.814544,-4.2042184
0.37675366,4.311426,2.1361568,-0.7663911,-0.62937105,-3.2609026,-13.421895,-4.295198
0.3763648,4.314001,2.1361568,-0.7663911,-0.62937105,-3.2609026,-13.421895,-4.295198
0.37583354,4.3169856,2.4695847,-0.88463545,-0.81898814,-3.0502129,-12.962208,-4.2999864
0.3753003,4.3199525,2.4695847,-0.88463545,-0.81898814,-3.0502129,-12.962208,-4.2999864
0.37462616,4.3233194,2.7966208,-1.0039451,-1.0022136,-2.4995465,-12.488156,-4.280833
0.37394848,4.326673,2.7966208,-1.0039451,-1.0022136,-2.4995465,-12.488156,-4.280833
0.37314323,4.3304043,3.115135,-1.1157979,-1.176917,-2.6671407,-12.038046,-4.256891
0.3723312,4.3341312,3.115135,-1.1157979,-1.176917,-2.6671407,-12.038046,-4.256891
0.37139302,4.338216,3.426192,-1.2201937,-1.3409678,-2.7389667,-11.492168,-4.295198
0.3704515,4.342277,3.426192,-1.2201937,-1.3409678,-2.7389667,-11.492168,-4.295198
0.36938816,4.3467073,3.7265966,-1.3267202,-1.4975616,-2.5187001,-11.022904,-4.256891
0.3683213,4.351112,3.7265966,-1.3267202,-1.4975616,-2.5187001,-11.022904,-4.256891
0.36714414,4.355859,4.0120873,-1.4332466,-1.6445681,-2.7341783,-10.682928,-4.247314
0.3659674,4.3605638,4.0120873,-1.4332466,-1.6445681,-2.7341783,-10.682928,-4.247314
0.3646861,4.3656073,4.2815995,-1.5419036,-1.7830524,-2.7341783,-10.390836,-4.209007
0.3634007,4.370625,4.2815995,-1.5419036,-1.7830524,-2.7341783,-10.390836,-4.209007
0.36201072,4.375969,4.533002,-1.6516259,-1.9119495,-2.6288335,-10.223241,-3.916914
0.36061406,4.3812904,4.533002,-1.6516259,-1.9119495,-2.6288335,-10.223241,-3.916914
0.3591198,4.3869166,4.7694907,-1.7549565,-2.0301938,-2.6144683,-10.113108,-3.6727054
0.35762045,4.392507,4.7694907,-1.7549565,-2.0301938,-2.6144683,-10.113108,-3.6727054
0.35601833,4.3984175,4.9900002,-1.8508303,-2.1409814,-2.6384103,-10.0987425,-3.3566709
0.35440904,4.4042892,4.9900002,-1.8508303,-2.1409814,-2.6384103,-10.0987425,-3.3566709
0.35271415,4.410421,5.194531,-1.9392473,-2.2389855,-2.7485435,-10.13705,-3.2225955
0.3510081,4.416523,5.194531,-1.9392473,-2.2389855,-2.7485435,-10.13705,-3.2225955
0.34922394,4.4228745,5.3852134,-2.0234032,-2.325272,-2.7724855,-10.184934,-3.0502129
0.34743226,4.4291754,5.3852134,-2.0234032,-2.325272,-2.7724855,-10.184934,-3.0502129
0.34556013,4.4357343,5.5588517,-2.1043632,-2.401971,-2.6288335,-10.28549,-2.906561
0.34362257,4.4424367,5.5588517,-2.1043632,-2.401971,-2.6288335,-10.28549,-2.906561
0.34173417,4.4489684,5.716511,-2.1810622,-2.4637566,-2.4851813,-10.362105,-2.7389667
0.33977625,4.455656,5.716511,-2.1810622,-2.4637566,-2.4851813,-10.362105,-2.7389667
0.33776712,4.4625244,5.8603215,-2.2545655,-2.5159545,-2.3798366,-10.304645,-2.552219
0.33575398,4.4693193,5.8603215,-2.2545655,-2.5159545,-2.3798366,-10.304645,-2.552219
0.33367723,4.476309,5.988153,-2.320612,-2.5606954,-2.3463178,-10.228029,-2.480393
0.33157206,4.4833064,5.988153,-2.320612,-2.5606954,-2.3463178,-10.228029,-2.480393
0.32943237,4.490389,6.1021366,-2.3749404,-2.599045,-2.2888567,-10.041282,-2.3942018
0.3272715,4.4974566,6.1021366,-2.3749404,-2.599045,-2.2888567,-10.041282,-2.3942018
0.325072,4.5046244,6.2033367,-2.4196815,-2.6288724,-2.1499932,-9.888053,-2.3558946
0.32285216,4.511778,6.2033367,-2.4196815,-2.6288724,-2.1499932,-9.888053,-2.3558946
0.32060838,4.5189795,6.286427,-2.4516394,-2.6501777,-1.9871874,-9.615114,-2.2936451
0.31833598,4.526198,6.286427,-2.4516394,-2.6501777,-1.9871874,-9.615114,-2.2936451
0.31603444,4.5334673,6.3514085,-2.4708142,-2.662961,-1.7669208,-9.356541,-2.1308396
0.31371534,4.540717,6.394019,-2.4750752,-2.6682873,-1.5466543,-9.030929,-1.9776106
0.31127617,4.5482874,6.394019,-2.4750752,-2.6682873,-1.5466543,-9.030929,-1.9776106
0.30888456,4.5556335,6.394019,-2.4750752,-2.6682873,-1.5466543,-9.030929,-1.9776106
0.30502865,4.567344,6.4174547,-2.461227,-2.6661568,-1.340753,-8.576031,-1.8387469
0.30417863,4.569903,6.4174547,-2.461227,-2.6661568,-1.340753,-8.576031,-1.8387469
0.30180067,4.577023,6.41852,-2.4313993,-2.6565692,-1.2545617,-8.020576,-1.7286136
0.29937074,4.584234,6.41852,-2.4313993,-2.6565692,-1.2545617,-8.020576,-1.7286136
0.29695126,4.591376,6.3961496,-2.3866584,-2.6373947,-1.2401965,-7.3166804,-1.6711528
0.29451475,4.5985093,6.3961496,-2.3866584,-2.6373947,-1.2401965,-7.3166804,-1.6711528
0.29208946,4.6055555,6.3439517,-2.3312645,-2.6054366,-0.91458505,-6.5218053,-1.6663644
0.2896544,4.6125746,6.3439517,-2.3312645,-2.6054366,-0.91458505,-6.5218053,-1.6663644
0.28722483,4.6195025,6.260861,-2.2673488,-2.5681524,-0.5267244,-5.631162,-1.6950948
0.2847904,4.6263895,6.260861,-2.2673488,-2.5681524,-0.5267244,-5.631162,-1.6950948
0.28236538,4.6331472,6.1383553,-2.1895845,-2.5212808,-0.12449849,-4.7261543,-1.6376339
0.27993122,4.639879,6.1383553,-2.1895845,-2.5212808,-0.12449849,-4.7261543,-1.6376339
0.277519,4.646404,5.9743047,-2.0958412,-2.4680176,0.49799395,-3.7924154,-1.6567876
0.2750935,4.6529174,5.9743047,-2.0958412,-2.4680176,0.49799395,-3.7924154,-1.6567876
0.2726796,4.6592183,5.762317,-1.9861189,-2.406232,1.2066777,-2.930503,-1.541866
0.27026287,4.665484,5.762317,-1.9861189,-2.406232,1.2066777,-2.930503,-1.541866
0.26788196,4.6714535,5.497066,-1.8572218,-2.3423164,1.9488802,-2.0685902,-1.4030021
0.26549208,4.6774073,5.497066,-1.8572218,-2.3423164,1.9488802,-2.0685902,-1.4030021
0.2631484,4.6830435,5.1806827,-1.7038238,-2.27627,2.7341783,-1.2449849,-1.0773908
0.26080638,4.688644,5.1806827,-1.7038238,-2.27627,2.7341783,-1.2449849,-1.0773908
0.2585346,4.6938524,4.815297,-1.5227288,-2.2027667,3.2225955,-0.50757074,-0.7565677
0.25625455,4.699054,4.815297,-1.5227288,-2.2027667,3.2225955,-0.50757074,-0.7565677
0.2540568,4.7038016,4.401974,-1.3181981,-2.1250024,3.8786068,-0.02873042,-0.16280572
0.2518591,4.70853,4.401974,-1.3181981,-2.1250024,3.8786068,-0.02873042,-0.16280572
0.24973433,4.712769,3.9449759,-1.0891662,-2.042977,4.098873,0.5793968,0.062249243
0.24761122,4.716991,3.9449759,-1.0891662,-2.042977,4.098873,0.5793968,0.062249243
0.24558403,4.720656,3.4496279,-0.8409596,-1.9513643,4.4484267,1.0055647,0.36870706
0.24355352,4.724317,3.4496279,-0.8409596,-1.9513643,4.4484267,1.0055647,0.36870706
0.2416228,4.7273874,2.9201915,-0.5831656,-1.8554904,4.7979803,1.1683705,0.7182605
0.23969598,4.730446,2.9201915,-0.5831656,-1.8554904,4.7979803,1.1683705,0.7182605
0.23787396,4.7329035,2.3641236,-0.3168495,-1.7478987,4.687847,1.3072342,1.1204864
0.23605646,4.7353525,2.3641236,-0.3168495,-1.7478987,4.687847,1.3072342,1.1204864
0.2343669,4.7371716,1.7931417,-0.048402846,-1.6285892,4.357447,1.13964,1.4891934
0.23267208,4.7389956,1.7931417,-0.048402846,-1.6285892,4.357447,1.13964,1.4891934
0.23112611,4.740182,1.2157683,0.21258694,-1.4964963,4.012682,0.81881696,1.9776106
0.22958186,4.7413673,1.2157683,0.21258694,-1.4964963,4.012682,0.81881696,1.9776106
0.22819161,4.741934,0.6426561,0.45546725,-1.3484246,3.6774938,0.2777274,2.4372973
0.22680151,4.7425013,0.6426561,0.45546725,-1.3484246,3.6774938,0.2777274,2.4372973
0.22558394,4.742469,0.08552279,0.67704225,-1.1833086,3.5194764,-0.2873042,2.8634653
0.22436267,4.7424374,0.08552279,0.67704225,-1.1833086,3.5194764,-0.2873042,2.8634653
0.22332145,4.741828,-0.45030522,0.87731194,-1.00754,3.5098996,-0.866701,3.1890767
0.22228596,4.7412233,-0.45030522,0.87731194,-1.00754,3.5098996,-0.866701,3.1890767
0.22142623,4.7400484,-0.9658932,1.0605375,-0.82111865,3.5338416,-1.1731589,3.3087866
0.22059318,4.7389126,-0.9658932,1.0605375,-0.82111865,3.5338416,-1.1731589,3.3087866
0.21983369,4.736925,-1.4591106,1.2288493,-0.61765313,3.2273839,-1.6998832,3.3901896
0.219293,4.735516,-1.4591106,1.2288493,-0.61765313,3.2273839,-1.6998832,3.3901896
0.2188533,4.733261,-1.9363492,1.3854431,-0.40246972,2.6719291,-2.0159178,3.3135753
0.21834236,4.7306614,-1.9363492,1.3854431,-0.40246972,2.6719291,-2.0159178,3.3135753
0.21817774,4.7286205,-2.3944128,1.5175359,-0.18409052,2.72939,-2.4851813,3.3327289
0.21792369,4.725525,-2.3944128,1.5175359,-0.18409052,2.72939,-2.4851813,3.3327289
0.21792485,4.7222056,-2.834367,1.634715,0.040680278,2.6144683,-2.920926,3.3566709
0.21792156,4.719344,-2.834367,1.634715,0.040680278,2.6144683,-2.920926,3.3566709
0.21811724,4.716223,-3.257277,1.7497636,0.27184266,2.207454,-3.2752678,3.241749
0.21833444,4.712668,-3.257277,1.7497636,0.27184266,2.207454,-3.2752678,3.241749
0.21922964,4.7046566,-3.6652734,1.8552247,0.5104619,1.8579005,-3.7014358,3.1507695
0.21922964,4.7046566,-3.6652734,1.8552247,0.5104619,1.8579005,-3.7014358,3.1507695
0.22020067,4.6982756,-4.0572906,1.9510986,0.75227696,1.7764976,-4.2521024,3.107674
0.22057652,4.695774,-4.0572906,1.9510986,0.75227696,1.6759412,-4.903325,3.0310593
0.2214698,4.6909866,-4.4301333,2.0363197,0.998353,1.6759412,-4.903325,3.0310593
0.22235905,4.6861677,-4.4301333,2.0363197,0.998353,1.6759412,-4.903325,3.0310593
0.22347581,4.680975,-4.782736,2.1108882,1.2412333,1.5801731,-5.5880666,2.9640217
0.22458526,4.6757636,-4.782736,2.1108882,1.2412333,1.5801731,-5.5880666,2.9640217
0.22590937,4.670219,-5.1119027,2.174804,1.4755915,1.3263878,-6.2871737,2.7820623
0.22722429,4.6646585,-5.1119027,2.174804,1.4755915,1.3263878,-6.2871737,2.7820623
0.22874783,4.658803,-5.408046,2.2248714,1.7003623,0.9911995,-7.0102224,2.8443117
0.23025538,4.6529536,-5.408046,2.2248714,1.7003623,0.9911995,-7.0102224,2.8443117
0.23196495,4.6468053,-5.669036,2.2610905,1.9091542,0.61291564,-7.666234,2.8203697
0.23366384,4.6406374,-5.669036,2.2610905,1.9091542,0.61291564,-7.666234,2.8203697
0.23553649,4.634252,-5.8906107,2.2866569,2.1051629,0.29688102,-8.355764,2.6192567
0.23742191,4.6277623,-5.8906107,2.2866569,2.1051629,0.29688102,-8.355764,2.6192567
0.23941597,4.621275,-6.0695753,2.29944,2.291584,0.12928689,-8.916007,2.4229321
0.24142683,4.6146727,-6.0695753,2.29944,2.291584,0.12928689,-8.916007,2.4229321
0.24359468,4.607919,-6.209125,2.302636,2.4662874,-0.20590134,-9.476251,2.1260512
0.24574594,4.6011558,-6.209125,2.302636,2.4662874,-0.20590134,-9.476251,2.1260512
0.24803723,4.594283,-6.3081946,2.2941136,2.6239467,-0.5793968,-9.9550905,1.7142484
0.25031143,4.5873995,-6.3081946,2.2941136,2.6239467,-0.5793968,-9.9550905,1.7142484
0.2527152,4.5804462,-6.36998,2.2728083,2.7688224,-0.93852705,-10.419566,1.364695
0.2551013,4.573482,-6.36998,2.2728083,2.7688224,-0.93852705,-10.419566,1.364695
0.25760052,4.566493,-6.396611,2.234459,2.8987849,-1.2114661,-10.874464,1.0486604
0.26009196,4.5594645,-6.396611,2.234459,2.8987849,-1.2114661,-10.874464,1.0486604
0.26267865,4.55246,-6.3902197,2.1843915,3.0148985,-1.4891934,-11.348516,0.6655881
0.2652476,4.5454445,-6.3902197,2.1843915,3.0148985,-1.4891934,-11.348516,0.6655881
0.26790702,4.5384645,-6.3518705,2.126867,3.12036,-1.6711528,-11.650186,0.22984336
0.2705488,4.531472,-6.3518705,2.126867,3.12036,-1.6711528,-11.650186,0.22984336
0.2732704,4.5245504,-6.281563,2.057625,3.2109072,-1.6998832,-12.239159,0.11492168
0.275972,4.517623,-6.281563,2.057625,3.2109072,-1.6998832,-12.239159,0.11492168
0.2787587,4.5107884,-6.182493,1.9841217,3.286541,-2.3175871,-12.5504055,-0.30166942
0.2815255,4.5039473,-6.182493,1.9841217,3.286541,-2.3175871,-12.5504055,-0.30166942
0.28436717,4.4972434,-6.0535965,1.9031616,3.354718,-2.7964275,-12.933477,-0.60333884
0.2871918,4.4905257,-6.0535965,1.9031616,3.354718,-2.7964275,-12.933477,-0.60333884
0.2900642,4.48398,-5.8991327,1.8051573,3.4058506,-2.8443117,-13.431472,-0.7326257
0.29292294,4.477414,-5.8991327,1.8051573,3.4058506,-2.8443117,-13.431472,-0.7326257
0.29583174,4.47104,-5.718038,1.6965003,3.4420698,-3.107674,-13.876793,-0.93373865
0.298722,4.4646583,-5.718038,1.6965003,3.4420698,-3.107674,-13.876793,-0.93373865
0.30165318,4.45851,-5.5103116,1.5835823,3.4697666,-3.4572272,-14.384364,-1.1587936
0.30457228,4.452342,-5.5103116,1.5835823,3.4697666,-3.4572272,-14.384364,-1.1587936
0.30752936,4.4464283,-5.2812796,1.4578811,3.4846802,-3.7972038,-14.958972,-1.2641385
0.3104752,4.440495,-5.2812796,1.4578811,3.4846802,-3.7972038,-14.958972,-1.2641385
0.31344944,4.4348536,-5.025616,1.3193967,3.4889414,-4.122815,-15.672444,-1.3790601
0.31822562,4.425715,-5.025616,1.3193967,3.4889414,-4.122815,-15.672444,-1.3790601
0.31940064,4.4236164,-4.743321,1.1691945,3.483615,-4.582502,-16.079458,-1.5466543
0.32245073,4.418145,-4.743321,1.1691945,3.483615,-4.582502,-16.079458,-1.5466543
0.32538056,4.413262,-4.4343944,1.0040784,3.4687014,-4.572925,-16.812084,-1.5466543
0.32835108,4.4082823,-4.4343944,1.0040784,3.4687014,-4.572925,-16.812084,-1.5466543
0.33136702,4.4036713,-4.094575,0.8315056,3.4420698,-5.3103395,-16.610971,-2.0829554
0.33437914,4.39904,-4.094575,0.8315056,3.4420698,-5.3103395,-16.610971,-2.0829554
0.33738318,4.394827,-3.7302544,0.6450843,3.402655,-4.697424,-17.03714,-2.030283
0.34037653,4.390607,-3.7302544,0.6450843,3.402655,-4.697424,-17.03714,-2.030283
0.34337366,4.3868303,-3.341433,0.45759776,3.3515222,-4.644751,-17.592594,-1.958457
0.3463674,4.383041,-3.341433,0.45759776,3.3515222,-4.644751,-17.592594,-1.958457
0.3493421,4.379734,-2.9238493,0.28182915,3.289737,-4.735731,-18.406622,-2.327164
0.3523149,4.3764153,-2.9238493,0.28182915,3.289737,-4.735731,-18.406622,-2.327164
0.35529405,4.373618,-2.4689813,0.10179944,3.2109072,-6.3302693,-20.786459,-1.4987702
0.3582692,4.3708134,-2.4689813,0.10179944,3.2109072,-6.3302693,-20.786459,-1.4987702
0.36128554,4.3686037,-1.9480671,-0.105927125,3.1139681,-7.3885064,-16.218323,-3.5098996
0.36429718,4.3663893,-1.9480671,-0.105927125,3.1139681,-7.3885064,-16.218323,-3.5098996
0.36717752,4.364779,-1.4431317,-0.35626426,2.979745,-3.964798,-19.2829,-1.091756
0.37005046,4.3631682,-1.4431317,-0.35626426,2.979745,-3.964798,-19.2829,-1.091756
0.37294182,4.362151,-0.9339353,-0.5416203,2.8689575,-7.513005,-18.430565,-2.719813
0.37583694,4.3611293,-0.9339353,-0.5416203,2.8689575,-7.513005,-18.430565,-2.719813
0.37865427,4.3607693,-0.38638934,-0.7866311,2.714494,-6.9288197,-18.0858,-3.0454245
0.3814644,4.360409,-0.38638934,-0.7866311,2.714494,-6.9288197,-18.0858,-3.0454245
0.38414612,4.360731,0.1632871,-1.0657305,2.5035717,-6.0525417,-17.410635,-3.7014358
0.38682607,4.361054,0.1632871,-1.0657305,2.5035717,-6.0525417,-17.410635,-3.7014358
0.38929367,4.3620167,0.6991151,-1.3245896,2.2553651,-4.003105,-15.5671,-4.1276035
0.39175966,4.362981,0.6991151,-1.3245896,2.2553651,-4.003105,-15.5671,-4.1276035
0.3940026,4.3645244,1.1880715,-1.5333815,1.9688089,-2.6910827,-14.116213,-4.2760444
0.39624378,4.3660703,1.1880715,-1.5333815,1.9688089,-2.6910827,-14.116213,-4.2760444
0.3982322,4.3681126,1.6109815,-1.6665395,1.6620128,-2.930503,-13.196839,-4.582502
0.40021843,4.3701572,1.6109815,-1.6665395,1.6620128,-2.930503,-13.196839,-4.582502
0.40193325,4.3726053,1.9721061,-1.7538912,1.3371071,-3.3566709,-12.488156,-5.0134583
0.40364388,4.3750534,1.9721061,-1.7538912,1.3371071,-3.3566709,-12.488156,-5.0134583
0.4050862,4.3778605,2.2810328,-1.8273945,0.9962225,-3.9121256,-11.865664,-5.209783
0.40652412,4.380668,2.2810328,-1.8273945,0.9962225,-3.9121256,-11.865664,-5.209783
0.4076786,4.383803,2.543088,-1.9008977,0.6510768,-3.9839516,-11.329363,-5.3725886
0.408829,4.3869405,2.543088,-1.9008977,0.6510768,-3.9839516,-11.329363,-5.3725886
0.4096786,4.3903794,2.7678587,-1.9733357,0.30593112,-3.98874,-11.008539,-5.3342814
0.41052216,4.3938174,2.7678587,-1.9733357,0.30593112,-3.98874,-11.008539,-5.3342814
0.4110509,4.3975363,2.9649327,-2.035121,-0.037084028,-3.845088,-10.778696,-5.1571107
0.41157365,4.4012566,2.9649327,-2.035121,-0.037084028,-3.845088,-10.778696,-5.1571107
0.41176724,4.405218,3.1428318,-2.0787969,-0.3737076,-3.41892,-10.70687,-5.109226
0.41195422,4.4091835,3.1428318,-2.0787969,-0.3737076,-3.41892,-10.70687,-5.109226
0.4118319,4.4133654,3.3079479,-2.1001022,-0.69328696,-3.169923,-10.572795,-5.171476
0.41170186,4.417546,3.3079479,-2.1001022,-0.69328696,-3.169923,-10.572795,-5.171476
0.41128093,4.421915,3.4634764,-2.1054285,-1.0011483,-3.2321723,-10.357317,-5.3725886
0.41085112,4.4262815,3.4634764,-2.1054285,-1.0011483,-3.2321723,-10.357317,-5.3725886
0.41013488,4.430824,3.610483,-2.1054285,-1.3004876,-3.3423057,-10.108319,-5.482722
0.40940917,4.4353623,3.610483,-2.1054285,-1.3004876,-3.3423057,-10.108319,-5.482722
0.4084077,4.440062,3.743641,-2.107559,-1.5827827,-3.4045548,-9.931149,-5.48751
0.40739608,4.444756,3.743641,-2.107559,-1.5827827,-3.4045548,-9.931149,-5.48751
0.40612528,4.44959,3.8597548,-2.1096895,-1.8427073,-3.4093432,-9.763555,-5.3486466
0.40484384,4.454418,3.8597548,-2.1096895,-1.8427073,-3.4093432,-9.763555,-5.3486466
0.403323,4.4593635,3.9588244,-2.1096895,-2.079196,-3.394978,-9.572019,-5.0900726
0.40179107,4.4643,3.9588244,-2.1096895,-2.079196,-3.394978,-9.572019,-5.0900726
0.40005726,4.4693284,4.0408497,-2.103298,-2.2815962,-3.6008794,-9.452309,-4.8267107
0.398312,4.4743476,4.0408497,-2.103298,-2.2815962,-3.6008794,-9.452309,-4.8267107
0.3963992,4.479433,4.106896,-2.0894496,-2.4477775,-3.8498764,-9.433155,-4.5394063
0.39447495,4.484508,4.106896,-2.0894496,-2.4477775,-3.8498764,-9.433155,-4.5394063
0.39240813,4.4896307,4.159094,-2.0724053,-2.578805,-3.9312792,-9.557653,-4.4005427
0.3903298,4.494743,4.159094,-2.0724053,-2.578805,-3.9312792,-9.557653,-4.4005427
0.38813865,4.499887,4.199574,-2.055361,-2.6736135,-3.8833952,-9.68694,-4.280833
0.38593626,4.505019,4.199574,-2.055361,-2.6736135,-3.8833952,-9.68694,-4.280833
0.38365257,4.5101705,4.2294016,-2.0393822,-2.7385948,-3.8833952,-9.816227,-4.1802764
0.3813577,4.5153093,4.2294016,-2.0393822,-2.7385948,-3.8833952,-9.816227,-4.1802764
0.3790172,4.5204563,4.251772,-2.0255337,-2.771618,-3.9600096,-9.950302,-4.1036615
0.37666556,4.5255914,4.251772,-2.0255337,-2.771618,-3.9600096,-9.950302,-4.1036615
0.37429404,4.5307283,4.2698817,-2.0106199,-2.775879,-3.964798,-10.04607,-3.8738184
0.37191153,4.5358543,4.2698817,-2.0106199,-2.775879,-3.964798,-10.04607,-3.8738184
0.369534,4.5409803,4.286926,-1.9999673,-2.756704,-3.964798,-10.103531,-3.6966474
0.3671459,4.546095,4.286926,-1.9999673,-2.756704,-3.964798,-10.103531,-3.6966474
0.36478192,4.551211,4.30397,-1.9946411,-2.715159,-3.8642416,-10.1226845,-3.5817258
0.36240736,4.556316,4.30397,-1.9946411,-2.715159,-3.8642416,-10.1226845,-3.5817258
0.36007276,4.5614243,4.3220797,-1.9925104,-2.655504,-3.7062242,-10.127473,-3.4620156
0.35772806,4.566522,4.3220797,-1.9925104,-2.655504,-3.7062242,-10.127473,-3.4620156
0.35544068,4.5716233,4.3391237,-1.9935757,-2.5798702,-3.572149,-10.132261,-3.3279405
0.3531459,4.576709,4.3391237,-1.9935757,-2.5798702,-3.572149,-10.132261,-3.3279405
0.35091695,4.58181,4.356168,-1.9978368,-2.4925187,-3.5051112,-10.223241,-3.1172507
0.34868068,4.5868955,4.356168,-1.9978368,-2.4925187,-3.5051112,-10.223241,-3.1172507
0.3465244,4.5919876,4.3742776,-2.0010326,-2.3945143,-3.4141316,-10.290278,-2.920926
0.34436092,4.597065,4.3742776,-2.0010326,-2.3945143,-3.4141316,-10.290278,-2.920926
0.34228978,4.602154,4.393452,-2.003163,-2.2879877,-3.3614593,-10.237606,-2.858677
0.3402074,4.607238,4.393452,-2.003163,-2.2879877,-3.3614593,-10.237606,-2.858677
0.33822617,4.6123247,4.4136925,-2.003163,-2.1750698,-3.2752678,-10.180145,-2.815581
0.33617994,4.617545,4.4136925,-2.003163,-2.1750698,-3.2752678,-10.180145,-2.815581
0.3343464,4.622482,4.427541,-2.0020978,-2.058956,-3.169923,-10.0269165,-2.8778305
0.33244717,4.627563,4.427541,-2.0020978,-2.058956,-3.169923,-10.0269165,-2.8778305
0.33064774,4.6326385,4.437128,-2.0010326,-1.9407116,-2.906561,-9.835381,-2.753332
0.32882655,4.6377416,4.437128,-2.0010326,-1.9407116,-2.906561,-9.835381,-2.753332
0.32712588,4.6427584,4.437128,-1.9946411,-1.8235325,-2.566584,-9.586384,-2.6431987
0.32540423,4.6478033,4.437128,-1.9946411,-1.8235325,-2.566584,-9.586384,-2.6431987
0.32377616,4.6528215,4.4264755,-1.9807925,-1.7095492,-2.3175871,-9.457097,-2.4708161
0.32213804,4.657837,4.4264755,-1.9807925,-1.7095492,-2.3175871,-9.457097,-2.4708161
0.3205817,4.6628256,4.406235,-1.9573568,-1.5998269,-1.9536686,-9.174581,-2.255338
0.3190186,4.6678033,4.406235,-1.9573568,-1.5998269,-1.9536686,-9.174581,-2.255338
0.3190186,4.6678033,4.375343,-1.9243336,-1.4954311,-1.7286136,-8.896853,-2.0494366
0.3160762,4.6775756,4.375343,-1.9243336,-1.4954311,-1.7286136,-8.896853,-2.0494366
0.3145786,4.6827135,4.3337975,-1.8817229,-1.4006225,-1.4077905,-8.604761,-1.7717092
0.31307718,4.68783,4.3337975,-1.8817229,-1.4006225,-1.4077905,-8.604761,-1.7717092
0.31180286,4.6922784,4.2805343,-1.829525,-1.3185972,-1.0965444,-8.389283,-1.4460979
0.31034252,4.6973443,4.2805343,-1.829525,-1.3185972,-1.0965444,-8.389283,-1.4460979
0.30904433,4.7019258,4.2155533,-1.7688049,-1.245094,-0.641646,-7.929596,-1.1444284
0.30756596,4.7071085,4.2155533,-1.7688049,-1.245094,-0.641646,-7.929596,-1.1444284
0.30640686,4.711196,4.134593,-1.700628,-1.1865044,0.29209262,-7.479486,-0.8858546
0.30454296,4.717718,4.134593,-1.700628,-1.1865044,0.29209262,-7.479486,-0.8858546
0.3032427,4.722264,4.033393,-1.6154069,-1.1396327,1.0486604,-6.7803793,-0.8523358
0.30250156,4.7248416,4.033393,-1.6154069,-1.1396327,1.0486604,-6.7803793,-0.8523358
0.30124745,4.7291336,3.9066265,-1.511011,-1.1098053,2.0111294,-6.066907,-0.90021986
0.29997826,4.733451,3.9066265,-1.511011,-1.1098053,2.0111294,-6.066907,-0.90021986
0.29871225,4.737587,3.747902,-1.3885056,-1.1002179,2.7581203,-5.3103395,-0.8475474
0.29744184,4.7417154,3.747902,-1.3885056,-1.1002179,2.7581203,-5.3103395,-0.8475474
0.29616177,4.7456083,3.5550892,-1.2468253,-1.1098053,2.858677,-4.7070007,-0.7038953
0.29486555,4.749533,3.5550892,-1.2468253,-1.1098053,2.858677,-4.7070007,-0.7038953
0.29356512,4.7531343,3.3313837,-1.0891662,-1.1375022,2.7150247,-4.3143516,-0.320823
0.2922502,4.7567616,3.3313837,-1.0891662,-1.1375022,2.7150247,-4.3143516,-0.320823
0.29091167,4.760105,3.0853076,-0.92724603,-1.1694602,2.3942018,-4.156334,0.17238252
0.28956455,4.7634587,3.0853076,-0.92724603,-1.1694602,2.3942018,-4.156334,0.17238252
0.2882073,4.7665014,2.825383,-0.7685216,-1.2003528,2.1643584,-4.084508,0.6464345
0.28684488,4.7695475,2.825383,-0.7685216,-1.2003528,2.1643584,-4.084508,0.6464345
0.28546742,4.7723026,2.560132,-0.6215151,-1.2269844,2.030283,-4.237737,1.0486604
0.28408813,4.775055,2.560132,-0.6215151,-1.2269844,2.030283,-4.237737,1.0486604
0.28270856,4.7775044,2.2959466,-0.48409602,-1.2461592,1.8435353,-4.4244847,1.3790601
0.2813249,4.779957,2.2959466,-0.48409602,-1.2461592,1.8435353,-4.4244847,1.3790601
0.27992266,4.782153,2.040283,-0.3583948,-1.2589424,1.7525556,-4.8362875,1.6998832
0.2785459,4.7843075,2.040283,-0.3583948,-1.2589424,1.7525556,-4.8362875,1.6998832
0.27717325,4.7861934,1.798468,-0.24973783,-1.2621381,1.6472107,-5.1906295,1.8339585
0.27579606,4.788084,1.798468,-0.24973783,-1.2621381,1.6472107,-5.1906295,1.8339585
0.27443412,4.7897224,1.5705014,-0.1517335,-1.2546813,1.6136919,-5.2528787,1.9249382
0.27307588,4.7913547,1.5705014,-0.1517335,-1.2546813,1.6136919,-5.2528787,1.9249382
0.27174005,4.792758,1.3553181,-0.06544708,-1.2355065,1.6567876,-5.3678,2.1068976
0.27040675,4.794158,1.3553181,-0.06544708,-1.2355065,1.6567876,-5.3678,2.1068976
0.26911187,4.795327,1.1475915,0.016578285,-1.201418,1.4700398,-5.281609,1.9297266
0.2678195,4.796494,1.1475915,0.016578285,-1.201418,1.4700398,-5.281609,1.9297266
0.26656756,4.797437,0.94625646,0.086885735,-1.156677,2.0254946,-5.1666875,1.8579005
0.2653181,4.7983785,0.94625646,0.086885735,-1.156677,2.0254946,-5.1666875,1.8579005
0.26412684,4.799101,0.747052,0.1508016,-1.1066096,2.6671407,-4.793192,1.9536686
0.26293328,4.799824,0.747052,0.1508016,-1.1066096,2.6671407,-4.793192,1.9536686
0.2618086,4.8003244,0.541456,0.22537012,-1.0469548,2.4468741,-4.462792,1.8866309
0.26068622,4.800824,0.541456,0.22537012,-1.0469548,2.4468741,-4.462792,1.8866309
0.2596464,4.801097,0.32627258,0.31059128,-0.9734515,1.9776106,-4.1419687,1.9249382
0.2586098,4.8013687,0.32627258,0.31059128,-0.9734515,1.9776106,-4.1419687,1.9249382
0.25767407,4.801408,0.102567025,0.38622504,-0.88716507,1.7381904,-3.9983168,2.1930888
0.25674203,4.801447,0.102567025,0.38622504,-0.88716507,1.7381904,-3.9983168,2.1930888
0.25591502,4.801245,-0.12539956,0.45227146,-0.78596497,1.7812861,-4.0078936,2.336741
0.25508964,4.8010445,-0.12539956,0.45227146,-0.78596497,1.7812861,-4.0078936,2.336741
0.25438341,4.8006,-0.35656196,0.51299155,-0.6730469,1.9153614,-4.1371803,2.5187001
0.253677,4.8001566,-0.35656196,0.51299155,-0.6730469,1.9153614,-4.1371803,2.5187001
0.25309798,4.79947,-0.5855938,0.57584214,-0.5505415,2.1260512,-4.3047748,2.6910827
0.2525192,4.7987847,-0.5855938,0.57584214,-0.5505415,2.1260512,-4.3047748,2.6910827
0.2520678,4.7978544,-0.81142986,0.6429538,-0.4216445,2.3127987,-4.357447,2.5330653
0.25161642,4.796925,-0.81142986,0.6429538,-0.4216445,2.3127987,-4.357447,2.5330653
0.2512926,4.7957487,-1.0372659,0.716457,-0.29168224,2.4708161,-4.4005427,2.2409728
0.25096816,4.7945733,-1.0372659,0.716457,-0.29168224,2.4708161,-4.4005427,2.2409728
0.25077453,4.7931504,-1.2620368,0.7974171,-0.15958944,2.336741,-4.3957543,1.8962077
0.2505798,4.791728,-1.2620368,0.7974171,-0.15958944,2.336741,-4.3957543,1.8962077
0.250522,4.790057,-1.4889381,0.8794425,-0.025366118,2.2840683,-4.429273,1.7908629
0.25046283,4.7883887,-1.4889381,0.8794425,-0.025366118,2.2840683,-4.429273,1.7908629
0.25054848,4.7864814,-1.7169046,0.96146786,0.11098773,2.2457612,-4.5058875,1.982399
0.2506328,4.784569,-1.7169046,0.96146786,0.11098773,2.2457612,-4.5058875,1.982399
0.25085413,4.7824116,-1.9438059,1.0445585,0.24201526,2.2170308,-4.5872903,2.0829554
0.25107294,4.7802587,-1.9438059,1.0445585,0.24201526,2.2170308,-4.5872903,2.0829554
0.25142413,4.7778606,-2.1664462,1.1265838,0.36878175,2.2218192,-4.7309427,2.207454
0.25177217,4.7754674,-2.1664462,1.1265838,0.36878175,2.2218192,-4.7309427,2.207454
0.25224784,4.7728353,-2.386956,1.207544,0.49341768,2.1499932,-4.8985367,2.2697031
0.25272188,4.770197,-2.386956,1.207544,0.49341768,2.1499932,-4.8985367,2.2697031
0.2533172,4.7673287,-2.6021395,1.2863735,0.6127273,2.15957,-5.2145715,2.4277205
0.25391003,4.7644563,-2.6021395,1.2863735,0.6127273,2.15957,-5.2145715,2.4277205
0.2546148,4.7613564,-2.8119965,1.3683989,0.72671056,1.8195933,-5.3725886,2.2409728
0.25531536,4.758259,-2.8119965,1.3683989,0.72671056,1.8195933,-5.3725886,2.2409728
0.25612658,4.75493,-3.0165274,1.4472284,0.8385634,1.3982137,-5.7748146,2.0638018
0.25693277,4.7516036,-3.0165274,1.4472284,0.8385634,1.3982137,-5.7748146,2.0638018
0.25784162,4.748069,-3.213601,1.5132748,0.9461551,1.2737153,-6.019023,2.0207062
0.2587486,4.744521,-3.213601,1.5132748,0.9461551,1.2737153,-6.019023,2.0207062
0.259754,4.7407675,-3.4042835,1.5729296,1.0537468,1.0726024,-6.3589997,1.8148049
0.2607533,4.7370157,-3.4042835,1.5729296,1.0537468,1.0726024,-6.3589997,1.8148049
0.26185822,4.7330546,-3.586444,1.6272582,1.1602732,0.89543146,-6.7612257,1.8148049
0.26295415,4.7291026,-3.586444,1.6272582,1.1602732,0.89543146,-6.7612257,1.8148049
0.2641505,4.724959,-3.7579513,1.6773256,1.2657344,0.80445176,-7.321469,1.8435353
0.2653407,4.720813,-3.7579513,1.6773256,1.2657344,0.80445176,-7.321469,1.8435353
