Pitch,Roll,Gyro_X,Gyro_Y,Gyro_Z,Accel_X,Accel_Y,Accel_Z
0.14217795,4.5716248,0.70763725,0.24561015,-0.56012887,2.542642,-2.6767175,3.2034419
0.14152347,4.5723906,0.70763725,0.24561015,-0.56012887,2.542642,-2.6767175,3.2034419
0.14094016,4.572731,0.31988096,0.33828816,-0.50580037,2.2649148,-3.1364043,3.3087866
0.14035036,4.5730762,0.31988096,0.33828816,-0.50580037,2.2649148,-3.1364043,3.3087866
0.13981298,4.573022,-0.07000581,0.42990088,-0.43762347,2.0685902,-3.7732618,3.347094
0.139273,4.572968,-0.07000581,0.42990088,-0.43762347,2.0685902,-3.7732618,3.347094
0.13880928,4.5725217,-0.45243576,0.5161873,-0.35346758,1.9632454,-4.4101195,3.4476504
0.1383445,4.572075,-0.45243576,0.5161873,-0.35346758,1.9632454,-4.4101195,3.4476504
0.1379621,4.571248,-0.82101727,0.5950169,-0.25759378,1.934515,-5.0661306,3.4811692
0.13758065,4.5704236,-0.82101727,0.5950169,-0.25759378,1.934515,-5.0661306,3.4811692
0.13728693,4.569229,-1.1757504,0.66745484,-0.15213259,2.0207062,-5.5737014,3.2752678
0.13699149,4.5680294,-1.1757504,0.66745484,-0.15213259,2.0207062,-5.5737014,3.2752678
0.13679439,4.5664883,-1.5155697,0.73563176,-0.04241035,1.8195933,-6.042965,3.0071173
0.1365981,4.564959,-1.5155697,0.73563176,-0.04241035,1.8195933,-6.042965,3.0071173
0.13649894,4.563075,-1.8404753,0.7974171,0.06944242,1.6041151,-6.38773,2.7006595
0.13639905,4.561202,-1.8404753,0.7974171,0.06944242,1.6041151,-6.38773,2.7006595
0.13640024,4.559013,-2.1504674,0.85068035,0.18342571,1.388637,-6.6606693,2.327164
0.1363997,4.55682,-2.1504674,0.85068035,0.18342571,1.388637,-6.6606693,2.327164
0.13650805,4.5543246,-2.4476762,0.89861727,0.29847428,0.89064306,-7.0245876,2.0207062
0.13783227,4.539404,-2.9920263,0.9689247,0.53602827,0.20111294,-7.809886,1.5562311
0.13783227,4.539404,-2.9920263,0.9689247,0.53602827,0.20111294,-7.809886,1.5562311
0.13783227,4.539404,-2.9920263,0.9689247,0.53602827,0.20111294,-7.809886,1.5562311
0.13783227,4.539404,-2.9920263,0.9689247,0.53602827,0.20111294,-7.809886,1.5562311
0.13783227,4.539404,-2.9920263,0.9689247,0.53602827,0.20111294,-7.809886,1.5562311
0.1382317,4.536393,-3.232776,0.99023,0.6564031,0.110133275,-8.312668,1.3742718
0.13865127,4.533207,-3.232776,0.99023,0.6564031,0.110133275,-8.312668,1.3742718
0.13917442,4.529764,-3.45009,0.9998174,0.77038646,0.12928689,-8.7532015,1.0295067
0.13974506,4.525982,-3.45009,0.9998174,0.77038646,0.12928689,-8.7532015,1.0295067
0.1403103,4.5226216,-3.6407723,1.0030131,0.87584764,0.1388637,-9.232041,0.7661445
0.14092262,4.5189595,-3.6407723,1.0030131,0.87584764,0.1388637,-9.232041,0.7661445
0.1416274,4.5150785,-3.8037577,0.9998174,0.97065616,0.110133275,-9.739613,0.45010993
0.14232762,4.5112004,-3.8037577,0.9998174,0.97065616,0.110133275,-9.739613,0.45010993
0.14309642,4.507215,-3.9401116,0.9934258,1.0548121,-0.0047884034,-10.189722,0.08140286
0.1438673,4.5031967,-3.9401116,0.9934258,1.0548121,-0.0047884034,-10.189722,0.08140286
0.14470088,4.499059,-4.046638,0.9806426,1.1272501,-0.0047884034,-10.55843,-0.25378537
0.14553042,4.494921,-4.046638,0.9806426,1.1272501,-0.0047884034,-10.55843,-0.25378537
0.14641082,4.490679,-4.1233373,0.9646636,1.1901007,0.095768064,-10.79785,-0.6464345
0.14728878,4.4864273,-4.1233373,0.9646636,1.1901007,0.095768064,-10.79785,-0.6464345
0.14819776,4.4821987,-4.1723394,0.94761944,1.2391028,-0.16759412,-11.018116,-0.9576807
0.14911221,4.4779263,-4.1723394,0.94761944,1.2391028,-0.16759412,-11.018116,-0.9576807
0.15006867,4.473632,-4.1968403,0.92737937,1.2785176,-0.5267244,-11.262324,-1.2689269
0.15102135,4.4693365,-4.1968403,0.92737937,1.2785176,-0.5267244,-11.262324,-1.2689269
0.15202191,4.465046,-4.1979055,0.90500885,1.3136714,-0.93852705,-11.401189,-1.484405
0.15301847,4.460754,-4.1979055,0.90500885,1.3136714,-0.93852705,-11.401189,-1.484405
0.15405004,4.4564867,-4.1766005,0.8762467,1.3413682,-1.1683705,-11.626244,-1.7238252
0.15507738,4.452218,-4.1766005,0.8762467,1.3413682,-1.1683705,-11.626244,-1.7238252
0.15613498,4.4479914,-4.1371856,0.84215826,1.3679998,-1.3120226,-11.7268,-1.9919758
0.15718853,4.443763,-4.1371856,0.84215826,1.3679998,-1.3120226,-11.7268,-1.9919758
0.1582575,4.439588,-4.081792,0.8070045,1.3956966,-1.3120226,-11.803414,-2.3511062
0.15932773,4.4353952,-4.081792,0.8070045,1.3956966,-1.3120226,-11.803414,-2.3511062
0.1604057,4.4312997,-4.0125494,0.768655,1.4191325,-1.3838485,-11.856087,-2.6719291
0.1614838,4.427195,-4.0125494,0.768655,1.4191325,-1.3838485,-11.856087,-2.6719291
0.1625699,4.4231586,-3.9347854,0.7281749,1.4383073,-1.3503298,-11.923124,-2.896984
0.16365598,4.4191184,-3.9347854,0.7281749,1.4383073,-1.3503298,-11.923124,-2.896984
0.164746,4.415158,-3.8506293,0.6844991,1.4553515,-1.3024458,-11.9374895,-3.107674
0.16583557,4.411198,-3.8506293,0.6844991,1.4553515,-1.3024458,-11.9374895,-3.107674
0.1669394,4.4073257,-3.7622125,0.6429538,1.4691999,-1.2785037,-11.9135475,-3.2034419
0.16804169,4.4034576,-3.7622125,0.6429538,1.4691999,-1.2785037,-11.9135475,-3.2034419
0.16914473,4.3996625,-3.6705997,0.60566956,1.4766568,-1.2401965,-11.870452,-3.3901896
0.17024526,4.3958774,-3.6705997,0.60566956,1.4766568,-1.2401965,-11.870452,-3.3901896
0.17134672,4.3921685,-3.5768564,0.5737116,1.4798526,-1.2785037,-11.803414,-3.5529952
0.17244568,4.3884697,-3.5768564,0.5737116,1.4798526,-1.2785037,-11.803414,-3.5529952
0.17354259,4.384852,-3.4820478,0.5438842,1.4798526,-1.292869,-11.731588,-3.6966474
0.17464,4.381233,-3.4820478,0.5438842,1.4798526,-1.292869,-11.731588,-3.6966474
0.175727,4.377699,-3.386174,0.51725256,1.4734609,-1.292869,-11.722012,-3.8738184
0.17681168,4.374172,-3.386174,0.51725256,1.4734609,-1.292869,-11.722012,-3.8738184
0.17788623,4.3707185,-3.2871044,0.49062097,1.4617431,-1.3790601,-11.592725,-4.0557775
0.17895812,4.36727,-3.2871044,0.49062097,1.4617431,-1.3790601,-11.592725,-4.0557775
0.18002069,4.363899,-3.1901655,0.4629241,1.4446988,-1.2593501,-11.530476,-4.237737
0.18107921,4.3605328,-3.1901655,0.4629241,1.4446988,-1.2593501,-11.530476,-4.237737
0.18212254,4.3572555,-3.0921612,0.43522722,1.4191325,-1.1779473,-11.415554,-4.3478703
0.18316166,4.353982,-3.0921612,0.43522722,1.4191325,-1.1779473,-11.415554,-4.3478703
0.18417905,4.350792,-2.9962873,0.41072613,1.3839787,-1.1923125,-11.233594,-4.4675803
0.18519178,4.347605,-2.9962873,0.41072613,1.3839787,-1.1923125,-11.233594,-4.4675803
0.18618543,4.34449,-2.902544,0.39155138,1.344564,-1.1587936,-10.912771,-4.620809
0.18717168,4.341383,-2.902544,0.39155138,1.344564,-1.1587936,-10.912771,-4.620809
0.18813388,4.3383474,-2.814127,0.37450713,1.2976923,-1.0295067,-10.46745,-4.7788267
0.18909098,4.3353133,-2.814127,0.37450713,1.2976923,-1.0295067,-10.46745,-4.7788267
0.19005339,4.332223,-2.7352974,0.36278924,1.2433639,-0.7613561,-10.0269165,-5.118803
0.19094408,4.329349,-2.7352974,0.36278924,1.2433639,-0.7613561,-10.0269165,-5.118803
0.1918045,4.3264704,-2.6735122,0.3574629,1.179448,-0.5602432,-9.562442,-5.3582234
0.19266991,4.3235617,-2.6735122,0.3574629,1.179448,-0.5602432,-9.562442,-5.3582234
0.19347446,4.3207006,-2.6298363,0.3574629,1.10701,-0.5506664,-9.227253,-5.544971
0.19427723,4.317833,-2.6298363,0.3574629,1.10701,-0.5506664,-9.227253,-5.544971
0.1950105,4.3149853,-2.608531,0.36278924,1.0271151,-0.63206923,-8.983045,-5.6359506
0.19573982,4.3121405,-2.608531,0.36278924,1.0271151,-0.63206923,-8.983045,-5.6359506
0.19639376,4.3092995,-2.6010742,0.37344187,0.9397635,-0.7661445,-8.78672,-5.765238
0.19704463,4.3064575,-2.6010742,0.37344187,0.9397635,-0.7661445,-8.78672,-5.765238
0.19762184,4.3036013,-2.608531,0.38622504,0.8524118,-0.9768343,-8.556877,-5.803545
0.19819723,4.3007393,-2.608531,0.38622504,0.8524118,-0.9768343,-8.556877,-5.803545
0.19870135,4.2977905,-2.6266406,0.39581242,0.76292956,-1.0534488,-8.513782,-5.889736
0.199182,4.294962,-2.6266406,0.39581242,0.76292956,-1.0534488,-8.513782,-5.889736
0.19956711,4.2921257,-2.6511416,0.40433455,0.67770845,-0.7517793,-8.470686,-5.9280434
0.19995499,4.289249,-2.6511416,0.40433455,0.67770845,-0.7517793,-8.470686,-5.9280434
0.20025378,4.286348,-2.6799037,0.41392192,0.59355253,-0.51235914,-8.451532,-6.0621185
0.2005504,4.283441,-2.6799037,0.41392192,0.59355253,-0.51235914,-8.451532,-6.0621185
0.20076264,4.28051,-2.709731,0.42990088,0.5093966,-0.39743748,-8.341399,-6.277597
0.20097299,4.27757,-2.709731,0.42990088,0.5093966,-0.39743748,-8.341399,-6.277597
0.20110066,4.274617,-2.7395585,0.44907564,0.43056706,-0.36391866,-8.360553,-6.373365
0.20122597,4.27166,-2.7395585,0.44907564,0.43056706,-0.36391866,-8.360553,-6.373365
0.20127705,4.268674,-2.76619,0.47251147,0.3549333,-0.4405331,-8.274361,-6.5457473
0.20132564,4.2656913,-2.76619,0.47251147,0.3549333,-0.4405331,-8.274361,-6.5457473
0.20130597,4.2626815,-2.7885606,0.4991431,0.2856911,-0.5602432,-8.236053,-6.789956
0.20128404,4.2596774,-2.7885606,0.4991431,0.2856911,-0.5602432,-8.236053,-6.789956
0.20119719,4.2566404,-2.8077354,0.52684,0.22497103,-0.58897364,-8.231265,-7.0581064
0.201108,4.2536044,-2.8077354,0.52684,0.22497103,-0.58897364,-8.231265,-7.0581064
0.20096199,4.2505555,-2.8247797,0.5556021,0.17703412,-0.56982,-8.269572,-7.240066
0.20081398,4.2475133,-2.8247797,0.5556021,0.17703412,-0.56982,-8.269572,-7.240066
0.20061782,4.2444506,-2.8364975,0.5854295,0.13974987,-0.5506664,-8.307879,-7.4363904
0.20041987,4.241398,-2.8364975,0.5854295,0.13974987,-0.5506664,-8.307879,-7.4363904
0.2001826,4.2383204,-2.8471503,0.6173874,0.11098773,-0.62249243,-8.259995,-7.517793
0.19994308,4.235244,-2.8471503,0.6173874,0.11098773,-0.62249243,-8.259995,-7.517793
0.19966917,4.2321577,-2.8524766,0.6536064,0.0939435,-0.60812724,-8.317456,-7.6135616
0.19939288,4.229072,-2.8524766,0.6536064,0.0939435,-0.60812724,-8.317456,-7.6135616
0.19909619,4.2259746,-2.8567376,0.6898254,0.08648665,-0.7278373,-8.202535,-7.656657
0.19879678,4.2228746,-2.8567376,0.6898254,0.08648665,-0.7278373,-8.202535,-7.656657
0.19848347,4.2197695,-2.8609986,0.7260444,0.089682445,-0.78050977,-8.183381,-7.6949644
0.19816719,4.2166624,-2.8609986,0.7260444,0.089682445,-0.78050977,-8.183381,-7.6949644
0.19782399,4.2135525,-2.8631291,0.7633287,0.10033509,-0.47884035,-8.513782,-7.513005
0.19747822,4.2104464,-2.8631291,0.7633287,0.10033509,-0.47884035,-8.513782,-7.513005
0.19713213,4.207326,-2.862064,0.8038087,0.12164038,-0.7182605,-8.6334915,-7.369353
0.19678333,4.2042103,-2.862064,0.8038087,0.12164038,-0.7182605,-8.6334915,-7.369353
0.19642255,4.201105,-2.8535419,0.8464193,0.15253304,-0.6895301,-9.059659,-7.015011
0.19605753,4.197995,-2.8535419,0.8464193,0.15253304,-0.6895301,-9.059659,-7.015011
0.19569123,4.194904,-2.834367,0.8911604,0.18875204,-0.94331545,-9.471462,-6.7468605
0.19532089,4.1918144,-2.834367,0.8911604,0.18875204,-0.94331545,-9.471462,-6.7468605
0.19496456,4.188751,-2.8002787,0.92950994,0.23136261,-1.2593501,-9.749189,-6.6175733
0.19460358,4.18569,-2.8002787,0.92950994,0.23136261,-1.2593501,-9.749189,-6.6175733
0.19425291,4.182685,-2.7502112,0.9550763,0.27929953,-1.4700398,-10.01734,-6.3925185
0.19389667,4.179683,-2.7502112,0.9550763,0.27929953,-1.4700398,-10.01734,-6.3925185
0.1935519,4.1767817,-2.6862953,0.96998996,0.33256274,-1.5849615,-10.376471,-6.2345014
0.19320305,4.173887,-2.6862953,0.96998996,0.33256274,-1.5849615,-10.376471,-6.2345014
0.1929015,4.1711097,-2.608531,0.97425103,0.3879565,-1.5705963,-10.553641,-6.05733
0.19261251,4.168457,-2.608531,0.97425103,0.3879565,-1.5705963,-10.553641,-6.05733
0.19236632,4.165701,-2.5137224,0.9667942,0.43695867,-1.484405,-10.793061,-5.875371
0.19212927,4.1630516,-2.5137224,0.9667942,0.43695867,-1.484405,-10.793061,-5.875371
0.19193703,4.1605134,-2.402935,0.95294577,0.4838303,-1.3790601,-10.879252,-5.8801594
0.19174455,4.1579795,-2.402935,0.95294577,0.4838303,-1.3790601,-10.879252,-5.8801594
0.1916016,4.1555686,-2.2751033,0.9327057,0.5275061,-1.3215994,-10.807426,-5.765238
0.19145848,4.153167,-2.2751033,0.9327057,0.5275061,-1.3215994,-10.807426,-5.765238
0.19136176,4.1509075,-2.1344883,0.9060741,0.56479037,-1.283292,-10.788273,-5.7029886
0.19126406,4.148643,-2.1344883,0.9060741,0.56479037,-1.283292,-10.788273,-5.7029886
0.1912176,4.1465454,-1.9832208,0.8741162,0.59355253,-1.3359646,-10.807426,-5.568913
0.19117011,4.1444464,-1.9832208,0.8741162,0.59355253,-1.3359646,-10.807426,-5.568913
0.191161,4.1425133,-1.8202354,0.8357667,0.61698836,-1.1923125,-10.702082,-5.401319
0.19115092,4.140581,-1.8202354,0.8357667,0.61698836,-1.1923125,-10.702082,-5.401319
0.19117716,4.1388235,-1.6455319,0.7910255,0.6329673,-1.091756,-10.654198,-5.2863975
0.19120231,4.1370773,-1.6455319,0.7910255,0.6329673,-1.091756,-10.654198,-5.2863975
0.19125944,4.1355143,-1.4633718,0.7462844,0.64148945,-0.9959879,-10.5919485,-5.12838
0.1913157,4.133951,-1.4633718,0.7462844,0.64148945,-0.9959879,-10.5919485,-5.12838
0.19139911,4.132585,-1.2737546,0.6994128,0.64361995,-0.92895025,-10.520123,-5.00867
0.19148187,4.131219,-1.2737546,0.6994128,0.64361995,-0.92895025,-10.520123,-5.00867
0.19158523,4.1300564,-1.0788113,0.6514759,0.6393589,-0.91937345,-10.366894,-4.9799395
0.19169077,4.1288624,-1.0788113,0.6514759,0.6393589,-0.91937345,-10.366894,-4.9799395
0.1918118,4.127931,-0.8849331,0.6003432,0.6265757,-0.93373865,-10.338163,-4.8458643
0.1919358,4.126973,-0.8849331,0.6003432,0.6265757,-0.93373865,-10.338163,-4.8458643
0.19207846,4.1262226,-0.691055,0.5428189,0.60740095,-0.92416185,-10.31901,-4.7165775
0.19222085,4.125471,-0.691055,0.5428189,0.60740095,-0.92416185,-10.31901,-4.7165775
0.19237927,4.1249266,-0.49717686,0.4799683,0.5797041,-0.8810662,-10.409989,-4.5202527
0.19253752,4.124382,-0.49717686,0.4799683,0.5797041,-0.8810662,-10.409989,-4.5202527
0.19271144,4.124051,-0.30010295,0.41392192,0.5456156,-0.89064306,-10.67814,-4.2760444
0.19288513,4.123719,-0.30010295,0.41392192,0.5456156,-0.89064306,-10.67814,-4.2760444
0.19306785,4.1236033,-0.09983322,0.34681025,0.50620085,-0.89064306,-10.97502,-4.1036615
0.19325045,4.1234875,-0.09983322,0.34681025,0.50620085,-0.89064306,-10.97502,-4.1036615
0.19343874,4.123591,0.10363229,0.27543753,0.462525,-0.8283938,-11.233594,-3.8977604
0.19362679,4.123694,0.10363229,0.27543753,0.462525,-0.8283938,-11.233594,-3.8977604
0.19381544,4.124022,0.31029359,0.2019343,0.4092618,-0.8523358,-11.463438,-3.7301662
0.19400397,4.1243496,0.31029359,0.2019343,0.4092618,-0.8523358,-11.463438,-3.7301662
0.1941909,4.1249094,0.52441174,0.12523526,0.3549333,-0.8571242,-11.645397,-3.691859
0.1941909,4.1249094,0.52441174,0.12523526,0.3549333,-0.8571242,-11.645397,-3.691859
0.19456604,4.126183,0.74279094,0.04427516,0.2942132,-0.82360536,-11.750742,-3.6391866
0.1947466,4.126978,0.74279094,0.04427516,0.2942132,-0.82360536,-11.750742,-3.6391866
0.194937,4.1281185,0.9654312,-0.040945996,0.2260363,-0.80445176,-11.8896055,-3.4284968
0.19509485,4.1290646,0.9654312,-0.040945996,0.2260363,-0.80445176,-11.8896055,-3.4284968
0.19509485,4.1290646,1.1944631,-0.13042821,0.15359831,-0.80445176,-11.870452,-3.2034419
0.19542843,4.1316824,1.1944631,-0.13042821,0.15359831,-0.80445176,-11.870452,-3.2034419
0.19559361,4.1333714,1.4298866,-0.22523674,0.075834006,-0.7661445,-11.841722,-3.0693667
0.1957296,4.1347656,1.4298866,-0.22523674,0.075834006,-0.7661445,-11.841722,-3.0693667
0.19586104,4.13653,1.6717016,-0.3221758,-0.006191358,-0.7182605,-11.712435,-2.906561
0.19599575,4.1383476,1.6717016,-0.3221758,-0.006191358,-0.7182605,-11.712435,-2.906561
0.1961114,4.140437,1.9156471,-0.4191149,-0.092477776,-0.78529817,-11.511322,-2.8634653
0.1962277,4.1425557,1.9156471,-0.4191149,-0.092477776,-0.78529817,-11.511322,-2.8634653
0.19632839,4.145095,2.160658,-0.5181845,-0.18515578,-0.9768343,-11.463438,-2.777274
0.19641267,4.1472535,2.160658,-0.5181845,-0.18515578,-0.9768343,-11.463438,-2.777274
0.19647798,4.149878,2.406734,-0.6193846,-0.28102958,-0.9816227,-11.405977,-2.5761611
0.19654167,4.152516,2.406734,-0.6193846,-0.28102958,-0.9816227,-11.405977,-2.5761611
0.196579,4.1554146,2.648549,-0.72484577,-0.37583813,-0.9864111,-11.353305,-2.5330653
0.19661379,4.1583195,2.648549,-0.72484577,-0.37583813,-0.9864111,-11.353305,-2.5330653
0.19662312,4.1614957,2.889299,-0.8313722,-0.46532035,-0.8810662,-11.247959,-2.528277
0.19662914,4.164694,2.889299,-0.8313722,-0.46532035,-0.8810662,-11.247959,-2.528277
0.19661136,4.16828,3.1247222,-0.9368334,-0.552672,-0.8810662,-11.171345,-2.480393
0.1965908,4.1716123,3.1247222,-0.9368334,-0.552672,-0.8810662,-11.171345,-2.480393
0.19654521,4.1752386,3.3558848,-1.0412294,-0.63895845,-0.89543146,-11.137826,-2.5617957
0.19649412,4.178917,3.3558848,-1.0412294,-0.63895845,-0.89543146,-11.137826,-2.5617957
0.19641945,4.18287,3.5838513,-1.1498863,-0.7252449,-0.9672575,-11.171345,-2.6288335
0.19633907,4.1868143,3.5838513,-1.1498863,-0.7252449,-0.9672575,-11.171345,-2.6288335
0.19623832,4.1910224,3.8107526,-1.2638696,-0.80940074,-1.0726024,-11.21444,-2.719813
0.19613089,4.195222,3.8107526,-1.2638696,-0.80940074,-1.0726024,-11.21444,-2.719813
0.19600458,4.1996856,4.037654,-1.3831792,-0.89036083,-1.1061212,-11.238382,-2.791639
0.19587082,4.2041354,4.037654,-1.3831792,-0.89036083,-1.1061212,-11.238382,-2.791639
0.19572401,4.2088623,4.266686,-1.5067499,-0.96812516,-1.2401965,-11.233594,-2.791639
0.19556858,4.2135787,4.266686,-1.5067499,-0.96812516,-1.2401965,-11.233594,-2.791639
0.19539988,4.2185545,4.496783,-1.6356469,-1.0416284,-1.2306197,-11.247959,-2.825158
0.19522128,4.22352,4.496783,-1.6356469,-1.0416284,-1.2306197,-11.247959,-2.825158
0.19503394,4.2287426,4.731141,-1.7634786,-1.1098053,-1.316811,-11.224017,-2.873042
0.19483425,4.2339854,4.731141,-1.7634786,-1.1098053,-1.316811,-11.224017,-2.873042
0.19463004,4.2394814,4.96763,-1.8881146,-1.1694602,-1.436521,-11.15698,-2.9640217
0.19441244,4.2449875,4.96763,-1.8881146,-1.1694602,-1.436521,-11.15698,-2.9640217
0.19418713,4.250744,5.2041187,-2.0063589,-1.2205929,-1.4556746,-11.123461,-3.1411927
0.19394705,4.256511,5.2041187,-2.0063589,-1.2205929,-1.4556746,-11.123461,-3.1411927
0.1936982,4.262542,5.4374113,-2.1203423,-1.2674645,-1.508347,-10.941502,-3.323152
0.19343375,4.2685585,5.4374113,-2.1203423,-1.2674645,-1.508347,-10.941502,-3.323152
0.19316158,4.2748213,5.6675086,-2.232195,-1.3068793,-1.508347,-10.860099,-3.4524388
0.19287118,4.2810893,5.6675086,-2.232195,-1.3068793,-1.508347,-10.860099,-3.4524388
0.19257669,4.2875977,5.888018,-2.3397868,-1.3388371,-1.4987702,-10.79785,-3.4715924
0.19226234,4.294104,5.888018,-2.3397868,-1.3388371,-1.4987702,-10.79785,-3.4715924
0.19194628,4.3008366,6.095745,-2.4409869,-1.3644035,-1.5227122,-10.692505,-3.4715924
0.19160827,4.3075743,6.095745,-2.4409869,-1.3644035,-1.5227122,-10.692505,-3.4715924
0.19126058,4.314514,6.290688,-2.533665,-1.382513,-1.484405,-10.563218,-3.5338416
0.19088891,4.321443,6.290688,-2.533665,-1.382513,-1.484405,-10.563218,-3.5338416
0.190508,4.328553,6.4685874,-2.614625,-1.3952962,-1.4413095,-10.472239,-3.514688
0.19009909,4.33568,6.4685874,-2.614625,-1.3952962,-1.4413095,-10.472239,-3.514688
0.18965565,4.3429666,6.629442,-2.687063,-1.4059489,-1.3742718,-10.247183,-3.6391866
0.18918459,4.3502054,6.629442,-2.687063,-1.4059489,-1.3742718,-10.247183,-3.6391866
0.18869543,4.357584,6.7679267,-2.7509787,-1.4102099,-1.3934253,-10.070012,-3.6583402
0.18817705,4.364974,6.7679267,-2.7509787,-1.4102099,-1.3934253,-10.070012,-3.6583402
0.18765527,4.372456,6.8904324,-2.804242,-1.4091446,-1.2785037,-9.854534,-3.6104562
0.18711418,4.3799133,6.8904324,-2.804242,-1.4091446,-1.2785037,-9.854534,-3.6104562
0.18657885,4.3874474,6.9916325,-2.8500483,-1.4059489,-1.1875241,-9.691729,-3.6343982
0.18602562,4.394991,6.9916325,-2.8500483,-1.4059489,-1.1875241,-9.691729,-3.6343982
0.18548758,4.402576,7.0704618,-2.8873327,-1.3995572,-1.1204864,-9.452309,-3.715801
0.18493171,4.4101615,7.0704618,-2.8873327,-1.3995572,-1.1204864,-9.452309,-3.715801
0.18438445,4.4177766,7.1301165,-2.91716,-1.3921005,-1.0726024,-9.160215,-3.7684734
0.18381417,4.425433,7.1301165,-2.91716,-1.3921005,-1.0726024,-9.160215,-3.7684734
0.18322255,4.4331126,7.1705966,-2.9405959,-1.3857088,-0.7469909,-8.858546,-3.6966474
0.1826109,4.4407797,7.1705966,-2.9405959,-1.3857088,-0.7469909,-8.858546,-3.6966474
0.18196866,4.4484873,7.191902,-2.953379,-1.3814478,-0.22026655,-8.250419,-3.620033
0.18130542,4.4561825,7.191902,-2.953379,-1.3814478,-0.22026655,-8.250419,-3.620033
0.18059568,4.463885,7.1897717,-2.9501832,-1.3803825,0.6607997,-7.513005,-3.3997664
0.17986347,4.4715815,7.1897717,-2.9501832,-1.3803825,0.6607997,-7.513005,-3.3997664
0.1791416,4.47921,7.1567483,-2.9192905,-1.3771867,0.34955344,-5.8945246,-3.7349546
0.17839773,4.486827,7.1567483,-2.9192905,-1.3771867,0.34955344,-5.8945246,-3.7349546
0.17755036,4.494418,7.0821795,-2.8745494,-1.3846436,2.7150247,-5.6551046,-3.0023289
0.17668101,4.501997,7.0821795,-2.8745494,-1.3846436,2.7150247,-5.6551046,-3.0023289
0.1757517,4.5094595,6.966066,-2.796785,-1.3995572,2.7485435,-5.837064,-2.4516625
0.17480119,4.5169086,6.966066,-2.796785,-1.3995572,2.7485435,-5.837064,-2.4516625
0.17378756,4.5241985,6.8243856,-2.6764102,-1.418732,2.9017725,-5.401319,-2.6192567
0.17275326,4.5314827,6.8243856,-2.6764102,-1.418732,2.9017725,-5.401319,-2.6192567
0.17165683,4.538555,6.663531,-2.5496438,-1.4485594,3.3039982,-3.6583402,-3.0454245
0.17054361,4.5456085,6.663531,-2.5496438,-1.4485594,3.3039982,-3.6583402,-3.0454245
0.16935676,4.552449,6.4600654,-2.4047678,-1.4826479,3.9552212,-2.087744,-3.1986535
0.16815457,4.5592713,6.4600654,-2.4047678,-1.4826479,3.9552212,-2.087744,-3.1986535
0.16689882,4.56578,6.1884227,-2.2289991,-1.507149,3.3997664,-0.6512229,-3.3423057
0.16562733,4.5722847,6.1884227,-2.2289991,-1.507149,3.3997664,-0.6512229,-3.3423057
0.16430208,4.5784388,5.8454075,-2.0404475,-1.5199322,3.9312792,0.062249243,-2.7581203
0.16296566,4.5845766,5.8454075,-2.0404475,-1.5199322,3.9312792,0.062249243,-2.7581203
0.16159199,4.5902996,5.444868,-1.8433734,-1.5241932,4.429273,0.6703765,-2.384625
0.16020669,4.596019,5.444868,-1.8433734,-1.5241932,4.429273,0.6703765,-2.384625
0.15880257,4.601265,4.9942613,-1.6249943,-1.5135405,4.936844,1.1587936,-1.8243817
0.15738885,4.6065083,4.9942613,-1.6249943,-1.5135405,4.936844,1.1587936,-1.8243817
0.15596715,4.6112213,4.497848,-1.3853097,-1.4943658,5.4204726,1.7286136,-1.541866
0.15453656,4.6159368,4.497848,-1.3853097,-1.4943658,5.4204726,1.7286136,-1.541866
0.15311478,4.620061,3.9534981,-1.1200589,-1.4634731,6.0477533,2.4947581,-1.283292
0.15168479,4.624191,3.9534981,-1.1200589,-1.4634731,6.0477533,2.4947581,-1.283292
0.15027773,4.6276717,3.3548193,-0.8292417,-1.418732,6.2632318,3.074155,-0.9864111
0.14886576,4.6311545,3.3548193,-0.8292417,-1.418732,6.2632318,3.074155,-0.9864111
0.14749248,4.6339407,2.705008,-0.5160539,-1.3569467,6.14831,3.5529952,-0.78529817
0.14611737,4.6367254,2.705008,-0.5160539,-1.3569467,6.14831,3.5529952,-0.78529817
0.14480159,4.638767,2.008325,-0.19327882,-1.2770518,5.7508726,3.892972,-0.5410896
0.14348377,4.6408095,2.008325,-0.19327882,-1.2770518,5.7508726,3.892972,-0.5410896
0.14224473,4.642065,1.2679664,0.12843105,-1.1790475,5.2624555,3.8019924,-0.22984336
0.14100692,4.6433196,1.2679664,0.12843105,-1.1790475,5.2624555,3.8019924,-0.22984336
0.13986294,4.6437674,0.49991068,0.43629247,-1.0639989,4.88896,3.4955344,0.19632454
0.13871907,4.6442165,0.49991068,0.43629247,-1.0639989,4.88896,3.4955344,0.19632454
0.13768661,4.6438494,-0.2830587,0.7260444,-0.9308409,4.663905,2.7724855,0.78050977
0.13665387,4.643482,-0.2830587,0.7260444,-0.9308409,4.663905,2.7724855,0.78050977
0.13574652,4.642303,-1.0649629,1.0040784,-0.78276914,4.285621,1.8914193,1.2018893
0.13483807,4.6411242,-1.0649629,1.0040784,-0.78276914,4.285621,1.8914193,1.2018893
0.1340678,4.639152,-1.8287574,1.2661335,-0.61765313,4.0557775,0.92895025,1.3742718
0.13329521,4.637181,-1.8287574,1.2661335,-0.61765313,4.0557775,0.92895025,1.3742718
0.13267204,4.634448,-2.5637898,1.5122095,-0.43868873,3.466804,-0.12928689,1.3551182
0.13204496,4.631716,-2.5637898,1.5122095,-0.43868873,3.466804,-0.12928689,1.3551182
0.13157192,4.6282606,-3.2626033,1.7337846,-0.2512022,3.2561142,-1.2976574,1.3359646
0.13109311,4.6248074,-3.2626033,1.7337846,-0.2512022,3.2561142,-1.2976574,1.3359646
0.13109311,4.6248074,-3.2626033,1.7337846,-0.2512022,3.2561142,-1.2976574,1.3359646
0.13043724,4.61654,-3.9156106,1.9265975,-0.06371564,3.2992098,-2.6479871,1.3982137
0.13026054,4.611705,-4.5196157,2.1013007,0.12590143,2.906561,-3.916914,1.283292
0.13008082,4.6070414,-4.5196157,2.1013007,0.12590143,2.906561,-3.916914,1.283292
0.13005333,4.6017237,-5.0703573,2.25896,0.313388,2.408567,-5.1235914,1.0821792
0.1300144,4.596396,-5.0703573,2.25896,0.313388,2.408567,-5.1235914,1.0821792
0.13013639,4.590319,-5.56464,2.3931832,0.49980927,1.9393034,-6.2728086,0.89064306
0.130236,4.584731,-5.56464,2.3931832,0.49980927,1.9393034,-6.2728086,0.89064306
0.13050047,4.5785217,-6.0024633,2.5029056,0.68623054,1.0965444,-7.2783732,0.63206923
0.13075253,4.572262,-6.0024633,2.5029056,0.68623054,1.0965444,-7.2783732,0.63206923
0.1311671,4.5656185,-6.3859587,2.584931,0.87158656,0.45489833,-8.192958,0.320823
0.1315672,4.558947,-6.3859587,2.584931,0.87158656,0.45489833,-8.192958,0.320823
0.13214085,4.551956,-6.7183213,2.6371288,1.0526816,-0.33039984,-8.863335,-0.01436521
0.13269639,4.5449705,-6.7183213,2.6371288,1.0526816,-0.33039984,-8.863335,-0.01436521
0.13342124,4.537654,-7.0006166,2.6626952,1.2327112,-0.6895301,-9.485827,-0.2873042
0.13412187,4.530385,-7.0006166,2.6626952,1.2327112,-0.6895301,-9.485827,-0.2873042
0.13497971,4.5228515,-7.237105,2.6626952,1.4106103,-0.82360536,-10.093954,-0.51714754
0.13581651,4.515322,-7.237105,2.6626952,1.4106103,-0.82360536,-10.093954,-0.51714754
0.13680187,4.507574,-7.426722,2.649912,1.5810527,-0.90500826,-10.70687,-0.7469909
0.13774994,4.4999533,-7.426722,2.649912,1.5810527,-0.90500826,-10.70687,-0.7469909
0.13884635,4.4920697,-7.567337,2.6307373,1.7408423,-0.9864111,-11.233594,-1.0630256
0.13993923,4.484048,-7.567337,2.6307373,1.7408423,-0.9864111,-11.233594,-1.0630256
0.1411384,4.4760637,-7.6578846,2.605171,1.8910446,-1.1540052,-11.626244,-1.5753847
0.14231586,4.4680743,-7.6578846,2.605171,1.8910446,-1.1540052,-11.626244,-1.5753847
0.14360476,4.460006,-7.7058215,2.5753436,2.029529,-1.2545617,-11.803414,-2.0685902
0.14486648,4.4519734,-7.7058215,2.5753436,2.029529,-1.2545617,-11.803414,-2.0685902
0.1462176,4.4439063,-7.7143435,2.536994,2.1552303,-1.3503298,-11.99495,-2.6001031
0.14755058,4.4358354,-7.7143435,2.536994,2.1552303,-1.3503298,-11.99495,-2.6001031
0.14895402,4.4277735,-7.690908,2.493318,2.2681482,-1.4556746,-12.152967,-3.0597897
0.1503438,4.4197106,-7.690908,2.493318,2.2681482,-1.4556746,-12.152967,-3.0597897
0.15178496,4.411664,-7.6387095,2.444316,2.3704135,-1.4413095,-12.330139,-3.4380736
0.15321368,4.40363,-7.6387095,2.444316,2.3704135,-1.4413095,-12.330139,-3.4380736
0.15469676,4.395651,-7.5598803,2.3931832,2.4598958,-1.388637,-12.397177,-3.6870706
0.15616843,4.3876696,-7.5598803,2.3931832,2.4598958,-1.388637,-12.397177,-3.6870706
0.15768047,4.3797617,-7.4597454,2.3431158,2.5376601,-1.4939818,-12.373235,-4.027047
0.15986396,4.3682156,-7.4597454,2.3431158,2.5376601,-1.4939818,-12.373235,-4.027047
0.16229793,4.35583,-7.3372397,2.295179,2.6047719,-1.7286136,-12.363658,-4.333505
0.16229793,4.35583,-7.3372397,2.295179,2.6047719,-1.7286136,-12.363658,-4.333505
0.1653607,4.340644,-7.199821,2.2451115,2.662296,-1.7286136,-12.315774,-4.5920787
0.1653607,4.340644,-7.199821,2.2451115,2.662296,-1.7286136,-12.315774,-4.5920787
0.16700065,4.332795,-7.050684,2.1897178,2.710233,-1.8866309,-12.315774,-4.8841715
0.16700065,4.332795,-7.050684,2.1897178,2.710233,-1.8866309,-12.315774,-4.8841715
0.17023712,4.3172765,-6.891959,2.130063,2.7496479,-2.231396,-12.363658,-5.109226
0.17170319,4.310549,-6.891959,2.130063,2.7496479,-2.231396,-12.363658,-5.109226
0.17326172,4.30354,-6.7279086,2.061886,2.782671,-2.336741,-12.430696,-5.281609
0.17495301,4.2964015,-6.7279086,2.061886,2.782671,-2.336741,-12.430696,-5.281609
0.17667699,4.2894287,-6.555336,1.9862523,2.815694,-2.3175871,-12.483368,-5.2863975
0.17838562,4.282442,-6.555336,1.9862523,2.815694,-2.3175871,-12.483368,-5.2863975
0.18015075,4.2756467,-6.3689146,1.9084879,2.8401952,-2.4420857,-12.756307,-5.353435
0.1819071,4.26879,-6.3689146,1.9084879,2.8401952,-2.4420857,-12.756307,-5.353435
0.18367285,4.262231,-6.168645,1.8264626,2.8604352,-2.4756045,-13.01488,-5.329493
0.18543415,4.2556057,-6.168645,1.8264626,2.8604352,-2.4756045,-13.01488,-5.329493
0.18721893,4.249241,-5.953461,1.7380457,2.871088,-2.5761611,-13.297397,-5.4204726
0.18899149,4.2428427,-5.953461,1.7380457,2.871088,-2.5761611,-13.297397,-5.4204726
0.19079104,4.236701,-5.7191033,1.6389761,2.8732185,-2.6527755,-13.627796,-5.449203
0.19257425,4.2305455,-5.7191033,1.6389761,2.8732185,-2.6527755,-13.627796,-5.449203
0.19438244,4.224655,-5.4655704,1.5324496,2.8646963,-2.6910827,-13.958196,-5.415684
0.19617382,4.2187576,-5.4655704,1.5324496,2.8646963,-2.6910827,-13.958196,-5.415684
0.19799413,4.213133,-5.190732,1.4174011,2.8455217,-2.743755,-14.173674,-5.386954
0.19979003,4.207529,-5.190732,1.4174011,2.8455217,-2.743755,-14.173674,-5.386954
0.20160666,4.2022343,-4.893523,1.2938304,2.8135636,-2.777274,-14.216769,-5.33907
0.2034112,4.1969275,-4.893523,1.2938304,2.8135636,-2.777274,-14.216769,-5.33907
0.20523567,4.191958,-4.572879,1.1606723,2.774149,-2.777274,-14.264654,-5.315128
0.20705125,4.1869717,-4.572879,1.1606723,2.774149,-2.777274,-14.264654,-5.315128
0.20887224,4.1823845,-4.230929,1.0211227,2.7272773,-2.7820623,-14.269443,-5.291186
0.21068954,4.1777735,-4.230929,1.0211227,2.7272773,-2.7820623,-14.269443,-5.291186
0.21251431,4.1735506,-3.868739,0.8794425,2.6676223,-2.7006595,-14.33648,-5.2959743
0.21432962,4.169322,-3.868739,0.8794425,2.6676223,-2.7006595,-14.33648,-5.2959743
0.21615148,4.1655,-3.49057,0.73776233,2.597315,-2.705448,-14.18325,-5.1235914
0.21796533,4.1616726,-3.49057,0.73776233,2.597315,-2.705448,-14.18325,-5.1235914
0.2197766,4.158264,-3.1028137,0.5950169,2.51742,-2.60968,-14.144943,-5.0038815
0.22158124,4.1548505,-3.1028137,0.5950169,2.51742,-2.60968,-14.144943,-5.0038815
0.22340402,4.151857,-2.7086658,0.45120618,2.4290032,-3.145981,-13.603854,-5.2145715
0.22521006,4.1488767,-2.7086658,0.45120618,2.4290032,-3.145981,-13.603854,-5.2145715
0.2269961,4.1463094,-2.3198442,0.29887336,2.3288684,-2.480393,-14.168885,-4.8123455
0.2287743,4.143743,-2.3198442,0.29887336,2.3288684,-2.480393,-14.168885,-4.8123455
0.23054725,4.141602,-1.9310228,0.14867108,2.219146,-2.8060043,-14.949395,-4.548983
0.2323151,4.13946,-1.9310228,0.14867108,2.219146,-2.8060043,-14.949395,-4.548983
0.2340778,4.1377583,-1.5272876,0.0048603755,2.1072934,-3.3423057,-15.08347,-4.8123455
0.23583464,4.136057,-1.5272876,0.0048603755,2.1072934,-3.3423057,-15.08347,-4.8123455
0.23758988,4.134818,-1.1075734,-0.15279876,1.9858532,-3.8881836,-14.853627,-5.109226
0.23933971,4.1335793,-1.1075734,-0.15279876,1.9858532,-3.8881836,-14.853627,-5.109226
0.24109435,4.1328135,-0.6825329,-0.32750213,1.8590868,-4.4244847,-14.824897,-5.3725886
0.24284582,4.132046,-0.6825329,-0.32750213,1.8590868,-4.4244847,-14.824897,-5.3725886
0.24458046,4.1317625,-0.2596229,-0.5256413,1.7227329,-3.9983168,-14.709975,-5.401319
0.24631266,4.1314774,-0.2596229,-0.5256413,1.7227329,-3.9983168,-14.709975,-5.401319
0.24803352,4.131674,0.15689552,-0.7344332,1.5704,-3.9791632,-14.494497,-5.482722
0.24975374,4.1318693,0.15689552,-0.7344332,1.5704,-3.9791632,-14.494497,-5.482722
0.25142562,4.132544,0.56915283,-0.9400292,1.4063493,-3.0310593,-14.72434,-5.209783
0.25309497,4.133219,0.56915283,-0.9400292,1.4063493,-3.0310593,-14.72434,-5.209783
0.25471634,4.1343713,0.9792797,-1.1296463,1.224189,-3.0885203,-14.882358,-5.1666875
0.2563365,4.135524,0.9792797,-1.1296463,1.224189,-3.0885203,-14.882358,-5.1666875
0.25788134,4.137158,1.3936676,-1.2968928,1.030311,-3.0502129,-14.346057,-5.4444146
0.25942275,4.138792,1.3936676,-1.2968928,1.030311,-3.0502129,-14.346057,-5.4444146
0.26087296,4.140911,1.8069901,-1.4534867,0.8204539,-3.1028855,-13.819332,-5.6982
0.2623175,4.143028,1.8069901,-1.4534867,0.8204539,-3.1028855,-13.819332,-5.6982
0.2636444,4.145618,2.2117906,-1.5994279,0.5999441,-2.9161377,-13.460202,-5.827487
0.26496854,4.1482124,2.2117906,-1.5994279,0.5999441,-2.9161377,-13.460202,-5.827487
0.26617438,4.151302,2.5984817,-1.7336512,0.37410805,-2.801216,-12.966996,-6.0285997
0.26735672,4.1543474,2.5984817,-1.7336512,0.37410805,-2.801216,-12.966996,-6.0285997
0.26837432,4.157768,2.9670632,-1.8550913,0.14081514,-2.7341783,-12.737153,-6.129156
0.26939988,4.161242,2.9670632,-1.8550913,0.14081514,-2.7341783,-12.737153,-6.129156
0.2702776,4.1651325,3.320731,-1.9626831,-0.09460831,-2.7389667,-12.828133,-6.0285997
0.2711469,4.1690283,3.320731,-1.9626831,-0.09460831,-2.7389667,-12.828133,-6.0285997
0.2718887,4.1733375,3.6658766,-2.0660138,-0.3279012,-3.2369606,-13.01488,-5.93762
0.27262193,4.177662,3.6658766,-2.0660138,-0.3279012,-3.2369606,-13.01488,-5.93762
0.27319077,4.1823735,4.006761,-2.1704097,-0.55799836,-3.3087866,-12.65575,-6.1866174
0.27376357,4.1872373,4.006761,-2.1704097,-0.55799836,-3.3087866,-12.65575,-6.1866174
0.27413562,4.1922398,4.3348627,-2.2748055,-0.77637756,-3.2561142,-12.23437,-6.3781533
0.2744892,4.197239,4.3348627,-2.2748055,-0.77637756,-3.2561142,-12.23437,-6.3781533
0.27465984,4.2026215,4.6448545,-2.377071,-0.98303884,-2.9400797,-11.822568,-6.5361705
0.2748153,4.2079973,4.6448545,-2.377071,-0.98303884,-2.9400797,-11.822568,-6.5361705
0.27483562,4.2136707,4.9346066,-2.469749,-1.1811781,-2.8203697,-11.621455,-6.6606693
0.27484548,4.2193346,4.9346066,-2.469749,-1.1811781,-2.8203697,-11.621455,-6.6606693
0.27474263,4.225273,5.2009225,-2.546448,-1.3686646,-3.1124623,-11.496957,-6.7324953
0.27463025,4.2312055,5.2009225,-2.546448,-1.3686646,-3.1124623,-11.496957,-6.7324953
0.2744482,4.237398,5.449129,-2.6135597,-1.5401722,-3.596091,-11.372458,-6.8761473
0.2742493,4.2435894,5.449129,-2.6135597,-1.5401722,-3.596091,-11.372458,-6.8761473
0.27392417,4.2502184,5.681357,-2.6721492,-1.6893092,-3.620033,-11.219229,-6.8569937
0.2735959,4.2565227,5.681357,-2.6721492,-1.6893092,-3.620033,-11.219229,-6.8569937
0.27313894,4.2631974,5.8944097,-2.7286081,-1.8203367,-3.4572272,-11.080365,-6.8761473
0.27265924,4.2699027,5.8944097,-2.7286081,-1.8203367,-3.4572272,-11.080365,-6.8761473
0.27207905,4.276808,6.0914836,-2.7786756,-1.93432,-3.4284968,-10.955867,-6.919243
0.2714765,4.283716,6.0914836,-2.7786756,-1.93432,-3.4284968,-10.955867,-6.919243
0.2707868,4.2908034,6.2672524,-2.820221,-2.0280633,-3.41892,-10.817003,-6.9000893
0.2700725,4.297901,6.2672524,-2.820221,-2.0280633,-3.41892,-10.817003,-6.9000893
0.26928163,4.305167,6.422781,-2.8575053,-2.1047623,-3.41892,-10.6877165,-6.823475
0.2684665,4.312429,6.422781,-2.8575053,-2.1047623,-3.41892,-10.6877165,-6.823475
0.26758838,4.3198376,6.5602,-2.8894632,-2.1686783,-3.53863,-10.620679,-6.646304
0.26668495,4.3272414,6.5602,-2.8894632,-2.1686783,-3.53863,-10.620679,-6.646304
0.26571694,4.3347707,6.6795096,-2.9139643,-2.2187457,-3.4715924,-10.5680065,-6.493075
0.26472306,4.342294,6.6795096,-2.9139643,-2.2187457,-3.4715924,-10.5680065,-6.493075
0.2636704,4.349927,6.786036,-2.9342043,-2.2549646,-3.3135753,-10.46745,-6.4308257
0.26259157,4.3575535,6.786036,-2.9342043,-2.2549646,-3.3135753,-10.46745,-6.4308257
0.26146635,4.36527,6.877649,-2.9469874,-2.2794657,-3.2369606,-10.309433,-6.4020953
0.2603143,4.37298,6.877649,-2.9469874,-2.2794657,-3.2369606,-10.309433,-6.4020953
0.25911918,4.380767,6.958609,-2.9523137,-2.2933142,-3.0358477,-10.041282,-6.339846
0.25789732,4.388546,6.958609,-2.9523137,-2.2933142,-3.0358477,-10.041282,-6.339846
0.25664032,4.3963842,7.0246553,-2.9523137,-2.300771,-2.9352913,-9.792285,-6.3302693
0.2553565,4.4042153,7.0246553,-2.9523137,-2.300771,-2.9352913,-9.792285,-6.3302693
0.2540383,4.412091,7.0768533,-2.949118,-2.3039668,-2.7724855,-9.595961,-6.129156
0.2526934,4.419958,7.0768533,-2.949118,-2.3039668,-2.7724855,-9.595961,-6.129156
0.25132027,4.427845,7.1141376,-2.9384654,-2.3018363,-2.633622,-9.3421755,-5.865794
0.24991763,4.435739,7.1141376,-2.9384654,-2.3018363,-2.633622,-9.3421755,-5.865794
0.24848941,4.4436374,7.138639,-2.9192905,-2.2911837,-2.3798366,-9.016563,-5.463568
0.24703512,4.451527,7.138639,-2.9192905,-2.2911837,-2.3798366,-9.016563,-5.463568
0.24554527,4.4594173,7.1524873,-2.8937242,-2.2784004,-1.8770541,-8.628703,-5.085284
0.24403183,4.467291,7.1524873,-2.8937242,-2.2784004,-1.8770541,-8.628703,-5.085284
0.24246845,4.4751635,7.151422,-2.853244,-2.2656174,-1.1300632,-8.202535,-4.8027687
0.24088068,4.4830275,7.151422,-2.853244,-2.2656174,-1.1300632,-8.202535,-4.8027687
0.23924099,4.490835,7.129051,-2.7935894,-2.257095,-0.14844051,-7.5465236,-4.6591167
0.23757598,4.498642,7.129051,-2.7935894,-2.257095,-0.14844051,-7.5465236,-4.6591167
0.23585497,4.506366,7.0725923,-2.7104988,-2.2549646,0.8762778,-6.6415157,-4.7165775
0.23411125,4.51408,7.0725923,-2.7104988,-2.2549646,0.8762778,-6.6415157,-4.7165775
0.23230544,4.5216703,6.9692616,-2.602907,-2.2624214,1.70946,-5.5258174,-4.8841715
0.23048344,4.529229,6.9692616,-2.602907,-2.2624214,1.70946,-5.5258174,-4.8841715
0.22859274,4.5365896,6.812668,-2.4686837,-2.2826614,2.3223755,-4.405331,-5.0182467
0.22667815,4.543956,6.812668,-2.4686837,-2.2826614,2.3223755,-4.405331,-5.0182467
0.22469327,4.5510387,6.595354,-2.3110247,-2.3103583,2.6623523,-3.371036,-4.8219223
0.22268423,4.5581336,6.595354,-2.3110247,-2.3103583,2.6623523,-3.371036,-4.8219223
0.220618,4.5648785,6.313059,-2.1267338,-2.3369899,2.705448,-1.3072342,-5.0900726
0.2185356,4.5716157,6.313059,-2.1267338,-2.3369899,2.705448,-1.3072342,-5.0900726
0.21636263,4.5779905,5.962587,-1.9222031,-2.3657522,5.085284,0.0047884034,-4.309563
0.2141753,4.5843577,5.962587,-1.9222031,-2.3657522,5.085284,0.0047884034,-4.309563
0.21192224,4.5902495,5.536481,-1.6782575,-2.3870573,4.807557,0.17717093,-3.4284968
0.20965756,4.596134,5.536481,-1.6782575,-2.3870573,4.807557,0.17717093,-3.4284968
0.20734511,4.601478,5.056047,-1.3895708,-2.3945143,4.5872903,0.5267244,-2.9161377
0.20502365,4.606816,5.056047,-1.3895708,-2.3945143,4.5872903,0.5267244,-2.9161377
0.20265554,4.6115923,4.5447197,-1.108341,-2.409428,5.0996494,1.067814,-2.5234885
0.20028083,4.6163635,4.5447197,-1.108341,-2.409428,5.0996494,1.067814,-2.5234885
0.19787402,4.620545,4.0046306,-0.8228501,-2.4232764,5.473145,2.384625,-2.1452048
0.1954627,4.6247215,4.0046306,-0.8228501,-2.4232764,5.473145,2.384625,-2.1452048
0.19303158,4.628272,3.426192,-0.5160539,-2.4190154,5.9759274,2.8921957,-1.1971009
0.19059761,4.631819,3.426192,-0.5160539,-2.4190154,5.9759274,2.8921957,-1.1971009
0.18817884,4.6346817,2.801947,-0.18795249,-2.3870573,4.644751,3.1986535,-0.59855044
0.1857589,4.637542,2.801947,-0.18795249,-2.3870573,4.644751,3.1986535,-0.59855044
0.18337573,4.639695,2.1457443,0.12949632,-2.3263373,4.477157,2.7724855,0.19153613
0.18099222,4.6418476,2.1457443,0.12949632,-2.3263373,4.477157,2.7724855,0.19153613
0.17867036,4.643289,1.4756929,0.41285667,-2.2421815,4.285621,1.8962077,0.9624691
0.1763487,4.644731,1.4756929,0.41285667,-2.2421815,4.285621,1.8962077,0.9624691
0.17411539,4.645471,0.81096786,0.6695854,-2.135655,4.247314,1.2449849,1.5753847
0.17188227,4.646212,0.81096786,0.6695854,-2.135655,4.247314,1.2449849,1.5753847
0.16975945,4.646262,0.15476498,0.9039436,-2.0099537,4.19943,0.8331822,1.9632454
0.16763665,4.6463137,0.15476498,0.9039436,-2.0099537,4.19943,0.8331822,1.9632454
0.16564637,4.6456895,-0.49185053,1.1180618,-1.8629473,4.19943,0.2825158,2.4420857
0.16175734,4.643756,-1.1267482,1.3151356,-1.696766,3.9935284,-0.33518824,2.8107927
0.16175734,4.643756,-1.1267482,1.3151356,-1.696766,3.9935284,-0.33518824,2.8107927
0.15993357,4.6424875,-1.1267482,1.3151356,-1.696766,3.9935284,-0.33518824,2.8107927
0.15812512,4.6404104,-1.7446015,1.4962306,-1.5124753,3.715801,-1.1061212,3.0502129
0.15658171,4.638643,-1.7446015,1.4962306,-1.5124753,3.715801,-1.1061212,3.0502129
0.15509848,4.6361136,-2.3443453,1.6538898,-1.310075,3.3901896,-1.7956513,3.083732
0.15357271,4.633522,-2.3443453,1.6538898,-1.310075,3.3901896,-1.7956513,3.083732
0.1523025,4.630444,-2.918523,1.7902436,-1.0916958,3.1986535,-2.4277205,3.1555579
0.15100019,4.6273036,-2.918523,1.7902436,-1.0916958,3.1986535,-2.4277205,3.1555579
0.14995933,4.6237535,-3.4639385,1.9095532,-0.862664,2.6192567,-3.1411927,3.2130187
0.14887547,4.6200805,-3.4639385,1.9095532,-0.862664,2.6192567,-3.1411927,3.2130187
0.14801104,4.615884,-3.9742,2.0054271,-0.6261753,2.1883004,-3.892972,3.098097
0.1471397,4.611693,-3.9742,2.0054271,-0.6261753,2.1883004,-3.892972,3.098097
0.14649542,4.6070223,-4.445047,2.0778651,-0.38116443,2.0446482,-4.654328,3.064578
0.14583997,4.602339,-4.445047,2.0778651,-0.38116443,2.0446482,-4.654328,3.064578
0.14542004,4.5972323,-4.872218,2.1321936,-0.13189256,1.6232687,-5.592855,2.930503
0.14498986,4.592127,-4.872218,2.1321936,-0.13189256,1.6232687,-5.592855,2.930503
0.14478175,4.586635,-5.251452,2.166282,0.10992247,1.5227122,-6.363788,2.7102363
0.14456241,4.581144,-5.251452,2.166282,0.10992247,1.5227122,-6.363788,2.7102363
0.14455383,4.575314,-5.581684,2.1875873,0.34641117,1.6136919,-7.1155677,2.2840683
0.1445329,4.569461,-5.581684,2.1875873,0.34641117,1.6136919,-7.1155677,2.2840683
0.144721,4.5633183,-5.8639793,2.199305,0.5765083,1.532289,-7.9008656,1.9488802
0.14489499,4.5572114,-5.8639793,2.199305,0.5765083,1.532289,-7.9008656,1.9488802
0.14531809,4.5500226,-6.101533,2.2056968,0.79488754,1.3072342,-8.8777,1.757344
0.14564113,4.544322,-6.101533,2.2056968,0.79488754,1.3072342,-8.8777,1.757344
0.14618587,4.5378094,-6.2932806,2.2056968,0.99728775,1.0007763,-9.720459,1.5753847
0.14670591,4.5314264,-6.2932806,2.2056968,0.99728775,1.0007763,-9.720459,1.5753847
0.14741598,4.524749,-6.434961,2.1971745,1.1890354,0.6464345,-10.323798,1.3503298
0.14811246,4.5180545,-6.434961,2.1971745,1.1890354,0.6464345,-10.323798,1.3503298
0.14897554,4.511242,-6.5297694,2.1811957,1.3679998,0.35913026,-10.778696,1.0390835
0.14982057,4.504446,-6.5297694,2.1811957,1.3679998,0.35913026,-10.778696,1.0390835
0.1508203,4.4975753,-6.580902,2.1588252,1.5363116,0.12928689,-10.970232,0.60812724
0.15180324,4.490708,-6.580902,2.1588252,1.5363116,0.12928689,-10.970232,0.60812724
0.15293151,4.483822,-6.6022077,2.1279325,1.6982318,-0.10055647,-11.142614,0.1388637
0.15404625,4.476918,-6.6022077,2.1279325,1.6982318,-0.10055647,-11.142614,0.1388637
0.15530185,4.470026,-6.5958157,2.0927787,1.8505646,-0.4213795,-11.238382,-0.2681506
0.15654396,4.4631147,-6.5958157,2.0927787,1.8505646,-0.4213795,-11.238382,-0.2681506
0.15791515,4.4562483,-6.5617275,2.0522985,1.9943753,-0.58418524,-11.449073,-0.61770403
0.15927029,4.449377,-6.5617275,2.0522985,1.9943753,-0.58418524,-11.449073,-0.61770403
0.16074869,4.4425573,-6.506334,2.0043619,2.1307292,-0.6799533,-11.425131,-1.0007763
0.16220978,4.4357395,-6.506334,2.0043619,2.1307292,-0.6799533,-11.425131,-1.0007763
0.16377428,4.4290104,-6.4338956,1.9521638,2.2532346,-0.6847417,-11.319786,-1.3311762
0.16532965,4.4222484,-6.4338956,1.9521638,2.2532346,-0.6847417,-11.319786,-1.3311762
0.16698222,4.4155693,-6.347609,1.9020964,2.3629568,-0.79008657,-11.295844,-1.70946
0.16861959,4.408884,-6.347609,1.9020964,2.3629568,-0.79008657,-11.295844,-1.70946
0.17034118,4.402288,-6.253866,1.8488332,2.4588306,-0.7757214,-11.252748,-1.934515
0.17204793,4.395686,-6.253866,1.8488332,2.4588306,-0.7757214,-11.252748,-1.934515
0.17382966,4.389192,-6.150535,1.7934394,2.5419211,-0.8858546,-11.353305,-2.2122424
0.17560051,4.382679,-6.150535,1.7934394,2.5419211,-0.8858546,-11.353305,-2.2122424
0.1774369,4.3762836,-6.0386825,1.7337846,2.6111634,-0.9816227,-11.492168,-2.4277205
0.179259,4.3698816,-6.0386825,1.7337846,2.6111634,-0.9816227,-11.492168,-2.4277205
0.1811533,4.363605,-5.918308,1.6698687,2.666557,-1.2401965,-11.736377,-2.4133554
0.18303467,4.357315,-5.918308,1.6698687,2.666557,-1.2401965,-11.736377,-2.4133554
0.18497948,4.35115,-5.7851496,1.6027571,2.714494,-1.5227122,-12.023681,-2.7102363
0.18711857,4.344307,-5.7851496,1.6027571,2.714494,-1.5227122,-12.023681,-2.7102363
0.18889627,4.3389215,-5.6402736,1.5292538,2.7528436,-1.7669208,-12.330139,-2.743755
0.19083886,4.3329883,-5.6402736,1.5292538,2.7528436,-1.7669208,-12.330139,-2.743755
0.19285613,4.3271437,-5.480484,1.4461632,2.7805405,-1.9919758,-12.674904,-2.8921957
0.19485925,4.321292,-5.480484,1.4461632,2.7805405,-1.9919758,-12.674904,-2.8921957
0.19690605,4.315626,-5.3025846,1.3545505,2.8018458,-2.1404164,-12.98615,-3.064578
0.19893727,4.309959,-5.3025846,1.3545505,2.8018458,-2.1404164,-12.98615,-3.064578
0.20105842,4.3043585,-5.10338,1.2565461,2.8124983,-2.2409728,-13.311762,-3.1986535
0.20320709,4.298641,-5.10338,1.2565461,2.8124983,-2.2409728,-13.311762,-3.1986535
0.2051587,4.29375,-4.8871317,1.1542808,2.815694,-2.3989902,-13.642161,-3.2704794
0.2072327,4.288516,-4.8871317,1.1542808,2.815694,-2.3989902,-13.642161,-3.2704794
0.20934215,4.283514,-4.6538386,1.0477543,2.8082373,-2.5378537,-13.828909,-3.3087866
0.21144052,4.2785044,-4.6538386,1.0477543,2.8082373,-2.5378537,-13.828909,-3.3087866
0.21356411,4.2737617,-4.4035015,0.9369668,2.794389,-2.6384103,-14.039598,-3.3662477
0.21567535,4.269017,-4.4035015,0.9369668,2.794389,-2.6384103,-14.039598,-3.3662477
0.21781029,4.2645483,-4.1361203,0.8229835,2.7730837,-2.6384103,-14.197616,-3.347094
0.21993387,4.2600775,-4.1361203,0.8229835,2.7730837,-2.6384103,-14.197616,-3.347094
0.22206654,4.2559147,-3.8484988,0.7058044,2.738995,-2.585738,-14.350845,-3.4284968
0.22419119,4.2517457,-3.8484988,0.7058044,2.738995,-2.585738,-14.350845,-3.4284968
0.22631702,4.2479115,-3.5395722,0.5907558,2.6953194,-2.5570073,-14.398729,-3.4284968
0.22844009,4.244064,-3.5395722,0.5907558,2.6953194,-2.5570073,-14.398729,-3.4284968
0.23055045,4.240566,-3.216797,0.4810336,2.637795,-2.5139117,-14.360422,-3.5529952
0.2326547,4.2370625,-3.216797,0.4810336,2.637795,-2.5139117,-14.360422,-3.5529952
0.23474509,4.2339144,-2.8833692,0.37237662,2.569618,-2.542642,-14.326903,-3.572149
0.23682816,4.230765,-2.8833692,0.37237662,2.569618,-2.542642,-14.326903,-3.572149
0.2388813,4.227986,-2.5414193,0.26585016,2.484397,-2.6479871,-14.077906,-3.821146
0.24093013,4.225202,-2.5414193,0.26585016,2.484397,-2.6479871,-14.077906,-3.821146
0.24293186,4.222794,-2.1962736,0.1571932,2.3874578,-2.4420857,-13.752295,-4.0557775
0.24493007,4.2203817,-2.1962736,0.1571932,2.3874578,-2.4420857,-13.752295,-4.0557775
0.24687998,4.2183475,-1.8532585,0.04853622,2.278801,-2.6144683,-12.98615,-4.5394063
0.24882688,4.2163095,-1.8532585,0.04853622,2.278801,-2.6144683,-12.98615,-4.5394063
0.25069848,4.214638,-1.5198307,-0.06544708,2.1552303,-2.1787236,-13.034034,-4.6160207
0.25256807,4.212964,-1.5198307,-0.06544708,2.1552303,-2.1787236,-13.034034,-4.6160207
0.25436503,4.211652,-1.1959903,-0.17836511,2.0167458,-1.9249382,-13.52724,-4.4819455
0.25616062,4.210337,-1.1959903,-0.17836511,2.0167458,-1.9249382,-13.52724,-4.4819455
0.25787747,4.2093945,-0.8668236,-0.27956524,1.8676088,-2.2936451,-13.28782,-4.7500963
0.25959137,4.208451,-0.8668236,-0.27956524,1.8676088,-2.2936451,-13.28782,-4.7500963
0.26121822,4.2078843,-0.5355264,-0.38396114,1.7035581,-2.7006595,-12.698846,-5.142745
0.26284236,4.2073164,-0.5355264,-0.38396114,1.7035581,-2.7006595,-12.698846,-5.142745
0.26437962,4.2071285,-0.2084902,-0.4968792,1.52992,-3.098097,-12.344504,-5.4683566
0.26591522,4.2069397,-0.2084902,-0.4968792,1.52992,-3.098097,-12.344504,-5.4683566
0.26733023,4.207115,0.106828086,-0.6257762,1.344564,-2.825158,-12.038046,-5.4444146
0.26874372,4.2072906,0.106828086,-0.6257762,1.344564,-2.825158,-12.038046,-5.4444146
0.27001548,4.2078066,0.4061674,-0.76106477,1.1442943,-2.2505496,-11.932701,-5.4444146
0.2712861,4.2083225,0.4061674,-0.76106477,1.1442943,-2.2505496,-11.932701,-5.4444146
0.27241895,4.2091722,0.68952775,-0.8835702,0.93230665,-2.4899697,-11.587936,-5.6551046
0.27355006,4.2100215,0.68952775,-0.8835702,0.93230665,-2.4899697,-11.587936,-5.6551046
0.27453622,4.21119,0.9569091,-0.99542296,0.7096664,-1.7477672,-11.841722,-5.415684
0.27552065,4.212359,0.9569091,-0.99542296,0.7096664,-1.7477672,-11.841722,-5.415684
0.2763471,4.2138367,1.2115073,-1.0912968,0.4806345,-2.0398598,-11.942278,-5.6215854
0.27717137,4.215314,1.2115073,-1.0912968,0.4806345,-2.0398598,-11.942278,-5.6215854
0.27781054,4.217057,1.4586487,-1.1743873,0.24734159,-2.2984335,-11.429919,-5.947197
0.27844757,4.2187996,1.4586487,-1.1743873,0.24734159,-2.2984335,-11.429919,-5.947197
0.27891797,4.22079,1.6919416,-1.2585433,0.014048667,-2.4899697,-11.295844,-6.229713
0.2793869,4.222779,1.6919416,-1.2585433,0.014048667,-2.4899697,-11.295844,-6.229713
0.27969137,4.2250433,1.9092555,-1.3448297,-0.21391793,-2.5713725,-11.501745,-6.253655
0.27999368,4.227306,1.9092555,-1.3448297,-0.21391793,-2.5713725,-11.501745,-6.253655
0.28013518,4.2298336,2.1212432,-1.4321814,-0.43762347,-2.542642,-11.650186,-6.301539
0.28027418,4.232358,2.1212432,-1.4321814,-0.43762347,-2.542642,-11.650186,-6.301539
0.28026894,4.235117,2.3353612,-1.5142068,-0.65387213,-2.4372973,-11.36767,-6.483498
0.28026053,4.238035,2.3353612,-1.5142068,-0.65387213,-2.4372973,-11.36767,-6.483498
0.28014362,4.2408423,2.5484142,-1.5887753,-0.85520715,-2.6719291,-11.113884,-6.7851677
0.28001627,4.2438207,2.5484142,-1.5887753,-0.85520715,-2.6719291,-11.113884,-6.7851677
0.27978417,4.2470307,2.752945,-1.6580174,-1.0384326,-2.954445,-10.874464,-7.062895
0.27954718,4.2502394,2.752945,-1.6580174,-1.0384326,-2.954445,-10.874464,-7.062895
0.27918848,4.2536793,2.9489536,-1.7315207,-1.2056792,-2.8634653,-10.749966,-7.16824
0.2788224,4.257131,2.9489536,-1.7315207,-1.2056792,-2.8634653,-10.749966,-7.16824
0.27831778,4.26093,3.135375,-1.8028934,-1.3569467,-2.657564,-10.850522,-7.225701
0.27782902,4.2645583,3.135375,-1.8028934,-1.3569467,-2.657564,-10.850522,-7.225701
0.27724215,4.2683597,3.3132741,-1.865744,-1.4901048,-2.6144683,-10.951078,-7.177817
0.27664217,4.272197,3.3132741,-1.865744,-1.4901048,-2.6144683,-10.951078,-7.177817
0.27595025,4.2762694,3.4879775,-1.9147462,-1.6040881,-2.6527755,-10.888829,-7.2544312
0.27525085,4.2803345,3.4879775,-1.9147462,-1.6040881,-2.6527755,-10.888829,-7.2544312
0.2744748,4.2845902,3.6616156,-1.9520304,-1.6988965,-2.6527755,-10.788273,-7.3071036
0.27368975,4.288842,3.6616156,-1.9520304,-1.6988965,-2.6527755,-10.788273,-7.3071036
0.27284756,4.293272,3.8299274,-1.9818578,-1.7755957,-2.815581,-10.6158905,-7.3549876
0.27199522,4.297699,3.8299274,-1.9818578,-1.7755957,-2.815581,-10.6158905,-7.3549876
0.27110133,4.3022943,3.9918475,-2.0063589,-1.8299241,-3.0119057,-10.5680065,-7.326257
0.27019677,4.3068857,3.9918475,-2.0063589,-1.8299241,-3.0119057,-10.5680065,-7.326257
0.2692648,4.311641,4.146311,-2.026599,-1.8661431,-3.2704794,-10.611102,-7.311892
0.26832336,4.3163834,4.146311,-2.026599,-1.8661431,-3.2704794,-10.611102,-7.311892
0.2673597,4.3212795,4.2933173,-2.0457737,-1.8831873,-3.2704794,-10.740389,-7.129933
0.2663842,4.3261724,4.2933173,-2.0457737,-1.8831873,-3.2704794,-10.740389,-7.129933
0.2653963,4.331213,4.4349976,-2.062818,-1.8831873,-3.1794999,-10.912771,-7.1059904
0.26439807,4.3362393,4.4349976,-2.062818,-1.8831873,-3.1794999,-10.912771,-7.1059904
0.2634045,4.3414135,4.5702863,-2.075601,-1.8672084,-3.2321723,-11.075577,-6.9527617
0.26240033,4.346574,4.5702863,-2.075601,-1.8672084,-3.2321723,-11.075577,-6.9527617
0.26141408,4.3518624,4.7023787,-2.0883844,-1.8405768,-3.2752678,-11.152191,-6.8426285
0.26041484,4.357147,4.7023787,-2.0883844,-1.8405768,-3.2752678,-11.152191,-6.8426285
0.25944594,4.3625565,4.832341,-2.1001022,-1.805423,-3.4284968,-11.176133,-6.8186865
0.25846368,4.367962,4.832341,-2.1001022,-1.805423,-3.4284968,-11.176133,-6.8186865
0.25751916,4.3734913,4.9612384,-2.1128855,-1.7628125,-3.5913026,-11.219229,-6.71813
0.2565608,4.3790174,4.9612384,-2.1128855,-1.7628125,-3.5913026,-11.219229,-6.71813
0.2556358,4.3846655,5.0869393,-2.13206,-1.7159408,-3.490746,-11.200075,-6.603208
0.25469786,4.3903046,5.0869393,-2.13206,-1.7159408,-3.490746,-11.200075,-6.603208
0.25379336,4.3960867,5.209445,-2.1533654,-1.6637429,-3.3566709,-11.267113,-6.3542113
0.25248006,4.4043174,5.209445,-2.1533654,-1.6637429,-3.3566709,-11.267113,-6.3542113
0.25248006,4.4043174,5.209445,-2.1533654,-1.6637429,-3.3566709,-11.267113,-6.3542113
0.25104803,4.41374,5.3287544,-2.1736054,-1.6094143,-3.107674,-11.310209,-6.172252
0.2501044,4.4203086,5.4459333,-2.1895845,-1.5572164,-3.0358477,-11.295844,-5.947197
0.24931727,4.425694,5.4459333,-2.1895845,-1.5572164,-3.0358477,-11.295844,-5.947197
0.24847813,4.431806,5.5588517,-2.2034328,-1.5060837,-3.0023289,-11.291056,-5.645528
0.24759592,4.438115,5.5588517,-2.2034328,-1.5060837,-3.0023289,-11.291056,-5.645528
0.24681441,4.444065,5.669639,-2.2183466,-1.4581468,-3.0023289,-11.161768,-5.315128
0.24597411,4.450346,5.669639,-2.2183466,-1.4581468,-3.0023289,-11.161768,-5.315128
0.24520326,4.4564056,5.7761655,-2.232195,-1.4144709,-2.896984,-11.075577,-4.9464207
0.24438891,4.4626884,5.7761655,-2.232195,-1.4144709,-2.896984,-11.075577,-4.9464207
0.24360168,4.469084,5.878431,-2.2460434,-1.3750561,-2.8682537,-10.812215,-4.7070007
0.24279924,4.4754753,5.878431,-2.2460434,-1.3750561,-2.8682537,-10.812215,-4.7070007
0.24201578,4.48198,5.9785657,-2.2620225,-1.342033,-2.791639,-10.5680065,-4.295198
0.24121675,4.48848,5.9785657,-2.2620225,-1.342033,-2.791639,-10.5680065,-4.295198
0.24044366,4.495025,6.0701785,-2.2758708,-1.3132708,-2.7964275,-10.333375,-4.0078936
0.23964994,4.5016065,6.0701785,-2.2758708,-1.3132708,-2.7964275,-10.333375,-4.0078936
0.2388667,4.5082846,6.1554,-2.288654,-1.285574,-2.6910827,-10.065224,-3.821146
0.23807521,4.514893,6.1554,-2.288654,-1.285574,-2.6910827,-10.065224,-3.821146
0.23727934,4.5216265,6.228903,-2.2993066,-1.2642686,-2.5139117,-9.768343,-3.4715924
0.23646884,4.528343,6.228903,-2.2993066,-1.2642686,-2.5139117,-9.768343,-3.4715924
0.23563926,4.5351276,6.289623,-2.31209,-1.2514855,-2.2026656,-9.500193,-3.1172507
0.2347942,4.5419087,6.289623,-2.31209,-1.2514855,-2.2026656,-9.500193,-3.1172507
0.23391528,4.5487337,6.3375597,-2.3216772,-1.2408328,-1.7717092,-9.26556,-2.7964275
0.2330212,4.5555615,6.3375597,-2.3216772,-1.2408328,-1.7717092,-9.26556,-2.7964275
0.23207085,4.562439,6.373779,-2.3280687,-1.2387023,-1.3311762,-8.99741,-2.2888567
0.2311079,4.5693097,6.373779,-2.3280687,-1.2387023,-1.3311762,-8.99741,-2.2888567
0.23008566,4.5762157,6.391888,-2.3259382,-1.2482897,-0.93852705,-8.6574335,-1.910573
0.22905055,4.583114,6.391888,-2.3259382,-1.2482897,-0.93852705,-8.6574335,-1.910573
0.22795346,4.590037,6.397215,-2.316351,-1.269595,-0.5746084,-8.322245,-1.5562311
0.22684242,4.5969505,6.397215,-2.316351,-1.269595,-0.5746084,-8.322245,-1.5562311
0.22566517,4.6038747,6.3844314,-2.2982414,-1.3036835,0.19153613,-7.565677,-1.13964
0.22447167,4.6107903,6.3844314,-2.2982414,-1.3036835,0.19153613,-7.565677,-1.13964
0.22321483,4.6176825,6.349278,-2.264153,-1.346294,0.35913026,-7.2927384,-0.7469909
0.22194134,4.6245656,6.349278,-2.264153,-1.346294,0.35913026,-7.2927384,-0.7469909
0.22061779,4.631321,6.286427,-2.216216,-1.3921005,-0.1340753,-5.78918,-1.0103531
0.21928127,4.6380672,6.286427,-2.216216,-1.3921005,-0.1340753,-5.78918,-1.0103531
0.21785504,4.644768,6.1884227,-2.1725402,-1.4538858,2.4947581,-5.770026,-0.20111294
0.21641308,4.651462,6.1884227,-2.1725402,-1.4538858,2.4947581,-5.770026,-0.20111294
0.21488868,4.6580124,6.052069,-2.1011674,-1.5263238,3.1986535,-5.827487,0.31603462
0.21334922,4.664556,6.052069,-2.1011674,-1.5263238,3.1986535,-5.827487,0.31603462
0.21171254,4.6708965,5.8901486,-1.9754663,-1.5966312,2.4277205,-5.521029,-0.02873042
0.21006228,4.67723,5.8901486,-1.9754663,-1.5966312,2.4277205,-5.521029,-0.02873042
0.2083151,4.6833477,5.7111845,-1.8497651,-1.6765261,2.9161377,-4.1515455,-0.23942018
0.20655766,4.689453,5.7111845,-1.8497651,-1.6765261,2.9161377,-4.1515455,-0.23942018
0.20471008,4.695312,5.5013275,-1.7187375,-1.7606819,3.6104562,-2.8299465,-0.33518824
0.20285378,4.701159,5.5013275,-1.7187375,-1.7606819,3.6104562,-2.8299465,-0.33518824
0.20091608,4.7067294,5.2456636,-1.5685352,-1.8363158,3.5482068,-2.231396,-0.01436521
0.19896922,4.712294,5.2456636,-1.5685352,-1.8363158,3.5482068,-2.231396,-0.01436521
0.1969605,4.717519,4.9420633,-1.4044845,-1.8959705,3.083732,-1.4173675,0.04309563
0.19494411,4.722738,4.9420633,-1.4044845,-1.8959705,3.083732,-1.4173675,0.04309563
0.19288746,4.7275953,4.6011786,-1.2478906,-1.9471031,3.9456444,-1.0965444,0.6895301
0.1908244,4.732448,4.6011786,-1.2478906,-1.9471031,3.9456444,-1.0965444,0.6895301
0.18872662,4.7369027,4.231532,-1.0912968,-1.986518,4.4580035,-0.9720459,1.1300632
0.18662381,4.741353,4.231532,-1.0912968,-1.986518,4.4580035,-0.9720459,1.1300632
0.1845031,4.745375,3.8395147,-0.9165934,-2.0099537,4.999093,-0.60812724,1.3263878
0.18237863,4.7493935,3.8395147,-0.9165934,-2.0099537,4.999093,-0.60812724,1.3263878
0.18025704,4.752966,3.4293878,-0.725911,-2.0174108,5.0374002,-0.090979666,1.5179238
0.17813297,4.7565355,3.4293878,-0.725911,-2.0174108,5.0374002,-0.090979666,1.5179238
0.17603731,4.759636,2.9958253,-0.52138025,-2.002497,4.8985367,0.2777274,1.8100165
0.17394005,4.7627344,2.9958253,-0.52138025,-2.002497,4.8985367,0.2777274,1.8100165
0.17189583,4.765346,2.5441532,-0.31258842,-1.9641474,4.841076,0.5315128,2.1260512
0.16985078,4.7679567,2.5441532,-0.31258842,-1.9641474,4.841076,0.5315128,2.1260512
0.16788566,4.770067,2.0754368,-0.10273133,-1.9012969,4.793192,0.7182605,2.60968
0.16592036,4.7721763,2.0754368,-0.10273133,-1.9012969,4.793192,0.7182605,2.60968
0.16405745,4.77377,1.5918068,0.10819103,-1.8139452,4.960786,0.7661445,3.016694
0.16219477,4.775364,1.5918068,0.10819103,-1.8139452,4.960786,0.7661445,3.016694
0.1604609,4.7764297,1.0953935,0.32017866,-1.6999619,5.2049947,0.7230489,3.4284968
0.1587256,4.7774973,1.0953935,0.32017866,-1.6999619,5.2049947,0.7230489,3.4284968
0.15714213,4.7780232,0.5861971,0.53962314,-1.5668038,5.329493,0.5554548,3.8163576
0.1555574,4.7785506,0.5861971,0.53962314,-1.5668038,5.329493,0.5554548,3.8163576
0.15413082,4.778528,0.0674133,0.76652443,-1.4155363,5.391742,0.2825158,4.185065
0.15261063,4.7785068,0.0674133,0.76652443,-1.4155363,5.391742,0.2825158,4.185065
0.15144353,4.7779627,-0.45776206,0.9966216,-1.249355,5.1235914,0.090979666,4.4484267
0.15022023,4.7773952,-0.45776206,0.9966216,-1.249355,5.1235914,0.090979666,4.4484267
0.14919506,4.776281,-0.9861332,1.2245882,-1.0671947,4.9895163,-0.46447513,4.7788267
0.14815496,4.775153,-0.9861332,1.2245882,-1.0671947,4.9895163,-0.46447513,4.7788267
0.14732087,4.773472,-1.5134392,1.4450979,-0.87331665,4.7261543,-1.0582372,5.1571107
0.14648424,4.7717915,-1.5134392,1.4450979,-0.87331665,4.7261543,-1.0582372,5.1571107
0.14586596,4.7695613,-2.0343535,1.6560203,-0.66559005,4.10845,-1.8435353,5.473145
0.14524704,4.767343,-2.0343535,1.6560203,-0.66559005,4.10845,-1.8435353,5.473145
0.14485349,4.7645884,-2.5435498,1.8467026,-0.4482761,3.3758245,-2.5091233,5.5401826
0.14445536,4.761837,-2.5435498,1.8467026,-0.4482761,3.3758245,-2.5091233,5.5401826
0.14428632,4.758577,-3.0388978,2.008623,-0.2235053,2.767697,-3.2752678,5.4300494
0.14411063,4.75531,-3.0388978,2.008623,-0.2235053,2.767697,-3.2752678,5.4300494
0.14416352,4.7515616,-3.514006,2.1396503,0.0033960221,2.1499932,-3.8594532,5.243302
0.14420862,4.7478056,-3.514006,2.1396503,0.0033960221,2.1499932,-3.8594532,5.243302
0.14447244,4.7435827,-3.9678085,2.2408504,0.22816682,1.958457,-4.4005427,5.023035
0.14472671,4.739368,-3.9678085,2.2408504,0.22816682,1.958457,-4.4005427,5.023035
0.14519532,4.734715,-4.4003057,2.3186147,0.45293763,1.8435353,-4.9703627,4.841076
0.14565435,4.7300515,-4.4003057,2.3186147,0.45293763,1.8435353,-4.9703627,4.841076
0.14632095,4.7249722,-4.8072367,2.383596,0.67025155,1.5705963,-5.6646814,4.687847
0.14697571,4.7198906,-4.8072367,2.383596,0.67025155,1.5705963,-5.6646814,4.687847
0.14782779,4.714424,-5.1843405,2.4379244,0.8822392,1.3934253,-6.4643445,4.3957543
0.148667,4.708954,-5.1843405,2.4379244,0.8822392,1.3934253,-6.4643445,4.3957543
0.14969027,4.703133,-5.525225,2.4816003,1.0846394,1.3838485,-7.177817,4.1371803
0.15069951,4.697309,-5.525225,2.4816003,1.0846394,1.3838485,-7.177817,4.1371803
0.15187535,4.6911774,-5.823499,2.5156887,1.272126,1.340753,-7.872135,3.7493198
0.15303616,4.6850414,-5.823499,2.5156887,1.272126,1.340753,-7.872135,3.7493198
0.15434885,4.6786423,-6.0780973,2.5401897,1.4436336,1.1923125,-8.461109,3.4237084
0.1556456,4.672239,-6.0780973,2.5401897,1.4436336,1.1923125,-8.461109,3.4237084
0.15707707,4.665616,-6.290085,2.552973,1.5970316,0.89064306,-8.90643,3.0071173
0.15849183,4.6589885,-6.290085,2.552973,1.5970316,0.89064306,-8.90643,3.0071173
0.16001727,4.652183,-6.4605274,2.552973,1.7301897,0.6895301,-9.509769,2.5187001
0.1615255,4.645373,-6.4605274,2.552973,1.7301897,0.6895301,-9.509769,2.5187001
0.16312917,4.6384215,-6.5958157,2.545516,1.844173,0.46926352,-10.079589,2.2697031
0.16471525,4.6314645,-6.5958157,2.545516,1.844173,0.46926352,-10.079589,2.2697031
0.16638263,4.624403,-6.6948853,2.5306025,1.9453732,0.24420857,-10.596737,1.910573
0.16803217,4.617336,-6.6948853,2.5306025,1.9453732,0.24420857,-10.596737,1.910573
0.16975118,4.610201,-6.7598667,2.5061014,2.0316596,-0.08140286,-10.979809,1.5227122
0.17145371,4.6030517,-6.7598667,2.5061014,2.0316596,-0.08140286,-10.979809,1.5227122
0.1732173,4.595884,-6.793955,2.4709475,2.1051629,-0.58897364,-11.291056,1.1444284
0.1749643,4.588702,-6.793955,2.4709475,2.1051629,-0.58897364,-11.291056,1.1444284
0.17676614,4.5815196,-6.7960854,2.4251413,2.1701438,-0.93373865,-11.549629,0.770933
0.17854954,4.5743303,-6.7960854,2.4251413,2.1701438,-0.93373865,-11.549629,0.770933
0.18038328,4.567167,-6.773715,2.3665516,2.2255378,-1.2545617,-11.69807,0.47405192
0.1821985,4.559996,-6.773715,2.3665516,2.2255378,-1.2545617,-11.69807,0.47405192
0.18405429,4.5528784,-6.725778,2.295179,2.2724092,-1.4939818,-11.903971,0.062249243
0.18589368,4.545747,-6.725778,2.295179,2.2724092,-1.4939818,-11.903971,0.062249243
0.18776001,4.538709,-6.652275,2.2131536,2.3128893,-1.5993267,-12.100295,-0.3878607
0.18961063,4.5316567,-6.652275,2.2131536,2.3128893,-1.5993267,-12.100295,-0.3878607
0.19147927,4.5247097,-6.5542707,2.1236713,2.343782,-1.6184803,-12.248735,-0.8331822
0.19333154,4.5177546,-6.5542707,2.1236713,2.343782,-1.6184803,-12.248735,-0.8331822
0.19519298,4.510927,-6.434961,2.0320587,2.3629568,-1.7429788,-12.373235,-1.3359646
0.19703981,4.504093,-6.434961,2.0320587,2.3629568,-1.7429788,-12.373235,-1.3359646
0.19888446,4.4974065,-6.294346,1.9351196,2.3736095,-1.8770541,-12.430696,-1.8531121
0.20071687,4.490714,-6.294346,1.9351196,2.3736095,-1.8770541,-12.430696,-1.8531121
0.20250565,4.484161,-6.1356215,1.8339194,2.3746748,-1.8818425,-12.531252,-2.4851813
0.20428695,4.4776087,-6.1356215,1.8339194,2.3746748,-1.8818425,-12.531252,-2.4851813
0.20604075,4.471196,-5.959853,1.7295235,2.3672178,-1.934515,-12.516887,-2.9257145
0.20778576,4.4647856,-5.959853,1.7295235,2.3672178,-1.934515,-12.516887,-2.9257145
0.20952381,4.4585443,-5.770236,1.6208665,2.3523042,-1.9153614,-12.65575,-3.3279405
0.21124908,4.452298,-5.770236,1.6208665,2.3523042,-1.9153614,-12.65575,-3.3279405
0.21297356,4.446252,-5.568901,1.5143402,2.3299336,-1.9680338,-12.713211,-3.6343982
0.21468167,4.440206,-5.568901,1.5143402,2.3299336,-1.9680338,-12.713211,-3.6343982
0.21637376,4.4341664,-5.568901,1.5143402,2.3299336,-1.9680338,-12.713211,-3.6343982
0.21806192,4.4283357,-5.3579783,1.4131399,2.303302,-1.982399,-12.832921,-3.8977604
0.21973588,4.4225044,-5.3579783,1.4131399,2.303302,-1.982399,-12.832921,-3.8977604
0.22141145,4.4168916,-5.138534,1.3151356,2.27454,-2.1499932,-12.852075,-4.19943
0.22307135,4.4112763,-5.138534,1.3151356,2.27454,-2.1499932,-12.852075,-4.19943
0.22472428,4.4058976,-4.909502,1.2213924,2.2415166,-2.2218192,-12.990938,-4.414908
0.22636084,4.400522,-4.909502,1.2213924,2.2415166,-2.2218192,-12.990938,-4.414908
0.22800237,4.395378,-4.6719484,1.130845,2.206363,-2.360683,-12.98615,-4.6926355
0.22962731,4.3902364,-4.6719484,1.130845,2.206363,-2.360683,-12.98615,-4.6926355
0.23124541,4.385349,-4.4269376,1.0434933,2.171209,-2.4516625,-13.144167,-4.8985367
0.23284803,4.3804636,-4.4269376,1.0434933,2.171209,-2.4516625,-13.144167,-4.8985367
0.23444988,4.3758297,-4.179796,0.95827204,2.133925,-2.5234885,-13.153744,-5.133168
0.23603736,4.3711967,-4.179796,0.95827204,2.133925,-2.5234885,-13.153744,-5.133168
0.23761947,4.3668256,-3.926263,0.87731194,2.0955753,-2.6144683,-13.201628,-5.3247046
0.23918822,4.3624554,-3.926263,0.87731194,2.0955753,-2.6144683,-13.201628,-5.3247046
0.23918822,4.3624554,-3.926263,0.87731194,2.0955753,-2.6144683,-13.201628,-5.3247046
0.23918822,4.3624554,-3.926263,0.87731194,2.0955753,-2.6144683,-13.201628,-5.3247046
0.24432841,4.3496637,-3.4149363,0.7281749,2.0060933,-2.7629087,-13.206416,-5.5976434
0.2453844,4.346991,-3.4149363,0.7281749,2.0060933,-2.7629087,-13.206416,-5.5976434
0.24688691,4.3434258,-3.1582074,0.655737,1.9592216,-2.8443117,-13.254301,-5.770026
0.2484101,4.34004,-2.9036093,0.5854295,1.9059583,-2.9017725,-13.129802,-5.8801594
0.24996358,4.3365655,-2.9036093,0.5854295,1.9059583,-2.9017725,-13.129802,-5.8801594
0.2512986,4.3337517,-2.652207,0.51725256,1.8473688,-2.873042,-13.148955,-5.90889
0.25268072,4.3308225,-2.652207,0.51725256,1.8473688,-2.873042,-13.148955,-5.90889
0.2541019,4.327794,-2.652207,0.51725256,1.8473688,-2.873042,-13.148955,-5.90889
0.2555064,4.3250184,-2.4050655,0.44907564,1.7823876,-3.0214825,-12.98615,-6.042965
0.2569075,4.322235,-2.4050655,0.44907564,1.7823876,-3.0214825,-12.98615,-6.042965
0.25824788,4.3197293,-2.1600547,0.381964,1.7088844,-2.7389667,-12.799402,-6.042965
0.25963682,4.3171215,-2.1600547,0.381964,1.7088844,-2.7389667,-12.799402,-6.042965
0.26094952,4.3149,-1.9203702,0.31485233,1.6257938,-3.1747115,-12.162544,-6.373365
0.26226184,4.3126707,-1.9203702,0.31485233,1.6257938,-3.1747115,-12.162544,-6.373365
0.26347417,4.3106847,-1.6966647,0.24774067,1.52992,-2.585738,-12.239159,-6.1100025
0.2646886,4.308688,-1.6966647,0.24774067,1.52992,-2.585738,-12.239159,-6.1100025
0.26578778,4.3069906,-1.4825464,0.1838248,1.4233935,-2.3080103,-12.904747,-5.683835
0.26688415,4.305296,-1.4825464,0.1838248,1.4233935,-2.3080103,-12.904747,-5.683835
0.26789504,4.3038297,-1.2641673,0.13269211,1.3051492,-2.4372973,-12.741941,-5.7748146
0.26890817,4.3023586,-1.2641673,0.13269211,1.3051492,-2.4372973,-12.741941,-5.7748146
0.26997456,4.30095,-1.0425923,0.086885735,1.179448,-3.1268275,-12.229582,-6.081272
0.27087718,4.299754,-1.0425923,0.086885735,1.179448,-3.1268275,-12.229582,-6.081272
0.27175763,4.298727,-0.8263436,0.031491987,1.0462899,-3.2082303,-11.693281,-6.2967505
0.2726533,4.29768,-0.8263436,0.031491987,1.0462899,-3.2082303,-11.693281,-6.2967505
0.27342647,4.296867,-0.6250086,-0.035619672,0.901414,-2.7150247,-11.36767,-6.3350577
0.27419755,4.2960544,-0.6250086,-0.035619672,0.901414,-2.7150247,-11.36767,-6.3350577
0.27481177,4.2954845,-0.44284838,-0.1037966,0.7437548,-1.934515,-11.343728,-6.0860605
0.2754254,4.294915,-0.44284838,-0.1037966,0.7437548,-1.934515,-11.343728,-6.0860605
0.27591747,4.2945347,-0.27666712,-0.15599456,0.575443,-2.0254946,-11.056423,-6.143522
0.2763187,4.2942977,-0.1275301,-0.19647461,0.3932828,-1.8195933,-10.572795,-6.220136
0.27661455,4.2941227,-0.1275301,-0.19647461,0.3932828,-1.8195933,-10.572795,-6.220136
0.2769638,4.293916,-0.1275301,-0.19647461,0.3932828,-1.8195933,-10.572795,-6.220136
0.27713814,4.293881,0.0045626974,-0.22310622,0.20579627,-1.6328455,-10.582372,-6.0238113
0.27731302,4.293845,0.0045626974,-0.22310622,0.20579627,-1.6328455,-10.582372,-6.0238113
0.2772973,4.2939944,0.12493758,-0.24015045,0.018309724,-1.7429788,-11.291056,-5.602432
0.27728224,4.2941375,0.12493758,-0.24015045,0.018309724,-1.7429788,-11.291056,-5.602432
0.27714834,4.294378,0.24531247,-0.24334624,-0.16065471,-2.4229321,-10.97502,-5.9663506
0.27701306,4.294621,0.24531247,-0.24334624,-0.16065471,-2.4229321,-10.97502,-5.9663506
0.27677634,4.2949877,0.36781788,-0.25399888,-0.3279012,-2.9017725,-10.6158905,-6.26802
0.27654028,4.2953534,0.36781788,-0.25399888,-0.3279012,-2.9017725,-10.6158905,-6.26802
0.27617645,4.2958646,0.48819277,-0.2838263,-0.47810352,-2.858677,-10.668563,-6.363788
0.27581275,4.2963758,0.48819277,-0.2838263,-0.47810352,-2.858677,-10.668563,-6.363788
0.27532056,4.2970357,0.6021761,-0.3285674,-0.61445737,-2.528277,-10.7356,-6.291962
0.27482876,4.297695,0.6021761,-0.3285674,-0.61445737,-2.528277,-10.7356,-6.291962
0.27424085,4.2984953,0.7172246,-0.37543905,-0.7348322,-2.480393,-10.888829,-6.2871737
0.27365196,4.299296,0.7172246,-0.37543905,-0.7348322,-2.480393,-10.888829,-6.2871737
0.27299115,4.300236,0.83653426,-0.42018014,-0.83709764,-2.4708161,-10.869676,-6.4308257
0.27233046,4.301175,0.83653426,-0.42018014,-0.83709764,-2.4708161,-10.869676,-6.4308257
0.27160323,4.302262,0.96223545,-0.46705177,-0.92657983,-2.2361844,-10.654198,-6.540959
0.2708759,4.303347,0.96223545,-0.46705177,-0.92657983,-2.2361844,-10.654198,-6.540959
0.27010372,4.304579,1.0900671,-0.5181845,-0.99901783,-2.1691468,-10.496181,-6.588843
0.2693312,4.3058095,1.0900671,-0.5181845,-0.99901783,-2.1691468,-10.496181,-6.588843
0.26852918,4.3071847,1.2200295,-0.5661214,-1.0533463,-2.1212628,-10.371682,-6.6175733
0.267725,4.3085613,1.2200295,-0.5661214,-1.0533463,-2.1212628,-10.371682,-6.6175733
0.2669099,4.3100786,1.3510569,-0.60979724,-1.0927612,-2.2840683,-10.25676,-6.5505357
0.26609403,4.311595,1.3510569,-0.60979724,-1.0927612,-2.2840683,-10.25676,-6.5505357
0.2652766,4.3132563,1.4852803,-0.65240777,-1.1119359,-2.27928,-10.242394,-6.555324
0.26445827,4.314916,1.4852803,-0.65240777,-1.1119359,-2.27928,-10.242394,-6.555324
0.26364893,4.316725,1.6226994,-0.69501835,-1.1119359,-2.1691468,-10.333375,-6.5361705
0.26283863,4.3185315,1.6226994,-0.69501835,-1.1119359,-2.1691468,-10.333375,-6.5361705
0.26205814,4.320488,1.7654449,-0.7365637,-1.0959569,-2.1739352,-10.376471,-6.5936313
0.2612763,4.3224435,1.7654449,-0.7365637,-1.0959569,-2.1739352,-10.376471,-6.5936313
0.26053143,4.324553,1.9135166,-0.77704376,-1.0703906,-2.2361844,-10.505757,-6.5122285
0.2597852,4.326661,1.9135166,-0.77704376,-1.0703906,-2.2361844,-10.505757,-6.5122285
0.2590922,4.328924,2.0658493,-0.8164585,-1.0309758,-2.3415294,-10.6398325,-6.612785
0.25839752,4.3311863,2.0658493,-0.8164585,-1.0309758,-2.3415294,-10.6398325,-6.612785
0.25776172,4.333605,2.2192476,-0.8537428,-0.98090833,-2.4037786,-10.788273,-6.612785
0.25712395,4.3360214,2.2192476,-0.8537428,-0.98090833,-2.4037786,-10.788273,-6.612785
0.2565524,4.3385935,2.3726456,-0.8888965,-0.9223188,-2.4708161,-10.850522,-6.517017
0.25597936,4.3411617,2.3726456,-0.8888965,-0.9223188,-2.4708161,-10.850522,-6.517017
0.25547388,4.343889,2.5249784,-0.9219197,-0.8562724,-2.4468741,-10.85531,-6.3829417
0.25496683,4.3466125,2.5249784,-0.9219197,-0.8562724,-2.4468741,-10.85531,-6.3829417
0.25453103,4.349485,2.6730502,-0.9538776,-0.7870302,-2.3894134,-10.749966,-6.244078
0.25409296,4.352356,2.6730502,-0.9538776,-0.7870302,-2.3894134,-10.749966,-6.244078
0.25372034,4.3553705,2.8147304,-0.9826398,-0.7167227,-2.2361844,-10.635044,-6.0238113
0.2533453,4.358384,2.8147304,-0.9826398,-0.7167227,-2.2361844,-10.635044,-6.0238113
0.25302827,4.361532,2.9457579,-1.0092714,-0.6517416,-2.0973208,-10.5440645,-5.7365074
0.25270885,4.364679,2.9457579,-1.0092714,-0.6517416,-2.0973208,-10.5440645,-5.7365074
0.25244132,4.3679485,3.0661328,-1.0327072,-0.5952826,-2.0111294,-10.409989,-5.482722
0.2521712,4.371217,3.0661328,-1.0327072,-0.5952826,-2.0111294,-10.409989,-5.482722
0.25194225,4.3745995,3.1779854,-1.0497514,-0.54628044,-1.9440918,-10.299856,-5.1762643
0.25171074,4.377981,3.1779854,-1.0497514,-0.54628044,-1.9440918,-10.299856,-5.1762643
0.25151226,4.38147,3.2802508,-1.0604041,-0.50580037,-1.8962077,-10.146626,-4.9224787
0.25131175,4.3849506,3.2802508,-1.0604041,-0.50580037,-1.8962077,-10.146626,-4.9224787
0.25112906,4.3885317,3.373994,-1.0710567,-0.47810352,-1.7812861,-10.041282,-4.7405195
0.25094402,4.3921113,3.373994,-1.0710567,-0.47810352,-1.7812861,-10.041282,-4.7405195
0.25076458,4.3957806,3.457085,-1.0817094,-0.46105927,-1.6759412,-9.92636,-4.4915223
0.25058296,4.399448,3.457085,-1.0817094,-0.46105927,-1.6759412,-9.92636,-4.4915223
0.250395,4.4031997,3.5316534,-1.0955578,-0.4546677,-1.5562311,-9.907207,-4.271256
0.25020468,4.4069495,3.5316534,-1.0955578,-0.4546677,-1.5562311,-9.907207,-4.271256
0.24998726,4.410787,3.5998302,-1.1115367,-0.4631898,-1.3982137,-9.864111,-3.9312792
0.24976763,4.414622,3.5998302,-1.1115367,-0.4631898,-1.3982137,-9.864111,-3.9312792
0.24951296,4.4185433,3.663746,-1.1317768,-0.4844951,-1.2162545,-9.878476,-3.6774938
0.24925563,4.4224615,3.663746,-1.1317768,-0.4844951,-1.2162545,-9.878476,-3.6774938
0.24895796,4.4264574,3.7212703,-1.1509515,-0.5175183,-1.1540052,-9.730036,-3.3901896
0.24865733,4.430449,3.7212703,-1.1509515,-0.5175183,-1.1540052,-9.730036,-3.3901896
0.24830739,4.434524,3.7745335,-1.1722568,-0.5590636,-1.115698,-9.672575,-3.0597897
0.24795355,4.438594,3.7745335,-1.1722568,-0.5590636,-1.115698,-9.672575,-3.0597897
0.24755256,4.442749,3.8288622,-1.1946274,-0.6038047,-0.8762778,-9.595961,-2.7629087
0.24714652,4.4468994,3.8288622,-1.1946274,-0.6038047,-0.8762778,-9.595961,-2.7629087
0.2466918,4.4511166,3.8789296,-1.2148675,-0.65387213,-0.58897364,-9.351752,-2.5474305
0.24623117,4.4553294,3.8789296,-1.2148675,-0.65387213,-0.58897364,-9.351752,-2.5474305
0.24571747,4.4595895,3.92154,-1.2308464,-0.7071354,-0.21068975,-9.126697,-2.4756045
0.24519801,4.4638457,3.92154,-1.2308464,-0.7071354,-0.21068975,-9.126697,-2.4756045
0.24462055,4.46813,3.9545634,-1.2383033,-0.7635944,0.17717093,-8.7053175,-2.4995465
0.24403742,4.47241,3.9545634,-1.2383033,-0.7635944,0.17717093,-8.7053175,-2.4995465
0.2433876,4.476705,3.973738,-1.2351074,-0.826445,0.6512229,-8.293514,-2.542642
0.24273217,4.480996,3.973738,-1.2351074,-0.826445,0.6512229,-8.293514,-2.542642
0.24200243,4.485284,3.9748032,-1.2233895,-0.8946219,1.1109096,-7.771579,-2.5330653
0.24126716,4.4895687,3.9748032,-1.2233895,-0.8946219,1.1109096,-7.771579,-2.5330653
0.24044809,4.4938335,3.9556286,-1.1988884,-0.96812516,1.6280571,-7.311892,-2.3989902
0.23962334,4.4980955,3.9556286,-1.1988884,-0.96812516,1.6280571,-7.311892,-2.3989902
0.23870742,4.5023074,3.9119527,-1.1626694,-1.04802,1.9009962,-6.871359,-2.1787236
0.23778416,4.5065246,3.9119527,-1.1626694,-1.04802,1.9009962,-6.871359,-2.1787236
0.2367637,4.5106745,3.8480368,-1.1189936,-1.1332412,2.054225,-6.4882865,-1.8339585
0.23573771,4.514821,3.8480368,-1.1189936,-1.1332412,2.054225,-6.4882865,-1.8339585
0.2346136,4.5188866,3.763881,-1.0646651,-1.2184623,2.054225,-6.2488666,-1.388637
0.23348406,4.5229487,3.763881,-1.0646651,-1.2184623,2.054225,-6.2488666,-1.388637
0.23226242,4.526908,3.6616156,-1.0039451,-1.2983571,1.8435353,-6.042965,-1.0007763
0.23103067,4.53088,3.6616156,-1.0039451,-1.2983571,1.8435353,-6.042965,-1.0007763
0.22958799,4.535111,3.5476322,-0.9368334,-1.3697299,1.7286136,-6.0381765,-0.6703765
0.22839211,4.538602,3.5476322,-0.9368334,-1.3697299,1.7286136,-6.0381765,-0.6703765
0.2270119,4.5423164,3.421931,-0.8675912,-1.4251236,1.6711528,-6.081272,-0.33039984
0.2256519,4.54596,3.421931,-0.8675912,-1.4251236,1.6711528,-6.081272,-0.33039984
0.22422965,4.5495014,3.2877078,-0.79515326,-1.4624078,1.532289,-5.9663506,-0.11971009
0.22279452,4.553061,3.2877078,-0.79515326,-1.4624078,1.532289,-5.9663506,-0.11971009
0.22132689,4.5564632,3.1449623,-0.71951944,-1.4837132,1.5993267,-5.8945246,0.047884032
0.21985693,4.5598583,3.1449623,-0.71951944,-1.4837132,1.5993267,-5.8945246,0.047884032
0.2183773,4.563079,2.9894338,-0.6342983,-1.4837132,1.5227122,-5.683835,0.22026655
0.21689302,4.5663,2.9894338,-0.6342983,-1.4837132,1.5227122,-5.683835,0.22026655
0.21541463,4.5693283,2.821122,-0.54268557,-1.4645385,2.0015526,-5.592855,0.4261679
0.2139335,4.572355,2.821122,-0.54268557,-1.4645385,2.0015526,-5.592855,0.4261679
0.21247187,4.5751777,2.6378965,-0.4393549,-1.4315152,2.858677,-5.305551,0.8379706
0.21101265,4.5779896,2.6378965,-0.4393549,-1.4315152,2.858677,-5.305551,0.8379706
0.20954672,4.5806265,2.435496,-0.30726212,-1.3867741,3.5482068,-4.7548847,1.0199299
0.20813957,4.5831537,2.435496,-0.30726212,-1.3867741,3.5482068,-4.7548847,1.0199299
0.2067465,4.585455,2.2043338,-0.13895033,-1.3271192,3.8259344,-3.8546648,1.0965444
0.2053527,4.587755,2.2043338,-0.13895033,-1.3271192,3.8259344,-3.8546648,1.0965444
0.2040009,4.589746,1.9337566,0.057058334,-1.2610729,4.036624,-3.0071173,1.2354081
0.20265289,4.59173,1.9337566,0.057058334,-1.2610729,4.036624,-3.0071173,1.2354081
0.20135805,4.5933547,1.6152426,0.27330703,-1.1886349,3.514688,-2.0590134,1.3694834
0.20006338,4.5949783,1.6152426,0.27330703,-1.1886349,3.514688,-2.0590134,1.3694834
0.1988279,4.5961905,1.2455958,0.49488202,-1.1140664,4.2425256,-1.934515,2.2170308
0.19759268,4.5974026,1.2455958,0.49488202,-1.1140664,4.2425256,-1.934515,2.2170308
0.19642834,4.598161,0.8301427,0.7303055,-1.0288452,3.5098996,-2.030283,2.930503
0.19526437,4.5989203,0.8301427,0.7303055,-1.0288452,3.5098996,-2.030283,2.930503
0.1941772,4.599188,0.38379684,0.9689247,-0.93616724,2.9879637,-1.4221559,3.2800562
0.19309022,4.5994563,0.38379684,0.9689247,-0.93616724,2.9879637,-1.4221559,3.2800562
0.19309022,4.5994563,0.38379684,0.9689247,-0.93616724,2.9879637,-1.4221559,3.2800562
0.19309022,4.5994563,0.38379684,0.9689247,-0.93616724,2.9879637,-1.4221559,3.2800562
0.19309022,4.5994563,0.38379684,0.9689247,-0.93616724,2.9879637,-1.4221559,3.2800562
0.18916719,4.595996,-1.118226,1.6080834,-0.6346974,3.6487634,-0.842759,4.5202527
0.1884544,4.5948668,-1.118226,1.6080834,-0.6346974,3.6487634,-0.842759,4.5202527
0.18759915,4.5935163,-1.118226,1.6080834,-0.6346974,3.6487634,-0.842759,4.5202527
0.18681997,4.5915527,-1.6710982,1.8126142,-0.52177936,3.4141316,-1.2689269,4.8219223
0.1860444,4.589608,-1.6710982,1.8126142,-0.52177936,3.4141316,-1.2689269,4.8219223
0.18532357,4.586954,-2.2367537,2.0011659,-0.4099266,3.0454245,-1.9536686,4.9416323
0.18467282,4.5845757,-2.2367537,2.0011659,-0.4099266,3.0454245,-1.9536686,4.9416323
0.18407181,4.5814786,-2.8034744,2.1652167,-0.29700854,2.6479871,-2.5905263,4.936844
0.18345602,4.5783386,-2.8034744,2.1652167,-0.29700854,2.6479871,-2.5905263,4.936844
0.1829321,4.574627,-3.3606076,2.2983747,-0.18409052,2.0733786,-3.3375173,5.0517654
0.18239903,4.5709085,-3.3606076,2.2983747,-0.18409052,2.0733786,-3.3375173,5.0517654
0.18196204,4.5666513,-3.8996315,2.3995748,-0.0679767,1.6903064,-4.280833,5.243302
0.18151559,4.5624,-3.8996315,2.3995748,-0.0679767,1.6903064,-4.280833,5.243302
0.18116619,4.557605,-4.4035015,2.4720128,0.052398186,1.3551182,-5.377377,5.4204726
0.1808059,4.5528207,-4.4035015,2.4720128,0.052398186,1.3551182,-5.377377,5.4204726
0.1805514,4.547553,-4.8626304,2.521015,0.1780994,0.92895025,-6.540959,5.4779334
0.18028654,4.5423384,-4.8626304,2.521015,0.1780994,0.92895025,-6.540959,5.4779334
0.1801325,4.536683,-5.266366,2.5465813,0.3091269,0.5363012,-7.809886,5.329493
0.1799642,4.5310287,-5.266366,2.5465813,0.3091269,0.5363012,-7.809886,5.329493
0.17991649,4.5250354,-5.608316,2.5508425,0.44654605,0.20590134,-8.820239,5.0661306
0.1798535,4.5190363,-5.608316,2.5508425,0.44654605,0.20590134,-8.820239,5.0661306
0.17992207,4.5127583,-5.887415,2.5337982,0.591422,-0.20111294,-9.797073,4.7405195
0.17997456,4.5064797,-5.887415,2.5337982,0.591422,-0.20111294,-9.797073,4.7405195
0.18016066,4.499983,-6.107925,2.4943833,0.7352327,-0.48362875,-10.721235,4.5777135
0.18033017,4.4934855,-6.107925,2.4943833,0.7352327,-0.48362875,-10.721235,4.5777135
0.18063945,4.4868283,-6.273041,2.4336634,0.8811739,-0.7278373,-11.468226,4.3478703
0.1809319,4.48017,-6.273041,2.4336634,0.8811739,-0.7278373,-11.468226,4.3478703
0.18137126,4.473405,-6.3859587,2.355899,1.0292457,-1.0103531,-11.951855,4.098873
0.18179406,4.466632,-6.3859587,2.355899,1.0292457,-1.0103531,-11.951855,4.098873
0.18236592,4.4598002,-6.4530706,2.2653515,1.1762522,-1.2258313,-12.20564,3.6535518
0.18291982,4.45298,-6.4530706,2.2653515,1.1762522,-1.2258313,-12.20564,3.6535518
0.18362136,4.4461365,-6.4850283,2.170543,1.3200629,-1.3982137,-12.224793,3.1890767
0.18430908,4.4392624,-6.4850283,2.170543,1.3200629,-1.3982137,-12.224793,3.1890767
0.18514107,4.4324303,-6.4860935,2.0725386,1.4638736,-1.4413095,-12.038046,2.5474305
0.18595763,4.425588,-6.4860935,2.0725386,1.4638736,-1.4413095,-12.038046,2.5474305
0.18692105,4.4187164,-6.4690495,1.9777302,1.6002275,-1.388637,-11.793838,1.8626889
0.18786173,4.411888,-6.4690495,1.9777302,1.6002275,-1.388637,-11.793838,1.8626889
0.18892327,4.405152,-6.439222,1.8893132,1.7259287,-1.4460979,-11.420342,0.9959879
0.18997881,4.39835,-6.439222,1.8893132,1.7259287,-1.4460979,-11.420342,0.9959879
0.19114655,4.391597,-6.403003,1.8062226,1.8399119,-1.3359646,-11.056423,0.20111294
0.19230007,4.384833,-6.403003,1.8062226,1.8399119,-1.3359646,-11.056423,0.20111294
0.19354664,4.378123,-6.366784,1.731654,1.941112,-1.1971009,-10.649409,-0.61770403
0.1947795,4.3714013,-6.366784,1.731654,1.941112,-1.1971009,-10.649409,-0.61770403
0.19608663,4.3647146,-6.3326955,1.6688035,2.0284638,-1.0390835,-10.295067,-1.316811
0.19737935,4.3580236,-6.3326955,1.6688035,2.0284638,-1.0390835,-10.295067,-1.316811
0.1987195,4.3513603,-6.3007374,1.6155403,2.0998366,-0.92895025,-9.974244,-2.0733786
0.20004627,4.3446927,-6.3007374,1.6155403,2.0998366,-0.92895025,-9.974244,-2.0733786
0.20140019,4.338046,-6.2687798,1.5793213,2.1562955,-0.8619126,-9.629479,-2.5617957
0.2027418,4.3313956,-6.2687798,1.5793213,2.1562955,-0.8619126,-9.629479,-2.5617957
0.20407541,4.324747,-6.2357564,1.5569507,2.1957102,-0.866701,-9.44752,-3.217807
0.20539783,4.3180976,-6.2357564,1.5569507,2.1957102,-0.866701,-9.44752,-3.217807
0.20670548,4.311434,-6.2027335,1.5473633,2.2180808,-0.8858546,-9.32781,-3.7301662
0.20799868,4.304779,-6.2027335,1.5473633,2.2180808,-0.8858546,-9.32781,-3.7301662
0.20928282,4.2981043,-6.165449,1.546298,2.2244725,-0.91458505,-9.370906,-4.185065
0.21054798,4.2914453,-6.165449,1.546298,2.2244725,-0.91458505,-9.370906,-4.185065
0.21180488,4.284781,-6.1196427,1.5494938,2.2170155,-1.1587936,-9.619903,-4.745308
0.21304195,4.2781196,-6.1196427,1.5494938,2.2170155,-1.1587936,-9.619903,-4.745308
0.21425103,4.2715015,-6.0621185,1.5526897,2.1978407,-1.412579,-10.0269165,-5.070919
0.21544062,4.264881,-6.0621185,1.5526897,2.1978407,-1.412579,-10.0269165,-5.070919
0.21660078,4.258317,-5.991811,1.5516244,2.1680133,-1.7717092,-10.572795,-5.5258174
0.2177384,4.2517576,-5.991811,1.5516244,2.1680133,-1.7717092,-10.572795,-5.5258174
0.21882582,4.245304,-5.9033937,1.542037,2.1317945,-2.0829554,-11.257536,-5.8226986
0.21988514,4.238899,-5.9033937,1.542037,2.1317945,-2.0829554,-11.257536,-5.8226986
0.22091158,4.2326374,-5.794737,1.5186012,2.0913143,-2.4516625,-12.014104,-5.9902925
0.2219457,4.226306,-5.794737,1.5186012,2.0913143,-2.4516625,-12.014104,-5.9902925
0.22299959,4.2202334,-5.6637096,1.4834474,2.0487037,-2.9017725,-12.904747,-6.2009826
0.2240414,4.2141767,-5.6637096,1.4834474,2.0487037,-2.9017725,-12.904747,-6.2009826
0.22511959,4.2082534,-5.5028543,1.4344453,2.009289,-3.4572272,-13.737929,-6.315904
0.22618312,4.202326,-5.5028543,1.4344453,2.009289,-3.4572272,-13.737929,-6.315904
0.22725196,4.196624,-5.311107,1.3673337,1.9741353,-3.9312792,-14.441825,-6.411672
0.22831166,4.1908903,-5.311107,1.3673337,1.9741353,-3.9312792,-14.441825,-6.411672
0.22942972,4.185252,-5.089532,1.279982,1.9400468,-4.572925,-14.867992,-6.8282633
0.23047261,4.179919,-5.089532,1.279982,1.9400468,-4.572925,-14.867992,-6.8282633
0.2315385,4.174727,-4.839195,1.1628028,1.9038278,-4.5154643,-15.749059,-6.71813
0.23258942,4.169548,-4.839195,1.1628028,1.9038278,-4.5154643,-15.749059,-6.71813
0.23366268,4.1646676,-4.553704,1.0243185,1.8697393,-4.4580035,-16.773777,-6.603208
0.2347294,4.1597695,-4.553704,1.0243185,1.8697393,-4.4580035,-16.773777,-6.603208
0.23584104,4.1552444,-4.2202764,0.87837726,1.8345857,-4.8219223,-16.960526,-7.043741
0.23694494,4.150712,-4.2202764,0.87837726,1.8345857,-4.8219223,-16.960526,-7.043741
0.23810999,4.1465898,-3.8399768,0.7239139,1.7983667,-5.3103395,-16.912642,-7.560889
0.23926698,4.1424656,-3.8399768,0.7239139,1.7983667,-5.3103395,-16.912642,-7.560889
0.24049646,4.1387873,-3.4213278,0.5556021,1.7589519,-5.6359506,-16.443377,-7.9631147
0.24171624,4.1351147,-3.4213278,0.5556021,1.7589519,-5.6359506,-16.443377,-7.9631147
0.24302873,4.1318426,-2.974982,0.37344187,1.7131455,-5.511452,-16.19917,-8.274361
0.24427375,4.1287217,-2.974982,0.37344187,1.7131455,-5.511452,-16.19917,-8.274361
0.24559106,4.1260533,-2.5052004,0.18062901,1.6588169,-5.0517654,-15.811308,-8.532935
0.24689803,4.123394,-2.5052004,0.18062901,1.6588169,-5.0517654,-15.811308,-8.532935
0.24822108,4.121254,-2.0215702,-0.005792269,1.5895748,-4.4005427,-15.485697,-8.619126
0.24953684,4.1191177,-2.0215702,-0.005792269,1.5895748,-4.4005427,-15.485697,-8.619126
0.25085005,4.1175165,-1.5304834,-0.17410405,1.5043536,-4.0940847,-15.102624,-8.796297
0.25216356,4.115911,-1.5304834,-0.17410405,1.5043536,-4.0940847,-15.102624,-8.796297
0.25344288,4.1148434,-1.0351354,-0.32324108,1.3988924,-3.5194764,-15.5671,-8.537724
0.25472236,4.113774,-1.0351354,-0.32324108,1.3988924,-3.5194764,-15.5671,-8.537724
0.2559428,4.113245,-0.52806956,-0.44574648,1.2753218,-3.4476504,-14.930242,-8.8777
0.25716248,4.1127157,-0.52806956,-0.44574648,1.2753218,-3.4476504,-14.930242,-8.8777
0.25828156,4.1126904,-0.017807856,-0.5448161,1.1442943,-4.1036615,-14.03481,-9.461885
0.2594021,4.1126633,-0.017807856,-0.5448161,1.1442943,-4.1036615,-14.03481,-9.461885
0.26061454,4.1130147,0.4754096,-0.63642883,1.0047446,-4.525041,-13.474567,-9.787497
0.26182318,4.113366,0.4754096,-0.63642883,1.0047446,-4.525041,-13.474567,-9.787497
0.26292714,4.114235,0.94412595,-0.73762894,0.8588034,-4.3861775,-13.570335,-9.883265
0.2642435,4.115275,0.94412595,-0.73762894,0.8588034,-4.3861775,-13.570335,-9.883265
0.26503447,4.1164346,1.3894064,-0.84202486,0.70647055,-4.0797195,-13.833697,-9.797073
0.26597077,4.117805,1.3894064,-0.84202486,0.70647055,-4.0797195,-13.833697,-9.797073
0.2668557,4.119666,1.8155123,-0.93896395,0.55094194,-4.1371803,-13.939042,-9.902418
0.2677437,4.12153,1.8155123,-0.93896395,0.55094194,-4.1371803,-13.939042,-9.902418
0.2686188,4.1238146,2.2203128,-1.0284462,0.390087,-4.5202527,-13.728353,-10.079589
0.26949152,4.1261005,2.2203128,-1.0284462,0.390087,-4.5202527,-13.728353,-10.079589
0.2703245,4.1288095,2.5984817,-1.1243199,0.22710156,-4.8458643,-13.374011,-10.1226845
0.2711528,4.1315193,2.5984817,-1.1243199,0.22710156,-4.8458643,-13.374011,-10.1226845
0.2719097,4.134635,2.9489536,-1.2308464,0.0609203,-4.88896,-13.153744,-9.921572
0.27266687,4.1377764,2.9489536,-1.2308464,0.0609203,-4.88896,-13.153744,-9.921572
0.2733502,4.141238,3.2717288,-1.3458949,-0.104195684,-5.0661306,-12.947843,-9.782708
0.27403206,4.144728,3.2717288,-1.3458949,-0.104195684,-5.0661306,-12.947843,-9.782708
0.27466732,4.1485815,3.5721333,-1.4684004,-0.26398537,-5.185841,-12.780249,-9.337387
0.27529454,4.152442,3.5721333,-1.4684004,-0.26398537,-5.185841,-12.780249,-9.337387
0.2758497,4.1566343,3.8512325,-1.5972973,-0.4216445,-5.023035,-12.684481,-9.030929
0.27639383,4.1608267,3.8512325,-1.5972973,-0.4216445,-5.023035,-12.684481,-9.030929
0.27684256,4.165335,4.1154184,-1.7251291,-0.5803689,-4.654328,-12.583924,-8.6574335
0.277279,4.16984,4.1154184,-1.7251291,-0.5803689,-4.654328,-12.583924,-8.6574335
0.2776008,4.174657,4.366821,-1.8455039,-0.73802805,-4.2760444,-12.320562,-8.379706
0.27791196,4.17947,4.366821,-1.8455039,-0.73802805,-4.2760444,-12.320562,-8.379706
0.2781052,4.1845784,4.606505,-1.9573568,-0.89568716,-3.9360676,-12.081141,-8.192958
0.27828917,4.189687,4.606505,-1.9573568,-0.89568716,-3.9360676,-12.081141,-8.192958
0.27835768,4.195072,4.832341,-2.0585568,-1.0554769,-3.6343982,-11.75553,-8.001422
0.27841613,4.200458,4.832341,-2.0585568,-1.0554769,-3.6343982,-11.75553,-8.001422
0.27835876,4.206099,5.041133,-2.1491044,-1.2152665,-3.3423057,-11.415554,-8.015787
0.27828977,4.2117386,5.041133,-2.1491044,-1.2152665,-3.3423057,-11.415554,-8.015787
0.2781064,4.217613,5.2360764,-2.227934,-1.3718604,-3.074155,-10.936713,-8.111555
0.27790985,4.22348,5.2360764,-2.227934,-1.3718604,-3.074155,-10.936713,-8.111555
0.2775957,4.229571,5.4129105,-2.2971761,-1.5263238,-2.873042,-10.409989,-8.183381
0.27726656,4.235654,5.4129105,-2.2971761,-1.5263238,-2.873042,-10.409989,-8.183381
0.27681547,4.2419224,5.5673738,-2.357896,-1.6765261,-2.633622,-9.844957,-8.231265
0.2763481,4.2481823,5.5673738,-2.357896,-1.6765261,-2.633622,-9.844957,-8.231265
0.27574772,4.254613,5.69414,-2.4143553,-1.8235325,-2.1739352,-9.308656,-8.1402855
0.27513012,4.261033,5.69414,-2.4143553,-1.8235325,-2.1739352,-9.308656,-8.1402855
0.27438015,4.267574,5.7889485,-2.4590962,-1.9630822,-1.6903064,-8.743625,-8.030152
0.27361128,4.274111,5.7889485,-2.4590962,-1.9630822,-1.6903064,-8.743625,-8.030152
0.27270675,4.2807302,5.8517995,-2.4867933,-2.0941098,-1.1683705,-8.202535,-7.776367
0.2717828,4.287344,5.8517995,-2.4867933,-2.0941098,-1.1683705,-8.202535,-7.776367
0.27072388,4.2940025,5.8858876,-2.4921196,-2.2176805,-0.81402856,-7.6853876,-7.5704656
0.269645,4.3006554,5.8858876,-2.4921196,-2.2176805,-0.81402856,-7.6853876,-7.5704656
0.26842797,4.3073173,5.891214,-2.47401,-2.329533,-0.4261679,-7.3310456,-7.2448545
0.26719096,4.313972,5.891214,-2.47401,-2.329533,-0.4261679,-7.3310456,-7.2448545
0.26582038,4.3206024,5.870974,-2.437791,-2.4328637,-0.19632454,-7.0245876,-7.0102224
0.26442993,4.327225,5.870974,-2.437791,-2.4328637,-0.19632454,-7.0245876,-7.0102224
0.26290777,4.3337965,5.8294287,-2.3845277,-2.5244765,0.07182605,-6.7947445,-6.6893997
0.2613662,4.34036,5.8294287,-2.3845277,-2.5244765,0.07182605,-6.7947445,-6.6893997
0.25895944,4.349785,5.7719045,-2.3184814,-2.5969145,0.02873042,-6.6510925,-6.4739213
0.25797102,4.353606,5.7719045,-2.3184814,-2.5969145,0.02873042,-6.6510925,-6.4739213
0.25578922,4.3614397,5.700532,-2.2471087,-2.6544387,0.25857377,-6.6271505,-6.157887
0.25425172,4.3668942,5.700532,-2.2471087,-2.6544387,0.25857377,-6.6271505,-6.157887
0.25256974,4.3724732,5.6185064,-2.175736,-2.69918,0.7038953,-6.6606693,-5.8466406
0.25064206,4.3788033,5.6185064,-2.175736,-2.69918,0.7038953,-6.6606693,-5.8466406
0.25064206,4.3788033,5.6185064,-2.175736,-2.69918,0.7038953,-6.6606693,-5.8466406
0.25064206,4.3788033,5.6185064,-2.175736,-2.69918,0.7038953,-6.6606693,-5.8466406
0.24419172,4.3984885,5.426759,-2.0127504,-2.7343335,1.2162545,-6.5505357,-5.377377
0.2420761,4.4046044,5.426759,-2.0127504,-2.7343335,1.2162545,-6.5505357,-5.377377
0.24044958,4.409114,5.3127756,-1.9232683,-2.727942,1.2449849,-6.469133,-5.1475334
0.23834886,4.414895,5.3127756,-1.9232683,-2.727942,1.2449849,-6.469133,-5.1475334
0.23620228,4.4205985,5.1924005,-1.8327208,-2.7013104,1.2737153,-6.435614,-4.8219223
0.23403826,4.426304,5.1924005,-1.8327208,-2.7013104,1.2737153,-6.435614,-4.8219223
0.23187725,4.431846,5.060308,-1.7453691,-2.6586998,1.1779473,-6.277597,-4.606444
0.22971079,4.437362,5.060308,-1.7453691,-2.6586998,1.1779473,-6.277597,-4.606444
0.2275419,4.4427567,4.9207582,-1.6612133,-2.5958493,1.316811,-6.301539,-4.0557775
0.22537257,4.4481153,4.9207582,-1.6612133,-2.5958493,1.316811,-6.301539,-4.0557775
0.22328411,4.4532695,4.770556,-1.5781226,-2.5116935,0.7278373,-4.975151,-4.367024
0.22118968,4.458406,4.770556,-1.5781226,-2.5116935,0.7278373,-4.975151,-4.367024
0.2191012,4.463414,4.606505,-1.5024889,-2.4104931,3.0262709,-5.5018754,-3.2034419
0.21700071,4.4684196,4.606505,-1.5024889,-2.4104931,3.0262709,-5.5018754,-3.2034419
0.21497577,4.473238,4.431802,-1.4012887,-2.2911837,2.5330653,-6.181829,-2.480393
0.21497577,4.473238,4.431802,-1.4012887,-2.2911837,2.5330653,-6.181829,-2.480393
0.21082468,4.4831076,4.260294,-1.2681307,-2.1537645,1.316811,-5.947197,-2.882619
0.20903142,4.4873385,4.260294,-1.2681307,-2.1537645,1.316811,-5.947197,-2.882619
0.20733672,4.491396,4.102635,-1.1690611,-2.0195413,1.8195933,-4.3239284,-3.3662477
0.20553803,4.4956837,4.102635,-1.1690611,-2.0195413,1.8195933,-4.3239284,-3.3662477
0.20381913,4.4998255,3.9279318,-1.0774484,-1.8789263,2.9975405,-3.0597897,-3.2082303
0.20209114,4.5039706,3.9279318,-1.0774484,-1.8789263,2.9975405,-3.0597897,-3.2082303
0.20048496,4.5078764,3.7106178,-0.9645303,-1.7223324,3.3135753,-2.3223755,-2.7485435
0.1988739,4.5117784,3.7106178,-0.9645303,-1.7223324,3.3135753,-2.3223755,-2.7485435
0.19739065,4.5154104,3.4528236,-0.8260459,-1.5550859,3.4811692,-2.2409728,-1.9057846
0.19590189,4.519043,3.4528236,-0.8260459,-1.5550859,3.4811692,-2.2409728,-1.9057846
0.19455549,4.5223446,3.1683981,-0.67477834,-1.3739909,2.3942018,-2.1260512,-1.5227122
0.19320628,4.525644,3.1683981,-0.67477834,-1.3739909,2.3942018,-2.1260512,-1.5227122
0.19201402,4.5286293,2.8690588,-0.53735924,-1.1886349,2.681506,-2.111686,-1.0342951
0.19081697,4.53162,2.8690588,-0.53735924,-1.1886349,2.681506,-2.111686,-1.0342951
0.18978198,4.534288,2.560132,-0.41698435,-1.0086052,3.2321723,-1.8962077,-0.6943185
0.18874735,4.536949,2.560132,-0.41698435,-1.0086052,3.2321723,-1.8962077,-0.6943185
0.18787691,4.5392623,2.2362916,-0.29128313,-0.83070606,3.7253778,-1.6184803,-0.31603462
0.18700446,4.541577,2.2362916,-0.29128313,-0.83070606,3.7253778,-1.6184803,-0.31603462
0.1862883,4.5435305,1.8964723,-0.1517335,-0.65387213,3.8833952,-1.3359646,0.02873042
0.1855723,4.545482,1.8964723,-0.1517335,-0.65387213,3.8833952,-1.3359646,0.02873042
0.18500572,4.5470486,1.5385435,0.0016645822,-0.4844951,4.1132383,-1.2593501,0.47884035
0.18443905,4.5486145,1.5385435,0.0016645822,-0.4844951,4.1132383,-1.2593501,0.47884035
0.18401332,4.5497804,1.1657009,0.1657153,-0.31937912,3.9504328,-0.9816227,0.7374141
0.18358928,4.5509415,1.1657009,0.1657153,-0.31937912,3.9504328,-0.9816227,0.7374141
0.1832965,4.551687,0.7800752,0.33189657,-0.16278523,3.8594532,-0.81881696,0.90979666
0.18300393,4.552432,0.7800752,0.33189657,-0.16278523,3.8594532,-0.81881696,0.90979666
0.18283731,4.552745,0.3795358,0.49062097,-0.015778739,3.9600096,-0.50757074,1.1444284
0.1826708,4.553058,0.3795358,0.49062097,-0.015778739,3.9600096,-0.50757074,1.1444284
0.18261985,4.552926,-0.03698262,0.6461496,0.120575115,3.8833952,-0.33518824,1.4269443
0.18256874,4.5527935,-0.03698262,0.6461496,0.120575115,3.8833952,-0.33518824,1.4269443
0.18261358,4.5522003,-0.46947998,0.8070045,0.24201526,3.8498764,-0.49799395,1.661576
0.18265803,4.551607,-0.46947998,0.8070045,0.24201526,3.8498764,-0.49799395,1.661576
0.18278436,4.5505457,-0.9094342,0.9689247,0.34960696,3.8067808,-0.770933,1.9871874
0.18290989,4.549483,-0.9094342,0.9689247,0.34960696,3.8067808,-0.770933,1.9871874
0.18310423,4.5479493,-1.351519,1.130845,0.44654605,3.7588966,-1.2258313,2.2505496
0.18329664,4.546417,-1.351519,1.130845,0.44654605,3.7588966,-1.2258313,2.2505496
0.18354343,4.5444226,-1.7882774,1.2916999,0.53070194,3.5769374,-1.757344,2.4181437
0.18378755,4.542428,-1.7882774,1.2916999,0.53070194,3.5769374,-1.757344,2.4181437
0.18407299,4.5399814,-2.2143831,1.4525548,0.60527045,3.4284968,-2.3702598,2.4420857
0.18435594,4.537524,-2.2143831,1.4525548,0.60527045,3.4284968,-2.3702598,2.4420857
0.18467163,4.5346274,-2.6298363,1.6112791,0.6734474,3.2321723,-2.8874073,2.360683
0.18498246,4.53173,-2.6298363,1.6112791,0.6734474,3.2321723,-2.8874073,2.360683
0.18531828,4.5283933,-3.035702,1.7657425,0.7331022,2.8538885,-3.4859576,2.2218192
0.18564722,4.525066,-3.035702,1.7657425,0.7331022,2.8538885,-3.4859576,2.2218192
0.18599671,4.521323,-3.4298499,1.9116838,0.7884959,2.3175871,-3.964798,2.0111294
0.18633984,4.5175686,-3.4298499,1.9116838,0.7884959,2.3175871,-3.964798,2.0111294
0.18670417,4.513425,-3.8101494,2.0405807,0.8428244,1.8770541,-4.663905,1.8914193
0.18706132,4.509263,-3.8101494,2.0405807,0.8428244,1.8770541,-4.663905,1.8914193
0.18743773,4.504746,-4.1691437,2.1481724,0.89182657,1.5035586,-5.3007627,1.8722657
0.18780638,4.5002007,-4.1691437,2.1481724,0.89182657,1.5035586,-5.3007627,1.8722657
0.18819146,4.495308,-4.5036364,2.2365894,0.93656766,1.2497733,-5.8705826,1.8052281
0.18856457,4.4904237,-4.5036364,2.2365894,0.93656766,1.2497733,-5.8705826,1.8052281
0.18894753,4.4852266,-4.808302,2.3090274,0.9738519,0.9816227,-6.3111157,1.6519991
0.18931831,4.480027,-4.808302,2.3090274,0.9738519,0.9816227,-6.3111157,1.6519991
0.18969356,4.474538,-5.082075,2.3665516,1.0047446,0.842759,-6.8043213,1.5466543
0.19005546,4.4690466,-5.082075,2.3665516,1.0047446,0.842759,-6.8043213,1.5466543
0.19041155,4.463299,-5.32389,2.408097,1.0228541,0.7517793,-7.1347213,1.460463
0.19075324,4.4575496,-5.32389,2.408097,1.0228541,0.7517793,-7.1347213,1.460463
0.1910851,4.451596,-5.5348125,2.440055,1.0324415,0.4261679,-7.4842744,1.3359646
0.1914026,4.445629,-5.5348125,2.440055,1.0324415,0.4261679,-7.4842744,1.3359646
0.19170202,4.439498,-5.7148423,2.456034,1.0335068,0.22984336,-7.800309,1.163582
0.19198667,4.433347,-5.7148423,2.456034,1.0335068,0.22984336,-7.800309,1.163582
0.19224875,4.4270606,-5.862914,2.4581645,1.0281805,0.062249243,-8.020576,0.8810662
0.19249481,4.420773,-5.862914,2.4581645,1.0281805,0.062249243,-8.020576,0.8810662
0.1927149,4.4143806,-5.9768972,2.4475117,1.0164626,-0.05746084,-8.283937,0.58897364
0.19291916,4.4079742,-5.9768972,2.4475117,1.0164626,-0.05746084,-8.283937,0.58897364
0.19309513,4.401473,-6.058923,2.42088,0.99728775,-0.15322891,-8.446744,0.2873042
0.19325393,4.39501,-6.058923,2.42088,0.99728775,-0.15322891,-8.446744,0.2873042
0.19338366,4.3884616,-6.113251,2.3814654,0.97491723,-0.23463176,-8.48984,-0.1436521
0.19349681,4.3819523,-6.113251,2.3814654,0.97491723,-0.23463176,-8.48984,-0.1436521
0.19357711,4.375367,-6.146274,2.3324633,0.9461551,-0.23463176,-8.422802,-0.47884035
0.19364156,4.3688283,-6.146274,2.3324633,0.9461551,-0.23463176,-8.422802,-0.47884035
0.19367401,4.3622727,-6.160123,2.2770696,0.91845816,-0.17717093,-8.465898,-0.82360536
0.19369173,4.355717,-6.160123,2.2770696,0.91845816,-0.17717093,-8.465898,-0.82360536
0.19368209,4.349176,-6.156927,2.2163494,0.89182657,-0.20111294,-8.5473,-1.2018893
0.19365832,4.3426228,-6.156927,2.2163494,0.89182657,-0.20111294,-8.5473,-1.2018893
0.19361265,4.3361335,-6.136687,2.1524336,0.8673255,-0.23942018,-8.619126,-1.5370775
0.1935536,4.3296194,-6.136687,2.1524336,0.8673255,-0.23942018,-8.619126,-1.5370775
0.19347283,4.323167,-6.098337,2.0863872,0.84495497,-0.2681506,-8.7053175,-1.9488802
0.19337983,4.3167214,-6.098337,2.0863872,0.84495497,-0.2681506,-8.7053175,-1.9488802
0.1932701,4.310322,-6.0482697,2.0203407,0.8279107,-0.320823,-8.7771435,-2.360683
0.19314861,4.303905,-6.0482697,2.0203407,0.8279107,-0.320823,-8.7771435,-2.360683
0.19302242,4.2975855,-5.9864845,1.9521638,0.81512755,-0.45489833,-8.892065,-2.7006595
0.1928851,4.2912436,-5.9864845,1.9521638,0.81512755,-0.45489833,-8.892065,-2.7006595
0.19275068,4.285018,-5.915112,1.8829216,0.8108665,-0.51714754,-8.954314,-3.0071173
0.19260651,4.2787886,-5.915112,1.8829216,0.8108665,-0.51714754,-8.954314,-3.0071173
0.19247837,4.2726135,-5.838413,1.811549,0.8183233,-0.62249243,-9.107543,-3.323152
0.19234174,4.266453,-5.838413,1.811549,0.8183233,-0.62249243,-9.107543,-3.323152
0.1922412,4.260389,-5.7542567,1.7369804,0.8364328,-0.7326257,-9.289502,-3.5242648
0.19213276,4.2543335,-5.7542567,1.7369804,0.8364328,-0.7326257,-9.289502,-3.5242648
0.19207656,4.248395,-5.6637096,1.6613466,0.865195,-0.81881696,-9.490616,-3.6391866
0.19201237,4.2424345,-5.6637096,1.6613466,0.865195,-0.81881696,-9.490616,-3.6391866
0.19201447,4.2366,-5.5657053,1.5803865,0.901414,-0.92895025,-9.792285,-3.7349546
0.19200897,4.230766,-5.5657053,1.5803865,0.901414,-0.92895025,-9.792285,-3.7349546
0.19207348,4.225064,-5.4581137,1.4994264,0.94402456,-0.9720459,-9.993398,-3.7828386
0.19213042,4.2193623,-5.4581137,1.4994264,0.94402456,-0.9720459,-9.993398,-3.7828386
0.19227147,4.2137613,-5.335608,1.4205968,0.9962225,-1.0965444,-10.275913,-3.8067808
0.19240427,4.208183,-5.335608,1.4205968,0.9962225,-1.0965444,-10.275913,-3.8067808
0.19262442,4.202763,-5.198189,1.3396367,1.0526816,-1.2306197,-10.58716,-3.845088
0.1928378,4.197321,-5.198189,1.3396367,1.0526816,-1.2306197,-10.58716,-3.845088
0.19313943,4.192037,-5.0437255,1.2565461,1.1134015,-1.3311762,-10.879252,-4.003105
0.19345328,4.186394,-5.0437255,1.2565461,1.1134015,-1.3311762,-10.879252,-4.003105
0.19380926,4.181676,-4.867957,1.1691945,1.1773175,-1.4652514,-11.137826,-4.3526587
0.19418202,4.176646,-4.867957,1.1691945,1.1773175,-1.4652514,-11.137826,-4.3526587
0.19465685,4.171769,-4.674079,1.0754511,1.2380376,-1.6376339,-11.348516,-4.5058875
0.19512671,4.166872,-4.674079,1.0754511,1.2380376,-1.6376339,-11.348516,-4.5058875
0.1956946,4.1622314,-4.4610257,0.9721205,1.296627,-1.7429788,-11.640609,-4.525041
0.19625932,4.1575613,-4.4610257,0.9721205,1.296627,-1.7429788,-11.640609,-4.525041
0.1969315,4.15314,-4.2245374,0.861333,1.3552166,-1.8674773,-11.9135475,-4.4915223
0.19759557,4.1487303,-4.2245374,0.861333,1.3552166,-1.8674773,-11.9135475,-4.4915223
0.19836675,4.1446033,-3.961417,0.748415,1.412741,-2.0446482,-12.210428,-4.510676
0.1991361,4.1404533,-3.961417,0.748415,1.412741,-2.0446482,-12.210428,-4.510676
0.20000945,4.136621,-3.6748607,0.6354969,1.4702652,-2.1883004,-12.488156,-4.525041
0.2008932,4.132717,-3.6748607,0.6354969,1.4702652,-2.1883004,-12.488156,-4.525041
0.20186637,4.1292105,-3.3648689,0.5204484,1.5235285,-2.3798366,-12.765883,-4.582502
0.20284274,4.1256742,-3.3648689,0.5204484,1.5235285,-2.3798366,-12.765883,-4.582502
0.2039246,4.122484,-3.0346367,0.40113875,1.5725305,-2.566584,-13.048399,-4.7070007
0.20500004,4.1192994,-3.0346367,0.40113875,1.5725305,-2.566584,-13.048399,-4.7070007
0.20618221,4.1164813,-2.6873605,0.27650282,1.6194022,-2.791639,-13.302185,-4.960786
0.20736426,4.113653,-2.6873605,0.27650282,1.6194022,-2.791639,-13.302185,-4.960786
0.20865057,4.111206,-2.3251708,0.14441001,1.6577517,-2.9496565,-13.570335,-5.118803
0.20993383,4.1087565,-2.3251708,0.14441001,1.6577517,-2.9496565,-13.570335,-5.118803
0.21132162,4.106698,-1.9523281,0.0016645822,1.6854486,-3.0885203,-13.833697,-5.281609
0.21270274,4.1046433,-1.9523281,0.0016645822,1.6854486,-3.0885203,-13.833697,-5.281609
0.2141931,4.1029835,-1.5720288,-0.14853771,1.7056886,-3.2609026,-14.077906,-5.2863975
0.21567856,4.101325,-1.5720288,-0.14853771,1.7056886,-3.2609026,-14.077906,-5.2863975
0.21567856,4.101325,-1.5720288,-0.14853771,1.7056886,-3.2609026,-14.077906,-5.2863975
0.21567856,4.101325,-1.5720288,-0.14853771,1.7056886,-3.2609026,-14.077906,-5.2863975
0.22115971,4.0969915,-1.1864029,-0.30619684,1.715276,-3.2561142,-14.192827,-5.2480903
0.22248833,4.09645,-0.39917254,-0.6353636,1.7003623,-3.2321723,-14.288596,-5.21936
0.22385558,4.096134,-0.39917254,-0.6353636,1.7003623,-3.2321723,-14.288596,-5.21936
0.22557968,4.0957365,-0.39917254,-0.6353636,1.7003623,-3.2321723,-14.288596,-5.21936
0.22747183,4.095763,-0.0028941538,-0.8068711,1.6684043,-3.0358477,-14.978126,-4.903325
0.22923231,4.095788,-0.0028941538,-0.8068711,1.6684043,-3.0358477,-14.978126,-4.903325
0.23113742,4.096267,0.40829793,-0.9719871,1.622598,-3.4380736,-14.930242,-4.9895163
0.23295717,4.0967255,0.40829793,-0.9719871,1.622598,-3.4380736,-14.930242,-4.9895163
0.23295717,4.0967255,0.40829793,-0.9719871,1.622598,-3.4380736,-14.930242,-4.9895163
0.23683944,4.098609,0.83653426,-1.1381683,1.5608127,-4.0940847,-14.542381,-5.401319
0.23683944,4.098609,0.83653426,-1.1381683,1.5608127,-4.0940847,-14.542381,-5.401319
0.24076627,4.10143,1.2732927,-1.3213938,1.477722,-4.3622355,-14.188039,-5.6886234
0.24282071,4.1034064,1.7143122,-1.5237942,1.3733261,-3.8977604,-14.049175,-5.6551046
0.24482328,4.105337,1.7143122,-1.5237942,1.3733261,-3.8977604,-14.049175,-5.6551046
0.246839,4.107762,2.1500053,-1.7336512,1.2508208,-3.8355112,-13.637373,-5.9663506
0.2488762,4.110219,2.1500053,-1.7336512,1.2508208,-3.8355112,-13.637373,-5.9663506
0.2508393,4.1131277,2.5771763,-1.9392473,1.1006184,-2.8778305,-13.881581,-5.8226986
0.2528236,4.1160784,2.5771763,-1.9392473,1.1006184,-2.8778305,-13.881581,-5.8226986
0.25474718,4.1194906,2.9979558,-2.1267338,0.92591506,-2.9257145,-14.001291,-5.851429
0.25666872,4.1229143,2.9979558,-2.1267338,0.92591506,-2.9257145,-14.001291,-5.851429
0.25852734,4.1268377,3.4155395,-2.2897193,0.7352327,-3.2704794,-13.541605,-6.3302693
0.26030236,4.1306047,3.4155395,-2.2897193,0.7352327,-3.2704794,-13.541605,-6.3302693
0.2620585,4.134983,3.8192747,-2.445248,0.52644086,-3.6056678,-13.072341,-6.622362
0.2638867,4.1395745,3.8192747,-2.445248,0.52644086,-3.6056678,-13.072341,-6.622362
0.26555237,4.144432,4.1985087,-2.5965154,0.313388,-3.9121256,-13.024457,-6.694188
0.26719785,4.149271,4.1985087,-2.5965154,0.313388,-3.9121256,-13.024457,-6.694188
0.26874077,4.1545534,4.551111,-2.743522,0.09926982,-4.0078936,-13.043611,-6.727707
0.2702756,4.159863,4.551111,-2.743522,0.09926982,-4.0078936,-13.043611,-6.727707
0.27163568,4.165551,4.884539,-2.8830717,-0.11165254,-3.7205894,-12.899959,-7.144298
0.2729683,4.171226,4.884539,-2.8830717,-0.11165254,-3.7205894,-12.899959,-7.144298
0.2740999,4.177186,5.194531,-3.005577,-0.32044438,-3.5482068,-12.5025215,-7.5848308
0.27522075,4.18312,5.194531,-3.005577,-0.32044438,-3.5482068,-12.5025215,-7.5848308
0.27628392,4.1893177,5.4789567,-3.1121035,-0.52390987,-3.6870706,-12.052411,-8.039729
0.27733535,4.1955457,5.4789567,-3.1121035,-0.52390987,-3.6870706,-12.052411,-8.039729
0.27827826,4.2020564,5.73462,-3.2037163,-0.7188533,-4.0318356,-11.765107,-8.355764
0.279202,4.2085853,5.73462,-3.2037163,-0.7188533,-4.0318356,-11.765107,-8.355764
0.28000134,4.2153764,5.9615216,-3.2857416,-0.903144,-4.3239284,-11.444284,-8.446744
0.28077763,4.222179,5.9615216,-3.2857416,-0.903144,-4.3239284,-11.444284,-8.446744
0.2814174,4.2292256,6.160726,-3.36031,-1.0703906,-4.3143516,-11.204864,-8.556877
0.28203067,4.2362614,6.160726,-3.36031,-1.0703906,-4.3143516,-11.204864,-8.556877
0.2825154,4.2435417,6.3364944,-3.4242258,-1.2205929,-4.2664676,-11.070788,-8.51857
0.28297243,4.2508097,6.3364944,-3.4242258,-1.2205929,-4.2664676,-11.070788,-8.51857
0.28329998,4.258263,6.488827,-3.476424,-1.3569467,-4.156334,-10.879252,-8.604761
0.28359953,4.2657185,6.488827,-3.476424,-1.3569467,-4.156334,-10.879252,-8.604761
0.2837746,4.2733183,6.62092,-3.5169039,-1.4815826,-4.0892963,-10.682928,-8.599973
0.2839212,4.280949,6.62092,-3.5169039,-1.4815826,-4.0892963,-10.682928,-8.599973
0.28395122,4.288704,6.738099,-3.545666,-1.5913049,-4.0940847,-10.611102,-8.552089
0.28395116,4.2964582,6.738099,-3.545666,-1.5913049,-4.0940847,-10.611102,-8.552089
0.2838397,4.304329,6.838234,-3.565906,-1.6861134,-3.964798,-10.424355,-8.485051
0.2836974,4.312198,6.838234,-3.565906,-1.6861134,-3.964798,-10.424355,-8.485051
0.28344548,4.3201656,6.9245205,-3.5765588,-1.7670735,-3.6343982,-10.309433,-8.255207
0.2831622,4.328131,6.9245205,-3.5765588,-1.7670735,-3.6343982,-10.309433,-8.255207
0.28277457,4.336171,6.994828,-3.5722976,-1.8363158,-3.3375173,-10.160992,-8.1163435
0.2823568,4.344185,6.994828,-3.5722976,-1.8363158,-3.3375173,-10.160992,-8.1163435
0.2818392,4.352299,7.051287,-3.5477965,-1.8917094,-3.0885203,-9.92636,-7.9966335
0.2812922,4.3603773,7.051287,-3.5477965,-1.8917094,-3.0885203,-9.92636,-7.9966335
0.28065163,4.3685017,7.0917673,-3.5062513,-1.93432,-2.7341783,-9.581595,-7.776367
0.2799811,4.3766055,7.0917673,-3.5062513,-1.93432,-2.7341783,-9.581595,-7.776367
0.2792218,4.384731,7.1141376,-3.4476616,-1.9684085,-2.4420857,-9.217676,-7.503428
0.27843317,4.3928347,7.1141376,-3.4476616,-1.9684085,-2.4420857,-9.217676,-7.503428
0.27755845,4.4009304,7.1130724,-3.3730931,-1.9939748,-2.0494366,-8.7053175,-7.1826053
0.27665818,4.4089804,7.1130724,-3.3730931,-1.9939748,-2.0494366,-8.7053175,-7.1826053
0.27567455,4.41699,7.0853753,-3.2814806,-2.0120842,-1.5610195,-8.001422,-6.823475
0.274653,4.4250646,7.0853753,-3.2814806,-2.0120842,-1.5610195,-8.001422,-6.823475
0.2735547,4.4329896,7.0257206,-3.1728234,-2.0259328,-0.8858546,-7.1586633,-6.483498
0.27243462,4.440868,7.0257206,-3.1728234,-2.0259328,-0.8858546,-7.1586633,-6.483498
0.27122256,4.448645,6.926651,-3.041796,-2.03552,0.10055647,-5.9041014,-6.143522
0.26997685,4.4564614,6.926651,-3.041796,-2.03552,0.10055647,-5.9041014,-6.143522
0.2686425,4.4640293,6.778579,-2.8862674,-2.0451076,1.6089035,-4.5681367,-5.93762
0.26728258,4.4715977,6.778579,-2.8862674,-2.0451076,1.6089035,-4.5681367,-5.93762
0.26584268,4.4788923,6.5697875,-2.6977155,-2.0578907,2.5139117,-2.3750482,-6.291962
0.2641196,4.487468,6.5697875,-2.6977155,-2.0578907,2.5139117,-2.3750482,-6.291962
0.26271045,4.49366,6.285362,-2.4772058,-2.083457,5.6646814,-1.4413095,-5.7029886
0.26110154,4.5006394,6.285362,-2.4772058,-2.083457,5.6646814,-1.4413095,-5.7029886
0.25908214,4.5083156,5.9242373,-2.191715,-2.1175456,4.8458643,-1.0582372,-5.434838
0.25757596,4.513977,5.9242373,-2.191715,-2.1175456,4.8458643,-1.0582372,-5.434838
0.255955,4.519289,5.5045233,-1.8625482,-2.1505687,3.667917,-0.19153613,-5.506664
0.25412816,4.525229,5.5045233,-1.8625482,-2.1505687,3.667917,-0.19153613,-5.506664
0.25218967,4.5306854,5.0443287,-1.560013,-2.1899836,3.8019924,1.3455414,-5.3965306
0.2502542,4.5360966,5.0443287,-1.560013,-2.1899836,3.8019924,1.3455414,-5.3965306
0.24820773,4.540991,4.5361977,-1.2723917,-2.2262025,5.1666875,2.4037786,-4.5537715
0.24616553,4.5458493,4.5361977,-1.2723917,-2.2262025,5.1666875,2.4037786,-4.5537715
0.24404375,4.550108,3.9748032,-0.9645303,-2.236855,5.21936,2.5809495,-3.5338416
0.24192274,4.554349,3.9748032,-0.9645303,-2.236855,5.21936,2.5809495,-3.5338416
0.23975967,4.5579157,3.3718636,-0.6406899,-2.2208762,4.951209,2.183512,-2.5617957
0.23759091,4.5614805,3.3718636,-0.6406899,-2.2208762,4.951209,2.183512,-2.5617957
0.23540896,4.564342,2.7497492,-0.3221758,-2.1835918,4.1611223,1.70946,-2.0111294
0.23322932,4.567195,2.7497492,-0.3221758,-2.1835918,4.1611223,1.70946,-2.0111294
0.23105796,4.569362,2.1223085,-0.040945996,-2.1250024,3.8355112,0.7661445,-1.1923125
0.22887467,4.5715394,2.1223085,-0.040945996,-2.1250024,3.8355112,0.7661445,-1.1923125
0.22673647,4.5730414,1.5055203,0.21045642,-2.039781,3.6104562,0.095768064,-0.80445176
0.22459796,4.574543,1.5055203,0.21045642,-2.039781,3.6104562,0.095768064,-0.80445176
0.22253354,4.5753994,0.9068417,0.438423,-1.9332547,3.6966474,-0.2825158,-0.46926352
0.22046708,4.576257,0.9068417,0.438423,-1.9332547,3.6966474,-0.2825158,-0.46926352
0.21850199,4.576492,0.32414204,0.6536064,-1.7979661,3.7732618,-0.62728083,-0.08140286
0.21654855,4.576726,0.32414204,0.6536064,-1.7979661,3.7732618,-0.62728083,-0.08140286
0.21469763,4.5763426,-0.24470918,0.861333,-1.6349807,3.1411927,-0.94810385,-0.0047884034
0.2128756,4.575967,-0.24470918,0.861333,-1.6349807,3.1411927,-0.94810385,-0.0047884034
0.21119522,4.574998,-0.7986467,1.0552112,-1.4453636,2.633622,-1.5370775,0.18674773
0.20959464,4.5740767,-0.7986467,1.0552112,-1.4453636,2.633622,-1.5370775,0.18674773
0.20809561,4.572544,-1.3344747,1.2224576,-1.237637,2.3989902,-2.0638018,0.45010993
0.20653963,4.5709577,-1.3344747,1.2224576,-1.237637,2.3989902,-2.0638018,0.45010993
0.2052407,4.5688863,-1.851128,1.3694642,-1.0171273,2.4372973,-2.6862943,0.7374141
0.20394856,4.5668316,-1.851128,1.3694642,-1.0171273,2.4372973,-2.6862943,0.7374141
0.20285991,4.5642447,-2.3464758,1.5026222,-0.78276914,2.4037786,-3.371036,0.8475474
0.2017593,4.5616393,-2.3464758,1.5026222,-0.78276914,2.4037786,-3.371036,0.8475474
0.2008677,4.558515,-2.8151922,1.6283234,-0.5452152,2.4995465,-3.9695864,0.9528923
0.19998936,4.5554543,-2.8151922,1.6283234,-0.5452152,2.4995465,-3.9695864,0.9528923
0.19932485,4.551957,-3.257277,1.7561551,-0.3076612,2.5234885,-4.5681367,0.9768343
0.19864249,4.5483975,-3.257277,1.7561551,-0.3076612,2.5234885,-4.5681367,0.9768343
0.19816418,4.5444045,-3.6705997,1.8871827,-0.07223775,2.3558946,-5.0517654,0.8475474
0.19767952,4.540417,-3.6705997,1.8871827,-0.07223775,2.3558946,-5.0517654,0.8475474
0.19738251,4.536005,-4.0562253,2.017145,0.15359831,2.480393,-5.506664,0.7038953
0.19707727,4.5315943,-4.0562253,2.017145,0.15359831,2.480393,-5.506664,0.7038953
0.1969483,4.5267906,-4.4173503,2.1460419,0.369847,2.1787236,-5.9807158,0.45489833
0.19681002,4.522002,-4.4173503,2.1460419,0.369847,2.1787236,-5.9807158,0.45489833
0.19683285,4.516815,-4.7539735,2.2706778,0.57224727,1.982399,-6.411672,0.2633622
0.1968444,4.5116396,-4.7539735,2.2706778,0.57224727,1.982399,-6.411672,0.2633622
0.19699442,4.506131,-5.0618353,2.3846612,0.7533422,1.6041151,-6.8426285,-0.02873042
0.19713126,4.500645,-5.0618353,2.3846612,0.7533422,1.6041151,-6.8426285,-0.02873042
0.19739701,4.494808,-5.3419995,2.4858613,0.9152624,0.9768343,-7.326257,-0.18674773
0.19764669,4.4890175,-5.3419995,2.4858613,0.9152624,0.9768343,-7.326257,-0.18674773
0.19801544,4.482934,-5.5923367,2.565756,1.0580078,0.5602432,-7.795521,-0.12449849
0.19836845,4.476861,-5.5923367,2.565756,1.0580078,0.5602432,-7.795521,-0.12449849
0.198829,4.470559,-5.810716,2.6264763,1.1858395,0.19153613,-8.394072,0.0047884034
0.19927186,4.4642744,-5.810716,2.6264763,1.1858395,0.19153613,-8.394072,0.0047884034
0.19980693,4.457756,-5.992876,2.6712172,1.3008882,-0.05267244,-8.8777,-0.023942016
0.2003227,4.4512553,-5.992876,2.6712172,1.3008882,-0.05267244,-8.8777,-0.023942016
0.20091364,4.4445987,-6.136687,2.6999795,1.401023,-0.15801731,-9.332599,0.038307227
0.2014848,4.437953,-6.136687,2.6999795,1.401023,-0.15801731,-9.332599,0.038307227
0.20211828,4.431164,-6.2442784,2.714893,1.4862442,-0.24899697,-9.710882,-0.019153614
0.2027298,4.4243984,-6.2442784,2.714893,1.4862442,-0.24899697,-9.710882,-0.019153614
0.20339856,4.4175243,-6.318847,2.7170236,1.561878,-0.38307226,-10.060435,-0.06703765
0.20404592,4.4106617,-6.318847,2.7170236,1.561878,-0.38307226,-10.060435,-0.06703765
0.20474046,4.4037447,-6.361458,2.7095668,1.6257938,-0.5650316,-10.366894,-0.11492168
0.20541194,4.3968525,-6.361458,2.7095668,1.6257938,-0.5650316,-10.366894,-0.11492168
0.20612493,4.3899026,-6.3763714,2.6893268,1.6779917,-0.7517793,-10.635044,-0.2825158
0.20681381,4.3829837,-6.3763714,2.6893268,1.6779917,-0.7517793,-10.635044,-0.2825158
0.20753674,4.376049,-6.365719,2.6563036,1.719537,-0.91937345,-10.730812,-0.46926352
0.20823683,4.369132,-6.365719,2.6563036,1.719537,-0.91937345,-10.730812,-0.46926352
0.20895997,4.3622456,-6.33163,2.6104972,1.751495,-0.8762778,-10.783484,-0.59855044
0.20966136,4.3553696,-6.33163,2.6104972,1.751495,-0.8762778,-10.783484,-0.59855044
0.21038124,4.348524,-6.278367,2.557234,1.7749308,-0.7613561,-10.697293,-0.7469909
0.21107985,4.341689,-6.278367,2.557234,1.7749308,-0.7613561,-10.697293,-0.7469909
0.21178928,4.3349247,-6.212321,2.5071666,1.7930403,-0.7182605,-10.6398325,-0.9864111
0.2124779,4.3281713,-6.212321,2.5071666,1.7930403,-0.7182605,-10.6398325,-0.9864111
0.21318057,4.3214717,-6.136687,2.4592297,1.807954,-0.7661445,-10.668563,-1.163582
0.2138614,4.314796,-6.136687,2.4592297,1.807954,-0.7661445,-10.668563,-1.163582
0.21457234,4.308048,-6.0567923,2.4102275,1.8218025,-0.90500826,-10.721235,-1.364695
0.21526194,4.3013163,-6.0567923,2.4102275,1.8218025,-0.90500826,-10.721235,-1.364695
0.21594656,4.29486,-5.972636,2.3612254,1.8335204,-1.091756,-10.817003,-1.5562311
0.21660675,4.2884655,-5.972636,2.3612254,1.8335204,-1.091756,-10.817003,-1.5562311
0.21729094,4.282096,-5.884219,2.306897,1.8431077,-1.3120226,-11.018116,-1.7429788
0.21799146,4.275395,-5.884219,2.306897,1.8431077,-1.3120226,-11.018116,-1.7429788
0.21866393,4.2692704,-5.790476,2.242981,1.8516299,-1.5801731,-11.286267,-1.910573
0.2193762,4.262612,-5.790476,2.242981,1.8516299,-1.5801731,-11.286267,-1.910573
0.22005817,4.2565603,-5.690341,2.1726735,1.860152,-1.7477672,-11.549629,-2.0446482
0.22076666,4.250115,-5.690341,2.1726735,1.860152,-1.7477672,-11.549629,-2.0446482
0.22142434,4.2444634,-5.5838146,2.093844,1.8676088,-1.8531121,-11.779472,-2.2361844
0.22142434,4.2444634,-5.5838146,2.093844,1.8676088,-1.8531121,-11.779472,-2.2361844
0.22288468,4.2325687,-5.467701,2.0075576,1.8740004,-1.9728222,-12.047623,-2.3415294
0.22359349,4.2266026,-5.467701,2.0075576,1.8740004,-1.9728222,-12.047623,-2.3415294
0.22433342,4.2207694,-5.3377385,1.9180753,1.8750657,-2.1068976,-12.253524,-2.456451
0.22505844,4.2149324,-5.3377385,1.9180753,1.8750657,-2.1068976,-12.253524,-2.456451
0.22581227,4.2092667,-5.1960583,1.8222015,1.8740004,-2.183512,-12.445061,-2.6767175
0.22581227,4.2092667,-5.1960583,1.8222015,1.8740004,-2.183512,-12.445061,-2.6767175
0.22730763,4.197996,-5.038399,1.7210014,1.8697393,-2.2744915,-12.636597,-2.8107927
0.22806689,4.192499,-5.038399,1.7210014,1.8697393,-2.2744915,-12.636597,-2.8107927
0.22885445,4.187202,-4.863696,1.6166055,1.8612173,-2.2122424,-12.74673,-2.944868
0.22963211,4.1818857,-4.863696,1.6166055,1.8612173,-2.2122424,-12.74673,-2.944868
0.23043443,4.1767783,-4.675144,1.510079,1.844173,-2.1643584,-12.837709,-3.1555579
0.23043443,4.1767783,-4.675144,1.510079,1.844173,-2.1643584,-12.837709,-3.1555579
0.23205602,4.166465,-4.469548,1.4024874,1.8175414,-2.1260512,-12.832921,-3.2609026
0.2328697,4.161497,-4.469548,1.4024874,1.8175414,-2.1260512,-12.832921,-3.2609026
0.23366971,4.15696,-4.252234,1.2959609,1.7855835,-2.183512,-12.694057,-3.4620156
0.23445365,4.152462,-4.252234,1.2959609,1.7855835,-2.183512,-12.694057,-3.4620156
0.235267,4.14812,-4.025333,1.1904997,1.747234,-2.2122424,-12.5025215,-3.763685
0.23608029,4.1437316,-4.025333,1.1904997,1.747234,-2.2122424,-12.5025215,-3.763685
0.2369031,4.1396008,-3.788844,1.0807775,1.7014276,-2.1260512,-12.35887,-3.9552212
0.23771617,4.1354804,-3.788844,1.0807775,1.7014276,-2.1260512,-12.35887,-3.9552212
0.23854189,4.1316032,-3.5448985,0.9689247,1.647099,-2.078167,-12.258312,-3.9935284
0.23935705,4.1277437,-3.5448985,0.9689247,1.647099,-2.078167,-12.258312,-3.9935284
0.24017218,4.1241603,-3.2934961,0.85920244,1.586379,-2.030283,-11.9614315,-4.3047748
0.24098188,4.120575,-3.2934961,0.85920244,1.586379,-2.030283,-11.9614315,-4.3047748
0.24178998,4.117271,-3.043159,0.7505455,1.5171368,-2.2266076,-11.463438,-4.7644615
0.24259083,4.1139755,-3.043159,0.7505455,1.5171368,-2.2266076,-11.463438,-4.7644615
0.24337478,4.110932,-2.8002787,0.6376275,1.437242,-1.6280571,-11.880029,-4.5394063
0.24415179,4.1078987,-2.8002787,0.6376275,1.437242,-1.6280571,-11.880029,-4.5394063
0.24492307,4.105135,-2.5595288,0.5279052,1.348825,-1.8579005,-12.382812,-4.572925
0.24568975,4.102375,-2.5595288,0.5279052,1.348825,-1.8579005,-12.382812,-4.572925
0.2464417,4.0998926,-2.3070612,0.42244405,1.2540165,-2.0590134,-12.454638,-4.7979803
0.2471881,4.097419,-2.3070612,0.42244405,1.2540165,-2.0590134,-12.454638,-4.7979803
0.24792211,4.095247,-2.040745,0.31165653,1.1560122,-2.3558946,-12.152967,-5.056554
0.24865273,4.0930777,-2.040745,0.31165653,1.1560122,-2.3558946,-12.152967,-5.056554
0.24938403,4.0912113,-1.7712332,0.19447745,1.0548121,-2.873042,-11.9374895,-5.434838
0.25011218,4.089347,-1.7712332,0.19447745,1.0548121,-2.873042,-11.9374895,-5.434838
0.2508272,4.0877943,-1.5027865,0.061319392,0.9514814,-2.777274,-11.712435,-5.6359506
0.25153965,4.0862436,-1.5027865,0.061319392,0.9514814,-2.777274,-11.712435,-5.6359506
0.25223,4.0849953,-1.2364703,-0.08249131,0.84175915,-2.2601264,-11.793838,-5.60722
0.25291768,4.0837502,-1.2364703,-0.08249131,0.84175915,-2.2601264,-11.793838,-5.60722
0.25358403,4.0828176,-0.96908903,-0.22630201,0.720319,-1.958457,-12.157756,-5.530606
0.254248,4.081888,-0.96908903,-0.22630201,0.720319,-1.958457,-12.157756,-5.530606
0.2548782,4.081274,-0.6931855,-0.35413375,0.591422,-1.9536686,-11.9853735,-5.899313
0.25550562,4.0806627,-0.6931855,-0.35413375,0.591422,-1.9536686,-11.9853735,-5.899313
0.25609508,4.080383,-0.40556413,-0.47344336,0.45719868,-2.0638018,-11.69807,-6.090849
0.2566784,4.080106,-0.40556413,-0.47344336,0.45719868,-2.0638018,-11.69807,-6.090849
0.2572194,4.080159,-0.11900798,-0.5895572,0.31977957,-2.2170308,-11.372458,-6.339846
0.25775892,4.080213,-0.11900798,-0.5895572,0.31977957,-2.2170308,-11.372458,-6.339846
0.25823835,4.080588,0.1632871,-0.70673627,0.18129519,-2.0590134,-11.18571,-6.5457473
0.25871712,4.080963,0.1632871,-0.70673627,0.18129519,-2.0590134,-11.18571,-6.5457473
0.2591575,4.081664,0.44025585,-0.8228501,0.04387607,-2.0925324,-11.506534,-6.5840545
0.25959617,4.082363,0.44025585,-0.8228501,0.04387607,-2.0925324,-11.506534,-6.5840545
0.26000306,4.08339,0.71402884,-0.9368334,-0.091412514,-2.207454,-11.990162,-6.5984197
0.26040816,4.0844154,0.71402884,-0.9368334,-0.091412514,-2.207454,-11.990162,-6.5984197
0.2607786,4.0857716,0.9973892,-1.0550778,-0.2235053,-2.456451,-12.047623,-6.751649
0.26114655,4.087127,0.9973892,-1.0550778,-0.2235053,-2.456451,-12.047623,-6.751649
0.26147848,4.088827,1.2914021,-1.1754526,-0.34814125,-2.6384103,-11.851298,-7.0102224
