Pitch,Roll,Gyro_X,Gyro_Y,Gyro_Z,Accel_X,Accel_Y,Accel_Z
0.19977826,4.119248,0.67141825,-0.53309816,-0.4216445,-1.7717092,-10.146626,-9.279925
0.19955385,4.1208754,0.9111028,-0.6066014,-0.50153935,-1.7525556,-10.007763,-9.275137
0.19955385,4.1208754,0.9111028,-0.6066014,-0.50153935,-1.7525556,-10.007763,-9.275137
0.19927499,4.12306,1.1518525,-0.6801047,-0.57610786,-1.5610195,-9.864111,-9.3421755
0.19927499,4.12306,1.1518525,-0.6801047,-0.57610786,-1.5610195,-9.864111,-9.3421755
0.19911972,4.1243005,1.3957981,-0.74934685,-0.64748055,-1.4413095,-9.730036,-9.346964
0.19894435,4.1257706,1.3957981,-0.74934685,-0.64748055,-1.4413095,-9.730036,-9.346964
0.19876423,4.1272717,1.6397437,-0.81219745,-0.7156575,-1.340753,-9.662998,-9.44752
0.19856419,4.128992,1.6397437,-0.81219745,-0.7156575,-1.340753,-9.662998,-9.44752
0.19836153,4.130724,1.8847544,-0.86865646,-0.77637756,-1.292869,-9.591172,-9.44752
0.19813532,4.1327295,1.8847544,-0.86865646,-0.77637756,-1.292869,-9.591172,-9.44752
0.19790761,4.134733,2.1297653,-0.92085445,-0.8360324,-1.2258313,-9.557653,-9.313444
0.1976526,4.137004,2.1297653,-0.92085445,-0.8360324,-1.2258313,-9.557653,-9.313444
0.19739522,4.1392765,2.3747761,-0.96879137,-0.89142615,-1.1444284,-9.504981,-9.212888
0.19711274,4.1418014,2.3747761,-0.96879137,-0.89142615,-1.1444284,-9.504981,-9.212888
0.19682483,4.144351,2.615526,-1.0114019,-0.9425588,-1.1109096,-9.452309,-9.169792
0.1965173,4.147116,2.615526,-1.0114019,-0.9425588,-1.1109096,-9.452309,-9.169792
0.19620523,4.1498947,2.8509493,-1.0518819,-0.99049574,-1.2114661,-9.409213,-9.006987
0.19587365,4.152916,2.8509493,-1.0518819,-0.99049574,-1.2114661,-9.409213,-9.006987
0.19553891,4.1559334,2.8509493,-1.0518819,-0.99049574,-1.2114661,-9.409213,-9.006987
0.19518481,4.159194,3.0778506,-1.0912968,-1.0341716,-1.292869,-9.390059,-8.810662
0.1948261,4.1624603,3.2951646,-1.1307116,-1.0735863,-1.2641385,-9.294291,-8.614338
0.19444966,4.1659436,3.2951646,-1.1307116,-1.0735863,-1.2641385,-9.294291,-8.614338
0.1940693,4.1694226,3.4996953,-1.1690611,-1.1098053,-1.1779473,-9.217676,-8.523358
0.19366899,4.173127,3.4996953,-1.1690611,-1.1098053,-1.1779473,-9.217676,-8.523358
0.19326356,4.176833,3.691443,-1.2074106,-1.1417632,-1.0342951,-9.088389,-8.317456
0.19284075,4.180731,3.691443,-1.2074106,-1.1417632,-1.0342951,-9.088389,-8.317456
0.19241323,4.1846223,3.8725379,-1.2436296,-1.1737212,-0.866701,-8.959103,-8.130709
0.19196346,4.188717,3.8725379,-1.2436296,-1.1737212,-0.866701,-8.959103,-8.130709
0.19150797,4.19281,4.046176,-1.2766528,-1.2099402,-0.79487497,-8.796297,-7.881712
0.19102873,4.1970816,4.046176,-1.2766528,-1.2099402,-0.79487497,-8.796297,-7.881712
0.19054443,4.201343,4.2102265,-1.3054149,-1.2440287,-0.7565677,-8.6813755,-7.728483
0.19003503,4.205788,4.2102265,-1.3054149,-1.2440287,-0.7565677,-8.6813755,-7.728483
0.18951906,4.210232,4.3657556,-1.3320465,-1.281313,-0.641646,-8.561666,-7.5848308
0.18897295,4.2148337,4.3657556,-1.3320465,-1.281313,-0.641646,-8.561666,-7.5848308
0.18842106,4.2194247,4.512762,-1.3565476,-1.3207277,-0.4309563,-8.470686,-7.469909
0.18782993,4.2241845,4.512762,-1.3565476,-1.3207277,-0.4309563,-8.470686,-7.469909
0.18723138,4.228943,4.6523113,-1.3789182,-1.3612077,-0.25857377,-8.403648,-7.2544312
0.18659301,4.2338433,4.6523113,-1.3789182,-1.3612077,-0.25857377,-8.403648,-7.2544312
0.18594824,4.2387323,4.783339,-1.4002235,-1.4070141,-0.19632454,-8.341399,-6.919243
0.18525626,4.2437754,4.783339,-1.4002235,-1.4070141,-0.19632454,-8.341399,-6.919243
0.18455622,4.2488155,4.90691,-1.4193982,-1.4538858,-0.36870706,-8.384495,-6.4978633
0.18381314,4.2539816,4.90691,-1.4193982,-1.4538858,-0.36870706,-8.384495,-6.4978633
0.1830634,4.2591333,5.025154,-1.4364424,-1.4954311,-0.49320555,-8.494628,-6.1100025
0.182268,4.264427,5.025154,-1.4364424,-1.4954311,-0.49320555,-8.494628,-6.1100025
0.18146427,4.269717,5.1370068,-1.4545519,-1.5316501,-0.50278234,-8.542512,-5.746084
0.18061861,4.2751217,5.1370068,-1.4545519,-1.5316501,-0.50278234,-8.542512,-5.746084
0.17976634,4.280512,5.242468,-1.4737266,-1.5625427,-0.44532153,-8.590396,-5.473145
0.17887178,4.286032,5.242468,-1.4737266,-1.5625427,-0.44532153,-8.590396,-5.473145
0.17796874,4.2915487,5.340472,-1.4939667,-1.5923702,-0.49799395,-8.652645,-5.195418
0.17703092,4.2971644,5.340472,-1.4939667,-1.5923702,-0.49799395,-8.652645,-5.195418
0.17608652,4.302765,5.4299545,-1.5184678,-1.6147407,-0.5410896,-8.738836,-4.975151
0.17511168,4.3084784,5.4299545,-1.5184678,-1.6147407,-0.5410896,-8.738836,-4.975151
0.17412737,4.3141923,5.51198,-1.5482953,-1.6307197,-0.36870706,-8.868123,-4.7309427
0.17311408,4.319987,5.51198,-1.5482953,-1.6307197,-0.36870706,-8.868123,-4.7309427
0.17209207,4.325775,5.51198,-1.5482953,-1.6307197,-0.16759412,-8.925584,-4.6351743
0.17103618,4.3317037,5.5876136,-1.5834489,-1.6488291,-0.16759412,-8.925584,-4.6351743
0.16995822,4.337696,5.6579213,-1.6217984,-1.6626776,-0.44532153,-9.040505,-4.572925
0.1689278,4.343473,5.6579213,-1.6217984,-1.6626776,-0.44532153,-9.040505,-4.572925
0.16785872,4.3494105,5.726098,-1.6708006,-1.6765261,-0.5506664,-9.23683,-4.343082
0.16677141,4.355441,5.726098,-1.6708006,-1.6765261,-0.5506664,-9.23683,-4.343082
0.16567849,4.361446,5.726098,-1.6708006,-1.6765261,-0.5506664,-9.23683,-4.343082
0.16567849,4.361446,5.726098,-1.6708006,-1.6765261,-0.5506664,-9.23683,-4.343082
0.16567849,4.361446,5.726098,-1.6708006,-1.6765261,-0.5506664,-9.23683,-4.343082
0.16124512,4.385808,5.8763003,-1.8007629,-1.6999619,-0.44532153,-9.504981,-4.0174704
0.16069396,4.388783,5.967913,-1.8710704,-1.7116797,-0.33039984,-9.619903,-3.8833952
0.15884435,4.398822,5.967913,-1.8710704,-1.7116797,-0.33039984,-9.619903,-3.8833952
0.15884435,4.398822,5.967913,-1.8710704,-1.7116797,-0.33039984,-9.619903,-3.8833952
0.15762012,4.405508,6.0701785,-1.9435083,-1.7233976,-0.37349546,-9.835381,-3.739743
0.15520974,4.4186096,6.1884227,-2.0170116,-1.7361808,-0.35913026,-9.921572,-3.6248214
0.15520974,4.4186096,6.1884227,-2.0170116,-1.7361808,-0.35913026,-9.921572,-3.6248214
0.15410665,4.4245734,6.318385,-2.0915802,-1.7478987,-0.090979666,-9.988609,-3.5625722
0.1528962,4.431196,6.318385,-2.0915802,-1.7478987,-0.090979666,-9.988609,-3.5625722
0.15166642,4.437844,6.459,-2.1618876,-1.7596166,0.047884032,-10.089166,-3.4859576
0.15042856,4.4446163,6.459,-2.1618876,-1.7596166,0.047884032,-10.089166,-3.4859576
0.14916785,4.4514275,6.6092024,-2.2300644,-1.7798567,-0.05746084,-10.151415,-3.1603463
0.14788662,4.458368,6.6092024,-2.2300644,-1.7798567,-0.05746084,-10.151415,-3.1603463
0.14658397,4.465333,6.765796,-2.2971761,-1.8022273,0.076614454,-10.314221,-2.944868
0.14525142,4.4724693,6.765796,-2.2971761,-1.8022273,0.076614454,-10.314221,-2.944868
0.14388168,4.479701,6.765796,-2.2971761,-1.8022273,0.076614454,-10.314221,-2.944868
0.14256851,4.486892,6.92239,-2.3600266,-1.8224672,-0.60812724,-9.346964,-3.0789435
0.1412452,4.494055,7.0662007,-2.426073,-1.841642,0.81402856,-9.907207,-2.303222
0.13982436,4.5014977,7.0662007,-2.426073,-1.841642,0.81402856,-9.907207,-2.303222
0.13838167,4.508938,7.1982937,-2.4708142,-1.8490989,-0.61770403,-10.879252,-2.0590134
0.13692643,4.516542,7.1982937,-2.4708142,-1.8490989,-0.61770403,-10.879252,-2.0590134
0.13544339,4.5241437,7.1982937,-2.4708142,-1.8490989,-0.61770403,-10.879252,-2.0590134
0.13393891,4.531719,7.341039,-2.5123596,-1.8533599,-0.9864111,-10.6637745,-2.3127987
0.13245961,4.539362,7.341039,-2.5123596,-1.8533599,-0.9864111,-10.6637745,-2.3127987
0.13097166,4.5469904,7.4955025,-2.5741448,-1.8618821,-0.02873042,-10.13705,-2.4468741
0.12943523,4.554794,7.4955025,-2.5741448,-1.8618821,-0.02873042,-10.13705,-2.4468741
0.1278816,4.562587,7.642509,-2.6284733,-1.8693389,-0.4213795,-8.896853,-2.777274
0.12482025,4.578418,7.642509,-2.6284733,-1.8693389,-0.4213795,-8.896853,-2.777274
0.12320531,4.586535,7.7628837,-2.6774755,-1.8767958,0.37828386,-8.101978,-2.542642
0.12320531,4.586535,7.7628837,-2.6774755,-1.8767958,0.37828386,-8.101978,-2.542642
0.12155022,4.5947404,7.7628837,-2.6774755,-1.8767958,0.6607997,-7.9583263,-1.9919758
0.11990742,4.602706,7.844909,-2.7168903,-1.8874484,0.6607997,-7.9583263,-1.9919758
0.118233174,4.610719,7.9024334,-2.7413914,-1.8959705,0.44532153,-7.819463,-1.6424223
0.1165047,4.618889,7.9024334,-2.7413914,-1.8959705,0.44532153,-7.819463,-1.6424223
0.11475292,4.627065,7.939718,-2.7616315,-1.9055579,0.58418524,-7.6470804,-1.5370775
0.11296811,4.635261,7.939718,-2.7616315,-1.9055579,0.58418524,-7.6470804,-1.5370775
0.111148566,4.643513,7.939718,-2.7616315,-1.9055579,0.92895025,-7.177817,-1.2737153
0.10929853,4.651704,7.9588923,-2.7786756,-1.918341,0.92895025,-7.177817,-1.2737153
0.10742576,4.659892,7.9599576,-2.7893283,-1.9311242,1.4556746,-6.363788,-1.1683705
0.10550546,4.6681013,7.9599576,-2.7893283,-1.9311242,1.4556746,-6.363788,-1.1683705
0.103561416,4.6763086,7.9418483,-2.7903936,-1.9460379,1.958457,-5.7987566,-0.93373865
0.10157108,4.6845055,7.9418483,-2.7903936,-1.9460379,1.958457,-5.7987566,-0.93373865
0.09955831,4.6926923,7.897107,-2.7754798,-1.9652127,2.327164,-5.415684,-0.5650316
0.09749714,4.700853,7.897107,-2.7754798,-1.9652127,2.327164,-5.415684,-0.5650316
0.095413305,4.7090034,7.82893,-2.7445872,-1.9822569,2.5809495,-5.0613422,-0.08140286
0.09329627,4.717081,7.82893,-2.7445872,-1.9822569,2.5809495,-5.0613422,-0.08140286
0.091154575,4.7251577,7.7405133,-2.7030418,-2.0003664,2.7246015,-4.687847,0.34476504
0.08898005,4.733151,7.7405133,-2.7030418,-2.0003664,2.7246015,-4.687847,0.34476504
0.08678346,4.7411356,7.633987,-2.6529744,-2.0142148,2.9783869,-4.2521024,0.82360536
0.0845643,4.7490172,7.633987,-2.6529744,-2.0142148,2.9783869,-4.2521024,0.82360536
0.08232391,4.7568903,7.5072203,-2.594385,-2.022737,3.1124623,-3.7205894,1.0055647
0.08006348,4.764629,7.5072203,-2.594385,-2.022737,3.1124623,-3.7205894,1.0055647
0.077780694,4.7723675,7.3591485,-2.526208,-2.0259328,3.3423057,-3.1316159,1.2258313
0.0731822,4.787502,7.3591485,-2.526208,-2.0259328,3.3423057,-3.1316159,1.2258313
0.070861876,4.7949324,7.1887064,-2.4484437,-2.018476,3.9552212,-2.5761611,1.5179238
0.070861876,4.7949324,7.1887064,-2.4484437,-2.018476,3.9552212,-2.5761611,1.5179238
0.06623014,4.809488,6.994828,-2.3547003,-2.002497,4.572925,-2.0733786,1.9393034
0.06623014,4.809488,6.994828,-2.3547003,-2.002497,4.572925,-2.0733786,1.9393034
0.063845925,4.816843,6.994828,-2.3547003,-2.002497,4.572925,-2.0733786,1.9393034
0.059304424,4.8305593,6.7807097,-2.2343254,-1.9758654,5.104438,-1.3790601,2.3750482
0.057047863,4.8372374,6.542091,-2.090515,-1.9375159,6.0860605,-0.641646,2.7389667
0.054776374,4.843918,6.542091,-2.090515,-1.9375159,6.0860605,-0.641646,2.7389667
0.052563634,4.8503194,6.269383,-1.9190072,-1.89384,6.291962,0.12928689,3.0885203
0.05033771,4.856724,6.269383,-1.9190072,-1.89384,6.291962,0.12928689,3.0885203
0.04820206,4.862773,5.962587,-1.7251291,-1.841642,6.2823853,0.81402856,3.572149
0.04604877,4.8688436,5.962587,-1.7251291,-1.841642,6.2823853,0.81402856,3.572149
0.043995015,4.874551,5.6153107,-1.5131415,-1.773465,6.4308257,1.3503298,4.0318356
0.04192373,4.8802834,5.6153107,-1.5131415,-1.773465,6.4308257,1.3503298,4.0318356
0.03999016,4.885584,5.2243586,-1.2841096,-1.6839828,6.2488666,1.5945383,4.582502
0.03804145,4.8909082,5.2243586,-1.2841096,-1.6839828,6.2488666,1.5945383,4.582502
0.036253244,4.8957567,4.791861,-1.0433599,-1.5763912,6.2488666,1.8962077,4.975151
0.036253244,4.8957567,4.791861,-1.0433599,-1.5763912,6.2488666,1.8962077,4.975151
0.03443414,4.9006767,4.791861,-1.0433599,-1.5763912,6.531382,2.2457612,5.353435
0.032806445,4.9050627,4.319949,-0.7962185,-1.4474941,6.531382,2.2457612,5.353435
0.029747296,4.91329,3.8096874,-0.5384245,-1.3036835,6.631939,2.3511062,5.765238
0.028307417,4.917158,3.8096874,-0.5384245,-1.3036835,6.631939,2.3511062,5.765238
0.027079355,4.9204645,3.2568152,-0.26358625,-1.1470896,6.588843,2.4756045,6.0860605
0.025848638,4.9237766,3.2568152,-0.26358625,-1.1470896,6.588843,2.4756045,6.0860605
0.024846954,4.926483,2.6613324,0.017643549,-0.9787778,6.421249,2.7341783,6.411672
0.0238448,4.9291925,2.6613324,0.017643549,-0.9787778,6.421249,2.7341783,6.411672
0.02308139,4.9312625,2.0296304,0.29567757,-0.80087864,6.1770406,2.8203697,6.751649
0.022315813,4.933341,2.0296304,0.29567757,-0.80087864,6.1770406,2.8203697,6.751649
0.021794386,4.9347463,1.3649054,0.5651895,-0.6165879,5.9184666,2.7389667,7.067683
0.021271816,4.936157,1.3649054,0.5651895,-0.6165879,5.9184666,2.7389667,7.067683
0.02099355,4.9368668,0.67354876,0.8187224,-0.4280361,5.81791,2.60968,7.2065473
0.020714218,4.937581,0.67354876,0.8187224,-0.4280361,5.81791,2.60968,7.2065473
0.020676237,4.937583,-0.034852087,1.058407,-0.23735374,5.650316,2.3558946,7.398083
0.020638026,4.937585,-0.034852087,1.058407,-0.23735374,5.650316,2.3558946,7.398083
0.020833625,4.9368668,-0.7539056,1.279982,-0.048801936,5.463568,1.9201498,7.680599
0.021028658,4.9361467,-0.7539056,1.279982,-0.048801936,5.463568,1.9201498,7.680599
0.021444472,4.93471,-1.4750897,1.4845127,0.13335828,5.1810527,1.3790601,7.843405
0.021861138,4.933263,-1.4750897,1.4845127,0.13335828,5.1810527,1.3790601,7.843405
0.022487123,4.9311056,-2.1877515,1.6677382,0.3091269,4.817134,0.6703765,8.087613
0.023109868,4.9289474,-2.1877515,1.6677382,0.3091269,4.817134,0.6703765,8.087613
0.023929292,4.926099,-2.8844345,1.8285931,0.4806345,4.4484267,-0.05267244,8.1642275
0.024748959,4.923232,-2.8844345,1.8285931,0.4806345,4.4484267,-0.05267244,8.1642275
0.025749069,4.919709,-3.5587468,1.9670775,0.64361995,3.7924154,-0.89064306,8.1642275
0.026748976,4.9161625,-3.5587468,1.9670775,0.64361995,3.7924154,-0.89064306,8.1642275
0.027918385,4.911981,-4.203232,2.0789304,0.8012791,3.2130187,-1.8674773,8.078036
0.029065054,4.9078517,-4.203232,2.0789304,0.8012791,3.2130187,-1.8674773,8.078036
0.030388566,4.9030666,-4.808302,2.1609557,0.957873,2.6671407,-3.0071173,7.8769236
0.030388566,4.9030666,-4.808302,2.1609557,0.957873,2.6671407,-3.0071173,7.8769236
0.0317266,4.898193,-4.808302,2.1609557,0.957873,2.1164744,-4.223372,7.603985
0.03319914,4.8928285,-5.3686314,2.2131536,1.1123363,2.1164744,-4.223372,7.603985
0.03464231,4.887531,-5.878893,2.234459,1.2646692,1.7190368,-5.616797,7.335834
0.03624546,4.8816633,-5.878893,2.234459,1.2646692,1.7190368,-5.616797,7.335834
0.03784496,4.8757634,-5.878893,2.234459,1.2646692,1.4939818,-6.9144545,6.981492
0.03956791,4.8694544,-6.3294997,2.230198,1.4148715,1.4939818,-6.9144545,6.981492
0.04128361,4.863122,-6.3294997,2.230198,1.4148715,1.4269443,-8.1402855,6.5265937
0.043126006,4.856407,-6.717256,2.211023,1.5640085,1.4269443,-8.1402855,6.5265937
0.044955306,4.8496885,-7.044292,2.1790652,1.7088844,1.436521,-9.160215,5.9998693
0.04689937,4.842663,-7.044292,2.1790652,1.7088844,1.436521,-9.160215,5.9998693
0.048841637,4.8355894,-7.044292,2.1790652,1.7088844,1.2976574,-10.113108,5.3582234
0.050888125,4.8282766,-7.3116736,2.138585,1.8452382,1.2976574,-10.113108,5.3582234
0.055061437,4.813414,-7.523661,2.093844,1.9698743,0.9672575,-10.745177,4.620809
0.055061437,4.813414,-7.523661,2.093844,1.9698743,0.9672575,-10.745177,4.620809
0.05718817,4.805864,-7.685581,2.0469723,2.0881186,0.61770403,-11.228806,3.8115692
0.059401095,4.798189,-7.685581,2.0469723,2.0881186,0.61770403,-11.228806,3.8115692
0.06161581,4.790456,-7.685581,2.0469723,2.0881186,0.21068975,-11.583148,3.1651347
0.06392204,4.7826314,-7.808087,1.9958396,2.2042325,0.21068975,-11.583148,3.1651347
0.06622128,4.7747774,-7.8954387,1.9393806,2.3128893,0.095768064,-11.731588,2.4420857
0.0685879,4.766882,-7.8954387,1.9393806,2.3128893,0.095768064,-11.731588,2.4420857
0.07095781,4.7589245,-7.8954387,1.9393806,2.3128893,-0.14844051,-11.664551,1.6184803
0.073395826,4.7509403,-7.9518976,1.8829216,2.4183505,-0.14844051,-11.664551,1.6184803
0.07582887,4.7429266,-7.9881167,1.8328542,2.5142243,-0.2633622,-11.468226,0.81881696
0.07828784,4.7349057,-7.9881167,1.8328542,2.5142243,-0.2633622,-11.468226,0.81881696
0.08075692,4.726827,-7.9881167,1.8328542,2.5142243,-0.19632454,-11.295844,0.019153614
0.08323995,4.718655,-8.008356,1.7881131,2.6026413,-0.19632454,-11.295844,0.019153614
0.08829206,4.702239,-8.02114,1.7561551,2.685732,-0.21068975,-11.080365,-0.6991069
0.08829206,4.702239,-8.02114,1.7561551,2.685732,-0.21068975,-11.080365,-0.6991069
0.0938058,4.6848106,-8.029662,1.7380457,2.7571046,-0.30166942,-10.821792,-1.5801731
0.0938058,4.6848106,-8.029662,1.7380457,2.7571046,-0.30166942,-10.821792,-1.5801731
0.0962576,4.677126,-8.033923,1.7327193,2.81889,-0.37349546,-10.644621,-2.255338
0.09891094,4.668994,-8.033923,1.7327193,2.81889,-0.37349546,-10.644621,-2.255338
0.10158959,4.660722,-8.033923,1.7327193,2.81889,-0.37349546,-10.644621,-2.255338
0.10433205,4.652376,-8.038184,1.7380457,2.867892,-0.45489833,-10.453085,-2.96881
0.10705085,4.6440396,-8.04138,1.7561551,2.9041111,-0.5363012,-10.295067,-3.5817258
0.10978454,4.635721,-8.04138,1.7561551,2.9041111,-0.5363012,-10.295067,-3.5817258
0.11252183,4.627328,-8.045641,1.7881131,2.931808,-0.6847417,-10.13705,-4.223372
0.11526112,4.618958,-8.045641,1.7881131,2.931808,-0.6847417,-10.13705,-4.223372
0.1179954,4.6105375,-8.045641,1.7881131,2.931808,-0.78050977,-9.998186,-4.8698063
0.12072045,4.602129,-8.052032,1.8285931,2.9509828,-0.78050977,-9.998186,-4.8698063
0.1234289,4.5937037,-8.0605545,1.8754648,2.96057,-0.770933,-9.9790325,-5.410896
0.12611493,4.5852795,-8.0605545,1.8754648,2.96057,-0.770933,-9.9790325,-5.410896
0.12881577,4.5767355,-8.0605545,1.8754648,2.96057,-0.770933,-9.9790325,-5.410896
0.13145187,4.5682735,-8.072272,1.9308585,2.9584396,-0.7134721,-9.89763,-5.9184666
0.1340751,4.559777,-8.072272,1.9308585,2.9584396,-0.82360536,-9.969456,-6.4260373
0.1366613,4.551247,-8.086121,1.9947743,2.9488523,-0.82360536,-9.969456,-6.4260373
0.13930216,4.542452,-8.086121,1.9947743,2.9488523,-0.82360536,-9.969456,-6.4260373
0.1422093,4.5325327,-8.099969,2.0629513,2.9296775,-0.9528923,-10.036493,-6.8091097
0.1443651,4.5251,-8.099969,2.0629513,2.9296775,-0.9528923,-10.036493,-6.8091097
0.14729261,4.5147133,-8.110621,2.130063,2.9009154,-1.0773908,-10.079589,-7.1155677
0.14964855,4.506048,-8.118079,2.1971745,2.8646963,-0.93852705,-10.237606,-7.2592196
0.15152365,4.499078,-8.118079,2.1971745,2.8646963,-0.93852705,-10.237606,-7.2592196
0.15152365,4.499078,-8.118079,2.1971745,2.8646963,-0.93852705,-10.237606,-7.2592196
0.15816979,4.473241,-8.117014,2.2642863,2.823151,-1.2497733,-10.323798,-7.4363904
0.15947114,4.467924,-8.10636,2.323941,2.7773447,-1.3359646,-10.510546,-7.4363904
0.16027847,4.464604,-8.10636,2.323941,2.7773447,-1.3359646,-10.510546,-7.4363904
0.16027847,4.464604,-8.10636,2.323941,2.7773447,-1.3359646,-10.510546,-7.4363904
0.16606449,4.4394946,-8.086121,2.3740084,2.7230163,-1.2689269,-10.644621,-7.489063
0.16672586,4.436456,-8.0562935,2.4230106,2.6644266,-1.3359646,-10.654198,-7.4363904
0.16875115,4.4270477,-8.0562935,2.4230106,2.6644266,-1.3359646,-10.654198,-7.4363904
0.16996379,4.4213347,-8.0562935,2.4230106,2.6644266,-1.3359646,-10.654198,-7.4363904
0.17343296,4.4040303,-8.01901,2.4720128,2.6047719,-1.4030021,-10.673351,-7.513005
0.1750383,4.395499,-7.9732027,2.5146234,2.545117,-1.412579,-10.7116585,-7.4507556
0.17663768,4.38684,-7.9732027,2.5146234,2.545117,-1.412579,-10.7116585,-7.4507556
0.17813194,4.378248,-7.9199395,2.557234,2.4865274,-1.3551182,-10.7356,-7.3406224
0.17960279,4.3696165,-7.9199395,2.557234,2.4865274,-1.3551182,-10.7356,-7.3406224
0.18098244,4.361006,-7.8624153,2.5945182,2.4300685,-1.3599066,-10.692505,-7.2927384
0.18231891,4.352475,-7.8624153,2.5945182,2.4300685,-1.3599066,-10.692505,-7.2927384
0.18356945,4.343912,-7.8016953,2.6275415,2.3704135,-1.2785037,-10.539276,-7.264008
0.18479818,4.3352833,-7.8016953,2.6275415,2.3704135,-1.2785037,-10.539276,-7.264008
0.18589953,4.326934,-7.736714,2.6552384,2.3107588,-1.2114661,-10.390836,-7.192182
0.18698877,4.3184447,-7.736714,2.6552384,2.3107588,-1.2114661,-10.390836,-7.192182
0.18797934,4.310034,-7.6706676,2.6786742,2.2500389,-1.1348516,-10.189722,-7.129933
0.18893968,4.3016186,-7.6706676,2.6786742,2.2500389,-1.1348516,-10.189722,-7.129933
0.18980749,4.293265,-7.6056867,2.697849,2.1882534,-1.1540052,-10.036493,-7.091625
0.19063935,4.2849665,-7.6056867,2.697849,2.1882534,-1.1540052,-10.036493,-7.091625
0.19063935,4.2849665,-7.5385747,2.7116973,2.1264682,-1.1492168,-9.916783,-7.129933
0.19206817,4.2688036,-7.5385747,2.7116973,2.1264682,-1.1492168,-9.916783,-7.129933
0.19269276,4.260602,-7.4725285,2.7191541,2.0646827,-1.067814,-9.878476,-7.0820484
0.19269276,4.260602,-7.4725285,2.7191541,2.0646827,-1.067814,-9.878476,-7.0820484
0.1933164,4.251987,-7.405417,2.7223501,2.0039628,-1.0151415,-9.859323,-7.015011
0.1938228,4.243822,-7.405417,2.7223501,2.0039628,-1.0151415,-9.859323,-7.015011
0.19429617,4.2357044,-7.335109,2.7180889,1.9443078,-0.9959879,-9.830592,-6.9719152
0.19468927,4.227631,-7.335109,2.7180889,1.9443078,-0.9959879,-9.830592,-6.9719152
0.19505396,4.2195168,-7.260541,2.7074363,1.8835878,-0.91458505,-9.959879,-6.861782
0.19532922,4.2115235,-7.260541,2.7074363,1.8835878,-0.91458505,-9.959879,-6.861782
0.19557448,4.2035236,-7.1785154,2.6882615,1.8260635,-1.1540052,-9.77792,-6.799533
0.19576073,4.1956396,-7.1785154,2.6882615,1.8260635,-1.1540052,-9.77792,-6.799533
0.19591774,4.1877184,-7.089033,2.6563036,1.7706697,-0.91458505,-9.720459,-6.7708025
0.19600375,4.179923,-7.089033,2.6563036,1.7706697,-0.91458505,-9.720459,-6.7708025
0.19606046,4.1721463,-6.992094,2.617954,1.7206023,-1.0965444,-9.500193,-6.9958572
0.196087,4.1644325,-6.992094,2.617954,1.7206023,-1.0965444,-9.500193,-6.9958572
0.196085,4.1567373,-6.890894,2.5625603,1.6694696,-0.545878,-10.223241,-6.5840545
0.19600154,4.149239,-6.890894,2.5625603,1.6694696,-0.545878,-10.223241,-6.5840545
0.19589376,4.141718,-6.77265,2.5018404,1.6204674,-0.8331822,-10.831368,-6.38773
0.19576438,4.1343927,-6.77265,2.5018404,1.6204674,-0.8331822,-10.831368,-6.38773
0.19561708,4.127096,-6.6267085,2.4357939,1.5735959,-0.81881696,-11.741165,-5.899313
0.19548431,4.1199627,-6.6267085,2.4357939,1.5735959,-0.81881696,-11.741165,-5.899313
0.19533437,4.112845,-6.443483,2.3644211,1.5309852,-1.8770541,-11.549629,-6.3589997
0.19520004,4.105944,-6.443483,2.3644211,1.5309852,-1.8770541,-11.549629,-6.3589997
0.19504976,4.0990443,-6.229365,2.2642863,1.48944,-1.3838485,-11.602302,-6.301539
0.19488476,4.092373,-6.229365,2.2642863,1.48944,-1.3838485,-11.602302,-6.301539
0.19469696,4.0854225,-5.997137,2.1353893,1.4478946,-2.0590134,-11.908759,-6.3063273
0.19458315,4.079283,-5.997137,2.1353893,1.4478946,-2.0590134,-11.908759,-6.3063273
0.19444942,4.0728626,-5.997137,2.1353893,1.4478946,-2.0590134,-11.908759,-6.3063273
0.19433774,4.0665913,-5.747865,1.9969049,1.4138062,-1.4796166,-12.392388,-6.0238113
0.19421776,4.0605965,-5.471962,1.8424416,1.376522,-1.1827357,-13.120225,-5.645528
0.19414632,4.054781,-5.471962,1.8424416,1.376522,-1.1827357,-13.120225,-5.645528
0.19406222,4.0489483,-5.1630354,1.6933045,1.3413682,-1.5131354,-13.431472,-5.626374
0.19403952,4.043487,-5.1630354,1.6933045,1.3413682,-1.5131354,-13.431472,-5.626374
0.19400564,4.038004,-4.8221507,1.5388412,1.3030187,-1.958457,-13.560759,-5.741296
0.19403735,4.032886,-4.8221507,1.5388412,1.3030187,-1.958457,-13.560759,-5.741296
0.19405915,4.027773,-4.45783,1.3630725,1.2572123,-1.9536686,-13.512875,-5.6215854
0.19414835,4.0230465,-4.45783,1.3630725,1.2572123,-1.9536686,-13.512875,-5.6215854
0.19422904,4.018329,-4.070074,1.1766512,1.2071449,-1.7142484,-13.522451,-5.4922986
0.1943788,4.014024,-4.070074,1.1766512,1.2071449,-1.7142484,-13.522451,-5.4922986
0.19452141,4.0097227,-3.6588817,0.9934258,1.1560122,-1.532289,-13.551182,-5.568913
0.19493692,4.0020514,-3.6588817,0.9934258,1.1560122,-1.532289,-13.551182,-5.568913
0.19521214,3.9986525,-3.2295802,0.82085294,1.1016836,-1.6711528,-13.517663,-5.6551046
0.19521214,3.9986525,-3.2295802,0.82085294,1.1016836,-1.6711528,-13.517663,-5.6551046
0.19548568,3.9952192,-2.7842996,0.65254116,1.0420289,-1.6663644,-13.263878,-6.0142345
0.19581512,3.9923017,-2.7842996,0.65254116,1.0420289,-1.6663644,-13.263878,-6.0142345
0.1961397,3.9893985,-2.3315623,0.4842294,0.9802435,-1.7717092,-12.962208,-6.4882865
0.19652638,3.9869673,-2.3315623,0.4842294,0.9802435,-1.7717092,-12.962208,-6.4882865
0.19691263,3.9845233,-1.8809553,0.31378707,0.9131319,-1.7764976,-12.837709,-6.871359
0.19735457,3.9825766,-1.8809553,0.31378707,0.9131319,-1.7764976,-12.837709,-6.871359
0.19779491,3.9806294,-1.8809553,0.31378707,0.9131319,-1.7764976,-12.837709,-6.871359
0.1983802,3.9789066,-1.4335443,0.13801843,0.84388965,-1.6663644,-12.62702,-7.177817
0.19881082,3.9776359,-1.4335443,0.13801843,0.84388965,-1.484405,-12.229582,-7.469909
0.19934928,3.9766622,-0.9882638,-0.037750203,0.76719064,-1.484405,-12.229582,-7.469909
0.19988891,3.9756851,-0.9882638,-0.037750203,0.76719064,-1.2641385,-11.947066,-7.632715
0.20046528,3.9751797,-0.54830956,-0.20925778,0.6830347,-1.2641385,-11.947066,-7.632715
0.20166545,3.9746256,-0.11048587,-0.37437376,0.58929145,-1.13964,-11.707646,-7.752425
0.20166545,3.9746256,-0.11048587,-0.37437376,0.58929145,-1.13964,-11.707646,-7.752425
0.20228103,3.974585,-0.11048587,-0.37437376,0.58929145,-1.0103531,-11.511322,-7.771579
0.20291802,3.9750137,0.32414204,-0.5299024,0.48489556,-1.0103531,-11.511322,-7.771579
0.20355381,3.975442,0.32414204,-0.5299024,0.48489556,-1.043872,-11.420342,-7.7572136
0.2042026,3.9763336,0.7534436,-0.67477834,0.37517333,-1.043872,-11.420342,-7.7572136
0.20485577,3.9772322,0.7534436,-0.67477834,0.37517333,-1.043872,-11.420342,-7.7572136
0.20551285,3.97859,1.1784841,-0.81006694,0.26119003,-1.0390835,-11.444284,-7.7093296
0.20616867,3.9799476,1.1784841,-0.81006694,0.26119003,-1.091756,-11.520899,-7.7093296
0.20681873,3.9817603,1.5992635,-0.9357681,0.14081514,-1.091756,-11.520899,-7.7093296
0.20746931,3.9835806,2.0136514,-1.0508167,0.019374989,-1.1587936,-11.540052,-7.8050976
0.20809928,3.985838,2.0136514,-1.0508167,0.019374989,-1.1587936,-11.540052,-7.8050976
0.20873134,3.9881139,2.0136514,-1.0508167,0.019374989,-1.2449849,-11.310209,-7.943961
0.20932996,3.9908123,2.422713,-1.1541474,-0.09886937,-1.2449849,-11.310209,-7.943961
0.20992686,3.9935215,2.422713,-1.1541474,-0.09886937,-1.2449849,-11.310209,-7.943961
0.2104942,3.9966617,2.821122,-1.2489558,-0.2149832,-1.3742718,-11.219229,-8.00621
0.21105619,3.9998014,2.821122,-1.2489558,-0.2149832,-1.4939818,-11.190498,-8.09719
0.21158665,4.0033445,3.204617,-1.3384382,-0.32364017,-1.4939818,-11.190498,-8.09719
0.21211135,4.0068936,3.204617,-1.3384382,-0.32364017,-1.4939818,-11.147403,-8.121132
0.21260113,4.010848,3.5731986,-1.4215287,-0.43229714,-1.5658079,-11.147403,-8.121132
0.21308117,4.0147896,3.5731986,-1.4215287,-0.43229714,-1.7238252,-11.204864,-8.073248
0.21353397,4.019116,3.9247358,-1.5003583,-0.5345625,-1.7238252,-11.204864,-8.073248
0.21397722,4.023445,3.9247358,-1.5003583,-0.5345625,-1.8339585,-11.314998,-7.9248075
0.21439625,4.0281477,4.2581635,-1.5738616,-0.63256687,-1.8339585,-11.314998,-7.9248075
0.21480386,4.032849,4.2581635,-1.5738616,-0.63256687,-1.7477672,-11.391612,-7.7667904
0.21517655,4.0378733,4.5745473,-1.6452342,-0.7252449,-1.7477672,-11.391612,-7.7667904
0.21553831,4.0429163,4.5745473,-1.6452342,-0.7252449,-1.7477672,-11.391612,-7.656657
0.215868,4.048292,4.871756,-1.7144765,-0.81685764,-1.7956513,-11.496957,-7.656657
0.21618277,4.05365,5.14979,-1.7815881,-0.9074051,-1.982399,-11.48738,-7.52737
0.21646686,4.0593057,5.14979,-1.7815881,-0.9074051,-1.982399,-11.48738,-7.52737
0.21673718,4.065,5.407584,-1.8444387,-0.99262625,-2.0590134,-11.506534,-7.3071036
0.21697542,4.0709405,5.407584,-1.8444387,-0.99262625,-2.0590134,-11.506534,-7.3071036
0.21719821,4.0769153,5.407584,-1.8444387,-0.99262625,-2.0590134,-11.506534,-7.3071036
0.21736573,4.083129,5.6493993,-1.906224,-1.0735863,-1.8818425,-11.27669,-7.177817
0.21751438,4.089327,5.6493993,-1.906224,-1.0735863,-1.8818425,-10.97502,-7.1107793
0.21759742,4.095778,5.87417,-1.9626831,-1.1545465,-1.6472107,-10.97502,-7.1107793
0.21766068,4.102191,5.87417,-1.9626831,-1.1545465,-1.6472107,-10.97502,-7.129933
0.21765685,4.108843,6.080831,-2.0127504,-1.2365718,-1.5610195,-10.658986,-7.129933
0.21763511,4.1154594,6.080831,-2.0127504,-1.2365718,-1.5610195,-10.658986,-7.129933
0.21755555,4.122279,6.273644,-2.0606873,-1.317532,-1.6903064,-10.477027,-7.1251445
0.21746065,4.1290884,6.273644,-2.0606873,-1.317532,-1.8387469,-10.280702,-6.967127
0.217311,4.136054,6.4515433,-2.1096895,-1.3995572,-1.8387469,-10.280702,-6.967127
0.21714789,4.1430416,6.4515433,-2.1096895,-1.3995572,-1.8387469,-10.280702,-6.885724
0.21695647,4.1501627,6.615594,-2.1608222,-1.4783869,-2.1978772,-10.132261,-6.885724
0.21675788,4.1572666,6.615594,-2.1608222,-1.4783869,-2.1978772,-10.132261,-6.7564373
0.21653281,4.1645384,6.764731,-2.2172813,-1.5508248,-2.303222,-9.983821,-6.7564373
0.21629688,4.1717978,6.905346,-2.281197,-1.6190017,-2.0925324,-9.773131,-6.579266
0.21600159,4.179215,6.905346,-2.281197,-1.6190017,-2.0925324,-9.773131,-6.579266
0.21569276,4.1866274,6.905346,-2.281197,-1.6190017,-2.0925324,-9.773131,-6.579266
0.21532182,4.194387,7.035308,-2.345113,-1.6829176,-1.8483237,-9.572019,-6.5265937
0.21495217,4.201787,7.035308,-2.345113,-1.6829176,-1.8483237,-9.572019,-6.5265937
0.21451597,4.209486,7.1535525,-2.4026372,-1.7415072,-1.6759412,-9.500193,-6.2967505
0.2140622,4.217188,7.1535525,-2.4026372,-1.7415072,-1.5466543,-9.41879,-6.2488666
0.21356027,4.2249985,7.26434,-2.4527047,-1.7958356,-1.5466543,-9.41879,-6.2488666
0.21303903,4.232812,7.26434,-2.4527047,-1.7958356,-1.532289,-9.457097,-6.1866174
0.21246667,4.2407665,7.3634095,-2.49425,-1.845903,-1.532289,-9.457097,-6.1866174
0.21187791,4.2486687,7.3634095,-2.49425,-1.845903,-1.685518,-9.466674,-6.0477533
0.21124677,4.2566967,7.452892,-2.5283384,-1.8906442,-1.685518,-9.466674,-6.0477533
0.21059544,4.264712,7.452892,-2.5283384,-1.8906442,-1.8579005,-9.471462,-5.93762
0.20991205,4.272807,7.530656,-2.5581658,-1.9268632,-1.8579005,-9.471462,-5.93762
0.20920503,4.2809143,7.530656,-2.5581658,-1.9268632,-1.9393034,-9.495404,-5.8322754
0.20847137,4.289048,7.594572,-2.5869281,-1.9524295,-1.9393034,-9.495404,-5.8322754
0.20771162,4.2972097,7.594572,-2.5869281,-1.9524295,-1.8531121,-9.504981,-5.631162
0.20438407,4.3300767,7.6851196,-2.627408,-1.970539,-1.7860745,-9.442732,-5.511452
0.20438407,4.3300767,7.6851196,-2.627408,-1.970539,-1.7860745,-9.442732,-5.511452
0.20438407,4.3300767,7.6851196,-2.627408,-1.970539,-1.7860745,-9.442732,-5.511452
0.20438407,4.3300767,7.7053595,-2.639126,-1.9641474,-1.6711528,-9.385271,-5.3486466
0.20349292,4.338359,7.7053595,-2.639126,-1.9641474,-1.6711528,-9.385271,-5.3486466
0.20197277,4.3520827,7.7096205,-2.6444523,-1.9460379,-1.4652514,-9.294291,-5.21936
0.20166573,4.3547893,7.7096205,-2.6444523,-1.9460379,-1.4652514,-9.294291,-5.21936
0.20071451,4.3630295,7.6979027,-2.6423218,-1.9204715,-1.2449849,-9.059659,-5.1666875
0.19975297,4.3712687,7.6979027,-2.6423218,-1.9204715,-1.2449849,-9.059659,-5.1666875
0.19876912,4.379494,7.6979027,-2.6423218,-1.9204715,-1.2449849,-9.059659,-5.1666875
0.19675635,4.3958316,7.663814,-2.6327343,-1.8959705,-0.91937345,-8.686164,-5.1906295
0.19675635,4.3958316,7.663814,-2.6327343,-1.8959705,-0.91937345,-8.686164,-5.1906295
0.19569679,4.4041805,7.6084204,-2.614625,-1.8672084,-0.60333884,-8.346188,-5.118803
0.19461632,4.4124994,7.6084204,-2.614625,-1.8672084,-0.60333884,-8.346188,-5.118803
0.19356744,4.42042,7.5295906,-2.5858629,-1.837381,-0.33039984,-7.8769236,-5.0182467
0.19248472,4.428424,7.5295906,-2.5858629,-1.837381,0.1436521,-7.469909,-4.88896
0.19141522,4.4360867,7.4283905,-2.5475132,-1.809684,0.1436521,-7.469909,-4.88896
0.18956544,4.4488983,7.3026896,-2.4963806,-1.7830524,0.20590134,-6.967127,-4.654328
0.18917109,4.4515796,7.3026896,-2.4963806,-1.7830524,0.20590134,-6.967127,-4.654328
0.18801843,4.4593177,7.3026896,-2.4963806,-1.7830524,0.20590134,-6.967127,-4.654328
0.18683742,4.466934,7.155683,-2.4409869,-1.7596166,0.50278234,-6.6846113,-4.381389
0.18482834,4.47919,6.9884367,-2.381332,-1.7425724,0.8762778,-6.2728086,-4.012682
0.18440822,4.4817133,6.9884367,-2.381332,-1.7425724,0.8762778,-6.2728086,-4.012682
0.18316488,4.489101,6.9884367,-2.381332,-1.7425724,0.8762778,-6.2728086,-4.012682
0.18188249,4.496341,6.809472,-2.3110247,-1.7276587,1.1444284,-6.0716953,-3.6870706
0.18059157,4.503525,6.809472,-2.3110247,-1.7276587,1.6136919,-5.463568,-3.4715924
0.1792651,4.510517,6.6187897,-2.232195,-1.7159408,1.6136919,-5.463568,-3.4715924
0.17792352,4.517496,6.6187897,-2.232195,-1.7159408,1.6376339,-5.0996494,-3.0933087
0.17655046,4.5242567,6.4174547,-2.1405823,-1.7074187,1.6376339,-5.0996494,-3.0933087
0.17515795,4.5310316,6.4174547,-2.1405823,-1.7074187,1.6376339,-4.7884035,-3.0454245
0.17375346,4.537557,6.204402,-2.038317,-1.6946355,1.3838485,-4.7884035,-3.0454245
0.1723379,4.5440645,6.204402,-2.038317,-1.6946355,1.3838485,-4.7884035,-3.0454245
0.17087531,4.5503583,5.9817615,-1.9413778,-1.6850481,2.2026656,-4.3957543,-2.60968
0.1689637,4.5580893,5.7505994,-1.8412429,-1.6797218,3.2609026,-3.86903,-2.2744915
0.16785896,4.562517,5.7505994,-1.8412429,-1.6797218,3.2609026,-3.86903,-2.2744915
0.16634516,4.5685363,5.7505994,-1.8412429,-1.6797218,3.2609026,-3.86903,-2.2744915
0.16466948,4.574812,5.5055885,-1.7134112,-1.6765261,4.1371803,-3.241749,-1.9249382
0.16326351,4.5800343,5.239272,-1.5642742,-1.6765261,3.7349546,-1.3072342,-2.303222
0.16168165,4.5855293,5.239272,-1.5642742,-1.6765261,3.7349546,-1.3072342,-2.303222
0.16010588,4.590965,4.9346066,-1.4055498,-1.6818523,5.7604494,-1.2306197,-1.460463
0.15850085,4.5961165,4.9346066,-1.4055498,-1.6818523,5.7604494,-1.2306197,-1.460463
0.15688418,4.6012745,4.593722,-1.2201937,-1.6839828,4.6160207,-1.6998832,-0.81881696
0.15523154,4.606074,4.593722,-1.2201937,-1.6839828,4.6160207,-1.6998832,-0.81881696
0.15357196,4.610869,4.238989,-1.0167283,-1.6754608,3.8402996,-1.6472107,-0.6703765
0.15189204,4.615275,4.238989,-1.0167283,-1.6754608,3.8402996,-1.6472107,-0.6703765
0.15020326,4.619687,3.8799949,-0.8388291,-1.6669387,3.86903,-0.46447513,-0.5602432
0.1485193,4.623702,3.8799949,-0.8388291,-1.6669387,3.86903,-0.46447513,-0.5602432
0.14683281,4.627711,3.4975648,-0.6630604,-1.6392418,4.3478703,0.58897364,-0.29209262
0.1451705,4.6313186,3.4975648,-0.6630604,-1.6392418,4.3478703,0.58897364,-0.29209262
0.14350504,4.634925,3.0767853,-0.4755739,-1.588109,4.5777135,0.60812724,0.60333884
0.1418821,4.6380963,3.0767853,-0.4755739,-1.588109,4.5777135,0.60812724,0.60333884
0.140257,4.641267,2.6219175,-0.2774347,-1.5178016,4.213795,0.7230489,1.1827357
0.13869478,4.6439614,2.6219175,-0.2774347,-1.5178016,4.213795,0.7230489,1.1827357
0.13712983,4.6466575,2.1468096,-0.0856871,-1.4336457,4.285621,0.5363012,1.8722657
0.13564204,4.648857,2.1468096,-0.0856871,-1.4336457,4.285621,0.5363012,1.8722657
0.13415377,4.6510553,1.6525269,0.09860365,-1.3356414,4.673482,1.0773908,2.078167
0.13275568,4.652732,1.6525269,0.09860365,-1.3356414,4.673482,1.0773908,2.078167
0.13135752,4.654409,1.1326778,0.28395966,-1.2184623,3.9935284,0.9576807,2.27928
0.12882516,4.656646,1.1326778,0.28395966,-1.2184623,3.9935284,0.9576807,2.27928
0.12764972,4.657222,0.59045815,0.45546725,-1.0970222,4.414908,0.5363012,2.8538885
0.12764972,4.657222,0.59045815,0.45546725,-1.0970222,4.414908,0.5363012,2.8538885
0.1264345,4.657818,0.03652063,0.62271374,-0.975582,4.7165775,0.20590134,3.2369606
0.12537088,4.657821,0.03652063,0.62271374,-0.975582,4.7165775,0.20590134,3.2369606
0.12431357,4.657825,-0.52487373,0.7995477,-0.8445545,4.6160207,0.095768064,3.4715924
0.12337187,4.657247,-0.52487373,0.7995477,-0.8445545,4.6160207,0.095768064,3.4715924
0.12242596,4.656667,-1.0947902,0.9827731,-0.70180905,4.453215,-0.17717093,3.5913026
0.121617846,4.655502,-1.0947902,0.9827731,-0.70180905,4.453215,-0.17717093,3.5913026
0.12080781,4.654336,-1.6710982,1.1638681,-0.54841095,3.9552212,-0.48362875,3.6870706
0.12014168,4.652575,-1.6710982,1.1638681,-0.54841095,3.9552212,-0.48362875,3.6870706
0.11947296,4.6508136,-2.2516675,1.3332452,-0.38009918,3.466804,-0.8762778,3.6296098
0.118962035,4.6484585,-2.2516675,1.3332452,-0.38009918,3.466804,-0.8762778,3.6296098
0.118447036,4.6460996,-2.8290408,1.4813169,-0.19900422,2.8538885,-1.4939818,3.5098996
0.11810173,4.643153,-2.8290408,1.4813169,-0.19900422,2.8538885,-1.4939818,3.5098996
0.1177523,4.640207,-3.397892,1.5995612,-0.009387151,2.528277,-2.15957,3.3758245
0.11757813,4.6366844,-3.397892,1.5995612,-0.009387151,2.528277,-2.15957,3.3758245
0.11739819,4.6331553,-3.9486337,1.6922393,0.18342571,2.4372973,-2.9735985,3.217807
0.11739335,4.62907,-3.9486337,1.6922393,0.18342571,2.4372973,-2.9735985,3.217807
0.11738185,4.624984,-4.469548,1.767873,0.37836912,2.2505496,-3.7684734,3.0454245
0.1175481,4.620369,-4.469548,1.767873,0.37836912,2.2505496,-3.7684734,3.0454245
0.117706366,4.6157537,-4.9521127,1.8307236,0.57757354,2.2457612,-4.721366,2.791639
0.11804211,4.610647,-4.9521127,1.8307236,0.57757354,2.2457612,-4.721366,2.791639
0.11836869,4.6055403,-5.3941975,1.8850521,0.77038646,2.183512,-5.6407394,2.5330653
0.11886637,4.5999813,-5.3941975,1.8850521,0.77038646,2.183512,-5.6407394,2.5330653
0.119353175,4.5944276,-5.7883453,1.9340543,0.9600035,2.0207062,-6.727707,2.2457612
0.12000798,4.588465,-5.7883453,1.9340543,0.9600035,2.0207062,-6.727707,2.2457612
0.120651975,4.5824957,-6.1356215,1.9724039,1.143229,1.5945383,-7.7332716,1.910573
0.12145999,4.5761786,-6.1356215,1.9724039,1.143229,1.5945383,-7.7332716,1.910573
0.1222555,4.569859,-6.4285693,1.9979702,1.3211281,1.2497733,-8.7532015,1.6519991
0.1232104,4.5632467,-6.4285693,1.9979702,1.3211281,1.2497733,-8.7532015,1.6519991
0.124151796,4.5566325,-6.665058,2.0043619,1.4905052,0.92416185,-9.682152,1.412579
0.12524849,4.54977,-6.665058,2.0043619,1.4905052,0.92416185,-9.682152,1.412579
0.12633081,4.5429044,-6.846153,1.9905133,1.6513602,0.4405331,-10.443508,1.091756
0.12756443,4.5358562,-6.846153,1.9905133,1.6513602,0.4405331,-10.443508,1.091756
0.12878299,4.528804,-6.9697237,1.960686,1.8068887,0.1436521,-11.066,0.7613561
0.1301464,4.5216255,-6.9697237,1.960686,1.8068887,0.1436521,-11.066,0.7613561
0.13149445,4.5144434,-7.0389657,1.9138143,1.9549605,-0.2825158,-11.597513,0.4405331
0.13298754,4.507192,-7.0389657,1.9138143,1.9549605,-0.2825158,-11.597513,0.4405331
0.13446487,4.4999356,-7.0560102,1.8488332,2.09451,-0.56982,-12.090718,0.08619126
0.1376353,4.485583,-7.0560102,1.8488332,2.09451,-0.56982,-12.090718,0.08619126
0.13936256,4.4783373,-7.0261827,1.7689383,2.2244725,-0.6847417,-12.421119,-0.19632454
0.13936256,4.4783373,-7.0261827,1.7689383,2.2244725,-0.6847417,-12.421119,-0.19632454
0.1411235,4.4708753,-6.950549,1.6783909,2.3427167,-0.8283938,-12.612655,-0.49799395
0.14295585,4.4637027,-6.950549,1.6783909,2.3427167,-0.8283938,-12.612655,-0.49799395
0.14476204,4.4565673,-6.8376307,1.5814518,2.4503086,-0.8475474,-12.660539,-0.8523358
0.14669015,4.4494977,-6.8376307,1.5814518,2.4503086,-0.8475474,-12.660539,-0.8523358
0.14861089,4.442394,-6.8376307,1.5814518,2.4503086,-0.8475474,-12.660539,-0.8523358
0.150692,4.435233,-6.690624,1.4834474,2.5493782,-0.8331822,-12.593501,-1.2593501
0.15266456,4.4283915,-6.690624,1.4834474,2.5493782,-0.8331822,-12.593501,-1.2593501
0.15473184,4.4216995,-6.514856,1.3843778,2.6324687,-0.8331822,-12.521675,-1.5849615
0.15678608,4.415002,-6.317782,1.2853082,2.6995804,-0.8810662,-12.488156,-2.006341
0.15892875,4.4084506,-6.317782,1.2853082,2.6995804,-0.8810662,-12.488156,-2.006341
0.16106136,4.401887,-6.317782,1.2853082,2.6995804,-0.8810662,-12.488156,-2.4229321
0.16325407,4.395547,-6.103664,1.1862386,2.7571046,-0.93373865,-12.344504,-2.4229321
0.16543354,4.389207,-6.103664,1.1862386,2.7571046,-0.93373865,-12.344504,-2.4229321
0.16766497,4.383084,-5.8767624,1.0861038,2.8007805,-0.94331545,-12.320562,-2.8203697
0.16988432,4.3769608,-5.8767624,1.0861038,2.8007805,-0.94331545,-12.320562,-3.193865
0.17214382,4.37108,-5.638143,0.98383844,2.830608,-1.0630256,-12.277467,-3.193865
0.17439254,4.3652,-5.638143,0.98383844,2.830608,-1.2066777,-12.306197,-3.4955344
0.17668103,4.35956,-5.393132,0.8794425,2.8487175,-1.2066777,-12.306197,-3.4955344
0.17895524,4.353932,-5.393132,0.8794425,2.8487175,-1.3694834,-12.406754,-3.7972038
0.1812672,4.3485456,-5.142795,0.77185076,2.8583047,-1.3694834,-12.406754,-3.7972038
0.18357265,4.3431544,-5.142795,0.77185076,2.8583047,-1.5993267,-12.512098,-4.0462008
0.18590766,4.338042,-4.883936,0.66106325,2.8583047,-1.5993267,-12.512098,-4.0462008
0.18823694,4.3329244,-4.883936,0.66106325,2.8583047,-1.8818425,-12.761095,-4.285621
0.19059804,4.328103,-4.61762,0.5428189,2.8497827,-1.8818425,-12.761095,-4.285621
0.19295835,4.3232675,-4.344912,0.4171177,2.8338037,-2.087744,-13.024457,-4.477157
0.19534779,4.318735,-4.344912,0.4171177,2.8338037,-2.087744,-13.024457,-4.477157
0.1977388,4.314183,-4.344912,0.4171177,2.8338037,-2.2649148,-13.335704,-4.6830587
0.20016119,4.3099356,-4.0615516,0.2796986,2.8082373,-2.2649148,-13.335704,-4.6830587
0.20256871,4.3056984,-4.0615516,0.2796986,2.8082373,-2.3798366,-13.694834,-4.8602295
0.2050075,4.301774,-3.7622125,0.1358879,2.7762794,-2.3798366,-13.694834,-4.8602295
0.20744397,4.29784,-3.7622125,0.1358879,2.7762794,-2.4947581,-13.9198885,-4.984728
0.20989856,4.294263,-3.4447637,-0.012183856,2.7400603,-2.4947581,-13.9198885,-4.984728
0.21235125,4.2906775,-3.4447637,-0.012183856,2.7400603,-2.6240451,-14.235924,-5.161899
0.21482886,4.287451,-3.112401,-0.1634514,2.6985152,-2.6240451,-14.235924,-5.161899
0.2180073,4.2838287,-2.7597985,-0.31791475,2.645252,-2.767697,-14.499286,-5.3103395
0.21991748,4.281646,-2.7597985,-0.31791475,2.645252,-2.767697,-14.499286,-5.3103395
0.22237445,4.2788305,-2.3858907,-0.47663915,2.5845318,-2.9017725,-14.84405,-5.401319
0.22483064,4.276436,-2.3858907,-0.47663915,2.5845318,-2.9017725,-14.84405,-5.401319
0.22732387,4.2739983,-1.9949387,-0.63642883,2.5163548,-2.96881,-15.045163,-5.3247046
0.23229273,4.2700067,-1.9949387,-0.63642883,2.5163548,-2.96881,-15.045163,-5.3247046
0.23229273,4.2700067,-1.9949387,-0.63642883,2.5163548,-2.96881,-15.045163,-5.3247046
0.23733626,4.2668824,-1.5858772,-0.7994143,2.4396558,-3.3327289,-14.877569,-5.3678
0.23733626,4.2668824,-1.5858772,-0.7994143,2.4396558,-3.3327289,-14.877569,-5.3678
0.23990218,4.265763,-1.1629672,-0.95920396,2.3565652,-3.4093432,-14.66688,-5.5258174
0.24237475,4.2646813,-0.73473084,-1.1200589,2.2649524,-3.1555579,-15.62456,-5.080496
0.2448466,4.264058,-0.73473084,-1.1200589,2.2649524,-3.1555579,-15.62456,-5.080496
0.24734186,4.2634273,-0.29158083,-1.2702612,2.1722744,-3.3039982,-15.844827,-5.185841
0.24979588,4.263288,-0.29158083,-1.2702612,2.1722744,-3.3039982,-15.844827,-5.185841
0.25226566,4.2631483,0.17287448,-1.4087455,2.077466,-3.9983168,-15.658079,-5.5880666
0.2547344,4.26352,0.64372134,-1.5472299,1.9826574,-5.2385135,-15.112201,-6.2871737
0.2547344,4.26352,0.64372134,-1.5472299,1.9826574,-5.2385135,-15.112201,-6.2871737
0.2547344,4.26352,0.64372134,-1.5472299,1.9826574,-5.2385135,-15.112201,-6.2871737
0.26346523,4.2664967,0.64372134,-1.5472299,1.9826574,-5.2385135,-15.112201,-6.2871737
0.264984,4.2673073,1.1060462,-1.7038238,1.8889141,-5.1666875,-14.69561,-6.5744777
0.26750606,4.2686553,1.1060462,-1.7038238,1.8889141,-5.1666875,-14.69561,-6.5744777
0.26997125,4.2706285,1.5481309,-1.8582872,1.7898445,-4.247314,-14.9063,-6.445191
0.27230197,4.272505,1.5481309,-1.8582872,1.7898445,-4.247314,-14.9063,-6.445191
0.27461553,4.27488,1.9710408,-1.9957063,1.6865139,-4.122815,-15.471332,-6.3829417
0.27685082,4.2771864,1.9710408,-1.9957063,1.6865139,-4.122815,-15.471332,-6.3829417
0.27925205,4.280264,2.3875592,-2.1064937,1.5682695,-4.189853,-14.968549,-6.766014
0.28119206,4.282754,2.7923598,-2.2013023,1.4351114,-4.879383,-14.360422,-7.28795
0.28343377,4.2858276,2.7923598,-2.2013023,1.4351114,-4.879383,-14.360422,-7.28795
0.28568345,4.2889338,2.7923598,-2.2013023,1.4351114,-4.8602295,-13.771448,-7.795521
0.28781578,4.292452,3.1737244,-2.3014371,1.2913008,-4.8602295,-13.771448,-7.795521
0.29087833,4.2975388,3.1737244,-2.3014371,1.2913008,-4.8602295,-13.771448,-7.795521
0.29203707,4.2998276,3.5199354,-2.4068983,1.1347069,-4.3382936,-13.388376,-8.010999
0.29397437,4.3036714,3.8299274,-2.49425,0.96746033,-3.8786068,-13.010092,-8.049306
0.29584333,4.308032,3.8299274,-2.49425,0.96746033,-3.8786068,-13.010092,-8.049306
0.29765603,4.3122873,4.107961,-2.55497,0.7916917,-3.4141316,-12.641385,-8.00621
0.29935306,4.3169794,4.107961,-2.55497,0.7916917,-3.4141316,-12.641385,-8.00621
0.30100086,4.321566,4.107961,-2.55497,0.7916917,-3.4141316,-12.641385,-8.00621
0.30249226,4.3264933,4.3582983,-2.590124,0.6020746,-3.2992098,-12.492945,-7.881712
0.30396605,4.3314013,4.3582983,-2.590124,0.6020746,-3.4476504,-12.0093155,-7.9104424
0.30526412,4.336595,4.5830693,-2.607168,0.39541334,-3.4476504,-12.0093155,-7.9104424
0.30654928,4.341789,4.786535,-2.6167555,0.17916466,-3.596091,-11.420342,-8.030152
0.30763182,4.347193,4.786535,-2.6167555,0.17916466,-3.596091,-11.420342,-8.030152
0.30870906,4.35264,4.786535,-2.6167555,0.17916466,-3.763685,-10.979809,-7.776367
0.30957565,4.358283,4.96763,-2.627408,-0.04241035,-3.763685,-10.979809,-7.776367
0.3104256,4.3639126,5.126354,-2.6401913,-0.26718116,-3.8115692,-10.70687,-7.4986396
0.31106305,4.369767,5.126354,-2.6401913,-0.26718116,-3.8115692,-10.70687,-7.4986396
0.31168362,4.375607,5.126354,-2.6401913,-0.49621302,-3.7205894,-10.46745,-7.345411
0.31207585,4.381619,5.2680345,-2.6508439,-0.49621302,-3.7205894,-10.46745,-7.345411
0.31245235,4.3876324,5.2680345,-2.6508439,-0.49621302,-3.7493198,-10.333375,-7.2352777
0.3126021,4.393801,5.395866,-2.6614966,-0.7241796,-3.7493198,-10.333375,-7.2352777
0.3127352,4.399971,5.395866,-2.6614966,-0.7241796,-3.53863,-10.199299,-7.062895
0.31263715,4.406284,5.5130453,-2.6732144,-0.94788516,-3.53863,-10.199299,-7.062895
0.3125216,4.412596,5.6227674,-2.679606,-1.1673297,-3.2369606,-10.127473,-7.029376
0.31217378,4.4190216,5.6227674,-2.679606,-1.1673297,-3.2369606,-10.127473,-7.029376
0.3118053,4.42549,5.725033,-2.6806712,-1.3814478,-3.0454245,-10.170568,-7.0245876
0.31120992,4.432046,5.725033,-2.6806712,-1.3814478,-3.0454245,-10.170568,-7.0245876
0.31059596,4.4385986,5.8209066,-2.6742797,-1.5891744,-2.9735985,-10.175357,-6.943185
0.3097587,4.445266,5.8209066,-2.6742797,-1.5891744,-2.9735985,-10.175357,-6.943185
0.30890137,4.4519353,5.9125195,-2.6614966,-1.7862482,-2.920926,-10.208876,-6.813898
0.30783316,4.458677,5.9125195,-2.6614966,-1.7862482,-2.920926,-10.208876,-6.813898
0.30673784,4.4654593,5.9977407,-2.6465828,-1.9684085,-3.0071173,-10.299856,-6.6510925
0.3054492,4.472297,5.9977407,-2.6465828,-1.9684085,-3.0071173,-10.299856,-6.6510925
0.30413952,4.479134,5.9977407,-2.6465828,-1.9684085,-3.145981,-10.338163,-6.517017
0.30264577,4.4860477,6.0744395,-2.631669,-2.1367202,-3.145981,-10.338163,-6.517017
0.30113652,4.492932,6.0744395,-2.631669,-2.1367202,-3.265691,-10.405201,-6.220136
0.2994524,4.4999285,6.146878,-2.6178207,-2.284792,-3.265691,-10.405201,-6.220136
0.29776,4.5068665,6.146878,-2.6178207,-2.284792,-3.2513258,-10.477027,-5.8322754
0.2959072,4.5139227,6.2139893,-2.6039722,-2.409428,-3.2513258,-10.477027,-5.8322754
0.2940396,4.5209475,6.2139893,-2.6039722,-2.409428,-3.2130187,-10.553641,-5.6790466
0.29204962,4.528024,6.2800355,-2.594385,-2.5116935,-3.2130187,-10.553641,-5.6790466
0.29004145,4.535083,6.2800355,-2.594385,-2.5116935,-3.2609026,-10.55843,-5.497087
0.28792974,4.542205,6.345017,-2.5837324,-2.5937188,-3.2609026,-10.55843,-5.497087
0.28579798,4.5493145,6.345017,-2.5837324,-2.5937188,-3.074155,-10.5680065,-5.2624555
0.28357354,4.5564804,6.409998,-2.579471,-2.6608305,-3.074155,-10.5680065,-5.2624555
0.28132913,4.5636344,6.409998,-2.579471,-2.6608305,-3.1316159,-10.500969,-5.185841
0.27901396,4.5708475,6.471783,-2.579471,-2.7119632,-3.1316159,-10.500969,-5.185841
0.27668348,4.578034,6.471783,-2.579471,-2.7119632,-3.0550013,-10.409989,-5.118803
0.27429685,4.585276,6.5303726,-2.5826669,-2.7449863,-3.0550013,-10.409989,-5.118803
0.2718975,4.5924845,6.5303726,-2.5826669,-2.7449863,-2.6910827,-10.228029,-4.9081135
0.2694336,4.5997844,6.587897,-2.5911891,-2.7673569,-2.6910827,-10.228029,-4.9081135
0.26695958,4.607043,6.587897,-2.5911891,-2.7673569,-2.4708161,-9.9790325,-4.7405195
0.26444417,4.614373,6.647552,-2.6007764,-2.7780094,-2.4708161,-9.9790325,-4.7405195
0.26179478,4.622019,6.647552,-2.6007764,-2.7780094,-2.255338,-9.65821,-4.5681367
0.2593426,4.629074,6.704011,-2.6092987,-2.7790747,-2.255338,-9.65821,-4.5681367
0.25673282,4.6365128,6.704011,-2.6092987,-2.7790747,-1.541866,-9.141062,-4.31914
0.25417686,4.643753,6.7583394,-2.6167555,-2.7748137,-1.541866,-9.141062,-4.31914
0.2515497,4.6511283,6.7583394,-2.6167555,-2.7748137,-1.6424223,-8.532935,-4.2281604
0.24893422,4.658505,6.804146,-2.614625,-2.7609653,-1.6424223,-8.532935,-4.2281604
0.24628386,4.6659126,6.804146,-2.614625,-2.7609653,-1.0055647,-7.920019,-4.098873
0.24363118,4.6733017,6.8361034,-2.6061027,-2.7428558,-1.0055647,-7.920019,-4.098873
0.24094908,4.680707,6.854213,-2.594385,-2.7268767,0.25857377,-7.2352777,-3.8977604
0.2382466,4.6880827,6.854213,-2.594385,-2.7268767,0.25857377,-7.2352777,-3.8977604
0.23551215,4.695482,6.854213,-2.594385,-2.7268767,1.1971009,-6.493075,-3.53863
0.23275723,4.702836,6.853148,-2.5581658,-2.7162242,1.1971009,-6.493075,-3.53863
0.22997066,4.7102137,6.853148,-2.5581658,-2.7162242,1.5035586,-5.8801594,-3.4572272
0.22717884,4.717516,6.8275814,-2.4867933,-2.7066367,1.5035586,-5.8801594,-3.4572272
0.22437303,4.724798,6.7764487,-2.3866584,-2.6970494,1.2210429,-4.256891,-3.596091
0.22158466,4.7319627,6.7764487,-2.3866584,-2.6970494,1.2210429,-4.256891,-3.596091
0.21876076,4.739166,6.7764487,-2.3866584,-2.6970494,2.6479871,-3.9791632,-2.9735985
0.21302903,4.753322,6.6901627,-2.2780013,-2.6863968,2.6479871,-3.9791632,-2.9735985
0.21302903,4.753322,6.5612655,-2.1586916,-2.675744,3.1986535,-4.687847,-1.8483237
0.21012026,4.760292,6.5612655,-2.1586916,-2.675744,3.1986535,-4.687847,-1.8483237
0.20685385,4.7680664,6.5612655,-2.1586916,-2.675744,3.1986535,-4.687847,-1.8483237
0.20421022,4.774248,6.415324,-1.9967716,-2.6491125,1.8531121,-5.2385135,-1.6998832
0.20145886,4.780649,6.2725787,-1.8561566,-2.6224809,2.0254946,-4.429273,-1.7429788
0.19588473,4.7933445,6.2725787,-1.8561566,-2.6224809,2.0254946,-4.429273,-1.7429788
0.19588473,4.7933445,6.2725787,-1.8561566,-2.6224809,2.5378537,-3.3806129,-1.7381904
0.19289784,4.8000035,6.1223764,-1.7325859,-2.590523,2.5378537,-3.3806129,-1.7381904
0.1900611,4.806299,5.9476733,-1.6058195,-2.546847,2.7581203,-3.0885203,-1.2306197
0.18723856,4.812457,5.9476733,-1.6058195,-2.546847,2.7581203,-3.0885203,-1.2306197
0.18441366,4.8185954,5.7442074,-1.4705309,-2.4882576,2.96881,-3.0214825,-0.5363012
0.18165128,4.824521,5.7442074,-1.4705309,-2.4882576,2.96881,-3.0214825,-0.5363012
0.17887633,4.8304515,5.520502,-1.3352423,-2.4179502,3.145981,-2.566584,-0.11971009
0.17618726,4.8361425,5.520502,-1.3352423,-2.4179502,3.145981,-2.566584,-0.11971009
0.17349195,4.8418274,5.2776217,-1.2031496,-2.3391206,2.5570073,-2.2601264,0.37349546
0.17089115,4.847262,5.2776217,-1.2031496,-2.3391206,2.5570073,-2.2601264,0.37349546
0.16828522,4.8526917,5.0145016,-1.0657305,-2.2517688,3.0933087,-1.7142484,0.5602432
0.16579133,4.857841,5.0145016,-1.0657305,-2.2517688,3.0933087,-1.7142484,0.5602432
0.16329074,4.8629913,4.7332716,-0.95068187,-2.1697435,4.209007,-1.5801731,1.4748282
0.16090411,4.8678513,4.7332716,-0.95068187,-2.1697435,4.209007,-1.5801731,1.4748282
0.15851398,4.8727083,4.431802,-0.8090017,-2.083457,5.133168,-1.0199299,1.9488802
0.15623793,4.877243,4.431802,-0.8090017,-2.083457,5.133168,-1.0199299,1.9488802
0.15396163,4.8817716,4.111157,-0.6257762,-1.9897138,5.1475334,-0.076614454,2.1930888
0.15181288,4.885963,4.111157,-0.6257762,-1.9897138,5.1475334,-0.076614454,2.1930888
0.14966701,4.8901443,3.763881,-0.4159191,-1.8863832,5.209783,0.79487497,2.2649148
0.14766455,4.8939533,3.763881,-0.4159191,-1.8863832,5.209783,0.79487497,2.2649148
0.14565949,4.8977647,3.3825164,-0.1996704,-1.7798567,5.535394,1.8052281,2.6623523
0.14381182,4.9011602,3.3825164,-0.1996704,-1.7798567,5.535394,1.8052281,2.6623523
0.14196247,4.904558,2.9606717,0.026165664,-1.6658734,5.961562,2.873042,3.040636
0.14027558,4.9075065,2.9606717,0.026165664,-1.6658734,5.961562,2.873042,3.040636
0.13859296,4.910449,2.4930205,0.2647849,-1.5444332,6.4739213,3.8259344,3.5338416
0.13707574,4.9129057,2.4930205,0.2647849,-1.5444332,6.4739213,3.8259344,3.5338416
0.13556276,4.9153585,1.9784977,0.5161873,-1.4229931,7.07726,4.6782703,4.0318356
0.1342237,4.917268,1.9784977,0.5161873,-1.4229931,7.07726,4.6782703,4.0318356
0.13288584,4.9191775,1.4160382,0.78569925,-1.3004876,7.536947,5.2385135,4.6830587
0.13172686,4.9204955,1.4160382,0.78569925,-1.3004876,7.536947,5.2385135,4.6830587
0.13056909,4.9218144,0.8099026,1.0701249,-1.1779822,7.7572136,5.530606,5.363012
0.12959339,4.9224973,0.8099026,1.0701249,-1.1779822,7.7572136,5.530606,5.363012
0.12861848,4.9231815,0.16861342,1.3715947,-1.052281,7.833828,5.521029,6.042965
0.12783146,4.923193,0.16861342,1.3715947,-1.052281,7.833828,5.521029,6.042965
0.12704363,4.9232054,0.16861342,1.3715947,-1.052281,7.469909,5.0182467,6.694188
0.12644948,4.922513,-0.5046337,1.6794561,-0.92018825,7.469909,5.0182467,6.694188
0.1258553,4.9218225,-1.1970556,1.9809259,-0.78596497,7.1730285,4.19943,7.5321584
0.1254566,4.9204187,-1.1970556,1.9809259,-0.78596497,7.1730285,4.19943,7.5321584
0.12505305,4.9190083,-1.8979996,2.2706778,-0.64535004,6.2488666,3.083732,8.250419
0.1248456,4.916869,-1.8979996,2.2706778,-0.64535004,6.2488666,3.083732,8.250419
0.124633424,4.914732,-2.5968132,2.536994,-0.49408248,4.9943047,1.7717092,8.791509
0.12462144,4.9118705,-2.5968132,2.536994,-0.49408248,4.9943047,1.7717092,8.791509
0.12460226,4.9090204,-3.2849739,2.7617648,-0.33535808,3.5913026,0.39743748,9.165004
0.12478066,4.905448,-3.2849739,2.7617648,-0.33535808,3.5913026,0.39743748,9.165004
0.12494876,4.9018855,-3.9518294,2.932207,-0.1638505,2.8203697,-0.8858546,9.509769
0.12530982,4.897639,-3.9518294,2.932207,-0.1638505,2.8203697,-0.8858546,9.509769
0.12565869,4.89339,-4.5920534,3.0515168,0.024701312,2.0111294,-2.3942018,9.763555
0.12620457,4.8884935,-4.5920534,3.0515168,0.024701312,2.0111294,-2.3942018,9.763555
0.12673596,4.8835945,-5.194993,3.1303463,0.22497103,1.4317327,-3.8881836,9.921572
0.1274646,4.8780875,-5.194993,3.1303463,0.22497103,1.4317327,-3.8881836,9.921572
0.12817661,4.8725777,-5.747865,3.1655,0.43482813,1.1971009,-5.386954,9.878476
0.12908313,4.866514,-5.747865,3.1655,0.43482813,1.1971009,-5.386954,9.878476
0.12997119,4.860447,-6.2453437,3.1676304,0.64575046,1.1683705,-6.775591,9.782708
0.13104774,4.853877,-6.2453437,3.1676304,0.64575046,1.1683705,-6.775591,9.782708
0.13210234,4.847316,-6.6757107,3.14526,0.8524118,1.1779473,-8.1881695,9.44752
0.13333713,4.8403144,-6.6757107,3.14526,0.8524118,1.1779473,-8.1881695,9.44752
0.13454975,4.8333144,-7.03577,3.10478,1.0526816,1.0055647,-9.361329,8.939949
0.1359315,4.8259664,-7.03577,3.10478,1.0526816,1.0055647,-9.361329,8.939949
0.1372931,4.8186054,-7.325522,3.0451252,1.2422986,0.61291564,-10.386047,8.360553
0.1388167,4.810954,-7.325522,3.0451252,1.2422986,0.61291564,-10.386047,8.360553
0.1388167,4.810954,-7.325522,3.0451252,1.2422986,0.61291564,-10.386047,8.360553
0.1388167,4.810954,-7.325522,3.0451252,1.2422986,0.61291564,-10.386047,8.360553
0.14571479,4.780263,-7.7047563,2.874683,1.5906401,0.009576807,-11.951855,7.4986396
0.14697008,4.774509,-7.7047563,2.874683,1.5906401,0.009576807,-11.951855,7.4986396
0.14779538,4.7706947,-7.7047563,2.874683,1.5906401,0.009576807,-11.951855,7.4986396
0.14973567,4.7623067,-7.8070216,2.7692215,1.7546908,-0.18195933,-12.555194,7.0581064
0.15157925,4.754236,-7.8070216,2.7692215,1.7546908,-0.18195933,-12.555194,7.0581064
0.15359029,4.7459803,-7.857089,2.6552384,1.9134152,-0.40222588,-13.034034,6.612785
0.15544675,4.738272,-7.857089,2.6552384,1.9134152,-0.79966336,-13.359646,6.1004257
0.15753797,4.7301297,-7.8634806,2.5348635,2.0625522,-0.79966336,-13.359646,6.1004257
0.159609,4.7219787,-7.8634806,2.5348635,2.0625522,-1.2114661,-13.541605,5.506664
0.16181944,4.7138243,-7.8315225,2.4102275,2.206363,-1.2114661,-13.541605,5.506664
0.16399698,4.7057095,-7.8315225,2.4102275,2.206363,-1.5993267,-13.599066,4.8937483
0.16630633,4.6976285,-7.7718678,2.2781348,2.3405862,-1.5993267,-13.599066,4.8937483
0.16859436,4.689547,-7.688777,2.1407156,2.4662874,-1.8195933,-13.642161,4.185065
0.17098561,4.681596,-7.688777,2.1407156,2.4662874,-1.8195933,-13.642161,4.185065
0.17337322,4.673588,-7.688777,2.1407156,2.4662874,-1.9919758,-13.584701,3.4811692
0.17587301,4.6656876,-7.5897074,1.9979702,2.585597,-1.9919758,-13.584701,3.4811692
0.17834336,4.657818,-7.479985,1.8530942,2.689993,-2.0638018,-13.551182,2.60968
0.18090092,4.6500983,-7.479985,1.8530942,2.689993,-2.0638018,-13.551182,2.60968
0.18345766,4.642323,-7.3596106,1.707153,2.7794752,-2.0925324,-13.455414,1.70946
0.18608287,4.6347246,-7.3596106,1.707153,2.7794752,-2.0925324,-13.455414,1.70946
0.18870863,4.6270714,-7.224322,1.562277,2.8529785,-1.9680338,-13.273455,0.79008657
0.19137734,4.6196165,-7.224322,1.562277,2.8529785,-1.9680338,-13.273455,0.79008657
0.1940483,4.6121078,-7.07625,1.4227273,2.911568,-1.8962077,-13.034034,-0.062249243
0.1967417,4.604806,-7.07625,1.4227273,2.911568,-1.8962077,-13.034034,-0.062249243
0.19943957,4.5974517,-7.07625,1.4227273,2.911568,-1.7477672,-12.871228,-0.93373865
0.20211312,4.59027,-6.917526,1.2916999,2.9488523,-1.7477672,-12.871228,-0.93373865
0.20477267,4.583105,-6.917526,1.2916999,2.9488523,-1.7812861,-12.741941,-1.7142484
0.20743223,4.5760045,-6.7449527,1.1702597,2.9722881,-1.7812861,-12.741941,-1.7142484
0.21006986,4.568939,-6.7449527,1.1702597,2.9722881,-1.8339585,-12.607866,-2.4372973
0.2127679,4.5619707,-6.5574665,1.0594722,2.9786797,-1.8339585,-12.607866,-2.4372973
0.21543863,4.5550227,-6.5574665,1.0594722,2.9786797,-1.9057846,-12.641385,-3.1747115
0.2181519,4.548265,-6.354001,0.95933735,2.975484,-1.9057846,-12.641385,-3.1747115
0.2208464,4.5415087,-6.354001,0.95933735,2.975484,-1.9728222,-12.5982895,-3.8307228
0.22626942,4.5283775,-6.133491,0.865594,2.9584396,-1.9728222,-12.5982895,-3.8307228
0.22626942,4.5283775,-6.133491,0.865594,2.9584396,-1.9728222,-12.5982895,-3.8307228
0.23168078,4.5156393,-5.897002,0.77611184,2.9296775,-2.006341,-12.660539,-4.357447
0.23168078,4.5156393,-5.897002,0.77611184,2.9296775,-2.006341,-12.660539,-4.357447
0.23688968,4.5037026,-5.6477304,0.69089067,2.8913279,-2.0111294,-12.813767,-4.7070007
0.23948151,4.497943,-5.3867407,0.6152569,2.846587,-2.0638018,-13.000515,-4.984728
0.23948151,4.497943,-5.3867407,0.6152569,2.846587,-2.0638018,-13.000515,-4.984728
0.24462345,4.486644,-5.1150985,0.5502758,2.794389,-2.1643584,-13.297397,-5.21936
0.24715328,4.4811535,-5.1150985,0.5502758,2.794389,-2.1643584,-13.297397,-5.21936
0.24715328,4.4811535,-4.8338685,0.49488202,2.7379298,-2.3702598,-13.570335,-5.3965306
0.25213537,4.470707,-4.8338685,0.49488202,2.7379298,-2.3702598,-13.570335,-5.3965306
0.25213537,4.470707,-4.546247,0.4416188,2.6804056,-2.6048915,-13.8720045,-5.626374
0.25700405,4.460862,-4.546247,0.4416188,2.6804056,-2.6048915,-13.8720045,-5.626374
0.2594027,4.4562235,-4.2501035,0.39155138,2.6228814,-2.9257145,-14.207192,-5.7843914
0.2594027,4.4562235,-4.2501035,0.39155138,2.6228814,-2.9257145,-14.207192,-5.7843914
0.2641228,4.447276,-3.949699,0.34041867,2.5621612,-3.2225955,-14.5328045,-5.8466406
0.26643512,4.4429884,-3.949699,0.34041867,2.5621612,-3.2225955,-14.5328045,-5.8466406
0.2687275,4.4389753,-3.643968,0.2860902,2.500376,-3.5003228,-14.800955,-5.9184666
0.2687275,4.4389753,-3.643968,0.2860902,2.500376,-3.5003228,-14.800955,-5.9184666
0.27327088,4.431241,-3.3318455,0.22430485,2.43646,-3.7445314,-15.016433,-6.05733
0.27327088,4.431241,-3.3318455,0.22430485,2.43646,-3.7445314,-15.016433,-6.05733
0.27562645,4.4273524,-3.0122662,0.15506266,2.368283,-3.8067808,-15.1936035,-6.1004257
0.27771527,4.4241476,-3.0122662,0.15506266,2.368283,-3.8067808,-15.1936035,-6.1004257
0.2798678,4.4208336,-3.0122662,0.15506266,2.368283,-4.189853,-14.820108,-6.4020953
0.2820049,4.4178452,-2.689491,0.07836362,2.2947798,-4.189853,-14.820108,-6.4020953
0.28414786,4.414839,-2.689491,0.07836362,2.2947798,-4.0940847,-14.753071,-6.6367273
0.28624314,4.412172,-2.3677812,-0.0047270046,2.219146,-4.0940847,-14.753071,-6.6367273
0.2883302,4.4095073,-2.3677812,-0.0047270046,2.219146,-3.7110126,-15.471332,-6.215348
0.29032162,4.407205,-2.0492673,-0.10166607,2.1328597,-3.7110126,-15.471332,-6.215348
0.2923046,4.4049067,-1.7190351,-0.19434407,2.0348554,-3.490746,-15.969325,-5.9807158
0.29419154,4.402993,-1.7190351,-0.19434407,2.0348554,-3.490746,-15.969325,-5.9807158
0.29607168,4.4010835,-1.7190351,-0.19434407,2.0348554,-4.43885,-15.404294,-6.411672
0.29795322,4.399515,-1.3632369,-0.27849996,1.9283289,-4.43885,-15.404294,-6.411672
0.29982594,4.39795,-1.3632369,-0.27849996,1.9283289,-4.6686935,-14.432248,-6.823475
0.30165014,4.396784,-0.9946554,-0.3765043,1.807954,-4.6686935,-14.432248,-6.823475
0.30347264,4.3956156,-0.9946554,-0.3765043,1.807954,-4.6399627,-13.982138,-6.909666
0.30521256,4.3948584,-0.6303349,-0.4958139,1.6779917,-4.6399627,-13.982138,-6.909666
0.30695102,4.3941007,-0.6303349,-0.4958139,1.6779917,-4.367024,-13.867216,-6.9240313
0.3085873,4.393747,-0.2798629,-0.6247109,1.5384421,-4.367024,-13.867216,-6.9240313
0.31021926,4.3933935,0.06421751,-0.7631953,1.380783,-3.3758245,-14.475344,-6.349423
0.31168333,4.3934665,0.06421751,-0.7631953,1.380783,-3.3758245,-14.475344,-6.349423
0.31314364,4.3935404,0.06421751,-0.7631953,1.380783,-3.3806129,-14.580688,-6.1530986
0.31447345,4.3940177,0.40723267,-0.8771786,1.2092754,-3.3806129,-14.580688,-6.1530986
0.31579864,4.394495,0.7534436,-0.97731346,1.0228541,-3.7493198,-14.240712,-6.3111157
0.31700635,4.395356,0.7534436,-0.97731346,1.0228541,-3.7493198,-14.240712,-6.3111157
0.3182072,4.396215,0.7534436,-0.97731346,1.0228541,-4.074931,-13.948619,-6.5744777
0.31927907,4.397462,1.0943283,-1.072122,0.82364964,-4.074931,-13.948619,-6.5744777
0.3212399,4.4003325,1.4234949,-1.1690611,0.6148578,-3.9264908,-13.785813,-6.5936313
0.3212399,4.4003325,1.4234949,-1.1690611,0.6148578,-3.9264908,-13.785813,-6.5936313
0.32213286,4.4019613,1.7366827,-1.2660002,0.3996744,-3.6727054,-13.623008,-6.6893997
0.32284376,4.403959,1.7366827,-1.2660002,0.3996744,-3.6727054,-13.623008,-6.6893997
0.3235527,4.405957,1.7366827,-1.2660002,0.3996744,-3.3806129,-13.431472,-6.751649
0.324072,4.4083066,2.0349567,-1.3533518,0.18129519,-3.3806129,-13.431472,-6.751649
0.3245879,4.410652,2.0349567,-1.3533518,0.18129519,-3.5913026,-13.268666,-6.8043213
0.32492134,4.413332,2.3161867,-1.4257898,-0.041345086,-3.5913026,-13.268666,-6.8043213
0.32525104,4.416007,2.3161867,-1.4257898,-0.041345086,-3.8163576,-12.880805,-7.1059904
0.32540184,4.4189906,2.5856984,-1.4929014,-0.26078957,-3.8163576,-12.880805,-7.1059904
0.32554775,4.4219594,2.841362,-1.5621437,-0.47703823,-3.9121256,-12.320562,-7.326257
0.3255128,4.425239,2.841362,-1.5621437,-0.47703823,-3.9121256,-12.320562,-7.326257
0.32547244,4.4285417,2.841362,-1.5621437,-0.47703823,-3.7493198,-11.971008,-7.3071036
0.32524455,4.432106,3.083177,-1.6367122,-0.6879606,-3.7493198,-11.971008,-7.3071036
0.32501274,4.4356413,3.3090131,-1.712346,-0.8882303,-3.6296098,-11.899182,-7.153875
0.3245966,4.4394846,3.3090131,-1.712346,-0.8882303,-3.6296098,-11.899182,-7.153875
0.32417294,4.4433346,3.3090131,-1.712346,-0.8882303,-3.4955344,-11.81778,-7.153875
0.3235729,4.447417,3.5231311,-1.7805228,-1.0821085,-3.4955344,-11.81778,-7.153875
0.32296515,4.451497,3.7297926,-1.8423082,-1.2632034,-3.4620156,-11.836933,-7.120356
0.32218948,4.4558167,3.7297926,-1.8423082,-1.2632034,-3.4620156,-11.836933,-7.120356
0.32140785,4.4601207,3.7297926,-1.8423082,-1.2632034,-3.8355112,-11.899182,-6.9240313
0.3204724,4.4646807,3.9321928,-1.8955715,-1.43045,-3.8355112,-11.899182,-6.9240313
0.3195313,4.4692187,3.9321928,-1.8955715,-1.43045,-3.6822822,-11.8896055,-6.622362
0.31843913,4.4739866,4.1324625,-1.9445735,-1.5827827,-3.6822822,-11.8896055,-6.622362
0.3173371,4.4787498,4.1324625,-1.9445735,-1.5827827,-3.4093432,-11.870452,-6.4643445
0.31609485,4.483729,4.327406,-1.9903799,-1.7191366,-3.4093432,-11.870452,-6.4643445
0.3148432,4.488698,4.327406,-1.9903799,-1.7191366,-3.2561142,-11.841722,-6.2584434
0.31346703,4.493882,4.515958,-2.03086,-1.837381,-3.2561142,-11.841722,-6.2584434
0.31208533,4.49904,4.515958,-2.03086,-1.837381,-3.2992098,-11.789049,-6.1387334
0.31059125,4.5044236,4.7002482,-2.0617526,-1.9396464,-3.2992098,-11.789049,-6.1387334
0.30909124,4.509779,4.7002482,-2.0617526,-1.9396464,-3.4237084,-11.736377,-5.9759274
0.30750057,4.5153317,4.879213,-2.0894496,-2.0259328,-3.4237084,-11.736377,-5.9759274
0.30590394,4.520855,4.879213,-2.0894496,-2.0259328,-3.5290532,-11.650186,-5.81791
0.30422717,4.5265837,5.046459,-2.115016,-2.0930445,-3.5290532,-11.650186,-5.81791
0.30254418,4.532282,5.046459,-2.115016,-2.0930445,-3.4763808,-11.530476,-5.559336
0.30079585,4.538151,5.2019877,-2.1405823,-2.1463077,-3.4763808,-11.530476,-5.559336
0.29903764,4.5439997,5.2019877,-2.1405823,-2.1463077,-3.3758245,-11.425131,-5.2863975
0.29722878,4.550004,5.3426027,-2.1682792,-2.1825266,-3.3758245,-11.425131,-5.2863975
0.2954135,4.555976,5.3426027,-2.1682792,-2.1825266,-3.2130187,-11.33894,-5.0517654
0.29354656,4.5621123,5.4693694,-2.195976,-2.2091582,-3.2130187,-11.33894,-5.0517654
0.29167295,4.568216,5.4693694,-2.195976,-2.2091582,-3.2082303,-11.257536,-4.7884035
0.28977332,4.574441,5.584418,-2.2215424,-2.2230067,-3.2082303,-11.257536,-4.7884035
0.28786322,4.580644,5.584418,-2.2215424,-2.2230067,-3.098097,-11.228806,-4.4819455
0.28592655,4.586975,5.6888137,-2.2428477,-2.2262025,-3.098097,-11.228806,-4.4819455
0.28397915,4.593285,5.6888137,-2.2620225,-2.219811,-3.0119057,-11.080365,-4.1706996
0.28202564,4.59968,5.7836223,-2.2620225,-2.219811,-3.0119057,-11.080365,-4.1706996
0.2800536,4.6060786,5.7836223,-2.2620225,-2.219811,-2.9017725,-11.046846,-3.9312792
0.27807876,4.6125546,5.8720393,-2.2758708,-2.2070277,-2.9017725,-11.046846,-3.9312792
0.27609515,4.6190023,5.8720393,-2.2758708,-2.2070277,-2.777274,-10.879252,-3.7062242
0.27410066,4.6255665,5.95513,-2.288654,-2.188918,-2.777274,-10.879252,-3.7062242
0.27210927,4.6320634,6.028633,-2.2971761,-2.1665478,-2.5713725,-10.697293,-3.4811692
0.27010757,4.638666,6.028633,-2.2971761,-2.1665478,-2.5713725,-10.697293,-3.4811692
0.26807898,4.6452994,6.028633,-2.2971761,-2.1665478,-2.3558946,-10.486604,-3.2800562
0.26606065,4.6519666,6.095745,-2.304633,-2.143112,-2.3558946,-10.486604,-3.2800562
0.26404396,4.6585712,6.1543345,-2.3078287,-2.1239371,-2.183512,-10.271125,-2.9640217
0.26200294,4.6653013,6.1543345,-2.3078287,-2.1239371,-2.183512,-10.271125,-2.9640217
0.25978512,4.67255,6.1543345,-2.3078287,-2.1239371,-2.0733786,-9.921572,-2.6527755
0.25789908,4.6787615,6.205467,-2.3078287,-2.103697,-2.0733786,-9.921572,-2.6527755
0.2558481,4.6854615,6.205467,-2.3078287,-2.103697,-2.0733786,-9.921572,-2.6527755
0.25377205,4.692239,6.248078,-2.3025024,-2.0823917,-1.6328455,-9.639056,-2.3319526
0.25169694,4.6989584,6.248078,-2.3025024,-2.0823917,-1.6663644,-9.131485,-2.1404164
0.24962115,4.705724,6.2800355,-2.288654,-2.0653474,-1.6663644,-9.131485,-2.1404164
0.24752967,4.712487,6.2981453,-2.272675,-2.0493686,-1.4269443,-8.896853,-1.757344
0.24543399,4.7192326,6.2981453,-2.272675,-2.0493686,-1.4269443,-8.896853,-1.757344
0.24331486,4.726002,6.2981453,-2.272675,-2.0493686,-0.8379706,-8.480263,-1.364695
0.24116477,4.7327614,6.3034716,-2.2556307,-2.0376506,-0.8379706,-8.480263,-1.364695
0.23900262,4.7395105,6.2928185,-2.2300644,-2.0301938,-0.320823,-7.762002,-0.9959879
0.23681383,4.746228,6.260861,-2.1895845,-2.0248675,0.56982,-7.07726,-0.59376204
0.23356812,4.755973,6.260861,-2.1895845,-2.0248675,0.56982,-7.07726,-0.59376204
0.23221855,4.7599955,6.260861,-2.1895845,-2.0248675,0.56982,-7.07726,-0.59376204
0.22998871,4.766604,6.260861,-2.1895845,-2.0248675,0.56982,-7.07726,-0.59376204
0.22772583,4.7732134,6.1980104,-2.1256685,-2.018476,0.5506664,-6.363788,-0.50757074
0.22480541,4.7816787,6.1980104,-2.1256685,-2.018476,0.5506664,-6.363788,-0.50757074
0.22308728,4.786542,6.104267,-2.0542958,-2.0195413,1.2785037,-5.6407394,-0.2681506
0.22000682,4.7952013,6.104267,-2.0542958,-2.0195413,1.2785037,-5.6407394,-0.2681506
0.21832019,4.7998114,5.9743047,-1.978662,-2.0301938,2.4947581,-4.8027687,-0.033518825
0.2162625,4.8054066,5.9743047,-1.978662,-2.0301938,2.4947581,-4.8027687,-0.033518825
0.21157163,4.817683,5.8081236,-1.8774619,-2.0493686,3.145981,-3.9073372,0.17238252
0.21157163,4.817683,5.604658,-1.7474997,-2.0738697,3.2992098,-2.8395233,0.2825158
0.20917927,4.823658,5.604658,-1.7474997,-2.0738697,3.2992098,-2.8395233,0.2825158
0.2068013,4.829566,5.3607125,-1.6058195,-2.099436,3.289633,-1.7286136,0.36391866
0.20436388,4.8353252,5.3607125,-1.6058195,-2.099436,3.289633,-1.7286136,0.36391866
0.1996169,4.8461885,5.0752215,-1.4620088,-2.1292634,5.2480903,-1.9967642,1.5897499
0.19721775,4.8515043,5.0752215,-1.4620088,-2.1292634,5.2480903,-1.9967642,1.5897499
0.19721775,4.8515043,4.7652297,-1.2819791,-2.1463077,3.6774938,-2.767697,2.087744
0.19480221,4.8565307,4.7652297,-1.2819791,-2.1463077,3.6774938,-2.767697,2.087744
0.19241506,4.861482,4.459499,-1.1008841,-2.1590908,3.8738184,-2.3654714,2.1930888
0.19002278,4.866129,4.459499,-1.1008841,-2.1590908,3.8738184,-2.3654714,2.1930888
0.18762174,4.8707805,4.16229,-0.9442903,-2.171874,3.8498764,-1.4413095,2.1883004
0.18523528,4.875107,4.16229,-0.9442903,-2.171874,3.8498764,-1.4413095,2.1883004
0.18286742,4.8793907,3.8554938,-0.7866311,-2.1708088,4.261679,-0.9816227,2.5474305
0.18051942,4.88336,3.8554938,-0.7866311,-2.1708088,4.261679,-0.9816227,2.5474305
0.1781672,4.88733,3.5305882,-0.62790674,-2.1537645,4.1180267,-0.08619126,2.705448
0.17587063,4.8909445,3.5305882,-0.62790674,-2.1537645,4.1180267,-0.08619126,2.705448
0.17356601,4.8945675,3.5305882,-0.62790674,-2.1537645,4.4915223,0.038307227,3.4093432
0.17133829,4.897807,3.1854424,-0.4691823,-2.1186109,4.4915223,0.038307227,3.4093432
0.16910116,4.9010587,2.816861,-0.30406633,-2.0621517,3.892972,1.0342951,3.193865
0.16696496,4.9039083,2.816861,-0.30406633,-2.0621517,3.892972,1.0342951,3.193865
0.16483301,4.9067516,2.4291046,-0.1666472,-2.0046275,5.6886234,0.78529817,4.036624
0.16277228,4.909189,2.4291046,-0.1666472,-2.0046275,5.6886234,0.78529817,4.036624
0.16070989,4.9116297,2.0211084,-0.015379649,-1.9439074,6.2009826,1.3311762,4.213795
0.158743,4.9136333,2.0211084,-0.015379649,-1.9439074,6.2009826,1.3311762,4.213795
0.15677474,4.91564,1.592872,0.16784583,-1.877861,6.9383965,1.6280571,4.6112323
0.15490901,4.917191,1.592872,0.16784583,-1.877861,6.9383965,1.6280571,4.6112323
0.15304391,4.918743,1.1443957,0.3851598,-1.8064883,6.9719152,2.0685902,4.8985367
0.15129729,4.919818,1.1443957,0.3851598,-1.8064883,6.9719152,2.0685902,4.8985367
0.14955138,4.920894,0.6660919,0.63230115,-1.7202018,6.7803793,2.4947581,5.070919
0.14794537,4.92146,0.6660919,0.63230115,-1.7202018,6.7803793,2.4947581,5.070919
0.14633977,4.922028,0.15156919,0.8911604,-1.615806,6.3781533,2.7485435,5.21936
0.14489418,4.9220505,0.15156919,0.8911604,-1.615806,6.3781533,2.7485435,5.21936
0.14344856,4.9220743,-0.39917254,1.1500196,-1.4879742,5.995081,3.0071173,5.3438582
0.14218387,4.9215174,-0.39917254,1.1500196,-1.4879742,5.995081,3.0071173,5.3438582
0.14092094,4.9209633,-0.98719853,1.3960958,-1.3409678,5.8322754,2.9783869,5.4444146
0.13985129,4.9197936,-0.98719853,1.3960958,-1.3409678,5.8322754,2.9783869,5.4444146
0.13877968,4.918626,-1.6039866,1.6272582,-1.1790475,5.511452,2.7724855,5.6886234
0.1379133,4.916818,-1.6039866,1.6272582,-1.1790475,5.511452,2.7724855,5.6886234
0.13702364,4.914971,-2.237819,1.8435068,-1.0022136,5.094861,2.1164744,5.9807158
0.13638087,4.9125614,-2.237819,1.8435068,-1.0022136,5.094861,2.1164744,5.9807158
0.13572273,4.9101133,-2.8791082,2.0395155,-0.81259656,4.6399627,1.3934253,6.220136
0.13528188,4.9069977,-2.8791082,2.0395155,-0.81259656,4.6399627,1.3934253,6.220136
0.13483435,4.9038835,-3.514006,2.2174146,-0.61126155,4.175488,0.2777274,6.4404025
0.13461077,4.9001207,-3.514006,2.2174146,-0.61126155,4.175488,0.2777274,6.4404025
0.13437879,4.8963585,-4.1275983,2.3740084,-0.39714342,3.5817258,-0.89064306,6.7229185
0.13437806,4.8919716,-4.1275983,2.3740084,-0.39714342,3.5817258,-0.89064306,6.7229185
0.13436694,4.887585,-4.7049713,2.5135581,-0.1670463,2.8299465,-2.1260512,6.7708025
0.13459788,4.8826127,-4.7049713,2.5135581,-0.1670463,2.8299465,-2.1260512,6.7708025
0.13481699,4.8776293,-5.2365384,2.625411,0.071572945,2.504335,-3.289633,6.751649
0.13527542,4.872116,-5.2365384,2.625411,0.071572945,2.504335,-3.289633,6.751649
0.13571773,4.866629,-5.712712,2.710632,0.31445324,2.2840683,-4.4723687,6.50744
0.13639832,4.860626,-5.712712,2.710632,0.31445324,2.2840683,-4.4723687,6.50744
0.13706528,4.854603,-6.1313605,2.7724175,0.555203,1.8722657,-5.568913,6.301539
0.1379602,4.848181,-6.1313605,2.7724175,0.555203,1.8722657,-5.568913,6.301539
0.13883826,4.841755,-6.4935503,2.8075712,0.7884959,1.5945383,-6.5265937,5.8801594
0.13993104,4.834972,-6.4935503,2.8075712,0.7884959,1.5945383,-6.5265937,5.8801594
0.14100708,4.8281775,-6.8024774,2.819289,1.0153973,1.3551182,-7.431602,5.530606
0.14229015,4.821066,-6.8024774,2.819289,1.0153973,1.3551182,-7.431602,5.530606
0.14355336,4.8139563,-7.059206,2.815028,1.2380376,1.1061212,-8.307879,5.2002063
0.14501478,4.8065977,-7.059206,2.815028,1.2380376,1.1061212,-8.307879,5.2002063
0.14645839,4.7992253,-7.2669325,2.7969186,1.4500252,0.93373865,-8.944737,4.8937483
0.14808957,4.791646,-7.2669325,2.7969186,1.4500252,0.93373865,-8.944737,4.8937483
0.14970274,4.784052,-7.429918,2.7681563,1.6534907,0.79966336,-9.433155,4.6112323
0.15149105,4.776311,-7.429918,2.7681563,1.6534907,0.79966336,-9.433155,4.6112323
0.15326127,4.7685547,-7.5524235,2.7351332,1.8452382,0.5650316,-9.864111,4.309563
0.15520413,4.760661,-7.5524235,2.7351332,1.8452382,0.5650316,-9.864111,4.309563
0.15711904,4.7527914,-7.641906,2.7031753,2.029529,0.10534488,-10.170568,3.892972
0.15920351,4.7448163,-7.641906,2.7031753,2.029529,0.10534488,-10.170568,3.892972
0.16127165,4.7368174,-7.7058215,2.6690867,2.210624,-0.33039984,-10.328587,3.3518825
0.163494,4.728786,-7.7058215,2.6690867,2.210624,-0.33039984,-10.328587,3.3518825
0.16570453,4.7207136,-7.748432,2.629672,2.384262,-0.62249243,-10.5440645,2.7964275
0.16805843,4.71263,-7.748432,2.629672,2.384262,-0.62249243,-10.5440645,2.7964275
0.17039637,4.7045197,-7.772933,2.5838656,2.5493782,-0.79008657,-10.563218,2.2266076
0.17287587,4.696384,-7.772933,2.5838656,2.5493782,-0.79008657,-10.563218,2.2266076
0.17533465,4.6882377,-7.784651,2.5348635,2.7027762,-0.8762778,-10.577583,1.6711528
0.17792015,4.680077,-7.784651,2.5348635,2.7027762,-0.8762778,-10.577583,1.6711528
0.18048249,4.671913,-7.7878466,2.4826655,2.8412604,-0.8523358,-10.572795,1.1779473
0.18316764,4.6636925,-7.7878466,2.4826655,2.8412604,-0.8523358,-10.572795,1.1779473
0.18582194,4.6554933,-7.7878466,2.4826655,2.8412604,-0.8523358,-10.572795,1.1779473
0.18879598,4.6465735,-7.785716,2.4304676,2.96057,-0.8379706,-10.539276,0.6368576
0.19128795,4.639037,-7.7793245,2.3804002,3.064966,-0.89064306,-10.448297,0.22026655
0.19404474,4.6309156,-7.7793245,2.3804002,3.064966,-0.89064306,-10.448297,0.22026655
0.19680569,4.622718,-7.7708025,2.335659,3.153383,-0.8810662,-10.409989,-0.21547815
0.19962344,4.614485,-7.7708025,2.335659,3.153383,-0.8810662,-10.409989,-0.21547815
0.20242368,4.606243,-7.7580194,2.2919831,3.2236905,-1.0103531,-10.443508,-0.59376204
0.20526053,4.5979953,-7.7580194,2.2919831,3.2236905,-1.0103531,-10.443508,-0.59376204
0.20808053,4.58974,-7.736714,2.247242,3.2758884,-1.0295067,-10.453085,-1.0342951
0.21091332,4.5814705,-7.736714,2.247242,3.2758884,-1.0295067,-10.453085,-1.0342951
0.21372554,4.573204,-7.707952,2.2014356,3.3121073,-1.1971009,-10.596737,-1.3263878
0.21655816,4.5649204,-7.707952,2.2014356,3.3121073,-1.1971009,-10.596737,-1.3263878
0.21936688,4.556649,-7.668537,2.153499,3.330217,-1.2545617,-10.754754,-1.70946
0.22217178,4.5483823,-7.668537,2.153499,3.330217,-1.2545617,-10.754754,-1.70946
0.22495537,4.5401125,-7.615274,2.0991702,3.334478,-1.4221559,-10.936713,-1.982399
0.22773033,4.5318766,-7.615274,2.0991702,3.334478,-1.4221559,-10.936713,-1.982399
0.2305048,4.5235734,-7.615274,2.0991702,3.334478,-1.5179238,-11.190498,-2.303222
0.2332421,4.5153694,-7.5449667,2.037385,3.3216949,-1.5179238,-11.190498,-2.303222
0.23593946,4.507213,-7.4554844,1.9681427,3.2961285,-1.661576,-11.525687,-2.566584
0.23861471,4.499115,-7.4554844,1.9681427,3.2961285,-1.661576,-11.525687,-2.566584
0.24126925,4.4910073,-7.4554844,1.9681427,3.2961285,-1.661576,-11.525687,-2.566584
0.24390362,4.4829636,-7.3457623,1.892509,3.2631052,-1.8243817,-11.808203,-2.7629087
0.24650563,4.4749517,-7.3457623,1.892509,3.2631052,-1.9776106,-12.11466,-3.1172507
0.2490559,4.4671087,-7.212604,1.811549,3.2236905,-1.9776106,-12.11466,-3.1172507
0.25158373,4.459265,-7.212604,1.811549,3.2236905,-2.0590134,-12.373235,-3.3375173
0.25409216,4.451523,-7.0560102,1.7263278,3.1800146,-2.0590134,-12.373235,-3.3375173
0.2565674,4.4438186,-7.0560102,1.7263278,3.1800146,-2.0590134,-12.373235,-3.3375173
0.25900444,4.436275,-6.8759804,1.6389761,3.1267514,-2.2218192,-12.588713,-3.5913026
0.26141214,4.428762,-6.8759804,1.6389761,3.1267514,-2.3654714,-12.756307,-3.7972038
0.26377353,4.4214597,-6.6746454,1.5494938,3.0702925,-2.3654714,-12.756307,-3.7972038
0.26611933,4.414151,-6.4520054,1.4610769,3.0159638,-2.3942018,-12.885593,-4.074931
0.26842138,4.4070735,-6.4520054,1.4610769,3.0159638,-2.3942018,-12.885593,-4.074931
0.27070603,4.3999963,-6.4520054,1.4610769,3.0159638,-2.3942018,-12.885593,-4.074931
0.27299374,4.393025,-6.2144513,1.3726599,2.9573743,-2.4181437,-13.053187,-4.285621
0.27520514,4.386239,-5.9609184,1.2863735,2.8966544,-2.6910827,-12.847286,-4.596867
0.27738324,4.3796773,-5.9609184,1.2863735,2.8966544,-2.6910827,-12.847286,-4.596867
0.2795695,4.3730383,-5.9609184,1.2863735,2.8966544,-2.303222,-12.938266,-4.7548847
0.2816929,4.36674,-5.694602,1.2011523,2.8338037,-2.303222,-12.938266,-4.7548847
0.2838061,4.360428,-5.694602,1.2011523,2.8338037,-2.944868,-12.215217,-5.3007627
0.28592157,4.3543386,-5.4250903,1.1223228,2.7709532,-2.944868,-12.215217,-5.3007627
0.2880197,4.3482404,-5.4250903,1.1223228,2.7709532,-2.2026656,-13.412318,-4.7500963
0.29003388,4.3425303,-5.1577086,1.0402974,2.7038414,-2.2026656,-13.412318,-4.7500963
0.2920388,4.3368177,-5.1577086,1.0402974,2.7038414,-2.7341783,-13.9438305,-4.6255975
0.29401407,4.331432,-4.883936,0.9625331,2.6324687,-2.7341783,-13.9438305,-4.6255975
0.29598227,4.326041,-4.883936,0.9625331,2.6324687,-2.8682537,-14.044387,-4.8362875
0.29972267,4.3161073,-4.586727,0.8922257,2.5589654,-2.8682537,-14.044387,-4.8362875
0.30157074,4.3113523,-4.27567,0.81446135,2.4790707,-3.572149,-13.541605,-5.2480903
0.30157074,4.3113523,-4.27567,0.81446135,2.4790707,-3.572149,-13.541605,-5.2480903
0.3034907,4.3064017,-4.27567,0.81446135,2.4790707,-3.964798,-13.723564,-5.2241483
0.3053252,4.3020153,-3.9646127,0.732436,2.4055674,-3.964798,-13.723564,-5.2241483
0.3071501,4.297638,-3.9646127,0.732436,2.4055674,-3.9743748,-14.317327,-5.104438
0.30895773,4.2935996,-3.651425,0.6291053,2.3278031,-3.9743748,-14.317327,-5.104438
0.31076583,4.289544,-3.651425,0.6291053,2.3278031,-3.9743748,-14.317327,-5.104438
0.31254265,4.2858562,-3.325454,0.51192623,2.2457776,-3.9983168,-14.580688,-5.133168
0.31430635,4.2821817,-3.325454,0.51192623,2.2457776,-3.9983168,-14.580688,-5.133168
0.3160633,4.278888,-2.9866998,0.38942084,2.1594913,-4.453215,-14.824897,-5.2241483
0.31781593,4.27559,-2.9866998,0.38942084,2.1594913,-4.5154643,-15.030798,-5.2289367
0.3195372,4.2726994,-2.6319668,0.25413227,2.065748,-4.5154643,-15.030798,-5.2289367
0.32127023,4.2697783,-2.6319668,0.25413227,2.065748,-4.343082,-15.2367,-5.2385135
0.3229322,4.267321,-2.2612548,0.10392997,1.9560257,-4.343082,-15.2367,-5.2385135
0.32459837,4.264851,-2.2612548,0.10392997,1.9560257,-3.8642416,-15.480908,-5.243302
0.33414894,4.255109,-1.0266134,-0.34774217,1.5224631,-3.8067808,-15.069105,-5.583278
0.33414894,4.255109,-1.0266134,-0.34774217,1.5224631,-3.8067808,-15.069105,-5.583278
0.33414894,4.255109,-1.0266134,-0.34774217,1.5224631,-3.8067808,-15.069105,-5.583278
0.33414894,4.255109,-1.0266134,-0.34774217,1.5224631,-3.8067808,-15.069105,-5.583278
0.33414894,4.255109,-1.0266134,-0.34774217,1.5224631,-3.8067808,-15.069105,-5.583278
0.33414894,4.255109,-1.0266134,-0.34774217,1.5224631,-3.8067808,-15.069105,-5.583278
0.3351266,4.25469,-0.5866591,-0.48409602,1.3520209,-3.9552212,-14.494497,-6.0381765
0.3364746,4.2541122,-0.5866591,-0.48409602,1.3520209,-3.9552212,-14.494497,-6.0381765
0.33763224,4.25404,-0.1456396,-0.6215151,1.1698606,-3.9360676,-14.15452,-6.3063273
0.33953023,4.2539206,-0.1456396,-0.6215151,1.1698606,-3.9073372,-13.704411,-6.631939
0.3399807,4.254083,0.28792304,-0.76213,0.9813088,-3.9073372,-13.704411,-6.631939
0.3410949,4.254485,0.28792304,-0.76213,0.9813088,-3.9073372,-13.704411,-6.631939
0.34205532,4.255304,0.71189827,-0.9016797,0.7831696,-3.8163576,-13.144167,-6.9958572
0.34301755,4.2561245,0.71189827,-0.9016797,0.7831696,-3.8163576,-13.144167,-6.9958572
0.3445008,4.2583075,1.1188294,-1.0390987,0.5818346,-3.691859,-12.660539,-7.249643
0.3447663,4.258698,1.1188294,-1.0390987,0.5818346,-3.691859,-12.660539,-7.249643
0.346285,4.262148,1.5055203,-1.1722568,0.37623858,-3.7062242,-12.339716,-7.4746976
0.3469283,4.264323,1.8730365,-1.3011539,0.16957727,-3.6487634,-12.138602,-7.752425
0.3469283,4.264323,1.8730365,-1.3011539,0.16957727,-3.6487634,-12.138602,-7.752425
0.34758013,4.2665343,1.8730365,-1.3011539,0.16957727,-3.6487634,-12.138602,-7.752425
0.3484226,4.270837,2.2224433,-1.422594,-0.036018763,-3.572149,-11.990162,-7.896077
0.3485908,4.271699,2.555871,-1.531251,-0.23522322,-3.53863,-11.999739,-7.85777
0.34895906,4.2747,2.555871,-1.531251,-0.23522322,-3.53863,-11.999739,-7.85777
0.34932786,4.2777357,2.555871,-1.531251,-0.23522322,-3.53863,-11.999739,-7.85777
0.3495606,4.2811327,2.8765156,-1.623929,-0.4269708,-3.6008794,-11.951855,-8.058883
0.34978443,4.2844663,2.8765156,-1.623929,-0.4269708,-3.6008794,-11.951855,-8.058883
0.34987316,4.2882304,3.1854424,-1.7091501,-0.61445737,-3.5434184,-11.789049,-8.130709
0.3499552,4.2919497,3.481586,-1.7858492,-0.7934218,-3.5482068,-11.477803,-8.202535
0.34990516,4.2960367,3.481586,-1.7858492,-0.7934218,-3.5482068,-11.477803,-8.202535
0.34984753,4.300152,3.481586,-1.7858492,-0.7934218,-3.4715924,-11.228806,-8.279149
0.34965697,4.304554,3.7649462,-1.8550913,-0.9638641,-3.4715924,-11.228806,-8.279149
0.34945774,4.308964,3.7649462,-1.8550913,-0.9638641,-3.4955344,-10.931925,-8.408437
0.34913087,4.313695,4.0323277,-1.9158114,-1.1236538,-3.4955344,-10.931925,-8.408437
0.34879494,4.3184195,4.0323277,-1.9158114,-1.1236538,-3.3423057,-10.716447,-8.418014
0.34833056,4.3234177,4.28373,-1.9690746,-1.273856,-3.3423057,-10.716447,-8.418014
0.34785464,4.328423,4.515958,-2.0138159,-1.4155363,-3.2465374,-10.500969,-8.451532
0.34725454,4.3336816,4.515958,-2.0138159,-1.4155363,-3.2465374,-10.500969,-8.451532
0.34663886,4.3389688,4.515958,-2.0138159,-1.4155363,-3.1507695,-10.280702,-8.42759
0.34590676,4.3444557,4.72688,-2.0521653,-1.547629,-3.1507695,-10.280702,-8.42759
0.34515375,4.3499994,4.915432,-2.0819926,-1.6701344,-3.241749,-10.13705,-8.437167
0.3442688,4.355868,4.915432,-2.0819926,-1.6701344,-3.241749,-10.13705,-8.437167
0.34341097,4.361464,4.915432,-2.0819926,-1.6701344,-3.4620156,-9.945514,-8.413225
0.34244764,4.3672643,5.0837436,-2.1064937,-1.7819872,-3.4620156,-9.945514,-8.413225
0.34145626,4.373142,5.0837436,-2.1064937,-1.7819872,-3.4620156,-9.945514,-8.413225
0.34036928,4.379183,5.2286196,-2.1288643,-1.8799915,-3.5673606,-9.629479,-8.288726
0.33926722,4.3852186,5.2286196,-2.1288643,-1.8799915,-3.6966474,-9.639056,-7.9008656
0.33808106,4.3913765,5.3521905,-2.1491044,-1.9652127,-3.6966474,-9.639056,-7.9008656
0.33687449,4.397553,5.3521905,-2.1491044,-1.9652127,-3.3518825,-9.562442,-7.565677
0.33559304,4.4038095,5.455521,-2.1661487,-2.031259,-3.3518825,-9.562442,-7.565677
0.33428812,4.4100966,5.5439377,-2.1746707,-2.0845222,-2.8538885,-9.394848,-7.3071036
0.3329172,4.4164305,5.5439377,-2.1746707,-2.0845222,-2.8538885,-9.394848,-7.3071036
0.33151922,4.422808,5.5439377,-2.1746707,-2.0845222,-2.504335,-9.251195,-7.043741
0.33006084,4.429223,5.616376,-2.1693444,-2.1281981,-2.504335,-9.251195,-7.043741
0.32858637,4.43563,5.616376,-2.1693444,-2.1281981,-2.3750482,-9.054871,-6.8665705
0.32705542,4.442088,5.6717696,-2.1501696,-2.1612213,-2.3750482,-9.054871,-6.8665705
0.32551014,4.448531,5.6717696,-2.1501696,-2.1612213,-2.3511062,-8.825027,-6.670246
0.32391256,4.4550147,5.709054,-2.1171465,-2.1857224,-2.3511062,-8.825027,-6.670246
0.32230413,4.46147,5.709054,-2.1171465,-2.1857224,-2.3511062,-8.825027,-6.670246
0.32064915,4.4679465,5.730359,-2.0766664,-2.2006361,-2.2601264,-8.643068,-6.4404025
0.3189838,4.4743953,5.730359,-2.0766664,-2.2006361,-2.1212628,-8.432379,-6.133945
0.3172848,4.4808235,5.7314243,-2.0319252,-2.2059624,-2.1212628,-8.432379,-6.133945
0.3155744,4.487231,5.7314243,-2.0319252,-2.2059624,-1.8291701,-8.293514,-5.7748146
0.31382105,4.4936366,5.7143803,-1.9818578,-2.2048972,-1.8291701,-8.293514,-5.7748146
0.31205517,4.500027,5.7143803,-1.9818578,-2.2048972,-1.8291701,-8.293514,-5.7748146
0.3102731,4.5063443,5.6792264,-1.9232683,-2.192114,-1.6376339,-8.145074,-5.410896
0.30847922,4.5126467,5.6792264,-1.9232683,-2.192114,-1.4508862,-8.020576,-5.023035
0.30666962,4.5188823,5.6280937,-1.8572218,-2.1708088,-1.4508862,-8.020576,-5.023035
0.30485463,4.5250845,5.6280937,-1.8572218,-2.1708088,-1.1109096,-7.8290396,-4.55856
0.30302146,4.5312157,5.560982,-1.784784,-2.143112,-1.1109096,-7.8290396,-4.55856
0.3011748,4.537345,5.560982,-1.784784,-2.143112,-0.7422025,-7.565677,-4.084508
0.29932556,4.5433497,5.4778914,-1.7038238,-2.1090233,-0.7422025,-7.565677,-4.084508
0.29746747,4.5493402,5.4778914,-1.7038238,-2.1090233,-0.45968673,-7.273585,-3.7445314
0.295613,4.5552,5.3809524,-1.6100805,-2.0685434,-0.45968673,-7.273585,-3.7445314
0.2937469,4.561058,5.3809524,-1.6100805,-2.0685434,-0.29688102,-7.067683,-3.2752678
0.29188868,4.5667715,5.270165,-1.5088804,-2.0238023,-0.29688102,-7.067683,-3.2752678
0.2900199,4.5724835,5.270165,-1.5088804,-2.0238023,-0.16759412,-6.823475,-2.8634653
0.28816757,4.5780234,5.1433983,-1.4044845,-1.9769306,-0.16759412,-6.823475,-2.8634653
0.2863019,4.583573,5.0059795,-1.297958,-1.9257979,-0.076614454,-6.6271505,-2.3319526
0.28446338,4.5889187,5.0059795,-1.297958,-1.9257979,-0.076614454,-6.6271505,-2.3319526
0.28260347,4.5943003,5.0059795,-1.297958,-1.9257979,0.009576807,-6.483498,-1.8243817
0.28076187,4.599507,4.857908,-1.1967579,-1.8725346,0.009576807,-6.483498,-1.8243817
0.27891842,4.6046963,4.857908,-1.1967579,-1.8725346,0.1340753,-6.411672,-1.2306197
0.27709666,4.609716,4.6981177,-1.0966231,-1.8150104,0.1340753,-6.411672,-1.2306197
0.27527118,4.6147237,4.6981177,-1.0966231,-1.8150104,0.2873042,-6.3063273,-0.7326257
0.27348158,4.6195736,4.5319366,-0.99755347,-1.7532251,0.2873042,-6.3063273,-0.7326257
0.27168453,4.624422,4.5319366,-0.99755347,-1.7532251,0.47405192,-6.3446345,-0.2681506
0.26994765,4.629086,4.3604293,-0.9038102,-1.6893092,0.47405192,-6.3446345,-0.2681506
0.26820156,4.6337543,4.183595,-0.8132627,-1.620067,0.5746084,-6.253655,0.23463176
0.2665325,4.6382256,4.183595,-0.8132627,-1.620067,0.5746084,-6.253655,0.23463176
0.26485345,4.642706,4.183595,-0.8132627,-1.620067,0.7278373,-6.2728086,0.6560113
0.26324895,4.6469917,4.001435,-0.725911,-1.5465637,0.7278373,-6.2728086,0.6560113
0.26164976,4.6512485,4.001435,-0.725911,-1.5465637,0.7278373,-6.2728086,0.6560113
0.26011735,4.6553435,3.8171442,-0.6428204,-1.4730605,0.842759,-6.315904,1.2066777
0.258595,4.659398,3.8171442,-0.6428204,-1.4730605,0.9672575,-6.325481,1.5753847
0.25714406,4.663265,3.6296577,-0.56399083,-1.3952962,0.9672575,-6.325481,1.5753847
0.25569,4.6671295,3.6296577,-0.56399083,-1.3952962,1.0630256,-6.2009826,2.0494366
0.25431964,4.6707883,3.442171,-0.4904876,-1.3164667,1.0630256,-6.2009826,2.0494366
0.25294685,4.674445,3.442171,-0.4904876,-1.3164667,1.0630256,-6.2009826,2.0494366
0.2516557,4.677887,3.252554,-0.4180496,-1.2355065,1.3503298,-6.181829,2.4516625
0.25036383,4.6813235,3.252554,-0.4180496,-1.2355065,1.3503298,-6.181829,2.4516625
0.2491534,4.684554,3.0597413,-0.34561163,-1.1524159,1.4030021,-5.9280434,2.6862943
0.24794272,4.687781,3.0597413,-0.34561163,-1.1524159,1.4030021,-5.9280434,2.6862943
0.24681881,4.690783,2.861602,-0.27210838,-1.0693253,1.5227122,-5.813122,3.0262709
0.24569154,4.6937904,2.861602,-0.27210838,-1.0693253,2.0254946,-5.4779334,3.3662477
0.24464135,4.6965775,2.657071,-0.20393145,-0.9883652,2.0254946,-5.4779334,3.3662477
0.2435935,4.699355,2.4461489,-0.12829769,-0.90953565,2.2744915,-5.1762643,3.7014358
0.24262594,4.701901,2.4461489,-0.12829769,-0.90953565,2.2744915,-5.1762643,3.7014358
0.24165682,4.7044497,2.4461489,-0.12829769,-0.90953565,2.528277,-4.8362875,3.9791632
0.24076572,4.706753,2.2235086,-0.045207053,-0.83283657,2.528277,-4.8362875,3.9791632
0.23987257,4.70906,1.9891504,0.045340426,-0.75826806,2.6192567,-4.5872903,4.295198
0.2390615,4.7110996,1.9891504,0.045340426,-0.75826806,2.6192567,-4.5872903,4.295198
0.2382455,4.7131515,1.9891504,0.045340426,-0.75826806,2.5091233,-4.1802764,4.5202527
0.23751108,4.7149253,1.7430743,0.1390837,-0.68583006,2.5091233,-4.1802764,4.5202527
0.2367754,4.7167025,1.7430743,0.1390837,-0.68583006,2.681506,-3.9312792,4.8219223
0.23611243,4.7181964,1.484215,0.23069644,-0.6165879,2.681506,-3.9312792,4.8219223
0.23544766,4.7196946,1.484215,0.23069644,-0.6165879,2.1787236,-3.7014358,4.951209
0.2348663,4.7208967,1.2093768,0.32337445,-0.54201937,2.1787236,-3.7014358,4.951209
0.23428692,4.7220955,1.2093768,0.32337445,-0.54201937,2.336741,-3.7349546,5.2145715
0.23378243,4.722987,0.9206901,0.4085956,-0.46745086,2.336741,-3.7349546,5.2145715
0.2332783,4.723879,0.9206901,0.4085956,-0.46745086,2.6192567,-3.5529952,5.363012
0.2328449,4.724456,0.62348133,0.4842294,-0.39607814,2.6192567,-3.5529952,5.363012
0.23241399,4.7250295,0.62348133,0.4842294,-0.39607814,2.6240451,-3.4811692,5.463568
0.23206028,4.7252846,0.32094625,0.5641242,-0.31937912,2.6240451,-3.4811692,5.463568
0.2317074,4.725539,0.32094625,0.5641242,-0.31937912,2.408567,-3.3901896,5.530606
0.2314365,4.7254624,0.008823755,0.65041065,-0.24054953,2.408567,-3.3901896,5.530606
0.2311672,4.7253866,0.008823755,0.65041065,-0.24054953,2.2936451,-3.4811692,5.530606
0.23098062,4.7249727,-0.30969033,0.7303055,-0.15745892,2.2936451,-3.4811692,5.530606
0.23079492,4.7245617,-0.30969033,0.7303055,-0.15745892,2.2984335,-3.667917,5.5976434
0.23069847,4.7238092,-0.6324654,0.80274343,-0.0679767,2.2984335,-3.667917,5.5976434
0.2306014,4.7230577,-0.6324654,0.80274343,-0.0679767,2.27928,-3.98874,5.583278
0.23059487,4.721963,-0.9605669,0.8730509,0.023636047,2.27928,-3.98874,5.583278
0.23058748,4.720867,-0.9605669,0.8730509,0.023636047,2.183512,-4.3718123,5.5401826
0.23067757,4.719431,-1.2897336,0.94122785,0.12270564,2.183512,-4.3718123,5.5401826
0.23076917,4.71795,-1.2897336,0.94122785,0.12270564,2.183512,-4.3718123,5.5401826
0.23096254,4.7161493,-1.617835,1.0115353,0.2260363,1.9728222,-4.606444,5.391742
0.23114814,4.7144055,-1.617835,1.0115353,0.2260363,1.9728222,-4.606444,5.391742
0.2314414,4.712302,-1.9427407,1.0807775,0.33469325,1.6759412,-4.9416323,5.0374002
0.2317337,4.710189,-1.9427407,1.0807775,0.33469325,1.3838485,-5.2289367,4.7788267
0.23213938,4.707735,-2.2633853,1.1478891,0.44974184,1.3838485,-5.2289367,4.7788267
0.23255482,4.705204,-2.2633853,1.1478891,0.44974184,1.0151415,-5.521029,4.4675803
0.23306619,4.7024827,-2.5733774,1.207544,0.57118195,1.0151415,-5.521029,4.4675803
0.2335978,4.6996346,-2.5733774,1.207544,0.57118195,1.0151415,-5.521029,4.4675803
0.23423417,4.69656,-2.8705862,1.2565461,0.69794846,0.90021986,-5.8562174,4.209007
0.23485792,4.6935267,-3.1486201,1.2991567,0.828976,0.7661445,-6.3063273,3.9456444
0.23561656,4.6901493,-3.1486201,1.2991567,0.828976,0.7661445,-6.3063273,3.9456444
0.23637407,4.686756,-3.1486201,1.2991567,0.828976,0.6655881,-6.885724,3.8498764
0.23725247,4.683102,-3.4053488,1.3375062,0.95893824,0.6655881,-6.885724,3.8498764
0.23812614,4.679446,-3.4053488,1.3375062,0.95893824,0.37349546,-7.455544,3.8067808
0.239119,4.675552,-3.6375766,1.3715947,1.0835742,0.37349546,-7.455544,3.8067808
0.24011052,4.67164,-3.6375766,1.3715947,1.0835742,0.23942018,-7.8146744,3.4524388
0.24120831,4.66753,-3.8442378,1.4024874,1.2050143,0.23942018,-7.8146744,3.4524388
0.24120831,4.66753,-3.8442378,1.4024874,1.2050143,0.23942018,-7.8146744,3.4524388
0.24449049,4.655707,-4.0242677,1.429119,1.3232586,0.38307226,-8.09719,3.0933087
0.24480072,4.6545796,-4.0242677,1.429119,1.3232586,0.38307226,-8.09719,3.0933087
0.24611597,4.6499825,-4.1851225,1.4525548,1.4308504,0.30645782,-8.202535,2.633622
0.24740157,4.6454625,-4.3299985,1.4727948,1.5309852,0.22984336,-8.317456,2.15957
0.24875176,4.640855,-4.3299985,1.4727948,1.5309852,0.22984336,-8.317456,2.15957
0.25015074,4.636052,-4.3299985,1.4727948,1.5309852,0.22984336,-8.317456,2.15957
0.25015074,4.636052,-4.3299985,1.4727948,1.5309852,0.22984336,-8.317456,2.15957
0.25437522,4.6218514,-4.581401,1.5068833,1.6992971,0.2633622,-8.470686,1.436521
0.25585777,4.616887,-4.581401,1.5068833,1.6992971,0.2633622,-8.470686,1.436521
0.25585777,4.616887,-4.691123,1.5260581,1.7674739,0.22026655,-8.508993,1.0821792
0.25739354,4.6117873,-4.691123,1.5260581,1.7674739,0.22026655,-8.508993,1.0821792
0.2589472,4.606597,-4.691123,1.5260581,1.7674739,0.22026655,-8.508993,1.0821792
0.26049456,4.6014733,-4.792323,1.5473633,1.828194,-0.31124622,-8.413225,0.61770403
0.2635365,4.591341,-4.888197,1.5665381,1.8814572,-0.6943185,-8.604761,0.18674773
0.26519233,4.585804,-4.888197,1.5665381,1.8814572,-0.6943185,-8.604761,0.18674773
0.26519233,4.585804,-4.888197,1.5665381,1.8814572,-0.6943185,-8.604761,0.18674773
0.2681161,4.575834,-4.9787445,1.578256,1.9230026,-0.5650316,-8.595184,-0.24420857
0.2685053,4.5745006,-5.0618353,1.5889087,1.9613521,-0.56982,-8.552089,-0.80445176
0.26995718,4.569435,-5.0618353,1.5889087,1.9613521,-0.56982,-8.552089,-0.80445176
0.27152154,4.5639462,-5.1438603,1.6027571,1.9954406,-0.7326257,-8.623915,-1.2737153
0.27311796,4.5582604,-5.1438603,1.6027571,1.9954406,-0.7326257,-8.623915,-1.2737153
0.2747056,4.5525675,-5.2205596,1.6134098,2.0199416,-0.6464345,-8.815451,-1.6184803
0.27629828,4.5467887,-5.2205596,1.6134098,2.0199416,-0.6464345,-8.815451,-1.6184803
0.2778795,4.541008,-5.2940626,1.6198013,2.0369859,-0.6607997,-9.006987,-2.0350714
0.27947035,4.535122,-5.2940626,1.6198013,2.0369859,-0.6607997,-9.006987,-2.0350714
0.2810499,4.529228,-5.359044,1.630454,2.0476384,-0.842759,-9.217676,-2.3894134
0.2826271,4.5232706,-5.359044,1.630454,2.0476384,-0.842759,-9.217676,-2.3894134
0.28420752,4.5172453,-5.414438,1.6389761,2.052965,-1.0726024,-9.442732,-2.633622
0.28576803,4.5112166,-5.414438,1.6389761,2.052965,-1.0726024,-9.442732,-2.633622
0.28732,4.505161,-5.457048,1.6453676,2.0518997,-1.412579,-9.821015,-2.8921957
0.2888623,4.4990616,-5.457048,1.6453676,2.0518997,-1.412579,-9.821015,-2.8921957
0.29039943,4.492917,-5.457048,1.6453676,2.0518997,-1.6089035,-10.16578,-3.0933087
0.29192019,4.4867535,-5.4826145,1.6485634,2.0487037,-1.6089035,-10.16578,-3.0933087
0.29342008,4.480606,-5.4826145,1.6485634,2.0487037,-1.8339585,-10.515334,-3.3087866
0.2949189,4.474402,-5.4900713,1.6485634,2.045508,-1.8339585,-10.515334,-3.3087866
0.2963964,4.468214,-5.4900713,1.6485634,2.045508,-1.8339585,-10.515334,-3.3087866
0.29788455,4.461954,-5.4783535,1.6421719,2.0380511,-2.054225,-10.654198,-3.5865142
0.29932606,4.4558153,-5.4783535,1.6421719,2.0380511,-2.2840683,-10.845734,-3.9073372
0.30077496,4.4496503,-5.4474607,1.6293887,2.029529,-2.2840683,-10.845734,-3.9073372
0.30220935,4.4434705,-5.4474607,1.6293887,2.029529,-2.2840683,-10.845734,-3.9073372
0.30363703,4.4372687,-5.3984585,1.6048876,2.0199416,-2.2601264,-11.18571,-3.9983168
0.30501384,4.4312124,-5.3984585,1.6048876,2.0199416,-2.1978772,-11.731588,-3.9360676
0.30636996,4.425188,-5.3324122,1.5739949,2.0071585,-2.1978772,-11.731588,-3.9360676
0.3077105,4.4191637,-5.3324122,1.5739949,2.0071585,-2.4612393,-11.87524,-4.0940847
0.30904195,4.413224,-5.239734,1.542037,1.9954406,-2.4612393,-11.87524,-4.0940847
0.31035784,4.4072857,-5.239734,1.542037,1.9954406,-2.6240451,-11.980585,-4.280833
0.3116641,4.4014606,-5.124686,1.505818,1.981592,-2.6240451,-11.980585,-4.280833
0.31295466,4.3956366,-5.124686,1.505818,1.981592,-3.394978,-11.9135475,-4.6016555
0.3142781,4.3899126,-4.9904623,1.4589463,1.9656131,-3.394978,-11.9135475,-4.6016555
0.31558293,4.384188,-4.84026,1.397161,1.9443078,-3.0071173,-11.999739,-4.7405195
0.3168513,4.3786683,-4.84026,1.397161,1.9443078,-3.0071173,-11.999739,-4.7405195
0.318114,4.373104,-4.675144,1.3193967,1.9198067,-2.777274,-12.373235,-4.5058875
0.3193417,4.367793,-4.675144,1.3193967,1.9198067,-2.777274,-12.373235,-4.5058875
0.32055834,4.362485,-4.492984,1.248024,1.8942404,-2.834735,-12.516887,-4.5681367
0.3217654,4.3573847,-4.492984,1.248024,1.8942404,-2.834735,-12.516887,-4.5681367
0.32296324,4.3522863,-4.292714,1.1798471,1.8633478,-3.2561142,-12.430696,-4.745308
0.32414797,4.3473945,-4.292714,1.1798471,1.8633478,-3.2561142,-12.430696,-4.745308
0.32532442,4.3425016,-4.078596,1.1042132,1.8303245,-3.5194764,-12.464214,-4.855441
0.32648724,4.3378515,-4.078596,1.1042132,1.8303245,-3.5194764,-12.464214,-4.855441
0.32764763,4.3331842,-4.078596,1.1042132,1.8303245,-3.4811692,-12.612655,-4.9703627
0.3287879,4.3287945,-3.8570209,1.0179269,1.7898445,-3.4811692,-12.612655,-4.9703627
0.32992387,4.3244004,-3.8570209,1.0179269,1.7898445,-3.289633,-12.794614,-4.9176903
0.33104968,4.3202844,-3.6258585,0.92524886,1.7440381,-3.289633,-12.794614,-4.9176903
0.33217221,4.3161664,-3.6258585,0.92524886,1.7440381,-3.1316159,-12.943054,-4.8602295
0.3332784,4.312338,-3.386174,0.8315056,1.6907749,-3.1316159,-12.943054,-4.8602295
0.3343811,4.308509,-3.386174,0.8315056,1.6907749,-3.1890767,-13.077129,-4.8937483
0.33546528,4.30496,-3.1379673,0.7420234,1.6321853,-3.1890767,-13.077129,-4.8937483
0.3365468,4.3014097,-2.882304,0.65254116,1.5693347,-3.4380736,-13.172897,-5.0134583
0.3376023,4.298161,-2.882304,0.65254116,1.5693347,-3.4380736,-13.172897,-5.0134583
0.33881056,4.294433,-2.6181183,0.5556021,1.4990274,-3.6487634,-13.168109,-5.1906295
0.33968255,4.2919183,-2.6181183,0.5556021,1.4990274,-3.6487634,-13.168109,-5.1906295
0.34070054,4.288978,-2.3486066,0.44801039,1.4265894,-3.7828386,-13.2351465,-5.1906295
0.34170386,4.286349,-2.3486066,0.44801039,1.4265894,-3.7828386,-13.2351465,-5.1906295
0.3427074,4.2837167,-2.0705724,0.32976604,1.3520209,-3.7972038,-13.335704,-5.329493
0.3436852,4.281405,-2.0705724,0.32976604,1.3520209,-3.7972038,-13.335704,-5.329493
0.34466353,4.279091,-1.7850816,0.20299956,1.2742565,-3.763685,-13.393165,-5.391742
0.34561956,4.277114,-1.7850816,0.20299956,1.2742565,-3.763685,-13.393165,-5.391742
0.3465753,4.275136,-1.4910686,0.074102566,1.1911659,-3.7684734,-13.28782,-5.497087
0.3475022,4.2735014,-1.4910686,0.074102566,1.1911659,-3.7684734,-13.28782,-5.497087
0.3484318,4.2718616,-1.1885335,-0.054794434,1.1059448,-3.6966474,-13.31655,-5.4922986
0.34933668,4.2705812,-1.1885335,-0.054794434,1.1059448,-3.6966474,-13.31655,-5.4922986
0.3502416,4.2693014,-0.8785415,-0.18369143,1.0143319,-3.6535518,-13.2351465,-5.521029
0.3511157,4.268384,-0.8785415,-0.18369143,1.0143319,-3.6535518,-13.2351465,-5.521029
0.3519899,4.2674665,-0.5600275,-0.31045792,0.92058873,-3.6248214,-13.187263,-5.497087
0.35283414,4.266924,-0.5600275,-0.31045792,0.92058873,-3.6248214,-13.187263,-5.497087
0.3536785,4.2663813,-0.23618707,-0.43828964,0.82151914,-3.5913026,-13.101071,-5.530606
0.3544854,4.2662163,-0.23618707,-0.43828964,0.82151914,-3.5913026,-13.101071,-5.530606
0.35531622,4.266046,-0.23618707,-0.43828964,0.82151914,-3.5913026,-13.101071,-5.530606
0.35606802,4.2662582,0.09084912,-0.5650561,0.7149927,-3.6008794,-12.933477,-5.583278
0.35682985,4.2664733,0.09084912,-0.5650561,0.7149927,-3.6008794,-12.933477,-5.583278
0.3575423,4.2670636,0.42001584,-0.6918226,0.60313994,-3.5242648,-12.713211,-5.7269306
0.35824007,4.267642,0.74811727,-0.8175238,0.48489556,-3.4476504,-12.492945,-5.9519854
0.35888055,4.2685757,0.74811727,-0.8175238,0.48489556,-3.4476504,-12.492945,-5.9519854
0.35953087,4.269524,0.74811727,-0.8175238,0.48489556,-3.4380736,-12.224793,-6.2345014
0.36013123,4.270817,1.0719577,-0.9400292,0.3666512,-3.4380736,-12.224793,-6.2345014
0.36073536,4.2721186,1.3936676,-1.0604041,0.2441458,-3.3087866,-11.96622,-6.4260373
0.36128426,4.2737713,1.3936676,-1.0604041,0.2441458,-3.3087866,-11.96622,-6.4260373
0.3618348,4.2754307,1.3936676,-1.0604041,0.2441458,-3.3087866,-11.96622,-6.4260373
0.36232975,4.2774525,1.7079206,-1.1733221,0.11737932,-3.217807,-11.736377,-6.670246
0.3628277,4.27949,2.0157819,-1.2798486,-0.009387151,-3.2034419,-11.410766,-6.9383965
0.36326307,4.281857,2.0157819,-1.2798486,-0.009387151,-3.2034419,-11.410766,-6.9383965
0.3636967,4.2842236,2.3151214,-1.3810487,-0.14147994,-3.1747115,-11.080365,-7.2065473
0.36406285,4.286942,2.3151214,-1.3810487,-0.14147994,-3.1747115,-11.080365,-7.2065473
0.3644265,4.2896633,2.3151214,-1.3810487,-0.14147994,-3.0214825,-10.82658,-7.3789296
0.36471194,4.2927666,2.6070037,-1.4726614,-0.27250746,-3.0214825,-10.82658,-7.3789296
0.36499137,4.295846,2.6070037,-1.4726614,-0.27250746,-3.0214825,-10.82658,-7.3789296
0.3652008,4.2994757,2.8861032,-1.5504258,-0.39820868,-2.944868,-10.596737,-7.61835
0.36537793,4.302622,2.8861032,-1.5504258,-0.39820868,-2.944868,-10.596737,-7.61835
0.36547673,4.3062925,3.152419,-1.6132764,-0.52177936,-2.873042,-10.409989,-7.6949644
0.36557025,4.309967,3.152419,-1.6132764,-0.52177936,-2.873042,-10.409989,-7.6949644
0.36556554,4.3139477,3.4027562,-1.6612133,-0.6442848,-2.815581,-10.275913,-7.752425
0.36555448,4.3179245,3.4027562,-1.6612133,-0.6442848,-2.815581,-10.275913,-7.752425
0.36544582,4.322164,3.6381798,-1.6953017,-0.76039857,-2.873042,-10.175357,-7.776367
0.36533052,4.326386,3.6381798,-1.6953017,-0.76039857,-2.873042,-10.175357,-7.776367
0.36511382,4.330912,3.8576243,-1.7187375,-0.8701208,-2.954445,-10.204087,-7.747637
0.36489305,4.335365,3.8576243,-1.7187375,-0.8701208,-2.954445,-10.204087,-7.747637
0.36457485,4.3400726,4.0632205,-1.7315207,-0.97238624,-3.122039,-10.275913,-7.656657
0.36424932,4.344764,4.0632205,-1.7315207,-0.97238624,-3.2561142,-10.352529,-7.489063
0.36383274,4.3496575,4.257098,-1.736847,-1.0650642,-3.2561142,-10.352529,-7.489063
0.36340386,4.354588,4.257098,-1.736847,-1.0650642,-3.3997664,-10.472239,-7.369353
0.36289376,4.3596683,4.437128,-1.7379123,-1.1481549,-3.3997664,-10.472239,-7.369353
0.36237124,4.364776,4.437128,-1.7379123,-1.1481549,-3.4572272,-10.577583,-7.2783732
0.3617725,4.37004,4.6075706,-1.7336512,-1.2195276,-3.4572272,-10.577583,-7.2783732
0.3611628,4.3753114,4.6075706,-1.7336512,-1.2195276,-3.4380736,-10.630256,-7.2687964
0.36048496,4.3807254,4.7694907,-1.7261944,-1.2802477,-3.4380736,-10.630256,-7.2687964
0.35979444,4.3861575,4.7694907,-1.7261944,-1.2802477,-3.4380736,-10.630256,-7.2687964
0.3590486,4.391745,4.9207582,-1.716607,-1.3324456,-3.7493198,-10.5919485,-7.0724716
0.3582939,4.3973184,4.9207582,-1.716607,-1.3324456,-4.1946416,-10.649409,-6.6367273
0.35750008,4.4030213,5.064569,-1.7070196,-1.3739909,-4.1946416,-10.649409,-6.6367273
0.3566922,4.408743,5.064569,-1.7070196,-1.3739909,-4.0318356,-10.697293,-6.315904
0.35584235,4.41457,5.2009225,-1.6984975,-1.4016877,-4.0318356,-10.697293,-6.315904
0.35497642,4.4204283,5.2009225,-1.6984975,-1.4016877,-4.0318356,-10.697293,-6.315904
0.3540674,4.4263973,5.33195,-1.6899754,-1.4197973,-3.6008794,-10.658986,-6.0525417
0.35314754,4.4323626,5.33195,-1.6899754,-1.4197973,-3.4141316,-10.606314,-5.889736
0.3521975,4.4384284,5.4576516,-1.6771922,-1.4325805,-3.4141316,-10.606314,-5.889736
0.35123092,4.444526,5.4576516,-1.6771922,-1.4325805,-3.4524388,-10.529699,-5.659893
0.35024366,4.4506946,5.5748305,-1.6569521,-1.4442984,-3.4524388,-10.529699,-5.659893
0.34923956,4.456895,5.5748305,-1.6569521,-1.4442984,-3.4524388,-10.529699,-5.659893
0.34821877,4.463174,5.6845527,-1.6345816,-1.4538858,-3.5529952,-10.304645,-5.5258174
0.3471869,4.469448,5.6845527,-1.6345816,-1.4538858,-3.596091,-10.127473,-5.329493
0.34613723,4.4757905,5.7836223,-1.6132764,-1.4624078,-3.596091,-10.127473,-5.329493
0.34507012,4.4821663,5.7836223,-1.6132764,-1.4624078,-3.4763808,-10.022128,-5.0421886
0.34398764,4.488582,5.8720393,-1.5951668,-1.4656037,-3.4763808,-10.022128,-5.0421886
0.3428876,4.4950314,5.8720393,-1.5951668,-1.4656037,-3.2082303,-9.911995,-4.6926355
0.341766,4.501511,5.949804,-1.5791879,-1.4698647,-3.2082303,-9.911995,-4.6926355
0.34062678,4.508025,5.949804,-1.5791879,-1.4698647,-2.9783869,-9.940725,-4.3047748
0.3394624,4.5145564,6.014785,-1.5610784,-1.475191,-2.9783869,-9.940725,-4.3047748
0.33828095,4.521122,6.014785,-1.5610784,-1.475191,-2.9783869,-9.940725,-4.3047748
0.33207434,4.554252,6.141551,-1.4918362,-1.5018227,-2.7581203,-9.528923,-3.4380736
0.33207434,4.554252,6.141551,-1.4918362,-1.5018227,-2.7581203,-9.528923,-3.4380736
0.33207434,4.554252,6.141551,-1.4918362,-1.5018227,-2.7581203,-9.528923,-3.4380736
0.33207434,4.554252,6.141551,-1.4918362,-1.5018227,-2.7581203,-9.528923,-3.4380736
0.33078787,4.5608664,6.141551,-1.4918362,-1.5018227,-2.7581203,-9.528923,-3.4380736
0.33078787,4.5608664,6.141551,-1.4918362,-1.5018227,-2.7581203,-9.528923,-3.4380736
0.32936847,4.5679593,6.1617913,-1.4779878,-1.5156711,-2.5378537,-9.390059,-3.0502129
0.32812163,4.5741444,6.1617913,-1.4779878,-1.5156711,-2.5378537,-9.390059,-3.0502129
0.3266038,4.5814347,6.1703134,-1.4652046,-1.5316501,-2.2840683,-9.107543,-2.6240451
0.3252942,4.587684,6.1703134,-1.4652046,-1.5316501,-2.2840683,-9.107543,-2.6240451
0.32242316,4.6007614,6.1660523,-1.4524214,-1.5508248,-1.9393034,-8.887277,-2.1021092
0.32242316,4.6007614,6.1660523,-1.4524214,-1.5508248,-1.5370775,-8.585608,-1.7238252
0.32094085,4.6072283,6.1490083,-1.4343119,-1.5689343,-1.5370775,-8.585608,-1.7238252
0.3194307,4.613779,6.1490083,-1.4343119,-1.5689343,-1.5370775,-8.585608,-1.7238252
0.31785306,4.6203585,6.11705,-1.4087455,-1.5902396,-1.163582,-8.259995,-1.2976574
0.3159763,4.6281304,6.11705,-1.4087455,-1.5902396,-1.163582,-8.259995,-1.2976574
0.31463978,4.6334686,6.071244,-1.3725265,-1.615806,-0.6607997,-7.7332716,-0.9816227
0.312991,4.640013,6.071244,-1.3725265,-1.615806,-0.6607997,-7.7332716,-0.9816227
0.31129798,4.6464863,6.007328,-1.3277855,-1.6445681,-0.090979666,-7.1634517,-0.770933
0.30950257,4.653305,6.007328,-1.3277855,-1.6445681,-0.090979666,-7.1634517,-0.770933
0.307856,4.6593018,5.919976,-1.2713264,-1.6775913,0.4165911,-6.5026517,-0.5315128
0.30611742,4.665595,5.919976,-1.2713264,-1.6775913,0.90500826,-5.827487,-0.35913026
0.3043162,4.6717997,5.8070583,-1.2031496,-1.7180713,0.90500826,-5.827487,-0.35913026
0.30250692,4.677996,5.8070583,-1.2031496,-1.7180713,0.90500826,-5.827487,-0.35913026
0.30064812,4.684038,5.6664433,-1.1264504,-1.7628125,1.3599066,-5.161899,-0.01436521
0.29878733,4.690055,5.6664433,-1.1264504,-1.7628125,1.3599066,-5.161899,-0.01436521
0.29686806,4.695921,5.496001,-1.0401641,-1.8118147,1.685518,-4.4340615,0.4165911
0.29495347,4.7017455,5.496001,-1.0401641,-1.8118147,1.685518,-4.4340615,0.4165911
0.29298797,4.7073765,5.2967963,-0.94109446,-1.857621,1.8148049,-3.8019924,0.78050977
0.2910205,4.7129908,5.2967963,-0.94109446,-1.857621,1.8148049,-3.8019924,0.78050977
0.28901744,4.7183447,5.0666995,-0.83350277,-1.9023621,2.3080103,-3.265691,1.2497733
0.28700942,4.723694,5.0666995,-0.83350277,-1.9023621,2.3080103,-3.265691,1.2497733
0.28497306,4.728748,4.80571,-0.7152584,-1.9407116,2.542642,-2.7389667,1.6807296
0.28293487,4.7337923,4.80571,-0.7152584,-1.9407116,2.542642,-2.7389667,1.6807296
0.2808775,4.73851,4.5148926,-0.5810351,-1.9673432,2.8682537,-2.303222,2.1021092
0.2788173,4.743224,4.5148926,-0.5810351,-1.9673432,2.8682537,-2.303222,2.1021092
0.27675527,4.747574,4.195313,-0.4329633,-1.9801264,3.1794999,-1.9153614,2.566584
0.27469546,4.7519116,4.195313,-0.4329633,-1.9801264,3.1794999,-1.9153614,2.566584
0.27264246,4.7558684,3.8459063,-0.26891258,-1.9779959,3.5769374,-1.4748282,3.1316159
0.27053526,4.759925,3.8459063,-0.26891258,-1.9779959,3.9312792,-1.1540052,3.7062242
0.26655117,4.7668543,3.4634764,-0.08888289,-1.9609517,3.9312792,-1.1540052,3.7062242
0.26655117,4.7668543,3.4634764,-0.08888289,-1.9609517,3.9312792,-1.1540052,3.7062242
0.26455814,4.769931,3.0522842,0.10392997,-1.9311242,4.0701427,-0.7134721,4.156334
0.2607586,4.775419,2.608069,0.31059128,-1.8863832,4.1419687,-0.34955344,4.663905
0.2607586,4.775419,2.608069,0.31059128,-1.8863832,4.1419687,-0.34955344,4.663905
0.25879818,4.778035,2.1276348,0.531101,-1.8203367,3.7541082,-0.12449849,5.094861
0.25697917,4.7800446,2.1276348,0.531101,-1.8203367,3.7541082,-0.12449849,5.094861
0.25516853,4.782047,1.6152426,0.75161076,-1.7361808,3.9025488,0.0047884034,5.544971
0.25345123,4.783492,1.6152426,0.75161076,-1.7361808,3.9025488,0.0047884034,5.544971
0.2517265,4.784945,1.073023,0.9710552,-1.6328502,4.2042184,0.272939,5.841852
0.25013247,4.7857943,1.073023,0.9710552,-1.6328502,4.2042184,0.272939,5.841852
0.24853772,4.786646,0.5020412,1.195826,-1.5124753,4.31914,0.29209262,6.1243677
0.2470808,4.786874,0.5020412,1.195826,-1.5124753,4.31914,0.29209262,6.1243677
0.2456227,4.7871037,-0.093441635,1.4259231,-1.3729256,4.175488,0.33039984,6.3111157
0.24432537,4.786686,-0.093441635,1.4259231,-1.3729256,4.175488,0.33039984,6.3111157
0.24302614,4.7862706,-0.71022975,1.6528245,-1.2163317,3.821146,0.18674773,6.5026517
0.2419011,4.7851887,-0.71022975,1.6528245,-1.2163317,3.821146,0.18674773,6.5026517
0.24077417,4.78411,-1.3408663,1.8669426,-1.0501505,3.4093432,-0.16280572,6.631939
0.2398278,4.782355,-1.3408663,1.8669426,-1.0501505,3.4093432,-0.16280572,6.631939
0.23887804,4.7806025,-1.9789597,2.0608208,-0.87225133,3.0502129,-0.5410896,6.646304
0.23811685,4.7781744,-1.9789597,2.0608208,-0.87225133,3.0502129,-0.5410896,6.646304
0.23734985,4.7757463,-2.617053,2.2333937,-0.68156904,2.504335,-1.1827357,6.631939
0.23678009,4.772646,-2.617053,2.2333937,-0.68156904,2.504335,-1.1827357,6.631939
0.23620278,4.7695446,-3.244494,2.3857265,-0.47810352,1.9680338,-1.9057846,6.445191
0.23583168,4.7657933,-3.244494,2.3857265,-0.47810352,1.9680338,-1.9057846,6.445191
0.23545131,4.7620397,-3.849564,2.5156887,-0.26505062,1.4317327,-2.767697,6.4643445
0.23528238,4.7576566,-3.849564,2.5156887,-0.26505062,1.4317327,-2.767697,6.4643445
0.23510239,4.7532697,-4.4226766,2.622215,-0.041345086,0.89543146,-3.7972038,6.2488666
0.23513968,4.7482953,-4.4226766,2.622215,-0.041345086,0.89543146,-3.7972038,6.2488666
0.23516415,4.74332,-4.9521127,2.7085016,0.1866215,0.58897364,-4.960786,5.9902925
0.23540346,4.7378044,-4.9521127,2.7085016,0.1866215,0.58897364,-4.960786,5.9902925
0.23562856,4.732277,-5.4293513,2.771352,0.41884917,0.6512229,-6.133945,5.616797
0.23606272,4.7262874,-5.4293513,2.771352,0.41884917,0.6512229,-6.133945,5.616797
0.23648363,4.720254,-5.8490653,2.815028,0.65214205,0.5315128,-7.249643,5.161899
0.23711352,4.7138143,-5.8490653,2.815028,0.65214205,0.5315128,-7.249643,5.161899
0.237727,4.7073584,-6.209125,2.846986,0.8811739,0.110133275,-8.250419,4.687847
0.23854811,4.700547,-6.209125,2.846986,0.8811739,0.110133275,-8.250419,4.687847
0.23935264,4.6937113,-6.51166,2.8661606,1.1038142,-0.22026655,-9.074024,4.19943
0.24035506,4.6865854,-6.51166,2.8661606,1.1038142,-0.22026655,-9.074024,4.19943
0.24133836,4.679447,-6.757736,2.8714871,1.3168671,-0.45968673,-9.916783,3.8786068
0.24251029,4.6720634,-6.757736,2.8714871,1.3168671,-0.45968673,-9.916783,3.8786068
0.24366355,4.6646585,-6.953745,2.8618996,1.5235285,-0.56982,-10.606314,3.6727054
0.24627852,4.649643,-6.953745,2.8618996,1.5235285,-0.56982,-10.606314,3.6727054
0.24776919,4.6418867,-7.099686,2.8416595,1.7227329,-0.8283938,-11.099519,3.3135753
0.24776919,4.6418867,-7.099686,2.8416595,1.7227329,-0.8283938,-11.099519,3.3135753
0.24927683,4.6339135,-7.2008862,2.815028,1.9123499,-1.2162545,-11.563994,3.098097
0.25091475,4.6260524,-7.2008862,2.815028,1.9123499,-1.2162545,-11.563994,3.098097
0.2525234,4.6182146,-7.260541,2.7798743,2.0923796,-1.6663644,-11.956643,2.705448
0.2542999,4.6102915,-7.260541,2.7798743,2.0923796,-1.6663644,-11.956643,2.705448
0.25607076,4.602279,-7.285042,2.734068,2.262822,-2.006341,-12.239159,2.303222
0.25798124,4.594305,-7.285042,2.734068,2.262822,-2.006341,-12.239159,2.303222
0.2598664,4.586328,-7.2786503,2.6765437,2.4226117,-2.15957,-12.492945,1.7190368
0.2618929,4.57835,-7.2786503,2.6765437,2.4226117,-2.15957,-12.492945,1.7190368
0.26389602,4.570361,-7.244562,2.6062362,2.5674875,-2.135628,-12.684481,1.2689269
0.26602283,4.5624084,-7.244562,2.6062362,2.5674875,-2.135628,-12.684481,1.2689269
0.26812667,4.5544443,-7.185972,2.5274067,2.694254,-2.2505496,-12.813767,0.7134721
0.27034044,4.546543,-7.185972,2.5274067,2.694254,-2.2505496,-12.813767,0.7134721
0.27253157,4.5386305,-7.1007514,2.4389896,2.8007805,-2.360683,-12.923901,0.19632454
0.27480826,4.5308337,-7.1007514,2.4389896,2.8007805,-2.360683,-12.923901,0.19632454
0.2770766,4.5229774,-6.9888983,2.344181,2.8891973,-2.6671407,-12.794614,-0.2681506
0.27942175,4.515276,-6.9888983,2.344181,2.8891973,-2.6671407,-12.794614,-0.2681506
0.28174782,4.507554,-6.8546753,2.2397852,2.956309,-2.2697031,-13.096283,-0.51714754
0.28411943,4.4999743,-6.8546753,2.2397852,2.956309,-2.2697031,-13.096283,-0.51714754
0.28647098,4.492382,-6.6959505,2.134324,3.0095723,-2.8443117,-12.904747,-1.115698
0.2888799,4.4849825,-6.6959505,2.134324,3.0095723,-2.8443117,-12.904747,-1.115698
0.2912815,4.4775333,-6.5127254,2.0203407,3.047922,-3.1028855,-13.211205,-1.3694834
0.29372075,4.470316,-6.5127254,2.0203407,3.047922,-3.1028855,-13.211205,-1.3694834
0.296146,4.4630723,-6.3028684,1.8903785,3.0628355,-2.9017725,-13.503298,-1.5658079
0.29857972,4.4560733,-6.3028684,1.8903785,3.0628355,-2.9017725,-13.503298,-1.5658079
0.3009989,4.4490557,-6.067445,1.7572204,3.0670967,-2.992752,-13.603854,-1.7238252
0.30343407,4.4423146,-6.067445,1.7572204,3.0670967,-2.992752,-13.603854,-1.7238252
0.30586556,4.435528,-5.8085856,1.622997,3.0575092,-3.2848446,-13.723564,-2.006341
0.30830246,4.4290586,-5.8085856,1.622997,3.0575092,-3.2848446,-13.723564,-2.006341
0.31072688,4.4225717,-5.5316167,1.4823822,3.0319428,-3.145981,-14.264654,-2.1452048
0.313142,4.4163923,-5.5316167,1.4823822,3.0319428,-3.145981,-14.264654,-2.1452048
0.3155439,4.4102025,-5.238669,1.3428326,3.0031807,-3.8355112,-13.986926,-2.7820623
0.31795105,4.4043646,-5.238669,1.3428326,3.0031807,-3.8355112,-13.986926,-2.7820623
0.32036018,4.3984804,-4.9340034,1.191565,2.9669616,-3.53863,-14.465767,-2.9640217
0.32274178,4.3929534,-4.9340034,1.191565,2.9669616,-3.53863,-14.465767,-2.9640217
0.3251131,4.3874173,-4.6208158,1.0328406,2.9179597,-3.5003228,-15.20797,-2.7581203
0.32747498,4.3822565,-4.6208158,1.0328406,2.9179597,-3.5003228,-15.20797,-2.7581203
0.32984185,4.377055,-4.2863226,0.881573,2.8668268,-3.596091,-15.528792,-2.9496565
0.3344756,4.3675556,-4.2863226,0.881573,2.8668268,-3.596091,-15.528792,-2.9496565
0.33681095,4.363148,-3.9283936,0.73350126,2.8103678,-3.8977604,-15.442601,-3.1794999
0.33681095,4.363148,-3.9283936,0.73350126,2.8103678,-3.8977604,-15.442601,-3.1794999
0.3391997,4.3586183,-3.5534205,0.5854295,2.7453868,-4.43885,-15.346833,-3.3997664
0.3415229,4.3546357,-3.5534205,0.5854295,2.7453868,-4.43885,-15.346833,-3.3997664
0.34383294,4.3506584,-3.1656644,0.42563984,2.669753,-4.88896,-15.418659,-3.6248214
0.3461447,4.347111,-3.1656644,0.42563984,2.669753,-4.88896,-15.418659,-3.6248214
0.34846246,4.3435397,-2.7672553,0.2498712,2.5802708,-4.5777135,-15.32768,-3.8067808
0.3507276,4.340447,-2.7672553,0.2498712,2.5802708,-4.5777135,-15.32768,-3.8067808
0.35298884,4.3373485,-2.3656507,0.06877624,2.4780054,-4.309563,-15.543158,-3.6056678
0.3552107,4.3347225,-2.3656507,0.06877624,2.4780054,-4.309563,-15.543158,-3.6056678
0.35743418,4.3320866,-1.9565892,-0.1037966,2.359761,-4.405331,-15.342045,-3.8594532
0.35960445,4.3299346,-1.9565892,-0.1037966,2.359761,-4.405331,-15.342045,-3.8594532
0.36177248,4.327779,-1.5336791,-0.2742389,2.223407,-4.477157,-15.088259,-4.0940847
0.3638706,4.3261223,-1.5336791,-0.2742389,2.223407,-4.477157,-15.088259,-4.0940847
0.36596918,4.324462,-1.1054429,-0.44787702,2.0646827,-4.4675803,-14.81532,-4.4340615
0.36797303,4.3233075,-1.1054429,-0.44787702,2.0646827,-4.4675803,-14.81532,-4.4340615
0.3700158,4.322128,-0.6793371,-0.62364566,1.8825225,-4.213795,-14.561535,-4.644751
0.37186202,4.321488,-0.6793371,-0.62364566,1.8825225,-4.213795,-14.561535,-4.644751
0.3737451,4.3208337,-0.2596229,-0.79408795,1.6779917,-3.739743,-14.135366,-4.865018
0.37548253,4.3206697,-0.2596229,-0.79408795,1.6779917,-3.739743,-14.135366,-4.865018
0.3788493,4.320826,0.14624287,-0.9485513,1.4542862,-3.5817258,-13.599066,-5.0661306
0.3788493,4.320826,0.14624287,-0.9485513,1.4542862,-3.5817258,-13.599066,-5.0661306
0.38039824,4.3211317,0.14624287,-0.9485513,1.4542862,-3.514688,-13.120225,-5.425261
0.38177603,4.3218737,0.5350644,-1.0849051,1.2124711,-3.514688,-13.120225,-5.425261
0.3831564,4.3226175,0.9004501,-1.2052801,0.95467716,-3.514688,-12.650962,-5.626374
0.38435867,4.3237877,0.9004501,-1.2052801,0.95467716,-3.514688,-12.650962,-5.626374
0.38557005,4.3249674,1.2402694,-1.3139371,0.68623054,-3.7253778,-12.200851,-5.995081
0.3865918,4.32653,1.2402694,-1.3139371,0.68623054,-3.7253778,-12.200851,-5.995081
0.3879957,4.3298283,1.5502614,-1.4183329,0.4092618,-3.6822822,-11.693281,-6.3302693
0.3882532,4.330435,1.5502614,-1.4183329,0.4092618,-3.6822822,-11.693281,-6.3302693
0.3891003,4.3324337,1.5502614,-1.4183329,0.4092618,-3.6822822,-11.693281,-6.3302693
0.38974598,4.3348694,1.8314912,-1.5184678,0.13229302,-3.6583402,-11.415554,-6.483498
0.3902955,4.3369527,1.8314912,-1.5184678,0.13229302,-3.6583402,-11.415554,-6.483498
0.3906972,4.3397036,2.0871546,-1.6111459,-0.14467573,-3.514688,-11.128249,-6.6367273
0.39106905,4.3422737,2.0871546,-1.6111459,-0.14467573,-3.514688,-11.128249,-6.6367273
0.39106905,4.3422737,2.0871546,-1.6111459,-0.14467573,-3.514688,-11.128249,-6.6367273
0.39141712,4.3501296,2.5548058,-1.773066,-0.68156904,-3.2609026,-10.965444,-6.5984197
0.3913914,4.35115,2.5548058,-1.773066,-0.68156904,-3.2609026,-10.965444,-6.5984197
0.39130598,4.354393,2.7753155,-1.8433734,-0.93616724,-3.1316159,-10.955867,-6.5601125
0.39099878,4.3578997,2.7753155,-1.8433734,-0.93616724,-3.1316159,-10.955867,-6.5601125
0.39068273,4.3614364,2.7753155,-1.8433734,-0.93616724,-3.1411927,-10.965444,-6.4787097
0.39015046,4.3652344,2.99476,-1.9030282,-1.1811781,-3.1411927,-10.965444,-6.4787097
0.38961166,4.3690267,2.99476,-1.9030282,-1.1811781,-3.107674,-10.965444,-6.469133
0.3888639,4.3730917,3.2110088,-1.9552262,-1.4112751,-3.107674,-10.965444,-6.469133
0.38810897,4.3771486,3.2110088,-1.9552262,-1.4112751,-3.107674,-10.965444,-6.469133
0.3871561,4.38149,3.4304533,-2.0020978,-1.6211323,-3.193865,-11.118672,-6.3589997
0.38620487,4.3857794,3.6498976,-2.0436432,-1.8107493,-3.2992098,-11.15698,-6.38773
0.38507628,4.3903427,3.6498976,-2.0436432,-1.8107493,-3.2992098,-11.15698,-6.38773
0.38393554,4.39491,3.8682768,-2.0830579,-1.9758654,-3.5529952,-11.281479,-6.4978633
0.38265032,4.399708,3.8682768,-2.0830579,-1.9758654,-3.5529952,-11.281479,-6.4978633
0.38134655,4.4045277,4.0834603,-2.1224728,-2.1143496,-3.8067808,-11.429919,-6.540959
0.3799267,4.409551,4.0834603,-2.1224728,-2.1143496,-3.8067808,-11.429919,-6.540959
0.37848946,4.414587,4.0834603,-2.1224728,-2.1143496,-3.8067808,-11.429919,-6.540959
0.37693426,4.4198694,4.292252,-2.1608222,-2.2262025,-3.6774938,-11.492168,-6.4978633
0.37537456,4.4251165,4.4946523,-2.2013023,-2.3124888,-3.4955344,-11.468226,-6.5026517
0.37373236,4.430561,4.4946523,-2.2013023,-2.3124888,-3.4955344,-11.468226,-6.5026517
0.37206703,4.4360294,4.4946523,-2.2013023,-2.3124888,-3.490746,-11.286267,-6.4882865
0.37034413,4.441692,4.6864,-2.2332602,-2.3710785,-3.490746,-11.286267,-6.4882865
0.36861068,4.447333,4.8696256,-2.2588265,-2.4083626,-3.6104562,-11.085154,-6.50744
0.36683407,4.4531765,4.8696256,-2.2588265,-2.4083626,-3.6104562,-11.085154,-6.50744
0.36504447,4.4590044,5.0400677,-2.281197,-2.4307332,-3.6870706,-10.845734,-6.469133
