Pitch,Roll,Gyro_X,Gyro_Y,Gyro_Z,Accel_X,Accel_Y,Accel_Z
5.9659243,2.5242078,6.1145816,0.16520031,-0.9208757,-0.07220125,-17.004852,6.358917
5.9663024,2.53018,6.1944766,0.123655,-0.8750693,-0.025568962,-17.074827,5.7360516
5.966676,2.5361578,6.1944766,0.123655,-0.8750693,-0.022073746,-17.029613,5.768937
5.9670577,2.5422287,6.260523,0.08317495,-0.83778507,0.11078358,-17.069687,5.107751
5.967437,2.5483236,6.260523,0.08317495,-0.83778507,0.11432457,-17.02317,5.1407213
5.967822,2.554473,6.313786,0.045890696,-0.8047619,0.25679016,-16.928146,4.4841757
5.9682035,2.560628,6.313786,0.045890696,-0.8047619,0.26035976,-16.880749,4.516897
5.9685946,2.566831,6.345744,0.011802233,-0.7802608,0.6423073,-16.875887,3.7738848
5.968993,2.5732203,6.345744,0.011802233,-0.7802608,0.64603806,-16.826258,3.8072453
5.969379,2.5792713,6.3553314,-0.018025171,-0.7642818,1.3343868,-16.697659,3.0436993
5.9697685,2.5854468,6.3553314,-0.018025171,-0.7642818,1.3380356,-16.649294,3.075367
5.970175,2.591675,6.3436136,-0.043591518,-0.7600208,2.026577,-16.538078,2.2882223
5.970578,2.5979214,6.3436136,-0.043591518,-0.7600208,2.0303507,-16.488754,2.3196764
5.970997,2.6040964,6.302068,-0.06063575,-0.77813023,2.656767,-16.30576,1.5269117
5.971412,2.6102767,6.302068,-0.06063575,-0.77813023,2.660658,-16.256588,1.5574722
5.971849,2.6163821,6.2328258,-0.07022313,-0.813284,2.9137459,-16.131248,0.9409981
5.9722815,2.6224873,6.2328258,-0.07022313,-0.813284,2.9177952,-16.082325,0.97064495
5.9727354,2.6284847,6.1358867,-0.07341892,-0.86015564,3.1423159,-15.933573,0.44411373
5.973185,2.6344817,6.1358867,-0.07341892,-0.86015564,3.1465302,-15.885194,0.47273254
5.973661,2.6403456,6.0165772,-0.07554945,-0.91874516,3.1557798,-15.7420025,-0.007042408
5.9741325,2.646209,6.0165772,-0.07554945,-0.91874516,3.1601982,-15.694397,0.020460606
5.974623,2.6519113,5.8738317,-0.07128839,-0.9784,3.4281597,-15.643204,-0.0056381226
5.9751086,2.6576133,5.8738317,-0.07128839,-0.9784,3.4327135,-15.596632,0.020652771
5.975607,2.6631365,5.712977,-0.05530943,-1.0391201,2.9106598,-15.479582,-0.116862774
5.976099,2.6686537,5.712977,-0.05530943,-1.0391201,2.9152775,-15.434252,-0.09186125
5.976593,2.6739888,5.537208,-0.029743081,-1.0945138,2.3548794,-15.213135,-0.13491201
5.9770813,2.679318,5.537208,-0.029743081,-1.0945138,2.359459,-15.169088,-0.11120415
5.977566,2.6844327,5.3454604,-0.0073725274,-1.143516,2.3113308,-14.872931,0.10770702
5.9780455,2.6895528,5.3454604,-0.0073725274,-1.143516,2.315834,-14.830388,0.13007832
5.978514,2.6944487,5.1409297,0.017128555,-1.1871918,2.6314754,-14.660312,0.71153975
5.978977,2.6993449,5.1409297,0.017128555,-1.1871918,2.635828,-14.619411,0.73254776
5.9794197,2.7040098,4.927877,0.04908649,-1.2234108,2.8363075,-14.379229,1.3940225
5.9798574,2.7086744,4.927877,0.04908649,-1.2234108,2.840414,-14.34005,1.4136596
5.980267,2.7131023,4.710563,0.088501275,-1.2606951,2.9448214,-13.99152,2.188682
5.980672,2.7175303,4.710563,0.088501275,-1.2606951,2.9486208,-13.954142,2.2069592
5.9810476,2.721718,4.4911184,0.13004659,-1.3001099,2.9904566,-13.463807,3.0285277
5.981418,2.725906,4.4911184,0.13004659,-1.3001099,2.9939413,-13.428287,3.0454803
5.9817634,2.7298527,4.270609,0.16839612,-1.3437856,3.0307045,-12.724363,3.7747846
5.982104,2.7337992,4.270609,0.16839612,-1.3437856,3.0339003,-12.690741,3.7904692
5.9824243,2.7374983,4.0447726,0.20035404,-1.3906573,3.2954855,-11.974428,4.456279
5.9827394,2.7411976,4.0447726,0.20035404,-1.3906573,3.2984495,-11.942797,4.4707365
5.9830394,2.744643,3.812545,0.23018144,-1.44179,3.3156347,-11.1663,5.0012636
5.9833345,2.7480886,3.812545,0.23018144,-1.44179,3.318408,-11.136735,5.0145226
5.9836183,2.751265,3.566469,0.2589436,-1.5014448,3.3019214,-10.405558,5.3906097
5.983897,2.7544417,3.566469,0.2589436,-1.5014448,3.3045416,-10.378223,5.4026814
5.984173,2.7573352,3.304414,0.28237942,-1.5674912,3.1634855,-9.788284,5.7775755
5.984437,2.760148,3.304414,0.28237942,-1.5674912,3.165966,-9.764034,5.788167
5.984713,2.762741,3.027445,0.29942364,-1.6356682,2.756762,-9.191016,6.219331
5.984992,2.7653992,3.027445,0.29942364,-1.6356682,2.759385,-9.1680765,6.2293034
5.985279,2.7676785,2.736628,0.30581522,-1.7006493,2.2497244,-8.798877,6.6832504
5.9855604,2.7699466,2.736628,0.30581522,-1.7006493,2.2523742,-8.779302,6.6917763
5.9858665,2.7719026,2.4351583,0.30261943,-1.7656304,2.1020236,-8.46559,7.187684
5.9861703,2.7738686,2.4351583,0.30261943,-1.7656304,2.1048832,-8.448648,7.1951637
5.986504,2.7754986,2.128362,0.29303205,-1.8295463,1.6579113,-8.233564,7.6756153
5.9868374,2.7771437,2.128362,0.29303205,-1.8295463,1.6610494,-8.219448,7.682043
5.987197,2.7784357,1.81837,0.28131413,-1.88494,1.1999574,-8.160566,8.314616
5.9875565,2.7797375,1.81837,0.28131413,-1.88494,1.2033424,-8.149476,8.319927
5.987952,2.7807148,1.5094434,0.26533517,-1.9350075,0.62288475,-8.083811,9.047287
5.988346,2.7816918,1.5094434,0.26533517,-1.9350075,0.6265893,-8.075601,9.051582
5.9887714,2.78235,1.2037125,0.24829094,-1.973357,0.31456375,-7.964881,9.768375
5.9891953,2.7830079,1.2037125,0.24829094,-1.973357,0.31855297,-7.959505,9.771683
5.9896502,2.7833583,0.9043731,0.22805092,-1.9999886,0.107358456,-8.01433,10.348662
5.990104,2.7837093,0.9043731,0.22805092,-1.9999886,0.11163354,-8.011686,10.351033
5.9905853,2.7837622,0.6114254,0.20568037,-2.0170329,0.04913044,-7.9733925,10.812174
5.991067,2.7838159,0.6114254,0.20568037,-2.0170329,0.053668976,-7.9733953,10.81363
5.9915757,2.7835813,0.32380402,0.18117929,-2.025555,-0.013361216,-7.9472427,11.096719
5.9920874,2.7833467,0.32380402,0.18117929,-2.025555,-0.008542538,-7.9498196,11.0973015
5.9926515,2.782808,0.043639455,0.1534824,-2.0266201,0.054235697,-7.840209,11.269389
5.993186,2.7822995,0.043639455,0.1534824,-2.0266201,0.05927992,-7.8452287,11.2691145
5.9937363,2.7815433,-0.23439457,0.117263414,-2.0234244,0.22727227,-7.775832,11.301571
5.994305,2.7807648,-0.23439457,0.117263414,-2.0234244,0.23263574,-7.783266,11.300477
5.9949117,2.779715,-0.5092328,0.07784863,-2.0149024,0.29581904,-7.697362,11.288986
5.99552,2.7786665,-0.5092328,0.07784863,-2.0149024,0.30156064,-7.7072144,11.287069
5.996165,2.7773538,-0.7808752,0.036303315,-2.0010538,0.41299152,-7.6428194,11.375327
5.9968114,2.7760437,-0.7808752,0.036303315,-2.0010538,0.41909432,-7.655011,11.372595
5.9974976,2.774471,-1.0493219,-0.0073725274,-1.9808139,0.31543446,-7.6168795,11.4983425
5.9981823,2.7729096,-1.0493219,-0.0073725274,-1.9808139,0.32189965,-7.631318,11.494808
5.9988937,2.7711196,-1.3124422,-0.052113634,-1.9552475,0.31904292,-7.5137196,11.634188
5.9996295,2.7692785,-1.3124422,-0.052113634,-1.9552475,0.325994,-7.5306606,11.629765
6.0003886,2.7672188,-1.5702362,-0.09578948,-1.9243548,0.2613423,-7.5112324,11.758681
6.0011535,2.7651567,-1.5702362,-0.09578948,-1.9243548,0.2685666,-7.5301323,11.753492
6.001944,2.7628653,-1.8205733,-0.13626952,-1.8881358,0.30955982,-7.5510626,11.967786
6.002739,2.7605758,-1.8205733,-0.13626952,-1.8881358,0.31707287,-7.571971,11.961773
6.0035477,2.7580912,-2.0655842,-0.17674957,-1.8423295,0.4204893,-7.580226,12.237562
6.0043716,2.7555733,-2.0655842,-0.17674957,-1.8423295,0.42828536,-7.603138,12.230688
6.005229,2.7527995,-2.3010075,-0.21403383,-1.7933273,0.4747045,-7.7480245,12.519806
6.006062,2.7501206,-2.3010075,-0.21403383,-1.7933273,0.48258615,-7.7723246,12.512245
6.006943,2.747139,-2.524713,-0.2502528,-1.740064,0.5579655,-8.053091,12.853182
6.007824,2.744177,-2.524713,-0.2502528,-1.740064,0.5663028,-8.07987,12.844532
6.008715,2.7410462,-2.7345703,-0.2864718,-1.6857356,0.7519176,-8.462463,13.055485
6.0095944,2.7379766,-2.7345703,-0.2864718,-1.6857356,0.7602439,-8.490137,13.046254
6.010506,2.7346787,-2.9284484,-0.32482132,-1.6239502,0.83113074,-8.840629,13.409652
6.011435,2.731337,-2.9284484,-0.32482132,-1.6239502,0.83993554,-8.870673,13.399329
6.0123596,2.7279088,-3.104217,-0.36210558,-1.5610996,0.86306787,-9.207887,13.560934
6.0132957,2.7244587,-3.104217,-0.36210558,-1.5610996,0.8719413,-9.238811,13.549971
6.0142426,2.7208872,-3.2586803,-0.40045512,-1.498249,0.9288099,-9.543709,13.6821165
6.0151954,2.7173142,-3.2586803,-0.40045512,-1.498249,0.9378476,-9.575645,13.670485
6.016146,2.7136946,-3.3950343,-0.44093516,-1.4364637,1.0378509,-9.943136,13.658543
6.017136,2.709944,-3.3950343,-0.44093516,-1.4364637,1.047246,-9.976566,13.646036
6.0181546,2.7060468,-3.511148,-0.4814152,-1.3736131,1.1478963,-10.298558,13.527531
6.0191126,2.7023966,-3.511148,-0.4814152,-1.3736131,1.1569955,-10.331006,13.515081
6.020147,2.698431,-3.6059566,-0.52083,-1.3107625,1.2578042,-10.600836,13.434351
6.021126,2.6946943,-3.6059566,-0.52083,-1.3107625,1.267106,-10.633965,13.421326
6.022127,2.690862,-3.6869166,-0.5602448,-1.2500424,1.3197193,-10.92646,13.1923275
6.0231605,2.686922,-3.6869166,-0.5602448,-1.2500424,1.3295436,-10.961292,13.178307
6.0242004,2.6829607,-3.7508326,-0.59965956,-1.1893224,1.396898,-11.206958,12.915054
6.0252357,2.6790326,-3.7508326,-0.59965956,-1.1893224,1.4067426,-11.241591,12.900778
6.026288,2.6750546,-3.7998347,-0.64013964,-1.127537,1.5316763,-11.472937,12.613232
6.0273376,2.671098,-3.7998347,-0.64013964,-1.127537,1.5416698,-11.507721,12.598566
6.0283985,2.6671133,-3.8349884,-0.6774239,-1.0636212,1.6954207,-11.796489,12.349018
6.029455,2.6631544,-3.8349884,-0.6774239,-1.0636212,1.7054825,-11.83119,12.33404
6.0305223,2.6591613,-3.8594894,-0.7115123,-0.99757475,1.792264,-12.095984,12.084171
6.031583,2.655202,-3.8594894,-0.7115123,-0.99757475,1.8023729,-12.130587,12.068907
6.032651,2.6512182,-3.8744032,-0.74347025,-0.9304631,1.8891664,-12.471796,11.823544
6.0337176,2.6472478,-3.8744032,-0.74347025,-0.9304631,1.8993392,-12.506385,11.807947
6.034781,2.6433003,-3.877599,-0.7754282,-0.86228615,2.0004573,-12.837597,11.643843
6.0358415,2.63937,-3.877599,-0.7754282,-0.86228615,2.0105739,-12.871725,11.628107
6.036887,2.6354966,-3.8658812,-0.80419034,-0.78984815,2.106739,-13.135141,11.459227
6.037958,2.6315346,-3.8658812,-0.80419034,-0.78984815,2.1169643,-13.169425,11.443064
6.039004,2.6276658,-3.8413801,-0.8297567,-0.71634495,2.246657,-13.494942,11.226034
6.040046,2.6238136,-3.8413801,-0.8297567,-0.71634495,2.25661,-13.528158,11.210041
6.0410786,2.619999,-3.8019652,-0.85425776,-0.6407111,2.376606,-13.747743,11.098295
6.042106,2.616208,-3.8019652,-0.85425776,-0.6407111,2.3864226,-13.780321,11.082283
6.0431185,2.6124718,-3.7455063,-0.8755631,-0.56294686,2.573268,-14.070945,11.018486
6.0441275,2.6087513,-3.7455063,-0.8755631,-0.56294686,2.582912,-14.102804,11.002508
6.045114,2.605117,-3.6751988,-0.8936725,-0.4862478,2.6450176,-14.306256,10.958036
6.046111,2.6014433,-3.6751988,-0.8936725,-0.4862478,2.6545563,-14.337608,10.942017
6.0470624,2.5979514,-3.587847,-0.9096515,-0.40954876,2.6205578,-14.592412,10.874001
6.0480113,2.5944672,-3.587847,-0.9096515,-0.40954876,2.6296377,-14.622044,10.858566
6.0489397,2.591066,-3.4813206,-0.92136943,-0.32965392,2.7630205,-14.852037,10.852976
6.049876,2.5876307,-3.4813206,-0.92136943,-0.32965392,2.771986,-14.881147,10.8375435
6.050773,2.5843573,-3.3566847,-0.9320221,-0.24762857,2.8715525,-15.095594,10.726961
6.0516496,2.5811553,-3.3566847,-0.9320221,-0.24762857,2.8799486,-15.12265,10.712399
6.0525036,2.5780523,-3.217135,-0.9384137,-0.16666846,3.0221977,-15.340359,10.65988
6.0535326,2.5743048,-3.217135,-0.9384137,-0.16666846,3.032062,-15.371912,10.642595
6.0542483,2.5717034,-3.0605412,-0.9373484,-0.083577834,3.0724354,-15.580528,10.563484
6.055672,2.5665152,-3.0605412,-0.9373484,-0.083577834,3.0860825,-15.6240425,10.539209
6.0558662,2.5658062,-2.8900988,-0.9320221,0.004839113,3.0927353,-15.783213,10.4832
6.056612,2.5630784,-2.8900988,-0.9320221,0.004839113,3.0998826,-15.806028,10.47031
6.057303,2.560542,-2.7026124,-0.92349994,0.095386595,3.16397,-16.013958,10.300247
6.057303,2.560542,-2.7026124,-0.92349994,0.095386595,3.16397,-16.013958,10.300247
6.057303,2.560542,-2.7026124,-0.92349994,0.095386595,3.1805353,-16.066963,10.269747
6.0593915,2.5528352,-2.5012774,-0.9096515,0.1880646,3.0930243,-16.260086,10.201
6.059869,2.551034,-2.2882245,-0.89047676,0.28500366,2.9443712,-16.423464,10.230553
6.0604386,2.5488772,-2.2882245,-0.89047676,0.28500366,2.9498415,-16.44134,10.220049
6.060901,2.5470688,-2.060258,-0.8659757,0.3893996,2.9255528,-16.66219,10.292574
6.060901,2.5470688,-2.060258,-0.8659757,0.3893996,2.9255528,-16.66219,10.292574
6.06183,2.5434065,-1.815247,-0.8393441,0.5001871,2.9105253,-16.970137,10.489975
6.06183,2.5434065,-1.815247,-0.8393441,0.5001871,2.9105253,-16.970137,10.489975
6.06183,2.5434065,-1.553192,-0.8084514,0.61843145,2.9105253,-16.970137,10.489975
6.062747,2.5392978,-1.553192,-0.8084514,0.61843145,2.9145389,-17.300682,10.72311
6.0628858,2.5385673,-1.2762232,-0.7743629,0.73987156,2.9541826,-17.641819,10.910915
6.063081,2.5375366,-1.2762232,-0.7743629,0.73987156,2.9560542,-17.6502,10.905638
6.063172,2.536843,-0.9800797,-0.73707867,0.8602465,3.0431213,-17.91437,11.088766
6.063262,2.5361493,-0.9800797,-0.73707867,0.8602465,3.0439844,-17.919958,11.08514
6.0632486,2.53578,-0.6658267,-0.6976639,0.9848824,3.0103388,-18.123968,11.116606
6.0632353,2.5354176,-0.6658267,-0.6976639,0.9848824,3.0102124,-18.126818,11.114611
6.063118,2.535397,-0.33985576,-0.6571838,1.108453,2.8606453,-18.275276,11.133442
6.0630035,2.5353773,-0.33985576,-0.6571838,1.108453,2.8595433,-18.275293,11.133133
6.0627832,2.5357182,-0.003232182,-0.6209648,1.2298932,2.881372,-18.34415,11.125021
6.062568,2.5360532,-0.003232182,-0.6209648,1.2298932,2.8793054,-18.341244,11.126472
6.0622616,2.5367413,0.3365872,-0.5868764,1.3470724,2.7566528,-18.412052,10.995613
6.0619555,2.5374312,0.3365872,-0.5868764,1.3470724,2.7537127,-18.406227,10.998842
6.0615554,2.5384884,0.6785371,-0.5527879,1.4599904,2.7259302,-18.569763,10.946428
6.061159,2.539541,0.6785371,-0.5527879,1.4599904,2.722125,-18.560955,10.951452
6.060677,2.540955,1.020487,-0.5197647,1.5654515,2.6121545,-18.668884,10.857712
6.060205,2.5423474,1.020487,-0.5197647,1.5654515,2.6076255,-18.657272,10.864405
6.0593143,2.5451517,1.3581758,-0.48354575,1.6634558,2.6613274,-18.75365,10.791756
6.0590577,2.5459633,1.3581758,-0.48354575,1.6634558,2.658867,-18.746891,10.795662
6.058429,2.5480568,1.6873425,-0.4462615,1.748677,2.585794,-18.916227,10.662121
6.0578146,2.5501142,1.6873425,-0.4462615,1.748677,2.5799026,-18.899105,10.672016
6.057119,2.5525448,2.0047913,-0.40791196,1.8200498,2.6546326,-19.099152,10.501764
6.056423,2.5549922,2.0047913,-0.40791196,1.8200498,2.6479616,-19.078773,10.5135
6.055655,2.5578005,2.309457,-0.3684972,1.8765087,2.6693296,-19.26129,10.225277
6.0548987,2.560586,2.309457,-0.3684972,1.8765087,2.6620798,-19.238066,10.238565
6.054107,2.5636027,2.6013393,-0.32695186,1.9191194,2.6497078,-19.390083,9.941671
6.053317,2.5666363,2.6013393,-0.32695186,1.9191194,2.6421347,-19.364742,9.9560375
6.0524745,2.5699847,2.8772428,-0.28753707,1.9489467,2.6915216,-19.418167,9.780296
6.051641,2.5733218,2.8772428,-0.28753707,1.9489467,2.6835442,-19.390247,9.795971
6.050767,2.5769198,3.1371675,-0.24066544,1.9649258,2.3016748,-19.360111,9.491974
6.0498986,2.580524,3.1371675,-0.24066544,1.9649258,2.2933588,-19.329876,9.508717
6.048996,2.5843687,3.3800478,-0.19485907,1.9681215,2.3230247,-19.469963,9.435509
6.0481005,2.588216,3.3800478,-0.19485907,1.9681215,2.3144598,-19.437601,9.453192
6.0471754,2.592287,3.6080143,-0.14798744,1.9617299,2.3726463,-19.566114,9.4813595
6.0462503,2.5963933,3.6080143,-0.14798744,1.9617299,2.3637934,-19.53146,9.499979
6.0453043,2.600648,3.8210673,-0.090463154,1.9468162,2.1105394,-19.47155,9.270138
6.044361,2.6049268,3.8210673,-0.090463154,1.9468162,2.1015167,-19.435299,9.289238
6.0433903,2.60938,4.0181413,-0.030808344,1.9233804,1.7331085,-19.301752,9.275465
6.042414,2.6138942,4.0181413,-0.030808344,1.9233804,1.7237778,-19.263367,9.2953
6.041446,2.6184175,4.199236,0.0277812,1.8903573,1.618763,-19.124287,9.276705
6.040464,2.6230457,4.199236,0.0277812,1.8903573,1.6093779,-19.084778,9.296694
6.039455,2.6278415,4.3611565,0.08530548,1.8498771,1.6619921,-18.857018,9.365103
6.0384483,2.6326642,4.3611565,0.08530548,1.8498771,1.652379,-18.81569,9.385548
6.037386,2.6377888,4.504967,0.14389503,1.800875,1.7427931,-18.522676,9.45014
6.0364075,2.6425467,4.504967,0.14389503,1.800875,1.7334538,-18.481737,9.469915
6.035374,2.6475782,4.6285377,0.20674562,1.7433507,1.5512133,-18.146252,9.5241165
6.034354,2.652583,4.6285377,0.20674562,1.7433507,1.5414848,-18.103,9.54446
6.033309,2.6577127,4.7329335,0.26853096,1.6794349,1.3208303,-17.761694,9.68959
6.032273,2.6628356,4.7329335,0.26853096,1.6794349,1.310956,-17.71724,9.709961
6.031223,2.6680346,4.81922,0.3271205,1.6091274,0.9992771,-17.269794,9.778273
6.0301814,2.6732264,4.81922,0.3271205,1.6091274,0.9893551,-17.22455,9.798435
6.0291348,2.6784663,4.883136,0.37931848,1.5324284,0.6058893,-16.786146,9.880793
6.0280943,2.683709,4.883136,0.37931848,1.5324284,0.59598064,-16.740276,9.900671
6.027056,2.6889706,4.9225507,0.42299432,1.454664,0.1503563,-16.157848,9.934742
6.0260243,2.6942348,4.9225507,0.42299432,1.454664,0.1405325,-16.111609,9.95421
6.0250006,2.6995008,4.9385295,0.45814803,1.377965,-0.4390316,-15.476299,9.997393
6.023984,2.704759,4.9385295,0.45814803,1.377965,-0.448699,-15.429946,10.016359
6.0229807,2.709995,4.923616,0.48264912,1.3065922,-0.93707895,-14.856981,10.073315
6.021985,2.7152233,4.923616,0.48264912,1.3065922,-0.94654894,-14.810723,10.091685
6.0210085,2.7203982,4.8810053,0.49756283,1.2384154,-1.2958035,-14.300393,10.071347
6.020037,2.725576,4.8810053,0.49756283,1.2384154,-1.3050318,-14.254435,10.08908
6.019091,2.7306724,4.8128285,0.50288916,1.1787605,-1.6204801,-13.577052,10.029698
6.0181494,2.7357712,4.8128285,0.50288916,1.1787605,-1.6294246,-13.531644,10.046703
6.017239,2.740767,4.719085,0.49862808,1.1244321,-1.949316,-12.629964,9.704021
6.0163326,2.745765,4.719085,0.49862808,1.1244321,-1.9579191,-12.585325,9.72027
6.015464,2.7506366,4.594449,0.48158386,1.0754299,-1.9278598,-11.555343,9.386342
6.0146008,2.7555006,4.594449,0.48158386,1.0754299,-1.9360495,-11.511784,9.401751
6.013783,2.7602115,4.43679,0.4506912,1.0328193,-1.6948094,-10.430461,8.669512
6.012969,2.7649245,4.43679,0.4506912,1.0328193,-1.7025285,-10.388142,8.684058
6.0122085,2.7694407,4.238651,0.40488482,0.9880782,-0.8047309,-9.409027,7.970025
6.0114517,2.7739587,4.238651,0.40488482,0.9880782,-0.81190634,-9.368374,7.9836483
6.0107594,2.7782326,3.9957707,0.35055634,0.9326845,-0.05711174,-8.707397,7.278157
6.0100703,2.7825077,3.9957707,0.35055634,0.9326845,-0.06364298,-8.668852,7.290766
6.009459,2.7864888,3.7038882,0.288771,0.8687686,0.2609663,-8.225931,6.5985317
6.0088506,2.790471,3.7038882,0.288771,0.8687686,0.2552042,-8.189975,6.610052
6.0083337,2.7941177,3.3715255,0.21739827,0.7995264,0.3173461,-7.845804,5.988517
6.007824,2.7977328,3.3715255,0.21739827,0.7995264,0.31251812,-7.8131313,5.9988317
6.0074143,2.801013,3.0040095,0.13324238,0.7249579,0.3230071,-7.5009913,5.419248
6.0070043,2.8043199,3.0040095,0.13324238,0.7249579,0.3191204,-7.4710984,5.4286194
6.0067124,2.807195,2.6056004,0.040564373,0.6461283,0.24932241,-7.086012,4.8813934
6.006424,2.8100562,2.6056004,0.040564373,0.6461283,0.24659109,-7.06016,4.8895097
6.006259,2.8125029,2.1816251,-0.059570484,0.5651682,0.019974232,-6.693347,4.561418
6.006094,2.8149643,2.1816251,-0.059570484,0.5651682,0.018415451,-6.6711454,4.5684953
6.006055,2.8169587,1.7384752,-0.16183588,0.48953444,-0.19264746,-6.389867,4.5696483
6.0060163,2.818955,1.7384752,-0.16183588,0.48953444,-0.19301128,-6.3719206,4.5755606
6.006099,2.820485,1.2836072,-0.26303598,0.42242277,-0.41728306,-6.377407,4.8628707
6.0061827,2.8220167,1.2836072,-0.26303598,0.42242277,-0.41649246,-6.363719,4.867647
6.006379,2.82308,0.82660884,-0.36104032,0.36276796,-0.5151906,-6.435731,5.330992
6.006575,2.8241413,0.82660884,-0.36104032,0.36276796,-0.5133312,-6.426356,5.3346353
6.0068736,2.8247366,0.3749367,-0.45584887,0.31483108,-0.34770203,-6.59842,6.017104
6.0071716,2.8253305,0.3749367,-0.45584887,0.31483108,-0.34488153,-6.593325,6.019615
6.0075703,2.8254733,-0.0596912,-0.5463963,0.27115524,-0.3075881,-6.9419274,6.882964
6.007969,2.825616,-0.0596912,-0.5463963,0.27115524,-0.30381203,-6.9409766,6.8843985
6.0084624,2.825335,-0.46662223,-0.63374805,0.23493624,-0.12196684,-7.3557158,7.8041973
6.008956,2.8250544,-0.46662223,-0.63374805,0.23493624,-0.11729288,-7.3586516,7.80462
6.009541,2.8243876,-0.8415953,-0.7179039,0.20617409,-0.12611723,-7.6811714,8.685193
6.0101256,2.8237207,-0.8415953,-0.7179039,0.20617409,-0.12057686,-7.68766,8.684702
6.0107994,2.8227067,-1.1803493,-0.8009946,0.18273827,-0.19080448,-7.9894376,9.612342
6.011473,2.8216927,-1.1803493,-0.8009946,0.18273827,-0.1844225,-7.9991217,9.611014
6.012235,2.8203712,-1.4839498,-0.8862157,0.17102037,-0.35436726,-8.370775,10.523556
6.0129952,2.819052,-1.4839498,-0.8862157,0.17102037,-0.34716082,-8.383274,10.521497
6.0138397,2.8174691,-1.7481353,-0.9725021,0.17208563,-0.48759055,-8.7477665,11.471718
6.0146837,2.815886,-1.7481353,-0.9725021,0.17208563,-0.4795854,-8.762702,11.469017
6.015609,2.814085,-1.9707756,-1.060919,0.18699934,-0.56657505,-9.095696,12.490535
6.0165315,2.8122873,-1.9707756,-1.060919,0.18699934,-0.5578213,-9.112618,12.4873
6.0175285,2.8103151,-2.1540012,-1.1482707,0.21256568,-0.44300866,-9.413683,13.388679
6.0185246,2.8083427,-2.1540012,-1.1482707,0.21256568,-0.43354893,-9.432226,13.385
6.019591,2.8062449,-2.2935507,-1.2356224,0.24878468,-0.33244133,-9.753618,14.262112
6.0206556,2.8041468,-2.2935507,-1.2356224,0.24878468,-0.32232356,-9.7733345,14.258102
6.021783,2.8019648,-2.3904898,-1.3165826,0.2924605,-0.18711281,-10.11467,15.331308
6.0229063,2.7997868,-2.3904898,-1.3165826,0.2924605,-0.17643285,-10.135145,15.327091
6.024084,2.7975721,-2.4426877,-1.3922163,0.34252796,-0.15565324,-10.515109,16.050648
6.0252604,2.7953572,-2.4426877,-1.3922163,0.34252796,-0.14446402,-10.535937,16.0463
6.0264807,2.7931485,-2.455471,-1.4614586,0.39898697,0.06347346,-11.054733,16.812952
6.0276995,2.7909393,-2.455471,-1.4614586,0.39898697,0.07507324,-11.075529,16.808592
6.028954,2.788781,-2.4245782,-1.5243092,0.46183756,0.21630478,-11.737545,17.575378
6.0301676,2.786689,-2.4245782,-1.5243092,0.46183756,0.22786474,-11.757274,17.571281
6.031418,2.7845297,-2.4245782,-1.5243092,0.46183756,0.239779,-11.777631,17.566992
6.0327463,2.7823641,-2.3521404,-1.5711807,0.5332103,0.36736012,-12.564243,18.257116
6.0340304,2.7804139,-2.2360265,-1.6052692,0.60884404,0.738739,-13.698444,18.995687
6.0352783,2.7785149,-2.2360265,-1.6052692,0.60884404,0.75064087,-13.716457,18.992102
6.036524,2.7767866,-2.0709105,-1.6265745,0.68980414,1.2317896,-15.030591,19.69293
6.0377774,2.7750435,-2.0709105,-1.6265745,0.68980414,1.2437506,-15.047196,19.689785
6.0390096,2.7735317,-1.8525313,-1.6308355,0.769699,1.6050658,-16.699356,20.30026
6.040232,2.772028,-1.8525313,-1.6308355,0.769699,1.6167383,-16.713795,20.29778
6.041418,2.7708113,-1.5744972,-1.6159219,0.84852856,1.810029,-18.42553,20.626598
6.042595,2.7696009,-1.5744972,-1.6159219,0.84852856,1.8212729,-18.43731,20.62497
6.043722,2.768737,-1.2357432,-1.5850292,0.9220318,2.138504,-19.992607,20.777645
6.044846,2.7678735,-1.2357432,-1.5850292,0.9220318,2.14925,-20.001259,20.777084
6.0459027,2.7674227,-0.83413845,-1.5392228,0.9827519,2.4945421,-21.433111,20.538368
6.046955,2.7669716,-0.83413845,-1.5392228,0.9827519,2.504611,-21.43801,20.539047
6.0479336,2.7669835,-0.37607473,-1.4721111,1.0338845,2.6528387,-22.63583,20.124592
6.0489044,2.7669935,-0.37607473,-1.4721111,1.0338845,2.6621256,-22.636553,20.126698
6.0497866,2.7675214,0.13844799,-1.3836942,1.0701035,2.689725,-23.791374,19.364265
6.051054,2.7682757,0.13844799,-1.3836942,1.0701035,2.7018614,-23.785702,19.369585
6.051604,2.7690382,0.70090765,-1.2824941,1.0892783,2.7550097,-24.976463,18.58811
6.052313,2.7700198,0.70090765,-1.2824941,1.0892783,2.7618046,-24.968283,18.593012
6.0529995,2.7717354,1.3070431,-1.165315,1.0946046,3.1131468,-25.844166,17.709766
6.0537434,2.773586,1.3070431,-1.165315,1.0946046,3.1202717,-25.828226,17.7177
6.054553,2.7769384,1.9483323,-1.032157,1.0882131,2.888609,-26.435738,16.605639
6.0547986,2.7779496,1.9483323,-1.032157,1.0882131,2.8909588,-26.426872,16.609587
6.0555587,2.7831511,2.615188,-0.8862157,1.0722342,3.6404514,-26.90277,15.752514
6.055685,2.7840095,2.615188,-0.8862157,1.0722342,3.6416588,-26.895157,15.75565
6.0559916,2.7878528,3.2980223,-0.7157734,1.0487983,3.0747852,-27.43068,14.576815
6.0564837,2.7938926,3.2980223,-0.7157734,1.0487983,3.079502,-27.37667,14.597725
6.056525,2.7951548,3.9861832,-0.53361315,1.0157751,2.9266682,-27.556854,13.620314
6.0566573,2.7991176,3.9861832,-0.53361315,1.0157751,2.9279346,-27.521189,13.633419
6.056653,2.807735,4.669018,-0.35677928,0.9731645,2.9757786,-27.385777,12.7653885
6.0566535,2.8090036,4.669018,-0.35677928,0.9731645,3.1847248,-27.091349,12.086443
6.056472,2.815895,5.3337426,-0.17781484,0.9262929,3.1847248,-27.091349,12.086443
6.056472,2.815895,5.3337426,-0.17781484,0.9262929,3.1847248,-27.091349,12.086443
6.056181,2.8260994,5.9729013,0.009671704,0.87942123,3.0813885,-26.710995,11.613895
6.0558796,2.8324337,5.9729013,0.009671704,0.87942123,3.078497,-26.653004,11.63192
6.0552073,2.8424816,6.576906,0.19928877,0.8293538,2.9762821,-26.03872,11.29063
6.0550113,2.8454392,6.576906,0.19928877,0.8293538,2.9744053,-26.01149,11.298531
6.0542912,2.8541846,7.143627,0.38144898,0.77396005,2.8765259,-25.41839,11.096043
6.0538077,2.8601046,7.143627,0.38144898,0.77396005,2.8718872,-25.36363,11.110918
6.0530367,2.8681984,7.670933,0.5550871,0.7217621,2.7878895,-24.728336,11.068258
6.0523047,2.8759255,7.670933,0.5550871,0.7217621,2.780878,-24.65655,11.086386
6.0514274,2.884177,8.155628,0.71913785,0.67169464,2.647974,-24.096066,11.143215
6.0505457,2.8925056,8.155628,0.71913785,0.67169464,2.639532,-24.018353,11.1612625
6.0495343,2.9012349,8.599844,0.8725359,0.6216272,2.3473377,-23.275915,11.17928
6.048526,2.9099755,8.599844,0.8725359,0.6216272,2.3376846,-23.194035,11.196603
6.047393,2.919109,9.000383,1.0152813,0.57049453,1.9964409,-22.528893,11.003055
6.046263,2.928246,9.000383,1.0152813,0.57049453,1.9856281,-22.442986,11.0194025
6.045023,2.9377174,9.350855,1.1441784,0.5151008,1.3704357,-21.472715,10.77679
6.0437846,2.947202,9.350855,1.1441784,0.5151008,1.3585911,-21.383257,10.791894
6.042453,2.9569538,9.642737,1.2549659,0.45544598,0.9675827,-20.266413,10.4472685
6.0410995,2.966885,9.642737,1.2549659,0.45544598,0.9546509,-20.172482,10.461091
6.039721,2.9766912,9.868573,1.3433828,0.3862038,0.35250664,-18.930397,10.109782
6.038284,2.9869304,9.868573,1.3433828,0.3862038,0.33878136,-18.833332,10.121961
6.03687,2.9967935,10.021972,1.4104944,0.30417842,-0.7042179,-17.485184,9.740016
6.035438,3.006792,10.021972,1.4104944,0.30417842,-0.71787643,-17.390238,9.749901
6.0339932,3.0168958,10.021972,1.4104944,0.30417842,-0.7316599,-17.294224,9.758893
6.032522,3.0270715,10.101867,1.4509745,0.21576148,-1.6746359,-15.488016,9.355118
6.031051,3.0372515,10.101867,1.4509745,0.21576148,-1.6886511,-15.391184,9.362134
6.0295873,3.047427,10.103997,1.4573661,0.1220182,-2.4926872,-13.168308,8.606794
6.0281243,3.0575962,10.103997,1.4573661,0.1220182,-2.5066166,-13.071523,8.611807
6.0267076,3.06765,10.01345,1.428604,0.027209666,-3.4203258,-10.797109,7.6246424
6.0252886,3.077718,10.01345,1.428604,0.027209666,-3.4338312,-10.701281,7.627692
6.023955,3.0875823,9.8195715,1.3582965,-0.071859926,-3.5997472,-8.352069,6.1454635
6.02262,3.0974503,9.8195715,1.3582965,-0.071859926,-3.6124396,-8.25818,6.1467023
6.0214195,3.106979,9.514906,1.2453785,-0.17412531,-3.365279,-6.012767,4.576618
6.020209,3.1165774,9.514906,1.2453785,-0.17412531,-3.376784,-5.9214983,4.576253
6.0191703,3.125711,9.089866,1.0994372,-0.28384754,-2.8120413,-3.7852542,3.1005375
6.0181313,3.1348372,9.089866,1.0994372,-0.28384754,-2.82191,-3.6985495,3.0988426
6.0172973,3.143387,8.550841,0.9236686,-0.4052877,-2.2600067,-1.9797297,1.7178321
6.0164623,3.1519368,8.550841,0.9236686,-0.4052877,-2.2679358,-1.8985806,1.7151804
6.015858,3.1597466,7.9116826,0.72979045,-0.5437721,-1.8953867,-0.45979047,0.53939486
6.015251,3.1675522,7.9116826,0.72979045,-0.5437721,-1.9011459,-0.38577044,0.53618217
6.014829,3.174482,7.1851726,0.5252597,-0.6993007,-1.5460203,0.86744535,-0.20426604
6.0144,3.1814084,7.1851726,0.5252597,-0.6993007,-1.5500903,0.9330733,-0.20777383
6.014121,3.1874359,6.393681,0.3154026,-0.8729388,-1.1409333,2.0723476,-0.6945759
6.0138354,3.1934688,6.393681,0.3154026,-0.8729388,-1.1436453,2.129469,-0.69812036
6.013704,3.1985977,5.5531874,0.10767604,-1.0625559,-0.5990157,3.322453,-1.1943183
6.013566,3.2037315,5.5531874,0.10767604,-1.0625559,-0.60032344,3.371038,-1.1975753
6.013582,3.207937,4.674344,-0.092593685,-1.2670866,0.1707635,4.368525,-1.5352831
6.0135927,3.2121968,4.674344,-0.092593685,-1.2670866,0.17086601,4.408835,-1.5380213
6.0137444,3.2153609,3.767804,-0.27688444,-1.4875964,1.0294285,5.4060545,-1.7504815
6.013893,3.2185671,3.767804,-0.27688444,-1.4875964,1.030839,5.436408,-1.7523816
6.0141697,3.2207959,2.8378282,-0.43454358,-1.7219546,1.550611,6.3003006,-1.7724597
6.0144424,3.2230227,2.8378282,-0.43454358,-1.7219546,1.5531969,6.3214154,-1.7734463
6.014824,3.2242358,1.8940039,-0.56344056,-1.9669654,1.4802036,6.9554577,-1.931413
6.0152035,3.225451,1.8940039,-0.56344056,-1.9669654,1.4838018,6.967031,-1.9313893
6.015662,3.2256553,0.9469837,-0.6742281,-2.2119763,2.091496,7.409597,-1.6478407
6.016121,3.225861,0.9469837,-0.6742281,-2.2119763,2.0958486,7.4116416,-1.6468166
6.0166435,3.225058,0.0031594047,-0.7573187,-2.4516606,1.9619446,7.5142937,-1.209082
6.0171676,3.2242575,0.0031594047,-0.7573187,-2.4516606,1.9669199,7.506832,-1.2071016
6.0177383,3.2224612,-0.9278817,-0.81377774,-2.681758,1.5270147,7.5905123,-0.6966686
6.018313,3.2206688,-0.9278817,-0.81377774,-2.681758,1.532475,7.5736623,-0.693832
6.018924,3.2179153,-1.8365523,-0.8595841,-2.8937454,1.1743588,7.327447,0.11421788
6.0195446,3.2151587,-1.8365523,-0.8595841,-2.8937454,1.1802535,7.3014526,0.11776221
6.020207,3.2114823,-2.7121997,-0.907521,-3.0801668,0.95191383,6.8549347,1.0509124
6.0208807,3.207809,-2.7121997,-0.907521,-3.0801668,0.9583168,6.8202257,1.0550056
6.0216036,3.2032633,-3.5484324,-0.9607842,-3.2367606,0.9843416,6.173888,2.1178403
6.0223413,3.198721,-3.5484324,-0.9607842,-3.2367606,0.99135494,6.1308966,2.1222734
6.023134,3.1933749,-4.3377934,-1.0140474,-3.359266,0.7977822,5.3571997,3.3864005
6.023953,3.1879845,-4.3377934,-1.0140474,-3.359266,0.80556726,5.306101,3.3909783
6.024849,3.1817179,-5.078152,-1.0630496,-3.444487,0.44059515,4.4326158,4.6407976
6.0258045,3.17469,-5.7641826,-1.1099212,-3.492424,0.52630174,3.2406054,6.225813
6.0267034,3.1682508,-5.7641826,-1.1099212,-3.492424,0.5348542,3.1794176,6.229884
6.027669,3.1614983,-5.7641826,-1.1099212,-3.492424,0.54404855,3.1152136,6.2337933
6.028695,3.154134,-6.3884273,-1.1525319,-3.5030768,0.38622296,2.1928067,7.6596313
6.0297465,3.146776,-6.3884273,-1.1525319,-3.5030768,0.39623857,2.1227522,7.6628513
6.0308495,3.1388915,-6.954083,-1.1791635,-3.4764452,-0.057731748,0.8840587,9.001623
6.031979,3.1310136,-6.954083,-1.1791635,-3.4764452,-0.04696244,0.80896926,9.003893
6.0331736,3.122686,-7.4611487,-1.1994034,-3.4125292,-0.030786514,-0.31432247,10.298505
6.0343966,3.114365,-7.4611487,-1.1994034,-3.4125292,-0.019126296,-0.39371443,10.299644
6.0356703,3.1056442,-7.905364,-1.2089908,-3.3123944,0.24680734,-1.4968829,11.621696
6.0369725,3.0969305,-7.905364,-1.2089908,-3.3123944,0.25923324,-1.5800848,11.621479
6.038297,3.0878983,-8.286729,-1.2025993,-3.1845627,0.28145123,-2.7102194,12.702581
6.039655,3.0788372,-8.286729,-1.2025993,-3.1845627,0.29441714,-2.7967768,12.700766
6.041004,3.0695195,-8.607373,-1.1738371,-3.0300994,0.43180466,-3.7812161,13.871122
6.0423784,3.0602276,-8.607373,-1.1738371,-3.0300994,0.44493103,-3.8699813,13.867542
6.043726,3.050676,-8.869429,-1.1248349,-2.855396,0.49611855,-4.7848105,14.916283
6.045094,3.0411694,-8.869429,-1.1248349,-2.855396,0.50919914,-4.8755884,14.910766
6.046407,3.0315158,-9.067568,-1.060919,-2.6647136,0.3972597,-5.5327544,15.727697
6.0477476,3.0218494,-9.067568,-1.060919,-2.6647136,0.4100833,-5.624978,15.720155
6.0490108,3.0121052,-9.206052,-0.98422,-2.4633787,0.4604802,-6.014747,16.429695
6.050297,3.0023668,-9.206052,-0.98422,-2.4633787,0.47278786,-6.1075215,16.420101
6.051489,2.9925966,-9.288077,-0.8958031,-2.255652,0.37407303,-6.4111876,17.161127
6.052702,2.9828315,-9.288077,-0.8958031,-2.255652,0.38568974,-6.504035,17.149492
6.0538025,2.973085,-9.31897,-0.79566824,-2.0425992,0.28131294,-6.725857,17.850187
6.0549216,2.963343,-9.31897,-0.79566824,-2.0425992,0.29203796,-6.8182516,17.836542
6.0559125,2.9536643,-9.302991,-0.68701124,-1.828481,0.5313816,-6.9769154,18.42994
6.05692,2.9439895,-9.302991,-0.68701124,-1.828481,0.5410404,-7.068387,18.41435
6.0577836,2.9344172,-9.245466,-0.56770164,-1.6154281,0.6738219,-7.254465,19.053783
6.0586615,2.924848,-9.245466,-0.56770164,-1.6154281,0.68224,-7.344604,19.036356
6.0593786,2.9154193,-9.146397,-0.43560883,-1.4098321,0.90938854,-7.6486697,19.66923
6.05994,2.9058595,-9.010043,-0.29073286,-1.2138234,1.1925008,-7.9728785,20.161789
6.0604773,2.896875,-9.010043,-0.29073286,-1.2138234,1.1976597,-8.056902,20.142416
6.0610394,2.8876512,-9.010043,-0.29073286,-1.2138234,1.2030525,-8.142988,20.121742
6.0614157,2.8786302,-8.839601,-0.13626952,-1.0305979,1.3263755,-8.504635,20.469105
6.061803,2.8695643,-8.839601,-0.13626952,-1.0305979,1.3300893,-8.588788,20.44692
6.0620017,2.8607488,-8.636135,0.019259084,-0.86228615,1.4804411,-8.981573,20.625357
6.0622077,2.8519506,-8.636135,0.019259084,-0.86228615,1.4824173,-9.062746,20.602013
6.0622272,2.8433723,-8.406038,0.1747877,-0.7078228,1.669354,-9.457621,20.611702
6.062253,2.8348107,-8.406038,0.1747877,-0.7078228,1.6696007,-9.536105,20.587276
6.062098,2.8265355,-8.155701,0.3271205,-0.57146895,1.7734599,-9.927672,20.481243
6.061948,2.8182263,-8.155701,0.3271205,-0.57146895,1.7720165,-10.003308,20.45589
6.0616283,2.8102102,-7.886189,0.4719965,-0.45535514,1.7402174,-10.291435,19.85111
6.061314,2.8022172,-7.886189,0.4719965,-0.45535514,1.7372026,-10.363661,19.825218
6.060847,2.7944946,-7.603894,0.603024,-0.35628554,1.4741445,-10.533673,19.037947
6.0603843,2.7867782,-7.603894,0.603024,-0.35628554,1.4697056,-10.602875,19.011555
6.05979,2.7793756,-7.314142,0.7180726,-0.2731949,1.3586574,-10.879631,18.286312
6.059197,2.7719417,-7.314142,0.7180726,-0.2731949,1.3529665,-10.94577,18.259579
6.058494,2.7648227,-7.0211945,0.8150116,-0.20608325,1.1355367,-11.181186,17.299507
6.057796,2.7577164,-7.0211945,0.8150116,-0.20608325,1.1288397,-11.24391,17.272783
6.0570045,2.7508788,-6.7314425,0.8938412,-0.14855897,0.8099992,-11.591272,16.322237
6.056217,2.744053,-6.7314425,0.8938412,-0.14855897,0.8024535,-11.651036,16.295498
6.0553656,2.7375183,-6.4470167,0.9481697,-0.102752596,0.6506357,-12.205975,15.416981
6.054517,2.7309818,-6.4470167,0.9481697,-0.102752596,0.6425023,-12.262751,15.390425
6.0536284,2.7247279,-6.170048,0.98012763,-0.0697294,0.6675081,-12.886644,14.761169
6.052742,2.7184656,-6.170048,0.98012763,-0.0697294,0.6590142,-12.940617,14.734894
6.0518355,2.712492,-5.899471,0.99610656,-0.044163052,0.57850313,-13.662253,14.043797
6.0509315,2.7065167,-5.899471,0.99610656,-0.044163052,0.5698457,-13.71336,14.017971
6.05002,2.7008057,-5.63422,0.99823713,-0.026053555,0.40789604,-14.465903,13.590683
6.049112,2.6950922,-5.63422,0.99823713,-0.026053555,0.3991971,-14.51441,13.565336
6.0482106,2.6896453,-5.3711,0.9907803,-0.020727234,0.2900195,-15.221277,13.038071
6.0473123,2.6841967,-5.3711,0.9907803,-0.020727234,0.28142023,-15.267211,13.013319
6.0464373,2.6790106,-5.11011,0.9705402,-0.02711882,0.2347436,-16.067337,12.592049
6.045565,2.673823,-5.11011,0.9705402,-0.02711882,0.22639942,-16.110779,12.567993
6.044736,2.6689,-4.8501854,0.9364518,-0.04842411,0.20410538,-16.879707,12.224113
6.0439076,2.6639655,-4.8501854,0.9364518,-0.04842411,0.19618797,-16.920778,12.200819
6.0439076,2.6639655,-4.587065,0.8874496,-0.08144731,0.19618797,-16.920778,12.200819
6.0424113,2.6548483,-4.587065,0.8874496,-0.08144731,0.47876644,-17.551817,11.721569
6.041669,2.650102,-4.3228793,0.8309906,-0.12725368,-0.10293579,-17.907068,11.186361
6.0409575,2.6455395,-4.3228793,0.8309906,-0.12725368,-0.10973358,-17.94465,11.164219
6.0403633,2.641401,-4.0576286,0.76174843,-0.18690848,-0.053160667,-18.46234,10.636536
6.0397844,2.6373568,-4.0576286,0.76174843,-0.18690848,-0.058689117,-18.495535,10.616747
6.0392585,2.6331036,-3.789182,0.6722662,-0.25721595,0.35766697,-18.760292,10.490608
6.0387964,2.6293507,-3.789182,0.6722662,-0.25721595,0.35325813,-18.79102,10.472137
6.0384417,2.625786,-3.5218008,0.5881103,-0.3360455,-0.6413288,-19.356537,9.78908
6.0381274,2.6226087,-3.5218008,0.5881103,-0.3360455,-0.6443291,-19.382528,9.773426
6.0381274,2.6226087,-3.5218008,0.5881103,-0.3360455,-0.6443291,-19.382528,9.773426
6.037607,2.614356,-2.9838421,0.3750574,-0.5214015,-0.22791767,-20.240236,9.062626
6.0375547,2.6122315,-2.9838421,0.3750574,-0.5214015,-0.22841454,-20.257683,9.052284
6.037634,2.6093261,-2.713265,0.25787833,-0.6215364,-0.02175808,-20.449293,8.617039
6.0377064,2.6067178,-2.713265,0.25787833,-0.6215364,-0.02106762,-20.470814,8.60453
6.0379305,2.6041188,-2.4469488,0.1566782,-0.7259323,-0.23440742,-20.750986,8.166145
6.0381393,2.6017132,-2.4469488,0.1566782,-0.7259323,-0.23240948,-20.770962,8.154795
6.0385795,2.5967064,-2.4469488,0.1566782,-0.7259323,-0.2282114,-20.812435,8.131023
6.0387,2.5959399,-2.1880896,0.061869662,-0.8345893,-0.18875313,-20.986439,7.7827053
6.03897,2.5942278,-2.1880896,0.061869662,-0.8345893,-0.18617344,-21.00074,7.774761
6.0394654,2.5921836,-1.9334913,-0.03187361,-0.94324625,0.13937664,-21.032375,7.4304047
6.039965,2.5901275,-1.9334913,-0.03187361,-0.94324625,0.1441536,-21.049732,7.4211445
6.040602,2.5882907,-1.6884805,-0.121355824,-1.050838,0.35613632,-20.902643,6.9152164
6.041241,2.5864546,-1.6884805,-0.121355824,-1.050838,0.36223698,-20.918346,6.9072704
6.0420084,2.584839,-1.4551877,-0.20444645,-1.1562991,0.43181896,-20.779188,6.6133633
6.042765,2.5832505,-1.4551877,-0.20444645,-1.1562991,0.4390478,-20.79301,6.606838
6.043655,2.58185,-1.2325474,-0.28327602,-1.256434,0.47628212,-20.661804,6.362072
6.0445485,2.5804462,-1.2325474,-0.28327602,-1.256434,0.4848299,-20.674288,6.3567104
6.0455685,2.5792387,-1.0173639,-0.35997507,-1.3512425,0.6765461,-20.565615,6.2424316
6.0465817,2.5780418,-1.0173639,-0.35997507,-1.3512425,0.6862345,-20.57654,6.2382984
6.0476813,2.5770679,-0.80963737,-0.4334783,-1.4407247,0.88829136,-20.504368,6.268978
6.0488167,2.5760646,-0.80963737,-0.4334783,-1.4407247,0.8991537,-20.513868,6.266035
6.0500364,2.5752718,-0.60617185,-0.5016552,-1.5206196,1.1310968,-20.478666,6.470211
6.0512557,2.5744815,-0.60617185,-0.5016552,-1.5206196,1.1427717,-20.486534,6.4684734
6.0531363,2.573628,-0.4037716,-0.5623753,-1.5951881,1.3331699,-20.553171,6.769327
6.053945,2.573262,-0.4037716,-0.5623753,-1.5951881,1.3409204,-20.557102,6.7689686
6.055288,2.5728827,-0.19604504,-0.61457324,-1.6601692,1.6075726,-20.619232,7.2531567
6.05666,2.5724964,-0.19604504,-0.61457324,-1.6601692,1.6207342,-20.623995,7.253731
6.0581155,2.5723147,0.019138372,-0.6571838,-1.7134324,1.7687626,-20.737324,7.782217
6.059572,2.5721345,0.019138372,-0.6571838,-1.7134324,1.7827358,-20.740492,7.7839622
6.061077,2.5721803,0.25030077,-0.68914175,-1.7592388,2.1275768,-20.875967,8.23707
6.062565,2.5722272,0.25030077,-0.68914175,-1.7592388,2.141861,-20.877321,8.240026
6.0641284,2.572521,0.49637684,-0.70831656,-1.7943926,2.4393911,-20.843239,8.627449
6.0656667,2.5728116,0.49637684,-0.70831656,-1.7943926,2.4541693,-20.842651,8.631714
6.067209,2.5733566,0.7605624,-0.7157734,-1.8210242,2.789814,-20.839996,9.001198
6.068794,2.5739186,0.7605624,-0.7157734,-1.8210242,2.805047,-20.837227,9.00691
6.0703526,2.5747442,1.0396618,-0.7104471,-1.8412642,3.0355186,-20.655111,9.195881
6.07192,2.5755763,1.0396618,-0.7104471,-1.8412642,3.0505943,-20.6501,9.202915
6.0734806,2.5766983,1.3315442,-0.6955334,-1.8551127,3.10392,-20.42722,9.197044
6.0750027,2.577795,1.3315442,-0.6955334,-1.8551127,3.1185694,-20.419964,9.205315
6.076565,2.5792367,1.633014,-0.6731628,-1.8615042,3.1048832,-20.084303,9.191458
6.0781145,2.5806704,1.633014,-0.6731628,-1.8615042,3.11981,-20.074272,9.20145
6.0796323,2.5824032,1.9398102,-0.649727,-1.860439,3.6228495,-19.683449,9.222454
6.0811195,2.5841043,1.9398102,-0.649727,-1.860439,3.6371822,-19.671112,9.23365
6.0826044,2.586147,2.249802,-0.62416065,-1.8508515,3.038581,-19.220184,8.892191
6.084106,2.5882177,2.249802,-0.62416065,-1.8508515,3.0530624,-19.204746,8.905195
6.0855503,2.5905647,2.5565982,-0.5985943,-1.8359379,3.603302,-18.641062,8.933817
6.086972,2.59288,2.5565982,-0.5985943,-1.8359379,3.6170225,-18.623447,8.947832
6.0884066,2.5955794,2.861264,-0.57941955,-1.8156978,3.4201775,-18.013653,8.527992
6.0898147,2.5982373,2.861264,-0.57941955,-1.8156978,3.433774,-17.993088,8.543577
6.0911674,2.6011548,3.1542118,-0.55917954,-1.7869357,3.6527395,-17.28552,8.191584
6.0925646,2.6041765,3.1542118,-0.55917954,-1.7869357,3.666235,-17.2618,8.208801
6.0938773,2.6073735,3.4365067,-0.5421353,-1.7560431,4.1338196,-17.193394,8.298504
6.09519,2.610581,3.4365067,-0.5421353,-1.7560431,4.146508,-17.16792,8.316336
6.0964937,2.614152,3.7102797,-0.51869947,-1.7198241,3.929266,-17.163261,8.2927265
6.0978136,2.6177804,3.7102797,-0.51869947,-1.7198241,3.942029,-17.134117,8.31241
6.0990143,2.621481,3.980857,-0.49313313,-1.6761482,3.752533,-16.816872,8.135815
6.1002417,2.625277,3.980857,-0.49313313,-1.6761482,3.7644033,-16.786055,8.155924
6.1014247,2.6293557,4.248238,-0.4728931,-1.627146,3.6322012,-16.48458,8.086189
6.102602,2.6334307,4.248238,-0.4728931,-1.627146,3.6435995,-16.451185,8.107283
6.1037226,2.6377227,4.5102935,-0.45904467,-1.5738828,3.6783848,-16.104551,8.215337
6.1048512,2.6420674,4.5102935,-0.45904467,-1.5738828,3.6893215,-16.068617,8.237303
6.105953,2.646749,4.761696,-0.44732675,-1.5131627,3.9585638,-15.780681,8.4665165
6.1070304,2.6513486,4.761696,-0.44732675,-1.5131627,3.968995,-15.742304,8.48922
6.108058,2.656208,5.000315,-0.4302825,-1.4471164,4.2231636,-15.457333,8.7857895
6.109079,2.6610582,5.000315,-0.4302825,-1.4471164,4.2330503,-15.416515,8.809162
6.110039,2.6661446,5.2240205,-0.40258563,-1.3789394,4.1418056,-15.172382,9.077492
6.1109824,2.671165,5.2240205,-0.40258563,-1.3789394,4.1509476,-15.129786,9.101086
6.1118774,2.6765373,5.432812,-0.36423612,-1.3054361,3.800499,-14.854134,9.341389
6.112745,2.6817718,5.432812,-0.36423612,-1.3054361,3.8089037,-14.809351,9.365327
6.113563,2.6873465,5.625625,-0.32695186,-1.2319329,3.6779785,-14.579481,9.711237
6.114355,2.6927786,5.625625,-0.32695186,-1.2319329,3.6856604,-14.532643,9.735405
6.1151037,2.6985471,5.8035245,-0.29712445,-1.1584296,3.6881342,-14.276786,10.0862665
6.115837,2.704236,5.8035245,-0.29712445,-1.1584296,3.6952477,-14.227369,10.110876
6.116496,2.710011,5.9686403,-0.2694276,-1.0785348,3.6058784,-13.827443,10.427532
6.11717,2.715956,5.9686403,-0.2694276,-1.0785348,3.6124125,-13.775426,10.452503
6.117765,2.7219045,6.1177773,-0.24386124,-0.99757475,3.5511541,-13.387981,10.721281
6.118364,2.7279377,6.1177773,-0.24386124,-0.99757475,3.5569644,-13.334823,10.745861
6.1189055,2.7341204,6.2509356,-0.22042541,-0.9176799,3.3467445,-12.882711,10.880754
6.119446,2.740346,6.2509356,-0.22042541,-0.9176799,3.3519907,-12.827489,10.905334
6.1199274,2.7466369,6.361723,-0.20125066,-0.8345893,3.0310555,-12.436295,11.202654
6.1203976,2.7528272,6.361723,-0.20125066,-0.8345893,3.0356193,-12.381033,11.226307
6.1208215,2.7592177,6.45014,-0.18420643,-0.74510705,2.991847,-11.9359255,11.408285
6.1212454,2.7656786,6.45014,-0.18420643,-0.74510705,2.9959674,-11.877892,11.432135
6.121614,2.7721484,6.5172515,-0.1671622,-0.6534943,2.458456,-11.632839,11.675822
6.1219735,2.7785213,6.5172515,-0.1671622,-0.6534943,2.4619513,-11.575256,11.698521
6.1222873,2.7850409,6.5662537,-0.15011796,-0.5576205,1.7994099,-11.315047,11.721276
6.122603,2.7916584,6.5662537,-0.15011796,-0.5576205,1.802475,-11.254911,11.743981
6.1228704,2.7982275,6.5939507,-0.14372638,-0.4532246,1.412426,-10.773663,11.694229
6.123132,2.8047047,6.5939507,-0.14372638,-0.4532246,1.4149675,-10.714483,11.715608
6.1233635,2.8114033,6.595016,-0.14266111,-0.34456763,1.0341396,-10.097661,11.627118
6.1235847,2.8178778,6.595016,-0.14266111,-0.34456763,1.0362921,-10.038206,11.647645
6.1237755,2.824534,6.5619926,-0.14159586,-0.23378013,0.72689676,-9.263455,11.366629
6.123962,2.8311048,6.5619926,-0.14159586,-0.23378013,0.7287092,-9.202823,11.386603
6.1241155,2.8376198,6.489555,-0.1458569,-0.12405789,0.82596874,-8.280647,11.065996
6.1242685,2.8441284,6.489555,-0.1458569,-0.12405789,0.8274541,-8.220321,11.084957
6.124397,2.8505378,6.3681145,-0.15650955,-0.026053555,1.254868,-7.456886,10.662679
6.124525,2.856947,6.3681145,-0.15650955,-0.026053555,1.2561154,-7.39723,10.68055
6.1246347,2.8631926,6.191281,-0.16822746,0.052776013,1.7599635,-6.678181,10.146904
6.124745,2.8694382,6.191281,-0.16822746,0.052776013,1.7610357,-6.6198273,10.163568
6.124849,2.875458,5.9558573,-0.18420643,0.10923503,2.087656,-6.0319676,9.676489
6.1249537,2.881484,5.9558573,-0.18420643,0.10923503,2.088675,-5.9754705,9.6918745
6.1250668,2.8872101,5.660779,-0.20657697,0.14225823,2.3962302,-5.653555,9.217789
6.1251807,2.892948,5.660779,-0.20657697,0.14225823,2.397337,-5.599598,9.231834
6.1253185,2.8983285,5.310307,-0.23533912,0.14864981,2.537539,-5.5106277,8.832969
6.1254606,2.9038332,5.310307,-0.23533912,0.14864981,2.5389204,-5.458729,8.845923
6.1256337,2.9087229,4.910833,-0.2683623,0.13480137,2.2916055,-5.527504,8.680092
6.1258106,2.9137025,4.910833,-0.2683623,0.13480137,2.2933297,-5.4804535,8.691407
6.126037,2.9182544,4.471944,-0.30564657,0.10071291,1.9411864,-5.7007766,8.56278
6.126264,2.922806,4.471944,-0.30564657,0.10071291,1.9433908,-5.6576915,8.572819
6.1265464,2.9268956,4.008554,-0.3471919,0.053841278,1.7737556,-5.9589443,8.519547
6.126829,2.9309769,4.008554,-0.3471919,0.053841278,1.7764997,-5.920261,8.5283375
6.12717,2.9345784,3.53025,-0.38980246,-0.0026177382,1.5451832,-6.2165184,8.560047
6.127507,2.9381332,3.53025,-0.38980246,-0.0026177382,1.5484586,-6.182794,8.5675955
6.127913,2.9412923,3.0519462,-0.4313478,-0.06866413,1.3225646,-6.52633,8.674919
6.128313,2.9444041,3.0519462,-0.4313478,-0.06866413,1.3264523,-6.4967885,8.681483
6.12877,2.9470353,2.580034,-0.4696973,-0.14110212,1.187243,-6.883636,9.012757
6.129218,2.949619,2.580034,-0.4696973,-0.14110212,1.1916013,-6.8591104,9.018242
6.1297345,2.9518094,2.1230357,-0.50698155,-0.2167359,1.3690009,-7.2788787,9.386969
6.1302466,2.9539847,2.1230357,-0.50698155,-0.2167359,1.3739829,-7.2582464,9.391692
6.1308017,2.9556997,1.689473,-0.5357437,-0.297696,1.3841705,-7.6729646,9.893596
6.131347,2.957384,1.689473,-0.5357437,-0.297696,1.3894753,-7.657016,9.897413
6.131939,2.958669,1.2793462,-0.55811423,-0.38078663,1.4574809,-7.9609203,10.403344
6.1325407,2.9599774,1.2793462,-0.55811423,-0.38078663,1.4633374,-7.948564,10.406522
6.1331997,2.9609122,0.8969163,-0.5751585,-0.4649425,1.2494807,-8.231886,10.931055
6.133801,2.9617662,0.8969163,-0.5751585,-0.4649425,1.2553296,-8.223866,10.933407
6.1344423,2.962272,0.5400527,-0.5890069,-0.55335945,1.4004326,-8.492131,11.385324
6.1351004,2.9627922,0.5400527,-0.5890069,-0.55335945,1.4068408,-8.487322,11.387164
6.1357865,2.9629638,0.20555966,-0.6007248,-0.6385806,1.4039407,-8.686967,11.560825
6.136469,2.963135,0.20555966,-0.6007248,-0.6385806,1.410583,-8.6855,11.562083
6.137173,2.9629781,-0.11082389,-0.60605115,-0.7174102,1.3456106,-8.90745,11.783075
6.1378736,2.9628224,-0.11082389,-0.60605115,-0.7174102,1.3524342,-8.90912,11.783797
6.1385975,2.9623551,-0.4101632,-0.6113775,-0.793044,1.4408865,-9.076588,11.956382
6.13932,2.9618895,-0.4101632,-0.6113775,-0.793044,1.447917,-9.08123,11.9565735
6.1400614,2.9611259,-0.6977846,-0.61563855,-0.8612209,1.3641591,-9.112674,11.870077
6.1408014,2.9603653,-0.6977846,-0.61563855,-0.8612209,1.3713665,-9.12015,11.869765
6.1415577,2.9593155,-0.9768839,-0.61776906,-0.9208757,1.2590218,-9.130395,11.754026
6.1423125,2.9582698,-0.9768839,-0.61776906,-0.9208757,1.2663774,-9.140604,11.753206
6.1430826,2.9569454,-1.2495916,-0.62416065,-0.96987784,1.5133023,-9.177427,11.51247
6.143852,2.9556246,-1.2495916,-0.62416065,-0.96987784,1.5208006,-9.190271,11.511129
6.145091,2.9531157,-1.516973,-0.63268274,-1.0103579,1.7579293,-9.23376,11.364587
6.145425,2.9524415,-1.516973,-0.63268274,-1.0103579,1.7611814,-9.240301,11.363798
6.146239,2.9505565,-1.7800933,-0.6412049,-1.0423158,2.027687,-9.41178,11.370975
6.147046,2.948691,-1.7800933,-0.6412049,-1.0423158,2.0355577,-9.429835,11.3685665
6.147046,2.948691,-1.7800933,-0.6412049,-1.0423158,2.0355577,-9.429835,11.3685665
6.147046,2.948691,-1.7800933,-0.6412049,-1.0423158,2.0355577,-9.429835,11.3685665
6.149923,2.9404044,-2.2669191,-0.6412049,-1.0774696,2.4562569,-10.065272,11.983761
6.150379,2.939098,-2.2669191,-0.6412049,-1.0774696,2.4607086,-10.077877,11.981789
6.1512203,2.9364302,-2.4757109,-0.6252259,-1.0764043,2.6796007,-10.347788,12.427696
6.152085,2.933697,-2.4757109,-0.6252259,-1.0764043,2.688035,-10.374112,12.423322
6.152804,2.931195,-2.6504145,-0.6007248,-1.0668169,2.9584131,-10.58493,12.936307
6.1536126,2.9283903,-2.6504145,-0.6007248,-1.0668169,2.9663057,-10.611902,12.931563
6.1543293,2.9256597,-2.7888987,-0.5666364,-1.0487075,3.251029,-10.911071,13.4295635
6.1551166,2.9226713,-2.7888987,-0.5666364,-1.0487075,3.2587118,-10.939759,13.424242
6.1557603,2.9199932,-2.8847725,-0.52509105,-1.0242064,3.557085,-11.05642,14.032228
6.156472,2.9170427,-2.8847725,-0.52509105,-1.0242064,3.5640306,-11.084701,14.026725
6.15713,2.9140558,-2.9380357,-0.47608888,-0.99544424,3.7093134,-11.2808895,14.538126
6.15713,2.9140558,-2.9380357,-0.47608888,-0.99544424,3.7093134,-11.2808895,14.538126
6.158458,2.9074247,-2.9486885,-0.41962987,-0.9602905,3.7941084,-11.598073,15.075577
6.1589336,2.905066,-2.9486885,-0.41962987,-0.9602905,3.7987547,-11.620606,15.070776
6.1594825,2.9020426,-2.9146,-0.35784453,-0.91661465,3.919033,-11.975061,15.768354
6.160019,2.8991036,-2.9146,-0.35784453,-0.91661465,3.9242706,-12.003087,15.762136
6.1604886,2.8961968,-2.8379009,-0.2896676,-0.8676125,4.015052,-12.365957,16.36396
6.1609683,2.893244,-2.8379009,-0.2896676,-0.8676125,4.0197363,-12.394063,16.35747
6.1613545,2.8904657,-2.7164607,-0.21083803,-0.81434923,3.8702774,-12.985503,17.107779
6.1619644,2.8861053,-2.7164607,-0.21083803,-0.81434923,3.876236,-13.026916,17.097807
6.162091,2.8849885,-2.5428226,-0.12561688,-0.756825,3.973239,-13.521135,17.813452
6.162383,2.8824217,-2.5428226,-0.12561688,-0.756825,3.9760904,-13.545469,17.807394
6.1625733,2.880049,-2.3169866,-0.03187361,-0.69184387,4.126395,-14.099438,18.280493
6.1627655,2.8776789,-2.3169866,-0.03187361,-0.69184387,4.1282682,-14.121852,18.274685
6.1628428,2.8755867,-2.041083,0.07145704,-0.6247322,4.1290245,-14.687482,18.729113
6.162921,2.8734946,-2.041083,0.07145704,-0.6247322,4.1297903,-14.707218,18.723808
6.1628766,2.8717303,-1.718308,0.18117929,-0.5544247,4.052741,-15.240967,18.925087
6.1628337,2.8699663,-1.718308,0.18117929,-0.5544247,4.0523176,-15.257556,18.92042
6.1626663,2.868579,-1.3465307,0.2909015,-0.48198673,3.978859,-15.648843,19.136852
6.1625,2.867191,-1.3465307,0.2909015,-0.48198673,3.977234,-15.661839,19.132996
6.1622133,2.866222,-0.93320805,0.3963627,-0.40954876,3.9600716,-15.991684,19.264177
6.161927,2.8652525,-0.93320805,0.3963627,-0.40954876,3.9572735,-16.000702,19.261269
6.1615252,2.8647351,-0.485797,0.49862808,-0.34030658,3.6085835,-16.417233,19.455751
6.1611238,2.8642178,-0.485797,0.49862808,-0.34030658,3.6046562,-16.421959,19.453903
6.160611,2.8641863,-0.005362711,0.5934366,-0.26680332,3.360239,-16.781223,19.54422
6.160099,2.8641548,-0.005362711,0.5934366,-0.26680332,3.355235,-16.78135,19.543541
6.1594796,2.864638,0.50276846,0.6818536,-0.18477796,3.133709,-17.073483,19.702124
6.15886,2.8651214,0.50276846,0.6818536,-0.18477796,3.1276617,-17.06874,19.70269
6.15814,2.8661435,1.0343354,0.7628137,-0.100622065,3.101472,-17.336622,19.738075
6.157419,2.8671658,1.0343354,0.7628137,-0.100622065,3.0944366,-17.326777,19.739931
6.1566057,2.8687453,1.5829465,0.8331211,-0.010074589,3.1487465,-17.421795,19.73356
6.155792,2.870325,1.5829465,0.8331211,-0.010074589,3.1408014,-17.406668,19.736717
6.1548896,2.872476,2.144341,0.8981023,0.08473395,3.309165,-17.515423,19.578428
6.1539865,2.8746274,2.144341,0.8981023,0.08473395,3.300353,-17.494875,19.58288
6.153001,2.8773558,2.7131922,0.9588223,0.18167302,3.022582,-17.526318,19.234322
6.1520123,2.8800902,2.7131922,0.9588223,0.18167302,3.0129414,-17.500229,19.24003
6.1509514,2.883402,3.2820435,1.0067593,0.27861208,3.965063,-17.363314,18.998013
6.149891,2.8867145,3.2820435,1.0067593,0.27861208,3.9547176,-17.331713,19.004877
6.14876,2.890606,3.847699,1.0546961,0.37874693,3.2014837,-17.208405,18.447897
6.1476293,2.8944983,3.847699,1.0546961,0.37874693,3.1904612,-17.171253,18.455807
6.1464357,2.8989584,4.401636,1.0973067,0.475686,2.403101,-16.798283,17.61725
6.1452427,2.9034197,4.401636,1.0973067,0.475686,2.3914757,-16.755663,17.626041
6.144022,2.9084334,4.9395947,1.1036983,0.56729877,2.8536272,-16.396517,16.936728
6.1428022,2.9134488,4.9395947,1.1036983,0.56729877,2.8417444,-16.348562,16.946272
6.1415763,2.9189932,5.454118,1.0909151,0.6525199,3.1985054,-15.922036,16.219273
6.1403522,2.9245396,5.454118,1.0909151,0.6525199,3.1865845,-15.868942,16.229395
6.139124,2.9305854,5.9388127,1.0802624,0.73348,2.8968954,-15.547673,15.512373
6.137899,2.9366333,5.9388127,1.0802624,0.73348,2.8849697,-15.4896965,15.522839
6.1366715,2.9431431,6.386224,1.0706751,0.8091138,2.5521965,-15.312331,15.007088
6.135448,2.9496553,6.386224,1.0706751,0.8091138,2.540289,-15.249807,15.017651
6.134231,2.9565976,6.801677,1.0536308,0.88474756,2.4566193,-15.264514,14.702953
6.133019,2.963542,6.801677,1.0536308,0.88474756,2.4448233,-15.197729,14.7134
6.1318226,2.9708843,7.1841073,1.0291297,0.9614466,2.485855,-15.20848,14.465481
6.1306314,2.9782293,7.1841073,1.0291297,0.9614466,2.4742727,-15.137739,14.475607
6.129459,2.9859407,7.53671,1.0046287,1.0296235,2.721445,-15.087364,14.299046
6.128293,2.9936547,7.53671,1.0046287,1.0296235,2.710106,-15.012955,14.308635
6.127146,3.00171,7.8637457,0.9843887,1.0914088,2.4164371,-14.920838,13.9494295
6.126006,3.0097678,7.8637457,0.9843887,1.0914088,2.4053621,-14.843008,13.958302
6.1248894,3.0181394,8.16415,0.96414864,1.1425415,1.9013042,-14.618445,13.392343
6.1237807,3.0265136,8.16415,0.96414864,1.1425415,1.8905334,-14.537452,13.400312
6.1227117,3.0351553,8.436858,0.9321907,1.180891,1.4300356,-14.080333,12.641774
6.121647,3.0438433,8.436858,0.9321907,1.180891,1.419694,-13.99622,12.648705
6.120639,3.052744,8.674412,0.88638437,1.2107185,1.1226034,-13.325828,12.133228
6.1196404,3.0616562,8.674412,0.88638437,1.2107185,1.1129007,-13.239464,12.138932
6.1187043,3.0707726,8.86829,0.8341864,1.2298932,0.42386246,-12.135962,11.210356
6.117779,3.0798914,8.86829,0.8341864,1.2298932,0.4148836,-12.047545,11.214727
6.116921,3.0891464,9.006775,0.7787926,1.2362849,0.07136917,-10.755904,10.557664
6.1160717,3.0984318,9.006775,0.7787926,1.2362849,0.06312847,-10.665839,10.56058
6.115281,3.1079443,9.080277,0.7180726,1.2352196,0.01236248,-9.366888,10.251587
6.114485,3.1176744,9.080277,0.7180726,1.2352196,0.004635811,-9.272499,10.252989
6.1138268,3.1265638,9.079212,0.65628725,1.2224364,-0.20765114,-7.548635,9.932752
6.1131473,3.1358852,9.079212,0.65628725,1.2224364,-0.21423817,-7.4582214,9.93256
6.112535,3.1451504,9.003579,0.59556717,1.1947395,-0.3111534,-5.175286,9.491103
6.111919,3.1546493,9.003579,0.59556717,1.1947395,-0.3171277,-5.083191,9.48931
6.1113906,3.1636927,8.842724,0.52952075,1.1542594,-0.5760367,-2.7258353,9.084656
6.11087,3.1727834,8.842724,0.52952075,1.1542594,-0.5810845,-2.6377573,9.081429
6.110371,3.1816173,8.58706,0.45921332,1.1009963,-0.509307,-0.38306165,8.680103
6.109881,3.190461,8.58706,0.45921332,1.1009963,-0.51405597,-0.2974633,8.675462
6.1094713,3.1988223,8.2365885,0.3878406,1.0306888,-0.16847154,1.5072513,8.517241
6.1090713,3.2071757,8.2365885,0.3878406,1.0306888,-0.17234862,1.5880163,8.511592
6.1087575,3.2150674,7.791308,0.32498997,0.94546765,0.25077516,2.7703927,8.3237915
6.1084523,3.222928,7.791308,0.32498997,0.94546765,0.24781951,2.8462975,8.317382
6.108199,3.2302945,7.25548,0.2759878,0.85278964,0.5087288,3.5686054,8.057096
6.1079545,3.2376027,7.25548,0.2759878,0.85278964,0.50635743,3.6390774,8.050148
6.1077394,3.2443273,6.6408224,0.24402988,0.7505242,0.446815,3.995967,7.655457
6.107531,3.2510188,6.6408224,0.24402988,0.7505242,0.4447947,4.0603967,7.648239
6.107344,3.2570076,5.962249,0.22485512,0.64506304,-0.031068206,4.1659,7.21524
6.1071615,3.2629848,5.962249,0.22485512,0.64506304,-0.032838106,4.223365,7.208091
6.106989,3.2682374,5.2357383,0.20994142,0.53960186,-0.25477684,4.2307277,6.8950386
6.1068196,3.2734692,5.2357383,0.20994142,0.53960186,-0.256415,4.2809515,6.8882213
6.1066556,3.277902,4.4751396,0.19502772,0.439467,-0.21969652,4.3521986,6.532643
6.1064935,3.2823482,4.4751396,0.19502772,0.439467,-0.2212708,4.3948174,6.5264206
6.106333,3.2859993,3.6889744,0.18011402,0.34465846,0.011806011,4.7745504,6.032698
6.1061735,3.2896504,3.6889744,0.18011402,0.34465846,0.010262251,4.8095016,6.0272765
6.106028,3.2924664,2.878308,0.16093926,0.2477194,-0.13000917,5.1620474,5.19457
6.1058836,3.2952826,2.878308,0.16093926,0.2477194,-0.1314075,5.188969,5.1901817
6.105752,3.2972453,2.0505977,0.12898132,0.14119296,0.16419792,5.4806566,4.6842484
6.1056204,3.299216,2.0505977,0.12898132,0.14119296,0.1629231,5.4994736,4.6810427
6.10552,3.3003197,1.2079735,0.08210969,0.03253599,0.21940947,5.78773,4.3152695
6.1054196,3.3014233,1.2079735,0.08210969,0.03253599,0.21843576,5.798258,4.313405
6.105363,3.3016605,0.35789245,0.02565067,-0.08038204,-0.08377838,5.992044,4.025633
6.1053095,3.301885,0.35789245,0.02565067,-0.08038204,-0.084298134,5.9941754,4.0251994
6.1053123,3.3012407,-0.49538437,-0.04572205,-0.19436534,-0.3380518,6.203495,4.016614
6.1053157,3.3006017,-0.49538437,-0.04572205,-0.19436534,-0.33802176,6.197386,4.0176063
6.1053886,3.2990804,-1.3507917,-0.13840005,-0.30621812,-0.12662268,6.19722,4.101451
6.105463,3.2975454,-1.3507917,-0.13840005,-0.30621812,-0.12590408,6.182556,4.1038985
6.105619,3.2951453,-2.2040687,-0.24386124,-0.41594034,0.095871925,5.948941,4.3567514
6.105775,3.2927644,-2.2040687,-0.24386124,-0.41594034,0.09738064,5.9261894,4.3605185
6.1060123,3.2895038,-3.0509539,-0.3503877,-0.51714045,0.3774078,5.3539333,5.1892366
6.106252,3.2862308,-3.0509539,-0.3503877,-0.51714045,0.379735,5.322628,5.194267
6.10656,3.2821465,-3.8786643,-0.45052254,-0.60768795,0.98605466,4.6179547,6.1245823
6.1068707,3.2780626,-3.8786643,-0.45052254,-0.60768795,0.9890614,4.5788474,6.1305747
6.1072397,3.2731922,-4.66696,-0.53680897,-0.6929091,1.8353972,3.7085657,7.066463
6.107612,3.2683272,-4.66696,-0.53680897,-0.6929091,1.8390063,3.6619077,7.073164
6.1080337,3.262734,-5.415841,-0.59965956,-0.77173865,2.460795,2.3823879,8.167554
6.10846,3.2571416,-5.415841,-0.59965956,-0.77173865,2.464925,2.328665,8.174676
6.108936,3.250876,-6.112524,-0.64440066,-0.84204614,2.9627419,0.956398,9.388974
6.1094184,3.2445986,-6.112524,-0.64440066,-0.84204614,2.9674172,0.89599323,9.396231
6.1099386,3.2377079,-6.746356,-0.6710323,-0.90702724,3.2597618,-0.6308384,10.495508
6.1104655,3.2308114,-6.746356,-0.6710323,-0.90702724,3.264873,-0.69731855,10.502584
6.111018,3.2233403,-7.314142,-0.68275017,-0.9656168,3.2127657,-2.1819782,11.419494
6.1115775,3.2158778,-7.314142,-0.68275017,-0.9656168,3.2181902,-2.254033,11.426069
6.1121492,3.2079182,-7.80949,-0.68275017,-1.0167495,3.0657182,-3.6860704,12.174649
6.1127295,3.1999676,-7.80949,-0.68275017,-1.0167495,3.0713415,-3.7629538,12.180425
6.113314,3.1915758,-8.2324,-0.6742281,-1.0572295,2.9716682,-5.1274576,12.808297
6.1139073,3.1831937,-8.2324,-0.6742281,-1.0572295,2.9774218,-5.208625,12.812999
6.1144977,3.17447,-8.581807,-0.65824914,-1.0838611,2.6479578,-6.4040585,13.334279
6.1150985,3.16573,-8.581807,-0.65824914,-1.0838611,2.6537857,-6.4887786,13.33768
6.1156907,3.15672,-8.860907,-0.6380091,-1.1009054,2.544609,-7.5338364,13.713865
6.116293,3.147711,-8.860907,-0.6380091,-1.1009054,2.550456,-7.621236,13.715784
6.116889,3.1384892,-9.075025,-0.6198996,-1.1051664,2.4077997,-8.486437,14.047291
6.117495,3.1292784,-9.075025,-0.6198996,-1.1051664,2.413681,-8.575831,14.0475855
6.1180987,3.1199074,-9.228422,-0.6049859,-1.1019707,2.2279997,-9.274913,14.286434
6.1187124,3.1105378,-9.228422,-0.6049859,-1.1019707,2.2339582,-9.365854,14.285025
6.1187124,3.1105378,-9.228422,-0.6049859,-1.1019707,2.2339582,-9.365854,14.285025
6.1200542,3.0901268,-9.325361,-0.5964638,-1.0902528,2.1703672,-10.119383,14.652495
6.1205916,3.0820532,-9.37756,-0.593268,-1.0700127,2.3192425,-10.657392,14.912375
6.1212783,3.0718892,-9.37756,-0.593268,-1.0700127,2.3259077,-10.755955,14.907089
6.1218886,3.0628982,-9.389277,-0.5890069,-1.0433811,2.5329514,-11.288425,15.141002
6.1226163,3.052339,-9.389277,-0.5890069,-1.0433811,2.540019,-11.390718,15.133539
6.1232405,3.04322,-9.362646,-0.57622373,-1.0114232,2.8860588,-11.761519,15.140584
6.123899,3.0337229,-9.362646,-0.57622373,-1.0114232,2.892457,-11.853395,15.132106
6.1245236,3.0244863,-9.306187,-0.5506574,-0.9784,3.2863836,-12.244351,15.261864
6.125158,3.0152225,-9.306187,-0.5506574,-0.9784,3.2925482,-12.333816,15.251905
6.125765,3.0059445,-9.222031,-0.5123079,-0.94644207,3.710248,-12.614866,15.29373
6.1264067,2.9962668,-9.222031,-0.5123079,-0.94644207,3.716487,-12.708137,15.281546
6.1269855,2.9868445,-9.114439,-0.45691413,-0.9144841,3.990265,-12.9664135,15.053252
6.1275234,2.9782064,-9.114439,-0.45691413,-0.9144841,3.995492,-13.049449,15.040761
6.1280174,2.9693122,-8.985542,-0.38447616,-0.8814609,3.981141,-13.2689,14.95045
6.1280174,2.9693122,-8.985542,-0.38447616,-0.8814609,3.9899807,-13.422691,14.923813
6.129032,2.9510818,-8.83747,-0.29925498,-0.8516335,4.0676203,-13.563221,14.934349
6.1294465,2.9425962,-8.83747,-0.29925498,-0.8516335,4.0716543,-13.644297,14.918997
6.1297884,2.9338586,-8.672355,-0.20338118,-0.8207408,4.098919,-13.885633,14.844881
6.1301365,2.9251304,-8.672355,-0.20338118,-0.8207408,4.1023026,-13.9687195,14.827528
6.1303854,2.9165428,-8.490194,-0.10005054,-0.7887829,3.985015,-14.241827,14.871853
6.1306405,2.9079726,-8.490194,-0.10005054,-0.7887829,3.9874935,-14.323079,14.85327
6.1309485,2.891227,-8.289925,0.0064759105,-0.7589555,3.9473896,-14.6489,14.785955
6.1309485,2.891227,-8.289925,0.0064759105,-0.7589555,3.9473896,-14.6489,14.785955
6.1310005,2.8830032,-8.072611,0.11406762,-0.7291281,3.9095955,-14.975331,14.756327
6.1310577,2.874926,-8.072611,0.11406762,-0.7291281,3.9101534,-15.051222,14.7360115
6.1310134,2.867045,-7.8350563,0.21846354,-0.70036596,3.9001408,-15.388427,14.681932
6.130975,2.8591318,-7.8350563,0.21846354,-0.70036596,3.899764,-15.462408,14.660713
6.13084,2.8514671,-7.5783277,0.31753314,-0.6769301,3.9080315,-15.672731,14.582012
6.130711,2.8438172,-7.5783277,0.31753314,-0.6769301,3.9067774,-15.743887,14.56027
6.1304903,2.8364363,-7.300294,0.41340694,-0.65562487,3.8663206,-15.984718,14.505127
6.130275,2.8290622,-7.300294,0.41340694,-0.65562487,3.8642292,-16.052944,14.483023
6.1299715,2.8219695,-7.003085,0.5039544,-0.6332543,3.794242,-16.24765,14.374962
6.129674,2.8148832,-7.003085,0.5039544,-0.6332543,3.7913437,-16.312845,14.352644
6.1292977,2.8080819,-6.689897,0.58384925,-0.61407954,3.7541685,-16.327345,14.028999
6.128919,2.8011239,-6.689897,0.58384925,-0.61407954,3.7504883,-16.391008,14.006098
6.1284866,2.7947376,-6.3649917,0.6541567,-0.5938395,3.6600885,-16.47798,13.702038
6.1280556,2.788305,-6.3649917,0.6541567,-0.5938395,3.6559029,-16.536499,13.679979
6.127567,2.7822065,-6.0294333,0.7138115,-0.5725342,3.641572,-16.630112,13.524523
6.1270814,2.7760885,-6.0294333,0.7138115,-0.5725342,3.6368532,-16.685455,13.5027485
6.1265516,2.7703319,-5.685353,0.7606831,-0.55335945,3.4784765,-16.967205,13.342974
6.126024,2.7645397,-5.685353,0.7606831,-0.55335945,3.473342,-17.01931,13.32164
6.1254616,2.7591157,-5.334881,0.7947716,-0.5299236,3.357751,-17.336096,13.368336
6.124935,2.7539945,-5.334881,0.7947716,-0.5299236,3.3526363,-17.381914,13.348896
6.1243415,2.7488468,-4.9780173,0.8171422,-0.50222677,3.2606697,-17.676811,13.467871
6.123737,2.7435663,-4.9780173,0.8171422,-0.50222677,3.2547998,-17.723797,13.447247
6.123135,2.738857,-4.6126313,0.82992536,-0.47026885,3.2824726,-18.13427,13.72543
6.122548,2.734236,-4.6126313,0.82992536,-0.47026885,3.2767725,-18.175161,13.706894
6.1219354,2.7299082,-4.2344627,0.8341864,-0.4329846,3.2468739,-18.562887,14.057972
6.121319,2.725532,-4.2344627,0.8341864,-0.4329846,3.2408857,-18.601408,14.039984
6.1206975,2.7216058,-3.8413801,0.83205587,-0.390374,3.239646,-18.942312,14.387529
6.1200795,2.7176826,-3.8413801,0.83205587,-0.390374,3.2336416,-18.976658,14.371021
6.1194572,2.714184,-3.4333837,0.8214032,-0.34456763,3.17972,-19.213085,14.672123
6.1188326,2.71066,-3.4333837,0.8214032,-0.34456763,3.1736546,-19.243774,14.6569805
6.118213,2.7075906,-3.0062127,0.8011632,-0.29663074,3.0479279,-19.452362,14.906942
6.117595,2.7045207,-3.0062127,0.8011632,-0.29663074,3.041934,-19.478962,14.893463
6.1169806,2.7018769,-2.5609322,0.7713358,-0.2497591,2.8827372,-19.631054,15.077997
6.1163716,2.6992507,-2.5609322,0.7713358,-0.2497591,2.8768291,-19.653675,15.066219
6.1157856,2.6971138,-2.0964768,0.72979045,-0.20288746,2.7897415,-19.7103,15.190535
6.115197,2.6949635,-2.0964768,0.72979045,-0.20288746,2.7840338,-19.72871,15.180664
6.114641,2.6933036,-1.6181731,0.67439675,-0.15814635,2.697235,-19.71889,15.120205
6.1140857,2.6916432,-1.6181731,0.67439675,-0.15814635,2.6918478,-19.733,15.112387
6.1135683,2.6904862,-1.1249557,0.6094156,-0.11020945,2.6245775,-19.737938,15.130667
6.1130524,2.6893325,-1.1249557,0.6094156,-0.11020945,2.6195784,-19.747631,15.125008
6.1125784,2.68869,-0.6210856,0.5369776,-0.06227255,2.6580753,-19.767254,14.977924
6.112092,2.6880307,-0.6210856,0.5369776,-0.06227255,2.6533546,-19.772644,14.974388
6.111679,2.6879184,-0.10975863,0.45921332,-0.013270383,2.7163963,-19.75896,14.729092
6.1112547,2.6878028,-0.10975863,0.45921332,-0.013270383,2.7122831,-19.759653,14.727955
6.11088,2.6882164,0.40476412,0.37931848,0.036797047,2.7613182,-19.75098,14.437054
6.1105056,2.6886299,0.40476412,0.37931848,0.036797047,2.7576857,-19.7471,14.438236
6.1101785,2.6895738,0.91928685,0.3004889,0.08792974,2.8502836,-19.67638,14.154432
6.109852,2.6905158,0.91928685,0.3004889,0.08792974,2.8471193,-19.667923,14.157923
6.109568,2.691982,1.4284832,0.22805092,0.13799717,2.8300037,-19.535208,13.986504
6.109285,2.6934454,1.4284832,0.22805092,0.13799717,2.827262,-19.522224,13.99222
6.1090374,2.6954305,1.9291575,0.16200452,0.19019513,2.901473,-19.351463,13.679338
6.1087904,2.6974118,1.9291575,0.16200452,0.19019513,2.8990831,-19.333954,13.687223
6.1085734,2.699894,2.4159834,0.103414975,0.24452361,2.834731,-19.16841,13.371588
6.108357,2.7023766,2.4159834,0.103414975,0.24452361,2.832631,-19.14649,13.381506
6.1081676,2.7053425,2.885765,0.048021223,0.29885212,2.9074163,-19.053288,13.15877
6.1079793,2.7083058,2.885765,0.048021223,0.29885212,2.9055862,-19.027107,13.170567
6.1078153,2.7117388,3.3395677,-0.0031114696,0.35211533,3.0380735,-18.92974,12.983116
6.107652,2.7151723,3.3395677,-0.0031114696,0.35211533,3.0364943,-18.89936,12.996668
6.107514,2.7190523,3.7731304,-0.05104837,0.40218276,2.7047548,-18.745293,12.686317
6.10738,2.7228742,3.7731304,-0.05104837,0.40218276,2.703454,-18.711405,12.701235
6.1072683,2.7272458,4.1853876,-0.09898527,0.44372806,3.2530413,-18.433174,12.550604
6.1071634,2.731433,4.1853876,-0.09898527,0.44372806,3.2520247,-18.395933,12.566689
6.107079,2.7361524,4.577405,-0.13946532,0.48314285,3.0740356,-18.157578,12.364418
6.1069937,2.7410698,4.577405,-0.13946532,0.48314285,3.0732136,-18.113699,12.382967
6.1069307,2.7460637,4.943856,-0.16929272,0.51723135,2.799656,-17.66683,12.190922
6.106869,2.7511292,4.943856,-0.16929272,0.51723135,2.7990627,-17.62146,12.209623
6.1068206,2.7565594,5.2815447,-0.19272855,0.54386294,3.0380173,-17.256699,12.085787
6.1067758,2.7619734,5.2815447,-0.19272855,0.54386294,3.0375805,-17.208008,12.105284
6.1067395,2.76769,5.5904713,-0.20870751,0.5694293,2.8744211,-16.749474,11.977156
6.1067066,2.7734125,5.5904713,-0.20870751,0.5694293,2.8741035,-16.697792,11.997204
6.1066766,2.7794414,5.8695707,-0.2150991,0.59073454,2.4715853,-16.451681,12.022791
6.106651,2.7854588,5.8695707,-0.2150991,0.59073454,2.4713373,-16.397099,12.043245
6.106634,2.7917385,6.124169,-0.22681701,0.604583,2.782422,-16.39268,12.423378
6.1066213,2.7980185,6.124169,-0.22681701,0.604583,2.782298,-16.335457,12.444027
6.106621,2.804537,6.3606577,-0.23853491,0.6141704,2.6577969,-16.07961,12.532145
6.106625,2.8110623,6.3606577,-0.23853491,0.6141704,2.6578398,-16.019894,12.55286
6.106638,2.817804,6.5822325,-0.2449265,0.62056196,2.3275614,-15.541462,12.5547085
6.1066556,2.8245459,6.5822325,-0.2449265,0.62056196,2.327733,-15.47949,12.575314
6.1066866,2.8314867,6.787829,-0.25557914,0.6226925,2.3663397,-14.98459,12.711021
6.106723,2.8384345,6.787829,-0.25557914,0.6226925,2.3666906,-14.920447,12.731401
6.1067753,2.8455656,6.9721193,-0.26729706,0.6194967,2.4342346,-14.571952,12.952988
6.106832,2.8527038,6.9721193,-0.26729706,0.6194967,2.4347868,-14.505764,12.973015
6.106901,2.8599977,7.1361704,-0.27368864,0.6152356,2.4498215,-14.155479,13.2324295
6.1069756,2.8672915,7.1361704,-0.27368864,0.6152356,2.4505405,-14.087569,13.2519455
6.1070533,2.8747272,7.279981,-0.27049285,0.6109746,2.235816,-13.80271,13.462866
6.107136,2.8821633,7.279981,-0.27049285,0.6109746,2.2366161,-13.733189,13.481739
6.107216,2.8897238,7.4067473,-0.2598402,0.604583,1.9213581,-13.499555,13.687145
6.107301,2.897284,7.4067473,-0.2598402,0.604583,1.922183,-13.428588,13.705273
6.1073823,2.9049537,7.5186,-0.24812229,0.5992567,1.5829926,-13.231956,14.091814
6.107468,2.9126158,7.5186,-0.24812229,0.5992567,1.5838223,-13.159756,14.109076
6.107555,2.9203823,7.6176696,-0.2417307,0.59393036,1.4553757,-12.928427,14.442053
6.1076493,2.9284048,7.6176696,-0.2417307,0.59393036,1.4562912,-12.852557,14.45896
6.1077423,2.9360068,7.7060866,-0.23960018,0.59073454,1.1842575,-12.713511,14.800041
6.1078434,2.943852,7.7060866,-0.23960018,0.59073454,1.1852341,-12.639071,14.8154335
6.107951,2.9517837,7.7859817,-0.24066544,0.58860403,1.0857229,-12.458347,15.112928
6.108064,2.9597154,7.7859817,-0.24066544,0.58860403,1.0868158,-12.382854,15.127321
6.1081843,2.967718,7.857354,-0.24279597,0.5896693,0.9395418,-12.000117,15.256166
6.1083064,2.9755363,7.857354,-0.24279597,0.5896693,0.9407244,-11.925486,15.26919
6.1084437,2.9837053,7.9191394,-0.24812229,0.59179986,0.75051785,-11.435601,15.267818
6.108586,2.9918659,7.9191394,-0.24812229,0.59179986,0.75189686,-11.357492,15.280176
6.1087418,2.9999778,7.9670763,-0.25770968,0.5960609,0.40384865,-10.74824,15.334942
6.108901,3.0080407,7.9670763,-0.25770968,0.5960609,0.40539837,-10.670882,15.345934
6.1090813,3.0161965,8.002231,-0.2715581,0.6013872,0.004916191,-10.108915,15.193632
6.109267,3.0243766,8.002231,-0.2715581,0.6013872,0.006717682,-10.030261,15.203541
6.109479,3.0325425,8.019275,-0.29179814,0.60884404,-0.5993557,-9.501558,15.026093
6.109696,3.040708,8.019275,-0.29179814,0.60884404,-0.5972538,-9.422888,15.03474
6.1099463,3.0488667,8.010753,-0.31949502,0.62056196,-1.0545115,-8.764824,14.827333
6.1102023,3.0570254,8.010753,-0.31949502,0.62056196,-1.0520325,-8.686092,14.834772
6.1104984,3.0651484,7.9724026,-0.35464874,0.6354757,-1.3843489,-8.009096,14.439373
6.1108007,3.0732791,7.9724026,-0.35464874,0.6354757,-1.3814182,-7.9305234,14.445586
6.111167,3.0818703,7.8978343,-0.38980246,0.6557157,-1.7992501,-7.3255095,14.073236
6.111499,3.089535,7.8978343,-0.38980246,0.6557157,-1.79603,-7.2513475,14.077948
6.11188,3.0973227,7.7806554,-0.4217604,0.6802168,-2.3860989,-6.6683903,13.636906
6.1122704,3.105189,7.7806554,-0.4217604,0.6802168,-2.3823123,-6.592204,13.640628
6.1127105,3.1130178,7.6208653,-0.45797938,0.7068484,-2.7036574,-5.8890715,13.203304
6.113151,3.1207604,7.6208653,-0.45797938,0.7068484,-2.6993825,-5.814027,13.205894
6.11364,3.1283326,7.4152694,-0.49739417,0.73348,-2.7664697,-5.0558705,12.748266
6.1141343,3.1359117,7.4152694,-0.49739417,0.73348,-2.7616723,-4.9823694,12.7497835
6.114672,3.1432455,7.163867,-0.53467846,0.76011163,-2.5266106,-4.044534,11.927214
6.115216,3.1505783,7.163867,-0.53467846,0.76011163,-2.5213382,-3.9733958,11.9277315
6.115795,3.1576235,6.8634624,-0.5687669,0.78035164,-1.826189,-2.9760857,10.591864
6.1163797,3.1646678,6.8634624,-0.5687669,0.78035164,-1.8205161,-2.9077294,10.591485
6.1169777,3.1713867,6.502338,-0.5964638,0.78567797,-0.9671674,-1.8082309,8.967466
6.1175795,3.1780913,6.502338,-0.5964638,0.78567797,-0.9613271,-1.7431679,8.966288
6.118146,3.184375,6.0709057,-0.61776906,0.77076423,-0.29502773,-0.64310753,7.336725
6.119883,3.2026145,5.56384,-0.6380091,0.73561054,0.31559688,0.635193,5.596926
6.119883,3.2026145,5.56384,-0.6380091,0.73561054,0.31559688,0.635193,5.596926
6.119883,3.2026145,5.56384,-0.6380091,0.73561054,0.31559688,0.635193,5.596926
6.1204796,3.2074754,4.976879,-0.6593144,0.67489046,0.85290194,1.8603026,3.8806393
6.121074,3.2122898,4.976879,-0.6593144,0.67489046,0.85867655,1.9070088,3.8783932
6.121074,3.2122898,4.976879,-0.6593144,0.67489046,0.85867655,1.9070088,3.8783932
6.1225038,3.2216213,4.3089585,-0.68061966,0.59073454,1.437592,3.2042267,2.2361882
6.123085,3.2246132,3.557947,-0.6997944,0.4820776,1.8789837,4.3729076,0.8508853
6.123772,3.2281415,3.557947,-0.6997944,0.4820776,1.8856615,4.4071527,0.84905195
6.1244698,3.2307885,2.729171,-0.71683866,0.3499848,2.1127007,5.4958916,-0.26781738
6.1244698,3.2307885,2.729171,-0.71683866,0.3499848,2.1127007,5.4958916,-0.26781738
6.1244698,3.2307885,2.729171,-0.71683866,0.3499848,2.1127007,5.4958916,-0.26781738
6.1269608,3.2365339,0.87667626,-0.71896917,0.034666516,2.251833,6.926114,-1.2651141
6.127261,3.2368653,0.87667626,-0.71896917,0.034666516,2.2547565,6.929365,-1.2649635
6.127261,3.2368653,0.87667626,-0.71896917,0.034666516,2.2547565,6.929365,-1.2649635
6.1289797,3.238759,0.87667626,-0.71896917,0.034666516,2.2714634,6.947942,-1.2641307
6.1296263,3.237757,-1.146261,-0.6593144,-0.30302233,2.7039165,6.718071,-0.8552091
6.12995,3.2370265,-1.146261,-0.6593144,-0.30302233,2.7070646,6.7110453,-0.85404205
6.1304216,3.2359629,-1.146261,-0.6593144,-0.30302233,2.711651,6.700816,-0.8523574
6.1309147,3.2336416,-2.1763716,-0.6028554,-0.47026885,2.8840394,5.859591,0.0076037645
6.1314163,3.2312856,-2.1763716,-0.6028554,-0.47026885,2.8889172,5.836836,0.010426283
6.1318245,3.2278922,-3.189438,-0.5325479,-0.62579745,2.8785262,4.7026753,1.1823022
6.1318245,3.2278922,-3.189438,-0.5325479,-0.62579745,2.8854592,4.6457686,1.1881168
6.132611,3.22096,-4.164155,-0.4547836,-0.77280396,2.7425199,3.1703143,2.8123095
6.1329246,3.2164774,-4.164155,-0.4547836,-0.77280396,2.7455747,3.1268704,2.8161318
6.1331224,3.2112236,-5.081348,-0.3738235,-0.9038315,2.603846,1.3903909,4.606187
6.133325,3.2059605,-5.081348,-0.3738235,-0.9038315,2.6058195,1.3393188,4.609914
6.1334543,3.199873,-5.923972,-0.29179814,-1.0178148,2.5400379,-0.4340377,6.39502
6.1335917,3.1937196,-5.923972,-0.29179814,-1.0178148,2.5413728,-0.49380612,6.398521
6.1336794,3.186973,-6.68031,-0.2119033,-1.1179496,2.336328,-2.149117,8.053846
6.1337757,3.180186,-6.68031,-0.2119033,-1.1179496,2.3372664,-2.2150931,8.056766
6.1338263,3.172694,-7.3450346,-0.134139,-1.199975,2.0456624,-3.7436209,9.874178
6.1338854,3.165232,-7.3450346,-0.134139,-1.199975,2.0462399,-3.8162026,9.876255
6.133896,3.1571534,-7.917082,-0.06063575,-1.2649561,1.3663859,-5.2116036,11.50108
6.1339164,3.149083,-7.917082,-0.06063575,-1.2649561,1.3665857,-5.2901278,11.502012
6.133891,3.140524,-8.39219,0.0011495883,-1.3150235,1.3519735,-6.474745,13.091991
6.133877,3.1319816,-8.39219,0.0011495883,-1.3150235,1.3518372,-6.557864,13.091534
6.133831,3.1230555,-8.775685,0.046955958,-1.3512425,1.6195412,-7.6598506,14.689564
6.133797,3.1140933,-8.775685,0.046955958,-1.3512425,1.6192102,-7.747032,14.68751
6.133733,3.1048384,-9.071829,0.0938276,-1.369352,1.2498751,-8.861753,16.039639
6.133681,3.0956018,-9.071829,0.0938276,-1.369352,1.2493763,-8.95155,16.035849
6.1335983,3.086142,-9.282751,0.14069924,-1.3757436,0.73142433,-9.905382,17.161125
6.133529,3.0766819,-9.282751,0.14069924,-1.3757436,0.73074913,-9.997255,17.155485
6.133442,3.0670898,-9.412713,0.17265716,-1.3746784,0.677227,-10.779879,18.19273
6.1333675,3.0574973,-9.412713,0.17265716,-1.3746784,0.67650604,-10.872913,18.185232
6.1332936,3.0478575,-9.470238,0.18437508,-1.3618952,0.96308994,-11.483471,18.885475
6.1332326,3.0381882,-9.470238,0.18437508,-1.3618952,0.96249676,-11.577084,18.876131
6.1331773,3.0285592,-9.461716,0.1897014,-1.3384594,1.0433617,-12.091593,19.387861
6.133135,3.0189393,-9.461716,0.1897014,-1.3384594,1.0429525,-12.184536,19.376808
6.133097,3.0093486,-9.3977995,0.19396245,-1.3096973,1.277216,-12.478194,19.537273
6.133072,2.9997768,-9.3977995,0.19396245,-1.3096973,1.276967,-12.57044,19.524506
6.1330442,2.9903278,-9.289143,0.20354983,-1.2745435,1.6262474,-12.78588,19.54935
6.133028,2.9808595,-9.289143,0.20354983,-1.2745435,1.6260939,-12.876876,19.535007
6.132994,2.9715607,-9.144266,0.22698565,-1.2340635,1.6928034,-13.1097555,19.35247
6.1329722,2.962252,-9.144266,0.22698565,-1.2340635,1.6925898,-13.19894,19.336708
6.1329136,2.953114,-8.970629,0.26640043,-1.1871918,2.1229725,-13.55448,19.248539
6.1328654,2.9439847,-8.970629,0.26640043,-1.1871918,2.122507,-13.641636,19.231432
6.1327643,2.9350762,-8.773555,0.32179418,-1.1371244,2.1981354,-13.846222,18.988838
6.1326733,2.9261317,-8.773555,0.32179418,-1.1371244,2.1972494,-13.931285,18.970482
6.132511,2.9174304,-8.55411,0.3931669,-1.0806653,1.9945621,-14.167076,18.779404
6.132359,2.9087286,-8.55411,0.3931669,-1.0806653,1.9930782,-14.249477,18.760002
6.132129,2.9002757,-8.31123,0.4688007,-1.0199453,1.8807096,-14.472977,18.548822
6.1319084,2.8918223,-8.31123,0.4688007,-1.0199453,1.8785658,-14.552667,18.528519
6.1316133,2.883642,-8.043848,0.5380429,-0.95496416,2.1103287,-14.859425,18.776262
6.131327,2.8754606,-8.043848,0.5380429,-0.95496416,2.1075401,-14.936175,18.755241
6.1309643,2.8675776,-7.751966,0.6072851,-0.88678724,2.1758375,-15.598901,19.265772
6.1305985,2.859441,-7.751966,0.6072851,-0.88678724,2.1722765,-15.674843,19.243515
6.1301737,2.852115,-7.42706,0.68078834,-0.8111535,2.1633587,-16.65761,20.07516
6.129743,2.8445685,-7.42706,0.68078834,-0.8111535,2.159173,-16.727674,20.053322
6.1292276,2.8374047,-7.059544,0.7532263,-0.72699755,1.9865675,-18.019814,20.936968
6.128717,2.830218,-7.059544,0.7532263,-0.72699755,1.9816036,-18.086176,20.915066
6.128118,2.823462,-6.6387644,0.82246846,-0.6332543,2.0811262,-19.618391,21.88507
6.127527,2.8167317,-6.6387644,0.82246846,-0.6332543,2.075385,-19.680183,21.863535
6.12684,2.8104637,-6.155134,0.8906454,-0.5256626,2.2123547,-21.5236,22.958607
6.1261587,2.8042006,-6.155134,0.8906454,-0.5256626,2.2057362,-21.580765,22.937656
6.12538,2.7985303,-5.59374,0.9588223,-0.40635297,2.4806776,-23.336977,23.636385
6.1246023,2.7928355,-5.59374,0.9588223,-0.40635297,2.4731236,-23.38863,23.616507
6.1237125,2.7878153,-4.946059,1.0355214,-0.27426016,2.4022312,-25.34452,24.177805
6.122827,2.7827988,-4.946059,1.0355214,-0.27426016,2.3936234,-25.389708,24.159508
6.1218204,2.7785358,-4.20357,1.1154162,-0.13471054,2.0390806,-26.897924,24.2248
6.1208177,2.7742803,-4.20357,1.1154162,-0.13471054,2.0293474,-26.935963,24.208565
6.1196895,2.7708683,-3.3630762,1.1910499,0.013361229,1.6305313,-28.182465,23.792706
6.118565,2.767462,-3.3630762,1.1910499,0.013361229,1.6196117,-28.212608,23.778988
6.1173224,2.7650084,-2.43097,1.2570964,0.17102037,1.4303837,-28.866095,23.083645
6.1160808,2.762554,-2.43097,1.2570964,0.17102037,1.4183311,-28.887484,23.072971
6.1147227,2.761125,-1.4200339,1.3092943,0.33400583,1.3620625,-29.12459,21.959646
6.113323,2.7596517,-1.4200339,1.3092943,0.33400583,1.3484879,-29.136995,21.952179
6.1119227,2.7593358,-0.34944314,1.3487091,0.49273023,1.1720963,-28.866018,20.608099
6.110493,2.7590132,-0.34944314,1.3487091,0.49273023,1.1582394,-28.868029,20.604704
6.108972,2.7598128,0.7520403,1.3710797,0.64506304,0.97589684,-28.318779,19.092064
6.107452,2.7606122,0.7520403,1.3710797,0.64506304,0.961174,-28.310623,19.092533
6.1058702,2.7625546,1.8620459,1.3721449,0.7910043,1.1996403,-27.468534,17.315691
6.1042924,2.764494,1.8620459,1.3721449,0.7910043,1.1843567,-27.450062,17.320066
6.1026826,2.7675505,2.9571378,1.3551008,0.9284234,1.4848061,-26.631407,15.705009
6.101069,2.7706177,2.9571378,1.3551008,0.9284234,1.4691868,-26.602713,15.713154
6.0994415,2.7747717,4.0149455,1.3231428,1.0530593,1.6258183,-25.8507,14.408119
6.0978203,2.7789154,4.0149455,1.3231428,1.0530593,1.6101437,-25.812214,14.419687
6.096201,2.7841084,5.0184245,1.2752059,1.1638469,1.7094021,-25.045918,13.505669
6.094589,2.7892885,5.0184245,1.2752059,1.1638469,1.6938248,-24.997934,13.520292
6.0930023,2.7954457,5.9569225,1.2123553,1.2629164,1.9131241,-24.356834,12.503595
6.091424,2.8015938,5.9569225,1.2123553,1.2629164,1.8978729,-24.299904,12.520798
6.0898886,2.808625,6.821917,1.1420478,1.3492029,2.203867,-23.727276,11.587601
6.0883536,2.8156884,6.821917,1.1420478,1.3492029,2.189043,-23.661804,11.606903
6.086871,2.823552,7.6048865,1.0706751,1.4205756,2.46204,-23.114853,10.823782
6.0853996,2.831404,7.6048865,1.0706751,1.4205756,2.4478436,-23.041918,10.844496
6.0839815,2.8399937,8.304766,1.0024981,1.4770346,2.5442963,-22.502388,9.995344
6.0825768,2.8485622,8.304766,1.0024981,1.4770346,2.5307446,-22.422573,10.01692
6.081221,2.8578005,8.921554,0.94390863,1.5164493,2.5751362,-21.88631,9.259187
6.0798793,2.867025,8.921554,0.94390863,1.5164493,2.5622063,-21.800116,9.28114
6.078594,2.8767965,9.4541855,0.8906454,1.5388199,2.4301128,-21.181952,8.441839
6.0773215,2.8865726,9.4541855,0.8906454,1.5388199,2.4178505,-21.09028,8.463575
6.0760884,2.8969965,9.906923,0.8395127,1.5441463,2.1952858,-20.44651,7.7533607
6.074911,2.9070666,9.906923,0.8395127,1.5441463,2.1839466,-20.351755,7.774042
6.0737815,2.9176602,10.280831,0.7894453,1.5345589,1.8378887,-19.466623,7.0623503
6.0726643,2.9282794,10.280831,0.7894453,1.5345589,1.8271294,-19.366358,7.0822763
6.071622,2.9392264,10.583366,0.7329863,1.5057968,1.1802502,-18.491928,6.50336
6.070596,2.9501555,10.583366,0.7329863,1.5057968,1.1703854,-18.38841,6.521845
6.069641,2.9616044,10.814528,0.66054827,1.4589251,1.1085224,-17.499313,6.27207
6.068745,2.9725208,10.814528,0.66054827,1.4589251,1.0999088,-17.395618,6.2884564
6.067949,2.9836936,10.9785795,0.57745767,1.3918134,0.6804476,-16.59026,6.0217705
6.0671444,2.9951868,10.9785795,0.57745767,1.3918134,0.67271614,-16.480804,6.0368404
6.0664735,3.006591,11.08191,0.48477966,1.305527,0.072509766,-15.639463,5.8305445
6.065816,3.0180209,11.08191,0.48477966,1.305527,0.06618786,-15.530373,5.8433213
6.0652924,3.0294828,11.129847,0.37612268,1.2021964,-0.048973083,-14.745715,5.6971474
6.064783,3.0409355,11.129847,0.37612268,1.2021964,-0.05386734,-14.636197,5.7077456
6.0644174,3.0523763,11.126651,0.2557478,1.0818214,-0.05259037,-13.554675,5.5450087
6.064065,3.0637958,11.126651,0.2557478,1.0818214,-0.055978775,-13.44531,5.553404
6.063848,3.075181,11.071257,0.1353729,0.9465329,0.5261278,-11.961942,5.3645005
6.063642,3.0865788,11.071257,0.1353729,0.9465329,0.5241461,-11.85265,5.3706975
6.06357,3.0976005,10.955143,0.026715934,0.7931348,-0.25226974,-9.975215,4.556961
6.063505,3.1087909,10.955143,0.026715934,0.7931348,-0.25288963,-9.867822,4.560951
6.0635486,3.1197877,10.769787,-0.07128839,0.62056196,-0.10403252,-7.8612576,4.3340826
6.063599,3.1308289,10.769787,-0.07128839,0.62056196,-0.103547096,-7.7552395,4.3359175
6.0637383,3.1414797,10.500276,-0.17248851,0.42348805,1.0326395,-6.2068553,4.4947863
6.0638824,3.152173,10.500276,-0.17248851,0.42348805,1.0340247,-6.104157,4.494559
6.064093,3.1625025,10.144477,-0.2502528,0.2029783,0.6673436,-3.610751,4.04334
6.064306,3.1728313,10.144477,-0.2502528,0.2029783,0.669384,-3.511566,4.0412083
6.0645437,3.1826158,9.690675,-0.30671185,-0.03883673,0.08269644,-1.2197461,3.61694
6.064779,3.1923788,9.690675,-0.30671185,-0.03883673,0.0849545,-1.1260401,3.6131363
6.065049,3.2013102,9.132476,-0.3738235,-0.30302233,0.42752764,1.6028583,3.2929406
6.06532,3.2102928,9.132476,-0.3738235,-0.30302233,0.4301285,1.6890156,3.287979
6.065681,3.2185175,8.458163,-0.4302825,-0.57146895,0.16544962,4.0327973,2.87119
6.0660357,3.2267091,8.458163,-0.4302825,-0.57146895,0.16885996,4.1113086,2.8655715
6.0664144,3.2340539,7.6698675,-0.47502363,-0.8399156,0.17728233,5.7522764,3.022917
6.066787,3.2414129,7.6698675,-0.47502363,-0.8399156,0.18086243,5.822747,3.0169144
6.0671706,3.2478468,6.7803717,-0.5037858,-1.0998402,-0.4714594,6.952153,2.8868623
6.067546,3.2542553,6.7803717,-0.5037858,-1.0998402,-0.46785545,7.013465,2.880919
6.0679083,3.259649,5.809916,-0.52296054,-1.3448509,-0.64633036,7.797681,2.8134575
6.0682626,3.2650428,5.809916,-0.52296054,-1.3448509,-0.64292,7.849245,2.8079495
6.068592,3.2693555,4.775544,-0.5378742,-1.5685565,-0.22795105,8.287906,2.6980991
6.0689135,3.2736557,4.775544,-0.5378742,-1.5685565,-0.22485876,8.328987,2.6934085
6.069382,3.2788472,3.6974967,-0.54533106,-1.7709568,0.3590417,8.589277,2.5248742
6.069497,3.2801468,3.6974967,-0.54533106,-1.7709568,0.36014795,8.601687,2.523388
6.06974,3.2821789,1.4742897,-0.53148264,-2.1235592,0.77428627,8.755182,2.4685006
6.06974,3.2821789,1.4742897,-0.53148264,-2.1235592,0.77428627,8.755182,2.4685006
6.06974,3.2821789,1.4742897,-0.53148264,-2.1235592,0.77428627,8.755182,2.4685006
6.0704846,3.285511,1.4742897,-0.53148264,-2.1235592,1.1501546,8.562074,2.594781
6.0705414,3.285441,0.36321878,-0.5197647,-2.2790878,1.3565984,8.302849,3.0403175
6.070702,3.285197,0.36321878,-0.5197647,-2.2790878,1.3581495,8.300573,3.0409803
6.0708265,3.2838695,-0.7286773,-0.49739417,-2.416507,0.5405259,7.9671497,3.4404936
6.0708265,3.2838695,-0.7286773,-0.49739417,-2.416507,0.5405259,7.9671497,3.4404936
6.071059,3.2787068,-1.7886155,-0.484611,-2.541143,-0.01747942,7.434411,4.0560136
6.0711675,3.27649,-1.7886155,-0.484611,-2.541143,-0.016435146,7.413313,4.059127
6.07129,3.2729354,-2.8048778,-0.49526364,-2.650865,-0.034411907,6.8718843,5.050325
6.071416,3.2695417,-2.8048778,-0.49526364,-2.650865,-0.0332036,6.839545,5.054809
6.0715566,3.2652485,-3.7668116,-0.5197647,-2.7403474,0.035190344,6.1090746,6.233438
6.071751,3.2598236,-3.7668116,-0.5197647,-2.7403474,0.037060976,6.057314,6.240133
6.0719266,3.2546926,-4.668025,-0.5463963,-2.8095896,0.24944234,5.22781,7.4624395
6.0720863,3.2503505,-4.668025,-0.5463963,-2.8095896,0.2509786,5.1863256,7.4673944
6.0723114,3.2442307,-5.501062,-0.56983215,-2.8628528,-0.058105767,4.2323895,8.532308
6.072555,3.2380748,-5.501062,-0.56983215,-2.8628528,-0.05575943,4.173498,8.538693
6.072837,3.2311208,-6.2627263,-0.59752905,-2.903333,0.095394224,3.1540332,9.66118
6.0733232,3.2201512,-6.2627263,-0.59752905,-2.903333,0.10007581,3.0489213,9.671038
6.073483,3.2168,-6.9466257,-0.63268274,-2.9331603,0.527778,2.0351658,10.899671
6.073857,3.2092776,-6.9466257,-0.63268274,-2.9331603,0.5313772,1.9630053,10.905602
6.07429,3.2011712,-7.554892,-0.66251016,-2.9480739,0.6504674,0.7263944,12.142073
6.074757,3.1928864,-7.554892,-0.66251016,-2.9480739,0.65496683,0.64681625,12.147436
6.0752726,3.1841915,-8.084329,-0.6838155,-2.9502044,0.66471815,-0.62906504,13.378246
6.0758147,3.1754904,-8.084329,-0.6838155,-2.9502044,0.66993475,-0.71274185,13.38255
6.0764036,3.1663604,-8.5328045,-0.6997944,-2.940617,0.6612401,-1.9928999,14.468498
6.0770206,3.1572149,-8.5328045,-0.6997944,-2.940617,0.6671834,-2.080937,14.471519
6.077682,3.14771,-8.9024515,-0.71364284,-2.9193118,0.82199526,-3.3552032,15.618271
6.07837,3.1382275,-8.9024515,-0.71364284,-2.9193118,0.82862234,-3.4465535,15.619774
6.0790997,3.1284525,-9.19753,-0.72536075,-2.8852234,1.0128231,-4.5654626,16.592503
6.0802464,3.1135623,-9.418039,-0.7285566,-2.8383517,1.081336,-5.6762304,17.410654
6.080681,3.1081254,-9.418039,-0.7285566,-2.8383517,1.0855236,-5.728635,17.4099
6.081494,3.098222,-9.418039,-0.7285566,-2.8383517,1.0933619,-5.824093,17.40784
6.081494,3.098222,-9.418039,-0.7285566,-2.8383517,1.0933619,-5.824093,17.40784
6.0837374,3.0719333,-9.571438,-0.7242955,-2.778697,1.2969532,-6.9058185,18.216728
6.0845876,3.0622683,-9.66092,-0.7125776,-2.7051938,1.3386717,-7.7123814,18.877022
6.085091,3.0566742,-9.66092,-0.7125776,-2.7051938,1.3435287,-7.766243,18.873566
6.0859284,3.0472739,-9.693943,-0.6912723,-2.6231682,1.3324566,-8.393027,19.475195
6.0868435,3.0372763,-9.693943,-0.6912723,-2.6231682,1.3412838,-8.489201,19.467373
6.087737,3.0274217,-9.673703,-0.6635754,-2.5272944,1.3355465,-8.99095,20.02374
6.0886745,3.0173578,-9.673703,-0.6635754,-2.5272944,1.344595,-9.087624,20.01396
6.089596,3.0073469,-9.603395,-0.63268274,-2.4239638,1.477992,-9.504524,20.510809
6.0905485,2.9972591,-9.603395,-0.63268274,-2.4239638,1.4871874,-9.601246,20.499062
6.091466,2.9873815,-9.487282,-0.59752905,-2.3131764,1.4960527,-9.796408,20.788256
6.0924063,2.9774973,-9.487282,-0.59752905,-2.3131764,1.5051384,-9.890965,20.774857
6.0933123,2.9677863,-9.328557,-0.55917954,-2.1970625,1.4516401,-10.117819,21.048046
6.094238,2.9580789,-9.328557,-0.55917954,-2.1970625,1.4605856,-10.210442,21.033054
6.095122,2.9485886,-9.135744,-0.5197647,-2.074557,1.6079941,-10.410993,21.386211
6.096023,2.939111,-9.135744,-0.5197647,-2.074557,1.6167059,-10.501154,21.369823
6.096878,2.9298763,-8.907778,-0.47928467,-1.9488559,1.6297579,-10.718139,21.625923
6.09775,2.9206355,-8.907778,-0.47928467,-1.9488559,1.638196,-10.805764,21.608297
6.09857,2.9116895,-8.645722,-0.43773937,-1.8231547,1.6987934,-11.053235,21.815458
6.0994034,2.9027553,-8.645722,-0.43773937,-1.8231547,1.7068558,-11.137647,21.796843
6.1001816,2.8941286,-8.352775,-0.39619404,-1.6963882,1.6760817,-11.34828,21.931343
6.100974,2.8854954,-8.352775,-0.39619404,-1.6963882,1.6837482,-11.429534,21.911898
6.101703,2.877226,-8.0289345,-0.3525182,-1.5685565,1.6524982,-11.713102,21.950018
6.1024456,2.8689423,-8.0289345,-0.3525182,-1.5685565,1.6596823,-11.79076,21.930021
6.1031303,2.8609762,-7.6784625,-0.31203815,-1.44179,1.699831,-12.037653,21.977156
6.1038146,2.8531382,-7.6784625,-0.31203815,-1.44179,1.7064571,-12.110826,21.95701
6.10444,2.845636,-7.3024244,-0.27368864,-1.312893,1.7843413,-12.48716,21.85573
6.105075,2.8381348,-7.3024244,-0.27368864,-1.312893,1.7904854,-12.55689,21.835346
6.105641,2.8310552,-6.9029503,-0.23427385,-1.183996,1.9827161,-12.8428135,21.600088
6.1062145,2.8239768,-6.9029503,-0.23427385,-1.183996,1.9882722,-12.908327,21.579855
6.106732,2.817129,-6.4811053,-0.19272855,-1.0572295,2.0890503,-13.196605,21.205421
6.1072235,2.8107,-6.4811053,-0.19272855,-1.0572295,2.093812,-13.255845,21.18618
6.1076555,2.8045077,-6.0422163,-0.15118323,-0.92513674,2.1506686,-13.638381,20.793724
6.108089,2.798365,-6.0422163,-0.15118323,-0.92513674,2.1548705,-13.694736,20.774576
6.1084437,2.7926674,-5.5884137,-0.10857265,-0.7919787,2.2971702,-14.053337,20.368559
6.1088023,2.7869697,-5.5884137,-0.10857265,-0.7919787,2.3006496,-14.105381,20.35011
6.109075,2.781766,-5.121828,-0.06489681,-0.6534943,2.3990612,-14.526283,19.892378
6.1093516,2.7765522,-5.121828,-0.06489681,-0.6534943,2.4017372,-14.573699,19.874903
6.1095376,2.7718484,-4.639263,-0.020155702,-0.51074886,2.3652353,-15.190967,19.55237
6.109726,2.767145,-4.639263,-0.020155702,-0.51074886,2.3670568,-15.233547,19.536081
6.1098194,2.7629628,-4.1407194,0.02565067,-0.36267713,2.4254255,-15.922525,19.272326
6.109914,2.7587807,-4.1407194,0.02565067,-0.36267713,2.426344,-15.96022,19.257423
6.1099057,2.7551394,-3.624066,0.073587574,-0.20288746,2.6321611,-16.744707,19.08615
6.1098976,2.751498,-3.624066,0.073587574,-0.20288746,2.6320877,-16.777369,19.072771
6.109777,2.748418,-3.0871727,0.12791605,-0.0367062,2.6692257,-17.623701,18.941484
6.109657,2.7453382,-3.0871727,0.12791605,-0.0367062,2.6680574,-17.651175,18.929802
6.1094165,2.742845,-2.5257785,0.1865056,0.13480137,2.6800947,-18.602247,18.723747
6.109176,2.7403514,-2.5257785,0.1865056,0.13480137,2.677764,-18.624348,18.713964
6.1088147,2.7384777,-1.9345566,0.24296463,0.3116353,2.77003,-19.584131,18.380674
6.1084523,2.7366002,-1.9345566,0.24296463,0.3116353,2.7665195,-19.600618,18.372955
6.1079664,2.7353735,-1.3124422,0.29942364,0.49379548,2.924614,-20.439602,18.09456
6.107479,2.7341459,-1.3124422,0.29942364,0.49379548,2.9198933,-20.450195,18.08908
6.106866,2.733599,-0.66050035,0.35907844,0.67489046,2.904375,-21.36444,17.597607
6.1062527,2.7330527,-0.66050035,0.35907844,0.67489046,2.8984385,-21.368874,17.594528
6.105511,2.7332163,0.022334166,0.42086378,0.85492015,2.8625202,-22.20009,17.19653
6.104768,2.7333803,0.022334166,0.42086378,0.85492015,2.8553305,-22.198122,17.195984
6.103885,2.7342918,0.7286045,0.4837144,1.0338845,2.918602,-22.907665,16.604298
6.10303,2.7351751,0.7286045,0.4837144,1.0338845,2.9103317,-22.899218,16.606308
6.102043,2.7368186,1.4508538,0.5433692,1.2043269,2.8720388,-23.372324,15.931013
6.101053,2.7384696,1.4508538,0.5433692,1.2043269,2.862461,-23.356943,15.935688
6.09995,2.7408762,2.1794946,0.60195875,1.361986,2.641096,-23.622044,15.157675
6.098851,2.7432797,2.1794946,0.60195875,1.361986,2.6304626,-23.599855,15.1649
6.097649,2.746435,2.9038746,0.65522194,1.506862,2.5230694,-23.748035,14.432484
6.0964518,2.7495894,2.9038746,0.65522194,1.506862,2.5114918,-23.719028,14.442167
6.0951676,2.7534757,3.6101449,0.6999631,1.631498,2.7432861,-23.539732,13.769537
6.093885,2.7573762,3.6101449,0.6999631,1.631498,2.7308903,-23.503922,13.781549
6.092537,2.7619648,4.2855225,0.73937786,1.7305676,2.4449272,-23.217634,13.005665
6.091197,2.7665474,4.2855225,0.73937786,1.7305676,2.431984,-23.175554,13.01964
6.089808,2.771785,4.919355,0.7692053,1.8062013,2.2318153,-22.734833,12.326923
6.0884247,2.7770314,4.919355,0.7692053,1.8062013,2.21846,-22.68661,12.342661
6.0870175,2.7828631,5.5020547,0.7851842,1.8583993,2.401205,-22.254726,11.79982
6.085616,2.7887106,5.5020547,0.7851842,1.8583993,2.387682,-22.200897,11.816946
6.0842047,2.7950883,6.028295,0.79583687,1.8871614,2.6039085,-21.663313,11.323097
6.082803,2.8014703,6.028295,0.79583687,1.8871614,2.5903873,-21.604431,11.34123
6.0813985,2.8083165,6.493816,0.80862004,1.8914225,2.5002346,-21.15815,10.80978
6.0800023,2.8151808,6.493816,0.80862004,1.8914225,2.4867725,-21.094652,10.828587
6.0786133,2.822439,6.8996816,0.82033795,1.8765087,2.214819,-20.725782,10.417199
6.0772343,2.8297088,6.8996816,0.82033795,1.8765087,2.2015305,-20.658342,10.436297
6.0758705,2.837325,7.248023,0.8277948,1.8402897,2.1165733,-20.3051,10.053694
6.074518,2.844946,7.248023,0.8277948,1.8402897,2.1035538,-20.234198,10.072785
6.073189,2.8528552,7.542036,0.8331211,1.7859613,1.8896427,-19.935467,9.7809
6.0718436,2.860935,7.542036,0.8331211,1.7859613,1.8766975,-19.86007,9.800073
6.0705676,2.8690033,7.7859817,0.83631694,1.7199149,1.2898159,-19.540478,9.382988
6.069302,2.8770843,7.7859817,0.83631694,1.7199149,1.2776451,-19.464851,9.401067
6.0680532,2.8854578,7.9819903,0.8352516,1.6464117,0.8298893,-19.39117,9.175052
6.066829,2.8937438,7.9819903,0.8352516,1.6464117,0.8181267,-19.313398,9.192411
6.0656404,2.9022343,8.131127,0.82246846,1.563321,0.57686424,-18.97983,8.845736
6.064463,2.910729,8.131127,0.82246846,1.563321,0.56555176,-18.899883,8.862305
6.063331,2.919365,8.233393,0.80222845,1.4717083,0.5690441,-18.483326,8.22256
6.0622253,2.9278846,8.233393,0.80222845,1.4717083,0.558424,-18.40294,8.23793
6.06117,2.936499,8.290916,0.7766621,1.3726387,0.2657776,-17.416569,7.6112394
6.060124,2.9451258,8.290916,0.7766621,1.3726387,0.2557392,-17.334988,7.6255255
6.0591393,2.9537401,8.295177,0.74576944,1.2618512,0.39951706,-16.267029,6.877845
6.0581636,2.962358,8.295177,0.74576944,1.2618512,0.39016438,-16.185362,6.8908377
6.0572596,2.970888,8.241915,0.70741993,1.1436068,0.0032052994,-14.797216,6.089088
6.0563602,2.979455,8.241915,0.70741993,1.1436068,-0.005414963,-14.715876,6.10074
6.0555344,2.9878795,8.128997,0.659483,1.0147098,0.6043701,-13.319017,5.5466013
6.0547175,2.9962897,8.128997,0.659483,1.0147098,0.5965395,-13.239031,5.5568104
6.0539656,3.004602,7.9510975,0.60835034,0.8687686,0.98198605,-11.958037,5.322146
6.0531917,3.013245,7.9510975,0.60835034,0.8687686,0.9745636,-11.875717,5.331384
6.0525637,3.0207682,7.708217,0.5614787,0.70791364,0.575902,-10.271741,5.0755787
6.051918,3.028571,7.708217,0.5614787,0.70791364,0.5697174,-10.197342,5.0828514
6.051342,3.0361362,7.4024863,0.50288916,0.53960186,0.43491554,-8.28643,4.78779
6.0507655,3.0437636,7.4024863,0.50288916,0.53960186,0.4293928,-8.213634,4.7939024
6.050275,3.0510087,7.03284,0.42405957,0.36276796,0.7407303,-6.300932,4.6987677
6.0497866,3.0582547,7.03284,0.42405957,0.36276796,0.73605347,-6.231725,4.703686
6.049393,3.0649042,6.595016,0.3335121,0.18060775,1.057899,-4.5162024,4.8084335
6.0489964,3.0716283,6.595016,0.3335121,0.18060775,1.0541015,-4.4519467,4.8122444
6.0486817,3.077796,6.0943418,0.24509515,-0.0004872093,1.1516476,-3.1863236,5.074047
6.048364,3.084007,6.0943418,0.24509515,-0.0004872093,1.1486115,-3.1269484,5.076928
6.048126,3.0895686,5.5382733,0.15987399,-0.18158217,1.2804093,-2.2166514,5.582086
6.0478864,3.095147,5.5382733,0.15987399,-0.18158217,1.2781129,-2.1633105,5.5841565
6.0477223,3.1000454,4.94066,0.08104442,-0.35628554,1.4537158,-1.4652433,6.0359573
6.047558,3.1049192,4.94066,0.08104442,-0.35628554,1.4521372,-1.4186308,6.0374002
6.047558,3.1049192,4.94066,0.08104442,-0.35628554,1.4521372,-1.4186308,6.0374002
6.0473475,3.1137629,4.3174806,0.014998026,-0.51820576,1.2921128,-0.84562874,6.5232735
6.0473127,3.1169968,3.6804523,-0.044656783,-0.66840804,1.1241827,-0.5369687,7.0363646
6.0473127,3.1169968,3.6804523,-0.044656783,-0.66840804,1.1241827,-0.5369687,7.0363646
6.047366,3.122998,3.0412936,-0.1011158,-0.8068924,1.3258071,-0.30718303,7.6266994
6.0473895,3.1260452,3.0412936,-0.1011158,-0.8068924,1.3260281,-0.27803326,7.627251
6.0474596,3.128076,2.4127877,-0.14798744,-0.93152833,1.2500849,-0.14847374,8.259769
6.0475307,3.1301858,2.4127877,-0.14798744,-0.93152833,1.2507644,-0.12829232,8.2601795
6.047899,3.1342793,1.2122346,-0.20764224,-1.1467117,0.38758922,-0.2806697,9.372298
6.047899,3.1342793,1.2122346,-0.20764224,-1.1467117,0.38758922,-0.2806697,9.372298
6.047899,3.1342793,1.2122346,-0.20764224,-1.1467117,0.38758922,-0.2806697,9.372298
6.048036,3.1351788,1.2122346,-0.20764224,-1.1467117,0.38890195,-0.27206445,9.372679
6.0482264,3.1355474,0.6561665,-0.24386124,-1.236194,0.36199307,-0.3116374,9.909438
6.0484147,3.1359134,0.6561665,-0.24386124,-1.236194,0.3637967,-0.30813622,9.909885
6.0486403,3.135745,0.1320564,-0.28221077,-1.3118278,0.28934026,-0.32890272,10.389232
6.0486403,3.135745,0.1320564,-0.28221077,-1.3118278,0.28934026,-0.32890272,10.389232
6.049203,3.1352148,-0.36009577,-0.32482132,-1.3810699,0.21810842,-0.32440948,10.773559
6.0493817,3.134786,-0.36009577,-0.32482132,-1.3810699,0.21982002,-0.32851696,10.773939
6.0497255,3.133629,-0.82242054,-0.37808457,-1.44179,0.26141715,-0.37311578,11.20081
6.0500727,3.132467,-0.82242054,-0.37808457,-1.44179,0.26474142,-0.38424826,11.201504
6.0504885,3.130844,-1.2602443,-0.43880463,-1.4950533,0.31660724,-0.28487253,11.5757885
6.050902,3.1292412,-1.2602443,-0.43880463,-1.4950533,0.32056546,-0.30023003,11.576548
6.051387,3.1272066,-1.6746321,-0.5016552,-1.5397943,0.39224625,-0.35803533,12.032289
6.0518746,3.1251729,-1.6746321,-0.5016552,-1.5397943,0.39692092,-0.3775277,12.033084
6.052432,3.1227336,-2.0698452,-0.5645058,-1.5749481,0.50760365,-0.34345055,12.397848
6.052993,3.120298,-2.0698452,-0.5645058,-1.5749481,0.5129745,-0.36680365,12.398638
6.053621,3.11748,-2.4469488,-0.62416065,-1.6026449,0.442379,-0.4081912,12.83997
6.0542536,3.1146638,-2.4469488,-0.62416065,-1.6026449,0.44844103,-0.43520594,12.840697
6.0549455,3.1114955,-2.8080735,-0.6774239,-1.6175586,0.35451746,-0.62840843,13.310638
6.0556426,3.1083288,-2.8080735,-0.6774239,-1.6175586,0.36119914,-0.6587968,13.311227
6.056395,3.1048138,-3.1532192,-0.72536075,-1.6207545,0.5503726,-0.91280127,13.713937
6.0571537,3.101297,-3.1532192,-0.72536075,-1.6207545,0.5576482,-0.94656277,13.714309
6.0579576,3.0974522,-3.4834511,-0.7637103,-1.6122323,0.7425289,-1.3090882,14.083226
6.0587664,3.0936172,-3.4834511,-0.7637103,-1.6122323,0.7502847,-1.3459191,14.083307
6.0596104,3.0894713,-3.7955737,-0.7924724,-1.5919923,1.0408993,-1.8119068,14.466237
6.06046,3.0853314,-3.7955737,-0.7924724,-1.5919923,1.0490527,-1.8516736,14.465931
6.061332,3.0809062,-4.0917172,-0.80951667,-1.5642954,1.2633233,-2.296412,14.8101015
6.062211,3.0764828,-4.0917172,-0.80951667,-1.5642954,1.2717605,-2.33891,14.80933
6.0631027,3.0717947,-4.372947,-0.81803876,-1.5291417,1.3473573,-2.7765975,15.09551
6.064001,3.067109,-4.372947,-0.81803876,-1.5291417,1.3559871,-2.8216195,15.094181
6.064906,3.0621672,-4.6318064,-0.81803876,-1.4897269,1.4173551,-3.2665343,15.394134
6.0658174,3.0572326,-4.6318064,-0.81803876,-1.4897269,1.4261103,-3.313943,15.392187
6.0667267,3.052075,-4.8682947,-0.8116472,-1.4449859,1.3534446,-3.7369795,15.56697
6.0676246,3.0470226,-4.8682947,-0.8116472,-1.4449859,1.3620758,-3.785509,15.564393
6.0685325,3.0416722,-5.082413,-0.79992926,-1.3981142,1.1984181,-4.248688,15.709738
6.069468,3.0362008,-5.082413,-0.79992926,-1.3981142,1.2074156,-4.30122,15.706296
6.070371,3.0306754,-5.2688346,-0.7850156,-1.3459163,1.1730056,-4.7564774,15.831722
6.0712776,3.0251741,-5.2688346,-0.7850156,-1.3459163,1.1817236,-4.8092656,15.82759
6.072171,3.0195067,-5.427559,-0.7669061,-1.292653,1.1041303,-5.323308,16.009674
6.0730753,3.0138185,-5.427559,-0.7669061,-1.292653,1.1128311,-5.3778496,16.004704
6.0739574,3.008037,-5.557521,-0.7477313,-1.240455,1.1021662,-5.873788,16.176416
6.074847,3.0022516,-5.557521,-0.7477313,-1.240455,1.1107302,-5.929208,16.170633
6.0757136,2.996397,-5.6576557,-0.7274913,-1.1882571,1.09513,-6.306081,16.212269
6.076589,2.9905267,-5.6576557,-0.7274913,-1.1882571,1.1035581,-6.362253,16.205673
6.077441,2.9846148,-5.7247677,-0.70831656,-1.1328633,1.1883831,-6.773123,16.179482
6.0783005,2.9786992,-5.7247677,-0.70831656,-1.1328633,1.1966615,-6.82966,16.172108
6.079136,2.9727626,-5.759921,-0.6880765,-1.0721432,1.2525911,-7.1114025,16.092482
6.0799766,2.9668276,-5.759921,-0.6880765,-1.0721432,1.2606931,-7.1680403,16.084354
6.080793,2.960896,-5.765248,-0.6678365,-1.0092926,1.3068686,-7.531057,16.20034
6.0816135,2.9549716,-5.765248,-0.6678365,-1.0092926,1.3147798,-7.5875015,16.1915
6.0824056,2.9490898,-5.742877,-0.6465312,-0.94644207,1.3942461,-7.94995,16.268541
6.0832043,2.9431973,-5.742877,-0.6465312,-0.94644207,1.4019465,-8.005991,16.259043
6.0839705,2.9373746,-5.693875,-0.6230954,-0.87826514,1.4141264,-8.339043,16.354622
6.084741,2.931553,-5.693875,-0.6230954,-0.87826514,1.421557,-8.394303,16.344538
6.085476,2.9258294,-5.616111,-0.59752905,-0.8090229,1.5339904,-8.922629,16.645502
6.086216,2.9200954,-5.616111,-0.59752905,-0.8090229,1.541131,-8.97695,16.634901
6.086912,2.914486,-5.5117145,-0.5655711,-0.7376502,1.6196756,-9.4992895,16.892315
6.0876117,2.9088774,-5.5117145,-0.5655711,-0.7376502,1.6264286,-9.552302,16.881283
6.088261,2.9034123,-5.3828177,-0.5282869,-0.66201645,1.6853704,-10.250322,17.123972
6.0889134,2.8979487,-5.3828177,-0.5282869,-0.66201645,1.6916676,-10.301844,17.11259
6.0895076,2.8926573,-5.2251587,-0.48567626,-0.58105636,1.759656,-10.878393,17.407682
6.0901046,2.8873665,-5.2251587,-0.48567626,-0.58105636,1.7654161,-10.928156,17.396053
6.090638,2.882279,-5.0429983,-0.44093516,-0.49476993,1.8184557,-11.6080065,17.590462
6.091174,2.8771865,-5.0429983,-0.44093516,-0.49476993,1.8236303,-11.655771,17.57869
6.091645,2.8723187,-4.8342066,-0.3951288,-0.40741822,1.8904295,-12.362162,17.710796
6.0921173,2.8674517,-4.8342066,-0.3951288,-0.40741822,1.8949919,-12.407693,17.699032
6.092522,2.862836,-4.597718,-0.34825715,-0.32113183,1.927638,-12.972738,17.630129
6.092929,2.858216,-4.597718,-0.34825715,-0.32113183,1.9315634,-13.015833,17.618471
6.0932693,2.8538754,-4.3420544,-0.30351606,-0.23697592,1.8438749,-13.57819,17.468403
6.093611,2.8495307,-4.3420544,-0.30351606,-0.23697592,1.8471737,-13.618603,17.457005
6.0938897,2.8454785,-4.06402,-0.26197073,-0.15388529,1.7636786,-14.154229,17.302504
6.0941687,2.8414266,-4.06402,-0.26197073,-0.15388529,1.7663708,-14.191812,17.291489
6.0943913,2.8376808,-3.7678769,-0.22681701,-0.07505572,1.6679716,-14.67182,17.032118
6.094608,2.8340437,-3.7678769,-0.22681701,-0.07505572,1.6700602,-14.7054615,17.021908
6.0947814,2.8306253,-3.4568195,-0.19805487,-0.0036830027,1.5711851,-15.144046,16.78711
6.094968,2.8269575,-3.4568195,-0.19805487,-0.0036830027,1.5729856,-15.177887,16.77653
6.0951023,2.823773,-3.1340444,-0.17461905,0.064493924,1.4689436,-15.580717,16.436789
6.095225,2.8208656,-3.1340444,-0.17461905,0.064493924,1.4701262,-15.60747,16.428179
6.095316,2.8181834,-2.7984862,-0.1554443,0.125214,1.3273497,-15.967305,16.223806
6.095408,2.8154523,-2.7984862,-0.1554443,0.125214,1.3282433,-15.992382,16.215546
6.095465,2.81307,-2.4544058,-0.13840005,0.18273827,1.300066,-16.449966,16.002338
6.0955224,2.8106854,-2.4544058,-0.13840005,0.18273827,1.3006182,-16.471813,15.994976
6.095547,2.808651,-2.1039336,-0.123486355,0.23706676,1.281704,-16.887856,15.959873
6.0955715,2.8066409,-2.1039336,-0.123486355,0.23706676,1.2819386,-16.906233,15.953552
6.095564,2.8049834,-1.7481353,-0.10857265,0.2892647,1.3153868,-17.424139,15.852495
6.095556,2.8033278,-1.7481353,-0.10857265,0.2892647,1.3153086,-17.439238,15.847183
6.0955124,2.8020403,-1.3870107,-0.08939789,0.34146267,1.3867121,-17.886692,15.86211
6.095468,2.8007526,-1.3870107,-0.08939789,0.34146267,1.3862858,-17.898403,15.857891
6.095388,2.799839,-1.0205598,-0.0680926,0.3883343,1.356781,-18.419035,15.797337
6.095307,2.798921,-1.0205598,-0.0680926,0.3883343,1.355999,-18.427341,15.79422
6.095189,2.798387,-0.64878243,-0.043591518,0.4309449,1.3835888,-18.84872,15.868883
6.095071,2.797853,-0.64878243,-0.043591518,0.4309449,1.3824472,-18.853508,15.866941
6.094917,2.797698,-0.27380934,-0.018025171,0.4671639,1.27561,-19.204376,15.84223
6.0947623,2.797543,-0.27380934,-0.018025171,0.4671639,1.2741175,-19.20569,15.841463
6.0945735,2.7977705,0.10435953,0.008606439,0.49699128,1.0711803,-19.529114,15.846659
6.0943847,2.797998,0.10435953,0.008606439,0.49699128,1.0693598,-19.526932,15.84708
6.0941663,2.7986076,0.48359367,0.033107523,0.51936185,0.86133957,-19.703201,15.867825
6.0939474,2.799218,0.48359367,0.033107523,0.51936185,0.859231,-19.697512,15.869431
6.0937057,2.8002043,0.859632,0.054412812,0.5332103,0.6940851,-19.836823,15.805168
6.093464,2.801193,0.859632,0.054412812,0.5332103,0.6917496,-19.827671,15.807945
6.0932,2.8025663,1.2324746,0.073587574,0.53960186,0.51682377,-19.838938,15.682617
6.0929427,2.8039153,1.2324746,0.073587574,0.53960186,0.5143328,-19.826483,15.686489
6.09267,2.8056407,1.5967951,0.087436005,0.5406671,0.41592693,-19.695656,15.586176
6.0923977,2.8073664,1.5967951,0.087436005,0.5406671,0.4133005,-19.679743,15.591173
6.0921197,2.8094404,1.9483323,0.09702339,0.5353408,0.35794067,-19.426004,15.429638
6.0918427,2.8115168,1.9483323,0.09702339,0.5353408,0.35526276,-19.40687,15.43568
6.0915685,2.813929,2.2860212,0.09915392,0.5225576,0.3909197,-19.068615,15.136263
6.0912943,2.816347,2.2860212,0.09915392,0.5225576,0.3882761,-19.04633,15.143269
6.091027,2.8191028,2.604535,0.09808865,0.50338286,0.38090038,-18.685741,14.830433
6.0907736,2.8217254,2.604535,0.09808865,0.50338286,0.37845135,-18.661554,14.837976
6.0905213,2.8247867,2.9006786,0.09169707,0.47781652,0.40475082,-18.24547,14.492445
6.0902677,2.8278842,2.9006786,0.09169707,0.47781652,0.4023037,-18.21688,14.501265
6.090042,2.8311749,3.1733863,0.07997916,0.4458586,0.48631668,-17.678936,14.127548
6.089819,2.8344526,3.1733863,0.07997916,0.4458586,0.48415756,-17.648645,14.136751
6.0896254,2.8379798,3.4183972,0.061869662,0.4064438,0.49665165,-17.074965,13.720478
6.089432,2.8415287,3.4183972,0.061869662,0.4064438,0.49477768,-17.042135,13.73031
6.0892744,2.8452718,3.6357112,0.038433842,0.3648985,0.4597473,-16.432894,13.237873
6.089119,2.8490155,3.6357112,0.038433842,0.3648985,0.45824242,-16.398216,13.2480755
6.089002,2.8529372,3.8231978,0.011802233,0.32122266,0.42838764,-15.772901,12.755934
6.0888867,2.8568635,3.8231978,0.011802233,0.32122266,0.4272728,-15.73648,12.766441
6.0888147,2.8609476,3.9829874,-0.019090436,0.27541628,0.43615246,-15.138332,12.34156
6.0887437,2.865028,3.9829874,-0.019090436,0.27541628,0.43546677,-15.10042,12.3522625
6.0887213,2.8692307,4.1108193,-0.05637469,0.22854465,0.6555176,-14.711797,11.879598
6.0887,2.8734338,4.1108193,-0.05637469,0.22854465,0.6553087,-14.672679,11.8903885
6.0887284,2.8777308,4.209889,-0.09685474,0.18060775,1.0673885,-13.885678,11.302792
6.0887585,2.8820448,4.209889,-0.09685474,0.18060775,1.0676765,-13.845459,11.313624
6.0888324,2.8864477,4.2770004,-0.12881267,0.13267085,0.9869852,-13.177103,10.620683
6.088907,2.8908505,4.2770004,-0.12881267,0.13267085,0.98770714,-13.135984,10.631461
6.089019,2.8951313,4.3078933,-0.15970534,0.08686448,0.9265404,-12.363351,9.952305
6.089134,2.8995087,4.3078933,-0.15970534,0.08686448,0.9276562,-12.322395,9.962739
6.089291,2.9038966,4.3025665,-0.19059801,0.037862312,1.063241,-11.778528,9.49904
6.089447,2.9082584,4.3025665,-0.19059801,0.037862312,1.0647488,-11.737646,9.50916
6.0896435,2.9125876,4.263152,-0.22149068,-0.013270383,1.2725506,-11.313966,9.025897
6.0898404,2.916917,4.263152,-0.22149068,-0.013270383,1.2744493,-11.2733135,9.035657
6.0900717,2.9211688,4.190714,-0.24705704,-0.061207283,1.1904907,-10.515104,8.551942
6.090303,2.9254205,4.190714,-0.24705704,-0.061207283,1.1927252,-10.475114,8.561258
6.0905633,2.9295602,4.0841875,-0.26623178,-0.10701366,0.7499161,-9.674793,7.76099
6.0908237,2.9337082,4.0841875,-0.26623178,-0.10701366,0.7524357,-9.6357155,7.769822
6.09111,2.9376974,3.9393115,-0.2896676,-0.15175477,1.1861591,-8.908579,7.4191008
6.091397,2.9416943,3.9393115,-0.2896676,-0.15175477,1.1889267,-8.870861,7.4273663
6.091397,2.9416943,3.9393115,-0.2896676,-0.15175477,1.1889267,-8.870861,7.4273663
6.091397,2.9416943,3.9393115,-0.2896676,-0.15175477,1.1889267,-8.870861,7.4273663
6.092505,2.953791,3.5366416,-0.32695186,-0.23910645,1.5060897,-7.142901,6.843787
6.0927176,2.9561243,3.5366416,-0.32695186,-0.23910645,1.5081449,-7.120817,6.848358
6.093053,2.9594188,3.2788477,-0.33973503,-0.28384754,1.7508035,-6.1654744,6.538755
6.093394,2.9627762,3.2788477,-0.33973503,-0.28384754,1.7540984,-6.133674,6.545202
6.093733,2.9657054,2.9827042,-0.35464874,-0.3275234,2.0159478,-5.349353,6.373645
6.093733,2.9657054,2.9827042,-0.35464874,-0.3275234,2.0159478,-5.349353,6.373645
6.094599,2.9721146,2.648211,-0.3674319,-0.3722645,2.230217,-4.690056,6.5199428
6.0948257,2.9738023,2.648211,-0.3674319,-0.3722645,2.2324119,-4.6740446,6.523093
6.09521,2.9761698,2.2828252,-0.37914982,-0.4148751,2.3654137,-4.1152916,6.767002
6.0955725,2.9784052,2.2828252,-0.37914982,-0.4148751,2.368916,-4.0940843,6.771198
6.0955725,2.9784052,2.2828252,-0.37914982,-0.4148751,2.368916,-4.0940843,6.771198
6.0955725,2.9784052,2.2828252,-0.37914982,-0.4148751,2.368916,-4.0940843,6.771198
6.0955725,2.9784052,1.8950691,-0.3887372,-0.45215935,2.368916,-4.0940843,6.771198
6.097251,2.9863029,1.4892033,-0.391933,-0.48305202,2.442606,-3.382317,7.6338806
6.0974636,2.9868596,1.0716196,-0.38980246,-0.5043573,2.3488927,-3.3722682,8.276737
6.0978546,2.9878848,1.0716196,-0.38980246,-0.5043573,2.352676,-3.3625813,8.278963
6.0985084,2.988867,0.654036,-0.38980246,-0.5256626,2.3733654,-3.410833,8.904074
6.0987244,2.9891918,0.654036,-0.38980246,-0.5256626,2.3754559,-3.4077883,8.904935
6.0990596,2.9893413,0.24177864,-0.3887372,-0.5437721,2.4505243,-3.621928,9.600077
6.099459,2.9895198,0.24177864,-0.3887372,-0.5437721,2.4543886,-3.6203313,9.601049
6.0998683,2.9892976,-0.15876079,-0.38234562,-0.5565553,2.3625803,-3.804524,10.13296
6.1002774,2.9890761,-0.15876079,-0.38234562,-0.5565553,2.36654,-3.8067544,10.133355
6.1006856,2.9884658,-0.54332125,-0.37275824,-0.5682732,2.2364135,-4.032968,10.765254
6.1010942,2.987856,-0.54332125,-0.37275824,-0.5682732,2.240364,-4.0389132,10.765066
6.101507,2.9868627,-0.9076417,-0.36423612,-0.5767953,2.1342292,-4.340616,11.133023
6.1019073,2.9859018,-0.9076417,-0.36423612,-0.5767953,2.138102,-4.3499126,11.132288
6.1023135,2.984583,-1.2485263,-0.3589098,-0.5842521,2.1180897,-4.525441,11.605058
6.102722,2.9832575,-1.2485263,-0.3589098,-0.5842521,2.122047,-4.538226,11.603764
6.103127,2.9816294,-1.5649098,-0.35464874,-0.59170896,2.0541406,-4.798108,11.879697
6.103535,2.9799936,-1.5649098,-0.35464874,-0.59170896,2.0580912,-4.8138566,11.877871
6.103945,2.9780655,-1.8567923,-0.35145295,-0.59810054,1.9998078,-5.2058916,12.229905
6.1043553,2.9761376,-1.8567923,-0.35145295,-0.59810054,2.0037842,-5.224423,12.227558
6.104768,2.973941,-2.125239,-0.34825715,-0.60129637,1.7683597,-5.5567636,12.61739
6.105346,2.9708753,-2.125239,-0.34825715,-0.60129637,1.7739558,-5.5861998,12.613383
6.1055975,2.969392,-2.3691845,-0.34612662,-0.6002311,2.0062346,-5.945196,12.917825
6.10602,2.9669037,-2.3691845,-0.34612662,-0.6002311,2.0103312,-5.969061,12.914392
6.1064205,2.9643016,-2.5896943,-0.33866978,-0.5927743,1.9711146,-6.348342,13.202749
6.106829,2.9616542,-2.5896943,-0.33866978,-0.5927743,1.9750724,-6.3737016,13.198892
6.1072235,2.9588041,-2.7867682,-0.32162553,-0.5799911,1.8879108,-6.6739225,13.5154
6.1076193,2.9559515,-2.7867682,-0.32162553,-0.5799911,1.8917465,-6.7012177,13.511006
6.1079955,2.95293,-2.9582758,-0.30245078,-0.56294686,1.9336991,-7.0221934,13.807861
6.1083736,2.9499087,-2.9582758,-0.30245078,-0.56294686,1.9373608,-7.0510635,13.802961
6.1087313,2.9467404,-3.1052823,-0.28327602,-0.539511,1.9934974,-7.378191,14.219042
6.1090856,2.9436135,-3.1052823,-0.28327602,-0.539511,1.996933,-7.408033,14.213735
6.1094246,2.9402857,-3.2235267,-0.26197073,-0.50861835,2.0720472,-7.8946533,14.753775
6.1097507,2.9371057,-3.2235267,-0.26197073,-0.50861835,2.0752048,-7.9249535,14.748108
6.110058,2.933739,-3.314074,-0.23640439,-0.47346464,1.9824142,-8.522036,15.330905
6.110374,2.930288,-3.314074,-0.23640439,-0.47346464,1.9854813,-8.554865,15.32447
6.110651,2.9268699,-3.3747942,-0.20977278,-0.4329846,1.8971868,-9.286456,16.040983
6.1109295,2.9234521,-3.3747942,-0.20977278,-0.4329846,1.8998837,-9.318918,16.034319
6.1111712,2.9200146,-3.3992953,-0.18101063,-0.38078663,1.753789,-10.017117,16.544603
6.1114135,2.9165876,-3.3992953,-0.18101063,-0.38078663,1.756136,-10.049606,16.537634
6.1116176,2.913175,-3.3833163,-0.15224849,-0.32219708,1.7341719,-10.74751,17.167389
6.1118226,2.9097593,-3.3833163,-0.15224849,-0.32219708,1.7361603,-10.779834,17.160172
6.111986,2.906389,-3.321531,-0.122421086,-0.2550854,1.7521095,-11.434181,17.717909
6.1121473,2.903072,-3.321531,-0.122421086,-0.2550854,1.7536764,-11.465508,17.710617
6.1122656,2.8998709,-3.212874,-0.09365895,-0.18264744,1.7404566,-12.146929,18.335508
6.112385,2.8966534,-3.212874,-0.09365895,-0.18264744,1.7416134,-12.177255,18.328178
6.112456,2.8936734,-3.059476,-0.06276628,-0.11020945,1.766242,-12.775127,18.895853
6.1125307,2.8905315,-3.059476,-0.06276628,-0.11020945,1.7669706,-12.804684,18.888456
6.112557,2.8876896,-2.862402,-0.032938875,-0.03457567,1.6139965,-13.338952,19.36525
6.112583,2.8848531,-2.862402,-0.032938875,-0.03457567,1.6142502,-13.365578,19.358345
6.1125617,2.882194,-2.6227174,-0.0031114696,0.03999284,1.5565805,-13.835821,19.715647
6.1125407,2.87967,-2.6227174,-0.0031114696,0.03999284,1.5563774,-13.85946,19.709301
6.1124744,2.8773696,-2.346814,0.024585407,0.11456135,1.4120836,-14.311928,20.134342
6.112407,2.8750622,-2.346814,0.024585407,0.11456135,1.4114294,-14.3334875,20.128372
6.112295,2.8730764,-2.036822,0.050151754,0.19339092,1.1613464,-14.691985,20.477442
6.1121826,2.871091,-2.036822,0.050151754,0.19339092,1.1602592,-14.710495,20.47214
6.112026,2.8694592,-1.6959374,0.073587574,0.27754682,0.7948189,-15.314642,21.070978
6.111869,2.867827,-1.6959374,0.073587574,0.27754682,0.7932968,-15.329808,21.066456
6.111668,2.86658,-1.3252254,0.0938276,0.36915955,0.49925804,-16.040462,21.714085
6.111467,2.865333,-1.3252254,0.0938276,0.36915955,0.49730587,-16.052006,21.710468
6.11122,2.8645043,-0.9236207,0.11193709,0.47355548,0.39435482,-17.007725,22.464447
6.1109724,2.8636758,-0.9236207,0.11193709,0.47355548,0.39195538,-17.015335,22.461838
6.110676,2.863303,-0.48686224,0.13004659,0.58860403,0.3890791,-18.067333,23.130745
6.1103797,2.8629305,-0.48686224,0.13004659,0.58860403,0.38620853,-18.070667,23.129269
6.1100273,2.8630562,-0.009623769,0.15135187,0.7164358,0.33491135,-19.041378,23.607872
6.1096754,2.8631823,-0.009623769,0.15135187,0.7164358,0.33149815,-19.040037,23.607635
6.1092644,2.863853,0.5123558,0.1747877,0.8517243,0.39454937,-19.976912,23.776344
6.1088533,2.8645244,0.5123558,0.1747877,0.8517243,0.39056873,-19.970463,23.777449
6.108384,2.8657882,1.081207,0.19715825,0.9891435,0.25673866,-20.628838,23.540598
6.1079264,2.8670263,1.081207,0.19715825,0.9891435,0.25230026,-20.617079,23.5431
6.1074014,2.8689528,1.693734,0.21207196,1.1276278,0.45311356,-21.144745,23.259981
6.1068797,2.8708744,1.693734,0.21207196,1.1276278,0.44805813,-21.126568,23.264107
6.106323,2.873449,2.341415,0.2195288,1.2607859,0.418725,-21.4614,22.767029
6.1057725,2.8760095,2.341415,0.2195288,1.2607859,0.4133911,-21.437225,22.77265
6.1051884,2.879284,3.0125315,0.2195288,1.3875524,0.25450706,-21.530846,22.04253
6.1046066,2.882573,3.0125315,0.2195288,1.3875524,0.24887276,-21.49981,22.049755
6.1040125,2.8865483,3.6921701,0.20994142,1.5036662,0.11861992,-21.41443,21.306751
6.103424,2.890521,3.6921701,0.20994142,1.5036662,0.112924576,-21.376936,21.31539
6.102834,2.8951933,4.3654175,0.19076666,1.6080621,0.025814056,-21.098206,20.329525
6.1022515,2.899867,4.3654175,0.19076666,1.6080621,0.020174026,-21.054056,20.339462
6.101681,2.9052153,5.01949,0.16413505,1.6996748,-0.23913574,-20.831139,19.618101
6.1011195,2.9105651,5.01949,0.16413505,1.6996748,-0.24456978,-20.780542,19.629126
6.1005845,2.9165592,5.6458654,0.1268508,1.7763739,0.41584015,-20.613688,19.095427
6.1000595,2.922555,5.6458654,0.1268508,1.7763739,0.41076088,-20.556889,19.107286
6.0995665,2.9291558,6.2349563,0.09276233,1.8392245,-0.1638279,-20.446438,18.420992
6.0990853,2.9357584,6.2349563,0.09276233,1.8392245,-0.16848373,-20.383772,18.433395
6.0986423,2.942921,6.782502,0.05654334,1.8850309,-0.09136391,-20.004494,17.670816
6.0982127,2.9500852,6.782502,0.05654334,1.8850309,-0.09552193,-19.936363,17.683495
6.097835,2.95776,7.283177,0.010736968,1.9148583,0.4802208,-19.66698,17.078957
6.097471,2.9654365,7.283177,0.010736968,1.9148583,0.47670746,-19.593828,17.091604
6.097159,2.9735718,7.734849,-0.029743081,1.9319025,0.8854847,-19.468336,16.367107
6.096862,2.9817085,7.734849,-0.029743081,1.9319025,0.88261604,-19.39062,16.37941
6.0966043,2.9902506,8.135388,-0.054244164,1.9361635,0.84181404,-19.275429,15.534624
6.0963635,2.9987938,8.135388,-0.054244164,1.9361635,0.839489,-19.193655,15.546297
6.0961566,3.0076895,8.48586,-0.07022313,1.9265761,0.82790756,-18.888147,14.557001
6.0959663,3.016586,8.48586,-0.07022313,1.9265761,0.8260727,-18.802805,14.567765
6.0958114,3.0257797,8.784134,-0.08513683,1.9010098,0.94906616,-18.159077,13.51034
6.0956736,3.0349743,8.784134,-0.08513683,1.9010098,0.94774246,-18.07071,13.519953
6.0955715,3.0444133,9.032341,-0.10005054,1.861595,1.1765957,-17.122787,12.355895
6.095487,3.0538528,9.032341,-0.10005054,1.861595,1.1757736,-17.03191,12.36416
6.095437,3.063656,9.229415,-0.11283371,1.8030055,0.98376083,-16.00372,11.083833
6.095406,3.0731227,9.229415,-0.11283371,1.8030055,0.9834633,-15.912451,11.090473
6.0954065,3.082876,9.373225,-0.122421086,1.7263064,0.8254471,-14.611677,10.153147
6.0954237,3.0926294,9.373225,-0.122421086,1.7263064,0.82561016,-14.517527,10.158248
6.0954766,3.102459,9.455251,-0.1373348,1.631498,0.72556686,-13.2063465,9.554407
6.0955453,3.1122887,9.455251,-0.1373348,1.631498,0.72623634,-13.111385,9.557787
6.095649,3.12212,9.476556,-0.15331376,1.5164493,0.5165453,-11.570274,9.067083
6.0957675,3.131951,9.476556,-0.15331376,1.5164493,0.5176916,-11.475245,9.068691
6.095918,3.1417172,9.433946,-0.17035799,1.3832914,0.2414217,-9.714469,8.657608
6.096078,3.151209,9.433946,-0.17035799,1.3832914,0.24296474,-9.622699,8.657457
6.096274,3.1609702,9.321028,-0.18953276,1.2373501,0.10120487,-7.881119,8.512793
6.0964823,3.1707501,9.321028,-0.18953276,1.2373501,0.10322094,-7.786577,8.51088
6.0967097,3.180161,9.135672,-0.21083803,1.0828867,0.25386143,-6.0101027,8.5513115
6.096946,3.189515,9.135672,-0.21083803,1.0828867,0.25614452,-5.9197187,8.5478325
