Pitch,Roll,Gyro_X,Gyro_Y,Gyro_Z,Accel_X,Accel_Y,Accel_Z
0.13793163,4.4665213,-3.4383721,0.7143265,1.215667,0.6655881,-6.4882865,-1.460463
0.13883026,4.4626913,-3.6993618,0.7835687,1.2625386,0.4213795,-7.1586633,-1.5562311
0.1397231,4.4588737,-3.6993618,0.7835687,1.2625386,0.4213795,-7.1586633,-1.5562311
0.14064173,4.454816,-3.9294589,0.8400277,1.3030187,0.19632454,-7.819463,-1.685518
0.14155918,4.450751,-3.9294589,0.8400277,1.3030187,0.19632454,-7.819463,-1.685518
0.14250913,4.4464984,-4.1286635,0.8858341,1.3434987,-0.22505496,-8.504205,-1.8148049
0.1434584,4.4422383,-4.1286635,0.8858341,1.3434987,-0.22505496,-8.504205,-1.8148049
0.14446135,4.4378285,-4.296975,0.91672677,1.385044,-0.7086837,-9.212888,-1.9536686
0.14545473,4.4334493,-4.296975,0.91672677,1.385044,-0.7086837,-9.212888,-1.9536686
0.14650998,4.428918,-4.436525,0.9305752,1.4329809,-1.0773908,-9.854534,-2.231396
0.14757043,4.424348,-4.436525,0.9305752,1.4329809,-1.0773908,-9.854534,-2.231396
0.14868708,4.4197083,-4.5451818,0.92950994,1.4841136,-1.3503298,-10.429143,-2.4660277
0.14979877,4.4150662,-4.5451818,0.92950994,1.4841136,-1.3503298,-10.429143,-2.4660277
0.15096667,4.410335,-4.6229463,0.9188573,1.5384421,-1.484405,-10.85531,-2.6910827
0.15212667,4.4056106,-4.6229463,0.9188573,1.5384421,-1.484405,-10.85531,-2.6910827
0.15330884,4.4008183,-4.6719484,0.897552,1.5938358,-1.4700398,-11.252748,-3.1028855
0.15449437,4.396001,-4.6719484,0.897552,1.5938358,-1.4700398,-11.252748,-3.1028855
0.15568675,4.3911667,-4.6932535,0.8698551,1.6524254,-1.3551182,-11.640609,-3.4476504
0.15687539,4.3863482,-4.6932535,0.8698551,1.6524254,-1.3551182,-11.640609,-3.4476504
0.15687539,4.3863482,-4.6932535,0.8698551,1.6524254,-1.3551182,-11.640609,-3.4476504
0.15687539,4.3863482,-4.6932535,0.8698551,1.6524254,-1.3551182,-11.640609,-3.4476504
0.15687539,4.3863482,-4.6932535,0.8698551,1.6524254,-1.3551182,-11.640609,-3.4476504
0.15687539,4.3863482,-4.6889925,0.8378972,1.7067538,-1.412579,-11.99495,-3.7588966
0.16380171,4.3593216,-4.608032,0.75374126,1.7962362,-1.8914193,-12.579136,-4.3239284
0.16434777,4.357386,-4.608032,0.75374126,1.7962362,-1.8914193,-12.579136,-4.3239284
0.16570482,4.3526754,-4.530268,0.696217,1.8260635,-1.7381904,-12.789825,-4.477157
0.16770239,4.34575,-4.530268,0.696217,1.8260635,-1.7381904,-12.789825,-4.477157
0.16843128,4.3433514,-4.428003,0.63656217,1.8548256,-1.7812861,-12.947843,-4.6399627
0.16983685,4.338724,-4.428003,0.63656217,1.8548256,-1.7812861,-12.947843,-4.6399627
0.1713169,4.3341684,-4.3023014,0.5769074,1.880392,-2.087744,-13.168109,-4.8937483
0.1713169,4.3341684,-4.3023014,0.5769074,1.880392,-2.087744,-13.168109,-4.8937483
0.17423269,4.325331,-4.151034,0.5140568,1.8953058,-2.303222,-13.335704,-5.0661306
0.17565843,4.321283,-4.151034,0.5140568,1.8953058,-2.303222,-13.335704,-5.0661306
0.17720199,4.3172364,-3.9763305,0.44694513,1.9070235,-2.480393,-13.627796,-5.2720323
0.17875269,4.3131547,-3.9763305,0.44694513,1.9070235,-2.480393,-13.627796,-5.2720323
0.18100417,4.307545,-3.7781913,0.3755724,1.9176762,-2.504335,-14.00608,-5.544971
0.18187015,4.3053856,-3.7781913,0.3755724,1.9176762,-2.504335,-14.00608,-5.544971
0.18340464,4.3017507,-3.555551,0.3031344,1.9219373,-2.5953147,-14.288596,-5.93762
0.18495604,4.298088,-3.555551,0.3031344,1.9219373,-2.5953147,-14.288596,-5.93762
0.18648545,4.29462,-3.3105402,0.23282696,1.9176762,-2.6144683,-14.513651,-6.2871737
0.18802267,4.2911572,-3.3105402,0.23282696,1.9176762,-2.6144683,-14.513651,-6.2871737
0.18957032,4.2878833,-3.04742,0.16358478,1.9038278,-2.60968,-14.623784,-6.7468605
0.19110309,4.284627,-3.04742,0.16358478,1.9038278,-2.60968,-14.623784,-6.7468605
0.19267334,4.281618,-2.7683208,0.09753838,1.8846531,-2.6240451,-14.614207,-7.015011
0.19422913,4.2786217,-2.7683208,0.09753838,1.8846531,-2.6240451,-14.614207,-7.015011
0.19581373,4.275902,-2.4764383,0.038948838,1.8558909,-2.6479871,-14.499286,-7.3310456
0.19736092,4.273232,-2.4764383,0.038948838,1.8558909,-2.6479871,-14.499286,-7.3310456
0.19893023,4.270814,-2.1781642,-0.012183856,1.8164761,-2.5474305,-14.374787,-7.565677
0.20051941,4.268356,-2.1781642,-0.012183856,1.8164761,-2.5474305,-14.374787,-7.565677
0.20206268,4.26624,-1.8777596,-0.050533377,1.7685392,-2.5139117,-14.111424,-7.599196
0.20359424,4.2641335,-1.8777596,-0.050533377,1.7685392,-2.5139117,-14.111424,-7.599196
0.20507383,4.262332,-1.5826813,-0.07290393,1.7099497,-2.2888567,-13.881581,-7.560889
0.20654923,4.2605305,-1.5826813,-0.07290393,1.7099497,-2.2888567,-13.881581,-7.560889
0.20795207,4.2590303,-1.2982557,-0.077164985,1.6439033,-2.0494366,-13.608643,-7.393295
0.2093546,4.2575274,-1.2982557,-0.077164985,1.6439033,-2.0494366,-13.608643,-7.393295
0.21067837,4.2562957,-1.0319396,-0.06544708,1.5640085,-1.9249382,-13.129802,-7.249643
0.21200101,4.255063,-1.0319396,-0.06544708,1.5640085,-1.9249382,-13.129802,-7.249643
0.21321793,4.254087,-0.78905934,-0.03881547,1.4713304,-1.6136919,-12.823344,-7.053318
0.21443321,4.253111,-0.78905934,-0.03881547,1.4713304,-1.6136919,-12.823344,-7.053318
0.21557432,4.252313,-0.57707167,0.0048603755,1.3669345,-2.0685902,-12.129025,-7.1155677
0.21671346,4.251516,-0.57707167,0.0048603755,1.3669345,-2.0685902,-12.129025,-7.1155677
0.21770102,4.2509136,-0.40130305,0.053862542,1.2508208,-1.5658079,-11.832145,-6.8282633
0.21868736,4.250311,-0.40130305,0.053862542,1.2508208,-1.5658079,-11.832145,-6.8282633
0.21951415,4.249883,-0.2628187,0.10925629,1.1272501,-1.6232687,-12.066776,-6.3589997
0.22034045,4.2494555,-0.2628187,0.10925629,1.1272501,-1.6232687,-12.066776,-6.3589997
0.22101496,4.2491636,-0.15203118,0.17104164,0.99515724,-1.8531121,-12.0332575,-6.0621185
0.22168916,4.248871,-0.15203118,0.17104164,0.99515724,-1.8531121,-12.0332575,-6.0621185
0.22221904,4.24865,-0.060418434,0.22963117,0.8566728,-2.1883004,-11.654974,-5.995081
0.22274847,4.2484293,-0.060418434,0.22963117,0.8566728,-2.1883004,-11.654974,-5.995081
0.2231312,4.2482786,0.012019549,0.27650282,0.7117969,-2.4181437,-11.286267,-5.7748146
0.22351335,4.248129,0.012019549,0.27650282,0.7117969,-2.4181437,-11.286267,-5.7748146
0.22374098,4.24808,0.06315224,0.30526495,0.5637251,-2.4612393,-10.927136,-5.4539914
0.22396857,4.248031,0.06315224,0.30526495,0.5637251,-2.4612393,-10.927136,-5.4539914
0.2240676,4.2480755,0.09830597,0.31698287,0.4081965,-1.958457,-10.783484,-5.0613422
0.22416651,4.2481203,0.09830597,0.31698287,0.4081965,-1.958457,-10.783484,-5.0613422
0.22413065,4.248214,0.118545994,0.32017866,0.24734159,-2.1260512,-10.371682,-4.8937483
0.22409466,4.2483077,0.118545994,0.32017866,0.24734159,-2.1260512,-10.371682,-4.8937483
0.22389902,4.248419,0.12600285,0.3191134,0.08329086,-1.0055647,-10.28549,-4.405331
0.22369531,4.2485347,0.12600285,0.3191134,0.08329086,-1.0055647,-10.28549,-4.405331
0.22338647,4.2486544,0.12600285,0.325505,-0.08395566,-0.9672575,-10.304645,-4.261679
0.22306333,4.2487793,0.12600285,0.325505,-0.08395566,-0.9672575,-10.304645,-4.261679
0.22256708,4.248913,0.122807056,0.33828816,-0.254398,-0.8810662,-9.916783,-4.213795
0.22206882,4.249047,0.122807056,0.33828816,-0.254398,-0.8810662,-9.916783,-4.213795
0.22141534,4.2491903,0.11641546,0.34148395,-0.4248403,-0.8283938,-9.763555,-4.1419687
0.22076309,4.249334,0.11641546,0.34148395,-0.4248403,-0.8283938,-9.763555,-4.1419687
0.21996137,4.249482,0.10895862,0.34041867,-0.588891,-0.7326257,-9.572019,-4.10845
0.21915816,4.2496305,0.10895862,0.34041867,-0.588891,-0.7326257,-9.572019,-4.10845
0.21822286,4.2497854,0.0972407,0.3308313,-0.7433544,-0.6991069,-9.41879,-4.012682
0.21729134,4.2499404,0.0972407,0.3308313,-0.7433544,-0.6991069,-9.41879,-4.012682
0.21624126,4.250099,0.08445753,0.31485233,-0.87970823,-0.6799533,-9.26556,-3.9456444
0.21518701,4.250259,0.08445753,0.31485233,-0.87970823,-0.6799533,-9.26556,-3.9456444
0.21403791,4.2504177,0.07060909,0.29141653,-1.0000831,-0.6703765,-9.136273,-3.9312792
0.21289119,4.2505765,0.07060909,0.29141653,-1.0000831,-0.6703765,-9.136273,-3.9312792
0.21165405,4.2507296,0.054630127,0.25732806,-1.1023484,-0.6368576,-9.160215,-4.036624
0.21042554,4.250881,0.054630127,0.25732806,-1.1023484,-0.6368576,-9.160215,-4.036624
0.20914178,4.251032,0.037585896,0.2200438,-1.1822433,-0.6607997,-9.174581,-4.027047
0.20785806,4.2511826,0.037585896,0.2200438,-1.1822433,-0.6607997,-9.174581,-4.027047
0.20653492,4.251321,0.022672193,0.17849848,-1.2408328,-0.5650316,-9.165004,-4.1419687
0.20503712,4.2514763,0.022672193,0.17849848,-1.2408328,-0.5650316,-9.165004,-4.1419687
0.203852,4.2515945,0.012019549,0.13482264,-1.2802477,-0.49799395,-9.11712,-4.1611223
0.20252869,4.251726,0.012019549,0.13482264,-1.2802477,-0.49799395,-9.11712,-4.1611223
0.20117225,4.251857,0.0077584907,0.089016266,-1.2930309,-0.51235914,-9.26556,-4.357447
0.19986248,4.2519817,0.0077584907,0.089016266,-1.2930309,-0.51235914,-9.26556,-4.357447
0.19855534,4.2521133,0.00988902,0.04107937,-1.285574,-0.4165911,-9.370906,-4.4675803
0.19724292,4.252245,0.00988902,0.04107937,-1.285574,-0.4165911,-9.370906,-4.4675803
0.19598745,4.2523875,0.023737457,-0.010053327,-1.2546813,-0.34476504,-9.414001,-4.572925
0.19473062,4.25253,0.023737457,-0.010053327,-1.2546813,-0.34476504,-9.414001,-4.572925
0.19353898,4.2527027,0.0524996,-0.06331655,-1.2078097,-0.32561144,-9.500193,-4.6495395
0.19234487,4.252875,0.0524996,-0.06331655,-1.2078097,-0.32561144,-9.500193,-4.6495395
0.19123104,4.253087,0.09297965,-0.11764504,-1.1460243,-0.2681506,-9.528923,-4.7070007
0.19011591,4.253299,0.09297965,-0.11764504,-1.1460243,-0.2681506,-9.528923,-4.7070007
0.18909372,4.2535696,0.1483734,-0.17410405,-1.0725211,-0.31603462,-9.619903,-4.7309427
0.18806927,4.2538404,0.1483734,-0.17410405,-1.0725211,-0.31603462,-9.619903,-4.7309427
0.1871497,4.254186,0.21761559,-0.2294978,-0.9851694,-0.33997664,-9.768343,-4.7309427
0.1862244,4.254533,0.21761559,-0.2294978,-0.9851694,-0.33997664,-9.768343,-4.7309427
0.18541814,4.2549677,0.29751042,-0.28489155,-0.8860998,-0.4213795,-9.907207,-4.6782703
0.18463421,4.2553887,0.29751042,-0.28489155,-0.8860998,-0.4213795,-9.907207,-4.6782703
0.18394735,4.2559233,0.38912317,-0.3381548,-0.7774428,-0.521936,-10.04607,-4.6591167
0.18324487,4.256468,0.38912317,-0.3381548,-0.7774428,-0.521936,-10.04607,-4.6591167
0.18268728,4.2571006,0.49138856,-0.391418,-0.65919846,-0.5506664,-10.141838,-4.7165775
0.1821325,4.2577286,0.49138856,-0.391418,-0.65919846,-0.5506664,-10.141838,-4.7165775
0.18171355,4.258475,0.6021761,-0.44574648,-0.5345625,-0.5267244,-10.228029,-4.6591167
0.18129136,4.259224,0.6021761,-0.44574648,-0.5345625,-0.5267244,-10.228029,-4.6591167
0.18101054,4.2600913,0.7204204,-0.500075,-0.4067308,-0.6655881,-10.395624,-4.7070007
0.18072917,4.2609563,0.7204204,-0.500075,-0.4067308,-0.6655881,-10.395624,-4.7070007
0.18058673,4.26194,0.84292585,-0.5522729,-0.27676854,-0.81881696,-10.529699,-4.7979803
0.18044281,4.262925,0.84292585,-0.5522729,-0.27676854,-0.81881696,-10.529699,-4.7979803
0.18043786,4.264021,0.9664965,-0.60340565,-0.14361048,-0.7469909,-10.481815,-4.8458643
0.18043193,4.265127,0.9664965,-0.60340565,-0.14361048,-0.7469909,-10.481815,-4.8458643
0.18056053,4.266326,1.0879366,-0.65027726,-0.013648209,-0.61770403,-10.357317,-4.9081135
0.18068792,4.2675204,1.0879366,-0.65027726,-0.013648209,-0.61770403,-10.357317,-4.9081135
0.18094593,4.2688236,1.2072463,-0.69075733,0.112053,-0.62249243,-10.218452,-4.9559975
0.18120232,4.270121,1.2072463,-0.69075733,0.112053,-0.62249243,-10.218452,-4.9559975
0.18158,4.2715254,1.3212296,-0.725911,0.22710156,-0.6368576,-10.113108,-5.0038815
0.1819581,4.2729316,1.3212296,-0.725911,0.22710156,-0.6368576,-10.113108,-5.0038815
0.18244205,4.2744308,1.4288213,-0.7568037,0.33149746,-0.7613561,-10.055647,-4.984728
0.18292917,4.27594,1.4288213,-0.7568037,0.33149746,-0.7613561,-10.055647,-4.984728
0.1835122,4.2775354,1.5300214,-0.78343534,0.42417547,-0.7661445,-9.935937,-4.9895163
0.18409447,4.279129,1.5300214,-0.78343534,0.42417547,-0.7661445,-9.935937,-4.9895163
0.184757,4.2808127,1.6216341,-0.8068711,0.50620085,-0.7517793,-9.816227,-4.8602295
0.18542115,4.282501,1.6216341,-0.8068711,0.50620085,-0.7517793,-9.816227,-4.8602295
0.18615775,4.284266,1.7036595,-0.82391536,0.5743778,-0.5506664,-9.643845,-4.8985367
0.18688977,4.2860203,1.7036595,-0.82391536,0.5743778,-0.5506664,-9.643845,-4.8985367
0.18768016,4.287837,1.7739669,-0.8356333,0.6265757,-0.5315128,-9.394848,-4.8985367
0.18847118,4.289655,1.7739669,-0.8356333,0.6265757,-0.5315128,-9.394848,-4.8985367
0.18928899,4.291539,1.8325565,-0.8441554,0.6564031,-0.4357447,-9.222465,-4.735731
0.19010487,4.2934194,1.8325565,-0.8441554,0.6564031,-0.4357447,-9.222465,-4.735731
0.19093798,4.295356,1.8783629,-0.8526775,0.6723821,-0.2873042,-8.992621,-4.596867
0.19176747,4.297283,1.8783629,-0.8526775,0.6723821,-0.2873042,-8.992621,-4.596867
0.19259629,4.299253,1.9113861,-0.8558733,0.6691863,-0.29209262,-8.781932,-4.4484267
0.19342296,4.3012185,1.9113861,-0.8558733,0.6691863,-0.29209262,-8.781932,-4.4484267
0.1942286,4.3032255,1.939083,-0.8558733,0.64788103,-0.29209262,-8.604761,-4.2521024
0.19503067,4.3052235,1.939083,-0.8558733,0.64788103,-0.29209262,-8.604761,-4.2521024
0.1957981,4.307264,1.9571924,-0.85693854,0.6127273,-0.32561144,-8.413225,-3.964798
0.19656336,4.3092995,1.9571924,-0.85693854,0.6127273,-0.32561144,-8.413225,-3.964798
0.19727875,4.31137,1.9689103,-0.8611996,0.5637251,-0.19632454,-8.283937,-3.6583402
0.19798249,4.3134084,1.9689103,-0.8611996,0.5637251,-0.19632454,-8.283937,-3.6583402
0.19864373,4.315509,1.9774325,-0.8675912,0.50407034,-0.11492168,-8.1642275,-3.4237084
0.19931605,4.317648,1.9774325,-0.8675912,0.50407034,-0.11492168,-8.1642275,-3.4237084
0.19991523,4.319772,1.979563,-0.8771786,0.43376285,-0.02873042,-8.087613,-3.1603463
0.20051032,4.321886,1.979563,-0.8771786,0.43376285,-0.02873042,-8.087613,-3.1603463
0.20104419,4.3240356,1.9806283,-0.8878312,0.35599855,-0.05267244,-8.049306,-2.930503
0.20157905,4.3261967,1.9806283,-0.8878312,0.35599855,-0.05267244,-8.049306,-2.930503
0.20204173,4.3283615,1.9816935,-0.90487546,0.27184266,-0.02873042,-8.020576,-2.753332
0.20250157,4.330524,1.9816935,-0.90487546,0.27184266,-0.02873042,-8.020576,-2.753332
0.20289728,4.3327303,1.9870199,-0.92724603,0.18342571,-0.009576807,-8.082825,-2.542642
0.203288,4.334923,1.9870199,-0.92724603,0.18342571,-0.009576807,-8.082825,-2.542642
0.20361431,4.337156,1.9966072,-0.9549429,0.09287824,-0.05267244,-8.149862,-2.327164
0.20424634,4.3420753,2.0093904,-0.9890314,0.005526551,-0.08619126,-8.197746,-2.1643584
0.20424634,4.3420753,2.0093904,-0.9890314,0.005526551,-0.08619126,-8.197746,-2.1643584
0.20446584,4.3440104,2.0093904,-0.9890314,0.005526551,-0.08619126,-8.197746,-2.1643584
0.2046627,4.346298,2.0296304,-1.0284462,-0.076498814,-0.090979666,-8.279149,-2.0446482
0.2046627,4.346298,2.0296304,-1.0284462,-0.076498814,-0.090979666,-8.279149,-2.0446482
0.20509611,4.3516393,2.056262,-1.0731872,-0.15532838,-0.07182605,-8.312668,-1.9967642
0.20518953,4.3533,2.056262,-1.0731872,-0.15532838,-0.07182605,-8.312668,-1.9967642
0.20529191,4.35642,2.0871546,-1.1211241,-0.22563584,-0.009576807,-8.365341,-2.0015526
0.20534267,4.3580475,2.0871546,-1.1211241,-0.22563584,-0.009576807,-8.365341,-2.0015526
0.205368,4.3603578,2.1212432,-1.1701263,-0.28742117,0.12449849,-8.307879,-2.0207062
0.20539072,4.3627725,2.1212432,-1.1701263,-0.28742117,0.12449849,-8.307879,-2.0207062
0.20537385,4.3660564,2.1595926,-1.2201937,-0.34068438,0.05267244,-8.255207,-2.0015526
0.20535983,4.368061,2.1595926,-1.2201937,-0.34068438,0.05267244,-8.255207,-2.0015526
0.20531584,4.3703427,2.1990075,-1.2713264,-0.3854255,0.062249243,-8.010999,-2.006341
0.20526433,4.3728137,2.1990075,-1.2713264,-0.3854255,0.062249243,-8.010999,-2.006341
0.20518814,4.3753476,2.237357,-1.3245896,-0.41844872,0.24420857,-7.747637,-2.0446482
0.20510663,4.377914,2.237357,-1.3245896,-0.41844872,0.24420857,-7.747637,-2.0446482
0.20500877,4.380521,2.2725108,-1.3746572,-0.44081926,0.033518825,-7.431602,-2.183512
0.20490663,4.3831205,2.2725108,-1.3746572,-0.44081926,0.033518825,-7.431602,-2.183512
0.20480086,4.385748,2.3034034,-1.4257898,-0.45253718,0.12449849,-7.2113357,-2.2649148
0.20469059,4.388376,2.3034034,-1.4257898,-0.45253718,0.12449849,-7.2113357,-2.2649148
0.20458892,4.391025,2.3321655,-1.479053,-0.4546677,0.4357447,-6.9479733,-2.3942018
0.20448314,4.393672,2.3321655,-1.479053,-0.4546677,0.4357447,-6.9479733,-2.3942018
0.20439343,4.3963323,2.354536,-1.5227288,-0.44934136,0.89064306,-6.564901,-2.5713725
0.20429966,4.3989906,2.354536,-1.5227288,-0.44934136,0.89064306,-6.564901,-2.5713725
0.20423448,4.4016457,2.3694499,-1.5536215,-0.43442768,0.8810662,-6.0764837,-2.873042
0.20416555,4.4042945,2.3694499,-1.5536215,-0.43442768,0.8810662,-6.0764837,-2.873042
0.20412602,4.4069395,2.3726456,-1.5706657,-0.41099185,1.0965444,-5.5976434,-3.0310593
0.20408255,4.4095836,2.3726456,-1.5706657,-0.41099185,1.0965444,-5.5976434,-3.0310593
0.20406404,4.412224,2.3641236,-1.5759921,-0.37690338,1.4748282,-5.2528787,-2.8874073
0.20404156,4.4148636,2.3641236,-1.5759921,-0.37690338,1.4748282,-5.2528787,-2.8874073
0.20405336,4.4174714,2.3406878,-1.5653394,-0.33535808,1.4700398,-4.8698063,-2.8107927
0.20406145,4.420079,2.3406878,-1.5653394,-0.33535808,1.4700398,-4.8698063,-2.8107927
0.20410147,4.4226394,2.3012729,-1.5365773,-0.28742117,1.9201498,-4.247314,-2.7389667
0.20413776,4.425202,2.3012729,-1.5365773,-0.28742117,1.9201498,-4.247314,-2.7389667
0.20421232,4.4276857,2.244814,-1.4929014,-0.23309268,2.1978772,-3.5242648,-2.7485435
0.20428348,4.430172,2.244814,-1.4929014,-0.23309268,2.1978772,-3.5242648,-2.7485435
0.20439771,4.4325504,2.1617231,-1.4343119,-0.17343788,2.2984335,-2.753332,-2.815581
0.20450887,4.4349318,2.1617231,-1.4343119,-0.17343788,2.2984335,-2.753332,-2.815581
0.20465149,4.4371953,2.04774,-1.3640045,-0.11271781,2.9352913,-2.4708161,-2.6144683
0.20479104,4.439457,2.04774,-1.3640045,-0.11271781,2.9352913,-2.4708161,-2.6144683
0.20496452,4.441573,1.902864,-1.2787833,-0.046671405,3.1794999,-2.5809495,-2.0350714
0.20513579,4.4436936,1.902864,-1.2787833,-0.046671405,3.1794999,-2.5809495,-2.0350714
0.20534989,4.445608,1.7345521,-1.1679958,0.032158162,2.6288335,-2.5474305,-2.0494366
0.20556182,4.447523,1.7345521,-1.1679958,0.032158162,2.6288335,-2.5474305,-2.0494366
0.20583184,4.4492145,1.5534573,-1.0593388,0.11524879,2.585738,-1.7860745,-2.27928
0.20610014,4.450906,1.5534573,-1.0593388,0.11524879,2.585738,-1.7860745,-2.27928
0.20642787,4.4523706,1.3489264,-0.95707345,0.19940469,2.992752,-1.1683705,-2.2936451
0.20675436,4.4538364,1.3489264,-0.95707345,0.19940469,2.992752,-1.1683705,-2.2936451
0.20713884,4.4550457,1.109242,-0.84628594,0.2910174,3.1507695,-1.1540052,-1.9967642
0.20752281,4.4562564,1.109242,-0.84628594,0.2910174,3.1507695,-1.1540052,-1.9967642
0.20797014,4.4571724,0.8375995,-0.7205847,0.39541334,2.8682537,-1.4556746,-1.685518
0.20841704,4.458089,0.8375995,-0.7205847,0.39541334,2.8682537,-1.4556746,-1.685518
0.20893887,4.4586806,0.54571706,-0.58423084,0.5136577,2.5330653,-1.8195933,-1.6089035
0.2094593,4.4592714,0.54571706,-0.58423084,0.5136577,2.5330653,-1.8195933,-1.6089035
0.21007048,4.45952,0.23892088,-0.44361597,0.6446852,2.384625,-1.958457,-1.5945383
0.21068047,4.459768,0.23892088,-0.44361597,0.6446852,2.384625,-1.958457,-1.5945383
0.2113917,4.4596562,-0.08065846,-0.29980525,0.78743064,2.1883004,-2.2457612,-1.6711528
0.21210234,4.459544,-0.08065846,-0.29980525,0.78743064,2.1883004,-2.2457612,-1.6711528
0.2129202,4.4590573,-0.4119557,-0.15386403,0.93656766,1.9536686,-2.542642,-1.7860745
0.21373788,4.4585705,-0.4119557,-0.15386403,0.93656766,1.9536686,-2.542642,-1.7860745
0.214662,4.457706,-0.7517751,-0.007922798,1.0857047,1.8962077,-2.8299465,-1.8243817
0.21558587,4.4568415,-0.7517751,-0.007922798,1.0857047,1.8962077,-2.8299465,-1.8243817
0.2166211,4.4555902,-1.0969207,0.14014897,1.2401681,1.7717092,-3.098097,-1.8770541
0.21765561,4.454339,-1.0969207,0.14014897,1.2401681,1.7717092,-3.098097,-1.8770541
0.2187989,4.4527016,-1.4441969,0.29035124,1.3946314,1.541866,-3.4380736,-1.8387469
0.21994102,4.451063,-1.4441969,0.29035124,1.3946314,1.541866,-3.4380736,-1.8387469
0.2211894,4.4490423,-1.7893426,0.44055355,1.5480295,1.1587936,-3.8402996,-1.7429788
0.22243574,4.447021,-1.7893426,0.44055355,1.5480295,1.1587936,-3.8402996,-1.7429788
0.22378774,4.4446235,-2.124901,0.5886253,1.7003623,0.63206923,-4.3047748,-1.685518
0.2251356,4.4422274,-2.124901,0.5886253,1.7003623,0.63206923,-4.3047748,-1.685518
0.2265926,4.4394627,-2.446611,0.732436,1.8526951,0.1436521,-4.9799395,-1.7764976
0.2280427,4.436702,-2.446611,0.732436,1.8526951,0.1436521,-4.9799395,-1.7764976
0.2296024,4.433584,-2.7523417,0.86665934,2.0028975,-0.30645782,-5.6790466,-1.934515
0.23115508,4.4304686,-2.7523417,0.86665934,2.0028975,-0.30645782,-5.6790466,-1.934515
0.23280798,4.427026,-3.0378325,0.9934258,2.1477733,-0.7661445,-6.4308257,-2.0973208
0.23445365,4.423583,-3.0378325,0.9934258,2.1477733,-0.7661445,-6.4308257,-2.0973208
0.23618945,4.4198437,-3.300953,1.1074091,2.2841272,-1.1061212,-7.2113357,-2.27928
0.23791516,4.41611,-3.300953,1.1074091,2.2841272,-1.1061212,-7.2113357,-2.27928
0.23972772,4.412104,-3.5406375,1.2086092,2.411959,-1.3694834,-7.9248075,-2.4516625
0.2415306,4.408105,-3.5406375,1.2086092,2.411959,-1.3694834,-7.9248075,-2.4516625
0.24341042,4.4038587,-3.752625,1.2980914,2.529138,-1.6711528,-8.595184,-2.695871
0.24528217,4.399616,-3.752625,1.2980914,2.529138,-1.6711528,-8.595184,-2.695871
0.24723397,4.3952007,-3.9326546,1.3737252,2.6356645,-1.9776106,-9.174581,-2.8107927
0.24918611,4.390779,-3.9326546,1.3737252,2.6356645,-1.9776106,-9.174581,-2.8107927
0.2512087,4.3861947,-4.082857,1.4365758,2.730473,-2.231396,-9.619903,-2.9975405
0.25322607,4.3816133,-4.082857,1.4365758,2.730473,-2.231396,-9.619903,-2.9975405
0.2552931,4.3768797,-4.2021666,1.4866432,2.8124983,-2.3798366,-9.945514,-3.193865
0.25735843,4.372139,-4.2021666,1.4866432,2.8124983,-2.3798366,-9.945514,-3.193865
0.2594446,4.36728,-4.2895184,1.5239275,2.8785448,-2.6192567,-10.204087,-3.4859576
0.2615312,4.362424,-4.2895184,1.5239275,2.8785448,-2.6192567,-10.204087,-3.4859576
0.2637301,4.3575153,-4.3502383,1.5484285,2.9307427,-2.930503,-10.539276,-3.5673606
0.26590985,4.352603,-4.3502383,1.5484285,2.9307427,-2.930503,-10.539276,-3.5673606
0.26811647,4.34764,-4.381131,1.5590812,2.9669616,-3.083732,-10.869676,-3.763685
0.27030578,4.3426685,-4.381131,1.5590812,2.9669616,-3.083732,-10.869676,-3.763685
0.2724626,4.3376737,-4.385392,1.5601465,2.9893322,-3.0310593,-11.133038,-3.9312792
0.27461123,4.3326654,-4.385392,1.5601465,2.9893322,-3.0310593,-11.133038,-3.9312792
0.27671412,4.3276534,-4.366217,1.5548202,2.9978545,-2.944868,-11.224017,-4.1419687
0.2788103,4.3226366,-4.366217,1.5548202,2.9978545,-2.944868,-11.224017,-4.1419687
0.28089616,4.317664,-4.3257375,1.5452328,2.9914627,-3.074155,-11.358093,-4.261679
0.28297806,4.312675,-4.3257375,1.5452328,2.9914627,-3.074155,-11.358093,-4.261679
0.2850532,4.307761,-4.2660823,1.5324496,2.9744186,-3.3758245,-11.463438,-4.5058875
0.28712252,4.3028297,-4.2660823,1.5324496,2.9744186,-3.3758245,-11.463438,-4.5058875
0.28921226,4.2979884,-4.191514,1.5132748,2.9467218,-3.6535518,-11.511322,-4.630386
0.29128513,4.293134,-4.191514,1.5132748,2.9467218,-3.6535518,-11.511322,-4.630386
0.29332918,4.2883706,-4.099901,1.4834474,2.911568,-3.7493198,-11.674128,-4.7740383
0.29535198,4.283608,-4.099901,1.4834474,2.911568,-3.7493198,-11.674128,-4.7740383
0.29732457,4.2789464,-3.9955053,1.4450979,2.867892,-3.7062242,-11.9614315,-4.7644615
0.29928246,4.2742815,-3.9955053,1.4450979,2.867892,-3.7062242,-11.9614315,-4.7644615
0.3012521,4.269743,-3.8783262,1.4024874,2.8210206,-4.1611223,-12.181698,-4.999093
0.30332232,4.264924,-3.8783262,1.4024874,2.8210206,-4.1611223,-12.181698,-4.999093
0.30516756,4.2606797,-3.7462335,1.3438978,2.766692,-4.280833,-12.6461735,-4.9081135
0.30723736,4.255877,-3.7462335,1.3438978,2.766692,-4.280833,-12.6461735,-4.9081135
0.30890372,4.252067,-3.5970964,1.2714598,2.7006457,-4.271256,-12.794614,-5.094861
0.31073323,4.2478523,-3.5970964,1.2714598,2.7006457,-4.271256,-12.794614,-5.094861
0.31258088,4.243782,-3.4341109,1.1968913,2.633534,-4.8602295,-13.072341,-5.2768207
0.3144106,4.2397175,-3.4341109,1.1968913,2.633534,-4.8602295,-13.072341,-5.2768207
0.31621963,4.235859,-3.2594075,1.1148659,2.569618,-5.21936,-13.393165,-5.3007627
0.3180119,4.232006,-3.2594075,1.1148659,2.569618,-5.21936,-13.393165,-5.3007627
0.3197921,4.228342,-3.071921,1.0200574,2.504637,-5.4061074,-13.88637,-5.243302
0.3215572,4.224684,-3.071921,1.0200574,2.504637,-5.4061074,-13.88637,-5.243302
0.32330728,4.221258,-2.8673904,0.91353095,2.440721,-5.554548,-14.374787,-5.094861
0.32504052,4.217845,-2.8673904,0.91353095,2.440721,-5.554548,-14.374787,-5.094861
0.32677525,4.2146697,-2.6458154,0.79635185,2.37574,-5.6982,-14.824897,-5.046977
0.32849082,4.2115116,-2.6458154,0.79635185,2.37574,-5.6982,-14.824897,-5.046977
0.33020458,4.208625,-2.4061308,0.67065066,2.3043673,-5.827487,-15.164873,-4.9081135
0.33191064,4.205736,-2.4061308,0.67065066,2.3043673,-5.827487,-15.164873,-4.9081135
0.33361498,4.203152,-2.1494021,0.5406884,2.2329946,-6.0860605,-15.394717,-4.927267
0.33531615,4.200561,-2.1494021,0.5406884,2.2329946,-6.0860605,-15.394717,-4.927267
0.33700383,4.198292,-1.8788248,0.40433455,2.1594913,-5.8466406,-16.036364,-4.6255975
0.33868587,4.19602,-1.8788248,0.40433455,2.1594913,-5.8466406,-16.036364,-4.6255975
0.34037486,4.1940794,-1.5922687,0.27543753,2.0923796,-6.2249246,-16.778566,-4.3478703
0.34206086,4.192135,-1.5922687,0.27543753,2.0923796,-6.2249246,-16.778566,-4.3478703
0.34375966,4.190539,-1.2876031,0.1539974,2.0263333,-7.0820484,-17.281347,-4.3382936
0.34545586,4.18894,-1.2876031,0.1539974,2.0263333,-7.0820484,-17.281347,-4.3382936
0.34715992,4.1877165,-0.9605669,0.0251004,1.9613521,-7.422025,-17.827227,-4.31914
0.3488571,4.1864944,-0.9605669,0.0251004,1.9613521,-7.422025,-17.827227,-4.31914
0.35058165,4.185661,-0.618617,-0.11657977,1.8942404,-8.015787,-18.377892,-4.3957543
0.35229966,4.184828,-0.618617,-0.11657977,1.8942404,-8.015787,-18.377892,-4.3957543
0.35404232,4.184412,-0.26068816,-0.27210838,1.828194,-8.365341,-18.588581,-4.7740383
0.35578388,4.1839952,-0.26068816,-0.27210838,1.828194,-8.365341,-18.588581,-4.7740383
0.3575508,4.1840105,0.10363229,-0.44468123,1.7568213,-8.475474,-18.80406,-5.142745
0.3593171,4.1840253,0.10363229,-0.44468123,1.7568213,-8.475474,-18.80406,-5.142745
0.36110967,4.184474,0.46688747,-0.6215151,1.683318,-8.432379,-18.598158,-5.3678
0.36290178,4.184923,0.46688747,-0.6215151,1.683318,-8.432379,-18.598158,-5.3678
0.3647039,4.1858125,0.8301427,-0.7994143,1.5959663,-8.020576,-18.157625,-5.683835
0.36650532,4.186702,0.8301427,-0.7994143,1.5959663,-8.020576,-18.157625,-5.683835
0.3682965,4.1880307,1.190202,-0.9698566,1.4968967,-7.465121,-17.84638,-5.779603
0.37008673,4.189361,1.190202,-0.9698566,1.4968967,-7.465121,-17.84638,-5.779603
0.37184522,4.191128,1.5491961,-1.1243199,1.3786525,-7.101202,-17.377115,-5.9807158
0.3735969,4.1928916,1.5491961,-1.1243199,1.3786525,-7.101202,-17.377115,-5.9807158
0.37545863,4.1953278,1.9049945,-1.2553475,1.2348417,-6.5122285,-16.922218,-6.081272
0.37545863,4.1953278,1.9049945,-1.2553475,1.2348417,-6.5122285,-16.922218,-6.081272
0.37876636,4.1998124,2.2512054,-1.3618739,1.0654647,-6.0764837,-16.347609,-6.3542113
0.38023528,4.202277,2.2512054,-1.3618739,1.0654647,-6.0764837,-16.347609,-6.3542113
0.38023528,4.202277,2.2512054,-1.3618739,1.0654647,-6.0764837,-16.347609,-6.3542113
0.38329762,4.208777,2.5835679,-1.4449645,0.8790434,-5.947197,-15.557523,-6.7372837
0.3843677,4.21169,2.8946252,-1.5120763,0.67025155,-5.81791,-14.714764,-6.9623384
0.3843677,4.21169,2.8946252,-1.5120763,0.67025155,-5.81791,-14.714764,-6.9623384
0.3867296,4.218495,3.1811812,-1.5696005,0.44335026,-5.583278,-13.814544,-7.043741
0.38773668,4.222203,3.1811812,-1.5696005,0.44335026,-5.583278,-13.814544,-7.043741
0.38854843,4.2261415,3.4357796,-1.6186026,0.19940469,-5.2289367,-12.971785,-7.201759
0.3893594,4.230076,3.4357796,-1.6186026,0.19940469,-5.2289367,-12.971785,-7.201759
0.389984,4.2342668,3.6584198,-1.6558869,-0.056258786,-4.8602295,-12.181698,-7.1873937
0.39060572,4.238457,3.6584198,-1.6558869,-0.056258786,-4.8602295,-12.181698,-7.1873937
0.39118767,4.2449093,3.849102,-1.6750617,-0.31831384,-4.510676,-11.563994,-7.177817
0.39141446,4.247448,3.849102,-1.6750617,-0.31831384,-4.510676,-11.563994,-7.177817
0.3915642,4.2519836,4.0078263,-1.676127,-0.5856952,-4.0701427,-10.907983,-7.1395097
0.3917109,4.256607,4.0078263,-1.676127,-0.5856952,-4.0701427,-10.907983,-7.1395097
0.3915965,4.2614155,4.14205,-1.6580174,-0.8584029,-3.6343982,-10.309433,-7.067683
0.39147478,4.266223,4.14205,-1.6580174,-0.8584029,-3.6343982,-10.309433,-7.067683
0.3910835,4.2711554,4.2507067,-1.6217984,-1.1343064,-3.2944214,-9.749189,-7.067683
0.39068204,4.2761106,4.2507067,-1.6217984,-1.1343064,-3.2944214,-9.749189,-7.067683
0.39000347,4.2811575,4.332732,-1.56747,-1.4155363,-3.064578,-9.064447,-7.297527
0.38931522,4.2862067,4.332732,-1.56747,-1.4155363,-3.064578,-9.064447,-7.297527
0.38834924,4.291324,4.3902564,-1.4992931,-1.696766,-3.1651347,-8.269572,-7.441179
0.3873728,4.2964425,4.3902564,-1.4992931,-1.696766,-3.1651347,-8.269572,-7.441179
0.38610715,4.3015914,4.420084,-1.4268551,-1.9694737,-2.705448,-7.560889,-7.503428
0.38483047,4.30674,4.420084,-1.4268551,-1.9694737,-2.705448,-7.560889,-7.503428
0.38325584,4.311908,4.42328,-1.3448297,-2.2347245,-2.111686,-6.991069,-7.2544312
0.3816747,4.3170576,4.42328,-1.3448297,-2.2347245,-2.111686,-6.991069,-7.2544312
0.37980074,4.3221865,4.4041047,-1.2500211,-2.4925187,-1.5466543,-6.4643445,-7.0006456
0.37791702,4.3273067,4.4041047,-1.2500211,-2.4925187,-1.5466543,-6.4643445,-7.0006456
0.37573478,4.332409,4.363625,-1.1381683,-2.735399,-1.091756,-5.8801594,-6.5505357
0.3735691,4.3374405,4.363625,-1.1381683,-2.735399,-1.091756,-5.8801594,-6.5505357
0.37112397,4.3424044,4.30397,-1.0082061,-2.965496,-0.90979666,-5.425261,-6.0142345
0.368665,4.3473673,4.30397,-1.0082061,-2.965496,-0.90979666,-5.425261,-6.0142345
0.3659534,4.352214,4.2208796,-0.8675912,-3.1764183,-0.9672575,-5.0182467,-5.521029
0.3632334,4.357049,4.2208796,-0.8675912,-3.1764183,-0.9672575,-5.0182467,-5.521029
0.36027223,4.361742,4.114353,-0.71951944,-3.359644,-0.6799533,-4.7548847,-4.88896
0.3573036,4.3664236,4.114353,-0.71951944,-3.359644,-0.6799533,-4.7548847,-4.88896
0.35411686,4.370934,3.9833255,-0.5682519,-3.5162377,-0.3878607,-4.510676,-4.285621
0.3509236,4.3754334,3.9833255,-0.5682519,-3.5162377,-0.3878607,-4.510676,-4.285621
0.34753317,4.3797398,3.8299274,-0.4159191,-3.6440694,0.10055647,-4.3526587,-3.8355112
0.3441369,4.384034,3.8299274,-0.4159191,-3.6440694,0.10055647,-4.3526587,-3.8355112
0.3405823,4.3881063,3.6530936,-0.26465154,-3.7420738,0.4309563,-4.10845,-3.3758245
0.33701584,4.3921747,3.6530936,-0.26465154,-3.7420738,0.4309563,-4.10845,-3.3758245
0.33331484,4.396,3.4528236,-0.11657977,-3.8166423,0.842759,-3.9360676,-3.0023289
0.32960972,4.3998146,3.4528236,-0.11657977,-3.8166423,0.842759,-3.9360676,-3.0023289
0.32579887,4.40336,3.2280529,0.029361458,-3.8688402,0.9864111,-3.787627,-2.719813
0.32198462,4.406895,3.2280529,0.029361458,-3.8688402,0.9864111,-3.787627,-2.719813
0.31809896,4.410142,2.9819767,0.16358478,-3.8954718,0.9576807,-3.715801,-2.3798366
0.31420276,4.4133863,2.9819767,0.16358478,-3.8954718,0.9576807,-3.715801,-2.3798366
0.31026596,4.4163294,2.7231176,0.2860902,-3.896537,1.2593501,-3.1124623,-2.0446482
0.30632704,4.4192643,2.7231176,0.2860902,-3.896537,1.2593501,-3.1124623,-2.0446482
0.30237865,4.4218802,2.4472141,0.3968777,-3.8709707,1.0582372,-2.7868507,-1.7956513
0.2984288,4.424489,2.4472141,0.3968777,-3.8709707,1.0582372,-2.7868507,-1.7956513
0.29449692,4.426783,2.153201,0.4980778,-3.815577,1.5753847,-2.504335,-1.4987702
0.29056364,4.4290714,2.153201,0.4980778,-3.815577,1.5753847,-2.504335,-1.4987702
0.28663746,4.4311113,1.8464049,0.57797265,-3.7420738,2.930503,-3.2082303,-0.37828386
0.2828338,4.4330826,1.8464049,0.57797265,-3.7420738,2.930503,-3.2082303,-0.37828386
0.27796632,4.4352374,1.5449351,0.67704225,-3.6398084,1.6567876,-3.9504328,-0.2777274
0.27512962,4.43649,1.5449351,0.67704225,-3.6398084,1.6567876,-3.9504328,-0.2777274
0.27145788,4.4378285,1.2711622,0.7590676,-3.5247598,2.4612393,-3.4380736,-0.44532153
0.26777813,4.4391675,1.2711622,0.7590676,-3.5247598,2.4612393,-3.4380736,-0.44532153
0.2642083,4.440183,1.0165639,0.82404876,-3.3937323,3.074155,-1.5227122,-1.1779473
0.2606058,4.4412065,1.0165639,0.82404876,-3.3937323,3.074155,-1.5227122,-1.1779473
0.257143,4.4419355,0.7491826,0.8943562,-3.2413995,3.2609026,-1.0582372,-0.9959879
0.25368005,4.442664,0.7491826,0.8943562,-3.2413995,3.2609026,-1.0582372,-0.9959879
0.25035754,4.443081,0.45943063,0.96998996,-3.0635004,3.0454245,-1.2593501,-0.7374141
0.24704471,4.4434977,0.45943063,0.96998996,-3.0635004,3.0454245,-1.2593501,-0.7374141
0.24390322,4.443605,0.1664829,1.0360364,-2.868557,3.0502129,-1.6472107,-0.4357447
0.24075527,4.4437137,0.1664829,1.0360364,-2.868557,3.0502129,-1.6472107,-0.4357447
0.2377976,4.4435234,-0.11155113,1.0850385,-2.6608305,3.0071173,-1.7860745,-0.35913026
0.23483983,4.443334,-0.11155113,1.0850385,-2.6608305,3.0071173,-1.7860745,-0.35913026
0.23207904,4.4428635,-0.37254092,1.1244533,-2.4435165,2.8538885,-1.8914193,-0.35913026
0.22932082,4.442395,-0.37254092,1.1244533,-2.4435165,2.8538885,-1.8914193,-0.35913026
0.22676988,4.4416723,-0.6164865,1.1532154,-2.2144847,2.6767175,-2.2984335,-0.20111294
0.22422113,4.4409513,-0.6164865,1.1532154,-2.2144847,2.6767175,-2.2984335,-0.20111294
0.22190227,4.4399977,-0.84551835,1.1745207,-1.9726696,2.4133554,-2.896984,0.02873042
0.21958295,4.439047,-0.84551835,1.1745207,-1.9726696,2.4133554,-2.896984,0.02873042
0.21750467,4.4378824,-1.053245,1.1883692,-1.7191366,2.0398598,-3.691859,0.06703765
0.21542571,4.436721,-1.053245,1.1883692,-1.7191366,2.0398598,-3.691859,0.06703765
0.2135986,4.4353666,-1.2354051,1.1936955,-1.454951,1.8148049,-4.3382936,-0.019153614
0.21177058,4.4340153,-1.2354051,1.1936955,-1.454951,1.8148049,-4.3382936,-0.019153614
0.21020733,4.4325027,-1.3898685,1.1904997,-1.1843739,1.6759412,-5.0757074,0.033518825
0.20863545,4.430985,-1.3898685,1.1904997,-1.1843739,1.6759412,-5.0757074,0.033518825
0.2073357,4.429339,-1.520896,1.1809124,-0.9169925,1.6903064,-5.659893,0.095768064
0.20603226,4.427691,-1.520896,1.1809124,-0.9169925,1.6903064,-5.659893,0.095768064
0.20499071,4.425927,-1.629553,1.1723902,-0.6517416,1.8052281,-6.1626754,0.29209262
0.20394568,4.424162,-1.629553,1.1723902,-0.6517416,1.8052281,-6.1626754,0.29209262
0.20315255,4.4222984,-1.7169046,1.1702597,-0.3918171,1.8674773,-6.5601125,0.3878607
0.20235775,4.420437,-1.7169046,1.1702597,-0.3918171,1.8674773,-6.5601125,0.3878607
0.20180395,4.4184904,-1.7893426,1.1830429,-0.1372189,1.6041151,-6.6510925,0.32561144
0.20124772,4.4165435,-1.7893426,1.1830429,-0.1372189,1.6041151,-6.6510925,0.32561144
0.20091629,4.4145145,-1.855389,1.207544,0.10566141,1.3215994,-6.799533,0.20590134
0.20058282,4.4124866,-1.855389,1.207544,0.10566141,1.3215994,-6.799533,0.20590134
0.20045663,4.410377,-1.919305,1.2309798,0.32936695,1.1492168,-6.766014,0.20590134
0.20032822,4.408272,-1.919305,1.2309798,0.32936695,1.1492168,-6.766014,0.20590134
0.20038787,4.4060736,-1.9842861,1.2554809,0.5370935,1.13964,-6.7229185,0.18195933
0.20044363,4.4039254,-1.9842861,1.2554809,0.5370935,1.13964,-6.7229185,0.18195933
0.20067371,4.4015884,-2.052463,1.279982,0.7213843,1.0869676,-6.579266,0.22505496
0.20089193,4.3993425,-2.052463,1.279982,0.7213843,1.0869676,-6.579266,0.22505496
0.20125993,4.396981,-2.1270316,1.304483,0.88650024,1.1587936,-6.483498,0.32561144
0.201625,4.3946166,-2.1270316,1.304483,0.88650024,1.1587936,-6.483498,0.32561144
0.20211641,4.3921585,-2.2026653,1.3279189,1.0292457,1.2497733,-6.4547677,0.4357447
0.20260316,4.3897047,-2.2026653,1.3279189,1.0292457,1.2497733,-6.4547677,0.4357447
0.20319264,4.3871574,-2.2814949,1.3545505,1.1453595,1.2306197,-6.483498,0.62249243
0.2037782,4.3846087,-2.2814949,1.3545505,1.1453595,1.2306197,-6.483498,0.62249243
0.2044394,4.381969,-2.3613896,1.3822473,1.235907,1.0773908,-6.631939,0.62728083
0.20510815,4.37928,-2.3613896,1.3822473,1.235907,1.0773908,-6.631939,0.62728083
0.20581444,4.376598,-2.4402192,1.4078137,1.308345,0.7661445,-6.8522053,0.62249243
0.2065278,4.373871,-2.4402192,1.4078137,1.308345,0.7661445,-6.8522053,0.62249243
0.20728405,4.3710556,-2.5169182,1.4269885,1.3594776,0.46447513,-7.153875,0.50757074
0.20803386,4.368243,-2.5169182,1.4269885,1.3594776,0.46447513,-7.153875,0.50757074
0.20880829,4.365349,-2.5904214,1.4397717,1.3946314,0.38307226,-7.608773,0.39743748
0.20957835,4.3624496,-2.5904214,1.4397717,1.3946314,0.38307226,-7.608773,0.39743748
0.21035978,4.359479,-2.6617942,1.4546853,1.4191325,0.2681506,-8.0445175,0.25378537
0.21113662,4.3565035,-2.6617942,1.4546853,1.4191325,0.2681506,-8.0445175,0.25378537
0.21191761,4.3534536,-2.7299712,1.4749253,1.4351114,0.10055647,-8.508993,0.12449849
0.21269484,4.350395,-2.7299712,1.4749253,1.4351114,0.10055647,-8.508993,0.12449849
0.21346268,4.3472643,-2.7992134,1.4994264,1.4404378,-0.009576807,-8.930372,0.02873042
0.21422184,4.3441443,-2.7992134,1.4994264,1.4404378,-0.009576807,-8.930372,0.02873042
0.21496642,4.3409376,-2.869521,1.5292538,1.4393725,-0.17717093,-9.26556,-0.16280572
0.21570508,4.3377285,-2.869521,1.5292538,1.4393725,-0.17717093,-9.26556,-0.16280572
0.2164212,4.334437,-2.941959,1.5612117,1.4308504,-0.34955344,-9.380483,-0.25378537
0.21713041,4.3311467,-2.941959,1.5612117,1.4308504,-0.34955344,-9.380483,-0.25378537
0.21780781,4.327776,-3.018658,1.5974307,1.417002,-0.49320555,-9.44752,-0.36870706
0.21848011,4.324396,-3.018658,1.5974307,1.417002,-0.49320555,-9.44752,-0.36870706
0.2191123,4.320938,-3.0985527,1.6315192,1.3925009,-0.62249243,-9.41879,-0.34476504
0.21973841,4.317474,-3.0985527,1.6315192,1.3925009,-0.62249243,-9.41879,-0.34476504
0.22031662,4.3139205,-3.1827085,1.6634772,1.3584124,-0.6799533,-9.370906,-0.22026655
0.22088774,4.310365,-3.1827085,1.6634772,1.3584124,-0.6799533,-9.370906,-0.22026655
0.22139804,4.3067217,-3.2679298,1.6933045,1.3115407,-0.7374141,-9.270349,-0.25378537
0.22190148,4.303073,-3.2679298,1.6933045,1.3115407,-0.7374141,-9.270349,-0.25378537
0.22232977,4.2993402,-3.3531508,1.7231319,1.2508208,-0.7278373,-9.121908,-0.22505496
0.22275013,4.29561,-3.3531508,1.7231319,1.2508208,-0.7278373,-9.121908,-0.22505496
0.22308093,4.2917895,-3.4394374,1.7497636,1.1762522,-0.6368576,-9.11712,-0.34476504
0.22340405,4.287968,-3.4394374,1.7497636,1.1762522,-0.6368576,-9.11712,-0.34476504
0.22362785,4.284065,-3.5235932,1.7710688,1.0889004,-0.5602432,-8.992621,-0.48362875
0.22384389,4.2801614,-3.5235932,1.7710688,1.0889004,-0.5602432,-8.992621,-0.48362875
0.22394979,4.276181,-3.6066837,1.7849172,0.9877004,-0.50757074,-8.925584,-0.7422025
0.2240481,4.2722,-3.6066837,1.7849172,0.9877004,-0.50757074,-8.925584,-0.7422025
0.22403304,4.2681475,-3.6887093,1.7913089,0.87584764,-0.58418524,-8.944737,-1.0007763
0.22401041,4.264095,-3.6887093,1.7913089,0.87584764,-0.58418524,-8.944737,-1.0007763
0.2238723,4.2599773,-3.7664735,1.7891784,0.756538,-0.6512229,-8.901642,-1.2066777
0.22372666,4.2558603,-3.7664735,1.7891784,0.756538,-0.6512229,-8.901642,-1.2066777
0.22346121,4.2516866,-3.8389115,1.7774605,0.62977153,-0.641646,-8.963891,-1.436521
0.22318853,4.247514,-3.8389115,1.7774605,0.62977153,-0.641646,-8.963891,-1.436521
0.22279587,4.2432914,-3.9049578,1.7646773,0.5019398,-0.6847417,-9.097966,-1.757344
0.2201647,4.221857,-4.0093536,1.7178056,0.25799423,-1.4173675,-9.873688,-2.2888567
0.2201647,4.221857,-4.0093536,1.7178056,0.25799423,-1.4173675,-9.873688,-2.2888567
0.2201647,4.221857,-4.0093536,1.7178056,0.25799423,-1.4173675,-9.873688,-2.2888567
0.2201647,4.221857,-4.0093536,1.7178056,0.25799423,-1.4173675,-9.873688,-2.2888567
0.2201647,4.221857,-4.0093536,1.7178056,0.25799423,-1.4173675,-9.873688,-2.2888567
0.2201647,4.221857,-4.0093536,1.7178056,0.25799423,-1.4173675,-9.873688,-2.2888567
0.21848473,4.2114396,-4.0434422,1.6815866,0.15466358,-1.5370775,-10.127473,-2.6527755
0.21811347,4.2092595,-4.066878,1.634715,0.061985567,-1.5466543,-10.342952,-2.944868
0.21727388,4.2045636,-4.066878,1.634715,0.061985567,-1.5466543,-10.342952,-2.944868
0.21509221,4.1932344,-4.077531,1.5803865,-0.016844003,-1.5945383,-10.472239,-3.347094
0.21509221,4.1932344,-4.077531,1.5803865,-0.016844003,-1.5945383,-10.472239,-3.347094
0.21467423,4.1911745,-4.0754004,1.5239275,-0.0828904,-1.6711528,-10.515334,-3.7014358
0.21467423,4.1911745,-4.0754004,1.5239275,-0.0828904,-1.6711528,-10.515334,-3.7014358
0.21260586,4.181106,-4.0615516,1.4632074,-0.1372189,-1.6184803,-10.400413,-4.0318356
0.21220411,4.179224,-4.0615516,1.4632074,-0.1372189,-1.6184803,-10.400413,-4.0318356
0.2112987,4.1750603,-4.0327897,1.401422,-0.1787642,-1.7764976,-10.472239,-4.333505
0.21039128,4.1709027,-4.0327897,1.401422,-0.1787642,-1.7764976,-10.472239,-4.333505
0.2094826,4.1668043,-3.9912443,1.3364409,-0.20965686,-1.8339585,-10.496181,-4.6591167
0.20858276,4.1627564,-3.9912443,1.3364409,-0.20965686,-1.8339585,-10.496181,-4.6591167
0.20766406,4.1587086,-3.9358506,1.2703946,-0.23309268,-1.7717092,-10.520123,-5.00867
0.20672654,4.154586,-3.9358506,1.2703946,-0.23309268,-1.7717092,-10.520123,-5.00867
0.20582508,4.150652,-3.8666084,1.2032828,-0.24800639,-1.8818425,-10.453085,-5.391742
0.2049234,4.14672,-3.8666084,1.2032828,-0.24800639,-1.8818425,-10.453085,-5.391742
0.20400175,4.142846,-3.7856483,1.1319102,-0.25759378,-1.6089035,-10.395624,-5.779603
0.2030766,4.138956,-3.7856483,1.1319102,-0.25759378,-1.6089035,-10.395624,-5.779603
0.20214646,4.13515,-3.6929703,1.0605375,-0.26398537,-1.541866,-10.237606,-6.2871737
0.20121755,4.1313553,-3.6929703,1.0605375,-0.26398537,-1.541866,-10.237606,-6.2871737
0.20031206,4.127615,-3.586444,0.98809946,-0.2682464,-1.5514427,-10.113108,-6.766014
0.19940281,4.123883,-3.586444,0.98809946,-0.2682464,-1.5514427,-10.113108,-6.766014
0.19853574,4.1202602,-3.4671342,0.91353095,-0.27250746,-1.5370775,-10.13705,-7.038953
0.1976642,4.116645,-3.4671342,0.91353095,-0.27250746,-1.5370775,-10.13705,-7.038953
0.19683762,4.113166,-3.3318455,0.8368319,-0.274638,-1.5562311,-10.189722,-7.249643
0.19600672,4.109693,-3.3318455,0.8368319,-0.274638,-1.5562311,-10.189722,-7.249643
0.19522542,4.1063666,-3.1795127,0.7643939,-0.274638,-1.4652514,-10.251971,-7.603985
0.19444016,4.1030445,-3.1795127,0.7643939,-0.274638,-1.4652514,-10.251971,-7.603985
0.19370447,4.0998907,-3.0090704,0.696217,-0.27250746,-1.4987702,-10.299856,-7.881712
0.19296521,4.0967407,-3.0090704,0.696217,-0.27250746,-1.4987702,-10.299856,-7.881712
0.19227146,4.09378,-2.8205187,0.6291053,-0.27357274,-1.3838485,-10.299856,-8.2169
0.19157542,4.090825,-2.8205187,0.6291053,-0.27357274,-1.3838485,-10.299856,-8.2169
0.19094743,4.088054,-2.6181183,0.563059,-0.27250746,-1.7381904,-10.338163,-8.628703
0.19031776,4.0852876,-2.6181183,0.563059,-0.27250746,-1.7381904,-10.338163,-8.628703
0.18971628,4.082754,-2.4061308,0.4927515,-0.2682464,-1.6759412,-10.783484,-8.834604
0.18911251,4.080223,-2.4061308,0.4927515,-0.2682464,-1.6759412,-10.783484,-8.834604
0.18853122,4.0779543,-2.1824253,0.41924825,-0.26185483,-1.7669208,-11.506534,-8.939949
0.18794754,4.0756893,-2.1824253,0.41924825,-0.26185483,-1.7669208,-11.506534,-8.939949
0.18741415,4.073675,-1.9374144,0.35000607,-0.254398,-2.0685902,-11.8896055,-9.203311
0.18687825,4.071664,-1.9374144,0.35000607,-0.254398,-2.0685902,-11.8896055,-9.203311
0.1864535,4.069881,-1.6732289,0.27863333,-0.24054953,-2.456451,-11.860875,-9.600749
0.18602626,4.068095,-1.6732289,0.27863333,-0.24054953,-2.456451,-11.860875,-9.600749
0.18569386,4.0665846,-1.3983905,0.19980377,-0.22030951,-2.719813,-12.109872,-9.883265
0.18536097,4.065074,-1.3983905,0.19980377,-0.22030951,-2.719813,-12.109872,-9.883265
0.18505083,4.063882,-1.1150303,0.10712577,-0.20006949,-2.7964275,-12.665327,-9.821015
0.18473683,4.0626926,-1.1150303,0.10712577,-0.20006949,-2.7964275,-12.665327,-9.821015
0.18452701,4.0617943,-0.8220825,0.010186698,-0.17769894,-2.8538885,-12.660539,-9.89763
0.18431428,4.060893,-0.8220825,0.010186698,-0.17769894,-2.8538885,-12.660539,-9.89763
0.18423773,4.060296,-0.51635164,-0.08994816,-0.15852417,-2.9640217,-12.497733,-9.9790325
0.18416138,4.0596986,-0.51635164,-0.08994816,-0.15852417,-2.9640217,-12.497733,-9.9790325
0.18416807,4.059423,-0.20742492,-0.19114828,-0.14680627,-3.0119057,-12.411542,-10.103531
0.18417484,4.059148,-0.20742492,-0.19114828,-0.14680627,-3.0119057,-12.411542,-10.103531
0.18418054,4.059206,0.09830597,-0.29128313,-0.14361048,-2.825158,-12.583924,-9.983821
0.1841864,4.059264,0.09830597,-0.29128313,-0.14361048,-2.825158,-12.583924,-9.983821
0.1841985,4.0596733,0.4061674,-0.38396114,-0.1489368,-2.681506,-12.62702,-9.921572
0.1842119,4.0600815,0.4061674,-0.38396114,-0.1489368,-2.681506,-12.62702,-9.921572
0.1842865,4.060794,0.71615934,-0.46598652,-0.16598102,-2.480393,-12.334928,-10.141838
0.18436128,4.0615025,0.71615934,-0.46598652,-0.16598102,-2.480393,-12.334928,-10.141838
0.18449686,4.062519,1.0240208,-0.536294,-0.19261263,-2.6192567,-11.9853735,-10.328587
0.18463299,4.063541,1.0240208,-0.536294,-0.19261263,-2.6192567,-11.9853735,-10.328587
0.1847938,4.0648603,1.3180338,-0.60020983,-0.23309268,-2.681506,-11.449073,-10.563218
0.18495394,4.0661817,1.3180338,-0.60020983,-0.23309268,-2.681506,-11.449073,-10.563218
0.18510483,4.06779,1.5939373,-0.6609299,-0.28209487,-2.480393,-11.003751,-10.740389
0.18525492,4.0694,1.5939373,-0.6609299,-0.28209487,-2.480393,-11.003751,-10.740389
0.185373,4.0712833,1.850666,-0.71951944,-0.34281492,-2.0446482,-10.697293,-10.721235
0.1854903,4.0731707,1.850666,-0.71951944,-0.34281492,-2.0446482,-10.697293,-10.721235
0.1855633,4.075313,2.0903504,-0.76958686,-0.41844872,-1.6998832,-10.405201,-10.505757
0.18563507,4.077457,2.0903504,-0.76958686,-0.41844872,-1.6998832,-10.405201,-10.505757
0.18565089,4.079842,2.3161867,-0.80367535,-0.5089962,-1.5227122,-10.007763,-10.386047
0.18566503,4.0822268,2.3161867,-0.80367535,-0.5089962,-1.5227122,-10.007763,-10.386047
0.1856088,4.084836,2.527109,-0.8260459,-0.6133921,-1.4939818,-9.600749,-10.113108
0.18555048,4.0874453,2.527109,-0.8260459,-0.6133921,-1.4939818,-9.600749,-10.113108
0.18541317,4.0902634,2.7220523,-0.8377638,-0.7241796,-1.5466543,-9.179369,-9.950302
0.1852738,4.093075,2.7220523,-0.8377638,-0.7241796,-1.5466543,-9.179369,-9.950302
0.18505076,4.0960793,2.9010167,-0.8441554,-0.8402934,-1.733402,-8.848969,-9.773131
0.18482436,4.0990868,2.9010167,-0.8441554,-0.8402934,-1.733402,-8.848969,-9.773131
0.18451124,4.1022587,3.0618718,-0.84841645,-0.9574725,-1.9009962,-8.51857,-9.763555
0.18419273,4.1054487,3.0618718,-0.84841645,-0.9574725,-1.9009962,-8.51857,-9.763555
0.18378279,4.108765,3.204617,-0.8558733,-1.0746516,-1.8866309,-8.307879,-9.787497
0.18336722,4.112094,3.204617,-0.8558733,-1.0746516,-1.8866309,-8.307879,-9.787497
0.18285438,4.1155567,3.329253,-0.8697218,-1.1897001,-1.6472107,-8.130709,-9.811439
0.18233621,4.1190257,3.329253,-0.8697218,-1.1897001,-1.6472107,-8.130709,-9.811439
0.18171765,4.1226044,3.4325838,-0.8793091,-1.2983571,-1.2210429,-7.967903,-9.662998
0.1810933,4.1261883,3.4325838,-0.8793091,-1.2983571,-1.2210429,-7.967903,-9.662998
0.18036683,4.1298637,3.5199354,-0.87504804,-1.4027531,-0.93373865,-7.833828,-9.208099
0.17963484,4.1335406,3.5199354,-0.87504804,-1.4027531,-0.93373865,-7.833828,-9.208099
0.17877375,4.137395,3.5902429,-0.8494817,-1.5018227,-0.7757214,-7.517793,-8.7053175
0.17795071,4.141055,3.5902429,-0.8494817,-1.5018227,-0.7757214,-7.517793,-8.7053175
0.17699422,4.144848,3.6445713,-0.8047406,-1.5945007,-0.41180268,-7.067683,-8.226477
0.17603381,4.1486335,3.6445713,-0.8047406,-1.5945007,-0.41180268,-7.067683,-8.226477
0.17494556,4.152468,3.675464,-0.7386942,-1.6775913,0.038307227,-6.531382,-7.680599
0.17384484,4.1563272,3.675464,-0.7386942,-1.6775913,0.038307227,-6.531382,-7.680599
0.17262937,4.160158,3.6797252,-0.6513425,-1.748964,0.37828386,-6.090849,-7.1251445
0.17141661,4.163963,3.6797252,-0.6513425,-1.748964,0.37828386,-6.090849,-7.1251445
0.17007604,4.167758,3.6541588,-0.5480119,-1.8150104,0.5267244,-5.602432,-6.631939
0.1687257,4.1715646,3.6541588,-0.5480119,-1.8150104,0.5267244,-5.602432,-6.631939
0.16726424,4.1752853,3.5976996,-0.43509385,-1.8725346,0.5650316,-5.1906295,-5.8945246
0.1658003,4.1789985,3.5976996,-0.43509385,-1.8725346,0.5650316,-5.1906295,-5.8945246
0.16422687,4.182617,3.510348,-0.31898,-1.9162105,0.521936,-4.984728,-5.195418
0.16264997,4.1862326,3.510348,-0.31898,-1.9162105,0.521936,-4.984728,-5.195418
0.16096285,4.189731,3.393169,-0.20712726,-1.9481685,0.7038953,-4.8027687,-4.343082
0.15927285,4.1932263,3.393169,-0.20712726,-1.9481685,0.7038953,-4.8027687,-4.343082
0.15726398,4.196995,3.2472277,-0.09633975,-1.9694737,1.0486604,-4.7022123,-3.5673606
0.15565076,4.2000127,3.2472277,-0.09633975,-1.9694737,1.0486604,-4.7022123,-3.5673606
0.15376389,4.203273,3.0746548,0.010186698,-1.9769306,1.316811,-4.7500963,-2.6671407
0.15186624,4.206541,3.0746548,0.010186698,-1.9769306,1.316811,-4.7500963,-2.6671407
0.14848922,4.2119493,2.8839724,0.10819103,-1.9758654,1.4556746,-4.783615,-1.9297266
0.14796099,4.212793,2.8839724,0.10819103,-1.9758654,1.4556746,-4.783615,-1.9297266
0.14616308,4.215463,2.6783764,0.19554271,-1.9652127,1.6519991,-4.903325,-1.1779473
0.14428437,4.218248,2.6783764,0.19554271,-1.9652127,1.6519991,-4.903325,-1.1779473
0.14236864,4.220871,2.4621277,0.2711765,-1.9449726,1.7286136,-5.0517654,-0.4213795
0.14045286,4.2234893,2.4621277,0.2711765,-1.9449726,1.7286136,-5.0517654,-0.4213795
0.13853917,4.225889,2.2416182,0.33296183,-1.9151453,1.8339585,-5.2145715,0.25378537
0.13662966,4.2282796,2.2416182,0.33296183,-1.9151453,1.8339585,-5.2145715,0.25378537
0.13474116,4.230438,2.0211084,0.37983346,-1.8767958,2.006341,-5.329493,0.8714894
0.13284394,4.232603,2.0211084,0.37983346,-1.8767958,2.006341,-5.329493,0.8714894
0.1309849,4.234542,1.8059249,0.4085956,-1.8309894,2.0829554,-5.506664,1.5275006
0.12912491,4.236479,1.8059249,0.4085956,-1.8309894,2.0829554,-5.506664,1.5275006
0.12731056,4.238205,1.6013942,0.42244405,-1.7777262,2.0685902,-5.626374,2.0015526
0.12549898,4.2399273,1.6013942,0.42244405,-1.7777262,2.0685902,-5.626374,2.0015526
0.12374217,4.2414556,1.4064507,0.418183,-1.7127451,2.1068976,-5.7987566,2.3319526
0.121988215,4.2429805,1.4064507,0.418183,-1.7127451,2.1068976,-5.7987566,2.3319526
0.12031253,4.244317,1.2242905,0.39474717,-1.6413723,2.1883004,-5.8562174,2.5809495
0.11862963,4.245659,1.2242905,0.39474717,-1.6413723,2.1883004,-5.8562174,2.5809495
0.11703789,4.2468266,1.0549134,0.35213658,-1.563608,2.3223755,-5.793968,2.719813
0.11544737,4.2479925,1.0549134,0.35213658,-1.563608,2.3223755,-5.793968,2.719813
0.11394933,4.248998,0.8929933,0.29461232,-1.4837132,2.5330653,-5.6886234,2.858677
0.11245392,4.250001,0.8929933,0.29461232,-1.4837132,2.5330653,-5.6886234,2.858677
0.11106381,4.25085,0.7385299,0.22643538,-1.3952962,2.767697,-5.4922986,2.8491
0.1096345,4.251723,0.7385299,0.22643538,-1.3952962,2.767697,-5.4922986,2.8491
0.108390935,4.2524004,0.5851318,0.15293214,-1.3015529,3.0214825,-5.33907,2.8299465
0.10711779,4.2530932,0.5851318,0.15293214,-1.3015529,3.0214825,-5.33907,2.8299465
0.10594928,4.253639,0.43386427,0.08155942,-1.2078097,3.169923,-5.142745,2.7389667
0.10478523,4.254183,0.43386427,0.08155942,-1.2078097,3.169923,-5.142745,2.7389667
0.10374012,4.2545776,0.28472725,0.011251962,-1.1087401,3.1555579,-4.9176903,2.6527755
0.10269581,4.254972,0.28472725,0.011251962,-1.1087401,3.1555579,-4.9176903,2.6527755
0.10176967,4.2552156,0.13452496,-0.05692496,-1.0043441,3.371036,-4.7740383,2.4899697
0.100844346,4.255459,0.13452496,-0.05692496,-1.0043441,3.371036,-4.7740383,2.4899697
0.10004608,4.2555485,-0.019938385,-0.1187103,-0.8924914,3.1411927,-4.7788267,2.2457612
0.099248506,4.255638,-0.019938385,-0.1187103,-0.8924914,3.1411927,-4.7788267,2.2457612
0.09857349,4.2555733,-0.17440173,-0.17836511,-0.7753123,3.0358477,-4.8937483,1.9536686
0.09790847,4.2555094,-0.17440173,-0.17836511,-0.7753123,3.0358477,-4.8937483,1.9536686
0.09737378,4.255292,-0.32779983,-0.24121572,-0.6528069,2.96881,-5.0757074,1.6424223
0.09605364,4.2543435,-0.4780021,-0.29980525,-0.52390987,2.767697,-5.4539914,1.316811
0.09605364,4.2543435,-0.4780021,-0.29980525,-0.52390987,2.767697,-5.4539914,1.316811
0.09605364,4.2543435,-0.4780021,-0.29980525,-0.52390987,2.767697,-5.4539914,1.316811
0.09580139,4.2538214,-0.618617,-0.35732955,-0.38755605,2.4181437,-5.8226986,1.1204864
0.09555969,4.2533197,-0.618617,-0.35732955,-0.38755605,2.4181437,-5.8226986,1.1204864
0.09547816,4.252705,-0.747514,-0.4148538,-0.2416148,2.1404164,-6.325481,0.94810385
0.09547816,4.252705,-0.747514,-0.4148538,-0.2416148,2.1404164,-6.325481,0.94810385
0.09535748,4.2514415,-0.8583015,-0.47663915,-0.093543045,1.9776106,-6.9623384,0.89064306
0.09545755,4.2505255,-0.8583015,-0.47663915,-0.093543045,1.9776106,-6.9623384,0.89064306
0.095661156,4.249859,-0.9456532,-0.5416203,0.058789775,1.685518,-7.6710224,0.8475474
0.0959103,4.249045,-0.9456532,-0.5416203,0.058789775,1.685518,-7.6710224,0.8475474
0.0963385,4.2481585,-1.009569,-0.60553616,0.21751417,1.4077905,-8.408437,0.81402856
0.0963385,4.2481585,-1.009569,-0.60553616,0.21751417,1.4077905,-8.408437,0.81402856
0.09725789,4.2463684,-1.0500491,-0.665191,0.38049963,1.2689269,-9.045294,0.58897364
0.09786077,4.245442,-1.0500491,-0.665191,0.38049963,1.2689269,-9.045294,0.58897364
0.09863572,4.2444944,-1.0713544,-0.71951944,0.54455036,1.1013328,-9.672575,0.34955344
0.09863572,4.2444944,-1.0713544,-0.71951944,0.54455036,1.1013328,-9.672575,0.34955344
0.10025703,4.242581,-1.0766808,-0.76745635,0.7075358,0.6751649,-10.108319,-0.22026655
0.10118863,4.241643,-1.0766808,-0.76745635,0.7075358,0.6751649,-10.108319,-0.22026655
0.10229691,4.240698,-1.0692239,-0.81539327,0.85986865,0.24420857,-10.304645,-0.6703765
0.10340978,4.23975,-1.0692239,-0.81539327,0.85986865,0.24420857,-10.304645,-0.6703765
0.10466934,4.238819,-1.053245,-0.8622649,1.0015488,0.038307227,-10.405201,-1.1061212
0.10592775,4.2378893,-1.053245,-0.8622649,1.0015488,0.038307227,-10.405201,-1.1061212
0.10733093,4.2369766,-1.0340701,-0.90913653,1.1357721,-0.12449849,-10.43872,-1.4317327
0.10873133,4.236066,-1.0340701,-0.90913653,1.1357721,-0.12449849,-10.43872,-1.4317327
0.110256985,4.2351766,-1.0116996,-0.95707345,1.2550818,-0.05267244,-10.534488,-1.5370775
0.11177956,4.234289,-1.0116996,-0.95707345,1.2550818,-0.05267244,-10.534488,-1.5370775
0.1134102,4.2334256,-0.9861332,-0.9986187,1.348825,-0.20111294,-10.70687,-1.6567876
0.11504239,4.2325616,-0.9861332,-0.9986187,1.348825,-0.20111294,-10.70687,-1.6567876
0.11676244,4.2317295,-0.9552406,-1.035903,1.4233935,-0.4405331,-10.850522,-1.8531121
0.11848223,4.230898,-0.9552406,-1.035903,1.4233935,-0.4405331,-10.850522,-1.8531121
0.12027238,4.230107,-0.91689104,-1.072122,1.477722,-0.6943185,-11.03727,-2.0254946
0.1220623,4.2293158,-0.91689104,-1.072122,1.477722,-0.6943185,-11.03727,-2.0254946
0.1239056,4.228575,-0.8710847,-1.1094062,1.5096799,-1.0630256,-11.334151,-2.4037786
0.1257485,4.2278347,-0.8710847,-1.1094062,1.5096799,-1.0630256,-11.334151,-2.4037786
0.12761843,4.2271566,-0.8135604,-1.148821,1.5213978,-1.1300632,-11.573571,-2.9640217
0.12948781,4.22648,-0.8135604,-1.148821,1.5213978,-1.1300632,-11.573571,-2.9640217
0.13136706,4.225878,-0.7453835,-1.1935622,1.513941,-1.1444284,-11.822568,-3.5098996
0.1332456,4.225277,-0.7453835,-1.1935622,1.513941,-1.1444284,-11.822568,-3.5098996
0.13511533,4.2247653,-0.66548866,-1.2436296,1.4809178,-1.2545617,-12.052411,-3.9839516
0.13698794,4.2242537,-0.66548866,-1.2436296,1.4809178,-1.2545617,-12.052411,-3.9839516
0.13884395,4.2238526,-0.5685496,-1.297958,1.4255241,-1.5897499,-12.172121,-4.453215
0.14070082,4.2234516,-0.5685496,-1.297958,1.4255241,-1.5897499,-12.172121,-4.453215
0.14252807,4.223181,-0.45350102,-1.3586781,1.3530861,-1.7764976,-12.210428,-4.9224787
0.14435565,4.2229104,-0.45350102,-1.3586781,1.3530861,-1.7764976,-12.210428,-4.9224787
0.14611429,4.2227936,-0.31714717,-1.4247246,1.2625386,-1.7286136,-12.20564,-5.48751
0.147874,4.2226768,-0.31714717,-1.4247246,1.2625386,-1.7286136,-12.20564,-5.48751
0.14955609,4.222732,-0.16055329,-1.4918362,1.1613384,-1.7717092,-12.253524,-5.899313
0.15123442,4.222788,-0.16055329,-1.4918362,1.1613384,-1.7717092,-12.253524,-5.899313
0.15278268,4.223008,0.013084813,-1.5546868,1.0462899,-1.9488802,-12.210428,-6.3925185
0.15432344,4.2232227,0.013084813,-1.5546868,1.0462899,-1.9488802,-12.210428,-6.3925185
0.15584366,4.223485,0.20589767,-1.6090152,0.92271924,-2.0590134,-12.310986,-6.83784
0.15735745,4.2237506,0.20589767,-1.6090152,0.92271924,-2.0590134,-12.310986,-6.83784
0.15882024,4.2242336,0.41575477,-1.6569521,0.7938222,-2.1930888,-12.430696,-7.311892
0.16027927,4.2247186,0.41575477,-1.6569521,0.7938222,-2.1930888,-12.430696,-7.311892
0.16165325,4.22544,0.63732976,-1.6963669,0.66172945,-2.3319526,-12.516887,-7.833828
0.1630395,4.2261715,0.63732976,-1.6963669,0.66172945,-2.3319526,-12.516887,-7.833828
0.16432516,4.2271447,0.8663616,-1.7261944,0.5285714,-2.5330653,-12.569559,-8.322245
0.16558003,4.228099,0.8663616,-1.7261944,0.5285714,-2.5330653,-12.569559,-8.322245
0.16675486,4.2293124,1.097524,-1.7496302,0.39754388,-2.72939,-12.516887,-8.829816
0.16792932,4.2305303,1.097524,-1.7496302,0.39754388,-2.72939,-12.516887,-8.829816
0.16900611,4.232004,1.3286865,-1.7656091,0.26864687,-2.873042,-12.373235,-9.356541
0.17056136,4.2341433,1.3286865,-1.7656091,0.26864687,-2.873042,-12.373235,-9.356541
0.17110722,4.2351136,1.5555878,-1.7762618,0.14401093,-2.9783869,-12.11466,-9.691729
0.17203388,4.236766,1.5555878,-1.7762618,0.14401093,-2.9783869,-12.11466,-9.691729
0.17287427,4.238685,1.7729017,-1.7837187,0.022570781,-2.9640217,-11.884817,-9.935937
0.17371722,4.240619,1.7729017,-1.7837187,0.022570781,-2.9640217,-11.884817,-9.935937
0.17444323,4.2427697,1.9806283,-1.7858492,-0.09460831,-2.6479871,-11.597513,-9.964667
0.17516479,4.24492,1.9806283,-1.7858492,-0.09460831,-2.6479871,-11.597513,-9.964667
0.17576936,4.2472796,2.1755717,-1.7773271,-0.20859161,-2.2936451,-11.348516,-10.113108
0.17636986,4.2496414,2.1755717,-1.7773271,-0.20859161,-2.2936451,-11.348516,-10.113108
0.17684716,4.2521896,2.3577318,-1.7549565,-0.32150963,-2.0015526,-11.180922,-10.113108
0.17731975,4.2547364,2.3577318,-1.7549565,-0.32150963,-2.0015526,-11.180922,-10.113108
0.1776686,4.257464,2.5292394,-1.720868,-0.4365582,-1.8866309,-10.94629,-10.084377
0.17801279,4.260193,2.5292394,-1.720868,-0.4365582,-1.8866309,-10.94629,-10.084377
0.17823504,4.2630763,2.6858332,-1.6750617,-0.54841095,-1.9871874,-10.716447,-10.060435
0.17845167,4.265952,2.6858332,-1.6750617,-0.54841095,-1.9871874,-10.716447,-10.060435
0.17855087,4.268985,2.829644,-1.6217984,-0.65706795,-2.2505496,-10.43872,-10.223241
0.17864464,4.2720118,2.829644,-1.6217984,-0.65706795,-2.2505496,-10.43872,-10.223241
0.17862588,4.2751703,2.9606717,-1.5696005,-0.7593333,-2.5234885,-10.0987425,-10.390836
0.17860164,4.2783175,2.9606717,-1.5696005,-0.7593333,-2.5234885,-10.0987425,-10.390836
0.1784778,4.281595,3.0778506,-1.5227288,-0.85094607,-2.9017725,-9.739613,-10.5440645
0.17834835,4.284869,3.0778506,-1.5227288,-0.85094607,-2.9017725,-9.739613,-10.5440645
0.17812432,4.2882385,3.1779854,-1.4854445,-0.9244493,-2.5570073,-9.433155,-10.726024
0.17789517,4.2915964,3.1779854,-1.4854445,-0.9244493,-2.5570073,-9.433155,-10.726024
0.17757244,4.2950544,3.2632067,-1.4460298,-0.98623466,-1.757344,-8.959103,-10.644621
0.1772443,4.2985077,3.2632067,-1.4460298,-0.98623466,-1.757344,-8.959103,-10.644621
0.17682508,4.3020177,3.329253,-1.3906361,-1.0405631,-0.94331545,-8.441956,-10.390836
0.17640148,4.3055162,3.329253,-1.3906361,-1.0405631,-0.94331545,-8.441956,-10.390836
0.17588769,4.3090587,3.373994,-1.3096759,-1.0853043,-0.23463176,-7.651869,-10.132261
0.1753669,4.312611,3.373994,-1.3096759,-1.0853043,-0.23463176,-7.651869,-10.132261
0.17475128,4.316153,3.3942342,-1.2031496,-1.1300454,0.41180268,-6.823475,-9.792285
0.17413245,4.3196836,3.3942342,-1.2031496,-1.1300454,0.41180268,-6.823475,-9.792285
0.17341024,4.323204,3.3835816,-1.0785136,-1.176917,0.7757214,-5.9519854,-9.543288
0.17268397,4.3267198,3.3835816,-1.0785136,-1.176917,0.7757214,-5.9519854,-9.543288
0.1718569,4.3301597,3.3335142,-0.9368334,-1.2195276,1.1348516,-5.1379566,-9.160215
0.17102812,4.3335867,3.3335142,-0.9368334,-1.2195276,1.1348516,-5.1379566,-9.160215
0.17009938,4.3369126,3.2408361,-0.7802395,-1.2546813,1.3072342,-4.414908,-8.8777
0.16916792,4.3402333,3.2408361,-0.7802395,-1.2546813,1.3072342,-4.414908,-8.8777
0.16815133,4.3433867,3.1044822,-0.61405826,-1.2770518,1.412579,-3.892972,-8.485051
0.16713484,4.3465295,3.1044822,-0.61405826,-1.2770518,1.412579,-3.892972,-8.485051
0.16604072,4.3494816,2.926583,-0.4425507,-1.2823782,1.541866,-3.5242648,-7.9487495
0.16494533,4.352429,2.926583,-0.4425507,-1.2823782,1.541866,-3.5242648,-7.9487495
0.16378559,4.3551292,2.7082038,-0.27104312,-1.2770518,1.8195933,-3.4093432,-7.3549876
0.16262771,4.3578205,2.7082038,-0.27104312,-1.2770518,1.8195933,-3.4093432,-7.3549876
0.16141436,4.360248,2.4568014,-0.09740501,-1.2546813,2.0159178,-3.4620156,-6.6846113
0.1602013,4.362672,2.4568014,-0.09740501,-1.2546813,2.0159178,-3.4620156,-6.6846113
0.15895455,4.364794,2.1798327,0.074102566,-1.2184623,2.1021092,-3.6343982,-5.9567738
0.1577111,4.3669076,2.1798327,0.074102566,-1.2184623,2.1021092,-3.6343982,-5.9567738
0.15644398,4.368716,1.8858197,0.24134909,-1.1673297,2.0350714,-3.9025488,-5.2480903
0.15517828,4.3705215,1.8858197,0.24134909,-1.1673297,2.0350714,-3.9025488,-5.2480903
0.15391085,4.372009,1.5854151,0.3990082,-1.1012832,1.9488802,-4.3382936,-4.486734
0.15264621,4.3734927,1.5854151,0.3990082,-1.1012832,1.9488802,-4.3382936,-4.486734
0.15139326,4.374667,1.2828801,0.54175365,-1.0213884,1.70946,-4.7788267,-3.7445314
0.15014085,4.3758416,1.2828801,0.54175365,-1.0213884,1.70946,-4.7788267,-3.7445314
0.14891969,4.376725,0.9899323,0.6663896,-0.92657983,1.5610195,-5.1906295,-2.9640217
0.14770257,4.3776064,0.9899323,0.6663896,-0.92657983,1.5610195,-5.1906295,-2.9640217
0.14653994,4.3782096,0.7087025,0.77185076,-0.8179229,1.2401965,-5.291186,-2.4708161
0.1453788,4.378812,0.7087025,0.77185076,-0.8179229,1.2401965,-5.291186,-2.4708161
0.1443076,4.3791842,0.44451693,0.8560067,-0.6986132,1.8387469,-5.9280434,-1.7717092
0.14323771,4.379557,0.44451693,0.8560067,-0.6986132,1.8387469,-5.9280434,-1.7717092
0.14229915,4.3797174,0.19844083,0.9241836,-0.5707815,1.5993267,-7.201759,-0.78050977
0.1413617,4.379878,0.19844083,0.9241836,-0.5707815,1.5993267,-7.201759,-0.78050977
0.14057472,4.3798337,-0.013546798,0.99023,-0.4280361,0.47405192,-8.336611,-0.5315128
0.13979028,4.379791,-0.013546798,0.99023,-0.4280361,0.47405192,-8.336611,-0.5315128
0.13911846,4.3795624,-0.18185858,1.0243185,-0.27996433,0.7613561,-7.8146744,-0.6655881
0.13844594,4.379335,-0.18185858,1.0243185,-0.27996433,0.7613561,-7.8146744,-0.6655881
0.1379164,4.378957,-0.32460403,1.0317754,-0.1276315,0.9672575,-7.6949644,-0.47884035
0.13738601,4.3785787,-0.32460403,1.0317754,-0.1276315,0.9672575,-7.6949644,-0.47884035
0.13701583,4.3780603,-0.46095788,1.0349711,0.035353955,0.61291564,-7.4842744,-0.48841715
0.13664608,4.3775444,-0.46095788,1.0349711,0.035353955,0.61291564,-7.4842744,-0.48841715
0.13642906,4.3768826,-0.5941159,1.0296447,0.20153521,1.1923125,-7.565677,-0.14844051
0.13621174,4.3762217,-0.5941159,1.0296447,0.20153521,1.1923125,-7.565677,-0.14844051
0.1361516,4.375424,-0.72620875,1.0168616,0.3634554,1.5035586,-7.714118,0.1388637
0.13609032,4.3746214,-0.72620875,1.0168616,0.3634554,1.5035586,-7.714118,0.1388637
0.13616914,4.373685,-0.8529752,1.0136658,0.5136577,1.5131354,-7.493851,0.06703765
0.13624679,4.3727503,-0.8529752,1.0136658,0.5136577,1.5131354,-7.493851,0.06703765
0.1364482,4.371684,-0.9786764,1.0157963,0.65001154,1.7477672,-7.0820484,0.19153613
0.13664857,4.370616,-0.9786764,1.0157963,0.65001154,1.7477672,-7.0820484,0.19153613
0.13695577,4.3694043,-1.1075734,1.0243185,0.76719064,1.8100165,-6.799533,0.22505496
0.13726072,4.3681955,-1.1075734,1.0243185,0.76719064,1.8100165,-6.799533,0.22505496
0.13765413,4.3668485,-1.2417967,1.0392321,0.86626023,1.9249382,-6.742072,0.4357447
0.13804562,4.365502,-1.2417967,1.0392321,0.86626023,1.9249382,-6.742072,0.4357447
0.13850619,4.364012,-1.3792158,1.0605375,0.9450898,2.0446482,-6.8905125,0.7230489
0.13896756,4.362512,-1.3792158,1.0605375,0.9450898,2.0446482,-6.8905125,0.7230489
0.13947892,4.3608747,-1.516635,1.0839733,1.0036794,1.9393034,-7.029376,0.9959879
0.13998762,4.3592377,-1.516635,1.0839733,1.0036794,1.9393034,-7.029376,0.9959879
0.14052832,4.3574705,-1.6487278,1.1042132,1.0452247,1.8435353,-7.3166804,1.1348516
0.14106719,4.3557005,-1.6487278,1.1042132,1.0452247,1.8435353,-7.3166804,1.1348516
0.14163117,4.353795,-1.7722985,1.1169965,1.0718563,1.7908629,-7.5704656,1.3790601
0.14339125,4.3475857,-1.8862817,1.1212575,1.0782479,1.8339585,-7.9343843,1.5801731
0.14339125,4.3475857,-1.8862817,1.1212575,1.0782479,1.8339585,-7.9343843,1.5801731
0.14339125,4.3475857,-1.8862817,1.1212575,1.0782479,1.8339585,-7.9343843,1.5801731
0.14421901,4.344425,-1.9885471,1.1169965,1.0718563,1.8291701,-8.331821,1.8100165
0.14446916,4.343465,-1.9885471,1.1169965,1.0718563,1.8291701,-8.331821,1.8100165
0.14497547,4.341386,-2.075899,1.1084744,1.0548121,1.9393034,-8.7532015,1.934515
0.14552075,4.339134,-2.075899,1.1084744,1.0548121,1.9393034,-8.7532015,1.934515
0.14603709,4.336835,-2.148337,1.0903648,1.0249846,1.934515,-9.088389,1.9919758
0.14603709,4.336835,-2.148337,1.0903648,1.0249846,1.934515,-9.088389,1.9919758
0.14708364,4.3320856,-2.2047958,1.0647985,0.9866351,1.7046716,-9.3421755,1.9728222
0.14749852,4.3300667,-2.2047958,1.0647985,0.9866351,1.7046716,-9.3421755,1.9728222
0.14793938,4.3277836,-2.2431452,1.0307101,0.94402456,1.1779473,-9.634268,1.9776106
0.14793938,4.3277836,-2.2431452,1.0307101,0.94402456,1.1779473,-9.634268,1.9776106
0.14793938,4.3277836,-2.2431452,1.0307101,0.94402456,1.1779473,-9.634268,1.9776106
0.14918579,4.3212442,-2.2431452,1.0307101,0.94402456,1.1779473,-9.634268,1.9776106
0.14918579,4.3212442,-2.2431452,1.0307101,0.94402456,1.1779473,-9.634268,1.9776106
0.14918579,4.3212442,-2.2633853,0.9774468,0.90460974,0.90979666,-9.959879,2.078167
0.15082417,4.31217,-2.2442105,0.82404876,0.8311065,0.770933,-10.783484,2.1452048
0.1510027,4.311172,-2.2442105,0.82404876,0.8311065,0.770933,-10.783484,2.1452048
0.15142785,4.3089023,-2.2016,0.7303055,0.8002138,0.5506664,-11.286267,2.1404164
0.15184909,4.306641,-2.2016,0.7303055,0.8002138,0.5506664,-11.286267,2.1404164
0.15237549,4.304035,-2.1366189,0.6216485,0.77251697,0.19632454,-11.789049,2.0973208
0.15273468,4.3022494,-2.1366189,0.6216485,0.77251697,0.19632454,-11.789049,2.0973208
0.15320416,4.3001766,-2.0471365,0.49488202,0.7501464,-0.095768064,-12.325351,1.8914193
0.15367351,4.298097,-2.0471365,0.49488202,0.7501464,-0.095768064,-12.325351,1.8914193
0.1541817,4.2961583,-1.9320881,0.35426712,0.73097163,-0.35434186,-12.828133,1.733402
0.15468985,4.2942142,-1.9320881,0.35426712,0.73097163,-0.35434186,-12.828133,1.733402
0.15524797,4.2924337,-1.7925384,0.20086904,0.7171232,-0.5650316,-13.321339,1.5370775
0.15580413,4.2906556,-1.7925384,0.20086904,0.7171232,-0.5650316,-13.321339,1.5370775
0.15642019,4.289068,-1.6231614,0.035753045,0.7086011,-0.6368576,-13.690045,1.2497733
0.1570357,4.2874804,-1.6231614,0.035753045,0.7086011,-0.6368576,-13.690045,1.2497733
0.15771022,4.2861185,-1.4260875,-0.13788506,0.6990137,-0.59376204,-13.972561,0.89543146
0.15838464,4.2847557,-1.4260875,-0.13788506,0.6990137,-0.59376204,-13.972561,0.89543146
0.15913633,4.2836347,-1.2013167,-0.31791475,0.6904916,-0.93852705,-14.077906,0.56982
0.15987593,4.282531,-1.2013167,-0.31791475,0.6904916,-0.93852705,-14.077906,0.56982
0.16069087,4.2816944,-0.9541753,-0.50433606,0.67983896,-1.1540052,-14.15452,0.095768064
0.16150591,4.280858,-0.9541753,-0.50433606,0.67983896,-1.1540052,-14.15452,0.095768064
0.16238378,4.28032,-0.68572867,-0.69608366,0.6649253,-1.0103531,-14.140155,-0.34476504
0.1632626,4.2797823,-0.68572867,-0.69608366,0.6649253,-1.0103531,-14.140155,-0.34476504
0.16419916,4.279561,-0.4002378,-0.8814396,0.64788103,-1.1252748,-13.962984,-0.9624691
0.16513857,4.2793407,-0.4002378,-0.8814396,0.64788103,-1.1252748,-13.962984,-0.9624691
0.16613239,4.279448,-0.10196375,-1.056143,0.62977153,-1.2354081,-13.862428,-1.7238252
0.16712593,4.2795563,-0.10196375,-1.056143,0.62977153,-1.2354081,-13.862428,-1.7238252
0.1681652,4.279996,0.20057136,-1.221259,0.6084662,-1.3072342,-13.608643,-2.456451
0.16920371,4.280437,0.20057136,-1.221259,0.6084662,-1.3072342,-13.608643,-2.456451
0.17027552,4.281208,0.5041717,-1.3714613,0.58503044,-1.3120226,-13.326127,-3.1411927
0.1713459,4.2819805,0.5041717,-1.3714613,0.58503044,-1.3120226,-13.326127,-3.1411927
0.17243695,4.283078,0.8056416,-1.5024889,0.5583988,-1.2976574,-13.148955,-3.5913026
0.17352599,4.284177,0.8056416,-1.5024889,0.5583988,-1.2976574,-13.148955,-3.5913026
0.1746051,4.2855844,1.0985893,-1.6111459,0.52431035,-1.2018893,-12.89517,-4.209007
0.17563805,4.2869368,1.0985893,-1.6111459,0.52431035,-1.2018893,-12.89517,-4.209007
0.17668645,4.2886305,1.3776885,-1.6953017,0.48489556,-1.1300632,-12.603078,-4.572925
0.17777562,4.2903976,1.3776885,-1.6953017,0.48489556,-1.1300632,-12.603078,-4.572925
0.17876992,4.2923436,1.6386784,-1.7506955,0.43908918,-1.1348516,-12.287044,-4.960786
0.17975368,4.2942767,1.6386784,-1.7506955,0.43908918,-1.1348516,-12.287044,-4.960786
0.18069106,4.296421,1.8751671,-1.7794576,0.38902175,-1.1731589,-11.951855,-5.315128
0.18162917,4.2985725,1.8751671,-1.7794576,0.38902175,-1.1731589,-11.951855,-5.315128
0.18253504,4.3008738,2.0839589,-1.7815881,0.33575854,-1.2641385,-11.592725,-5.6790466
0.18343802,4.3031726,2.0839589,-1.7815881,0.33575854,-1.2641385,-11.592725,-5.6790466
0.1843034,4.305632,2.2607927,-1.7624134,0.27929953,-1.2976574,-11.300632,-5.913678
0.18516725,4.3080945,2.2607927,-1.7624134,0.27929953,-1.2976574,-11.300632,-5.913678
0.18597779,4.3106813,2.402473,-1.7261944,0.21857944,-1.388637,-11.018116,-6.1530986
0.18678595,4.3132725,2.402473,-1.7261944,0.21857944,-1.388637,-11.018116,-6.1530986
0.18752901,4.3159657,2.5132606,-1.6793227,0.15572885,-1.484405,-10.6637745,-6.2249246
0.18826853,4.3186607,2.5132606,-1.6793227,0.15572885,-1.484405,-10.6637745,-6.2249246
0.18891917,4.321431,2.5931554,-1.6249943,0.08435612,-1.3790601,-10.405201,-6.349423
0.18957068,4.3242226,2.5931554,-1.6249943,0.08435612,-1.3790601,-10.405201,-6.349423
0.19013031,4.32704,2.640027,-1.5653394,0.009787609,-1.4652514,-10.175357,-6.301539
0.1906829,4.3298426,2.640027,-1.5653394,0.009787609,-1.4652514,-10.175357,-6.301539
0.19113743,4.332675,2.6613324,-1.4992931,-0.07010722,-1.4748282,-9.9790325,-6.1770406
0.19158512,4.335488,2.6613324,-1.4992931,-0.07010722,-1.4748282,-9.9790325,-6.1770406
0.19192684,4.338316,2.6602669,-1.4343119,-0.15426312,-1.4317327,-9.878476,-5.9663506
0.19226447,4.341139,2.6602669,-1.4343119,-0.15426312,-1.4317327,-9.878476,-5.9663506
0.19248967,4.343945,2.644288,-1.3714613,-0.24268007,-1.388637,-9.816227,-5.755661
0.19271153,4.3467517,2.644288,-1.3714613,-0.24268007,-1.388637,-9.816227,-5.755661
0.19281602,4.3495307,2.6187217,-1.3139371,-0.33961913,-1.3599066,-9.797073,-5.631162
0.1929174,4.352309,2.6187217,-1.3139371,-0.33961913,-1.3599066,-9.797073,-5.631162
0.19289948,4.355055,2.5867636,-1.261739,-0.43975398,-1.3311762,-9.734824,-5.4204726
0.19287874,4.357797,2.5867636,-1.261739,-0.43975398,-1.3311762,-9.734824,-5.4204726
0.19273935,4.3605137,2.555871,-1.2159327,-0.5409541,-1.2114661,-9.634268,-5.3965306
0.19259736,4.363227,2.555871,-1.2159327,-0.5409541,-1.2114661,-9.634268,-5.3965306
0.19234292,4.3659077,2.5249784,-1.1775832,-0.6442848,-1.1875241,-9.500193,-5.3582234
0.1920857,4.3685884,2.5249784,-1.1775832,-0.6442848,-1.1875241,-9.500193,-5.3582234
0.19171895,4.371242,2.4983468,-1.1456252,-0.74655014,-1.1875241,-9.476251,-5.3486466
0.19134948,4.373895,2.4983468,-1.1456252,-0.74655014,-1.1875241,-9.476251,-5.3486466
0.19086812,4.376526,2.474911,-1.1189936,-0.84881556,-1.0534488,-9.323022,-5.3438582
0.19038418,4.379155,2.474911,-1.1189936,-0.84881556,-1.0534488,-9.323022,-5.3438582
0.18980022,4.3817673,2.4557362,-1.0966231,-0.9414936,-0.9816227,-9.255983,-5.329493
0.18921368,4.3843775,2.4557362,-1.0966231,-0.9414936,-0.9816227,-9.255983,-5.329493
0.18854046,4.3869705,2.4397573,-1.076383,-1.0245842,-0.9672575,-9.241618,-5.4300494
0.18786527,4.3895597,2.4397573,-1.076383,-1.0245842,-0.9672575,-9.241618,-5.4300494
0.18711062,4.39214,2.4291046,-1.0572083,-1.0991527,-0.90979666,-9.188946,-5.602432
0.18635488,4.394713,2.4291046,-1.0572083,-1.0991527,-0.90979666,-9.188946,-5.602432
0.18552092,4.397283,2.418452,-1.0390987,-1.1641338,-0.7326257,-9.251195,-5.717354
0.18468264,4.3998566,2.418452,-1.0390987,-1.1641338,-0.7326257,-9.251195,-5.717354
0.18379107,4.402409,2.4077992,-1.019924,-1.2152665,-0.7374141,-9.246407,-5.81791
0.18290229,4.404944,2.4077992,-1.019924,-1.2152665,-0.7374141,-9.246407,-5.81791
0.18196604,4.4074802,2.3971467,-1.0018145,-1.2525507,-0.770933,-9.246407,-5.865794
0.18102261,4.4100275,2.3971467,-1.0018145,-1.2525507,-0.770933,-9.246407,-5.865794
0.1800598,4.4125476,2.3886247,-0.98157454,-1.2727908,-0.8619126,-9.313444,-6.019023
0.17909423,4.415066,2.3886247,-0.98157454,-1.2727908,-0.8619126,-9.313444,-6.019023
0.17810953,4.4175744,2.382233,-0.96346503,-1.2802477,-0.78050977,-9.399636,-5.932832
0.1771223,4.420081,2.382233,-0.96346503,-1.2802477,-0.78050977,-9.399636,-5.932832
0.17613497,4.4225807,2.3811677,-0.9442903,-1.273856,-0.81402856,-9.476251,-6.0764837
0.1751451,4.4250784,2.3811677,-0.9442903,-1.273856,-0.81402856,-9.476251,-6.0764837
0.17416751,4.4275713,2.3832982,-0.92085445,-1.2525507,-0.8571242,-9.56723,-6.114791
0.17318745,4.4300623,2.3832982,-0.92085445,-1.2525507,-0.8571242,-9.56723,-6.114791
0.17223372,4.432552,2.38969,-0.8984839,-1.2163317,-0.82360536,-9.519346,-6.215348
0.17127755,4.4350405,2.38969,-0.8984839,-1.2163317,-0.82360536,-9.519346,-6.215348
0.1703508,4.4375362,2.4003425,-0.87611336,-1.1705254,-0.60812724,-9.390059,-6.3685765
0.16942544,4.440021,2.4003425,-0.87611336,-1.1705254,-0.60812724,-9.390059,-6.3685765
0.16853262,4.4425144,2.4120603,-0.8494817,-1.1172622,-0.2633622,-9.208099,-6.4547677
0.16763754,4.4450064,2.4120603,-0.8494817,-1.1172622,-0.2633622,-9.208099,-6.4547677
0.16634001,4.4487796,2.4216478,-0.81539327,-1.0608032,-0.033518825,-8.99741,-6.4499793
0.16589594,4.4500675,2.4216478,-0.81539327,-1.0608032,-0.033518825,-8.99741,-6.4499793
0.16508901,4.452541,2.426974,-0.778109,-1.0043441,-0.033518825,-8.173804,-6.5601125
0.16427758,4.455021,2.426974,-0.778109,-1.0043441,-0.033518825,-8.173804,-6.5601125
0.16349849,4.4574547,2.4216478,-0.7323026,-0.94788516,0.6607997,-8.145074,-6.172252
0.16271038,4.4599104,2.4216478,-0.7323026,-0.94788516,0.6607997,-8.145074,-6.172252
0.16195688,4.462354,2.402473,-0.67690885,-0.89142615,0.4261679,-8.221688,-5.841852
0.1612033,4.4647923,2.402473,-0.67690885,-0.89142615,0.4261679,-8.221688,-5.841852
0.16050446,4.4671946,2.3790371,-0.6066014,-0.83283657,-0.1340753,-7.9152308,-6.1530986
0.15980695,4.469586,2.3790371,-0.6066014,-0.83283657,-0.1340753,-7.9152308,-6.1530986
0.159147,4.471936,2.3513403,-0.54268557,-0.77637756,0.110133275,-7.091625,-6.4978633
0.15848562,4.4742856,2.3513403,-0.54268557,-0.77637756,0.110133275,-7.091625,-6.4978633
0.15784946,4.476574,2.3076644,-0.47770444,-0.7188533,0.93852705,-6.4164605,-6.5122285
0.15721217,4.4788623,2.3076644,-0.47770444,-0.7188533,0.93852705,-6.4164605,-6.5122285
0.15658882,4.4810777,2.237357,-0.39248326,-0.6623943,1.7669208,-6.0381765,-6.229713
0.15596768,4.483281,2.237357,-0.39248326,-0.6623943,1.7669208,-6.0381765,-6.229713
0.15536429,4.485377,2.1414833,-0.27956524,-0.6101963,1.9393034,-5.722142,-5.9567738
0.15475975,4.487474,2.1414833,-0.27956524,-0.6101963,1.9393034,-5.722142,-5.9567738
0.15416637,4.489436,2.0253694,-0.14960296,-0.56438994,2.0159178,-5.2528787,-5.5880666
0.15357511,4.49139,2.0253694,-0.14960296,-0.56438994,2.0159178,-5.2528787,-5.5880666
0.15297449,4.493201,1.8911461,-0.008988062,-0.53030145,2.3127987,-4.7884035,-5.2241483
0.15237737,4.495001,1.8911461,-0.008988062,-0.53030145,2.3127987,-4.7884035,-5.2241483
0.15176637,4.4966264,1.7324216,0.14334476,-0.50153935,2.456451,-4.31914,-4.7022123
0.15114097,4.498291,1.7324216,0.14334476,-0.50153935,2.456451,-4.31914,-4.7022123
0.15053126,4.4996777,1.5470656,0.3063302,-0.47384244,2.504335,-3.9264908,-4.2664676
0.14991263,4.5010858,1.5470656,0.3063302,-0.47384244,2.504335,-3.9264908,-4.2664676
0.14926337,4.502289,1.3382738,0.47677252,-0.44614556,2.6479871,-3.8163576,-3.5338416
0.14862058,4.5034814,1.3382738,0.47677252,-0.44614556,2.6479871,-3.8163576,-3.5338416
0.1479519,4.504431,1.1039156,0.655737,-0.4216445,2.920926,-3.41892,-2.8203697
0.14728376,4.5053797,1.1039156,0.655737,-0.4216445,2.920926,-3.41892,-2.8203697
0.14659803,4.5060573,0.8461216,0.84109294,-0.39394763,2.432509,-3.4811692,-2.1404164
0.1459142,4.5067334,0.8461216,0.84109294,-0.39394763,2.432509,-3.4811692,-2.1404164
0.14521347,4.507148,0.5712834,1.022188,-0.367316,2.7581203,-3.5625722,-1.2880806
0.14451455,4.507562,0.5712834,1.022188,-0.367316,2.7581203,-3.5625722,-1.2880806
0.14381601,4.507694,0.28153145,1.1979566,-0.34068438,2.9352913,-3.6104562,-0.45489833
0.14311902,4.507826,0.28153145,1.1979566,-0.34068438,2.9352913,-3.6104562,-0.45489833
0.1424308,4.507657,-0.021003649,1.3726599,-0.3129875,2.6719291,-3.7253778,0.36870706
0.14173959,4.5074887,-0.021003649,1.3726599,-0.3129875,2.6719291,-3.7253778,0.36870706
0.14010873,4.506318,-0.33312613,1.5377759,-0.28422537,2.4277205,-4.0462008,0.9911995
0.14000027,4.5062404,-0.33312613,1.5377759,-0.28422537,2.4277205,-4.0462008,0.9911995
0.1396828,4.5058503,-0.64950967,1.6837171,-0.2533327,2.1212628,-4.3766007,1.6184803
0.1396828,4.5058503,-0.64950967,1.6837171,-0.2533327,2.1212628,-4.3766007,1.6184803
0.13838674,4.5041404,-0.9680238,1.8083531,-0.2117874,1.8435353,-4.8458643,2.1164744
0.13771145,4.5029325,-0.9680238,1.8083531,-0.2117874,1.8435353,-4.8458643,2.1164744
0.13771145,4.5029325,-0.9680238,1.8083531,-0.2117874,1.8435353,-4.8458643,2.1164744
0.1365323,4.5000663,-1.2865378,1.9063574,-0.16491576,1.5562311,-5.3678,2.695871
0.13597381,4.498298,-1.5965297,1.9734691,-0.11271781,1.3503298,-5.9184666,3.1411927
0.13541658,4.496546,-1.5965297,1.9734691,-0.11271781,1.3503298,-5.9184666,3.1411927
0.13489851,4.494461,-1.8894775,2.0118186,-0.05412826,1.2162545,-6.4020953,3.5242648
0.13439019,4.492431,-1.8894775,2.0118186,-0.05412826,1.2162545,-6.4020953,3.5242648
0.13439019,4.492431,-1.8894775,2.0118186,-0.05412826,1.0486604,-6.871359,3.8259344
0.13346347,4.487731,-2.16112,2.0235364,0.009787609,1.0486604,-6.871359,3.8259344
0.13306518,4.485141,-2.407196,2.0107534,0.0790298,0.9911995,-7.249643,3.9121256
0.13266149,4.4825497,-2.407196,2.0107534,0.0790298,0.9911995,-7.249643,3.9121256
0.13233043,4.47974,-2.6266406,1.9766649,0.15253304,1.0199299,-7.5800424,3.8402996
0.13199432,4.476934,-2.6266406,1.9766649,0.15253304,1.0199299,-7.5800424,3.8402996
0.13173005,4.473919,-2.8205187,1.924467,0.2228405,1.0821792,-8.12592,3.8402996
0.13146497,4.4709578,-2.8205187,1.924467,0.2228405,1.0821792,-8.12592,3.8402996
0.1312722,4.4677944,-2.9856346,1.85629,0.2910174,1.1013328,-8.63828,3.8259344
0.13107467,4.464647,-2.9856346,1.85629,0.2910174,1.1013328,-8.63828,3.8259344
0.13095795,4.4613695,-3.1209233,1.7763952,0.36132488,1.0965444,-8.978256,3.7062242
0.13083531,4.4580894,-3.1209233,1.7763952,0.36132488,1.0965444,-8.978256,3.7062242
0.13079284,4.4547167,-3.2263844,1.6858476,0.42843655,1.1348516,-9.184157,3.4715924
0.13074455,4.451341,-3.2263844,1.6858476,0.42843655,1.1348516,-9.184157,3.4715924
0.13077568,4.4478955,-3.3062792,1.5899739,0.49448293,1.2593501,-9.303867,3.145981
0.13080116,4.444446,-3.3062792,1.5899739,0.49448293,1.2593501,-9.303867,3.145981
0.13090454,4.440954,-3.3648689,1.4941001,0.5583988,1.3982137,-9.203311,2.882619
0.13100266,4.437459,-3.3648689,1.4941001,0.5583988,1.3982137,-9.203311,2.882619
0.13117199,4.4339314,-3.406414,1.4003568,0.6159231,1.5466543,-9.035717,2.5570073
0.13133611,4.4304028,-3.406414,1.4003568,0.6159231,1.5466543,-9.035717,2.5570073
0.13156588,4.4268556,-3.4330456,1.3130051,0.67131686,1.7142484,-8.99741,2.0685902
0.13179064,4.423311,-3.4330456,1.3130051,0.67131686,1.7142484,-8.99741,2.0685902
0.13207974,4.419705,-3.4511552,1.2405671,0.7235148,1.7812861,-8.896853,1.661576
0.1323572,4.416187,-3.4511552,1.2405671,0.7235148,1.7812861,-8.896853,1.661576
0.13269326,4.4126177,-3.4650037,1.1787817,0.77251697,1.6903064,-8.872911,1.163582
0.13302493,4.409048,-3.4650037,1.1787817,0.77251697,1.6903064,-8.872911,1.163582
0.13341057,4.4054737,-3.474591,1.1255186,0.8204539,1.4269443,-8.892065,0.6512229
0.13379158,4.401902,-3.474591,1.1255186,0.8204539,1.4269443,-8.892065,0.6512229
0.13422613,4.3983226,-3.4820478,1.0775816,0.86626023,0.9528923,-8.810662,0.07182605
0.13465619,4.3947453,-3.4820478,1.0775816,0.86626023,0.9528923,-8.810662,0.07182605
0.13513735,4.3911695,-3.4852436,1.0253837,0.9131319,0.6991069,-8.872911,-0.49320555
0.13561407,4.3875966,-3.4852436,1.0253837,0.9131319,0.6991069,-8.872911,-0.49320555
0.13614266,4.384021,-3.4841783,0.9689247,0.9600035,0.45968673,-8.896853,-1.0486604
0.13666709,4.3804483,-3.4841783,0.9689247,0.9600035,0.45968673,-8.896853,-1.0486604
0.13724443,4.3768873,-3.4767215,0.90926987,1.0111362,0.4213795,-9.150639,-1.4796166
0.13782011,4.3733153,-3.4767215,0.90926987,1.0111362,0.4213795,-9.150639,-1.4796166
0.138439,4.3697634,-3.458612,0.8432235,1.0633341,0.6847417,-9.303867,-1.9776106
0.13905492,4.366212,-3.458612,0.8432235,1.0633341,0.6847417,-9.303867,-1.9776106
0.13972405,4.3626804,-3.4255888,0.7814382,1.1102058,0.5746084,-9.643845,-2.4133554
0.14038917,4.359155,-3.4255888,0.7814382,1.1102058,0.5746084,-9.643845,-2.4133554
0.14111064,4.3556843,-3.3765867,0.7260444,1.1560122,0.1388637,-9.993398,-2.791639
0.14182848,4.35222,-3.3765867,0.7260444,1.1560122,0.1388637,-9.993398,-2.791639
0.14260249,4.3488154,-3.3116055,0.66745484,1.2007532,-0.110133275,-10.362105,-3.1364043
0.14336231,4.345466,-3.3116055,0.66745484,1.2007532,-0.110133275,-10.362105,-3.1364043
0.14419623,4.3421397,-3.224254,0.60460424,1.2454944,-0.30645782,-10.850522,-3.4572272
0.14503606,4.338784,-3.224254,0.60460424,1.2454944,-0.30645782,-10.850522,-3.4572272
0.14592685,4.335578,-3.1145315,0.5406884,1.2913008,-0.545878,-11.190498,-3.7588966
0.14681502,4.332379,-3.1145315,0.5406884,1.2913008,-0.545878,-11.190498,-3.7588966
0.1477748,4.3293376,-2.983504,0.47144622,1.3381724,-0.6655881,-11.621455,-3.8402996
0.14873941,4.3262777,-2.983504,0.47144622,1.3381724,-0.6655881,-11.621455,-3.8402996
0.14993702,4.3229265,-2.8333018,0.402204,1.3839787,-0.89064306,-12.105083,-4.074931
0.15082471,4.3204412,-2.8333018,0.402204,1.3839787,-0.89064306,-12.105083,-4.074931
0.15195312,4.3176947,-2.6617942,0.33509237,1.4297851,-1.163582,-12.488156,-4.223372
0.15306936,4.314975,-2.6617942,0.33509237,1.4297851,-1.163582,-12.488156,-4.223372
0.15424724,4.3124933,-2.471112,0.26371965,1.4734609,-1.3934253,-12.880805,-4.3861775
0.15541908,4.31002,-2.471112,0.26371965,1.4734609,-1.3934253,-12.880805,-4.3861775
0.15668246,4.3077316,-2.266581,0.19234692,1.5150063,-1.5658079,-13.129802,-4.4244847
0.15794805,4.305435,-2.266581,0.19234692,1.5150063,-1.5658079,-13.129802,-4.4244847
0.15929158,4.3033686,-2.0482018,0.12417,1.5576168,-1.8387469,-13.311762,-4.606444
0.16063172,4.3013024,-2.0482018,0.12417,1.5576168,-1.8387469,-13.311762,-4.606444
0.16203944,4.299465,-1.8244964,0.0581236,1.5970316,-1.982399,-13.364434,-4.7979803
0.16344616,4.297625,-1.8244964,0.0581236,1.5970316,-1.982399,-13.364434,-4.7979803
0.16490655,4.29602,-1.5965297,-0.00366174,1.6321853,-2.0638018,-13.417107,-4.999093
0.16636297,4.2944155,-1.5965297,-0.00366174,1.6321853,-2.0638018,-13.417107,-4.999093
0.16786835,4.293042,-1.3706937,-0.06118602,1.6620128,-2.1739352,-13.354857,-5.2480903
0.16937529,4.291663,-1.3706937,-0.06118602,1.6620128,-2.1739352,-13.354857,-5.2480903
0.17090759,4.2905173,-1.1469882,-0.11551451,1.6811875,-2.2457612,-13.283031,-5.463568
0.17244263,4.289366,-1.1469882,-0.11551451,1.6811875,-2.2457612,-13.283031,-5.463568
0.17395404,4.2884197,-0.9296742,-0.16771246,1.6886444,-2.3080103,-13.168109,-5.7604494
0.17546073,4.2874737,-0.9296742,-0.16771246,1.6886444,-2.3080103,-13.168109,-5.7604494
0.17696,4.286621,-0.72194767,-0.21777989,1.6843834,-2.336741,-13.029245,-5.9663506
0.17845213,4.285778,-0.72194767,-0.21777989,1.6843834,-2.336741,-13.029245,-5.9663506
0.1799952,4.2850924,-0.5227432,-0.26678208,1.6662738,-2.3223755,-12.890382,-6.1195793
0.18157588,4.2843904,-0.5227432,-0.26678208,1.6662738,-2.3223755,-12.890382,-6.1195793
0.18308264,4.283908,-0.33206087,-0.31258842,1.6332506,-2.2697031,-12.703634,-6.2584434
0.18462208,4.283415,-0.33206087,-0.31258842,1.6332506,-2.2697031,-12.703634,-6.2584434
0.18606526,4.283125,-0.14777012,-0.355199,1.5842484,-2.2601264,-12.531252,-6.421249
0.18768008,4.2828007,-0.14777012,-0.355199,1.5842484,-2.2601264,-12.531252,-6.421249
0.1891687,4.282679,0.027998514,-0.39035273,1.5213978,-2.1787236,-12.272678,-6.459556
0.19065809,4.2825565,0.027998514,-0.39035273,1.5213978,-2.1787236,-12.272678,-6.459556
0.19207598,4.2826195,0.19844083,-0.42018014,1.441503,-2.0494366,-12.167333,-6.4882865
0.19349383,4.2826824,0.19844083,-0.42018014,1.441503,-2.0494366,-12.167333,-6.4882865
0.19484028,4.282919,0.36249155,-0.4425507,1.3477597,-2.0398598,-11.975797,-6.4787097
0.19618547,4.2831554,0.36249155,-0.4425507,1.3477597,-2.0398598,-11.975797,-6.4787097
0.19752939,4.2833924,0.36249155,-0.4425507,1.3477597,-2.0398598,-11.975797,-6.4787097
0.19877903,4.2838006,0.521216,-0.45639914,1.2433639,-1.9871874,-11.860875,-6.411672
0.20003013,4.28421,0.521216,-0.45639914,1.2433639,-1.9871874,-11.860875,-6.411672
0.20118397,4.2847776,0.670353,-0.46811703,1.1251194,-2.0685902,-11.827356,-6.4164605
0.20233706,4.2853456,0.670353,-0.46811703,1.1251194,-2.0685902,-11.827356,-6.4164605
0.20339017,4.286063,0.8120332,-0.47770444,0.99941826,-2.1883004,-11.745954,-6.38773
0.2044424,4.2867823,0.8120332,-0.47770444,0.99941826,-2.1883004,-11.745954,-6.38773
0.20538206,4.287645,0.94412595,-0.4872918,0.8673255,-2.2409728,-11.750742,-6.397307
0.2063249,4.2885113,0.94412595,-0.4872918,0.8673255,-2.2409728,-11.750742,-6.397307
0.20716476,4.289502,1.068762,-0.49794444,0.73097163,-2.4420857,-11.540052,-6.4739213
0.20800711,4.290498,1.068762,-0.49794444,0.73097163,-2.4420857,-11.540052,-6.4739213
0.20872702,4.2916255,1.185941,-0.5117929,0.58929145,-2.432509,-11.425131,-6.4739213
0.20944628,4.2927537,1.185941,-0.5117929,0.58929145,-2.432509,-11.425131,-6.4739213
0.21002686,4.2940073,1.294598,-0.5299024,0.4476113,-2.3463178,-11.587936,-6.2871737
0.21060868,4.295266,1.294598,-0.5299024,0.4476113,-2.3463178,-11.587936,-6.2871737
0.21104012,4.2966566,1.4011244,-0.5480119,0.3038006,-2.0973208,-11.669339,-6.191406
0.2114713,4.298046,1.4011244,-0.5480119,0.3038006,-2.0973208,-11.669339,-6.191406
0.21180625,4.299547,1.5087161,-0.5618603,0.16105516,-2.4420857,-11.544841,-6.0716953
0.2121415,4.301051,1.5087161,-0.5618603,0.16105516,-2.4420857,-11.544841,-6.0716953
0.21235694,4.3026776,1.6184384,-0.5746435,0.022570781,-2.4995465,-11.563994,-5.971139
0.21257178,4.3043027,1.6184384,-0.5746435,0.022570781,-2.4995465,-11.563994,-5.971139
0.21265692,4.3060646,1.7302911,-0.60020983,-0.11378307,-2.60968,-11.956643,-5.693412
0.21274255,4.307825,1.7302911,-0.60020983,-0.11378307,-2.60968,-11.956643,-5.693412
0.21270147,4.309724,1.8453397,-0.63216776,-0.2448106,-2.5139117,-11.932701,-5.60722
0.21266176,4.3116217,1.8453397,-0.63216776,-0.2448106,-2.5139117,-11.932701,-5.60722
0.21254128,4.313651,1.9667798,-0.669452,-0.3737076,-2.6862943,-12.0093155,-5.57849
0.21242157,4.31568,1.9667798,-0.669452,-0.3737076,-2.6862943,-12.0093155,-5.57849
0.21218394,4.317855,2.08822,-0.71099734,-0.49621302,-2.681506,-12.186486,-5.473145
0.21194881,4.320028,2.08822,-0.71099734,-0.49621302,-2.681506,-12.186486,-5.473145
0.21158755,4.322362,2.2149863,-0.76213,-0.61232686,-2.7246015,-12.421119,-5.315128
0.21123405,4.3246946,2.2149863,-0.76213,-0.61232686,-2.7246015,-12.421119,-5.315128
0.21077232,4.327191,2.3470793,-0.8164585,-0.71778804,-2.6479871,-12.483368,-5.2624555
0.21031712,4.329685,2.3470793,-0.8164585,-0.71778804,-2.6479871,-12.483368,-5.2624555
0.20981933,4.3323216,2.4876943,-0.87291753,-0.8179229,-2.767697,-12.5504055,-5.257667
0.20932974,4.33495,2.4876943,-0.87291753,-0.8179229,-2.767697,-12.5504055,-5.257667
0.20878404,4.3377395,2.6368313,-0.9315071,-0.90847033,-2.7724855,-12.540829,-5.2385135
0.20824142,4.340532,2.6368313,-0.9315071,-0.90847033,-2.7724855,-12.540829,-5.2385135
0.2076199,4.343504,2.7944903,-0.99222714,-0.9872999,-2.7102363,-12.53604,-5.12838
0.20700549,4.3464684,2.7944903,-0.99222714,-0.9872999,-2.7102363,-12.53604,-5.12838
0.20630226,4.3496413,2.9628022,-1.0540125,-1.0586727,-2.566584,-12.588713,-5.080496
0.2056058,4.352803,2.9628022,-1.0540125,-1.0586727,-2.566584,-12.588713,-5.080496
0.2048605,4.3561554,3.139636,-1.1136672,-1.120458,-2.4468741,-12.531252,-5.056554
0.20411581,4.3595138,3.139636,-1.1136672,-1.120458,-2.4468741,-12.531252,-5.056554
0.20334455,4.3630576,3.320731,-1.1743873,-1.1737212,-2.3798366,-12.492945,-5.109226
0.20257594,4.3665895,3.320731,-1.1743873,-1.1737212,-2.3798366,-12.492945,-5.109226
0.20177978,4.370332,3.506087,-1.2319117,-1.2184623,-2.2601264,-12.310986,-5.1571107
0.20098406,4.374063,3.506087,-1.2319117,-1.2184623,-2.2601264,-12.310986,-5.1571107
0.2001888,4.377987,3.6946387,-1.2862401,-1.2525507,-2.3319526,-12.148179,-5.2624555
0.19939014,4.381908,3.6946387,-1.2862401,-1.2525507,-2.3319526,-12.148179,-5.2624555
0.19856648,4.3860283,3.8821254,-1.3384382,-1.281313,-2.1643584,-12.018892,-5.2720323
0.19773869,4.3901453,3.8821254,-1.3384382,-1.281313,-2.1643584,-12.018892,-5.2720323
0.19689292,4.3944607,4.0664163,-1.3885056,-1.3068793,-2.0685902,-11.789049,-5.1762643
0.19604394,4.398764,4.0664163,-1.3885056,-1.3068793,-2.0685902,-11.789049,-5.1762643
0.19518752,4.4032526,4.2453804,-1.4321814,-1.3249887,-2.0398598,-11.60709,-5.1666875
0.1942774,4.4081635,4.420084,-1.4726614,-1.3388371,-1.9536686,-11.372458,-5.1475334
0.19287032,4.415672,4.420084,-1.4726614,-1.3388371,-1.9536686,-11.372458,-5.1475334
0.19244123,4.4179444,4.420084,-1.4726614,-1.3388371,-1.9536686,-11.372458,-5.1475334
0.19162175,4.4223914,4.5873303,-1.5056846,-1.3494898,-1.7812861,-11.109096,-5.2145715
0.19162175,4.4223914,4.5873303,-1.5056846,-1.3494898,-1.7812861,-11.109096,-5.2145715
0.18978496,4.432261,4.7449894,-1.5301857,-1.358012,-1.6184803,-10.869676,-5.3247046
0.18886058,4.4372835,4.7449894,-1.5301857,-1.358012,-1.6184803,-10.869676,-5.3247046
0.18799683,4.4419937,4.891996,-1.5408384,-1.362273,-1.2114661,-10.539276,-5.2002063
0.18706349,4.44704,4.891996,-1.5408384,-1.362273,-1.2114661,-10.539276,-5.2002063
0.18608572,4.4523044,5.0230236,-1.5323162,-1.3644035,-0.770933,-10.079589,-4.9464207
0.18450439,4.460718,5.0230236,-1.5323162,-1.3644035,-0.770933,-10.079589,-4.9464207
0.18409891,4.462846,5.1348763,-1.5003583,-1.3686646,-0.22984336,-9.437943,-4.7500963
0.18293816,4.4688325,5.222228,-1.442834,-1.3771867,0.033518825,-8.537724,-4.5298295
0.18293816,4.4688325,5.222228,-1.442834,-1.3771867,0.033518825,-8.537724,-4.5298295
0.18068887,4.480253,5.275491,-1.3618739,-1.3910352,0.10534488,-7.575254,-4.3957543
0.17972165,4.485031,5.275491,-1.3618739,-1.3910352,0.10534488,-7.575254,-4.3957543
0.1786367,4.490353,5.275491,-1.3618739,-1.3910352,0.10534488,-7.575254,-4.3957543
0.17751822,4.4956517,5.2882743,-1.2628043,-1.4048836,0.31124622,-6.301539,-4.510676
0.176359,4.5011053,5.2882743,-1.2628043,-1.4048836,0.31124622,-6.301539,-4.510676
0.17517608,4.5064616,5.2456636,-1.148821,-1.4166015,0.095768064,-5.3486466,-4.429273
0.1739802,4.511842,5.2456636,-1.148821,-1.4166015,0.095768064,-5.3486466,-4.429273
0.17273396,4.517086,5.145529,-1.0231198,-1.4251236,0.7134721,-4.1515455,-4.271256
0.17147775,4.5223427,5.145529,-1.0231198,-1.4251236,0.7134721,-4.1515455,-4.271256
0.1701518,4.527413,4.9836087,-0.8899618,-1.4368415,1.7238252,-3.1603463,-3.845088
0.16882053,4.5324802,4.9836087,-0.8899618,-1.4368415,1.7238252,-3.1603463,-3.845088
0.16740517,4.5373244,4.7545767,-0.73123735,-1.4538858,3.4284968,-2.054225,-3.145981
0.1659683,4.5422235,4.7545767,-0.73123735,-1.4538858,3.4284968,-2.054225,-3.145981
0.16450967,4.546708,4.457368,-0.536294,-1.4773216,4.7979803,-1.757344,-1.8148049
0.1630207,4.551272,4.457368,-0.536294,-1.4773216,4.7979803,-1.757344,-1.8148049
0.1614672,4.555443,4.102635,-0.2774347,-1.4975616,3.7541082,-1.6903064,-1.115698
0.15992093,4.5595856,4.102635,-0.2774347,-1.4975616,3.7541082,-1.6903064,-1.115698
0.15831728,4.563321,3.7127483,-0.014314385,-1.5199322,3.5769374,-0.7374141,-0.7038953
0.15671095,4.5670586,3.7127483,-0.014314385,-1.5199322,3.5769374,-0.7374141,-0.7038953
0.15507348,4.5703306,3.2866426,0.23708802,-1.5423027,3.9935284,0.5267244,-0.19632454
0.15343098,4.573612,3.2866426,0.23708802,-1.5423027,3.9935284,0.5267244,-0.19632454
0.15176237,4.5763874,2.8104694,0.48742518,-1.5540206,4.4101195,1.2737153,0.7374141
0.15009423,4.5791626,2.8104694,0.48742518,-1.5540206,4.4101195,1.2737153,0.7374141
0.14840655,4.581389,2.2799675,0.7409581,-1.547629,4.1659107,1.4269443,1.8052281
0.14672323,4.5836115,2.2799675,0.7409581,-1.547629,4.1659107,1.4269443,1.8052281
0.14504427,4.5852337,1.7068553,0.98596895,-1.5241932,3.7828386,1.091756,2.7581203
0.14335966,4.586863,1.7068553,0.98596895,-1.5241932,3.7828386,1.091756,2.7581203
0.14170021,4.5878725,1.1113725,1.2032828,-1.4837132,3.2848446,0.58418524,3.6391866
0.14004329,4.5888824,1.1113725,1.2032828,-1.4837132,3.2848446,0.58418524,3.6391866
0.13842283,4.589271,0.5084328,1.3843778,-1.4261888,3.2369606,0.05746084,4.3382936
0.13680297,4.5896616,0.5084328,1.3843778,-1.4261888,3.2369606,0.05746084,4.3382936
0.13523999,4.589425,-0.10089848,1.5292538,-1.3569467,2.9352913,0.22984336,4.548983
0.13367353,4.58919,-0.10089848,1.5292538,-1.3569467,2.9352913,0.22984336,4.548983
0.13217145,4.5883284,-0.71449083,1.6453676,-1.2759866,3.3423057,-0.10534488,4.912902
0.13066658,4.587468,-0.71449083,1.6453676,-1.2759866,3.3423057,-0.10534488,4.912902
0.12923366,4.585984,-1.3312789,1.7327193,-1.1897001,3.7541082,-0.7230489,5.1140146
0.12779713,4.5845013,-1.3312789,1.7327193,-1.1897001,3.7541082,-0.7230489,5.1140146
0.12643383,4.582401,-1.9416754,1.8019615,-1.1012832,4.0222588,-1.0007763,5.12838
0.12506306,4.5802965,-1.9416754,1.8019615,-1.1012832,4.0222588,-1.0007763,5.12838
0.12378115,4.5775933,-2.5456805,1.8648121,-1.0064747,3.620033,-1.4987702,5.1762643
0.12249595,4.574896,-2.5456805,1.8648121,-1.0064747,3.620033,-1.4987702,5.1762643
0.12130124,4.5716085,-3.132641,1.9106185,-0.9063398,2.9783869,-2.0829554,5.2385135
0.12009851,4.5683174,-3.132641,1.9106185,-0.9063398,2.9783869,-2.0829554,5.2385135
0.119002834,4.5644746,-3.6897745,1.9297932,-0.79448706,2.3798366,-2.719813,5.2720323
0.11790144,4.5606384,-3.6897745,1.9297932,-0.79448706,2.3798366,-2.719813,5.2720323
0.11691757,4.5562825,-4.2064276,1.9234017,-0.6709164,1.8291701,-3.5290532,5.233725
0.11592406,4.55192,-4.2064276,1.9234017,-0.6709164,1.8291701,-3.5290532,5.233725
0.11506671,4.5471087,-4.675144,1.8893132,-0.5334973,1.5849615,-4.381389,4.9943047
0.11420184,4.542304,-4.675144,1.8893132,-0.5334973,1.5849615,-4.381389,4.9943047
0.11347397,4.5371037,-5.0831404,1.8317889,-0.39075184,1.8195933,-5.2145715,4.7070007
0.11273659,4.5319004,-5.0831404,1.8317889,-0.39075184,1.8195933,-5.2145715,4.7070007
0.112138316,4.526346,-5.4304166,1.7614814,-0.2448106,2.0733786,-6.196194,4.2999864
0.11153165,4.5207987,-5.4304166,1.7614814,-0.2448106,2.0733786,-6.196194,4.2999864
0.11106466,4.514977,-5.718038,1.6869129,-0.10206516,2.2361844,-7.07726,3.8738184
0.11058709,4.5091386,-5.718038,1.6869129,-0.10206516,2.2361844,-7.07726,3.8738184
0.11024537,4.503095,-5.9470696,1.6070181,0.035353955,2.566584,-7.9870567,3.5482068
0.10989454,4.497052,-5.9470696,1.6070181,0.035353955,2.566584,-7.9870567,3.5482068
0.10967862,4.4908257,-6.1196427,1.5260581,0.16957727,2.480393,-8.762778,3.074155
0.10945418,4.4846125,-6.1196427,1.5260581,0.16957727,2.480393,-8.762778,3.074155
0.10936169,4.4782867,-6.238952,1.4419022,0.297409,2.336741,-9.457097,2.6288335
0.1092604,4.471961,-6.238952,1.4419022,0.297409,2.336741,-9.457097,2.6288335
0.10929541,4.465584,-6.3039336,1.3620073,0.426306,2.0254946,-9.940725,2.2984335
0.10932205,4.4591947,-6.3039336,1.3620073,0.426306,2.0254946,-9.940725,2.2984335
0.10948416,4.452808,-6.3199124,1.2874388,0.555203,1.6472107,-10.290278,1.8531121
0.10963823,4.446415,-6.3199124,1.2874388,0.555203,1.6472107,-10.290278,1.8531121
0.10993031,4.440057,-6.290085,1.2150007,0.68623054,1.283292,-10.342952,1.3934253
0.11021455,4.4336977,-6.290085,1.2150007,0.68623054,1.283292,-10.342952,1.3934253
0.110640116,4.42741,-6.2229733,1.1425629,0.8225844,1.0199299,-10.371682,0.842759
0.11105729,4.4211345,-6.2229733,1.1425629,0.8225844,1.0199299,-10.371682,0.842759
0.11161956,4.414933,-6.1260343,1.0743859,0.9642646,0.8331822,-10.381259,0.22505496
0.11217342,4.4087434,-6.1260343,1.0743859,0.9642646,0.8331822,-10.381259,0.22505496
0.11286964,4.402675,-6.0056596,1.0083395,1.10701,0.62728083,-10.414778,-0.46447513
0.113558926,4.3966055,-6.0056596,1.0083395,1.10701,0.62728083,-10.414778,-0.46447513
0.11438645,4.3906803,-5.86611,0.9444236,1.2497554,0.5267244,-10.338163,-1.0582372
0.11520915,4.3847423,-5.86611,0.9444236,1.2497554,0.5267244,-10.338163,-1.0582372
0.11615979,4.378952,-5.712712,0.881573,1.3893051,0.4213795,-10.213664,-1.8052281
0.11710186,4.373178,-5.712712,0.881573,1.3893051,0.4213795,-10.213664,-1.8052281
0.11816047,4.3675303,-5.5518565,0.8229835,1.5267242,0.51235914,-10.261548,-2.5378537
0.119213015,4.361888,-5.5518565,0.8229835,1.5267242,0.51235914,-10.261548,-2.5378537
0.12037485,4.3563724,-5.388871,0.76652443,1.6620128,0.272939,-10.19451,-3.3662477
0.12153173,4.3508587,-5.388871,0.76652443,1.6620128,0.272939,-10.19451,-3.3662477
0.12280982,4.3454814,-5.2237554,0.7100654,1.787714,0.095768064,-10.395624,-3.8642416
0.124083154,4.3401017,-5.2237554,0.7100654,1.787714,0.095768064,-10.395624,-3.8642416
0.12547196,4.334884,-5.0554433,0.6514759,1.900632,0.17238252,-10.520123,-4.156334
0.12685545,4.329664,-5.0554433,0.6514759,1.900632,0.17238252,-10.520123,-4.156334
0.12834983,4.324601,-4.883936,0.5992779,2.0060933,-0.095768064,-10.67814,-4.414908
0.12983708,4.319541,-4.883936,0.5992779,2.0060933,-0.095768064,-10.67814,-4.414908
0.13142696,4.31465,-4.707102,0.5545368,2.1051629,-0.48362875,-11.003751,-4.644751
0.13301292,4.3097534,-4.707102,0.5545368,2.1051629,-0.48362875,-11.003751,-4.644751
0.13468923,4.305084,-4.521746,0.51192623,2.1957102,-0.8475474,-11.434708,-4.7261543
0.13636582,4.3004103,-4.521746,0.51192623,2.1957102,-0.8475474,-11.434708,-4.7261543
0.13813822,4.295944,-4.324672,0.46505463,2.2798662,-1.1540052,-11.956643,-4.9943047
0.13990995,4.291482,-4.324672,0.46505463,2.2798662,-1.1540052,-11.956643,-4.9943047
0.14178221,4.2872486,-4.1126842,0.41179138,2.3544347,-1.4413095,-12.440272,-5.243302
0.14365655,4.283012,-4.1126842,0.41179138,2.3544347,-1.4413095,-12.440272,-5.243302
0.14562832,4.279031,-3.884718,0.35107133,2.4183505,-1.6136919,-12.957419,-5.3965306
0.14760508,4.27503,-3.884718,0.35107133,2.4183505,-1.6136919,-12.957419,-5.3965306
0.14966498,4.2712903,-3.6386418,0.28502494,2.4737444,-1.7860745,-13.321339,-5.5880666
0.15172659,4.267536,-3.6386418,0.28502494,2.4737444,-1.7860745,-13.321339,-5.5880666
0.15385792,4.2640395,-3.373391,0.216848,2.51742,-1.8674773,-13.632585,-5.7987566
0.15601431,4.2604904,-3.373391,0.216848,2.51742,-1.8674773,-13.632585,-5.7987566
0.15820558,4.257293,-3.0900304,0.14867108,2.5461824,-2.054225,-13.814544,-5.861006
0.16033033,4.254181,-3.0900304,0.14867108,2.5461824,-2.054225,-13.814544,-5.861006
0.16253401,4.2513123,-2.7885606,0.08262468,2.5632265,-2.1164744,-13.948619,-6.0381765
0.16474374,4.248425,-2.7885606,0.08262468,2.5632265,-2.1164744,-13.948619,-6.0381765
0.16698273,4.2458587,-2.4732425,0.016578285,2.5674875,-2.1930888,-13.929465,-6.1770406
0.16922131,4.243283,-2.4732425,0.016578285,2.5674875,-2.1930888,-13.929465,-6.1770406
0.17145796,4.2410417,-2.148337,-0.051598642,2.552574,-2.1978772,-13.867216,-6.325481
0.1736929,4.2387943,-2.148337,-0.051598642,2.552574,-2.1978772,-13.867216,-6.325481
0.17590468,4.2368765,-1.81917,-0.11657977,2.5206158,-2.135628,-13.709199,-6.4404025
0.17811398,4.234955,-1.81917,-0.11657977,2.5206158,-2.135628,-13.709199,-6.4404025
0.1802861,4.23336,-1.4900033,-0.17836511,2.4726791,-2.0350714,-13.464991,-6.4787097
0.18245687,4.2317615,-1.4900033,-0.17836511,2.4726791,-2.0350714,-13.464991,-6.4787097
0.18456405,4.230453,-1.1693587,-0.23482412,2.407698,-1.9393034,-13.211205,-6.703765
0.18667084,4.2291436,-1.1693587,-0.23482412,2.407698,-1.9393034,-13.211205,-6.703765
0.18874006,4.2280736,-0.860432,-0.28489155,2.3224766,-2.2170308,-12.6461735,-6.8761473
0.19080456,4.2270064,-0.860432,-0.28489155,2.3224766,-2.2170308,-12.6461735,-6.8761473
0.19283876,4.2262063,-0.5717454,-0.33069792,2.2212765,-2.1547816,-12.239159,-7.07726
0.19486861,4.2254066,-0.5717454,-0.33069792,2.2212765,-2.1547816,-12.239159,-7.07726
0.1967746,4.224931,-0.3075598,-0.3765043,2.1051629,-2.0207062,-12.559982,-6.919243
0.19868289,4.224455,-0.3075598,-0.3765043,2.1051629,-2.0207062,-12.559982,-6.919243
0.20048079,4.2242694,-0.0614837,-0.41378856,1.97307,-1.8195933,-12.708423,-6.83784
0.20228396,4.2240825,-0.0614837,-0.41378856,1.97307,-1.8195933,-12.708423,-6.83784
0.20401017,4.2240844,0.17393975,-0.44042018,1.8335204,-2.480393,-12.512098,-7.038953
0.20573728,4.224087,0.17393975,-0.44042018,1.8335204,-2.480393,-12.512098,-7.038953
0.20746404,4.2242966,0.39658,-0.46811703,1.6822528,-3.0885203,-12.224793,-7.28795
0.20918198,4.2245045,0.39658,-0.46811703,1.6822528,-3.0885203,-12.224793,-7.28795
0.21075991,4.2249427,0.6032413,-0.51285815,1.5182021,-2.9592333,-12.014104,-7.4124484
0.21233368,4.225381,0.6032413,-0.51285815,1.5182021,-2.9592333,-12.014104,-7.4124484
0.21375138,4.226041,0.79072785,-0.56931716,1.3466945,-2.566584,-11.779472,-7.431602
0.21516635,4.2267003,0.79072785,-0.56931716,1.3466945,-2.566584,-11.779472,-7.431602
0.21646798,4.2275558,0.9611702,-0.62790674,1.1624037,-2.767697,-11.544841,-7.455544
0.21776964,4.228412,0.9611702,-0.62790674,1.1624037,-2.767697,-11.544841,-7.455544
0.21884589,4.229482,1.1166987,-0.6801047,0.9663951,-1.7764976,-11.688493,-7.2927384
0.21992311,4.2305536,1.1166987,-0.6801047,0.9663951,-1.7764976,-11.688493,-7.2927384
0.22081691,4.23182,1.2669011,-0.7205847,0.75866854,-2.1404164,-12.239159,-7.015011
0.22179432,4.233205,1.2669011,-0.7205847,0.75866854,-2.1404164,-12.239159,-7.015011
0.22252625,4.2345552,1.4224297,-0.74295527,0.54881144,-2.4229321,-11.832145,-7.3549876
0.22335987,4.236095,1.4224297,-0.74295527,0.54881144,-2.4229321,-11.832145,-7.3549876
0.22392403,4.237516,1.5811541,-0.7685216,0.33575854,-2.791639,-11.334151,-7.824251
0.22392403,4.237516,1.5811541,-0.7685216,0.33575854,-2.791639,-11.334151,-7.824251
0.22392403,4.237516,1.5811541,-0.7685216,0.33575854,-2.791639,-11.334151,-7.824251
0.2252999,4.243281,1.8826239,-0.84841645,-0.08928198,-2.3702598,-11.252748,-7.723695
0.2252999,4.243281,1.8826239,-0.84841645,-0.08928198,-2.3702598,-11.252748,-7.723695
0.22552975,4.24795,2.0285652,-0.89102703,-0.29700854,-2.5474305,-11.224017,-7.747637
0.22558776,4.249151,2.0285652,-0.89102703,-0.29700854,-2.5474305,-11.224017,-7.747637
0.22568935,4.251284,2.0285652,-0.89102703,-0.29700854,-2.5474305,-11.224017,-7.747637
0.22564012,4.2535915,2.1777022,-0.9347029,-0.49408248,-2.6671407,-11.113884,-7.752425
0.22558877,4.2559013,2.1777022,-0.9347029,-0.49408248,-2.6671407,-11.113884,-7.752425
0.22538495,4.2583933,2.3289697,-0.9826398,-0.6805038,-2.552219,-11.042058,-7.9248075
0.22517912,4.2608795,2.3289697,-0.9826398,-0.6805038,-2.552219,-11.042058,-7.9248075
0.22483422,4.2635474,2.4813025,-1.031642,-0.85520715,-2.5091233,-10.94629,-7.9966335
0.22448568,4.2662196,2.4813025,-1.031642,-0.85520715,-2.5091233,-10.94629,-7.9966335
0.22401026,4.2690687,2.6336353,-1.0795789,-1.0139315,-2.456451,-10.912771,-8.1881695
0.22353382,4.2719026,2.6336353,-1.0795789,-1.0139315,-2.456451,-10.912771,-8.1881695
0.22294433,4.274915,2.7849028,-1.1232547,-1.1545465,-2.4708161,-10.927136,-8.078036
0.2223505,4.277929,2.7849028,-1.1232547,-1.1545465,-2.4708161,-10.927136,-8.078036
0.22165655,4.2811146,2.938301,-1.1637347,-1.2759866,-2.4229321,-11.027693,-8.087613
0.22095828,4.2842994,2.938301,-1.1637347,-1.2759866,-2.4229321,-11.027693,-8.087613
0.22018054,4.287655,3.094895,-1.2010189,-1.378252,-2.528277,-11.166556,-8.154651
0.21939799,4.291009,3.094895,-1.2010189,-1.378252,-2.528277,-11.166556,-8.154651
0.21855806,4.2945356,3.2568152,-1.2340422,-1.454951,-2.6384103,-11.161768,-8.173804
0.21771279,4.29806,3.2568152,-1.2340422,-1.454951,-2.6384103,-11.161768,-8.173804
0.21682371,4.3017597,3.4229963,-1.2660002,-1.5124753,-2.7006595,-11.243171,-8.106767
0.21592887,4.305457,3.4229963,-1.2660002,-1.5124753,-2.7006595,-11.243171,-8.106767
0.21500541,4.309335,3.5955691,-1.2990233,-1.5529554,-2.7629087,-11.33894,-7.967903
0.21407565,4.3132105,3.5955691,-1.2990233,-1.5529554,-2.7629087,-11.33894,-7.967903
0.21313617,4.317267,3.7702725,-1.3331118,-1.5721301,-2.815581,-11.453861,-7.800309
0.21218999,4.3213205,3.7702725,-1.3331118,-1.5721301,-2.815581,-11.453861,-7.800309
0.21124385,4.3255587,3.9492369,-1.3682655,-1.5763912,-2.777274,-11.60709,-7.6135616
0.21029152,4.3297896,3.9492369,-1.3682655,-1.5763912,-2.777274,-11.60709,-7.6135616
0.20934851,4.334212,4.1313972,-1.406615,-1.5689343,-2.7150247,-11.741165,-7.465121
0.2083979,4.3386316,4.1313972,-1.406615,-1.5689343,-2.7150247,-11.741165,-7.465121
0.20747319,4.3432436,4.315688,-1.4449645,-1.5497595,-2.791639,-11.822568,-7.3071036
0.20654048,4.347852,4.315688,-1.4449645,-1.5497595,-2.791639,-11.822568,-7.3071036
0.20564175,4.352646,4.501044,-1.4865099,-1.5241932,-2.873042,-11.947066,-7.1730285
0.20474,4.357408,4.501044,-1.4865099,-1.5241932,-2.873042,-11.947066,-7.1730285
0.20387416,4.362392,4.6853347,-1.5301857,-1.49117,-2.96881,-11.96622,-6.9623384
0.20299546,4.367393,4.6853347,-1.5301857,-1.49117,-2.96881,-11.96622,-6.9623384
0.20216496,4.372557,4.8685603,-1.5791879,-1.4517552,-2.944868,-11.975797,-6.8282633
0.20132565,4.3777127,4.8685603,-1.5791879,-1.4517552,-2.944868,-11.975797,-6.8282633
0.2005399,4.3830547,5.045394,-1.6292553,-1.4059489,-3.0214825,-11.769896,-6.789956
0.19974382,4.388394,5.045394,-1.6292553,-1.4059489,-3.0214825,-11.769896,-6.789956
0.19899659,4.3939085,5.216902,-1.6782575,-1.358012,-2.9257145,-11.621455,-6.5840545
0.19823845,4.3994207,5.216902,-1.6782575,-1.358012,-2.9257145,-11.621455,-6.5840545
0.19751471,4.4051085,5.3777566,-1.7219334,-1.3068793,-2.4612393,-11.224017,-6.4020953
0.1967823,4.410776,5.3777566,-1.7219334,-1.3068793,-2.4612393,-11.224017,-6.4020953
0.19607036,4.416594,5.5258284,-1.7549565,-1.2600076,-1.70946,-10.644621,-6.3781533
0.19534685,4.4224153,5.5258284,-1.7549565,-1.2600076,-1.70946,-10.644621,-6.3781533
0.19463734,4.4283648,5.6547256,-1.7698702,-1.2205929,-0.9911995,-9.92636,-6.3685765
0.19391678,4.434312,5.6547256,-1.7698702,-1.2205929,-0.9911995,-9.92636,-6.3685765
0.19319265,4.440359,5.758056,-1.7645439,-1.1960918,-0.23942018,-9.198523,-6.4068837
0.19245724,4.4464035,5.758056,-1.7645439,-1.1960918,-0.23942018,-9.198523,-6.4068837
0.19170508,4.452509,5.8283634,-1.7357818,-1.1886349,0.20111294,-8.374918,-6.3685765
0.19094172,4.458612,5.8283634,-1.7357818,-1.1886349,0.20111294,-8.374918,-6.3685765
0.19014174,4.464737,5.862452,-1.6846491,-1.1982223,0.49799395,-7.675811,-6.2584434
0.18933089,4.4708586,5.862452,-1.6846491,-1.1982223,0.49799395,-7.675811,-6.2584434
0.18846688,4.476962,5.8592563,-1.6122111,-1.2227234,0.56982,-7.0245876,-5.875371
0.18759242,4.4830623,5.8592563,-1.6122111,-1.2227234,0.56982,-7.0245876,-5.875371
0.18663105,4.4891887,5.821972,-1.5227288,-1.2600076,0.770933,-6.4787097,-5.281609
0.18552172,4.496176,5.821972,-1.5227288,-1.2600076,0.770933,-6.4787097,-5.281609
0.1846207,4.5012774,5.747403,-1.4183329,-1.3047488,1.388637,-5.5018754,-4.7022123
0.18357688,4.5071383,5.747403,-1.4183329,-1.3047488,1.388637,-5.5018754,-4.7022123
0.18244596,4.512911,5.6355505,-1.2947623,-1.3505551,1.3982137,-4.6160207,-4.2999864
0.18129776,4.5187263,5.6355505,-1.2947623,-1.3505551,1.3982137,-4.6160207,-4.2999864
0.18007362,4.524314,5.481087,-1.1530821,-1.398492,1.5610195,-3.6343982,-3.940856
0.1788348,4.5299315,5.481087,-1.1530821,-1.398492,1.5610195,-3.6343982,-3.940856
0.1774822,4.5353527,5.2808175,-1.0092714,-1.4506899,2.5809495,-2.6623523,-3.3901896
0.17612581,4.54076,5.2808175,-1.0092714,-1.4506899,2.5809495,-2.6623523,-3.3901896
0.17462336,4.54607,5.0262194,-0.85054696,-1.5103447,4.5441947,-2.7485435,-1.8818425
0.17318562,4.551128,5.0262194,-0.85054696,-1.5103447,4.5441947,-2.7485435,-1.8818425
0.17161743,4.5559797,4.72688,-0.6311025,-1.5604122,3.2848446,-2.9496565,-1.2737153
0.17004642,4.5608234,4.72688,-0.6311025,-1.5604122,3.2848446,-2.9496565,-1.2737153
0.16839613,4.5653167,4.4041047,-0.40207064,-1.6083491,3.2130187,-1.9776106,-0.8762778
0.16674599,4.5697985,4.4041047,-0.40207064,-1.6083491,3.2130187,-1.9776106,-0.8762778
0.16503341,4.5739136,4.0536327,-0.18688722,-1.6530902,3.7349546,-0.4261679,-0.7134721
0.16331716,4.57803,4.0536327,-0.18688722,-1.6530902,3.7349546,-0.4261679,-0.7134721
0.16156046,4.581719,3.655224,0.035753045,-1.6871786,4.630386,0.320823,0.19632454
0.1598029,4.5854063,3.655224,0.035753045,-1.6871786,4.630386,0.320823,0.19632454
0.15802105,4.5885973,3.2014213,0.27330703,-1.7020924,4.5537715,0.6512229,1.0486604
0.15622133,4.59182,3.2014213,0.27330703,-1.7020924,4.5537715,0.6512229,1.0486604
0.15441374,4.5945024,2.7028775,0.5076652,-1.7042229,4.4340615,0.9624691,2.1212628
0.15260856,4.597182,2.7028775,0.5076652,-1.7042229,4.4340615,0.9624691,2.1212628
0.15078811,4.599309,2.1745064,0.7271097,-1.696766,4.9224787,0.7038953,3.1124623
0.1489688,4.6014366,2.1745064,0.7271097,-1.696766,4.9224787,0.7038953,3.1124623
0.14716364,4.6029835,1.6195036,0.9369668,-1.6733302,3.6966474,1.2066777,3.4811692
0.14535967,4.6045303,1.6195036,0.9369668,-1.6733302,3.6966474,1.2066777,3.4811692
0.1435722,4.60548,1.0421302,1.1159312,-1.6381766,4.0653543,0.63206923,4.333505
0.1417855,4.6064315,1.0421302,1.1159312,-1.6381766,4.0653543,0.63206923,4.333505
0.14003024,4.6067734,0.45303902,1.2693293,-1.5913049,4.534618,0.6560113,4.960786
0.13827536,4.6071167,0.45303902,1.2693293,-1.5913049,4.534618,0.6560113,4.960786
0.13656804,4.606845,-0.1456396,1.4174011,-1.5295196,4.5298295,0.40701428,5.4683566
0.13486038,4.606575,-0.1456396,1.4174011,-1.5295196,4.5298295,0.40701428,5.4683566
0.13321371,4.605689,-0.747514,1.5526897,-1.454951,4.333505,0.062249243,5.8466406
0.13156588,4.604806,-0.747514,1.5526897,-1.454951,4.333505,0.062249243,5.8466406
0.12999143,4.6033115,-1.3440621,1.6698687,-1.3654689,4.0222588,-0.45010993,6.133945
0.12842093,4.601826,-1.3440621,1.6698687,-1.3654689,4.0222588,-0.45010993,6.133945
0.12693965,4.5997467,-1.927827,1.7614814,-1.2621381,3.5673606,-1.0103531,6.2871737
0.12545496,4.59767,-1.927827,1.7614814,-1.2621381,3.5673606,-1.0103531,6.2871737
0.12407196,4.595029,-2.4892213,1.820071,-1.1492201,3.4476504,-1.8387469,6.5122285
0.12268467,4.59239,-2.4892213,1.820071,-1.1492201,3.4476504,-1.8387469,6.5122285
0.12140882,4.589223,-3.0175927,1.8498985,-1.0267147,3.4763808,-2.5905263,6.531382
0.12012769,4.5860577,-3.0175927,1.8498985,-1.0267147,3.4763808,-2.5905263,6.531382
0.118963525,4.5824037,-3.5076141,1.8648121,-0.89994824,3.4093432,-3.3806129,6.493075
0.1177932,4.5787525,-3.5076141,1.8648121,-0.89994824,3.4093432,-3.3806129,6.493075
0.11675213,4.57466,-3.9518294,1.8680079,-0.7635944,2.9783869,-4.189853,6.325481
0.11570401,4.570569,-3.9518294,1.8680079,-0.7635944,2.9783869,-4.189853,6.325481
0.11479662,4.5660877,-4.3470426,1.8594857,-0.6165879,2.5378537,-5.1140146,6.1100025
0.11388241,4.561612,-4.3470426,1.8594857,-0.6165879,2.5378537,-5.1140146,6.1100025
0.1130999,4.5566626,-4.6921883,1.8328542,-0.45679823,2.303222,-6.129156,5.803545
0.112338334,4.5518975,-4.6921883,1.8328542,-0.45679823,2.303222,-6.129156,5.803545
0.111732155,4.5468183,-4.985136,1.7881131,-0.29061696,2.2122424,-7.2352777,5.5018754
0.11111454,4.5417147,-4.985136,1.7881131,-0.29061696,2.2122424,-7.2352777,5.5018754
0.110665336,4.5363836,-5.2237554,1.7252625,-0.11910939,2.2601264,-8.169016,5.1810527
0.1102168,4.53116,-5.2237554,1.7252625,-0.11910939,2.2601264,-8.169016,5.1810527
0.109927535,4.5256457,-5.4101768,1.650694,0.05026766,2.183512,-9.045294,4.745308
0.109623544,4.520021,-5.4101768,1.650694,0.05026766,2.183512,-9.045294,4.745308
0.10949429,4.5143785,-5.5465302,1.5665381,0.21431838,1.9440918,-9.782708,4.4675803
0.10935698,4.5087585,-5.5465302,1.5665381,0.21431838,1.9440918,-9.782708,4.4675803
0.10938969,4.503039,-5.6317515,1.4770559,0.37730384,1.6136919,-10.31901,4.1180267
0.109414116,4.497296,-5.6317515,1.4770559,0.37730384,1.6136919,-10.31901,4.1180267
0.10961125,4.491535,-5.6679707,1.3865083,0.5413546,1.3215994,-10.726024,3.7541082
0.10979939,4.485803,-5.6679707,1.3865083,0.5413546,1.3215994,-10.726024,3.7541082
0.1101627,4.4800553,-5.661579,1.2938304,0.70647055,1.0773908,-10.998962,3.289633
0.11051746,4.4743176,-5.661579,1.2938304,0.70647055,1.0773908,-10.998962,3.289633
0.11104433,4.4686303,-5.617903,1.2000871,0.86945605,0.8283938,-10.984597,2.6192567
0.11156667,4.462908,-5.617903,1.2000871,0.86945605,0.8283938,-10.984597,2.6192567
0.11225217,4.457301,-5.541204,1.1063439,1.0281805,0.7661445,-10.888829,1.9967642
0.11292782,4.4517155,-5.541204,1.1063439,1.0281805,0.7661445,-10.888829,1.9967642
0.1137674,4.446222,-5.4431996,1.0115353,1.183709,0.6895301,-10.778696,1.2785037
0.114602,4.4407153,-5.4431996,1.0115353,1.183709,0.6895301,-10.778696,1.2785037
0.115596645,4.4353323,-5.3302817,0.92311835,1.3339113,0.4357447,-10.606314,0.7086837
0.1165869,4.4299355,-5.3302817,0.92311835,1.3339113,0.4357447,-10.606314,0.7086837
0.1177249,4.4246817,-5.20245,0.8357667,1.477722,0.35434186,-10.481815,0.05746084
0.11885703,4.4194255,-5.20245,0.8357667,1.477722,0.35434186,-10.481815,0.05746084
0.12013328,4.4142966,-5.0660963,0.75374126,1.6172717,0.31603462,-10.381259,-0.5793968
0.12140292,4.4091706,-5.0660963,0.75374126,1.6172717,0.31603462,-10.381259,-0.5793968
0.12279514,4.404188,-4.9254813,0.67917275,1.7461686,0.36870706,-10.290278,-1.1923125
0.12418528,4.399193,-4.9254813,0.67917275,1.7461686,0.36870706,-10.290278,-1.1923125
0.12567647,4.3943353,-4.782736,0.61632216,1.8654783,0.40222588,-10.108319,-1.910573
0.12716211,4.3894806,-4.782736,0.61632216,1.8654783,0.40222588,-10.108319,-1.910573
0.12874043,4.3847322,-4.643186,0.56732,1.97307,0.37828386,-9.940725,-2.480393
0.13031045,4.379997,-4.643186,0.56732,1.97307,0.37828386,-9.940725,-2.480393
0.13196565,4.37537,-4.5121584,0.531101,2.070009,0.21547815,-9.888053,-2.882619
0.13361739,4.3707423,-4.5121584,0.531101,2.070009,0.21547815,-9.888053,-2.882619
0.13895531,4.357025,-4.274605,0.48849043,2.2361903,-0.20111294,-10.103531,-3.4524388
0.13895531,4.357025,-4.274605,0.48849043,2.2361903,-0.20111294,-10.103531,-3.4524388
0.13895531,4.357025,-4.274605,0.48849043,2.2361903,-0.20111294,-10.103531,-3.4524388
0.13895531,4.357025,-4.274605,0.48849043,2.2361903,-0.20111294,-10.103531,-3.4524388
0.1424703,4.348434,-4.163817,0.47890306,2.3043673,-0.46926352,-10.295067,-3.6870706
0.14434375,4.3440495,-4.163817,0.47890306,2.3043673,-0.46926352,-10.295067,-3.6870706
0.14619452,4.3399477,-4.059421,0.474642,2.3661525,-0.6703765,-10.635044,-3.8402996
0.14817332,4.3355565,-4.059421,0.474642,2.3661525,-0.6703765,-10.635044,-3.8402996
0.15092678,4.3297405,-3.9582212,0.46931568,2.4151547,-0.8762778,-10.936713,-3.9695864
0.15199067,4.3274937,-3.9582212,0.46931568,2.4151547,-0.8762778,-10.936713,-3.9695864
0.153976,4.3234916,-3.8570209,0.46398935,2.4513738,-0.9768343,-11.271901,-4.0414124
0.15596277,4.31948,-3.8570209,0.46398935,2.4513738,-0.9768343,-11.271901,-4.0414124
0.15796886,4.315622,-3.752625,0.45759776,2.4748096,-1.1540052,-11.63582,-4.0462008
0.15998575,4.3117337,-3.752625,0.45759776,2.4748096,-1.1540052,-11.63582,-4.0462008
0.15998575,4.3117337,-3.752625,0.45759776,2.4748096,-1.1540052,-11.63582,-4.0462008
0.16398774,4.3042755,-3.6429029,0.44907564,2.488658,-1.2354081,-11.918336,-4.1611223
0.16616529,4.30035,-3.5278542,0.43735775,2.488658,-1.3215994,-12.090718,-4.185065
0.16851951,4.2962356,-3.4042835,0.4213788,2.4737444,-1.3551182,-12.215217,-4.1659107
0.17017409,4.2933345,-3.4042835,0.4213788,2.4737444,-1.3551182,-12.215217,-4.1659107
0.1721832,4.289801,-3.4042835,0.4213788,2.4737444,-1.3551182,-12.215217,-4.1659107
0.17418002,4.2863874,-3.273256,0.4000735,2.4428515,-1.4077905,-12.334928,-4.1802764
0.1761804,4.282955,-3.273256,0.4000735,2.4428515,-1.4077905,-12.334928,-4.1802764
0.17814189,4.2796745,-3.1337063,0.37450713,2.39598,-1.4556746,-12.334928,-4.213795
0.18009523,4.276396,-3.1337063,0.37450713,2.39598,-1.4556746,-12.334928,-4.213795
0.18200919,4.2732577,-2.9856346,0.345745,2.3373904,-1.4269443,-12.334928,-4.2281604
0.18391347,4.2701254,-2.9856346,0.345745,2.3373904,-1.4269443,-12.334928,-4.2281604
0.18576331,4.2671537,-2.8290408,0.31378707,2.2649524,-1.4987702,-12.325351,-4.3478703
0.18760957,4.2641788,-2.8290408,0.31378707,2.2649524,-1.4987702,-12.325351,-4.3478703
0.18937321,4.261371,-2.6660552,0.27756807,2.178666,-1.4460979,-12.210428,-4.654328
0.19113232,4.258563,-2.6660552,0.27756807,2.178666,-1.4460979,-12.210428,-4.654328
0.19281493,4.2559285,-2.4966784,0.2381533,2.0806618,-1.5466543,-12.105083,-4.8506527
0.19449364,4.2532945,-2.4966784,0.2381533,2.0806618,-1.5466543,-12.105083,-4.8506527
0.19607024,4.2508407,-2.3241055,0.19447745,1.9688089,-1.6567876,-11.9374895,-5.1666875
0.19764872,4.24838,-2.3241055,0.19447745,1.9688089,-1.6567876,-11.9374895,-5.1666875
0.19911408,4.2460938,-2.1462061,0.1476058,1.8505646,-1.6424223,-11.81778,-5.463568
0.20057736,4.2438097,-2.1462061,0.1476058,1.8505646,-1.6424223,-11.81778,-5.463568
0.20193236,4.241682,-1.9608502,0.09753838,1.7237982,-1.6472107,-11.717223,-5.837064
0.20329545,4.239541,-1.9608502,0.09753838,1.7237982,-1.6472107,-11.717223,-5.837064
0.20454192,4.237619,-1.7691026,0.047470953,1.5927706,-1.5705963,-11.674128,-6.05733
0.20579661,4.2356825,-1.7691026,0.047470953,1.5927706,-1.5705963,-11.674128,-6.05733
0.206982,4.233908,-1.5709634,-0.00366174,1.457482,-1.8052281,-11.453861,-6.5026517
0.20816387,4.232135,-1.5709634,-0.00366174,1.457482,-1.8052281,-11.453861,-6.5026517
0.2092526,4.230581,-1.3674979,-0.05372917,1.3200629,-1.757344,-11.405977,-6.6989765
0.21031675,4.2290583,-1.3674979,-0.05372917,1.3200629,-1.757344,-11.405977,-6.6989765
0.2112865,4.227756,-1.1587061,-0.106992394,1.1805133,-1.7142484,-11.923124,-6.703765
0.21227473,4.226428,-1.1587061,-0.106992394,1.1805133,-1.7142484,-11.923124,-6.703765
0.21313287,4.225406,-0.9360658,-0.1549293,1.0462899,-1.6041151,-12.445061,-6.6846113
0.21398543,4.224391,-0.9360658,-0.1549293,1.0462899,-1.6041151,-12.445061,-6.6846113
0.214762,4.2236037,-0.691055,-0.19860514,0.9173929,-2.255338,-12.473791,-6.9000893
0.21553962,4.2228155,-0.691055,-0.19860514,0.9173929,-2.255338,-12.473791,-6.9000893
0.21632314,4.222249,-0.42793468,-0.24441151,0.792757,-3.0214825,-12.531252,-7.2352777
0.21710613,4.2216816,-0.42793468,-0.24441151,0.792757,-3.0214825,-12.531252,-7.2352777
0.21782535,4.221413,-0.15096591,-0.31152317,0.6734474,-3.0071173,-12.411542,-7.393295
0.21854503,4.2211447,-0.15096591,-0.31152317,0.6734474,-3.0071173,-12.411542,-7.393295
0.21912847,4.221216,0.13559023,-0.39248326,0.5562683,-2.5570073,-12.6222315,-7.4507556
0.21971256,4.2212887,0.13559023,-0.39248326,0.5562683,-2.5570073,-12.6222315,-7.4507556
0.2202673,4.2216597,0.42640743,-0.47131285,0.44335026,-2.7581203,-12.464214,-7.651869
0.22082591,4.222034,0.42640743,-0.47131285,0.44335026,-2.7581203,-12.464214,-7.651869
0.22124873,4.222783,0.7204204,-0.5522729,0.32617116,-2.111686,-12.847286,-7.3406224
0.22167136,4.2235312,0.7204204,-0.5522729,0.32617116,-2.111686,-12.847286,-7.3406224
0.22205625,4.22458,1.020825,-0.6215151,0.21218786,-2.6431987,-13.057976,-7.603985
0.22244003,4.225624,1.020825,-0.6215151,0.21218786,-2.6431987,-13.057976,-7.603985
