Pitch,Roll,Gyro_X,Gyro_Y,Gyro_Z,Accel_X,Accel_Y,Accel_Z
0.24705689,4.686475,-0.08811531,-0.06757761,0.26438582,0.36391866,-8.628703,2.815581
0.24726066,4.686481,-0.08811531,-0.06757761,0.26438582,0.36391866,-8.628703,2.815581
0.24746573,4.6864424,-0.13285641,-0.06970814,0.26438582,0.36391866,-8.63828,2.705448
0.24770036,4.686343,-0.18185858,-0.07183866,0.26545107,0.33518824,-8.719683,2.72939
0.24770036,4.686343,-0.18185858,-0.07183866,0.26545107,0.33518824,-8.719683,2.72939
0.24793735,4.6862426,-0.18185858,-0.07183866,0.26545107,0.33518824,-8.719683,2.72939
0.24829246,4.686011,-0.2351218,-0.07609972,0.2707774,0.17717093,-8.767567,2.6671407
0.24850036,4.685875,-0.2351218,-0.07609972,0.2707774,0.17717093,-8.767567,2.6671407
0.24871926,4.6856833,-0.29371136,-0.08142605,0.27823424,0.01436521,-8.848969,2.6527755
0.24893966,4.6854906,-0.29371136,-0.08142605,0.27823424,0.01436521,-8.848969,2.6527755
0.24917145,4.685236,-0.35549667,-0.0856871,0.28782162,-0.11492168,-8.944737,2.5617957
0.24940239,4.684983,-0.35549667,-0.0856871,0.28782162,-0.11492168,-8.944737,2.5617957
0.24964942,4.684669,-0.41728202,-0.08994816,0.3038006,-0.21068975,-9.016563,2.4708161
0.24989687,4.684355,-0.41728202,-0.08994816,0.3038006,-0.21068975,-9.016563,2.4708161
0.250167,4.683981,-0.4780021,-0.09420922,0.3272364,-0.2633622,-9.011775,2.3750482
0.25043812,4.683606,-0.4780021,-0.09420922,0.3272364,-0.2633622,-9.011775,2.3750482
0.25043812,4.683606,-0.5376569,-0.09740501,0.35280275,-0.2777274,-8.939949,2.1739352
0.25103647,4.682719,-0.5376569,-0.09740501,0.35280275,-0.2777274,-8.939949,2.1739352
0.251342,4.682235,-0.59944224,-0.09847028,0.37943438,-0.10534488,-8.805874,2.0685902
0.25165194,4.6817436,-0.59944224,-0.09847028,0.37943438,-0.10534488,-8.805874,2.0685902
0.2519895,4.681183,-0.6612276,-0.09420922,0.4092618,-0.033518825,-8.676587,1.8962077
0.25232714,4.680622,-0.6612276,-0.09420922,0.4092618,-0.033518825,-8.676587,1.8962077
0.25268906,4.679988,-0.7240782,-0.08355658,0.43908918,0.12449849,-8.599973,1.7190368
0.25304973,4.6793566,-0.7240782,-0.08355658,0.43908918,0.12449849,-8.599973,1.7190368
0.25343147,4.6786537,-0.78905934,-0.06970814,0.46359026,0.14844051,-8.51857,1.5993267
0.25381413,4.67795,-0.78905934,-0.06970814,0.46359026,0.14844051,-8.51857,1.5993267
0.25421304,4.677169,-0.8593668,-0.047337584,0.48489556,0.06703765,-8.523358,1.4221559
0.25461248,4.676388,-0.8593668,-0.047337584,0.48489556,0.06703765,-8.523358,1.4221559
0.25503147,4.6755266,-0.93287003,-0.023901764,0.5072661,-0.07182605,-8.628703,1.283292
0.25545073,4.6746645,-0.93287003,-0.023901764,0.5072661,-0.07182605,-8.628703,1.283292
0.255893,4.673716,-1.0106343,0.0016645822,0.5317672,-0.1436521,-8.662222,1.1971009
0.2563346,4.6727686,-1.0106343,0.0016645822,0.5317672,-0.1436521,-8.662222,1.1971009
0.25679085,4.671729,-1.0915945,0.0251004,0.55413777,-0.22505496,-8.724471,0.94810385
0.25679085,4.671729,-1.0915945,0.0251004,0.55413777,-0.22505496,-8.724471,0.94810385
0.25679085,4.671729,-1.0915945,0.0251004,0.55413777,-0.22505496,-8.724471,0.94810385
0.25679085,4.671729,-1.0915945,0.0251004,0.55413777,-0.22505496,-8.724471,0.94810385
0.25679085,4.671729,-1.2567104,0.06664571,0.6020746,-0.521936,-9.150639,0.7182605
0.25926113,4.66568,-1.2567104,0.06664571,0.6020746,-0.521936,-9.150639,0.7182605
0.2598109,4.6643095,-1.3366053,0.087951005,0.6287063,-0.641646,-9.370906,0.6512229
0.26034564,4.662977,-1.3366053,0.087951005,0.6287063,-0.641646,-9.370906,0.6512229
0.26088428,4.661603,-1.4122391,0.10712577,0.6585337,-0.78529817,-9.56723,0.4309563
0.2614326,4.660204,-1.4122391,0.10712577,0.6585337,-0.78529817,-9.56723,0.4309563
0.26198602,4.65878,-1.484677,0.12523526,0.6926221,-0.9576807,-9.840169,0.24899697
0.2625449,4.657343,-1.484677,0.12523526,0.6926221,-0.9576807,-9.840169,0.24899697
0.2631411,4.655796,-1.5496582,0.14227949,0.7288411,-1.0630256,-10.0029745,0.023942016
0.26375318,4.654209,-1.5496582,0.14227949,0.7288411,-1.0630256,-10.0029745,0.023942016
0.26437542,4.6525803,-1.6082476,0.15825845,0.7639949,-1.1300632,-10.170568,-0.22026655
0.2649955,4.650958,-1.6082476,0.15825845,0.7639949,-1.1300632,-10.170568,-0.22026655
0.26564866,4.649248,-1.661511,0.17104164,0.8023444,-1.2210429,-10.295067,-0.48841715
0.2663069,4.6475263,-1.661511,0.17104164,0.8023444,-1.2210429,-10.295067,-0.48841715
0.26699024,4.645754,-1.7094479,0.1870206,0.8385634,-1.2880806,-10.333375,-0.6751649
0.26767465,4.643979,-1.7094479,0.1870206,0.8385634,-1.2880806,-10.333375,-0.6751649
0.26839444,4.6421356,-1.7509931,0.20406483,0.8747823,-1.3599066,-10.376471,-0.9576807
0.26911417,4.6402907,-1.7509931,0.20406483,0.8747823,-1.3599066,-10.376471,-0.9576807
0.26987526,4.638383,-1.7872121,0.22537012,0.9110013,-1.4508862,-10.366894,-1.1540052
0.2706357,4.6364746,-1.7872121,0.22537012,0.9110013,-1.4508862,-10.366894,-1.1540052
0.27143997,4.6345053,-1.8213006,0.24880594,0.94402456,-1.5275006,-10.462662,-1.4508862
0.27224302,4.6325345,-1.8213006,0.24880594,0.94402456,-1.5275006,-10.462662,-1.4508862
0.27307928,4.6305194,-1.851128,0.27330703,0.9717214,-1.5753847,-10.486604,-1.6376339
0.2739141,4.6285024,-1.851128,0.27330703,0.9717214,-1.5753847,-10.486604,-1.6376339
0.2747834,4.6264386,-1.8766943,0.3010039,0.994092,-1.6903064,-10.529699,-1.8866309
0.27565038,4.6243753,-1.8766943,0.3010039,0.994092,-1.6903064,-10.529699,-1.8866309
0.2765457,4.6222706,-1.8990649,0.33296183,1.0132667,-1.8626889,-10.606314,-2.054225
0.2774378,4.6201677,-1.8990649,0.33296183,1.0132667,-1.8626889,-10.606314,-2.054225
0.27835596,4.618024,-1.9203702,0.36811554,1.030311,-1.934515,-10.601525,-2.2984335
0.27927253,4.615877,-1.9203702,0.36811554,1.030311,-1.934515,-10.601525,-2.2984335
0.28020236,4.6136947,-1.9427407,0.4053998,1.0430942,-1.7908629,-10.515334,-2.6623523
0.2811288,4.6115136,-1.9427407,0.4053998,1.0430942,-1.7908629,-10.515334,-2.6623523
0.28206956,4.609271,-1.968307,0.44587985,1.0505509,-1.5849615,-10.314221,-3.0358477
0.28301448,4.6070127,-1.968307,0.44587985,1.0505509,-1.5849615,-10.314221,-3.0358477
0.2839635,4.604678,-2.0013304,0.4959473,1.0473552,-1.4173675,-10.0748005,-3.4284968
0.28484285,4.6025095,-2.0013304,0.4959473,1.0473552,-1.4173675,-10.0748005,-3.4284968
0.28575155,4.600173,-2.0418103,0.55134106,1.0335068,-1.4077905,-9.801862,-3.7301662
0.28665873,4.5978327,-2.0418103,0.55134106,1.0335068,-1.4077905,-9.801862,-3.7301662
0.28754482,4.5954227,-2.0897472,0.6131264,1.0111362,-1.5753847,-9.696517,-4.012682
0.2884275,4.593014,-2.0897472,0.6131264,1.0111362,-1.5753847,-9.696517,-4.012682
0.2892734,4.590527,-2.1462061,0.67491174,0.9813088,-1.5705963,-9.581595,-4.084508
0.29011768,4.5880365,-2.1462061,0.67491174,0.9813088,-1.5705963,-9.581595,-4.084508
0.2909172,4.585472,-2.205861,0.73776233,0.94402456,-1.685518,-9.504981,-4.0940847
0.29171464,4.5829034,-2.205861,0.73776233,0.94402456,-1.685518,-9.504981,-4.0940847
0.2924492,4.580258,-2.2655158,0.80593926,0.90247923,-1.3551182,-9.495404,-4.10845
0.29318073,4.577611,-2.2655158,0.80593926,0.90247923,-1.3551182,-9.495404,-4.10845
0.29385403,4.5748854,-2.3230402,0.87731194,0.85560757,-1.3359646,-9.437943,-4.185065
0.29451123,4.572211,-2.3230402,0.87731194,0.85560757,-1.3359646,-9.437943,-4.185065
0.29511034,4.5694065,-2.3794992,0.9486847,0.8002138,-1.3263878,-9.581595,-4.1036615
0.2957171,4.5665474,-2.3794992,0.9486847,0.8002138,-1.3263878,-9.581595,-4.1036615
0.29623613,4.56368,-2.4295666,1.0136658,0.74268955,-1.4796166,-10.0748005,-3.8402996
0.29674795,4.5608296,-2.4295666,1.0136658,0.74268955,-1.4796166,-10.0748005,-3.8402996
0.29717934,4.5579143,-2.4668508,1.0722554,0.6809042,-1.4796166,-10.381259,-3.596091
0.29760885,4.5549803,-2.4668508,1.0722554,0.6809042,-1.4796166,-10.381259,-3.596091
0.29796466,4.552029,-2.488156,1.1265838,0.6201841,-1.757344,-10.620679,-3.4476504
0.29831526,4.549081,-2.488156,1.1265838,0.6201841,-1.757344,-10.620679,-3.4476504
0.29862016,4.546101,-2.495613,1.175586,0.56479037,-2.2649148,-10.611102,-3.4859576
0.29891998,4.5431213,-2.495613,1.175586,0.56479037,-2.2649148,-10.611102,-3.4859576
0.2991674,4.540139,-2.488156,1.2096745,0.5157882,-2.4181437,-10.644621,-3.4859576
0.2994098,4.537156,-2.488156,1.2096745,0.5157882,-2.4181437,-10.644621,-3.4859576
0.29955608,4.534212,-2.471112,1.2224576,0.4689166,-1.9393034,-11.118672,-3.098097
0.2996971,4.531266,-2.471112,1.2224576,0.4689166,-1.9393034,-11.118672,-3.098097
0.29977354,4.528372,-2.4423497,1.232045,0.42737126,-1.9201498,-11.48738,-2.858677
0.2998449,4.5254765,-2.4423497,1.232045,0.42737126,-1.9201498,-11.48738,-2.858677
0.29986453,4.5226345,-2.3976088,1.2426977,0.38689122,-2.0638018,-11.501745,-2.6910827
0.29987913,4.519795,-2.3976088,1.2426977,0.38689122,-2.0638018,-11.501745,-2.6910827
0.29985896,4.517008,-2.3379538,1.248024,0.35067225,-2.4708161,-11.449073,-2.6623523
0.2998331,4.514224,-2.3379538,1.248024,0.35067225,-2.4708161,-11.449073,-2.6623523
0.29977563,4.5115113,-2.2729728,1.2448282,0.32297537,-2.6192567,-11.434708,-2.6144683
0.2997127,4.508805,-2.2729728,1.2448282,0.32297537,-2.6192567,-11.434708,-2.6144683
0.29961705,4.5061917,-2.2047958,1.2299145,0.29953954,-2.5139117,-11.463438,-2.4756045
0.2995175,4.503586,-2.2047958,1.2299145,0.29953954,-2.5139117,-11.463438,-2.4756045
0.29939955,4.501073,-2.1355536,1.2107397,0.28036478,-2.2266076,-11.449073,-2.3702598
0.29927886,4.498563,-2.1355536,1.2107397,0.28036478,-2.2266076,-11.449073,-2.3702598
0.2991415,4.496143,-2.0641809,1.1926303,0.26012474,-2.0015526,-11.496957,-2.2697031
0.29900202,4.493726,-2.0641809,1.1926303,0.26012474,-2.0015526,-11.496957,-2.2697031
0.29884332,4.4913826,-1.9917428,1.1766512,0.24094999,-1.9153614,-11.362882,-2.3080103
0.29868266,4.489045,-1.9917428,1.1766512,0.24094999,-1.9153614,-11.362882,-2.3080103
0.2985086,4.4867854,-1.9203702,1.1617376,0.2260363,-2.0446482,-11.180922,-2.2888567
0.29833275,4.4845285,-1.9203702,1.1617376,0.2260363,-2.0446482,-11.180922,-2.2888567
0.29813373,4.482225,-1.8500627,1.1436281,0.21218786,-2.1643584,-11.104307,-2.336741
0.29813373,4.482225,-1.8500627,1.1436281,0.21218786,-2.1643584,-11.104307,-2.336741
0.29775435,4.4780173,-1.7840164,1.1148659,0.19727415,-2.2266076,-11.118672,-2.27928
0.29756007,4.475957,-1.7840164,1.1148659,0.19727415,-2.2266076,-11.118672,-2.27928
0.29736444,4.4739647,-1.7179699,1.0807775,0.18342571,-2.2601264,-11.224017,-2.1883004
0.2971673,4.471967,-1.7179699,1.0807775,0.18342571,-2.2601264,-11.224017,-2.1883004
0.2969794,4.4700613,-1.649793,1.0413626,0.17170781,-2.27928,-11.405977,-2.030283
0.29679132,4.4681606,-1.649793,1.0413626,0.17170781,-2.27928,-11.405977,-2.030283
0.2965806,4.4661517,-1.577355,0.99768686,0.16105516,-2.2649148,-11.496957,-2.0590134
0.29640788,4.464509,-1.577355,0.99768686,0.16105516,-2.2649148,-11.496957,-2.0590134
0.2962179,4.4627724,-1.4995908,0.9508152,0.15359831,-2.2122424,-11.597513,-2.0590134
0.29603162,4.4610753,-1.4995908,0.9508152,0.15359831,-2.2122424,-11.597513,-2.0590134
0.29585037,4.459461,-1.4143696,0.9007478,0.14401093,-2.2266076,-11.693281,-1.9967642
0.2956684,4.4578476,-1.4143696,0.9007478,0.14401093,-2.2266076,-11.693281,-1.9967642
0.29548708,4.456345,-1.3206263,0.8464193,0.13016249,-2.1930888,-11.717223,-1.9632454
0.2953049,4.4548388,-1.3206263,0.8464193,0.13016249,-2.1930888,-11.717223,-1.9632454
0.2951187,4.4534574,-1.2151651,0.788895,0.11524879,-2.1404164,-11.75553,-2.0159178
0.29493228,4.4520764,-1.2151651,0.788895,0.11524879,-2.1404164,-11.75553,-2.0159178
0.29475093,4.4508324,-1.097986,0.7303055,0.10140035,-2.087744,-11.812991,-1.9057846
0.2945698,4.449592,-1.097986,0.7303055,0.10140035,-2.087744,-11.812991,-1.9057846
0.2943869,4.4485006,-0.96908903,0.66532433,0.08329086,-2.0685902,-11.822568,-1.9153614
0.29420364,4.4474072,-0.96908903,0.66532433,0.08329086,-2.0685902,-11.822568,-1.9153614
0.294012,4.446473,-0.8284741,0.5992779,0.061985567,-1.9728222,-11.765107,-1.958457
0.29382077,4.4455414,-0.8284741,0.5992779,0.061985567,-1.9728222,-11.765107,-1.958457
0.29361334,4.444777,-0.67614126,0.53323156,0.035353955,-1.7717092,-11.717223,-2.006341
0.29340595,4.4440136,-0.67614126,0.53323156,0.035353955,-1.7717092,-11.717223,-2.006341
0.29318005,4.443427,-0.5152864,0.4661199,0.0044612866,-1.6519991,-11.559206,-2.0829554
0.29295406,4.4428415,-0.5152864,0.4661199,0.0044612866,-1.6519991,-11.559206,-2.0829554
0.29270506,4.44244,-0.34697458,0.3990082,-0.03069244,-1.532289,-11.506534,-2.1930888
0.29245555,4.442038,-0.34697458,0.3990082,-0.03069244,-1.532289,-11.506534,-2.1930888
0.29218477,4.441831,-0.1722712,0.33296183,-0.06904196,-1.4173675,-11.391612,-2.207454
0.2919142,4.4416246,-0.1722712,0.33296183,-0.06904196,-1.4173675,-11.391612,-2.207454
0.29161945,4.4416194,0.005627962,0.26691544,-0.11271781,-1.3790601,-11.295844,-2.1452048
0.2913253,4.4416146,0.005627962,0.26691544,-0.11271781,-1.3790601,-11.295844,-2.1452048
0.29100835,4.441818,0.18778819,0.2019343,-0.15958944,-1.388637,-11.358093,-2.0446482
0.29069078,4.442023,0.18778819,0.2019343,-0.15958944,-1.388637,-11.358093,-2.0446482
0.2903474,4.4424386,0.37207893,0.1358879,-0.20965686,-1.460463,-11.410766,-1.9728222
0.29000413,4.442854,0.37207893,0.1358879,-0.20965686,-1.460463,-11.410766,-1.9728222
0.28963792,4.443486,0.55850023,0.06877624,-0.26078957,-1.5131354,-11.425131,-1.7860745
0.28927135,4.4441185,0.55850023,0.06877624,-0.26078957,-1.5131354,-11.425131,-1.7860745
0.28887898,4.444964,0.74598676,-0.0015312112,-0.310857,-1.5562311,-11.597513,-1.7286136
0.28848672,4.4458084,0.74598676,-0.0015312112,-0.310857,-1.5562311,-11.597513,-1.7286136
0.2880747,4.446872,0.9366691,-0.07290393,-0.35772863,-1.6184803,-11.626244,-1.5753847
0.28766215,4.447936,0.9366691,-0.07290393,-0.35772863,-1.6184803,-11.626244,-1.5753847
0.28723538,4.44922,1.1284167,-0.14960296,-0.40033922,-1.6184803,-11.693281,-1.3694834
0.28680792,4.4505033,1.1284167,-0.14960296,-0.40033922,-1.6184803,-11.693281,-1.3694834
0.2863628,4.4520054,1.3212296,-0.2294978,-0.43975398,-1.5179238,-11.626244,-1.2689269
0.28591642,4.4535074,1.3212296,-0.2294978,-0.43975398,-1.5179238,-11.626244,-1.2689269
0.2854586,4.4552283,1.5172383,-0.31045792,-0.47810352,-1.4652514,-11.57836,-1.0773908
0.28499827,4.4569535,1.5172383,-0.31045792,-0.47810352,-1.4652514,-11.57836,-1.0773908
0.28453356,4.4589043,1.7164427,-0.391418,-0.51219195,-1.3934253,-11.530476,-0.6895301
0.28406742,4.460854,1.7164427,-0.391418,-0.51219195,-1.3934253,-11.530476,-0.6895301
0.2835937,4.463038,1.9209734,-0.47663915,-0.5494762,-1.5753847,-11.540052,-0.5267244
0.28311813,4.465221,1.9209734,-0.47663915,-0.5494762,-1.5753847,-11.540052,-0.5267244
0.2826179,4.467644,2.1361568,-0.5661214,-0.588891,-1.4221559,-11.51611,-0.62728083
0.2821154,4.4700665,2.1361568,-0.5661214,-0.588891,-1.4221559,-11.51611,-0.62728083
0.28158283,4.4727263,2.3577318,-0.6577341,-0.6283058,-1.0726024,-11.300632,-0.7757214
0.28104517,4.475396,2.3577318,-0.6577341,-0.6283058,-1.0726024,-11.300632,-0.7757214
0.28048116,4.478309,2.580372,-0.7525427,-0.66878587,-0.8331822,-11.18571,-0.8331822
0.27991474,4.4812155,2.580372,-0.7525427,-0.66878587,-0.8331822,-11.18571,-0.8331822
0.27932054,4.484384,2.8008819,-0.8452207,-0.7167227,-0.8762778,-11.09473,-0.7374141
0.27872366,4.487545,2.8008819,-0.8452207,-0.7167227,-0.8762778,-11.09473,-0.7374141
0.2781015,4.490951,3.0171306,-0.9400292,-0.76679015,-1.0486604,-11.109096,-0.6607997
0.27747402,4.4943585,3.0171306,-0.9400292,-0.76679015,-1.0486604,-11.109096,-0.6607997
0.2768239,4.498006,3.229118,-1.035903,-0.8136618,-1.1731589,-11.109096,-0.5410896
0.27616918,4.5016475,3.229118,-1.035903,-0.8136618,-1.1731589,-11.109096,-0.5410896
0.2754896,4.5055285,3.4347143,-1.1328421,-0.8584029,-1.3359646,-11.104307,-0.521936
0.2754896,4.5055285,3.4347143,-1.1328421,-0.8584029,-1.3359646,-11.104307,-0.521936
0.27443093,4.5116687,3.6328535,-1.2329769,-0.89994824,-1.3934253,-11.018116,-0.59376204
0.2733068,4.518082,3.6328535,-1.2329769,-0.89994824,-1.3934253,-11.018116,-0.59376204
0.27257454,4.5223274,3.82034,-1.3405687,-0.9372325,-1.4173675,-10.970232,-0.63206923
0.27257454,4.5223274,3.82034,-1.3405687,-0.9372325,-1.4173675,-10.970232,-0.63206923
0.27257454,4.5223274,3.9971738,-1.4545519,-0.96812516,-1.5275006,-10.845734,-0.7278373
0.27073926,4.5331507,3.9971738,-1.4545519,-0.96812516,-1.5275006,-10.845734,-0.7278373
0.2701584,4.5365043,3.9971738,-1.4545519,-0.96812516,-1.5275006,-10.845734,-0.7278373
0.26925862,4.5417957,4.16229,-1.571731,-0.99475676,-1.5179238,-10.7116585,-0.80924016
0.26785964,4.5500236,4.3167534,-1.6878449,-1.0171273,-1.4987702,-10.692505,-0.7517793
0.26703206,4.5548882,4.3167534,-1.6878449,-1.0171273,-1.4987702,-10.692505,-0.7517793
0.26703206,4.5548882,4.4616294,-1.8028934,-1.0331063,-1.4508862,-10.668563,-0.59376204
0.26535407,4.564995,4.4616294,-1.8028934,-1.0331063,-1.4508862,-10.668563,-0.59376204
0.26441386,4.5708084,4.6011786,-1.9126157,-1.0458895,-1.4460979,-10.721235,-0.37828386
0.26364982,4.575456,4.6011786,-1.9126157,-1.0458895,-1.4460979,-10.721235,-0.37828386
0.26364982,4.575456,4.738598,-2.0159464,-1.052281,-1.4460979,-10.860099,-0.16280572
0.26192564,4.5862455,4.738598,-2.0159464,-1.052281,-1.4460979,-10.860099,-0.16280572
0.26192564,4.5862455,4.879213,-2.11182,-1.0554769,-1.4556746,-10.927136,-0.08140286
0.2601688,4.5973597,4.879213,-2.11182,-1.0554769,-1.4556746,-10.927136,-0.08140286
0.2592876,4.603049,5.020893,-2.1991718,-1.0544115,-1.4939818,-10.994174,-0.01436521
0.25838736,4.6087556,5.020893,-2.1991718,-1.0544115,-1.4939818,-10.994174,-0.01436521
0.2574854,4.6146173,5.160443,-2.281197,-1.0469548,-1.4748282,-11.080365,-0.023942016
0.2565677,4.620468,5.160443,-2.281197,-1.0469548,-1.4748282,-11.080365,-0.023942016
0.25565007,4.6264772,5.2967963,-2.3600266,-1.0373673,-1.5801731,-11.118672,-0.062249243
0.25471267,4.632492,5.2967963,-2.3600266,-1.0373673,-1.5801731,-11.118672,-0.062249243
0.25378537,4.638639,5.4256935,-2.4399216,-1.0267147,-1.7238252,-10.994174,-0.019153614
0.25283718,4.644791,5.4256935,-2.4399216,-1.0267147,-1.7238252,-10.994174,-0.019153614
0.25190192,4.651077,5.5481987,-2.5230122,-1.0128663,-1.9153614,-10.788273,-0.01436521
0.250945,4.6573615,5.5481987,-2.5230122,-1.0128663,-1.9153614,-10.788273,-0.01436521
0.25002545,4.6637955,5.6632476,-2.607168,-0.9968873,-2.2170308,-10.429143,0.08140286
0.24908456,4.6702237,5.6632476,-2.607168,-0.9968873,-2.2170308,-10.429143,0.08140286
0.2481339,4.67676,5.769774,-2.6923892,-0.97451675,-1.9440918,-10.146626,0.15322891
0.2471578,4.6833024,5.769774,-2.6923892,-0.97451675,-1.9440918,-10.146626,0.15322891
0.24614325,4.690004,5.8677783,-2.776545,-0.95427674,-1.4077905,-9.816227,0.12449849
0.2451248,4.6965685,5.8677783,-2.776545,-0.95427674,-1.4077905,-9.816227,0.12449849
0.24406311,4.703543,5.95513,-2.8500483,-0.9329714,-1.1444284,-9.485827,0.24899697
0.24301809,4.7102447,5.95513,-2.8500483,-0.9329714,-1.1444284,-9.485827,0.24899697
0.24200422,4.71681,6.0307636,-2.9107685,-0.91379666,-0.8523358,-9.069236,0.30166942
0.24094573,4.7235146,6.0307636,-2.9107685,-0.91379666,-0.8523358,-9.069236,0.30166942
0.23987597,4.730357,6.0914836,-2.9597707,-0.89994824,-0.7038953,-8.748413,0.47405192
0.23878224,4.7371964,6.0914836,-2.9597707,-0.89994824,-0.7038953,-8.748413,0.47405192
0.23767212,4.7440753,6.13729,-2.9949243,-0.89142615,-0.5363012,-8.394072,0.4309563
0.2365432,4.7509236,6.13729,-2.9949243,-0.89142615,-0.5363012,-8.394072,0.4309563
0.23539329,4.7578516,6.168183,-3.0183601,-0.88716507,-0.2873042,-8.0445175,0.5793968
0.23422584,4.7647424,6.168183,-3.0183601,-0.88716507,-0.2873042,-8.0445175,0.5793968
0.23304325,4.771659,6.180966,-3.0311434,-0.88396925,-0.16759412,-7.714118,0.7374141
0.23184185,4.778546,6.180966,-3.0311434,-0.88396925,-0.16759412,-7.714118,0.7374141
0.23061787,4.7854795,6.17777,-3.0300782,-0.88183874,-0.023942016,-7.3549876,0.8810662
0.2293814,4.7923484,6.17777,-3.0300782,-0.88183874,-0.023942016,-7.3549876,0.8810662
0.22812767,4.7992597,6.1554,-3.0183601,-0.88183874,0.090979666,-7.0581064,1.1971009
0.22686172,4.8061075,6.1554,-3.0183601,-0.88183874,0.090979666,-7.0581064,1.1971009
0.22557037,4.8129644,6.1138544,-2.9949243,-0.88716507,0.33997664,-6.6989765,1.436521
0.22426394,4.8197803,6.1138544,-2.9949243,-0.88716507,0.33997664,-6.6989765,1.436521
0.22293153,4.826526,6.051004,-2.9555097,-0.8946219,1.0821792,-5.995081,1.5275006
0.22158544,4.8332314,6.051004,-2.9555097,-0.8946219,1.0821792,-5.995081,1.5275006
0.2202142,4.839891,5.967913,-2.9022462,-0.9106009,1.7717092,-5.9807158,2.1978772
0.21883038,4.846511,5.967913,-2.9022462,-0.9106009,1.7717092,-5.9807158,2.1978772
0.2174154,4.853038,5.8635173,-2.820221,-0.9340367,2.0685902,-5.5880666,2.4756045
0.21598502,4.8595448,5.8635173,-2.820221,-0.9340367,2.0685902,-5.5880666,2.4756045
0.21452722,4.865864,5.7271633,-2.7051723,-0.9638641,3.1603463,-4.9081135,2.566584
0.21305573,4.872164,5.7271633,-2.7051723,-0.9638641,3.1603463,-4.9081135,2.566584
0.21154591,4.878275,5.5439377,-2.562427,-1.0032789,4.0557775,-3.8738184,2.4947581
0.21003175,4.884338,5.5439377,-2.562427,-1.0032789,4.0557775,-3.8738184,2.4947581
0.2084775,4.8901625,5.3074493,-2.3855932,-1.052281,4.510676,-2.633622,2.2122424
0.20692267,4.8959355,5.3074493,-2.3855932,-1.052281,4.510676,-2.633622,2.2122424
0.2053374,4.9014072,5.0102406,-2.179997,-1.104479,4.525041,-1.5227122,2.111686
0.20374918,4.906847,5.0102406,-2.179997,-1.104479,4.525041,-1.5227122,2.111686
0.20215614,4.911889,4.654442,-1.9541609,-1.1502854,4.1611223,-0.36870706,1.8626889
0.20056227,4.9169016,4.654442,-1.9541609,-1.1502854,4.1611223,-0.36870706,1.8626889
0.19895574,4.9214883,4.2411194,-1.7198027,-1.192896,5.631162,-0.4213795,2.6910827
0.19735512,4.926035,4.2411194,-1.7198027,-1.192896,5.631162,-0.4213795,2.6910827
0.19577482,4.9301147,3.7851863,-1.4502909,-1.2152665,4.050989,-1.1444284,2.9352913
0.19420223,4.9341583,3.7851863,-1.4502909,-1.2152665,4.050989,-1.1444284,2.9352913
0.19266541,4.9377127,3.3154047,-1.1839747,-1.2259191,3.5769374,-1.1348516,3.0119057
0.19113751,4.9412365,3.3154047,-1.1839747,-1.2259191,3.5769374,-1.1348516,3.0119057
0.1896516,4.944259,2.8424273,-0.9421597,-1.2269844,4.3047748,-0.63206923,3.1986535
0.18816645,4.947274,2.8424273,-0.9421597,-1.2269844,4.3047748,-0.63206923,3.1986535
0.1867591,4.949753,2.354536,-0.7003447,-1.213136,3.8881836,0.25857377,2.944868
0.18535481,4.9522233,2.354536,-0.7003447,-1.213136,3.8881836,0.25857377,2.944868
0.18403925,4.95415,1.8421439,-0.44787702,-1.1758517,3.98874,0.2777274,3.1651347
0.18273237,4.9560633,1.8421439,-0.44787702,-1.1758517,3.98874,0.2777274,3.1651347
0.18151903,4.9574103,1.3063159,-0.20925778,-1.1279148,4.7309427,0.25378537,3.6391866
0.18031298,4.9587493,1.3063159,-0.20925778,-1.1279148,4.7309427,0.25378537,3.6391866
0.1792235,4.959506,0.7577047,0.03681831,-1.0629337,5.0517654,0.4261679,3.9360676
0.17813958,4.9602594,0.7577047,0.03681831,-1.0629337,5.0517654,0.4261679,3.9360676
0.17719145,4.9604135,0.19737557,0.29567757,-0.98623466,4.912902,0.4309563,4.050989
0.17624892,4.9605675,0.19737557,0.29567757,-0.98623466,4.912902,0.4309563,4.050989
0.1754564,4.960113,-0.37041038,0.5556021,-0.8967524,4.8027687,0.7326257,3.98874
0.17466353,4.95966,-0.37041038,0.5556021,-0.8967524,4.8027687,0.7326257,3.98874
0.17402798,4.958593,-0.94884896,0.80806977,-0.80087864,4.855441,0.90021986,4.0701427
0.17338751,4.9575205,-0.94884896,0.80806977,-0.80087864,4.855441,0.90021986,4.0701427
0.17290735,4.9558253,-1.5379403,1.0562764,-0.6986132,4.8985367,0.8858546,4.1946416
0.17242435,4.9541273,-1.5379403,1.0562764,-0.6986132,4.8985367,0.8858546,4.1946416
0.17210573,4.95181,-2.1366189,1.304483,-0.588891,5.0613422,0.62728083,4.367024
0.17178202,4.949478,-2.1366189,1.304483,-0.588891,5.0613422,0.62728083,4.367024
0.17163222,4.946521,-2.741689,1.5569507,-0.46745086,4.9703627,0.23463176,4.5777135
0.17147636,4.9435368,-2.741689,1.5569507,-0.46745086,4.9703627,0.23463176,4.5777135
0.17150125,4.9399343,-3.3435636,1.8094183,-0.33535808,4.5777135,-0.37349546,4.606444
0.17151979,4.936328,-3.3435636,1.8094183,-0.33535808,4.5777135,-0.37349546,4.606444
0.17171966,4.932108,-3.9369159,2.0522985,-0.19474317,4.1659107,-0.94810385,4.486734
0.17191242,4.9278607,-3.9369159,2.0522985,-0.19474317,4.1659107,-0.94810385,4.486734
0.17228924,4.923032,-4.517485,2.2781348,-0.04454088,3.3327289,-1.7190368,4.3047748
0.17265815,4.9181676,-4.517485,2.2781348,-0.04454088,3.3327289,-1.7190368,4.3047748
0.1732099,4.9127617,-5.076749,2.4794698,0.11524879,2.3415294,-2.6384103,3.9552212
0.17375343,4.9073095,-5.076749,2.4794698,0.11524879,2.3415294,-2.6384103,3.9552212
0.17447095,4.9013357,-5.6072507,2.6403246,0.27929953,1.5658079,-3.6870706,3.5865142
0.17517526,4.8953476,-5.6072507,2.6403246,0.27929953,1.5658079,-3.6870706,3.5865142
0.17605272,4.8888865,-6.098337,2.76283,0.45293763,0.81402856,-4.855441,3.265691
0.17692085,4.8823705,-6.098337,2.76283,0.45293763,0.81402856,-4.855441,3.265691
0.17795587,4.8754506,-6.5436177,2.8533776,0.6361631,0.320823,-6.172252,3.0310593
0.17898034,4.868478,-6.5436177,2.8533776,0.6361631,0.320823,-6.172252,3.0310593
0.18016607,4.861139,-6.9409614,2.9183586,0.82364964,-0.0047884034,-7.383718,2.7868507
0.18133996,4.853751,-6.9409614,2.9183586,0.82364964,-0.0047884034,-7.383718,2.7868507
0.18267211,4.8460245,-7.2871723,2.9630997,1.0175278,-0.24420857,-8.528147,2.4468741
0.18398519,4.838294,-7.2871723,2.9630997,1.0175278,-0.24420857,-8.528147,2.4468741
0.18545566,4.8302803,-7.579055,2.992927,1.2146018,-0.5793968,-9.5385,2.0829554
0.18691602,4.8222146,-7.579055,2.992927,1.2146018,-0.5793968,-9.5385,2.0829554
0.18851279,4.8139243,-7.8198047,3.0110366,1.412741,-0.59855044,-10.405201,1.6519991
0.19009988,4.805582,-7.8198047,3.0110366,1.412741,-0.59855044,-10.405201,1.6519991
0.19182822,4.797062,-8.012618,3.0142324,1.6076843,-0.82360536,-11.09473,1.2258313
0.19354616,4.7884917,-8.012618,3.0142324,1.6076843,-0.82360536,-11.09473,1.2258313
0.19541213,4.779772,-8.159624,3.0099714,1.7983667,-1.2497733,-11.57836,0.7326257
0.19726396,4.7709956,-8.159624,3.0099714,1.7983667,-1.2497733,-11.57836,0.7326257
0.1992926,4.762102,-8.260824,2.996123,1.984788,-1.5179238,-11.851298,0.24420857
0.2012873,4.7532015,-8.260824,2.996123,1.984788,-1.5179238,-11.851298,0.24420857
0.20345768,4.744234,-8.32474,2.9737525,2.166948,-1.5466543,-11.942278,-0.18674773
0.20560503,4.73521,-8.32474,2.9737525,2.166948,-1.5466543,-11.942278,-0.18674773
0.20792726,4.726183,-8.352437,2.9492514,2.3405862,-1.7381904,-11.865664,-0.7326257
0.21023129,4.717084,-8.352437,2.9492514,2.3405862,-1.7381904,-11.865664,-0.7326257
0.212677,4.708047,-8.349241,2.920489,2.504637,-1.8674773,-11.784261,-1.1683705
0.21510452,4.698945,-8.349241,2.920489,2.504637,-1.8674773,-11.784261,-1.1683705
0.21767613,4.689876,-8.32261,2.8885312,2.6601655,-2.0159178,-11.765107,-1.6663644
0.22021903,4.680786,-8.32261,2.8885312,2.6601655,-2.0159178,-11.765107,-1.6663644
0.22287421,4.6717668,-8.278934,2.855508,2.8039763,-2.0254946,-11.769896,-2.0685902
0.22551422,4.6626806,-8.278934,2.855508,2.8039763,-2.0254946,-11.769896,-2.0685902
0.22827974,4.653607,-8.22141,2.8214197,2.9371343,-2.1164744,-11.81778,-2.408567
0.22827974,4.653607,-8.22141,2.8214197,2.9371343,-2.1164744,-11.81778,-2.408567
0.23382366,4.635519,-8.150037,2.787331,3.0585744,-2.2266076,-11.980585,-2.7820623
0.23656863,4.626676,-8.150037,2.787331,3.0585744,-2.2266076,-11.980585,-2.7820623
0.23943989,4.6177936,-8.062685,2.7511122,3.1651008,-2.4133554,-12.152967,-3.1172507
0.24228084,4.608896,-8.062685,2.7511122,3.1651008,-2.4133554,-12.152967,-3.1172507
0.24521028,4.600062,-7.96255,2.7095668,3.2588441,-2.6910827,-12.435484,-3.4284968
0.24810378,4.5912304,-7.96255,2.7095668,3.2588441,-2.6910827,-12.435484,-3.4284968
0.25106975,4.582492,-7.8453712,2.657369,3.3408697,-2.96881,-12.923901,-3.6966474
0.25399968,4.5737557,-7.8453712,2.657369,3.3408697,-2.96881,-12.923901,-3.6966474
0.25699225,4.5651355,-7.707952,2.5945182,3.4090464,-3.241749,-13.283031,-4.027047
0.25995237,4.5565076,-7.707952,2.5945182,3.4090464,-3.241749,-13.283031,-4.027047
0.2629593,4.5480337,-7.547097,2.5146234,3.4623096,-3.4811692,-13.632585,-4.3287168
0.26594016,4.5395346,-7.547097,2.5146234,3.4623096,-3.4811692,-13.632585,-4.3287168
0.268943,4.531263,-7.360676,2.4198148,3.503855,-3.6535518,-13.910312,-4.5681367
0.268943,4.531263,-7.360676,2.4198148,3.503855,-3.6535518,-13.910312,-4.5681367
0.268943,4.531263,-7.1497536,2.3079622,3.532617,-3.6631286,-14.140155,-4.7644615
0.27798274,4.5069313,-7.1497536,2.3079622,3.532617,-3.6631286,-14.140155,-4.7644615
0.28101525,4.49897,-6.906873,2.1843915,3.5485961,-3.6583402,-14.312538,-4.9176903
0.2839518,4.4911737,-6.906873,2.1843915,3.5485961,-3.6583402,-14.312538,-4.9176903
0.2839518,4.4911737,-6.906873,2.1843915,3.5485961,-3.6583402,-14.312538,-4.9176903
0.2839518,4.4911737,-6.6331,2.053364,3.5539224,-3.6870706,-14.5567465,-4.936844
0.29293457,4.4682646,-6.3284345,1.9202058,3.5432699,-3.6152446,-14.930242,-4.984728
0.29293457,4.4682646,-6.3284345,1.9202058,3.5432699,-3.6152446,-14.930242,-4.984728
0.2961576,4.4601774,-5.991811,1.7817215,3.5251603,-4.003105,-14.944607,-4.984728
0.2988701,4.4537306,-5.991811,1.7817215,3.5251603,-4.003105,-14.944607,-4.984728
0.30424428,4.4415736,-5.6274905,1.6389761,3.495333,-3.6727054,-14.590265,-5.185841
0.30707633,4.435078,-5.6274905,1.6389761,3.495333,-3.6727054,-14.590265,-5.185841
0.309912,4.4289556,-5.243995,1.501557,3.4580486,-3.7732618,-14.796166,-5.3199162
0.3127147,4.4228487,-5.243995,1.501557,3.4580486,-3.7732618,-14.796166,-5.3199162
0.31548172,4.4172115,-4.8413253,1.3620073,3.4122422,-4.050989,-15.107412,-5.329493
0.3182392,4.4115458,-4.8413253,1.3620073,3.4122422,-4.050989,-15.107412,-5.329493
0.3209411,4.406378,-4.419481,1.216066,3.350457,-3.3279405,-15.524004,-5.2241483
0.3236299,4.4012046,-4.419481,1.216066,3.350457,-3.3279405,-15.524004,-5.2241483
0.326292,4.396496,-3.9763305,1.0786469,3.2790842,-3.7684734,-15.1696615,-5.535394
0.3289407,4.391782,-3.9763305,1.0786469,3.2790842,-3.7684734,-15.1696615,-5.535394
0.33155593,4.387554,-3.518267,0.95188046,3.2034504,-3.9456444,-14.997279,-5.592855
0.33415902,4.3833227,-3.518267,0.95188046,3.2034504,-3.9456444,-14.997279,-5.592855
0.33672297,4.3795924,-3.055942,0.8197877,3.12036,-4.4580035,-15.112201,-5.6120086
0.33927527,4.3758607,-3.055942,0.8197877,3.12036,-4.4580035,-15.112201,-5.6120086
0.3418234,4.372609,-2.5872257,0.6781075,3.0308776,-5.2528787,-15.088259,-5.6646814
0.34435365,4.369359,-2.5872257,0.6781075,3.0308776,-5.2528787,-15.088259,-5.6646814
0.34685078,4.3666363,-2.1153135,0.51192623,2.9328732,-5.616797,-15.20797,-5.5880666
0.34931764,4.3639317,-2.1153135,0.51192623,2.9328732,-5.616797,-15.20797,-5.5880666
0.35173616,4.3618784,-1.6423361,0.31698287,2.8210206,-5.5880666,-15.528792,-5.4779334
0.3541523,4.359826,-1.6423361,0.31698287,2.8210206,-5.5880666,-15.528792,-5.4779334
0.35656366,4.3583627,-1.1693587,0.11138682,2.6985152,-5.4300494,-15.959748,-5.085284
0.35897216,4.356894,-1.1693587,0.11138682,2.6985152,-5.4300494,-15.959748,-5.085284
0.36134267,4.355974,-0.6974466,-0.08994816,2.5600307,-5.1810527,-16.203957,-4.8267107
0.36367118,4.355067,-0.6974466,-0.08994816,2.5600307,-5.1810527,-16.203957,-4.8267107
0.36593306,4.354703,-0.22873022,-0.2774347,2.4055674,-4.9416323,-16.232687,-4.6830587
0.36819777,4.3543367,-0.22873022,-0.2774347,2.4055674,-4.9416323,-16.232687,-4.6830587
0.37034622,4.3545065,0.23359455,-0.44574648,2.2372556,-4.7979803,-15.840038,-4.7979803
0.37249562,4.3546743,0.23359455,-0.44574648,2.2372556,-4.7979803,-15.840038,-4.7979803
0.37450978,4.355358,0.6820709,-0.5991446,2.0518997,-4.7500963,-15.20797,-4.9464207
0.37652254,4.35604,0.6820709,-0.5991446,2.0518997,-4.7500963,-15.20797,-4.9464207
0.37837404,4.3571925,1.1103072,-0.74082476,1.8505646,-4.5872903,-14.360422,-5.109226
0.3802286,4.358346,1.1103072,-0.74082476,1.8505646,-4.5872903,-14.360422,-5.109226
0.38192904,4.3599296,1.5097814,-0.8739828,1.6321853,-4.429273,-13.594277,-5.2959743
0.38362968,4.361513,1.5097814,-0.8739828,1.6321853,-4.429273,-13.594277,-5.2959743
0.38516852,4.363517,1.8751671,-0.99968404,1.3967619,-4.2664676,-12.938266,-5.3678
0.38670743,4.365521,1.8751671,-0.99968404,1.3967619,-4.2664676,-12.938266,-5.3678
0.388058,4.3679295,2.2085948,-1.1157979,1.1453595,-4.1276035,-12.382812,-5.2959743
0.38940808,4.370339,2.2085948,-1.1157979,1.1453595,-4.1276035,-12.382812,-5.2959743
0.39054066,4.37313,2.5100646,-1.2201937,0.88010865,-3.9073372,-11.908759,-5.0996494
0.39167327,4.375925,2.5100646,-1.2201937,0.88010865,-3.9073372,-11.908759,-5.0996494
0.39256927,4.379065,2.7838376,-1.3150023,0.60313994,-3.5529952,-11.45865,-4.9943047
0.39346522,4.3822126,2.7838376,-1.3150023,0.60313994,-3.5529952,-11.45865,-4.9943047
0.3941076,4.385688,3.0331097,-1.3991581,0.31977957,-3.3135753,-11.200075,-4.7500963
0.3947475,4.389163,3.0331097,-1.3991581,0.31977957,-3.3135753,-11.200075,-4.7500963
0.39512306,4.3929424,3.2621415,-1.4726614,0.027897105,-3.0693667,-10.979809,-4.5633483
0.39549485,4.3967175,3.2621415,-1.4726614,0.027897105,-3.0693667,-10.979809,-4.5633483
0.39559582,4.400788,3.4751942,-1.5387079,-0.27250746,-2.930503,-10.821792,-4.4915223
0.39569193,4.404836,3.4751942,-1.5387079,-0.27250746,-2.930503,-10.821792,-4.4915223
0.3955171,4.409151,3.6743987,-1.5983627,-0.57291204,-3.2034419,-10.606314,-4.237737
0.3953375,4.4134626,3.6743987,-1.5983627,-0.57291204,-3.2034419,-10.606314,-4.237737
0.39489836,4.418009,3.8597548,-1.6569521,-0.86692506,-3.5482068,-10.500969,-4.0940847
0.39445457,4.4225464,3.8597548,-1.6569521,-0.86692506,-3.5482068,-10.500969,-4.0940847
0.3937518,4.4273252,4.0355234,-1.7187375,-1.1438938,-3.490746,-10.323798,-3.9360676
0.3930446,4.4320893,4.0355234,-1.7187375,-1.1438938,-3.490746,-10.323798,-3.9360676
0.39208955,4.437075,4.199574,-1.7773271,-1.4016877,-3.2704794,-10.228029,-3.8881836
0.39112464,4.442069,4.199574,-1.7773271,-1.4016877,-3.2704794,-10.228029,-3.8881836
0.38993517,4.44724,4.352972,-1.8316555,-1.6413723,-3.1507695,-10.204087,-3.8833952
0.38873893,4.4523983,4.352972,-1.8316555,-1.6413723,-3.1507695,-10.204087,-3.8833952
0.38732603,4.4577475,4.493587,-1.8859841,-1.8618821,-3.016694,-10.13705,-3.8067808
0.38590425,4.463088,4.493587,-1.8859841,-1.8618821,-3.016694,-10.13705,-3.8067808
0.38427535,4.4685984,4.6192884,-1.9435083,-2.066413,-2.9592333,-10.093954,-3.5098996
0.38263717,4.4740977,4.6192884,-1.9435083,-2.066413,-2.9592333,-10.093954,-3.5098996
0.3808126,4.4797435,4.730076,-1.9999673,-2.252834,-2.9496565,-10.007763,-3.2848446
0.37897858,4.485376,4.730076,-1.9999673,-2.252834,-2.9496565,-10.007763,-3.2848446
0.37696904,4.4911485,4.8302107,-2.0521653,-2.4147544,-2.9161377,-9.902418,-2.9017725
0.3749497,4.496906,4.8302107,-2.0521653,-2.4147544,-2.9161377,-9.902418,-2.9017725
0.3727786,4.5027876,4.9207582,-2.1022327,-2.5532386,-2.8778305,-9.758766,-2.5953147
0.37059763,4.5086517,4.9207582,-2.1022327,-2.5532386,-2.8778305,-9.758766,-2.5953147
0.3682818,4.5146403,5.0027833,-2.1491044,-2.6661568,-2.801216,-9.65821,-2.2457612
0.36595464,4.5206084,5.0027833,-2.1491044,-2.6661568,-2.801216,-9.65821,-2.2457612
0.36352083,4.5266895,5.0784173,-2.1949108,-2.756704,-2.657564,-9.615114,-1.9919758
0.3610732,4.5327497,5.0784173,-2.1949108,-2.756704,-2.657564,-9.615114,-1.9919758
0.3585485,4.5388927,5.1476593,-2.2364562,-2.8238158,-2.566584,-9.495404,-1.8579005
0.3560099,4.545014,5.1476593,-2.2364562,-2.8238158,-2.566584,-9.495404,-1.8579005
0.35341328,4.551201,5.2073145,-2.272675,-2.8706875,-2.4708161,-9.385271,-1.757344
0.35076895,4.557446,5.2073145,-2.272675,-2.8706875,-2.4708161,-9.385271,-1.757344
0.34811231,4.563675,5.258447,-2.3056982,-2.8994496,-2.2505496,-9.26556,-1.6998832
0.34535116,4.570093,5.258447,-2.3056982,-2.8994496,-2.2505496,-9.26556,-1.6998832
0.34277987,4.5760627,5.2978616,-2.3344603,-2.9069064,-2.006341,-9.198523,-1.4939818
0.34008086,4.5822744,5.2978616,-2.3344603,-2.9069064,-2.006341,-9.198523,-1.4939818
0.33737335,4.5885262,5.3298197,-2.3568308,-2.8962538,-1.8195933,-9.131485,-1.3599066
0.33464223,4.594777,5.3298197,-2.3568308,-2.8962538,-1.8195933,-9.131485,-1.3599066
0.33192226,4.6010437,5.3521905,-2.37281,-2.872818,-1.5179238,-9.002198,-1.1587936
0.3291833,4.607297,5.3521905,-2.37281,-2.872818,-1.5179238,-9.002198,-1.1587936
0.3264672,4.6135554,5.3639083,-2.3802667,-2.833403,-1.3072342,-8.75799,-1.0199299
0.32373497,4.619795,5.3639083,-2.3802667,-2.833403,-1.3072342,-8.75799,-1.0199299
0.32103384,4.6260276,5.362843,-2.3834624,-2.7854664,-1.1013328,-8.403648,-0.8523358
0.31831667,4.6322417,5.362843,-2.3834624,-2.7854664,-1.1013328,-8.403648,-0.8523358
0.31564176,4.638436,5.3457985,-2.3802667,-2.7268767,-0.8762778,-8.034941,-0.63206923
0.31295046,4.6446133,5.3457985,-2.3802667,-2.7268767,-0.8762778,-8.034941,-0.63206923
0.3103158,4.650757,5.310645,-2.3664184,-2.6576345,-0.61770403,-7.656657,-0.30645782
0.30766442,4.6568847,5.310645,-2.3664184,-2.6576345,-0.61770403,-7.656657,-0.30645782
0.30509186,4.662941,5.2563167,-2.3419173,-2.574544,-0.31124622,-7.2927384,0.009576807
0.3024925,4.6690073,5.2563167,-2.3419173,-2.574544,-0.31124622,-7.2927384,0.009576807
0.29998264,4.6749716,5.1796174,-2.3014371,-2.4829311,0.095768064,-6.9048777,0.35913026
0.29745466,4.680929,5.1796174,-2.3014371,-2.4829311,0.095768064,-6.9048777,0.35913026
0.29501536,4.686757,5.080548,-2.2471087,-2.3870573,0.7182605,-6.397307,0.6512229
0.292564,4.692568,5.080548,-2.2471087,-2.3870573,0.7182605,-6.397307,0.6512229
0.29019672,4.698221,4.955912,-2.1736054,-2.2858572,1.388637,-5.837064,0.7134721
0.2878925,4.703684,4.955912,-2.1736054,-2.2858572,1.388637,-5.837064,0.7134721
0.28560615,4.7091346,4.800383,-2.0777316,-2.184657,2.0398598,-5.2002063,0.92416185
0.2832292,4.714761,4.800383,-2.0777316,-2.184657,2.0398598,-5.2002063,0.92416185
0.28102544,4.7199674,4.6107664,-1.9605526,-2.0823917,2.5953147,-4.6399627,1.0151415
0.27882186,4.72514,4.6107664,-1.9605526,-2.0823917,2.5953147,-4.6399627,1.0151415
0.27670485,4.73007,4.3870606,-1.8220682,-1.9833221,2.9783869,-4.1180267,1.2258313
0.27456775,4.735018,4.3870606,-1.8220682,-1.9833221,2.9783869,-4.1180267,1.2258313
0.27253786,4.739639,4.130332,-1.6676048,-1.8885137,3.1124623,-3.7205894,1.4652514
0.27050608,4.74424,4.130332,-1.6676048,-1.8885137,3.1124623,-3.7205894,1.4652514
0.26856607,4.7485347,3.8459063,-1.5003583,-1.7947704,3.0885203,-3.3758245,1.8674773
0.26662338,4.7528152,3.8459063,-1.5003583,-1.7947704,3.0885203,-3.3758245,1.8674773
0.2647846,4.7567325,3.5391102,-1.325655,-1.7020924,3.3423057,-3.1411927,2.1930888
0.2629202,4.7606883,3.5391102,-1.325655,-1.7020924,3.3423057,-3.1411927,2.1930888
0.26118195,4.7642365,3.2142045,-1.1456252,-1.6030228,3.2944214,-2.8682537,2.4612393
0.25945023,4.76776,3.2142045,-1.1456252,-1.6030228,3.2944214,-2.8682537,2.4612393
0.25782356,4.77091,2.8711894,-0.96133447,-1.4986268,3.3901896,-2.920926,2.719813
0.2561923,4.77406,2.8711894,-0.96133447,-1.4986268,3.3901896,-2.920926,2.719813
0.2546769,4.776803,2.5164564,-0.778109,-1.394231,3.6391866,-2.882619,2.9017725
0.25315633,4.77955,2.5164564,-0.778109,-1.394231,3.6391866,-2.882619,2.9017725
0.2517596,4.781886,2.153201,-0.592753,-1.2866392,3.6487634,-2.8778305,3.2225955
0.25036296,4.784218,2.153201,-0.592753,-1.2866392,3.6487634,-2.8778305,3.2225955
0.24909118,4.786139,1.7846196,-0.40420118,-1.1747864,3.466804,-2.9879637,3.371036
0.24781877,4.7880583,1.7846196,-0.40420118,-1.1747864,3.466804,-2.9879637,3.371036
0.24667859,4.789564,1.411777,-0.21991043,-1.0597379,3.1411927,-3.0310593,3.5242648
0.2455381,4.791069,1.411777,-0.21991043,-1.0597379,3.1411927,-3.0310593,3.5242648
0.24453598,4.7921596,1.036804,-0.047337584,-0.939363,2.825158,-3.098097,3.6535518
0.24353172,4.7932525,1.036804,-0.047337584,-0.939363,2.825158,-3.098097,3.6535518
0.24266264,4.7939367,0.66502666,0.10819103,-0.8179229,2.992752,-2.9879637,3.8355112
0.24179623,4.794619,0.66502666,0.10819103,-0.8179229,2.992752,-2.9879637,3.8355112
0.24107307,4.7949014,0.29324937,0.25519753,-0.6890259,2.5187001,-3.040636,3.8977604
0.24034986,4.795184,0.29324937,0.25519753,-0.6890259,2.5187001,-3.040636,3.8977604
0.23977214,4.795072,-0.07320161,0.38942084,-0.5569331,2.3511062,-3.3183637,3.9600096
0.23919277,4.79496,-0.07320161,0.38942084,-0.5569331,2.3511062,-3.3183637,3.9600096
0.23874849,4.794465,-0.42899993,0.5044694,-0.4280361,2.7006595,-3.466804,4.0797195
0.2383032,4.793969,-0.42899993,0.5044694,-0.4280361,2.7006595,-3.466804,4.0797195
0.23799486,4.793108,-0.7720151,0.6152569,-0.30020434,2.695871,-3.4763808,4.084508
0.23768607,4.792247,-0.7720151,0.6152569,-0.30020434,2.695871,-3.4763808,4.084508
0.23751752,4.79103,-1.1043776,0.7292402,-0.16917682,2.4612393,-3.5338416,4.012682
0.23734824,4.789813,-1.1043776,0.7292402,-0.16917682,2.4612393,-3.5338416,4.012682
0.23732105,4.788252,-1.4250222,0.84215826,-0.036018763,2.1739352,-3.7110126,3.9743748
0.23732105,4.788252,-1.4250222,0.84215826,-0.036018763,2.1739352,-3.7110126,3.9743748
0.23754238,4.784484,-1.7350142,0.94761944,0.09820456,2.087744,-4.0414124,3.940856
0.23765527,4.7825155,-1.7350142,0.94761944,0.09820456,2.087744,-4.0414124,3.940856
0.23789358,4.7803736,-2.0332882,1.0456238,0.23136261,1.8435353,-4.4484267,3.8498764
0.2381525,4.7780247,-2.0332882,1.0456238,0.23136261,1.8435353,-4.4484267,3.8498764
0.23851007,4.7756557,-2.3177137,1.1361712,0.3666512,1.6280571,-4.903325,3.6391866
0.23890267,4.773037,-2.3177137,1.1361712,0.3666512,1.6280571,-4.903325,3.6391866
0.23890267,4.773037,-2.3177137,1.1361712,0.49980927,1.4652514,-5.401319,3.514688
0.2399068,4.7674913,-2.5893562,1.2192619,0.49980927,1.4652514,-5.401319,3.514688
0.2399068,4.7674913,-2.5893562,1.2192619,0.49980927,1.4652514,-5.401319,3.514688
0.2407007,4.763645,-2.846085,1.2948956,0.6329673,1.3934253,-5.8562174,3.3758245
0.24129826,4.7607317,-2.846085,1.2948956,0.6329673,1.3934253,-5.8562174,3.3758245
0.24264295,4.7547803,-3.0857694,1.3630725,0.75866854,1.2641385,-6.3111157,3.347094
0.24361525,4.750778,-3.3105402,1.4237926,0.8790434,1.0103531,-6.775591,3.1890767
0.24438183,4.7476044,-3.3105402,1.4237926,0.8790434,1.0103531,-6.775591,3.1890767
0.24438183,4.7476044,-3.3105402,1.4237926,0.8790434,1.0103531,-6.775591,3.1890767
0.24633531,4.7400036,-3.5161364,1.4791864,0.99728775,0.7326257,-7.177817,3.0119057
0.24741411,4.7359943,-3.7036228,1.5260581,1.1091405,0.5650316,-7.560889,2.72939
0.2484896,4.7319736,-3.7036228,1.5260581,1.1091405,0.5650316,-7.560889,2.72939
0.2484896,4.7319736,-3.7036228,1.5260581,1.1091405,0.5650316,-7.560889,2.72939
0.2508322,4.7235436,-3.8719347,1.5686686,1.2135365,0.45010993,-7.762002,2.504335
0.25209296,4.7191496,-4.0242677,1.6048876,1.3136714,0.18195933,-8.034941,2.1212628
0.2533165,4.7148614,-4.0242677,1.6048876,1.3136714,0.18195933,-8.034941,2.1212628
0.2546323,4.7103686,-4.1616864,1.6357802,1.4063493,0.20590134,-8.298303,1.8770541
0.25594693,4.7058544,-4.1616864,1.6357802,1.4063493,0.20590134,-8.298303,1.8770541
0.25734586,4.7011504,-4.283127,1.6602813,1.493701,0.2633622,-8.432379,1.5466543
0.25872543,4.696485,-4.283127,1.6602813,1.493701,0.2633622,-8.432379,1.5466543
0.2601495,4.6917553,-4.388588,1.6869129,1.5714653,-0.04309563,-8.628703,1.1444284
0.2615823,4.6869693,-4.388588,1.6869129,1.5714653,-0.04309563,-8.628703,1.1444284
0.26306468,4.682082,-4.481266,1.7124794,1.6417727,-0.20590134,-8.743625,0.81402856
0.26454577,4.6771717,-4.481266,1.7124794,1.6417727,-0.20590134,-8.743625,0.81402856
0.2660684,4.672171,-4.5600953,1.731654,1.7067538,-0.29688102,-8.90643,0.47405192
0.26758194,4.667172,-4.5600953,1.731654,1.7067538,-0.29688102,-8.90643,0.47405192
0.2691359,4.662085,-4.6208158,1.747633,1.7653434,-0.521936,-9.021352,0.12449849
0.27068198,4.656995,-4.6208158,1.747633,1.7653434,-0.521936,-9.021352,0.12449849
0.27227864,4.6517725,-4.666622,1.7582856,1.8196719,-0.6464345,-9.112331,-0.2633622
0.2738369,4.6466455,-4.666622,1.7582856,1.8196719,-0.6464345,-9.112331,-0.2633622
0.2738369,4.6466455,-4.666622,1.7582856,1.8196719,-0.6464345,-9.112331,-0.2633622
0.2770286,4.6362176,-4.6964493,1.7646773,1.868674,-0.7326257,-9.227253,-0.5793968
0.2786817,4.6308665,-4.711363,1.7700036,1.9134152,-0.8331822,-9.375694,-0.89064306
0.2802806,4.625656,-4.711363,1.7700036,1.9134152,-0.8331822,-9.375694,-0.89064306
0.28193012,4.6203547,-4.7134933,1.7721341,1.9517647,-1.0342951,-9.533711,-1.163582
0.28354517,4.615125,-4.7134933,1.7721341,1.9517647,-1.0342951,-9.533711,-1.163582
0.2852135,4.6097984,-4.702841,1.7710688,1.981592,-1.1444284,-9.730036,-1.5227122
0.286889,4.6044044,-4.702841,1.7710688,1.981592,-1.1444284,-9.730036,-1.5227122
0.2885705,4.599083,-4.67834,1.763612,2.0071585,-1.316811,-9.888053,-1.8339585
0.29023033,4.5937843,-4.67834,1.763612,2.0071585,-1.316811,-9.888053,-1.8339585
0.2919207,4.5884833,-4.6453166,1.7529594,2.0305943,-1.4939818,-10.089166,-2.0733786
0.29361087,4.5831356,-4.6453166,1.7529594,2.0305943,-1.4939818,-10.089166,-2.0733786
0.2953117,4.5778556,-4.6048365,1.739111,2.049769,-1.7286136,-10.295067,-2.3511062
0.29699692,4.5725775,-4.6048365,1.739111,2.049769,-1.7286136,-10.295067,-2.3511062
0.29871148,4.5673165,-4.5568995,1.7188709,2.0689437,-1.9871874,-10.481815,-2.5234885
0.30040836,4.5620623,-4.5568995,1.7188709,2.0689437,-1.9871874,-10.481815,-2.5234885
0.3021208,4.556863,-4.502571,1.6922393,2.0849228,-2.1739352,-10.682928,-2.6862943
0.30383274,4.5516176,-4.502571,1.6922393,2.0849228,-2.1739352,-10.682928,-2.6862943
0.30554888,4.546467,-4.4429164,1.659216,2.0977058,-2.4277205,-10.927136,-2.8107927
0.30725744,4.541291,-4.4429164,1.659216,2.0977058,-2.4277205,-10.927136,-2.8107927
0.3089541,4.5362463,-4.3790007,1.6198013,2.1104891,-2.5617957,-11.161768,-2.8634653
0.31064993,4.5311575,-4.3790007,1.6198013,2.1104891,-2.5617957,-11.161768,-2.8634653
0.31236255,4.5261507,-4.3065624,1.578256,2.122207,-2.801216,-11.295844,-2.9783869
0.3140655,4.521125,-4.3065624,1.578256,2.122207,-2.801216,-11.295844,-2.9783869
0.31577405,4.5161924,-4.2245374,1.5345801,2.1360555,-2.9017725,-11.587936,-3.0023289
0.31746283,4.511272,-4.2245374,1.5345801,2.1360555,-2.9017725,-11.587936,-3.0023289
0.31924802,4.506341,-4.138251,1.485578,2.1456428,-3.4476504,-11.377247,-3.3375173
0.3209723,4.5015364,-4.138251,1.485578,2.1456428,-3.4476504,-11.377247,-3.3375173
0.32271296,4.4967875,-4.0477033,1.4312495,2.1552303,-3.4476504,-11.678916,-3.4093432
0.32444656,4.4920154,-4.0477033,1.4312495,2.1552303,-3.4476504,-11.678916,-3.4093432
0.32618132,4.4873605,-3.9518294,1.3715947,2.1616218,-3.6008794,-12.042834,-3.41892
0.32789955,4.4827065,-3.9518294,1.3715947,2.1616218,-3.6008794,-12.042834,-3.41892
0.32957405,4.4782195,-3.8442378,1.3098093,2.1637523,-3.3566709,-12.837709,-3.2752678
0.33123595,4.473738,-3.8442378,1.3098093,2.1637523,-3.3566709,-12.837709,-3.2752678
0.33295658,4.4693418,-3.7153409,1.2512197,2.1637523,-4.10845,-12.804191,-3.5482068
0.33465913,4.464946,-3.7153409,1.2512197,2.1637523,-4.10845,-12.804191,-3.5482068
0.3364296,4.4606853,-3.567269,1.191565,2.1594913,-4.3526587,-12.607866,-4.0318356
0.33819145,4.4564104,-3.567269,1.191565,2.1594913,-4.3526587,-12.607866,-4.0318356
0.33997557,4.4523215,-3.4085445,1.1116701,2.1477733,-4.5777135,-12.588713,-4.232949
0.34174946,4.448227,-3.4085445,1.1116701,2.1477733,-4.5777135,-12.588713,-4.232949
0.343459,4.4443507,-3.2423635,1.0168616,2.129664,-4.223372,-12.990938,-4.185065
0.34515932,4.440465,-3.2423635,1.0168616,2.129664,-4.223372,-12.990938,-4.185065
0.34681013,4.436831,-3.0623336,0.9209878,2.101967,-3.8546648,-13.268666,-4.098873
0.34845206,4.4331975,-3.0623336,0.9209878,2.101967,-3.8546648,-13.268666,-4.098873
0.35007066,4.4297934,-2.8684556,0.83257085,2.0604217,-3.8594532,-13.350069,-4.1419687
0.3516789,4.426397,-2.8684556,0.83257085,2.0604217,-3.8594532,-13.350069,-4.1419687
0.35328597,4.423189,-2.6617942,0.7505455,2.0071585,-4.3861775,-13.383588,-4.367024
0.35488147,4.4199867,-2.6617942,0.7505455,2.0071585,-4.3861775,-13.383588,-4.367024
0.3564295,4.4170523,-2.4455454,0.65893275,1.9443078,-4.510676,-13.445837,-4.357447
0.35797647,4.4141064,-2.4455454,0.65893275,1.9443078,-4.510676,-13.445837,-4.357447
0.359468,4.411443,-2.2207747,0.5566674,1.868674,-4.5633483,-13.613431,-4.3861775
0.36095056,4.4087896,-2.2207747,0.5566674,1.868674,-4.5633483,-13.613431,-4.3861775
0.3623753,4.406432,-1.9896123,0.45120618,1.7791919,-4.453215,-13.747506,-4.295198
0.36379504,4.4040823,-1.9896123,0.45120618,1.7791919,-4.453215,-13.747506,-4.295198
0.36515352,4.4020247,-1.7520584,0.34787554,1.683318,-4.606444,-13.982138,-4.3478703
0.366511,4.399969,-1.7520584,0.34787554,1.683318,-4.606444,-13.982138,-4.3478703
0.36780295,4.3982134,-1.5081128,0.2466754,1.5810527,-4.817134,-14.06354,-4.3718123
0.36908704,4.3964705,-1.5081128,0.2466754,1.5810527,-4.817134,-14.06354,-4.3718123
0.37031052,4.395021,-1.2567104,0.14121422,1.4745263,-5.0278234,-14.12579,-4.43885
0.3715369,4.3935704,-1.2567104,0.14121422,1.4745263,-5.0278234,-14.12579,-4.43885
0.37268394,4.3924284,-0.99891645,0.031491987,1.3605429,-5.171476,-14.053964,-4.501099
0.37383035,4.3912888,-0.99891645,0.031491987,1.3605429,-5.171476,-14.053964,-4.501099
0.37490925,4.3904834,-0.72833925,-0.08675237,1.2444291,-5.233725,-14.144943,-4.5154643
0.37598646,4.38968,-0.72833925,-0.08675237,1.2444291,-5.233725,-14.144943,-4.5154643
0.37699363,4.389221,-0.45030522,-0.21032305,1.1229889,-5.1475334,-14.111424,-4.4484267
0.37799874,4.388763,-0.45030522,-0.21032305,1.1229889,-5.1475334,-14.111424,-4.4484267
0.37891906,4.3886476,-0.16161856,-0.33602425,0.994092,-5.0038815,-14.15452,-4.462792
0.37983733,4.3885326,-0.16161856,-0.33602425,0.994092,-5.0038815,-14.15452,-4.462792
0.38066664,4.388771,0.13878602,-0.46172544,0.85986865,-4.927267,-14.15452,-4.525041
0.38149154,4.3890076,0.13878602,-0.46172544,0.85986865,-4.927267,-14.15452,-4.525041
0.38221988,4.389603,0.45303902,-0.58529615,0.7192537,-4.7309427,-14.221559,-4.673482
0.38294783,4.3901978,0.45303902,-0.58529615,0.7192537,-4.7309427,-14.221559,-4.673482
0.38357309,4.3911676,0.7758142,-0.7078015,0.5701167,-4.6255975,-14.087482,-4.735731
0.3841974,4.392136,0.7758142,-0.7078015,0.5701167,-4.6255975,-14.087482,-4.735731
0.3847139,4.3934927,1.1049808,-0.8292417,0.41565338,-4.4819455,-14.140155,-4.8219223
0.3852304,4.394849,1.1049808,-0.8292417,0.41565338,-4.4819455,-14.140155,-4.8219223
0.3856338,4.3965993,1.4384086,-0.9485513,0.2558637,-4.3861775,-14.058752,-4.8745947
0.38603562,4.3983445,1.4384086,-0.9485513,0.2558637,-4.3861775,-14.058752,-4.8745947
0.3863142,4.400489,1.7729017,-1.0625346,0.089682445,-4.2185836,-14.015656,-4.8985367
0.38659096,4.402627,1.7729017,-1.0625346,0.089682445,-4.2185836,-14.015656,-4.8985367
0.3867401,4.405168,2.1063294,-1.1711916,-0.08075987,-4.2999864,-13.900735,-4.88896
0.38688713,4.4076962,2.1063294,-1.1711916,-0.08075987,-4.2999864,-13.900735,-4.88896
0.38689768,4.4106297,2.4344308,-1.2734569,-0.2501369,-4.3478703,-13.800179,-4.721366
0.38690597,4.4135456,2.4344308,-1.2734569,-0.2501369,-4.3478703,-13.800179,-4.721366
0.38677725,4.4168377,2.7550755,-1.370396,-0.42270976,-4.5537715,-13.704411,-4.6399627
0.38664636,4.4201317,2.7550755,-1.370396,-0.42270976,-4.5537715,-13.704411,-4.6399627
0.3863878,4.423773,3.0640023,-1.4620088,-0.59315205,-4.7884035,-13.546393,-4.6351743
0.38612822,4.427402,3.0640023,-1.4620088,-0.59315205,-4.7884035,-13.546393,-4.6351743
0.3857436,4.4313745,3.3580153,-1.5525563,-0.75826806,-4.960786,-13.31655,-4.5058875
0.38535815,4.4353347,3.3580153,-1.5525563,-0.75826806,-4.960786,-13.31655,-4.5058875
0.38486436,4.4396124,3.6339188,-1.6409732,-0.91379666,-5.080496,-13.019669,-4.4101195
0.38436744,4.443886,3.6339188,-1.6409732,-0.91379666,-5.080496,-13.019669,-4.4101195
0.38378683,4.4484596,3.892778,-1.7272596,-1.0618684,-5.3725886,-12.799402,-4.256891
0.38320053,4.453022,3.892778,-1.7272596,-1.0618684,-5.3725886,-12.799402,-4.256891
0.38248876,4.457879,4.138854,-1.8114156,-1.1982223,-5.267244,-12.698846,-4.223372
0.38176936,4.4627333,4.138854,-1.8114156,-1.1982223,-5.267244,-12.698846,-4.223372
0.3808913,4.467877,4.372147,-1.8966367,-1.3292499,-4.6782703,-12.521675,-4.247314
0.3800077,4.4730053,4.372147,-1.8966367,-1.3292499,-4.6782703,-12.521675,-4.247314
0.37897012,4.4784193,4.593722,-1.9818578,-1.4624078,-3.9600096,-12.344504,-4.2425256
0.37792495,4.4838214,4.593722,-1.9818578,-1.4624078,-3.9600096,-12.344504,-4.2425256
0.37792495,4.4838214,4.593722,-1.9818578,-1.4624078,-3.9600096,-12.344504,-4.2425256
0.37553716,4.4951835,4.80571,-2.0606873,-1.5987617,-3.6296098,-12.095507,-4.074931
0.37421197,4.501027,5.0059795,-2.1309948,-1.7404419,-3.4955344,-11.884817,-3.8498764
0.37287232,4.5068793,5.0059795,-2.1309948,-1.7404419,-3.4955344,-11.884817,-3.8498764
0.37139696,4.5129523,5.1977267,-2.1927803,-1.8853178,-3.5817258,-11.506534,-3.6391866
0.369903,4.5190454,5.1977267,-2.1927803,-1.8853178,-3.5817258,-11.506534,-3.6391866
0.3682862,4.525318,5.3766913,-2.2503045,-2.0238023,-3.6870706,-11.113884,-3.4141316
0.36665383,4.531594,5.3766913,-2.2503045,-2.0238023,-3.6870706,-11.113884,-3.4141316
0.36492297,4.5380406,5.540742,-2.3056982,-2.1548297,-4.0414124,-10.726024,-3.2848446
0.3631778,4.544477,5.540742,-2.3056982,-2.1548297,-4.0414124,-10.726024,-3.2848446
0.36132675,4.551064,5.6930747,-2.361092,-2.2752047,-4.10845,-10.433931,-3.0023289
0.3594505,4.5576735,5.6930747,-2.361092,-2.2752047,-4.10845,-10.433931,-3.0023289
0.35743117,4.564432,5.8283634,-2.4186163,-2.3796005,-3.5769374,-10.151415,-2.6862943
0.35743117,4.564432,5.8283634,-2.4186163,-2.3796005,-3.5769374,-10.151415,-2.6862943
0.35436374,4.5742354,5.946608,-2.469749,-2.470148,-3.1172507,-9.911995,-2.3942018
0.35086808,4.5852714,5.946608,-2.469749,-2.470148,-3.1172507,-9.911995,-2.3942018
0.3484343,4.5926595,6.046743,-2.5112944,-2.5553691,-2.7964275,-9.643845,-2.1643584
0.34630284,4.5990777,6.046743,-2.5112944,-2.5553691,-2.7964275,-9.643845,-2.1643584
0.34375492,4.606496,6.1277027,-2.542187,-2.6341987,-2.6192567,-9.260772,-1.7908629
0.34375492,4.606496,6.1277027,-2.542187,-2.6341987,-2.6192567,-9.260772,-1.7908629
0.3403968,4.615965,6.190553,-2.5656228,-2.7045062,-2.3894134,-8.896853,-1.6136919
0.3362964,4.627397,6.190553,-2.5656228,-2.7045062,-2.3894134,-8.896853,-1.6136919
0.3334655,4.6350217,6.2310333,-2.5837324,-2.7620306,-2.0925324,-8.576031,-1.3024458
0.33101156,4.64158,6.2310333,-2.5837324,-2.7620306,-2.0925324,-8.576031,-1.3024458
0.32827282,4.6486835,6.248078,-2.594385,-2.812098,-1.9393034,-8.264784,-0.92416185
0.32550353,4.6558084,6.248078,-2.594385,-2.812098,-1.9393034,-8.264784,-0.92416185
0.3226599,4.66294,6.241686,-2.5997112,-2.852578,-1.6424223,-8.058883,-0.58418524
0.3226599,4.66294,6.241686,-2.5997112,-2.852578,-1.6424223,-8.058883,-0.58418524
0.31686392,4.677225,6.212924,-2.598646,-2.88134,-1.3359646,-7.73806,-0.19153613
0.31392774,4.684325,6.212924,-2.598646,-2.88134,-1.3359646,-7.73806,-0.19153613
0.31098562,4.691352,6.163922,-2.5890586,-2.8951886,-1.0151415,-7.3789296,0.17717093
0.3080105,4.698387,6.163922,-2.5890586,-2.8951886,-1.0151415,-7.3789296,0.17717093
0.30502975,4.705351,6.0914836,-2.5698838,-2.9005148,-0.5746084,-6.991069,0.6560113
0.30202004,4.7123175,6.0914836,-2.5698838,-2.9005148,-0.5746084,-6.991069,0.6560113
0.29902175,4.7191534,5.9966755,-2.537926,-2.893058,-0.1340753,-6.531382,1.0821792
0.2960047,4.7259736,5.9966755,-2.537926,-2.893058,-0.1340753,-6.531382,1.0821792
0.29299113,4.732664,5.878431,-2.4921196,-2.8760138,0.3878607,-6.1626754,1.5227122
0.28996316,4.739333,5.878431,-2.4921196,-2.8760138,0.3878607,-6.1626754,1.5227122
0.28695664,4.745828,5.73462,-2.4313993,-2.848317,0.91458505,-5.583278,1.9488802
0.28393406,4.75231,5.73462,-2.4313993,-2.848317,0.91458505,-5.583278,1.9488802
0.28093654,4.758581,5.564178,-2.3525698,-2.8142285,1.7812861,-5.0374002,2.360683
0.27792436,4.76484,5.564178,-2.3525698,-2.8142285,1.7812861,-5.0374002,2.360683
0.27494875,4.7708583,5.3639083,-2.256696,-2.7737484,2.2936451,-4.232949,2.5761611
0.27195996,4.776864,5.3639083,-2.256696,-2.7737484,2.2936451,-4.232949,2.5761611
0.26901838,4.782584,5.1284847,-2.1405823,-2.7290072,2.7485435,-3.596091,2.7868507
0.2660563,4.788311,5.1284847,-2.1405823,-2.7290072,2.7485435,-3.596091,2.7868507
0.26315412,4.793705,4.8600383,-2.0116851,-2.6810703,3.4332852,-2.9400797,3.0789435
0.26023892,4.7990947,4.8600383,-2.0116851,-2.6810703,3.4332852,-2.9400797,3.0789435
0.25738224,4.804133,4.5575027,-1.8689398,-2.6299376,4.146757,-2.2697031,3.3997664
0.25451696,4.809163,4.5575027,-1.8689398,-2.6299376,4.146757,-2.2697031,3.3997664
0.25172278,4.8138037,4.22301,-1.7059543,-2.5734787,4.7165775,-1.7477672,3.763685
0.24892168,4.8184366,4.22301,-1.7059543,-2.5734787,4.7165775,-1.7477672,3.763685
0.24619631,4.8226566,3.8576243,-1.5259247,-2.5095627,5.21936,-1.3311762,3.9983168
0.2434654,4.82687,3.8576243,-1.5259247,-2.5095627,5.21936,-1.3311762,3.9983168
0.24081112,4.8306546,3.4666722,-1.329916,-2.441386,5.6359506,-0.91937345,4.185065
0.23816063,4.834422,3.4666722,-1.329916,-2.441386,5.6359506,-0.91937345,4.185065
0.23561639,4.8377085,3.0480232,-1.1232547,-2.3668175,5.659893,-0.45489833,4.2281604
0.23306416,4.840997,3.0480232,-1.1232547,-2.3668175,5.659893,-0.45489833,4.2281604
0.23061824,4.843798,2.608069,-0.9102018,-2.284792,5.779603,-0.18674773,4.462792
0.22817037,4.846596,2.608069,-0.9102018,-2.284792,5.779603,-0.18674773,4.462792
0.22585334,4.8488817,2.1457443,-0.69075733,-2.1878529,5.133168,-0.047884032,4.5058875
0.22353527,4.851165,2.1457443,-0.69075733,-2.1878529,5.133168,-0.047884032,4.5058875
0.22136043,4.8529305,1.6706363,-0.47983494,-2.074935,4.745308,-0.29209262,4.8123455
0.21918505,4.854696,1.6706363,-0.47983494,-2.074935,4.745308,-0.29209262,4.8123455
0.21715955,4.855944,1.1923325,-0.28702208,-1.950299,4.88896,-0.59855044,5.1140146
0.21513195,4.857193,1.1923325,-0.28702208,-1.950299,4.88896,-0.59855044,5.1140146
0.21327217,4.857929,0.71615934,-0.09847028,-1.809684,4.9224787,-0.94810385,5.3486466
0.21141244,4.858666,0.71615934,-0.09847028,-1.809684,4.9224787,-0.94810385,5.3486466
0.20974551,4.858898,0.24637774,0.09540785,-1.6456333,4.7261543,-1.283292,5.497087
0.2080753,4.859132,0.24637774,0.09540785,-1.6456333,4.7261543,-1.283292,5.497087
0.20661746,4.8588686,-0.21594705,0.289286,-1.4602773,4.687847,-1.541866,5.511452
0.20515953,4.8586073,-0.21594705,0.289286,-1.4602773,4.687847,-1.541866,5.511452
0.20393035,4.8578615,-0.6686844,0.47890306,-1.2589424,4.050989,-1.340753,5.0661306
0.20270076,4.8571177,-0.6686844,0.47890306,-1.2589424,4.050989,-1.340753,5.0661306
0.20170467,4.855895,-1.1171608,0.66106325,-1.0458895,4.0892963,-1.8004397,5.0421886
0.2007086,4.8546753,-1.1171608,0.66106325,-1.0458895,4.0892963,-1.8004397,5.0421886
0.19995609,4.8529873,-1.5581802,0.8357667,-0.81898814,3.7541082,-2.896984,5.085284
0.1992036,4.851303,-1.5581802,0.8357667,-0.81898814,3.7541082,-2.896984,5.085284
0.19871634,4.8491755,-1.9768292,1.0072743,-0.5739773,2.719813,-3.667917,4.735731
0.19822799,4.847053,-1.9768292,1.0072743,-0.5739773,2.719813,-3.667917,4.735731
0.19800453,4.844518,-2.3645854,1.1574765,-0.3257707,2.2457612,-3.739743,4.4580035
0.19777876,4.841988,-2.3645854,1.1574765,-0.3257707,2.2457612,-3.739743,4.4580035
0.1978016,4.83907,-2.7310364,1.2789167,-0.08182514,2.657564,-4.185065,4.606444
0.19782095,4.836151,-2.7310364,1.2789167,-0.08182514,2.657564,-4.185065,4.606444
0.19809416,4.832858,-3.0847042,1.397161,0.16425095,2.5809495,-4.4580035,4.5394063
0.19836289,4.829568,-3.0847042,1.397161,0.16425095,2.5809495,-4.4580035,4.5394063
0.1988956,4.8259206,-3.4245236,1.5249927,0.41884917,2.1739352,-5.3199162,4.6112323
0.19942333,4.822272,-3.4245236,1.5249927,0.41884917,2.1739352,-5.3199162,4.6112323
0.20020409,4.8182793,-3.7494292,1.6464329,0.6670558,2.0494366,-6.291962,4.7740383
0.20097815,4.8142886,-3.7494292,1.6464329,0.6670558,2.0494366,-6.291962,4.7740383
0.20199436,4.809973,-4.0519643,1.7593509,0.90460974,1.7381904,-6.871359,4.6782703
0.20300375,4.8056545,-4.0519643,1.7593509,0.90460974,1.7381904,-6.871359,4.6782703
0.20425195,4.801038,-4.3331943,1.8712037,1.1347069,1.0199299,-7.3071036,4.5537715
0.20549233,4.796417,-4.3331943,1.8712037,1.1347069,1.0199299,-7.3071036,4.5537715
0.20695905,4.7915173,-4.594184,1.9734691,1.3584124,0.5793968,-7.843405,4.4340615
0.20841703,4.7866125,-4.594184,1.9734691,1.3584124,0.5793968,-7.843405,4.4340615
0.21008848,4.7814455,-4.8381295,2.0586903,1.5757264,0.320823,-8.236053,4.185065
0.21175022,4.7762737,-4.8381295,2.0586903,1.5757264,0.320823,-8.236053,4.185065
0.2136078,4.770858,-5.0629005,2.1332588,1.7802571,0.22505496,-8.719683,4.012682
0.2154549,4.7654357,-5.0629005,2.1332588,1.7802571,0.22505496,-8.719683,4.012682
0.21748026,4.759788,-5.270627,2.1971745,1.9677436,0.08619126,-9.212888,3.9121256
0.21953027,4.7540317,-5.270627,2.1971745,1.9677436,0.08619126,-9.212888,3.9121256
0.21953027,4.7540317,-5.457048,2.2557642,2.1403165,-0.29688102,-9.591172,3.6583402
0.22391482,4.7422013,-5.457048,2.2557642,2.1403165,-0.29688102,-9.591172,3.6583402
0.226172,4.736301,-5.6189685,2.3079622,2.2947798,-0.6368576,-10.031705,3.5051112
0.22846702,4.730259,-5.6189685,2.3079622,2.2947798,-0.6368576,-10.031705,3.5051112
0.23089176,4.7240653,-5.7595835,2.3537686,2.43646,-0.9959879,-10.409989,3.3135753
0.23330732,4.7178497,-5.7595835,2.3537686,2.43646,-0.9959879,-10.409989,3.3135753
0.23584312,4.7114754,-5.8767624,2.387857,2.5589654,-1.283292,-10.807426,3.1028855
0.23835382,4.705116,-5.8767624,2.387857,2.5589654,-1.283292,-10.807426,3.1028855
0.24095856,4.6986313,-5.972636,2.4134233,2.662296,-1.5131354,-11.09473,2.8443117
0.2435373,4.692162,-5.972636,2.4134233,2.662296,-1.5131354,-11.09473,2.8443117
0.2462051,4.68556,-6.0504003,2.432598,2.750713,-1.7525556,-11.420342,2.5953147
0.24884592,4.678973,-6.0504003,2.432598,2.750713,-1.7525556,-11.420342,2.5953147
0.25154835,4.6723003,-6.1143165,2.4475117,2.8252816,-1.9967642,-11.640609,2.2601264
0.25423372,4.665616,-6.1143165,2.4475117,2.8252816,-1.9967642,-11.640609,2.2601264
0.25696447,4.6588564,-6.1675797,2.4592297,2.883871,-2.2505496,-11.865664,1.8962077
0.25966117,4.6521244,-6.1675797,2.4592297,2.883871,-2.2505496,-11.865664,1.8962077
0.26240554,4.645279,-6.213386,2.4677517,2.9254165,-2.4947581,-12.061988,1.5753847
0.26512343,4.63844,-6.213386,2.4677517,2.9254165,-2.4947581,-12.061988,1.5753847
0.26785654,4.631538,-6.2559967,2.473078,2.9541786,-2.6910827,-12.181698,1.2880806
0.2705625,4.6246433,-6.2559967,2.473078,2.9541786,-2.6910827,-12.181698,1.2880806
0.27327985,4.617665,-6.298607,2.4773393,2.9701576,-2.8778305,-12.181698,0.9911995
0.27596673,4.6107,-6.298607,2.4773393,2.9701576,-2.8778305,-12.181698,0.9911995
0.27864745,4.603642,-6.342283,2.4837308,2.9733534,-2.8921957,-12.167333,0.7326257
0.28130004,4.5965915,-6.342283,2.4837308,2.9733534,-2.8921957,-12.167333,0.7326257
0.28392065,4.5894794,-6.388089,2.4922528,2.9627006,-2.9496565,-12.014104,0.40222588
0.28651026,4.582383,-6.388089,2.4922528,2.9627006,-2.9496565,-12.014104,0.40222588
0.2890668,4.5751634,-6.4370914,2.5082319,2.9350038,-2.9592333,-11.9135475,0.08619126
0.29158217,4.567988,-6.4370914,2.5082319,2.9350038,-2.9592333,-11.9135475,0.08619126
0.29404977,4.560686,-6.488224,2.5295372,2.8913279,-3.0071173,-11.750742,-0.16759412
0.2964788,4.553421,-6.488224,2.5295372,2.8913279,-3.0071173,-11.750742,-0.16759412
0.298831,4.546043,-6.540422,2.5551035,2.8284774,-3.0550013,-11.573571,-0.5554548
0.3011404,4.538718,-6.540422,2.5551035,2.8284774,-3.0550013,-11.573571,-0.5554548
0.30335972,4.531229,-6.597946,2.5828004,2.7475173,-3.0502129,-11.405977,-0.9624691
0.3055486,4.5237575,-6.597946,2.5828004,2.7475173,-3.0502129,-11.405977,-0.9624691
0.3075836,4.516222,-6.655471,2.6083667,2.649513,-2.96881,-11.27669,-1.388637
0.30956894,4.5087895,-6.655471,2.6083667,2.649513,-2.96881,-11.27669,-1.388637
0.3114092,4.501165,-6.707669,2.633933,2.5312686,-2.8491,-11.152191,-1.7286136
0.3132572,4.4934263,-6.707669,2.633933,2.5312686,-2.8491,-11.152191,-1.7286136
0.31487337,4.48573,-6.75241,2.657369,2.3938494,-2.7102363,-10.998962,-2.135628
0.31648332,4.4779787,-6.75241,2.657369,2.3938494,-2.7102363,-10.998962,-2.135628
0.31788287,4.470189,-6.789694,2.677609,2.2404513,-2.585738,-10.79785,-2.6001031
0.319268,4.4623494,-6.789694,2.677609,2.2404513,-2.585738,-10.79785,-2.6001031
0.3204593,4.454494,-6.8120646,2.694653,2.0721395,-2.4708161,-10.697293,-2.9879637
0.3216342,4.4465632,-6.8120646,2.694653,2.0721395,-2.4708161,-10.697293,-2.9879637
0.322603,4.43866,-6.8195214,2.7116973,1.8910446,-2.231396,-10.721235,-3.2944214
0.32354385,4.4307594,-6.8195214,2.7116973,1.8910446,-2.231396,-10.721235,-3.2944214
0.32430536,4.42291,-6.8109994,2.7276764,1.7024928,-2.5330653,-10.290278,-3.845088
0.32504666,4.414958,-6.8109994,2.7276764,1.7024928,-2.5330653,-10.290278,-3.845088
0.3255975,4.4070444,-6.789694,2.74259,1.513941,-2.504335,-10.218452,-4.4005427
0.32611966,4.3991303,-6.789694,2.74259,1.513941,-2.504335,-10.218452,-4.4005427
0.3264033,4.3913136,-6.761997,2.7511122,1.3232586,-2.303222,-10.989386,-4.429273
0.3266609,4.3834457,-6.761997,2.7511122,1.3232586,-2.303222,-10.989386,-4.429273
0.326699,4.375628,-6.7151256,2.7606995,1.1368374,-2.0159178,-11.808203,-4.5202527
0.32671165,4.367855,-6.7151256,2.7606995,1.1368374,-2.0159178,-11.808203,-4.5202527
0.3265383,4.360235,-6.641622,2.774548,0.96106875,-2.456451,-11.947066,-4.807557
0.32633826,4.3525696,-6.641622,2.774548,0.96106875,-2.456451,-11.947066,-4.807557
0.32604367,4.344948,-6.544683,2.787331,0.80340964,-3.6727054,-11.611878,-5.5497594
0.32572255,4.3373213,-6.544683,2.787331,0.80340964,-3.6727054,-11.611878,-5.5497594
0.32524377,4.3298473,-6.434961,2.7692215,0.6542726,-3.394978,-11.362882,-5.8083334
0.32473952,4.322362,-6.434961,2.7692215,0.6542726,-3.394978,-11.362882,-5.8083334
0.3241276,4.315024,-6.322043,2.725546,0.52217984,-3.6056678,-11.209652,-5.932832
0.3241276,4.315024,-6.2027335,2.6722825,0.4092618,-3.1507695,-11.492168,-5.90889
0.32146055,4.2904615,-6.2027335,2.6722825,0.4092618,-3.1507695,-11.492168,-5.90889
0.32146055,4.2904615,-6.2027335,2.6722825,0.4092618,-3.1507695,-11.492168,-5.90889
0.32089654,4.286311,-6.072771,2.609432,0.30167007,-2.5474305,-12.220005,-5.5018754
0.31994998,4.2794538,-6.072771,2.609432,0.30167007,-2.5474305,-12.220005,-5.5018754
0.31888768,4.272569,-5.918308,2.5551035,0.204731,-2.4181437,-12.53604,-5.559336
0.3178553,4.265984,-5.918308,2.5551035,0.204731,-2.4181437,-12.53604,-5.559336
0.31673184,4.259495,-5.7361474,2.5018404,0.11631405,-2.8538885,-12.497733,-5.861006
0.31563446,4.2532454,-5.7361474,2.5018404,0.11631405,-2.8538885,-12.497733,-5.861006
0.3144482,4.247047,-5.5273557,2.4315329,0.03428869,-3.2752678,-12.488156,-6.1243677
0.31324184,4.2408266,-5.5273557,2.4315329,0.03428869,-3.2752678,-12.488156,-6.1243677
0.31200567,4.2349005,-5.291932,2.3303328,-0.039214555,-3.2465374,-12.65575,-6.220136
0.3107563,4.228971,-5.291932,2.3303328,-0.039214555,-3.2465374,-12.65575,-6.220136
0.3094915,4.223359,-5.029877,2.202501,-0.11165254,-2.825158,-12.756307,-6.291962
0.30822098,4.2177696,-5.029877,2.202501,-0.11165254,-2.825158,-12.756307,-6.291962
0.30695048,4.212533,-4.73906,2.0629513,-0.17769894,-2.2409728,-12.732365,-6.3446345
0.30566368,4.207268,-4.73906,2.0629513,-0.17769894,-2.2409728,-12.732365,-6.3446345
0.3043869,4.202384,-4.4184155,1.9212711,-0.23628849,-2.3175871,-12.6461735,-6.5457473
0.3031053,4.1975136,-4.4184155,1.9212711,-0.23628849,-2.3175871,-12.6461735,-6.5457473
0.3018604,4.1930676,-4.0722046,1.7742647,-0.2927475,-2.4037786,-14.001291,-6.4308257
0.30061316,4.188632,-4.0722046,1.7742647,-0.2927475,-2.4037786,-14.001291,-6.4308257
0.29943782,4.1844587,-3.687644,1.6155403,-0.3460107,-3.3518825,-11.137826,-7.848193
0.29825833,4.180298,-3.687644,1.6155403,-0.3460107,-3.3518825,-11.137826,-7.848193
0.29707798,4.1767683,-3.2764518,1.4227273,-0.3950129,-0.6703765,-14.044387,-6.3206925
0.29589415,4.173239,-3.2764518,1.4227273,-0.3950129,-0.6703765,-14.044387,-6.3206925
0.29484597,4.170231,-2.8578029,1.2277839,-0.43549293,-4.1371803,-14.279019,-6.7803793
0.2937985,4.167228,-2.8578029,1.2277839,-0.43549293,-4.1371803,-14.279019,-6.7803793
0.29276174,4.164713,-2.4008045,1.0275142,-0.46425506,-3.4572272,-13.828909,-7.422025
0.29171595,4.162176,-2.4008045,1.0275142,-0.46425506,-3.4572272,-13.828909,-7.422025
0.2907612,4.160222,-1.9043912,0.7750466,-0.5068657,-2.930503,-13.790602,-7.599196
0.28980124,4.15826,-1.9043912,0.7750466,-0.5068657,-2.930503,-13.790602,-7.599196
0.28891903,4.156824,-1.3866727,0.5247094,-0.54841095,-2.6288335,-13.096283,-8.1402855
0.28803656,4.1553903,-1.3866727,0.5247094,-0.54841095,-2.6288335,-13.096283,-8.1402855
0.28725156,4.154517,-0.86362785,0.28182915,-0.5920868,-2.0159178,-12.473791,-8.394072
0.286468,4.1536465,-0.86362785,0.28182915,-0.5920868,-2.0159178,-12.473791,-8.394072
0.28576607,4.153346,-0.3459093,0.052797277,-0.6400237,-1.8148049,-12.11466,-8.42759
0.2850655,4.153046,-0.3459093,0.052797277,-0.6400237,-1.8148049,-12.11466,-8.42759
0.28443682,4.1533117,0.16541763,-0.15599456,-0.69009113,-1.7286136,-12.004527,-8.499416
0.28380567,4.153578,0.16541763,-0.15599456,-0.69009113,-1.7286136,-12.004527,-8.499416
0.28380567,4.153578,0.16541763,-0.15599456,-0.69009113,-1.7286136,-12.004527,-8.499416
0.28301105,4.154734,0.67141825,-0.35306847,-0.74015856,-1.5993267,-11.884817,-8.465898
0.2821196,4.1564054,1.1752883,-0.5448161,-0.7891607,-1.7621324,-11.81778,-8.532935
0.28162384,4.1577544,1.1752883,-0.5448161,-0.7891607,-1.7621324,-11.81778,-8.532935
0.28119338,4.159634,1.6748973,-0.7323026,-0.8381629,-1.9776106,-11.540052,-8.604761
0.2807571,4.161533,1.6748973,-0.7323026,-0.8381629,-1.9776106,-11.540052,-8.604761
0.28038323,4.163979,2.168115,-0.92085445,-0.88716507,-2.0973208,-11.305421,-8.671799
0.280007,4.166426,2.168115,-0.92085445,-0.88716507,-2.0973208,-11.305421,-8.671799
0.27969342,4.1694026,2.6517448,-1.1104715,-0.9340367,-2.006341,-11.018116,-8.805874
0.27937675,4.1723776,2.6517448,-1.1104715,-0.9340367,-2.006341,-11.018116,-8.805874
0.2791082,4.1758757,3.1225917,-1.3000885,-0.98303884,-1.4221559,-10.510546,-8.892065
0.27883506,4.179373,3.1225917,-1.3000885,-0.98303884,-1.4221559,-10.510546,-8.892065
0.2786089,4.1833715,3.5774596,-1.4843793,-1.0352368,-1.0103531,-9.888053,-9.126697
0.27837655,4.187369,3.5774596,-1.4843793,-1.0352368,-1.0103531,-9.888053,-9.126697
0.27817544,4.191849,4.0152836,-1.6558869,-1.0959569,-0.79487497,-9.232041,-9.208099
0.27796644,4.196328,4.0152836,-1.6558869,-1.0959569,-0.79487497,-9.232041,-9.208099
0.27777162,4.2012787,4.431802,-1.8178071,-1.1662643,-0.6895301,-8.676587,-9.270349
0.27756733,4.2062235,4.431802,-1.8178071,-1.1662643,-0.6895301,-8.676587,-9.270349
0.2773568,4.2115955,4.822754,-1.97014,-1.2472245,-0.6464345,-8.336611,-9.078813
0.2771343,4.2169824,4.822754,-1.97014,-1.2472245,-0.6464345,-8.336611,-9.078813
0.27689502,4.222761,5.1881394,-2.1107547,-1.3345761,-0.7565677,-7.967903,-8.954314
0.2766421,4.228544,5.1881394,-2.1107547,-1.3345761,-0.7565677,-7.967903,-8.954314
0.2763636,4.234711,5.524763,-2.2417824,-1.4251236,-1.115698,-7.7907324,-8.7532015
0.27607033,4.240864,5.524763,-2.2417824,-1.4251236,-1.115698,-7.7907324,-8.7532015
0.2757392,4.2473636,5.831559,-2.3621573,-1.51141,-1.1875241,-7.723695,-8.456321
0.27539018,4.2538743,5.831559,-2.3621573,-1.51141,-1.1875241,-7.723695,-8.456321
0.2750008,4.2606926,6.107463,-2.4761405,-1.5902396,-1.1540052,-7.7093296,-8.145074
0.274593,4.2675014,6.107463,-2.4761405,-1.5902396,-1.1540052,-7.7093296,-8.145074
0.2741475,4.2745876,6.3514085,-2.5805364,-1.6616123,-1.316811,-7.819463,-7.896077
0.2736807,4.281685,6.3514085,-2.5805364,-1.6616123,-1.316811,-7.819463,-7.896077
0.27317718,4.2890205,6.567657,-2.6742797,-1.7244629,-1.5466543,-7.9966335,-7.52737
0.27265182,4.296354,6.567657,-2.6742797,-1.7244629,-1.5466543,-7.9966335,-7.52737
0.2720954,4.303932,6.757274,-2.7605662,-1.7745304,-1.8722657,-8.24563,-7.129933
0.27151898,4.3114614,6.757274,-2.7605662,-1.7745304,-1.8722657,-8.24563,-7.129933
0.27092576,4.319176,6.92239,-2.8415263,-1.8139452,-2.3223755,-8.42759,-6.847417
0.27030665,4.326903,6.92239,-2.8415263,-1.8139452,-2.3223755,-8.42759,-6.847417
0.26967505,4.33479,7.06407,-2.9192905,-1.8384463,-2.5330653,-8.508993,-6.588843
0.26901686,4.3426814,7.06407,-2.9192905,-1.8384463,-2.5330653,-8.508993,-6.588843
0.26834887,4.350692,7.1823144,-2.9906633,-1.8480335,-2.504335,-8.566454,-6.2249246
0.26765335,4.358706,7.1823144,-2.9906633,-1.8480335,-2.504335,-8.566454,-6.2249246
0.26694715,4.36683,7.278188,-3.0556445,-1.8480335,-2.336741,-8.51857,-5.995081
0.26621354,4.374949,7.278188,-3.0556445,-1.8480335,-2.336741,-8.51857,-5.995081
0.26546922,4.383153,7.352757,-3.1110382,-1.8405768,-2.0973208,-8.379706,-5.6790466
0.26469702,4.3913527,7.352757,-3.1110382,-1.8405768,-2.0973208,-8.379706,-5.6790466
0.26391545,4.3996115,7.40602,-3.1536489,-1.8288589,-1.8866309,-8.135497,-5.497087
0.26310563,4.407865,7.40602,-3.1536489,-1.8288589,-1.8866309,-8.135497,-5.497087
0.26227474,4.4161534,7.4379783,-3.1802804,-1.8171409,-1.5035586,-7.85777,-5.281609
0.26141128,4.4244776,7.4379783,-3.1802804,-1.8171409,-1.5035586,-7.85777,-5.281609
0.2605304,4.432723,7.4433045,-3.190933,-1.8043578,-1.0295067,-7.4268136,-5.070919
0.25961807,4.4409957,7.4433045,-3.190933,-1.8043578,-1.0295067,-7.4268136,-5.070919
0.25867447,4.4492474,7.4209337,-3.182411,-1.7937051,-0.60812724,-6.909666,-4.841076
0.25770327,4.457493,7.4209337,-3.182411,-1.7937051,-0.60812724,-6.909666,-4.841076
0.25668174,4.4657507,7.3708663,-3.151518,-1.7862482,-0.16280572,-6.3925185,-4.4723687
0.25564626,4.4738955,7.3708663,-3.151518,-1.7862482,-0.16280572,-6.3925185,-4.4723687
0.25455672,4.481986,7.2899065,-3.0993202,-1.7787914,0.38307226,-5.841852,-4.0557775
0.2534433,4.490053,7.2899065,-3.0993202,-1.7787914,0.38307226,-5.841852,-4.0557775
0.252274,4.4979863,7.175923,-3.0236864,-1.7777262,0.8523358,-5.2002063,-3.620033
0.25107846,4.5059204,7.175923,-3.0236864,-1.7777262,0.8523358,-5.2002063,-3.620033
0.24981998,4.5136905,7.027851,-2.9235516,-1.7787914,1.283292,-4.6112323,-3.1268275
0.24854153,4.52143,7.027851,-2.9235516,-1.7787914,1.283292,-4.6112323,-3.1268275
0.24719721,4.528955,6.8435607,-2.7999809,-1.7830524,1.6950948,-4.0462008,-2.5234885
0.24582648,4.5364947,6.8435607,-2.7999809,-1.7830524,1.6950948,-4.0462008,-2.5234885
0.24439356,4.543798,6.625181,-2.6572354,-1.785183,2.1691468,-3.715801,-1.9009962
0.24293958,4.551093,6.625181,-2.6572354,-1.785183,2.1691468,-3.715801,-1.9009962
0.24143864,4.55812,6.3759093,-2.4963806,-1.7841177,2.4995465,-3.3518825,-1.2210429
0.23991984,4.565132,6.3759093,-2.4963806,-1.7841177,2.4995465,-3.3518825,-1.2210429
0.23836572,4.571849,6.0946794,-2.320612,-1.7798567,2.8634653,-3.0789435,-0.6368576
0.2367956,4.5785522,6.0946794,-2.320612,-1.7798567,2.8634653,-3.0789435,-0.6368576
0.23520528,4.584915,5.7846875,-2.1331253,-1.7723998,3.016694,-2.8299465,0.06703765
0.23359957,4.5912714,5.7846875,-2.1331253,-1.7723998,3.016694,-2.8299465,0.06703765
0.23198235,4.597255,5.449129,-1.9413778,-1.7606819,3.2465374,-2.743755,0.7326257
0.23035367,4.603227,5.449129,-1.9413778,-1.7606819,3.2465374,-2.743755,0.7326257
0.22872008,4.6088076,5.08907,-1.7453691,-1.7415072,3.4715924,-2.6048915,1.3742718
0.22707869,4.6143713,5.08907,-1.7453691,-1.7415072,3.4715924,-2.6048915,1.3742718
0.2254462,4.6195135,4.7087708,-1.5440341,-1.7106144,3.4572272,-2.3894134,1.8483237
0.2238045,4.624652,4.7087708,-1.5440341,-1.7106144,3.4572272,-2.3894134,1.8483237
0.22218421,4.629344,4.309296,-1.3448297,-1.6711997,3.6152446,-2.384625,2.3942018
0.22055663,4.634032,4.309296,-1.3448297,-1.6711997,3.6152446,-2.384625,2.3942018
0.21896318,4.638262,3.8981042,-1.1509515,-1.6211323,3.8307228,-2.2505496,2.873042
0.21736394,4.642489,3.8981042,-1.1509515,-1.6211323,3.8307228,-2.2505496,2.873042
0.21581483,4.6462464,3.474129,-0.9549429,-1.5572164,3.8881836,-2.183512,3.2848446
0.21426147,4.650001,3.474129,-0.9549429,-1.5572164,3.8881836,-2.183512,3.2848446
0.21276957,4.653281,3.042697,-0.7599995,-1.4847784,3.8355112,-2.2505496,3.7493198
0.21127476,4.656559,3.042697,-0.7599995,-1.4847784,3.8355112,-2.2505496,3.7493198
0.20985313,4.659355,2.603808,-0.5714477,-1.4016877,3.9791632,-2.1308396,4.1419687
0.20841813,4.6621714,2.603808,-0.5714477,-1.4016877,3.9791632,-2.1308396,4.1419687
0.20709465,4.664484,2.1627884,-0.38396114,-1.2972919,3.53863,-2.2840683,4.4819455
0.20577127,4.6667933,2.1627884,-0.38396114,-1.2972919,3.53863,-2.2840683,4.4819455
0.20456056,4.6686277,1.7207037,-0.19860514,-1.176917,3.064578,-2.5330653,4.6591167
0.2033493,4.670461,1.7207037,-0.19860514,-1.176917,3.064578,-2.5330653,4.6591167
0.20225613,4.6718225,1.2839453,-0.033489145,-1.0490853,3.4620156,-2.9352913,4.984728
0.20116171,4.6731844,1.2839453,-0.033489145,-1.0490853,3.4620156,-2.9352913,4.984728
0.20020871,4.6740775,0.85464376,0.12417,-0.9074051,3.6008794,-3.0071173,5.1906295
0.19925284,4.6749735,0.85464376,0.12417,-0.9074051,3.6008794,-3.0071173,5.1906295
0.19844282,4.6754184,0.43492955,0.28822073,-0.7550723,3.4045548,-3.1842883,5.2863975
0.19763127,4.6758647,0.43492955,0.28822073,-0.7550723,3.4045548,-3.1842883,5.2863975
0.19698267,4.6758614,0.017345872,0.45227146,-0.5920868,2.896984,-3.3566709,5.391742
0.19633414,4.6758585,0.017345872,0.45227146,-0.5920868,2.896984,-3.3566709,5.391742
0.19585839,4.675418,-0.39065042,0.60566956,-0.41631818,2.5474305,-3.5194764,5.434838
0.19537523,4.6749716,-0.39065042,0.60566956,-0.41631818,2.5474305,-3.5194764,5.434838
0.19537523,4.6749716,-0.7922551,0.7452192,-0.22883163,2.2840683,-3.787627,5.4779334
0.19505572,4.6740217,-0.7922551,0.7452192,-0.22883163,2.2840683,-3.787627,5.4779334
0.1945964,4.6720934,-1.1874682,0.8698551,-0.034953497,2.231396,-4.0701427,5.3821654
0.19449288,4.670843,-1.1874682,0.8698551,-0.034953497,2.231396,-4.0701427,5.3821654
0.19457297,4.6691613,-1.5741593,0.9817079,0.16105516,2.2936451,-4.2760444,5.2528787
0.19465221,4.6674643,-1.5741593,0.9817079,0.16105516,2.2936451,-4.2760444,5.2528787
0.19491582,4.665368,-1.9491323,1.0861038,0.35280275,2.27928,-4.572925,5.2624555
0.19517727,4.663272,-1.9491323,1.0861038,0.35280275,2.27928,-4.572925,5.2624555
0.19562013,4.6607914,-2.3113222,1.1873039,0.54241985,2.1930888,-4.951209,5.233725
0.1960601,4.6583104,-2.3113222,1.1873039,0.54241985,2.1930888,-4.951209,5.233725
0.19667707,4.6554575,-2.6628594,1.2874388,0.7256453,1.7956513,-5.257667,5.1666875
0.19667707,4.6554575,-2.6628594,1.2874388,0.7256453,1.7956513,-5.257667,5.1666875
0.19667707,4.6554575,-2.6628594,1.2874388,0.7256453,1.7956513,-5.257667,5.1666875
0.19909875,4.645438,-2.999483,1.3811821,0.901414,1.7238252,-5.5497594,4.9416323
0.19990309,4.642275,-3.3179972,1.4674685,1.06653,1.5945383,-5.9041014,4.6591167
0.20081726,4.6387405,-3.3179972,1.4674685,1.06653,1.5945383,-5.9041014,4.6591167
0.2018955,4.634781,-3.619467,1.5473633,1.2188628,1.6472107,-6.2823853,4.405331
0.20292972,4.630958,-3.619467,1.5473633,1.2188628,1.6472107,-6.2823853,4.405331
0.20411167,4.6267543,-3.9006968,1.622997,1.3626735,1.6567876,-6.6893997,4.060566
0.20524454,4.6226983,-3.9006968,1.622997,1.3626735,1.6567876,-6.6893997,4.060566
0.2065259,4.618248,-4.1627517,1.6965003,1.4958315,1.4221559,-7.129933,3.7684734
0.20780335,4.613781,-4.1627517,1.6965003,1.4958315,1.4221559,-7.129933,3.7684734
0.20918578,4.609054,-4.404567,1.7604162,1.6162064,1.1348516,-7.536947,3.5003228
0.21056208,4.604314,-4.404567,1.7604162,1.6162064,1.1348516,-7.536947,3.5003228
0.21203196,4.5993457,-4.626142,1.8104836,1.7269939,0.8331822,-7.991845,3.2992098
0.2134938,4.5943675,-4.626142,1.8104836,1.7269939,0.8331822,-7.991845,3.2992098
0.21505377,4.5891423,-4.824281,1.8467026,1.8271288,0.47405192,-8.379706,3.0885203
0.21659876,4.583927,-4.824281,1.8467026,1.8271288,0.47405192,-8.379706,3.0885203
0.2181959,4.578609,-4.9957886,1.8690732,1.9176762,0.19153613,-8.714894,2.7341783
0.2198032,4.5732155,-4.9957886,1.8690732,1.9176762,0.19153613,-8.714894,2.7341783
0.2214696,4.567688,-5.142795,1.8754648,1.9986364,0.062249243,-9.088389,2.432509
0.22312781,4.5621433,-5.142795,1.8754648,1.9986364,0.062249243,-9.088389,2.432509
0.22483769,4.5564766,-5.2578435,1.8669426,2.0668132,0.12449849,-9.44752,2.1883004
0.22653586,4.550804,-5.2578435,1.8669426,2.0668132,0.12449849,-9.44752,2.1883004
0.22828509,4.545053,-5.3451953,1.8530942,2.1275334,-0.41180268,-9.801862,1.8052281
0.23002729,4.5392785,-5.3451953,1.8530942,2.1275334,-0.41180268,-9.801862,1.8052281
0.23180929,4.5334463,-5.4027195,1.8190057,2.1754704,-0.5746084,-10.280702,1.5658079
0.2335772,4.5276136,-5.4027195,1.8190057,2.1754704,-0.5746084,-10.280702,1.5658079
0.2353709,4.5217566,-5.4293513,1.7668078,2.2116892,-0.47405192,-10.500969,1.2593501
0.23715085,4.515899,-5.4293513,1.7668078,2.2116892,-0.47405192,-10.500969,1.2593501
0.23896748,4.5100384,-5.428286,1.711414,2.243647,-0.8810662,-10.7356,0.90021986
0.24077038,4.5041766,-5.428286,1.711414,2.243647,-0.8810662,-10.7356,0.90021986
0.24259491,4.4983563,-5.400589,1.6496286,2.2692134,-1.1109096,-10.936713,0.4357447
0.24440971,4.492523,-5.400589,1.6496286,2.2692134,-1.1109096,-10.936713,0.4357447
0.24624783,4.48675,-5.351587,1.5750601,2.2905188,-1.316811,-11.204864,0.04309563
0.24807474,4.4809704,-5.351587,1.5750601,2.2905188,-1.316811,-11.204864,0.04309563
0.24992585,4.475279,-5.278084,1.4887737,2.307563,-1.5753847,-11.563994,-0.34476504
0.25176644,4.469581,-5.278084,1.4887737,2.307563,-1.5753847,-11.563994,-0.34476504
0.253632,4.4640026,-5.177949,1.3875736,2.3182156,-1.8674773,-11.903971,-0.7086837
0.25548732,4.4584174,-5.177949,1.3875736,2.3182156,-1.8674773,-11.903971,-0.7086837
0.2573671,4.452985,-5.049052,1.2725251,2.3224766,-2.1068976,-12.272678,-0.9816227
0.25923744,4.447546,-5.049052,1.2725251,2.3224766,-2.1068976,-12.272678,-0.9816227
0.2611353,4.442281,-4.8913927,1.1446934,2.3224766,-2.2744915,-12.641385,-1.2258313
0.26300955,4.437052,-4.8913927,1.1446934,2.3224766,-2.2744915,-12.641385,-1.2258313
0.26492235,4.4320087,-4.7049713,1.0051436,2.3182156,-2.4899697,-13.057976,-1.436521
0.26683876,4.4269295,-4.7049713,1.0051436,2.3182156,-2.4899697,-13.057976,-1.436521
0.26877248,4.422128,-4.4919186,0.85920244,2.3086283,-2.7724855,-13.618219,-1.6041151
0.27068958,4.417345,-4.4919186,0.85920244,2.3086283,-2.7724855,-13.618219,-1.6041151
0.27265617,4.412822,-4.247973,0.7004781,2.2969103,-3.241749,-14.168885,-1.733402
0.27462798,4.4082656,-4.247973,0.7004781,2.2969103,-3.241749,-14.168885,-1.733402
0.27663004,4.4040565,-3.9710042,0.5279052,2.2819967,-3.6774938,-14.671668,-1.8531121
0.27862236,4.399852,-3.9710042,0.5279052,2.2819967,-3.6774938,-14.671668,-1.8531121
0.28065854,4.3959885,-3.6652734,0.33828816,2.262822,-3.916914,-15.102624,-2.1021092
0.2826839,4.3921328,-3.6652734,0.33828816,2.262822,-3.916914,-15.102624,-2.1021092
0.2847674,4.3886566,-3.3286498,0.1358879,2.243647,-4.3478703,-15.409082,-2.3415294
0.28685743,4.3851585,-3.3286498,0.1358879,2.243647,-4.3478703,-15.409082,-2.3415294
0.28897846,4.3821063,-2.9621987,-0.077164985,2.2202113,-4.486734,-15.696386,-2.633622
0.29108155,4.379072,-2.9621987,-0.077164985,2.2202113,-4.486734,-15.696386,-2.633622
0.29324386,4.3764706,-2.569116,-0.29980525,2.1914492,-4.534618,-15.816096,-2.8443117
0.29540607,4.3738637,-2.569116,-0.29980525,2.1914492,-4.534618,-15.816096,-2.8443117
0.2975993,4.3717475,-2.1504674,-0.5256413,2.1509693,-4.5633483,-15.643714,-3.1364043
0.299784,4.3696356,-2.1504674,-0.5256413,2.1509693,-4.5633483,-15.643714,-3.1364043
0.30199164,4.3680234,-1.7137089,-0.7525427,2.1030324,-4.2760444,-15.610195,-3.2800562
0.30419806,4.3664103,-1.7137089,-0.7525427,2.1030324,-4.2760444,-15.610195,-3.2800562
0.30644536,4.3653164,-1.2652326,-0.9709219,2.0476384,-4.673482,-14.930242,-3.9360676
0.30868593,4.364225,-1.2652326,-0.9709219,2.0476384,-4.673482,-14.930242,-3.9360676
0.31090757,4.3636537,-0.8135604,-1.1871705,1.9762658,-4.3622355,-15.2367,-4.012682
0.31312752,4.3630824,-0.8135604,-1.1871705,1.9762658,-4.3622355,-15.2367,-4.012682
0.31531438,4.36303,-0.35975775,-1.3938318,1.8931751,-3.8642416,-16.026787,-3.9743748
0.31531438,4.36303,-0.35975775,-1.3938318,1.8931751,-3.8642416,-16.026787,-3.9743748
0.31971738,4.3632655,0.10789335,-1.5823836,1.8004972,-4.927267,-15.753847,-4.711789
0.32204434,4.3637967,0.10789335,-1.5823836,1.8004972,-4.927267,-15.753847,-4.711789
0.32425532,4.364636,0.58087075,-1.7666744,1.6961012,-5.48751,-15.021221,-5.535394
0.32648712,4.3654757,0.58087075,-1.7666744,1.6961012,-5.48751,-15.021221,-5.535394
0.32870513,4.3668594,1.0431955,-1.9658788,1.5810527,-5.985504,-14.451402,-5.9902925
0.3309365,4.3682575,1.0431955,-1.9658788,1.5810527,-5.985504,-14.451402,-5.9902925
0.33300272,4.3701687,1.484215,-2.1693444,1.4553515,-5.1571107,-14.470555,-5.861006
0.33506885,4.3720903,1.484215,-2.1693444,1.4553515,-5.1571107,-14.470555,-5.861006
0.3369776,4.3745794,1.9092555,-2.3642879,1.3179324,-4.43885,-14.781801,-5.631162
0.33887988,4.3770666,1.9092555,-2.3642879,1.3179324,-4.43885,-14.781801,-5.631162
0.3406987,4.380026,2.3268392,-2.5230122,1.1655996,-4.050989,-14.331692,-5.8562174
0.34252205,4.383005,2.3268392,-2.5230122,1.1655996,-4.050989,-14.331692,-5.8562174
0.3442514,4.386416,2.7348354,-2.647648,0.9919614,-4.367024,-13.699622,-6.2249246
0.34598213,4.3898506,2.7348354,-2.647648,0.9919614,-4.367024,-13.699622,-6.2249246
0.34754986,4.393716,3.1204612,-2.7584357,0.7959528,-4.0414124,-13.096283,-6.459556
0.34911352,4.397599,3.1204612,-2.7584357,0.7959528,-4.0414124,-13.096283,-6.459556
0.35048798,4.401887,3.474129,-2.8553746,0.57863885,-3.8498764,-12.65575,-6.4739213
0.35185888,4.406202,3.474129,-2.8553746,0.57863885,-3.8498764,-12.65575,-6.4739213
0.35301387,4.4108768,3.7947736,-2.9288778,0.3485417,-3.6056678,-12.253524,-6.4164605
0.354158,4.4155617,3.7947736,-2.9288778,0.3485417,-3.6056678,-12.253524,-6.4164605
0.3550889,4.4206614,4.08133,-2.97788,0.10779194,-3.4715924,-11.856087,-6.315904
0.35603824,4.425946,4.08133,-2.97788,0.10779194,-3.4715924,-11.856087,-6.315904
0.3566723,4.43097,4.332732,-3.005577,-0.14361048,-3.7445314,-11.405977,-6.3350577
0.35731977,4.4362144,4.332732,-3.005577,-0.14361048,-3.7445314,-11.405977,-6.3350577
0.35774478,4.441753,4.5489807,-3.021556,-0.39607814,-4.3766007,-11.061212,-6.229713
0.35815448,4.44731,4.5489807,-3.021556,-0.39607814,-4.3766007,-11.061212,-6.229713
0.35832366,4.4530926,4.7322063,-3.0386002,-0.6442848,-4.5777135,-10.649409,-6.291962
0.358475,4.458882,4.7322063,-3.0386002,-0.6442848,-4.5777135,-10.649409,-6.291962
0.35837093,4.4648175,4.884539,-3.057775,-0.8860998,-4.156334,-10.251971,-6.1770406
0.35824743,4.470794,4.884539,-3.057775,-0.8860998,-4.156334,-10.251971,-6.1770406
0.35787198,4.476883,5.007045,-3.0726886,-1.1183275,-3.643975,-10.070012,-6.133945
0.3574733,4.48303,5.007045,-3.0726886,-1.1183275,-3.643975,-10.070012,-6.133945
0.35683215,4.489238,5.103984,-3.0790803,-1.3452288,-3.3039982,-9.892841,-6.081272
0.3561713,4.495442,5.103984,-3.0790803,-1.3452288,-3.3039982,-9.892841,-6.081272
0.35526946,4.5017223,5.1753564,-3.074819,-1.5657386,-2.9783869,-9.65821,-6.0238113
0.35434207,4.5080347,5.1753564,-3.074819,-1.5657386,-2.9783869,-9.65821,-6.0238113
0.35319147,4.51436,5.2232933,-3.0567098,-1.7766609,-2.9017725,-9.332599,-5.9280434
0.3520137,4.5207157,5.2232933,-3.0567098,-1.7766609,-2.9017725,-9.332599,-5.9280434
0.35062224,4.5270724,5.2499247,-3.0236864,-1.9716042,-2.8491,-9.054871,-5.7029886
0.3492105,4.533421,5.2499247,-3.0236864,-1.9716042,-2.8491,-9.054871,-5.7029886
0.34760362,4.539741,5.2563167,-2.9757495,-2.147373,-2.7820623,-8.690952,-5.6359506
0.3459654,4.546096,5.2563167,-2.9757495,-2.147373,-2.7820623,-8.690952,-5.6359506
0.34416547,4.552386,5.246729,-2.9160948,-2.2975752,-2.944868,-8.279149,-5.391742
0.34234414,4.558672,5.246729,-2.9160948,-2.2975752,-2.944868,-8.279149,-5.391742
0.34036988,4.564883,5.2190323,-2.8468525,-2.4222112,-2.6192567,-7.9487495,-4.999093
0.338365,4.5711207,5.2190323,-2.8468525,-2.4222112,-2.6192567,-7.9487495,-4.999093
0.33622575,4.5772524,5.1710954,-2.7648273,-2.518085,-1.9680338,-7.714118,-4.548983
0.3340645,4.5833836,5.1710954,-2.7648273,-2.518085,-1.9680338,-7.714118,-4.548983
0.3317967,4.5893826,5.103984,-2.662562,-2.590523,-1.532289,-7.5321584,-4.185065
0.3294964,4.595411,5.103984,-2.662562,-2.590523,-1.532289,-7.5321584,-4.185065
0.3271226,4.601255,5.016632,-2.5389912,-2.6437862,-1.3359646,-7.345411,-3.691859
0.32471463,4.607134,5.016632,-2.5389912,-2.6437862,-1.3359646,-7.345411,-3.691859
0.32225782,4.6128116,4.904779,-2.4005067,-2.6704178,-1.2880806,-7.240066,-3.145981
0.3197803,4.6184945,4.904779,-2.4005067,-2.6704178,-1.2880806,-7.240066,-3.145981
0.31725904,4.6239905,4.7694907,-2.2513697,-2.6736135,-1.1683705,-7.1347213,-2.6910827
0.31474623,4.629431,4.7694907,-2.2513697,-2.6736135,-1.1683705,-7.1347213,-2.6910827
0.3121975,4.634688,4.609701,-2.0937107,-2.6533735,-0.9768343,-6.9862804,-2.2409728
0.30963883,4.6399336,4.609701,-2.0937107,-2.6533735,-0.9768343,-6.9862804,-2.2409728
0.3070885,4.644936,4.4264755,-1.9285946,-2.6086323,-0.89064306,-6.8186865,-1.757344
0.30452487,4.6499376,4.4264755,-1.9285946,-2.6086323,-0.89064306,-6.8186865,-1.757344
0.30198488,4.6546817,4.2198143,-1.7560217,-2.5404556,-0.6847417,-6.6415157,-1.2641385
0.2994382,4.659415,4.2198143,-1.7560217,-2.5404556,-0.6847417,-6.6415157,-1.2641385
0.2969397,4.6638827,3.9907823,-1.5802531,-2.4520385,-0.36870706,-6.4260373,-0.8714894
0.29443237,4.6683445,3.9907823,-1.5802531,-2.4520385,-0.36870706,-6.4260373,-0.8714894
0.29201162,4.6725106,3.73938,-1.4002235,-2.3455122,-0.08140286,-6.2728086,-0.5267244
0.28958246,4.6766725,3.73938,-1.4002235,-2.3455122,-0.08140286,-6.2728086,-0.5267244
0.28725526,4.680525,3.4677374,-1.2191285,-2.2315288,0.23942018,-6.05733,-0.20590134
0.2849159,4.6843805,3.4677374,-1.2191285,-2.2315288,0.23942018,-6.05733,-0.20590134
0.28270754,4.6878753,3.1790507,-1.0390987,-2.1100886,0.5650316,-5.6886234,-0.0047884034
0.28048623,4.6913776,3.1790507,-1.0390987,-2.1100886,0.5650316,-5.6886234,-0.0047884034
0.2783904,4.694529,2.874385,-0.8633302,-1.9833221,1.1444284,-5.473145,0.23942018
0.2762914,4.6976757,2.874385,-0.8633302,-1.9833221,1.1444284,-5.473145,0.23942018
0.27426672,4.700526,2.5526752,-0.68649626,-1.8554904,1.5562311,-5.0374002,0.40701428
0.2723384,4.703234,2.5526752,-0.68649626,-1.8554904,1.5562311,-5.0374002,0.40701428
0.2705019,4.705613,2.217117,-0.50966233,-1.7276587,1.9249382,-4.7788267,0.59855044
0.2686545,4.708001,2.217117,-0.50966233,-1.7276587,1.9249382,-4.7788267,0.59855044
0.2669322,4.710003,1.8719712,-0.33602425,-1.6051533,2.4420857,-4.4723687,0.8858546
0.26521584,4.711995,1.8719712,-0.33602425,-1.6051533,2.4420857,-4.4723687,0.8858546
0.26362205,4.7135916,1.5214993,-0.15705982,-1.4858437,2.8203697,-4.2664676,1.115698
0.26202616,4.715188,1.5214993,-0.15705982,-1.4858437,2.8203697,-4.2664676,1.115698
0.26054773,4.716384,1.1667662,0.0251004,-1.3707951,2.954445,-4.0797195,1.2449849
0.25898796,4.717644,1.1667662,0.0251004,-1.3707951,2.954445,-4.0797195,1.2449849
0.25898796,4.717644,1.1667662,0.0251004,-1.3707951,2.954445,-4.0797195,1.2449849
0.25626013,4.7192283,0.8099026,0.20619535,-1.2589424,2.9783869,-3.9217024,1.3503298
0.25502017,4.7197104,0.45197377,0.38302925,-1.1470896,2.9640217,-3.9456444,1.5131354
0.25377303,4.720101,0.45197377,0.38302925,-1.1470896,2.9640217,-3.9456444,1.5131354
0.25266674,4.7200975,0.0972407,0.5545368,-1.0352368,2.5234885,-4.1036615,1.5945383
0.25150406,4.7200947,0.0972407,0.5545368,-1.0352368,2.5234885,-4.1036615,1.5945383
0.25050247,4.7197123,-0.24897024,0.7090002,-0.9223188,2.585738,-4.3526587,1.6280571
0.24946819,4.719318,-0.24897024,0.7090002,-0.9223188,2.585738,-4.3526587,1.6280571
0.24861875,4.7186036,-0.5834633,0.84854984,-0.8083355,2.8921957,-4.525041,1.7621324
0.24861875,4.7186036,-0.5834633,0.84854984,-0.8083355,2.8921957,-4.525041,1.7621324
0.2469082,4.716841,-0.90623844,0.9849037,-0.69009113,2.657564,-4.7070007,1.8435353
0.24612549,4.715732,-0.90623844,0.9849037,-0.69009113,2.657564,-4.7070007,1.8435353
0.2454698,4.714286,-1.2183609,1.1180618,-0.5654552,2.27928,-4.9559975,1.8435353
0.24481353,4.7128425,-1.2183609,1.1180618,-0.5654552,2.27928,-4.9559975,1.8435353
0.24428812,4.7110715,-1.5145044,1.2373713,-0.4333624,1.7860745,-5.3342814,1.8866309
0.24376336,4.7093105,-1.5145044,1.2373713,-0.4333624,1.7860745,-5.3342814,1.8866309
0.2433765,4.707246,-1.7946689,1.3385714,-0.2959433,1.2880806,-5.8466406,1.9297266
0.24298714,4.7051816,-1.7946689,1.3385714,-0.2959433,1.2880806,-5.8466406,1.9297266
0.24274261,4.702843,-2.0545936,1.4205968,-0.14787152,1.1300632,-6.3446345,1.9153614
0.24249569,4.70051,-2.0545936,1.4205968,-0.14787152,1.1300632,-6.3446345,1.9153614
0.24239995,4.6979103,-2.2910821,1.4909043,0.00765708,0.9576807,-6.7947445,1.9297266
0.24230114,4.695318,-2.2910821,1.4909043,0.00765708,0.9576807,-6.7947445,1.9297266
0.2423539,4.6925106,-2.499874,1.5494938,0.16638148,0.8475474,-7.2065473,1.8483237
0.24240321,4.6896863,-2.499874,1.5494938,0.16638148,0.8475474,-7.2065473,1.8483237
0.24260256,4.6866755,-2.6820343,1.5974307,0.32297537,0.7230489,-7.565677,1.7860745
0.24279696,4.6836734,-2.6820343,1.5974307,0.32297537,0.7230489,-7.565677,1.7860745
0.24314469,4.680482,-2.8428893,1.634715,0.4806345,0.63206923,-7.8146744,1.757344
0.24348657,4.677302,-2.8428893,1.634715,0.4806345,0.63206923,-7.8146744,1.757344
0.24396878,4.6739645,-2.983504,1.6634772,0.63509786,0.6368576,-7.833828,1.4556746
0.2444461,4.6706257,-2.983504,1.6634772,0.63509786,0.6368576,-7.833828,1.4556746
0.24505386,4.667159,-3.1060095,1.6879783,0.7842349,0.7517793,-7.97748,1.163582
0.24566007,4.66367,-3.1060095,1.6879783,0.7842349,0.7517793,-7.97748,1.163582
0.2463929,4.660067,-3.2146666,1.7103487,0.9280456,0.842759,-8.025364,0.90979666
0.24712028,4.656462,-3.2146666,1.7103487,0.9280456,0.842759,-8.025364,0.90979666
0.24797247,4.652751,-3.3126707,1.7327193,1.0601383,0.8475474,-8.279149,0.92895025
0.24880883,4.6490817,-3.3126707,1.7327193,1.0601383,0.8475474,-8.279149,0.92895025
0.24976446,4.645277,-3.397892,1.7508289,1.179448,0.8379706,-8.537724,0.8810662
0.25072905,4.641409,-3.397892,1.7508289,1.179448,0.8379706,-8.537724,0.8810662
0.25177515,4.6375127,-3.47033,1.7668078,1.2870396,1.067814,-8.844181,0.81881696
0.25280967,4.6336336,-3.47033,1.7668078,1.2870396,1.067814,-8.844181,0.81881696
0.25404647,4.629265,-3.5289195,1.7849172,1.3818482,0.9528923,-9.141062,0.7038953
0.25404647,4.629265,-3.5289195,1.7849172,1.3818482,0.9528923,-9.141062,0.7038953
0.25625426,4.6215262,-3.5779216,1.7987658,1.4628084,0.36391866,-9.370906,0.62728083
0.25740507,4.6176214,-3.5779216,1.7987658,1.4628084,0.36391866,-9.370906,0.62728083
0.25865522,4.6135926,-3.6141407,1.8019615,1.5309852,-0.19632454,-9.56723,0.7374141
0.25990734,4.609532,-3.6141407,1.8019615,1.5309852,-0.19632454,-9.56723,0.7374141
0.2612204,4.6054482,-3.6343806,1.7859825,1.5938358,-0.3878607,-9.854534,0.7230489
0.26252404,4.6013684,-3.6343806,1.7859825,1.5938358,-0.3878607,-9.854534,0.7230489
0.26388907,4.5972977,-3.6365113,1.7593509,1.6534907,-0.78050977,-10.204087,0.7134721
0.26525247,4.5932064,-3.6365113,1.7593509,1.6534907,-0.78050977,-10.204087,0.7134721
0.2666551,4.589146,-3.6184018,1.7124794,1.7014276,-0.79487497,-10.606314,0.60812724
0.2680508,4.585082,-3.6184018,1.7124794,1.7014276,-0.79487497,-10.606314,0.60812724
0.26947886,4.5810738,-3.5768564,1.6464329,1.7387118,-0.7422025,-10.788273,0.49799395
0.27090308,4.577053,-3.5768564,1.6464329,1.7387118,-0.7422025,-10.788273,0.49799395
0.27235404,4.573129,-3.514006,1.5729296,1.7642782,-1.0726024,-10.94629,0.37349546
0.27380753,4.5691776,-3.514006,1.5729296,1.7642782,-1.0726024,-10.94629,0.37349546
0.27528176,4.565324,-3.4341109,1.4898391,1.7813224,-1.1731589,-11.066,0.23463176
0.2767457,4.561478,-3.4341109,1.4898391,1.7813224,-1.1731589,-11.066,0.23463176
0.27822003,4.557762,-3.3371718,1.3929,1.7887793,-1.1779473,-11.21444,0.19153613
0.27969787,4.55402,-3.3371718,1.3929,1.7887793,-1.1779473,-11.21444,0.19153613
0.281178,4.5504317,-3.2199929,1.2874388,1.7855835,-1.2162545,-11.286267,0.11971009
0.2826534,4.54684,-3.2199929,1.2874388,1.7855835,-1.2162545,-11.286267,0.11971009
0.2841237,4.5434146,-3.083639,1.1766512,1.7728003,-1.2066777,-11.300632,-0.033518825
0.28559253,4.539979,-3.083639,1.1766512,1.7728003,-1.2066777,-11.300632,-0.033518825
0.28704667,4.5367365,-2.9323714,1.0594722,1.7525603,-1.2737153,-11.171345,-0.25857377
0.28850576,4.533472,-2.9323714,1.0594722,1.7525603,-1.2737153,-11.171345,-0.25857377
0.2899441,4.530414,-2.7683208,0.94122785,1.7248634,-1.2497733,-11.161768,-0.40222588
0.29138243,4.527347,-2.7683208,0.94122785,1.7248634,-1.2497733,-11.161768,-0.40222588
0.29281652,4.524447,-2.5946827,0.8219182,1.6897097,-1.2306197,-11.109096,-0.59376204
0.2942171,4.5216074,-2.5946827,0.8219182,1.6897097,-1.2306197,-11.109096,-0.59376204
0.29560822,4.5189457,-2.4167833,0.7047391,1.6449685,-1.2018893,-11.061212,-0.641646
0.29697663,4.516321,-2.4167833,0.7047391,1.6449685,-1.2018893,-11.061212,-0.641646
0.29832935,4.5138783,-2.2367537,0.59395164,1.5949011,-1.2785037,-10.912771,-0.770933
0.29967913,4.5114355,-2.2367537,0.59395164,1.5949011,-1.2785037,-10.912771,-0.770933
0.3009938,4.5092063,-2.0577893,0.48849043,1.5384421,-1.364695,-10.817003,-0.80924016
0.30230466,4.506979,-2.0577893,0.48849043,1.5384421,-1.364695,-10.817003,-0.80924016
0.30358595,4.5049515,-1.883086,0.39261663,1.4830483,-1.5466543,-10.70687,-0.90021986
0.3048638,4.502926,-1.883086,0.39261663,1.4830483,-1.5466543,-10.70687,-0.90021986
0.3060943,4.50109,-1.7147741,0.3041997,1.4255241,-1.6089035,-10.596737,-1.163582
0.30734757,4.4992185,-1.7147741,0.3041997,1.4255241,-1.6089035,-10.596737,-1.163582
0.3085112,4.497601,-1.552854,0.2200438,1.3669345,-1.6519991,-10.572795,-1.2689269
0.30969217,4.4959583,-1.552854,0.2200438,1.3669345,-1.6519991,-10.572795,-1.2689269
0.3108322,4.4944725,-1.4015864,0.14014897,1.3072797,-1.5466543,-10.510546,-1.4317327
0.31195962,4.4930015,-1.4015864,0.14014897,1.3072797,-1.5466543,-10.510546,-1.4317327
0.3130399,4.491687,-1.2609714,0.06771098,1.2444291,-1.7142484,-10.208876,-1.5945383
0.31411806,4.4903746,-1.2609714,0.06771098,1.2444291,-1.7142484,-10.208876,-1.5945383
0.31514332,4.48919,-1.1331397,-0.00046594674,1.1805133,-1.460463,-10.0269165,-1.7717092
0.31616247,4.488013,-1.1331397,-0.00046594674,1.1805133,-1.460463,-10.0269165,-1.7717092
0.31714338,4.486978,-1.0191565,-0.06544708,1.1123363,-1.0821792,-10.218452,-1.4939818
0.31812036,4.485947,-1.0191565,-0.06544708,1.1123363,-1.0821792,-10.218452,-1.4939818
0.31906945,4.4850163,-0.91476053,-0.11764504,1.0409636,-1.1779473,-10.218452,-1.4891934
0.31996515,4.4841375,-0.91476053,-0.11764504,1.0409636,-1.1779473,-10.218452,-1.4891934
0.3208115,4.483346,-0.81569093,-0.16238615,0.9631993,-1.6519991,-9.844957,-1.7764976
0.32165548,4.4825563,-0.81569093,-0.16238615,0.9631993,-1.6519991,-9.844957,-1.7764976
0.3224343,4.4818716,-0.7240782,-0.20499672,0.88436973,-1.4317327,-9.634268,-1.7381904
0.32321638,4.481184,-0.7240782,-0.20499672,0.88436973,-1.4317327,-9.634268,-1.7381904
0.3239351,4.480613,-0.6420528,-0.24973783,0.80554014,-1.7477672,-9.739613,-1.6903064
0.3246568,4.4800406,-0.6420528,-0.24973783,0.80554014,-1.7477672,-9.739613,-1.6903064
0.32530478,4.4795575,-0.5674843,-0.29447892,0.7277759,-1.7669208,-9.610326,-1.7956513
0.32595435,4.4790735,-0.5674843,-0.29447892,0.7277759,-1.7669208,-9.610326,-1.7956513
0.32653645,4.478678,-0.49824214,-0.33922005,0.65001154,-1.6567876,-9.591172,-1.7908629
0.327121,4.478281,-0.49824214,-0.33922005,0.65001154,-1.6567876,-9.591172,-1.7908629
0.32763132,4.4779496,-0.43752205,-0.3765043,0.5733125,-1.5562311,-9.514558,-1.9536686
0.32814127,4.4776187,-0.43752205,-0.3765043,0.5733125,-1.5562311,-9.514558,-1.9536686
0.3285872,4.477353,-0.3821283,-0.40633172,0.5019398,-1.6663644,-9.385271,-2.006341
0.32903498,4.4770875,-0.3821283,-0.40633172,0.5019398,-1.6663644,-9.385271,-2.006341
0.32941705,4.4768753,-0.33845246,-0.43083277,0.43163234,-1.733402,-9.370906,-2.0685902
0.3298,4.4766626,-0.33845246,-0.43083277,0.43163234,-1.733402,-9.370906,-2.0685902
0.3301219,4.476494,-0.304364,-0.45000756,0.3666512,-1.6663644,-9.385271,-2.1021092
0.33044645,4.4763236,-0.304364,-0.45000756,0.3666512,-1.6663644,-9.385271,-2.1021092
0.33071366,4.476194,-0.27666712,-0.46492124,0.30486587,-1.5466543,-9.509769,-2.0925324
0.3309813,4.4760647,-0.27666712,-0.46492124,0.30486587,-1.5466543,-9.509769,-2.0925324
0.3311938,4.475958,-0.25429657,-0.47344336,0.24840684,-1.5801731,-9.591172,-2.2026656
0.33140758,4.4758506,-0.25429657,-0.47344336,0.24840684,-1.5801731,-9.591172,-2.2026656
0.33157507,4.4757686,-0.2351218,-0.47663915,0.20046994,-1.7525556,-9.629479,-2.2122424
0.33174258,4.475687,-0.2351218,-0.47663915,0.20046994,-1.7525556,-9.629479,-2.2122424
0.33187026,4.4756145,-0.21701232,-0.4787697,0.1599899,-1.9009962,-9.653421,-2.3558946
0.3319982,4.4755425,-0.21701232,-0.4787697,0.1599899,-1.9009962,-9.653421,-2.3558946
0.3320947,4.4754934,-0.19783755,-0.48303074,0.1269667,-2.0733786,-9.619903,-2.3463178
0.33219177,4.475445,-0.19783755,-0.48303074,0.1269667,-2.0733786,-9.619903,-2.3463178
0.33226824,4.47543,-0.17972806,-0.4904876,0.103530884,-2.2409728,-9.739613,-2.27928
0.33234432,4.4754157,-0.17972806,-0.4904876,0.103530884,-2.2409728,-9.739613,-2.27928
0.33241484,4.475442,-0.16268381,-0.50433606,0.09074771,-2.504335,-9.888053,-2.207454
0.3324857,4.475468,-0.16268381,-0.50433606,0.09074771,-2.504335,-9.888053,-2.207454
0.3325831,4.4755616,-0.14350906,-0.5256413,0.08542138,-2.791639,-10.156203,-2.006341
0.33268037,4.4756556,-0.14350906,-0.5256413,0.08542138,-2.791639,-10.156203,-2.006341
0.33282506,4.475807,-0.11687745,-0.55759925,0.09287824,-3.0119057,-10.520123,-1.8148049
0.3329705,4.47596,-0.11687745,-0.55759925,0.09287824,-3.0119057,-10.520123,-1.8148049
0.33315793,4.476166,-0.08065846,-0.59594876,0.10992247,-3.145981,-10.884041,-1.6567876
0.33334535,4.4763727,-0.08065846,-0.59594876,0.10992247,-3.145981,-10.884041,-1.6567876
0.33358988,4.4766397,-0.03804788,-0.6428204,0.13335828,-3.4380736,-11.305421,-1.4269443
0.33383548,4.476909,-0.03804788,-0.6428204,0.13335828,-3.4380736,-11.305421,-1.4269443
0.33412704,4.4772506,0.017345872,-0.7035405,0.16212043,-3.5290532,-11.827356,-1.13964
0.33441854,4.4775934,0.017345872,-0.7035405,0.16212043,-3.5290532,-11.827356,-1.13964
0.33476126,4.4780273,0.087653324,-0.77597845,0.1962089,-3.643975,-12.368446,-0.9528923
0.3351042,4.478462,0.087653324,-0.77597845,0.1962089,-3.643975,-12.368446,-0.9528923
0.33550406,4.4790063,0.17180921,-0.8622649,0.23242788,-3.8355112,-12.899959,-0.8331822
0.33590513,4.479553,0.17180921,-0.8622649,0.23242788,-3.8355112,-12.899959,-0.8331822
0.3363735,4.480233,0.27300933,-0.96559554,0.27184266,-4.1132383,-13.402741,-0.7230489
0.33684134,4.4809146,0.27300933,-0.96559554,0.27184266,-4.1132383,-13.402741,-0.7230489
0.33738327,4.4817543,0.39018843,-1.0849051,0.3101922,-4.4915223,-13.929465,-0.62728083
0.33793107,4.482606,0.39018843,-1.0849051,0.3101922,-4.4915223,-13.929465,-0.62728083
0.33853158,4.4836087,0.52760756,-1.2287159,0.3485417,-4.783615,-14.4609785,-0.60333884
0.33913988,4.484628,0.52760756,-1.2287159,0.3485417,-4.783615,-14.4609785,-0.60333884
0.33982,4.4858665,0.6884625,-1.3970276,0.38582596,-4.88896,-15.016433,-0.50757074
0.3404995,4.4871078,0.6884625,-1.3970276,0.38582596,-4.88896,-15.016433,-0.50757074
0.34124422,4.4885917,0.8727532,-1.5845141,0.41671863,-4.9943047,-15.524004,-0.47405192
0.34199464,4.4900937,0.8727532,-1.5845141,0.41671863,-4.9943047,-15.524004,-0.47405192
0.34281683,4.491863,1.0815451,-1.7869145,0.44335026,-5.506664,-16.04594,-0.41180268
0.34281683,4.491863,1.0815451,-1.7869145,0.44335026,-5.506664,-16.04594,-0.41180268
0.3446082,4.4960117,1.3137727,-2.0020978,0.46678606,-5.995081,-16.347609,-0.521936
0.3446082,4.4960117,1.3137727,-2.0020978,0.46678606,-5.995081,-16.347609,-0.521936
0.34587598,4.498979,1.3137727,-2.0020978,0.46678606,-5.995081,-16.347609,-0.521936
0.34673762,4.501127,1.5683709,-2.2247381,0.49341768,-6.315904,-16.25184,-0.8714894
0.34843618,4.505539,1.8421439,-2.4601617,0.52217984,-6.411672,-16.371552,-1.1444284
0.3495394,4.508508,1.8421439,-2.4601617,0.52217984,-6.411672,-16.371552,-1.1444284
0.3495394,4.508508,1.8421439,-2.4601617,0.52217984,-6.411672,-16.371552,-1.1444284
0.3495394,4.508508,1.8421439,-2.4601617,0.52217984,-6.411672,-16.371552,-1.1444284
0.3527065,4.5179825,2.4717152,-2.9949243,0.53602827,-6.3206925,-16.606182,-1.6807296
0.3538166,4.5216,2.4717152,-2.9949243,0.53602827,-6.3206925,-16.606182,-1.6807296
0.3549509,4.525673,2.8221872,-3.2782848,0.518984,-6.2823853,-16.510414,-1.9009962
0.35607135,4.529752,2.8221872,-3.2782848,0.518984,-6.2823853,-16.510414,-1.9009962
0.35720885,4.534329,3.1907687,-3.5637755,0.48276502,-6.315904,-16.304514,-2.0829554
0.3583289,4.538908,3.1907687,-3.5637755,0.48276502,-6.315904,-16.304514,-2.0829554
0.359395,4.543993,3.578525,-3.8482013,0.42737126,-6.0381765,-16.141708,-2.2697031
0.3604415,4.549109,3.578525,-3.8482013,0.42737126,-6.0381765,-16.141708,-2.2697031
0.36133668,4.5546427,3.9790645,-4.126235,0.3517375,-5.78918,-15.945383,-2.4516625
0.3621885,4.5601735,3.9790645,-4.126235,0.3517375,-5.78918,-15.945383,-2.4516625
0.36302194,4.5660963,4.3859954,-4.390421,0.25692895,-5.731719,-15.662868,-2.719813
0.3638415,4.572026,4.3859954,-4.390421,0.25692895,-5.731719,-15.662868,-2.719813
0.36465454,4.579033,4.7886653,-4.6418233,0.14081514,-5.6551046,-15.275007,-3.083732
0.3653087,4.584894,4.7886653,-4.6418233,0.14081514,-5.6551046,-15.275007,-3.083732
0.36589825,4.5918117,5.1796174,-4.878312,0.0065918155,-5.449203,-14.777013,-3.4380736
0.3664559,4.5987406,5.1796174,-4.878312,0.0065918155,-5.449203,-14.777013,-3.4380736
0.36684716,4.6061373,5.55246,-5.100952,-0.14680627,-5.109226,-14.264654,-3.691859
0.36720148,4.613529,5.55246,-5.100952,-0.14680627,-5.109226,-14.264654,-3.691859
0.3673641,4.6213703,5.9008017,-5.3033524,-0.31724858,-4.6926355,-13.618219,-3.9695864
0.36748606,4.629205,5.9008017,-5.3033524,-0.31724858,-4.6926355,-13.618219,-3.9695864
0.3673904,4.637429,6.224642,-5.482317,-0.50793093,-4.4005427,-13.019669,-4.2185836
0.3672537,4.6454954,6.224642,-5.482317,-0.50793093,-4.4005427,-13.019669,-4.2185836
0.36687222,4.654083,6.51972,-5.6378455,-0.71352696,-4.0557775,-12.334928,-4.3239284
0.36643317,4.662855,6.51972,-5.6378455,-0.71352696,-4.0557775,-12.334928,-4.3239284
0.36574408,4.6717515,6.7849708,-5.7699385,-0.93190616,-3.8977604,-11.822568,-4.4484267
0.36500892,4.6805873,6.7849708,-5.7699385,-0.93190616,-3.8977604,-11.822568,-4.4484267
0.36399072,4.6897554,7.0203943,-5.87753,-1.1630685,-3.7780502,-11.33894,-4.510676
0.362903,4.6990495,7.0203943,-5.87753,-1.1630685,-3.7780502,-11.33894,-4.510676
0.3615549,4.7083464,7.224925,-5.9606204,-1.4016877,-3.7684734,-10.951078,-4.6686935
0.3601485,4.7176566,7.224925,-5.9606204,-1.4016877,-3.7684734,-10.951078,-4.6686935
0.35845146,4.727191,7.3985634,-6.016014,-1.6392418,-4.1036615,-10.6398325,-4.8123455
0.3566981,4.7367077,7.3985634,-6.016014,-1.6392418,-4.1036615,-10.6398325,-4.8123455
0.35466325,4.746361,7.537048,-6.0447764,-1.8682736,-4.390966,-10.46745,-5.0038815
0.35257554,4.7559733,7.537048,-6.0447764,-1.8682736,-4.390966,-10.46745,-5.0038815
0.3502109,4.7656736,7.6403785,-6.0490375,-2.0813265,-4.0557775,-10.28549,-4.999093
0.34779197,4.775339,7.6403785,-6.0490375,-2.0813265,-4.0557775,-10.28549,-4.999093
0.34510815,4.7850513,7.708555,-6.0202756,-2.2815962,-3.643975,-9.969456,-4.960786
0.34236577,4.7947454,7.708555,-6.0202756,-2.2815962,-3.643975,-9.969456,-4.960786
0.33939043,4.8044,7.7447743,-5.9574246,-2.4648218,-3.2034419,-9.619903,-4.735731
0.33636415,4.814016,7.7447743,-5.9574246,-2.4648218,-3.2034419,-9.619903,-4.735731
0.33310518,4.82358,7.7532964,-5.862616,-2.6395252,-2.4181437,-9.150639,-4.4244847
0.3297945,4.8331127,7.7532964,-5.862616,-2.6395252,-2.4181437,-9.150639,-4.4244847
0.32626784,4.842543,7.734122,-5.7294583,-2.8067715,-1.4987702,-8.552089,-4.156334
0.32269233,4.851941,7.734122,-5.7294583,-2.8067715,-1.4987702,-8.552089,-4.156334
0.31892395,4.8611894,7.682989,-5.552624,-2.9676266,-0.79008657,-7.723695,-3.9217024
0.31511024,4.8704047,7.682989,-5.552624,-2.9676266,-0.79008657,-7.723695,-3.9217024
0.3111287,4.8794227,7.5956373,-5.334245,-3.1178288,-0.20111294,-6.847417,-3.6008794
0.30710578,4.888408,7.5956373,-5.334245,-3.1178288,-0.20111294,-6.847417,-3.6008794
0.3029339,4.8971505,7.4720664,-5.075386,-3.2605743,0.48841715,-5.971139,-3.2848446
0.29872492,4.905862,7.4720664,-5.075386,-3.2605743,0.48841715,-5.971139,-3.2848446
0.29437786,4.914296,7.316538,-4.785634,-3.4001238,1.1683705,-5.0278234,-2.585738
0.29000273,4.922692,7.316538,-4.785634,-3.4001238,1.1683705,-5.0278234,-2.585738
0.28548214,4.930814,7.1311817,-4.46925,-3.5343473,2.7581203,-3.7445314,-1.934515
0.28094226,4.9388905,7.1311817,-4.46925,-3.5343473,2.7581203,-3.7445314,-1.934515
0.27632207,4.9466314,6.9085417,-4.114517,-3.657918,2.8395233,-2.6048915,-1.4460979
0.27167776,4.9543467,6.9085417,-4.114517,-3.657918,2.8395233,-2.6048915,-1.4460979
0.26699656,4.9616957,6.6464868,-3.7288916,-3.7687054,3.4476504,-1.3455414,-0.9720459
0.26229537,4.9690213,6.6464868,-3.7288916,-3.7687054,3.4476504,-1.3455414,-0.9720459
0.25759304,4.9759474,6.3428864,-3.3368742,-3.8741665,4.7500963,-0.06703765,-0.41180268
0.25287485,4.9828544,6.3428864,-3.3368742,-3.8741665,4.7500963,-0.06703765,-0.41180268
0.24815492,4.989313,5.989218,-2.933139,-3.9785626,8.279149,-0.038307227,1.3790601
0.2435321,4.995608,5.989218,-2.933139,-3.9785626,8.279149,-0.038307227,1.3790601
0.23885642,5.0015273,5.5961356,-2.45377,-4.056327,6.172252,-0.6560113,1.982399
0.23406522,5.0075703,5.5961356,-2.45377,-4.056327,6.172252,-0.6560113,1.982399
0.22946024,5.01295,5.1924005,-1.9616178,-4.1245036,6.3829417,-0.15322891,2.3463178
0.22487882,5.018289,5.1924005,-1.9616178,-4.1245036,6.3829417,-0.15322891,2.3463178
0.22035563,5.023141,4.779078,-1.4982277,-4.183093,6.4787097,1.043872,2.3223755
0.21580863,5.0280123,4.779078,-1.4982277,-4.183093,6.4787097,1.043872,2.3223755
0.21141258,5.0323057,4.3337975,-1.0433599,-4.213986,6.7372837,2.0925324,2.4420857
0.20701317,5.036601,4.3337975,-1.0433599,-4.213986,6.7372837,2.0925324,2.4420857
0.20277286,5.040309,3.8352537,-0.5895572,-4.205464,7.4028716,2.9113493,2.8203697
0.19853505,5.044017,3.8352537,-0.5895572,-4.205464,7.4028716,2.9113493,2.8203697
0.19450235,5.0470953,3.2834468,-0.13255873,-4.1564617,6.5265937,3.2273839,3.0071173
0.19047715,5.0501738,3.2834468,-0.13255873,-4.1564617,6.5265937,3.2273839,3.0071173
0.18666947,5.0525928,2.6858332,0.3041997,-4.0765667,6.38773,3.0693667,3.4620156
0.18286933,5.0550146,2.6858332,0.3041997,-4.0765667,6.38773,3.0693667,3.4620156
0.17930257,5.056754,2.0594578,0.70367384,-3.9721708,6.7803793,2.585738,4.0078936
0.17574263,5.058498,2.0594578,0.70367384,-3.9721708,6.7803793,2.585738,4.0078936
0.17243183,5.059555,1.4160382,1.0722554,-3.8422086,6.6271505,2.815581,4.122815
0.16912328,5.060619,1.4160382,1.0722554,-3.8422086,6.6271505,2.815581,4.122815
0.16608487,5.0609913,0.76196575,1.4259231,-3.6845496,6.847417,2.585738,4.6255975
0.16304737,5.061371,0.76196575,1.4259231,-3.6845496,6.847417,2.585738,4.6255975
0.16304737,5.061371,0.76196575,1.4259231,-3.6845496,6.847417,2.585738,4.6255975
0.15751036,5.060749,0.1004365,1.7593509,-3.501324,7.1490865,2.4420857,5.109226
0.15507548,5.059756,-0.5653538,2.0821261,-3.2925322,7.101202,2.2697031,5.4779334
0.15260318,5.0587573,-0.5653538,2.0821261,-3.2925322,7.101202,2.2697031,5.4779334
0.15050283,5.0570984,-1.2311441,2.3953137,-3.0560434,6.373365,1.7525556,5.6551046
0.14837578,5.0554304,-1.2311441,2.3953137,-3.0560434,6.373365,1.7525556,5.6551046
0.14657888,5.0530853,-1.8894775,2.6786742,-2.7982495,5.779603,1.1204864,5.8083334
0.14477398,5.050748,-1.8894775,2.6786742,-2.7982495,5.779603,1.1204864,5.8083334
0.14330414,5.0477715,-2.527571,2.9140975,-2.522346,5.171476,0.47884035,5.9807158
0.1418149,5.0447836,-2.527571,2.9140975,-2.522346,5.171476,0.47884035,5.9807158
0.14065427,5.041192,-3.1411633,3.1015842,-2.2336593,4.4196963,-0.5650316,6.090849
0.13947715,5.037595,-3.1411633,3.1015842,-2.2336593,4.4196963,-0.5650316,6.090849
0.13861945,5.0334387,-3.7227976,3.242199,-1.9353853,3.6296098,-1.7190368,6.14831
0.13774146,5.0292616,-3.7227976,3.242199,-1.9353853,3.6296098,-1.7190368,6.14831
0.13718289,5.024576,-4.2660823,3.3402033,-1.6211323,2.8874073,-3.0071173,6.339846
0.13660403,5.019865,-4.2660823,3.3402033,-1.6211323,2.8874073,-3.0071173,6.339846
0.13634296,5.0146923,-4.7592998,3.3977277,-1.289835,2.2122424,-4.357447,6.2823853
0.13606314,5.00951,-4.7592998,3.3977277,-1.289835,2.2122424,-4.357447,6.2823853
0.13611037,5.0039244,-5.199254,3.4264898,-0.94042826,1.4556746,-5.717354,6.26802
0.13613836,4.9983053,-5.199254,3.4264898,-0.94042826,1.4556746,-5.717354,6.26802
0.13650262,4.992357,-5.5795536,3.4296856,-0.57291204,0.770933,-6.9767036,6.1387334
0.13684897,4.986371,-5.5795536,3.4296856,-0.57291204,0.770933,-6.9767036,6.1387334
0.13753082,4.9800987,-5.8991327,3.407315,-0.19048211,0.61291564,-8.169016,5.9807158
0.13819304,4.973817,-5.8991327,3.407315,-0.19048211,0.61291564,-8.169016,5.9807158
0.13919437,4.9673257,-6.1579924,3.366835,0.20046994,0.29688102,-9.251195,5.707777
0.14018255,4.9607844,-6.1579924,3.366835,0.20046994,0.29688102,-9.251195,5.707777
0.141502,4.954098,-6.3561316,3.3114412,0.59674835,0.33997664,-10.386047,5.4779334
0.1428098,4.947366,-6.3561316,3.3114412,0.59674835,0.33997664,-10.386047,5.4779334
0.14445601,4.9405365,-6.4903545,3.2475255,0.98876566,0.05746084,-11.200075,5.1762643
0.14608346,4.9336996,-6.4903545,3.2475255,0.98876566,0.05746084,-11.200075,5.1762643
0.14805645,4.9268227,-6.571315,3.181479,1.3743913,-0.641646,-11.927913,4.855441
0.15002282,4.919896,-6.571315,3.181479,1.3743913,-0.641646,-11.927913,4.855441
0.15231852,4.912992,-6.6064687,3.1122367,1.751495,-1.0821792,-12.382812,4.4963107
0.1546099,4.906038,-6.6064687,3.1122367,1.751495,-1.0821792,-12.382812,4.4963107
0.1572323,4.899134,-6.599012,3.0429945,2.1200764,-1.5179238,-12.665327,4.074931
0.15984192,4.892206,-6.599012,3.0429945,2.1200764,-1.5179238,-12.665327,4.074931
0.16275483,4.885353,-6.5617275,2.9737525,2.4769402,-1.4987702,-12.861651,3.9025488
0.16566813,4.8784475,-6.5617275,2.9737525,2.4769402,-1.4987702,-12.861651,3.9025488
0.16887607,4.8716545,-6.502073,2.9087713,2.8146288,-1.8435353,-13.034034,3.4045548
0.17208597,4.8648076,-6.502073,2.9087713,2.8146288,-1.8435353,-13.034034,3.4045548
0.17557687,4.858085,-6.427504,2.8501818,3.1320777,-2.1452048,-13.158532,2.9831753
0.17907017,4.851309,-6.427504,2.8501818,3.1320777,-2.1452048,-13.158532,2.9831753
0.1828258,4.8446465,-6.3412175,2.7883964,3.4218297,-2.3511062,-13.2351465,2.552219
0.18656504,4.837962,-6.3412175,2.7883964,3.4218297,-2.3511062,-13.2351465,2.552219
0.19054851,4.8314123,-6.246409,2.7223501,3.6806889,-2.5905263,-13.215993,2.1260512
0.19453287,4.824802,-6.246409,2.7223501,3.6806889,-2.5905263,-13.215993,2.1260512
0.19870774,4.8183336,-6.146274,2.6563036,3.9054596,-2.6479871,-13.158532,1.6998832
0.20287015,4.811812,-6.146274,2.6563036,3.9054596,-2.6479871,-13.158532,1.6998832
0.2072695,4.8054037,-6.041878,2.589192,4.098273,-2.753332,-13.062764,1.364695
0.21157816,4.798992,-6.041878,2.589192,4.098273,-2.753332,-13.062764,1.364695
0.2158791,4.792592,-5.9300256,2.524211,4.255932,-2.6527755,-12.899959,1.1013328
0.22020955,4.786196,-5.9300256,2.524211,4.255932,-2.6527755,-12.899959,1.1013328
0.22461793,4.7798615,-5.813912,2.460295,4.378437,-2.6192567,-12.832921,0.866701
0.22883022,4.773799,-5.813912,2.460295,4.378437,-2.6192567,-12.832921,0.866701
0.23348716,4.767295,-5.6914062,2.3995748,4.462593,-2.4660277,-12.780249,0.56982
0.2379475,4.7610326,-5.6914062,2.3995748,4.462593,-2.4660277,-12.780249,0.56982
0.24244715,4.7548904,-5.5582485,2.3409853,4.5115952,-2.4708161,-12.751518,0.30166942
0.24691701,4.7487516,-5.5582485,2.3409853,4.5115952,-2.4708161,-12.751518,0.30166942
0.25141418,4.74273,-5.414438,2.2855916,4.5286393,-2.5330653,-12.761095,-0.047884032
0.25141418,4.74273,-5.414438,2.2855916,4.5286393,-2.5330653,-12.761095,-0.047884032
0.26098642,4.730142,-5.262105,2.2280674,4.514791,-2.6288335,-12.717999,-0.29688102
0.26506424,4.724716,-5.262105,2.2280674,4.514791,-2.6288335,-12.717999,-0.29688102
0.2694118,4.7190256,-5.1001844,2.1673472,4.47005,-2.6144683,-12.674904,-0.59855044
0.27375147,4.713306,-5.1001844,2.1673472,4.47005,-2.6144683,-12.674904,-0.59855044
0.27818993,4.7075195,-4.9297423,2.102366,4.3986773,-2.528277,-12.665327,-0.79966336
0.27818993,4.7075195,-4.9297423,2.102366,4.3986773,-2.528277,-12.665327,-0.79966336
0.27818993,4.7075195,-4.9297423,2.102366,4.3986773,-2.528277,-12.665327,-0.79966336
0.29043955,4.6915607,-4.748647,2.0341892,4.300673,-2.4133554,-12.770672,-0.866701
0.29440555,4.6863832,-4.5600953,1.9681427,4.1792326,-2.3798366,-12.785037,-1.0151415
0.298408,4.6811275,-4.5600953,1.9681427,4.1792326,-2.3798366,-12.785037,-1.0151415
0.3022749,4.6760597,-4.3630214,1.9106185,4.0428786,-2.3223755,-12.780249,-1.1779473
0.30619255,4.670895,-4.3630214,1.9106185,4.0428786,-2.3223755,-12.780249,-1.1779473
0.30987364,4.666036,-4.1616864,1.8637469,3.8916113,-2.3989902,-12.885593,-1.3263878
0.31352988,4.6611824,-4.1616864,1.8637469,3.8916113,-2.3989902,-12.885593,-1.3263878
0.31703514,4.6565027,-3.9582212,1.8232667,3.7243648,-2.4660277,-12.832921,-1.4891934
0.32054114,4.651796,-3.9582212,1.8232667,3.7243648,-2.4660277,-12.832921,-1.4891934
0.32387343,4.647286,-3.752625,1.7849172,3.547531,-2.566584,-12.899959,-1.7046716
0.32717976,4.642785,-3.752625,1.7849172,3.547531,-2.566584,-12.899959,-1.7046716
0.3302819,4.6385174,-3.5480943,1.7465677,3.3621747,-2.681506,-12.77546,-1.9680338
0.3334,4.634202,-3.5480943,1.7465677,3.3621747,-2.681506,-12.77546,-1.9680338
0.3363023,4.6301217,-3.3424983,1.707153,3.1651008,-2.7964275,-12.770672,-2.0638018
0.33921063,4.626009,-3.3424983,1.707153,3.1651008,-2.7964275,-12.770672,-2.0638018
0.3419149,4.622112,-3.136902,1.6624119,2.9616354,-2.896984,-12.689269,-2.1212628
0.34460276,4.6182156,-3.136902,1.6624119,2.9616354,-2.896984,-12.689269,-2.1212628
0.34707695,4.6145496,-2.9291756,1.6112791,2.7496479,-2.9640217,-12.6222315,-2.3463178
0.3495608,4.6108484,-2.9291756,1.6112791,2.7496479,-2.9640217,-12.6222315,-2.3463178
0.35181957,4.607397,-2.717188,1.5548202,2.533399,-3.0550013,-12.612655,-2.4756045
0.35407603,4.6039295,-2.717188,1.5548202,2.533399,-3.0550013,-12.612655,-2.4756045
0.3561035,4.600711,-2.499874,1.4909043,2.307563,-3.040636,-12.6222315,-2.4851813
0.35812074,4.597491,-2.499874,1.4909043,2.307563,-3.040636,-12.6222315,-2.4851813
0.3599147,4.5945187,-2.2772338,1.4184663,2.0764008,-3.0885203,-12.741941,-2.542642
0.36169404,4.591555,-2.2772338,1.4184663,2.0764008,-3.0885203,-12.741941,-2.542642
0.3632508,4.5888505,-2.045006,1.3353757,1.8431077,-3.1364043,-12.885593,-2.456451
0.3647965,4.5861516,-2.045006,1.3353757,1.8431077,-3.1364043,-12.885593,-2.456451
0.36611494,4.5837393,-1.8053216,1.2426977,1.6098148,-3.2034419,-12.966996,-2.4037786
0.36742425,4.5813336,-1.8053216,1.2426977,1.6098148,-3.2034419,-12.966996,-2.4037786
0.3685265,4.579199,-1.5592455,1.1404322,1.3754567,-3.4715924,-12.789825,-2.4277205
0.36961943,4.5770726,-1.5592455,1.1404322,1.3754567,-3.4715924,-12.789825,-2.4277205
0.37051225,4.57523,-1.3089083,1.0328406,1.1453595,-3.5577838,-12.5264635,-2.585738
0.3713965,4.5733967,-1.3089083,1.0328406,1.1453595,-3.5577838,-12.5264635,-2.585738
0.37203956,4.5719233,-1.0596365,0.90926987,0.91632766,-3.0454245,-13.484144,-2.006341
0.37203956,4.5719233,-1.0596365,0.90926987,0.91632766,-3.0454245,-13.484144,-2.006341
0.37320215,4.569159,-0.8050383,0.788895,0.69581795,-3.715801,-13.804967,-2.0111294
0.3736556,4.56796,-0.8050383,0.788895,0.69581795,-3.715801,-13.804967,-2.0111294
0.3739016,4.5671315,-0.5333958,0.66532433,0.48489556,-3.9456444,-13.421895,-2.384625
0.37415338,4.5662804,-0.5333958,0.66532433,0.48489556,-3.9456444,-13.421895,-2.384625
0.37426215,4.565722,-0.2564271,0.5257747,0.27823424,-4.1180267,-12.737153,-2.6719291
0.37437034,4.5651627,-0.2564271,0.5257747,0.27823424,-4.1180267,-12.737153,-2.6719291
0.37432754,4.564929,0.010954284,0.37983346,0.08648665,-4.3287168,-12.62702,-2.6862943
0.3742844,4.5646954,0.010954284,0.37983346,0.08648665,-4.3287168,-12.62702,-2.6862943
0.37404478,4.564816,0.2655525,0.22217433,-0.095673576,-3.8498764,-12.703634,-2.4995465
0.37380472,4.564937,0.2655525,0.22217433,-0.095673576,-3.8498764,-12.703634,-2.4995465
0.37338665,4.5654516,0.5148244,0.062384658,-0.27250746,-3.122039,-13.230358,-1.8579005
0.37296864,4.565965,0.5148244,0.062384658,-0.27250746,-3.122039,-13.230358,-1.8579005
0.37239948,4.566797,0.76622677,-0.079295516,-0.44614556,-3.265691,-13.345281,-1.8531121
0.37183022,4.567627,0.76622677,-0.079295516,-0.44614556,-3.265691,-13.345281,-1.8531121
