Pitch,Roll,Gyro_X,Gyro_Y,Gyro_Z,Accel_X,Accel_Y,Accel_Z
0.18913923,4.5984735,-0.0692534,0.034677897,0.17378856,-0.20590134,-9.792285,-1.0726024
0.18916486,4.5983953,-0.07244919,0.035743162,0.1695275,-0.19632454,-9.849746,-1.0582372
0.18918948,4.598321,-0.07244919,0.035743162,0.1695275,-0.19632454,-9.849746,-1.0582372
0.18921055,4.598244,-0.075644985,0.03787369,0.16526645,-0.22505496,-9.792285,-1.0199299
0.18923174,4.5981674,-0.075644985,0.03787369,0.16526645,-0.22505496,-9.792285,-1.0199299
0.18924694,4.598084,-0.07671025,0.04000422,0.15994012,-0.16280572,-9.792285,-1.067814
0.18926443,4.597988,-0.07671025,0.04000422,0.15994012,-0.16280572,-9.792285,-1.067814
0.18927644,4.5979037,-0.074579716,0.041069485,0.15567908,-0.18674773,-9.825804,-1.043872
0.18928553,4.59784,-0.074579716,0.041069485,0.15567908,-0.18674773,-9.825804,-1.043872
0.18929426,4.597767,-0.07244919,0.042134747,0.15141802,-0.16280572,-9.825804,-0.9624691
0.18930197,4.597702,-0.07244919,0.042134747,0.15141802,-0.16280572,-9.825804,-0.9624691
0.18930262,4.597631,-0.0692534,0.043200012,0.14502643,-0.20590134,-9.80665,-1.0247183
0.18930326,4.597559,-0.0692534,0.043200012,0.14502643,-0.20590134,-9.80665,-1.0247183
0.18929714,4.597493,-0.0660576,0.042134747,0.13756958,-0.18195933,-9.821015,-1.0007763
0.189291,4.5974274,-0.0660576,0.042134747,0.13756958,-0.18195933,-9.821015,-1.0007763
0.18927877,4.5973654,-0.06286181,0.041069485,0.13117799,-0.18674773,-9.782708,-0.9911995
0.18926644,4.5973034,-0.06286181,0.041069485,0.13117799,-0.18674773,-9.782708,-0.9911995
0.18924738,4.597253,-0.05753549,0.041069485,0.12265587,-0.21547815,-9.835381,-0.92416185
0.18922834,4.597203,-0.05753549,0.041069485,0.12265587,-0.21547815,-9.835381,-0.92416185
0.18920146,4.597155,-0.05327443,0.038938954,0.11519902,-0.19153613,-9.825804,-0.94810385
0.18917592,4.59711,-0.05327443,0.038938954,0.11519902,-0.19153613,-9.825804,-0.94810385
0.18914205,4.5970583,-0.050078638,0.038938954,0.1098727,-0.22026655,-9.80665,-1.0390835
0.18910809,4.5970063,-0.050078638,0.038938954,0.1098727,-0.22026655,-9.80665,-1.0390835
0.18907045,4.5969644,-0.04688284,0.036808424,0.104546376,-0.18195933,-9.811439,-0.9672575
0.18903284,4.5969224,-0.04688284,0.036808424,0.104546376,-0.18195933,-9.811439,-0.9672575
0.18899079,4.596884,-0.042621784,0.035743162,0.10028532,-0.15322891,-9.787497,-0.9816227
0.18894865,4.596844,-0.042621784,0.035743162,0.10028532,-0.15322891,-9.787497,-0.9816227
0.18890385,4.596811,-0.038360726,0.03254737,0.09708953,-0.17238252,-9.835381,-0.9816227
0.18885915,4.5967774,-0.038360726,0.03254737,0.09708953,-0.17238252,-9.835381,-0.9816227
0.18881164,4.5967426,-0.0362302,0.029351573,0.094959,-0.14844051,-9.797073,-1.0295067
0.18876415,4.5967073,-0.0362302,0.029351573,0.094959,-0.14844051,-9.797073,-1.0295067
0.18871738,4.596677,-0.035164934,0.027221046,0.094959,-0.18195933,-9.80665,-0.9911995
0.18867087,4.5966473,-0.035164934,0.027221046,0.094959,-0.18195933,-9.80665,-0.9911995
0.18862616,4.5966215,-0.03196914,0.025090516,0.09602426,-0.16280572,-9.797073,-0.9768343
0.18858129,4.5965962,-0.03196914,0.025090516,0.09602426,-0.16280572,-9.797073,-0.9768343
0.18853687,4.5965753,-0.028773347,0.022959989,0.09602426,-0.12928689,-9.821015,-0.9672575
0.1884924,4.5965543,-0.028773347,0.022959989,0.09602426,-0.12928689,-9.821015,-0.9672575
0.18844855,4.5965323,-0.027708083,0.021894723,0.09708953,-0.19153613,-9.816227,-0.9959879
0.18840471,4.596511,-0.027708083,0.021894723,0.09708953,-0.19153613,-9.816227,-0.9959879
0.18836014,4.596491,-0.026642818,0.020829458,0.09602426,-0.17717093,-9.792285,-0.9864111
0.1883156,4.596471,-0.026642818,0.020829458,0.09602426,-0.17717093,-9.792285,-0.9864111
0.18827163,4.596451,-0.02451229,0.019764194,0.09708953,-0.14844051,-9.787497,-1.0151415
0.18821955,4.596427,-0.02451229,0.019764194,0.09708953,-0.14844051,-9.787497,-1.0151415
0.18818226,4.5964108,-0.02238176,0.017633665,0.09708953,-0.14844051,-9.744401,-1.0342951
0.1881388,4.596391,-0.02238176,0.017633665,0.09708953,-0.14844051,-9.744401,-1.0342951
0.18809353,4.596367,-0.02238176,0.0165684,0.09602426,-0.16280572,-9.706094,-1.0965444
0.18800493,4.5963244,-0.02238176,0.015503136,0.09815479,-0.1340753,-9.682152,-1.0151415
0.18800493,4.5963244,-0.02238176,0.015503136,0.09815479,-0.1340753,-9.682152,-1.0151415
0.18796237,4.5963063,-0.02238176,0.015503136,0.09815479,-0.1340753,-9.682152,-1.0151415
0.18792261,4.596287,-0.021316495,0.015503136,0.10135058,-0.1340753,-9.715671,-1.0486604
0.1878827,4.5962677,-0.021316495,0.015503136,0.10135058,-0.1340753,-9.715671,-1.0486604
0.18784553,4.5962505,-0.021316495,0.014437872,0.103481114,-0.10534488,-9.653421,-1.0103531
0.18780845,4.5962334,-0.021316495,0.014437872,0.103481114,-0.10534488,-9.653421,-1.0103531
0.18777464,4.596217,-0.021316495,0.0133726075,0.10667691,-0.10534488,-9.643845,-1.0055647
0.18774088,4.596201,-0.021316495,0.0133726075,0.10667691,-0.10534488,-9.643845,-1.0055647
0.18770768,4.596188,-0.020251231,0.012307343,0.10667691,-0.076614454,-9.581595,-0.9720459
0.18767451,4.5961747,-0.020251231,0.012307343,0.10667691,-0.076614454,-9.581595,-0.9720459
0.18764168,4.596156,-0.019185968,0.012307343,0.10880744,-0.06703765,-9.595961,-1.0534488
0.18760987,4.596138,-0.019185968,0.012307343,0.10880744,-0.06703765,-9.595961,-1.0534488
0.1875785,4.596119,-0.018120702,0.012307343,0.1098727,-0.038307227,-9.624691,-1.0726024
0.187547,4.5961,-0.018120702,0.012307343,0.1098727,-0.038307227,-9.624691,-1.0726024
0.18751664,4.5960827,-0.017055437,0.0133726075,0.11093796,-0.02873042,-9.56723,-1.0630256
0.18748619,4.5960646,-0.017055437,0.0133726075,0.11093796,-0.02873042,-9.56723,-1.0630256
0.18745658,4.5960455,-0.017055437,0.014437872,0.11200323,0.009576807,-9.562442,-1.0773908
0.1874265,4.5960264,-0.017055437,0.014437872,0.11200323,0.009576807,-9.562442,-1.0773908
0.18739682,4.596005,-0.017055437,0.015503136,0.11200323,-0.038307227,-9.500193,-1.1013328
0.18736695,4.5959835,-0.017055437,0.015503136,0.11200323,-0.038307227,-9.500193,-1.1013328
0.18733875,4.5959563,-0.017055437,0.015503136,0.11413376,-0.05267244,-9.490616,-1.1683705
0.18731053,4.5959287,-0.017055437,0.015503136,0.11413376,-0.05267244,-9.490616,-1.1683705
0.18728557,4.5959053,-0.017055437,0.0165684,0.11732955,-0.009576807,-9.437943,-1.1109096
0.18726058,4.5958824,-0.017055437,0.0165684,0.11732955,-0.009576807,-9.437943,-1.1109096
0.1872377,4.5958533,-0.018120702,0.017633665,0.120525345,0.038307227,-9.428367,-1.1492168
0.18721604,4.595826,-0.018120702,0.017633665,0.120525345,0.038307227,-9.428367,-1.1492168
0.18719454,4.5957966,-0.017055437,0.020829458,0.12159061,-0.0047884034,-9.504981,-1.1875241
0.18717353,4.595768,-0.017055437,0.020829458,0.12159061,-0.0047884034,-9.504981,-1.1875241
0.18715401,4.595744,-0.0138596445,0.024025252,0.12372114,-0.095768064,-9.466674,-1.13964
0.1871344,4.5957203,-0.0138596445,0.024025252,0.12372114,-0.095768064,-9.466674,-1.13964
0.18712081,4.595698,-0.011729116,0.026155781,0.13011272,-0.15801731,-9.423578,-1.13964
0.18710718,4.595675,-0.011729116,0.026155781,0.13011272,-0.15801731,-9.423578,-1.13964
0.18709882,4.595654,-0.009598587,0.027221046,0.13543904,-0.033518825,-9.481039,-1.1540052
0.1870904,4.595633,-0.009598587,0.027221046,0.13543904,-0.033518825,-9.481039,-1.1540052
0.18708833,4.5956144,-0.008533322,0.02828631,0.14183064,-0.01436521,-9.543288,-1.1348516
0.18708631,4.5955963,-0.008533322,0.02828631,0.14183064,-0.01436521,-9.543288,-1.1348516
0.18709037,4.595579,-0.008533322,0.031482104,0.14822222,-0.01436521,-9.662998,-1.1252748
0.18709446,4.595562,-0.008533322,0.031482104,0.14822222,-0.01436521,-9.662998,-1.1252748
0.1871043,4.5955477,-0.007468058,0.03787369,0.15461381,-0.095768064,-9.677363,-1.091756
0.18711422,4.5955334,-0.007468058,0.03787369,0.15461381,-0.095768064,-9.677363,-1.091756
0.1871284,4.595512,-0.005337529,0.042134747,0.15994012,-0.12449849,-9.662998,-1.1875241
0.18714316,4.59549,-0.005337529,0.042134747,0.15994012,-0.12449849,-9.662998,-1.1875241
0.18716133,4.5954733,-0.003207,0.04533054,0.16420119,-0.10055647,-9.610326,-1.1444284
0.18717949,4.5954566,-0.003207,0.04533054,0.16420119,-0.10055647,-9.610326,-1.1444284
0.18720438,4.595439,-1.12066045e-05,0.0495916,0.17165804,-0.11971009,-9.610326,-1.1827357
0.18722935,4.595421,-1.12066045e-05,0.0495916,0.17165804,-0.11971009,-9.610326,-1.1827357
0.18726224,4.595401,0.0010540579,0.051722128,0.1791149,-0.1436521,-9.572019,-1.2066777
0.18729347,4.5953817,0.0010540579,0.051722128,0.1791149,-0.1436521,-9.572019,-1.2066777
0.18732847,4.595368,0.0021193223,0.053852655,0.18231069,-0.1436521,-9.610326,-1.1540052
0.18736352,4.595354,0.0021193223,0.053852655,0.18231069,-0.1436521,-9.610326,-1.1540052
0.18740198,4.595345,0.004249851,0.053852655,0.18550648,-0.15801731,-9.586384,-1.115698
0.18744044,4.595336,0.004249851,0.053852655,0.18550648,-0.15801731,-9.586384,-1.115698
0.18748318,4.5953264,0.0053151157,0.051722128,0.18976754,-0.090979666,-9.586384,-1.13964
0.18752597,4.595317,0.0053151157,0.051722128,0.18976754,-0.090979666,-9.586384,-1.13964
0.18757094,4.5953097,0.00638038,0.051722128,0.19189806,-0.07182605,-9.543288,-1.115698
0.187616,4.5953026,0.00638038,0.051722128,0.19189806,-0.07182605,-9.543288,-1.115698
0.18766272,4.595299,0.0053151157,0.050656863,0.19296333,-0.076614454,-9.56723,-1.067814
0.18770936,4.595295,0.0053151157,0.050656863,0.19296333,-0.076614454,-9.56723,-1.067814
0.18775772,4.5952945,0.0053151157,0.050656863,0.19402859,-0.076614454,-9.552865,-1.0247183
0.18780632,4.595294,0.0053151157,0.050656863,0.19402859,-0.076614454,-9.552865,-1.0247183
0.18785997,4.5953016,0.00638038,0.051722128,0.19296333,-0.10534488,-9.528923,-0.94331545
0.1879044,4.5953083,0.00638038,0.051722128,0.19296333,-0.10534488,-9.528923,-0.94331545
0.18795088,4.595316,0.0074456446,0.050656863,0.19189806,-0.076614454,-9.552865,-0.94331545
0.18799849,4.595324,0.0074456446,0.050656863,0.19189806,-0.076614454,-9.552865,-0.94331545
0.18804477,4.595331,0.008510909,0.048526336,0.1908328,-0.023942016,-9.576807,-0.9720459
0.18809108,4.5953383,0.008510909,0.048526336,0.1908328,-0.023942016,-9.576807,-0.9720459
0.18813418,4.595351,0.010641438,0.04746107,0.18657175,-0.07182605,-9.600749,-0.93373865
0.18817718,4.5953646,0.010641438,0.04746107,0.18657175,-0.07182605,-9.600749,-0.93373865
0.18821195,4.595377,0.013837231,0.04746107,0.1791149,-0.04309563,-9.639056,-0.9816227
0.18824662,4.5953903,0.013837231,0.04746107,0.1791149,-0.04309563,-9.639056,-0.9816227
0.18827486,4.5954046,0.01596776,0.046395805,0.17272331,-0.090979666,-9.643845,-0.9959879
0.18830307,4.595419,0.01596776,0.046395805,0.17272331,-0.090979666,-9.643845,-0.9959879
0.18832678,4.5954375,0.017033026,0.04533054,0.16739698,-0.1436521,-9.648633,-0.9672575
0.18835045,4.595456,0.017033026,0.04533054,0.16739698,-0.1436521,-9.648633,-0.9672575
0.18836868,4.595475,0.01809829,0.044265278,0.16207066,-0.15801731,-9.600749,-0.9768343
0.18838695,4.595494,0.01809829,0.044265278,0.16207066,-0.15801731,-9.600749,-0.9768343
0.18839853,4.5955095,0.017033026,0.041069485,0.15567908,-0.1436521,-9.65821,-1.0151415
0.18841013,4.5955253,0.017033026,0.041069485,0.15567908,-0.1436521,-9.65821,-1.0151415
0.18841721,4.5955377,0.017033026,0.038938954,0.15141802,-0.15801731,-9.65821,-1.0582372
0.18842413,4.5955505,0.017033026,0.038938954,0.15141802,-0.15801731,-9.65821,-1.0582372
0.18842673,4.5955625,0.017033026,0.038938954,0.14715695,-0.15322891,-9.662998,-1.067814
0.18843141,4.5955834,0.017033026,0.038938954,0.14715695,-0.15322891,-9.662998,-1.067814
0.18842974,4.595599,0.017033026,0.036808424,0.14289589,-0.15801731,-9.677363,-1.067814
0.18842974,4.595599,0.017033026,0.036808424,0.14289589,-0.15801731,-9.677363,-1.067814
0.1884248,4.595613,0.01596776,0.035743162,0.13863485,-0.17238252,-9.710882,-1.0486604
0.1884196,4.595627,0.01596776,0.035743162,0.13863485,-0.17238252,-9.710882,-1.0486604
0.18840817,4.595639,0.013837231,0.035743162,0.13224325,-0.18674773,-9.730036,-1.043872
0.188388,4.595661,0.013837231,0.035743162,0.13224325,-0.18674773,-9.730036,-1.043872
0.18838418,4.595663,0.012771967,0.03361263,0.12691693,-0.10534488,-9.68694,-1.1013328
0.1883669,4.5956693,0.012771967,0.03361263,0.12691693,-0.10534488,-9.68694,-1.1013328
0.1883458,4.595674,0.011706702,0.03254737,0.12265587,-0.1340753,-9.682152,-1.1109096
0.1883244,4.595679,0.011706702,0.03254737,0.12265587,-0.1340753,-9.682152,-1.1109096
0.18829623,4.595688,0.011706702,0.031482104,0.11519902,-0.11492168,-9.634268,-1.0582372
0.18826805,4.595697,0.011706702,0.031482104,0.11519902,-0.11492168,-9.634268,-1.0582372
0.18823433,4.595704,0.011706702,0.031482104,0.1098727,-0.1436521,-9.624691,-1.0869676
0.18820056,4.5957108,0.011706702,0.031482104,0.1098727,-0.1436521,-9.624691,-1.0869676
0.18816118,4.595723,0.012771967,0.031482104,0.103481114,-0.15322891,-9.634268,-1.0342951
0.18812165,4.5957355,0.012771967,0.031482104,0.103481114,-0.15322891,-9.634268,-1.0342951
0.18807295,4.595744,0.014902496,0.030416839,0.094959,-0.10055647,-9.605537,-1.1061212
0.18802425,4.595753,0.014902496,0.030416839,0.094959,-0.10055647,-9.605537,-1.1061212
0.1879691,4.5957594,0.014902496,0.030416839,0.088567406,-0.10534488,-9.600749,-1.1300632
0.187914,4.5957665,0.014902496,0.030416839,0.088567406,-0.10534488,-9.600749,-1.1300632
0.18785165,4.595781,0.01809829,0.031482104,0.08111056,-0.08140286,-9.548077,-1.0726024
0.18778948,4.5957947,0.01809829,0.031482104,0.08111056,-0.08140286,-9.548077,-1.0726024
0.18772137,4.595811,0.021294083,0.03361263,0.075784236,-0.11971009,-9.56723,-1.0869676
0.18765327,4.595827,0.021294083,0.03361263,0.075784236,-0.11971009,-9.56723,-1.0869676
0.18758006,4.595847,0.024489876,0.034677897,0.07045791,-0.08140286,-9.610326,-1.0821792
0.18750623,4.595867,0.024489876,0.034677897,0.07045791,-0.08140286,-9.610326,-1.0821792
0.18742575,4.5958877,0.028750934,0.035743162,0.06513159,-0.11492168,-9.586384,-1.1252748
0.18734856,4.5959077,0.028750934,0.035743162,0.06513159,-0.11492168,-9.586384,-1.1252748
0.18726309,4.595931,0.03301199,0.036808424,0.058740005,-0.05746084,-9.586384,-1.1348516
0.18717752,4.595955,0.03301199,0.036808424,0.058740005,-0.05746084,-9.586384,-1.1348516
0.18708587,4.5959897,0.04046884,0.03787369,0.05234842,-0.08619126,-9.600749,-1.091756
0.1869941,4.5960245,0.04046884,0.03787369,0.05234842,-0.08619126,-9.600749,-1.091756
0.18689668,4.5960646,0.04686043,0.041069485,0.047022097,-0.095768064,-9.667787,-1.1013328
0.18680067,4.5961046,0.04686043,0.041069485,0.047022097,-0.095768064,-9.667787,-1.1013328
0.18669966,4.596149,0.053252015,0.042134747,0.043826304,-0.08619126,-9.662998,-1.1300632
0.18659744,4.596194,0.053252015,0.042134747,0.043826304,-0.08619126,-9.662998,-1.1300632
0.18649364,4.5962505,0.06177413,0.043200012,0.04063051,-0.07182605,-9.706094,-1.0821792
0.18638982,4.5963078,0.06177413,0.043200012,0.04063051,-0.07182605,-9.706094,-1.0821792
0.18628503,4.5963717,0.06923098,0.043200012,0.039565243,-0.038307227,-9.65821,-1.0773908
0.18618019,4.596436,0.06923098,0.043200012,0.039565243,-0.038307227,-9.65821,-1.0773908
0.18607233,4.596509,0.076687835,0.044265278,0.03636945,-0.0047884034,-9.696517,-1.0582372
0.18596445,4.596582,0.076687835,0.044265278,0.03636945,-0.0047884034,-9.696517,-1.0582372
0.18585785,4.5966635,0.08307942,0.04533054,0.037434716,-0.07182605,-9.739613,-1.0342951
0.18575136,4.596745,0.08307942,0.04533054,0.037434716,-0.07182605,-9.739613,-1.0342951
0.18564396,4.59683,0.090536274,0.046395805,0.037434716,-0.090979666,-9.725247,-1.0869676
0.18553637,4.5969143,0.090536274,0.046395805,0.037434716,-0.090979666,-9.725247,-1.0869676
0.18542811,4.597008,0.09905839,0.04533054,0.03636945,-0.08140286,-9.682152,-1.0726024
0.18531998,4.597102,0.09905839,0.04533054,0.03636945,-0.08140286,-9.682152,-1.0726024
0.18521401,4.5972037,0.106515236,0.044265278,0.03849998,-0.090979666,-9.710882,-1.0726024
0.18510802,4.5973053,0.106515236,0.044265278,0.03849998,-0.090979666,-9.710882,-1.0726024
0.1850055,4.5974154,0.11397209,0.043200012,0.041695774,-0.01436521,-9.639056,-1.0534488
0.18485603,4.5975757,0.11397209,0.043200012,0.041695774,-0.01436521,-9.639056,-1.0534488
0.18480061,4.597647,0.122494206,0.043200012,0.044891566,0.019153614,-9.682152,-0.94810385
0.18470408,4.597772,0.122494206,0.043200012,0.044891566,0.019153614,-9.682152,-0.94810385
0.18460625,4.5979023,0.12888579,0.041069485,0.044891566,-0.0047884034,-9.653421,-0.9816227
0.18450846,4.5980325,0.12888579,0.041069485,0.044891566,-0.0047884034,-9.653421,-0.9816227
0.1844096,4.598172,0.13634264,0.04000422,0.043826304,0.019153614,-9.696517,-0.9672575
0.18430763,4.5983157,0.13634264,0.04000422,0.043826304,0.019153614,-9.696517,-0.9672575
0.1842123,4.598457,0.14273423,0.04000422,0.044891566,0.062249243,-9.662998,-0.9672575
0.18411493,4.5986013,0.14273423,0.04000422,0.044891566,0.062249243,-9.662998,-0.9672575
0.1840157,4.598749,0.14912581,0.04000422,0.043826304,0.047884032,-9.696517,-1.0055647
0.18391614,4.598898,0.14912581,0.04000422,0.043826304,0.047884032,-9.696517,-1.0055647
0.18381612,4.599055,0.1555174,0.038938954,0.04276104,0.08140286,-9.706094,-0.9816227
0.18371622,4.599211,0.1555174,0.038938954,0.04276104,0.08140286,-9.706094,-0.9816227
0.18361317,4.5993676,0.16190898,0.04000422,0.04063051,0.14844051,-9.648633,-1.0534488
0.18351033,4.5995235,0.16190898,0.04000422,0.04063051,0.14844051,-9.648633,-1.0534488
0.18340461,4.599704,0.16617005,0.038938954,0.03849998,-0.05746084,-9.701305,-0.89543146
0.18330511,4.5998726,0.16617005,0.038938954,0.03849998,-0.05746084,-9.701305,-0.89543146
0.18319815,4.600047,0.17149638,0.034677897,0.03530419,-0.20111294,-9.653421,-0.9768343
0.18309128,4.600221,0.17149638,0.034677897,0.03530419,-0.20111294,-9.653421,-0.9768343
0.18298541,4.6004047,0.17682269,0.02828631,0.03530419,-0.1340753,-9.605537,-0.93373865
0.18287991,4.600588,0.17682269,0.02828631,0.03530419,-0.1340753,-9.605537,-0.93373865
0.18277599,4.600786,0.18321428,0.020829458,0.03530419,0,-9.615114,-0.8475474
0.1826737,4.6009817,0.18321428,0.020829458,0.03530419,0,-9.615114,-0.8475474
0.18257213,4.6011796,0.18854061,0.0165684,0.037434716,0.08619126,-9.581595,-0.89064306
0.18246992,4.601379,0.18854061,0.0165684,0.037434716,0.08619126,-9.581595,-0.89064306
0.18236928,4.6015835,0.1917364,0.0133726075,0.037434716,0.10534488,-9.557653,-0.8523358
0.18226744,4.6017904,0.1917364,0.0133726075,0.037434716,0.10534488,-9.557653,-0.8523358
0.18214954,4.6020336,0.19280165,0.011242079,0.037434716,0.11492168,-9.605537,-0.842759
0.1820622,4.602213,0.19280165,0.011242079,0.037434716,0.11492168,-9.605537,-0.842759
0.18196505,4.602408,0.19280165,0.012307343,0.03849998,0.08140286,-9.605537,-0.90500826
0.18186684,4.602605,0.19280165,0.012307343,0.03849998,0.08140286,-9.605537,-0.90500826
0.18176499,4.6028056,0.19280165,0.011242079,0.037434716,0.062249243,-9.581595,-0.91937345
0.18166322,4.6030054,0.19280165,0.011242079,0.037434716,0.062249243,-9.581595,-0.91937345
0.18155879,4.603203,0.1917364,0.011242079,0.03530419,0.08619126,-9.56723,-0.93852705
0.18145436,4.6034,0.1917364,0.011242079,0.03530419,0.08619126,-9.56723,-0.93852705
0.18134905,4.6035957,0.18960586,0.010176814,0.034238923,0.110133275,-9.514558,-0.93373865
0.1812437,4.603791,0.18960586,0.010176814,0.034238923,0.110133275,-9.514558,-0.93373865
0.18113631,4.6039767,0.18641007,0.008046285,0.033173658,0.06703765,-9.524135,-1.0199299
0.18102914,4.604162,0.18641007,0.008046285,0.033173658,0.06703765,-9.524135,-1.0199299
0.18091905,4.604347,0.18321428,0.006981021,0.029977866,-0.009576807,-9.504981,-0.9864111
0.18080892,4.6045322,0.18321428,0.006981021,0.029977866,-0.009576807,-9.504981,-0.9864111
0.18069848,4.604719,0.18108375,0.004850492,0.029977866,0.019153614,-9.519346,-0.9576807
0.18059011,4.6049027,0.18108375,0.004850492,0.029977866,0.019153614,-9.519346,-0.9576807
0.18047985,4.6050806,0.17895322,0.0016546985,0.029977866,0.02873042,-9.476251,-1.0295067
0.18037,4.605258,0.17895322,0.0016546985,0.029977866,0.02873042,-9.476251,-1.0295067
0.18026301,4.6054378,0.17575742,0.00058943406,0.032108393,0.06703765,-9.490616,-0.9576807
0.1801559,4.6056175,0.17575742,0.00058943406,0.032108393,0.06703765,-9.490616,-0.9576807
0.18005197,4.605798,0.17256163,-0.0004758304,0.03530419,0.06703765,-9.528923,-0.92895025
0.17994961,4.605975,0.17256163,-0.0004758304,0.03530419,0.06703765,-9.528923,-0.92895025
0.17984706,4.6061544,0.1704311,-0.0004758304,0.03636945,0.038307227,-9.5385,-0.90500826
0.17974512,4.6063333,0.1704311,-0.0004758304,0.03636945,0.038307227,-9.5385,-0.90500826
0.17964393,4.6065097,0.16936584,0.00058943406,0.037434716,0,-9.524135,-0.91458505
0.17954259,4.6066866,0.16936584,0.00058943406,0.037434716,0,-9.524135,-0.91458505
0.17944421,4.6068606,0.16830058,0.00058943406,0.04063051,-0.033518825,-9.466674,-0.92416185
0.17934579,4.6070347,0.16830058,0.00058943406,0.04063051,-0.033518825,-9.466674,-0.92416185
0.17925392,4.6072116,0.16723531,0.00058943406,0.04595683,0.01436521,-9.44752,-0.8619126
0.1791614,4.6073895,0.16723531,0.00058943406,0.04595683,0.01436521,-9.44752,-0.8619126
0.17907538,4.607564,0.16510478,0.0016546985,0.05234842,0.08140286,-9.600749,-0.8762778
0.17898938,4.607738,0.16510478,0.0016546985,0.05234842,0.08140286,-9.600749,-0.8762778
0.178909,4.6079135,0.16403952,0.0037852274,0.05767474,0.07182605,-9.56723,-0.842759
0.17882863,4.608088,0.16403952,0.0037852274,0.05767474,0.07182605,-9.56723,-0.842759
0.17875211,4.6082535,0.15977846,0.008046285,0.06300107,0.05746084,-9.528923,-0.89064306
0.17867571,4.608419,0.15977846,0.008046285,0.06300107,0.05746084,-9.528923,-0.89064306
0.17860234,4.6085763,0.15338688,0.011242079,0.06726212,0.06703765,-9.5385,-0.91458505
0.17852929,4.608733,0.15338688,0.011242079,0.06726212,0.06703765,-9.5385,-0.91458505
0.17846267,4.608877,0.14593002,0.0133726075,0.073653705,0.047884032,-9.504981,-0.94810385
0.17839545,4.609022,0.14593002,0.0133726075,0.073653705,0.047884032,-9.504981,-0.94810385
0.17833588,4.6091557,0.13847317,0.017633665,0.08217582,0.01436521,-9.500193,-0.9864111
0.17827617,4.609289,0.13847317,0.017633665,0.08217582,0.01436521,-9.500193,-0.9864111
0.17822409,4.609415,0.12782052,0.019764194,0.089632675,0.019153614,-9.485827,-0.94331545
0.17817202,4.609541,0.12782052,0.019764194,0.089632675,0.019153614,-9.485827,-0.94331545
0.1781266,4.6096587,0.11716788,0.021894723,0.09602426,0.023942016,-9.495404,-0.90021986
0.17808117,4.6097765,0.11716788,0.021894723,0.09602426,0.023942016,-9.495404,-0.90021986
0.17804003,4.609876,0.106515236,0.022959989,0.10135058,0.033518825,-9.457097,-0.9864111
0.17799887,4.6099753,0.106515236,0.022959989,0.10135058,0.033518825,-9.457097,-0.9864111
0.17796312,4.610075,0.09692786,0.024025252,0.10561164,0.08140286,-9.471462,-0.866701
0.1779274,4.6101737,0.09692786,0.024025252,0.10561164,0.08140286,-9.471462,-0.866701
0.17789836,4.6102653,0.08840574,0.024025252,0.11200323,0.12449849,-9.461885,-0.8475474
0.17786914,4.6103573,0.08840574,0.024025252,0.11200323,0.12449849,-9.461885,-0.8475474
0.17784649,4.610445,0.08094889,0.025090516,0.11732955,0.08140286,-9.519346,-0.79487497
0.17782363,4.6105337,0.08094889,0.025090516,0.11732955,0.08140286,-9.519346,-0.79487497
0.17780288,4.610615,0.074557304,0.027221046,0.12265587,0.062249243,-9.509769,-0.8762778
0.17778371,4.6106896,0.074557304,0.027221046,0.12265587,0.062249243,-9.509769,-0.8762778
0.17776965,4.610758,0.06923098,0.029351573,0.12585166,-0.009576807,-9.528923,-0.82360536
0.17775434,4.610832,0.06923098,0.029351573,0.12585166,-0.009576807,-9.528923,-0.82360536
0.17774366,4.6109023,0.06390466,0.03254737,0.13011272,0.05267244,-9.576807,-0.79008657
0.17773305,4.6109724,0.06390466,0.03254737,0.13011272,0.05267244,-9.576807,-0.79008657
0.17772348,4.611036,0.059643604,0.034677897,0.13224325,0.019153614,-9.615114,-0.8283938
0.17771398,4.611099,0.059643604,0.034677897,0.13224325,0.019153614,-9.615114,-0.8283938
0.1777044,4.611164,0.057513073,0.036808424,0.13117799,0.038307227,-9.696517,-0.7757214
0.1776948,4.611229,0.057513073,0.036808424,0.13117799,0.038307227,-9.696517,-0.7757214
0.17768659,4.6112843,0.055382546,0.036808424,0.13437378,0.02873042,-9.691729,-0.8714894
0.17767821,4.6113396,0.055382546,0.036808424,0.13437378,0.02873042,-9.691729,-0.8714894
0.17767352,4.6114,0.05431728,0.036808424,0.1365043,0.02873042,-9.706094,-0.79487497
0.17766885,4.61146,0.05431728,0.036808424,0.1365043,0.02873042,-9.706094,-0.79487497
0.17766353,4.611516,0.05218675,0.03787369,0.1365043,0.0047884034,-9.720459,-0.81881696
0.17765824,4.6115723,0.05218675,0.03787369,0.1365043,0.0047884034,-9.720459,-0.81881696
0.17765413,4.6116276,0.05112149,0.03787369,0.13756958,0,-9.720459,-0.81402856
0.17764676,4.6117263,0.05112149,0.03787369,0.13756958,0,-9.720459,-0.81402856
0.1776428,4.611801,0.05112149,0.036808424,0.13756958,-0.04309563,-9.725247,-0.7757214
0.1776428,4.611801,0.05112149,0.036808424,0.13756958,-0.04309563,-9.725247,-0.7757214
0.17764094,4.6118636,0.05112149,0.034677897,0.13863485,-0.05267244,-9.758766,-0.7757214
0.17763925,4.611919,0.05112149,0.034677897,0.13863485,-0.05267244,-9.758766,-0.7757214
0.17763984,4.6120186,0.05218675,0.03361263,0.14076537,-0.023942016,-9.734824,-0.7757214
0.17763992,4.6120386,0.05218675,0.03361263,0.14076537,-0.023942016,-9.734824,-0.7757214
0.17764151,4.6121044,0.053252015,0.03254737,0.14076537,-0.033518825,-9.725247,-0.7326257
0.17764308,4.6121693,0.053252015,0.03254737,0.14076537,-0.033518825,-9.725247,-0.7326257
0.17764492,4.612239,0.055382546,0.030416839,0.1397001,-0.009576807,-9.77792,-0.6943185
0.17764668,4.612309,0.055382546,0.030416839,0.1397001,-0.009576807,-9.77792,-0.6943185
0.17764556,4.612382,0.057513073,0.02828631,0.1365043,0.023942016,-9.725247,-0.6847417
0.17764442,4.6124544,0.057513073,0.02828631,0.1365043,0.023942016,-9.725247,-0.6847417
0.17763849,4.6125298,0.06177413,0.027221046,0.13224325,-0.01436521,-9.787497,-0.7134721
0.17763257,4.6126056,0.06177413,0.027221046,0.13224325,-0.01436521,-9.787497,-0.7134721
0.1776217,4.612687,0.06496993,0.025090516,0.12691693,-0.009576807,-9.868899,-0.7086837
0.17761107,4.6127663,0.06496993,0.025090516,0.12691693,-0.009576807,-9.868899,-0.7086837
0.17759432,4.612849,0.07029625,0.025090516,0.12159061,0,-9.816227,-0.7326257
0.17757751,4.612932,0.07029625,0.025090516,0.12159061,0,-9.816227,-0.7326257
0.17755705,4.6130204,0.076687835,0.022959989,0.118394814,0.02873042,-9.787497,-0.7517793
0.17753665,4.613108,0.076687835,0.022959989,0.118394814,0.02873042,-9.787497,-0.7517793
0.17751001,4.613202,0.08201416,0.019764194,0.11200323,0.047884032,-9.821015,-0.7565677
0.17748345,4.6132956,0.08201416,0.019764194,0.11200323,0.047884032,-9.821015,-0.7565677
0.17745307,4.613397,0.08840574,0.019764194,0.10774217,0.05267244,-9.931149,-0.7422025
0.17742276,4.6134987,0.08840574,0.019764194,0.10774217,0.05267244,-9.931149,-0.7422025
0.17739147,4.6136155,0.0958626,0.01869893,0.103481114,-0.033518825,-9.998186,-0.6464345
0.17735954,4.613735,0.0958626,0.01869893,0.103481114,-0.033518825,-9.998186,-0.6464345
0.17731929,4.6138587,0.105449975,0.014437872,0.09602426,-0.11492168,-9.974244,-0.7134721
0.177279,4.613982,0.105449975,0.014437872,0.09602426,-0.11492168,-9.974244,-0.7134721
0.17720297,4.6141768,0.11716788,0.010176814,0.08537161,-0.23942018,-9.931149,-0.770933
0.1771729,4.6142535,0.11716788,0.010176814,0.08537161,-0.23942018,-9.931149,-0.770933
0.17711045,4.6144056,0.12995106,0.004850492,0.07898003,-0.2633622,-9.816227,-0.79966336
0.17705828,4.6145325,0.12995106,0.004850492,0.07898003,-0.2633622,-9.816227,-0.79966336
0.17700072,4.6147,0.1437995,-0.0036716238,0.075784236,-0.34955344,-9.672575,-0.6943185
0.1769427,4.614868,0.1437995,-0.0036716238,0.075784236,-0.34955344,-9.672575,-0.6943185
0.17687953,4.6150446,0.15764794,-0.013259004,0.072588444,-0.40701428,-9.548077,-0.770933
0.17681645,4.6152205,0.15764794,-0.013259004,0.072588444,-0.40701428,-9.548077,-0.770933
0.17675483,4.6154165,0.17149638,-0.024976913,0.071523175,-0.39743748,-9.442732,-0.7182605
0.17669313,4.615613,0.17149638,-0.024976913,0.071523175,-0.39743748,-9.442732,-0.7182605
0.1766313,4.6158137,0.18108375,-0.037760086,0.072588444,-0.39743748,-9.375694,-0.78529817
0.17656958,4.616013,0.18108375,-0.037760086,0.072588444,-0.39743748,-9.375694,-0.78529817
0.17651117,4.6162095,0.19067113,-0.051608525,0.0768495,-0.39743748,-9.212888,-0.90979666
0.17645267,4.616406,0.19067113,-0.051608525,0.0768495,-0.39743748,-9.212888,-0.90979666
0.17640297,4.616627,0.19812799,-0.067587495,0.08217582,-0.51714754,-9.193734,-0.78050977
0.17635319,4.616849,0.19812799,-0.067587495,0.08217582,-0.51714754,-9.193734,-0.78050977
0.17631423,4.6170807,0.20132378,-0.08676225,0.09069794,-0.6943185,-9.054871,-0.7613561
0.17627566,4.617309,0.20132378,-0.08676225,0.09069794,-0.6943185,-9.054871,-0.7613561
0.17625187,4.6175356,0.20025851,-0.109132804,0.10561164,-1.0007763,-8.925584,-0.81402856
0.17622805,4.6177626,0.20025851,-0.109132804,0.10561164,-1.0007763,-8.925584,-0.81402856
0.1762629,4.6179123,0.1949322,-0.13896021,0.12585166,-1.4030021,-8.700529,-0.92416185
0.17629814,4.618062,0.1949322,-0.13896021,0.12585166,-1.4030021,-8.700529,-0.92416185
0.17656636,4.6182003,0.18534482,-0.18050553,0.1578096,-1.7621324,-8.504205,-0.9911995
0.17701407,4.618431,0.18534482,-0.18050553,0.1578096,-1.7621324,-8.504205,-0.9911995
0.17713118,4.618478,0.16830058,-0.23057295,0.20042017,-1.7764976,-8.149862,-1.2018893
0.17762631,4.618676,0.16830058,-0.23057295,0.20042017,-1.7764976,-8.149862,-1.2018893
0.1777001,4.618696,0.13953844,-0.2891625,0.25155288,-1.6998832,-7.8050976,-1.316811
0.17800453,4.61878,0.13953844,-0.2891625,0.25155288,-1.6998832,-7.8050976,-1.316811
0.17839202,4.618839,0.09799312,-0.35414362,0.31120768,-1.4700398,-7.6614456,-1.2354081
0.1787231,4.618889,0.09799312,-0.35414362,0.31120768,-1.4700398,-7.6614456,-1.2354081
0.17909558,4.6189003,0.041534107,-0.4180595,0.37405828,-1.0965444,-7.455544,-1.3455414
0.17946646,4.618912,0.041534107,-0.4180595,0.37405828,-1.0965444,-7.455544,-1.3455414
0.17989722,4.618866,-0.027708083,-0.47238797,0.4422352,-0.8523358,-7.2783732,-1.5466543
0.18032813,4.6188197,-0.027708083,-0.47238797,0.4422352,-0.8523358,-7.2783732,-1.5466543
0.18078698,4.6187143,-0.11186397,-0.51286805,0.50934684,-0.34476504,-7.0102224,-1.4077905
0.18124516,4.6186094,-0.11186397,-0.51286805,0.50934684,-0.34476504,-7.0102224,-1.4077905
0.1817939,4.6183968,-0.20880304,-0.5501523,0.5711322,-0.090979666,-6.349423,-2.0159178
0.18234302,4.6181846,-0.20880304,-0.5501523,0.5711322,-0.090979666,-6.349423,-2.0159178
0.18295673,4.617856,-0.32385162,-0.57784915,0.62972176,0.24899697,-5.765238,-2.4756045
0.18357034,4.617528,-0.32385162,-0.57784915,0.62972176,0.24899697,-5.765238,-2.4756045
0.18422215,4.617065,-0.46659705,-0.59382814,0.6851155,1.0055647,-5.425261,-2.7006595
0.18486746,4.6166067,-0.46659705,-0.59382814,0.6851155,1.0055647,-5.425261,-2.7006595
0.18555298,4.6159797,-0.63703936,-0.6034155,0.73092186,1.5705963,-5.2049947,-2.7341783
0.18624485,4.615348,-0.63703936,-0.6034155,0.73092186,1.5705963,-5.2049947,-2.7341783
0.18696515,4.6145267,-0.8309175,-0.5980892,0.7682061,1.8626889,-5.0613422,-2.896984
0.1876792,4.6137133,-0.8309175,-0.5980892,0.7682061,1.8626889,-5.0613422,-2.896984
0.18842576,4.612671,-1.0471661,-0.5725228,0.7969683,1.958457,-4.817134,-2.9257145
0.18917274,4.6116285,-1.0471661,-0.5725228,0.7969683,1.958457,-4.817134,-2.9257145
0.18993999,4.610347,-1.276198,-0.528847,0.8193388,1.8100165,-4.687847,-2.8491
0.19070755,4.609066,-1.276198,-0.528847,0.8193388,1.8100165,-4.687847,-2.8491
0.19149084,4.607531,-1.5169477,-0.4745185,0.8374483,1.7908629,-4.4819455,-2.930503
0.19227445,4.605996,-1.5169477,-0.4745185,0.8374483,1.7908629,-4.4819455,-2.930503
0.19306226,4.604204,-1.7619586,-0.41379845,0.84810096,1.8531121,-4.3239284,-2.944868
0.19385034,4.6024113,-1.7619586,-0.41379845,0.84810096,1.8531121,-4.3239284,-2.944868
0.19463779,4.60036,-2.0101652,-0.3520131,0.8534273,1.6280571,-4.357447,-2.743755
0.19542551,4.5983086,-2.0101652,-0.3520131,0.8534273,1.6280571,-4.357447,-2.743755
0.19620608,4.595997,-2.259437,-0.29235828,0.85236204,1.4269443,-4.462792,-2.5809495
0.19698666,4.5936856,-2.259437,-0.29235828,0.85236204,1.4269443,-4.462792,-2.5809495
0.19775413,4.5911207,-2.5012522,-0.23483402,0.8491662,1.4556746,-4.6351743,-2.4612393
0.1985185,4.5885653,-2.5012522,-0.23483402,0.8491662,1.4556746,-4.6351743,-2.4612393
0.19926101,4.5857735,-2.734545,-0.17837499,0.83957887,1.340753,-4.960786,-2.2361844
0.2000062,4.5829697,-2.734545,-0.17837499,0.83957887,1.340753,-4.960786,-2.2361844
0.20071843,4.5799503,-2.95612,-0.12298124,0.8246651,1.4652514,-5.2289367,-2.0350714
0.20143677,4.5769043,-2.95612,-0.12298124,0.8246651,1.4652514,-5.2289367,-2.0350714
0.20210722,4.5737,-3.1659772,-0.07291381,0.7990988,1.436521,-5.5258174,-1.9680338
0.20278321,4.570467,-3.1659772,-0.07291381,0.7990988,1.436521,-5.5258174,-1.9680338
0.20341253,4.5670376,-3.3609207,-0.023911647,0.7639451,1.436521,-5.683835,-1.8052281
0.20403986,4.563616,-3.3609207,-0.023911647,0.7639451,1.436521,-5.683835,-1.8052281
0.20461687,4.559985,-3.5409503,0.025090516,0.7160082,1.1348516,-5.8945246,-1.8195933
0.20519292,4.5563545,-3.5409503,0.025090516,0.7160082,1.1348516,-5.8945246,-1.8195933
0.20570561,4.552576,-3.7039356,0.0645053,0.66274494,1.532289,-5.2480903,-1.8483237
0.20621869,4.548786,-3.7039356,0.0645053,0.66274494,1.532289,-5.2480903,-1.8483237
0.20666522,4.544844,-3.8552034,0.10605062,0.60309017,0.39743748,-7.225701,-1.8291701
0.20710908,4.5409117,-3.8552034,0.10605062,0.60309017,0.39743748,-7.225701,-1.8291701
0.2074792,4.536864,-3.9851656,0.13374749,0.5402395,0.21068975,-8.6813755,-1.6089035
0.20784768,4.532826,-3.9851656,0.13374749,0.5402395,0.21068975,-8.6813755,-1.6089035
0.2083114,4.5285745,-4.0778437,0.13161696,0.4784542,-1.115698,-2.4516625,-3.8402996
0.2087741,4.5243225,-4.0778437,0.13161696,0.4784542,-1.115698,-2.4516625,-3.8402996
0.20902447,4.520124,-4.1950226,0.09646323,0.39216778,3.4811692,-9.198523,-0.2633622
0.20927422,4.515935,-4.1950226,0.09646323,0.39216778,3.4811692,-9.198523,-0.2633622
0.20947,4.5116577,-4.2834396,0.11670326,0.3346435,0.8475474,-10.290278,-0.62249243
0.20966582,4.5073895,-4.2834396,0.11670326,0.3346435,0.8475474,-10.290278,-0.62249243
0.20980771,4.5031323,-4.2781134,0.14972645,0.27498868,0.7038953,-12.042834,-0.39743748
0.20995001,4.4988756,-4.2781134,0.14972645,0.27498868,0.7038953,-12.042834,-0.39743748
0.21000005,4.4947214,-4.18437,0.13268223,0.187637,0.7517793,-11.678916,-0.78529817
0.21005078,4.4905515,-4.18437,0.13268223,0.187637,0.7517793,-11.678916,-0.78529817
0.21002287,4.486557,-4.0299067,0.10392009,0.09708953,0.89064306,-12.282255,-0.6560113
0.20999557,4.482563,-4.0299067,0.10392009,0.09708953,0.89064306,-12.282255,-0.6560113
0.20990612,4.4787846,-3.838159,0.07302742,0.0086725755,0.07182605,-13.570335,-0.521936
0.20981762,4.475014,-3.838159,0.07302742,0.0086725755,0.07182605,-13.570335,-0.521936
0.20963266,4.471466,-3.6027355,0.019764194,-0.08187491,0.7517793,-12.794614,-1.0007763
0.20944913,4.467926,-3.6027355,0.019764194,-0.08187491,0.7517793,-12.794614,-1.0007763
0.2091932,4.4646745,-3.3342888,-0.034564294,-0.17561817,0.641646,-13.55597,-0.94331545
0.208939,4.46143,-3.3342888,-0.034564294,-0.17561817,0.641646,-13.55597,-0.94331545
0.20862687,4.4584813,-3.0477328,-0.06971802,-0.2587088,-0.038307227,-14.446613,-0.81881696
0.20831664,4.455539,-3.0477328,-0.06971802,-0.2587088,-0.038307227,-14.446613,-0.81881696
0.2079509,4.452926,-2.7334797,-0.10593701,-0.32795098,-0.15322891,-15.073894,-0.91937345
0.20758656,4.450313,-2.7334797,-0.10593701,-0.32795098,-0.15322891,-15.073894,-0.91937345
0.20717216,4.4480486,-2.3893993,-0.14322127,-0.38867107,-0.23463176,-15.705963,-1.0869676
0.20675285,4.44575,-2.3893993,-0.14322127,-0.38867107,-0.23463176,-15.705963,-1.0869676
0.20614722,4.4432535,-2.017622,-0.17091814,-0.43767324,-0.320823,-16.127342,-1.4796166
0.20579962,4.4418163,-2.017622,-0.17091814,-0.43767324,-0.320823,-16.127342,-1.4796166
0.20535697,4.4404554,-1.6245395,-0.1900929,-0.4738922,-0.6751649,-16.634912,-1.6903064
0.20488505,4.439001,-1.6245395,-0.1900929,-0.4738922,-0.6751649,-16.634912,-1.6903064
0.20438914,4.4379506,-1.2122822,-0.20607187,-0.4983933,-0.93852705,-16.864758,-2.111686
0.20388806,4.4368877,-1.2122822,-0.20607187,-0.4983933,-0.93852705,-16.864758,-2.111686
0.20337866,4.436255,-0.78724164,-0.22418137,-0.51117647,-1.1444284,-17.03714,-2.432509
0.20286791,4.43562,-0.78724164,-0.22418137,-0.51117647,-1.1444284,-17.03714,-2.432509
0.20236138,4.435423,-0.35474426,-0.23589927,-0.5143723,-1.4508862,-17.219099,-2.6671407
0.20185415,4.435225,-0.35474426,-0.23589927,-0.5143723,-1.4508862,-17.219099,-2.6671407
0.20135564,4.4354706,0.08520995,-0.24868245,-0.5101112,-1.5801731,-17.396269,-2.7724855
0.20085716,4.4357157,0.08520995,-0.24868245,-0.5101112,-1.5801731,-17.396269,-2.7724855
0.2003691,4.436408,0.52622944,-0.26040035,-0.5005238,-1.5945383,-17.401058,-2.7485435
0.19987983,4.437102,0.52622944,-0.26040035,-0.5005238,-1.5945383,-17.401058,-2.7485435
0.19941273,4.438224,0.9651184,-0.27211827,-0.48880592,-1.5801731,-17.626112,-2.6910827
0.198944,4.4393473,0.9651184,-0.27211827,-0.48880592,-1.5801731,-17.626112,-2.6910827
0.19849037,4.440917,1.4040073,-0.2827709,-0.477088,-1.5179238,-17.946936,-2.4947581
0.19803572,4.442486,1.4040073,-0.2827709,-0.477088,-1.5179238,-17.946936,-2.4947581
0.19759059,4.4444885,1.8418311,-0.28809723,-0.4685659,-1.4460979,-18.133684,-2.4181437
0.19714317,4.4464946,1.8418311,-0.28809723,-0.4685659,-1.4460979,-18.133684,-2.4181437
0.19669378,4.4489355,2.2753937,-0.28490144,-0.4685659,-1.3934253,-18.282124,-2.336741
0.19617538,4.4517393,2.2753937,-0.28490144,-0.4685659,-1.3934253,-18.282124,-2.336741
0.19567269,4.454904,2.7057605,-0.2742488,-0.477088,-1.6759412,-18.171991,-2.2744915
0.19522719,4.457695,2.7057605,-0.2742488,-0.477088,-1.6759412,-18.171991,-2.2744915
0.19481483,4.4605045,3.1318662,-0.26040035,-0.4983933,-1.8339585,-17.76019,-2.4229321
0.19436659,4.4635434,3.1318662,-0.26040035,-0.4983933,-1.8339585,-17.76019,-2.4229321
0.19363798,4.4688087,3.5462542,-0.2444214,-0.5282207,-2.1643584,-17.228676,-2.5378537
0.19333833,4.4709587,3.5462542,-0.2444214,-0.5282207,-2.1643584,-17.228676,-2.5378537
0.19280528,4.4751134,3.9414673,-0.23589927,-0.56337446,-2.7724855,-16.745047,-2.681506
0.19227366,4.479234,3.9414673,-0.23589927,-0.56337446,-2.7724855,-16.745047,-2.681506
0.19174993,4.4837265,4.3153753,-0.24016033,-0.6038545,-3.289633,-16.16565,-2.801216
0.19122918,4.4881916,4.3153753,-0.24016033,-0.6038545,-3.289633,-16.16565,-2.801216
0.19071695,4.4930224,4.664782,-0.26679194,-0.6496609,-3.5577838,-15.662868,-2.9113493
0.19021161,4.4978356,4.664782,-0.26679194,-0.6496609,-3.5577838,-15.662868,-2.9113493
0.18967022,4.503003,4.9854264,-0.31472886,-0.6965325,-3.2225955,-15.088259,-2.9975405
0.1891465,4.508148,4.9854264,-0.31472886,-0.6965325,-3.2225955,-15.088259,-2.9975405
0.18835303,4.5135145,5.2762437,-0.3754489,-0.7444694,-2.4995465,-14.465767,-3.016694
0.187569,4.5188465,5.2762437,-0.3754489,-0.7444694,-2.4995465,-14.465767,-3.016694
0.18679072,4.5244055,5.536168,-0.4393648,-0.8051895,-2.2505496,-13.551182,-3.1268275
0.18604186,4.5297923,5.536168,-0.4393648,-0.8051895,-2.2505496,-13.551182,-3.1268275
0.18520474,4.53559,5.760939,-0.508607,-0.879758,-2.0590134,-12.804191,-2.96881
0.18435603,4.5414886,5.760939,-0.508607,-0.879758,-2.0590134,-12.804191,-2.96881
0.18343239,4.547484,5.9484253,-0.5799797,-0.9649791,-1.7908629,-12.0093155,-2.705448
0.18251674,4.553439,5.9484253,-0.5799797,-0.9649791,-1.7908629,-12.0093155,-2.705448
0.1814548,4.5596285,6.101824,-0.6449608,-1.0608529,-1.3694834,-11.410766,-2.2266076
0.18038927,4.5658455,6.101824,-0.6449608,-1.0608529,-1.3694834,-11.410766,-2.2266076
0.1791983,4.5722294,6.220068,-0.69502825,-1.1631184,-0.8331822,-10.984597,-1.5466543
0.17800105,4.578603,6.220068,-0.69502825,-1.1631184,-0.8331822,-10.984597,-1.5466543
0.17667142,4.5852866,6.3106155,-0.72272515,-1.2632532,-0.60812724,-10.352529,-1.1444284
0.17540605,4.5915976,6.3106155,-0.72272515,-1.2632532,-0.60812724,-10.352529,-1.1444284
0.17402017,4.5981507,6.369205,-0.7259209,-1.3644533,-0.545878,-9.935937,-0.7278373
0.17262053,4.6047163,6.369205,-0.7259209,-1.3644533,-0.545878,-9.935937,-0.7278373
0.1711388,4.6113195,6.3979673,-0.714203,-1.4603271,-0.49320555,-9.715671,-0.35434186
0.1696462,4.617924,6.3979673,-0.714203,-1.4603271,-0.49320555,-9.715671,-0.35434186
0.16807947,4.6245193,6.396902,-0.6918325,-1.5434177,-0.60812724,-9.552865,-0.17717093
0.16649711,4.631135,6.396902,-0.6918325,-1.5434177,-0.60812724,-9.552865,-0.17717093
0.16485168,4.6377153,6.3713355,-0.6630703,-1.6179862,-0.7326257,-9.5385,0
0.1631975,4.644291,6.3713355,-0.6630703,-1.6179862,-0.7326257,-9.5385,0
0.16149607,4.6508265,6.3265944,-0.6353735,-1.6819022,-0.9720459,-9.524135,0.12928689
0.1597851,4.657364,6.3265944,-0.6353735,-1.6819022,-0.9720459,-9.524135,0.12928689
0.15808497,4.663823,6.2669396,-0.617264,-1.729839,-1.4700398,-9.552865,0.1388637
0.15637167,4.6703186,6.2669396,-0.617264,-1.729839,-1.4700398,-9.552865,0.1388637
0.15472445,4.676696,6.1955667,-0.61193764,-1.7607317,-2.135628,-9.581595,0.11492168
0.15308073,4.6830654,6.1955667,-0.61193764,-1.7607317,-2.135628,-9.581595,0.11492168
0.15144052,4.6893373,6.115672,-0.6279166,-1.7756454,-2.7964275,-9.581595,0.21547815
0.14979994,4.6956015,6.115672,-0.6279166,-1.7756454,-2.7964275,-9.581595,0.21547815
0.14817576,4.701749,6.035777,-0.6715924,-1.7692538,-3.289633,-9.41879,0.2825158
0.14653966,4.707926,6.035777,-0.6715924,-1.7692538,-3.289633,-9.41879,0.2825158
0.14493215,4.714016,5.9505563,-0.74083465,-1.7383611,-3.0071173,-9.006987,0.34955344
0.1433223,4.7201,5.9505563,-0.74083465,-1.7383611,-3.0071173,-9.006987,0.34955344
0.14175552,4.7261124,5.857878,-0.82605577,-1.6872284,-2.0254946,-8.341399,0.2633622
0.14019231,4.7320957,5.857878,-0.82605577,-1.6872284,-2.0254946,-8.341399,0.2633622
0.13842002,4.737925,5.746025,-0.91127694,-1.6265084,-0.60333884,-7.3645644,-0.033518825
0.1356324,4.7470837,5.746025,-0.91127694,-1.6265084,-0.60333884,-7.3645644,-0.033518825
0.13489361,4.749511,5.6096716,-0.97732335,-1.5679188,0.9911995,-6.066907,-0.47884035
0.13317418,4.755148,5.6096716,-0.97732335,-1.5679188,0.9911995,-6.066907,-0.47884035
0.1314658,4.7607107,5.4339027,-1.012477,-1.5167861,2.2984335,-4.6830587,-0.93373865
0.12976791,4.76622,5.4339027,-1.012477,-1.5167861,2.2984335,-4.6830587,-0.93373865
0.12798768,4.7718835,5.2112627,-1.0092813,-1.4752408,2.825158,-3.41892,-1.2737153
0.12649518,4.7766156,5.2112627,-1.0092813,-1.4752408,2.825158,-3.41892,-1.2737153
0.12486269,4.781619,4.93962,-0.9762581,-1.4411523,2.8443117,-2.3415294,-1.2545617
0.123183355,4.786749,4.93962,-0.9762581,-1.4411523,2.8443117,-2.3415294,-1.2545617
0.12159669,4.7913966,4.616845,-0.9176685,-1.4017376,2.7868507,-1.4269443,-1.3072342
0.12001264,4.7960234,4.616845,-0.9176685,-1.4017376,2.7868507,-1.4269443,-1.3072342
0.118452564,4.800377,4.2482634,-0.83990425,-1.3506049,2.9879637,-0.82360536,-1.2114661
0.116916865,4.8046513,4.2482634,-0.83990425,-1.3506049,2.9879637,-0.82360536,-1.2114661
0.11546419,4.8084884,3.8370714,-0.7461609,-1.2856238,3.064578,-0.3878607,-1.2066777
0.11398545,4.8123856,3.8370714,-0.7461609,-1.2856238,3.064578,-0.3878607,-1.2066777
0.11261843,4.815774,3.3875299,-0.6428303,-1.2046636,3.2034419,-0.2873042,-1.0486604
0.111242585,4.8191786,3.3875299,-0.6428303,-1.2046636,3.2034419,-0.2873042,-1.0486604
0.1099671,4.8221087,2.9113564,-0.5363039,-1.1130509,3.2369606,-0.30645782,-0.7517793
0.10869026,4.825038,2.9113564,-0.5363039,-1.1130509,3.2369606,-0.30645782,-0.7517793
0.107524596,4.827462,2.4202697,-0.42551634,-1.0129161,3.2321723,-0.58897364,-0.5793968
0.106338225,4.8299265,2.4202697,-0.42551634,-1.0129161,3.2321723,-0.58897364,-0.5793968
0.105288,4.8318477,1.9195954,-0.31472886,-0.9031938,3.2944214,-1.0295067,-0.34955344
0.104245625,4.833753,1.9195954,-0.31472886,-0.9031938,3.2944214,-1.0295067,-0.34955344
0.10331857,4.8351674,1.4210516,-0.20607187,-0.78708,3.4284968,-1.5514427,-0.25857377
0.10238936,4.836584,1.4210516,-0.20607187,-0.78708,3.4284968,-1.5514427,-0.25857377
0.10159175,4.8374953,0.9331605,-0.097414896,-0.6667051,3.3327289,-1.7190368,-0.3878607
0.100790836,4.83841,0.9331605,-0.097414896,-0.6667051,3.3327289,-1.7190368,-0.3878607
0.100043155,4.838888,0.45698723,0.004850492,-0.5463302,3.5482068,-2.9257145,-0.19153613
0.09923022,4.839409,0.45698723,0.004850492,-0.5463302,3.5482068,-2.9257145,-0.19153613
0.09886315,4.8393507,-0.003207,0.100724295,-0.41530266,1.934515,-2.2170308,-0.82360536
0.098355666,4.8392706,-0.003207,0.100724295,-0.41530266,1.934515,-2.2170308,-0.82360536
0.097954825,4.8387833,-0.446357,0.16250964,-0.28853622,2.834735,-3.7732618,-0.02873042
0.097553104,4.838296,-0.446357,0.16250964,-0.28853622,2.834735,-3.7732618,-0.02873042
0.09730174,4.8373795,-0.86394066,0.22962129,-0.1447255,2.3750482,-5.0613422,0.02873042
0.0970499,4.8364625,-0.86394066,0.22962129,-0.1447255,2.3750482,-5.0613422,0.02873042
0.09697137,4.835144,-1.2335875,0.2924719,0.011868369,1.7908629,-5.085284,-0.36870706
0.09689241,4.8338284,-1.2335875,0.2924719,0.011868369,1.7908629,-5.085284,-0.36870706
0.09700603,4.8321505,-1.5670152,0.33508247,0.1759191,1.1731589,-4.984728,-0.6943185
0.09711883,4.830473,-1.5670152,0.33508247,0.1759191,1.1731589,-4.984728,-0.6943185
0.097399786,4.8284817,-1.8791378,0.35212672,0.3463614,1.2880806,-5.161899,-0.7086837
0.097679906,4.8264894,-1.8791378,0.35212672,0.3463614,1.2880806,-5.161899,-0.7086837
0.098118216,4.824214,-2.174216,0.3553225,0.51680374,1.5035586,-5.645528,-0.5363012
0.09853403,4.8220506,-2.174216,0.3553225,0.51680374,1.5035586,-5.645528,-0.5363012
0.09912288,4.8195195,-2.447989,0.3585183,0.6797892,1.8243817,-6.2584434,-0.37828386
0.099735215,4.816882,-2.447989,0.3585183,0.6797892,1.8243817,-6.2584434,-0.37828386
0.10047087,4.8141146,-2.6961956,0.36917093,0.83425254,2.1787236,-6.8091097,-0.272939
0.101202406,4.811359,-2.6961956,0.36917093,0.83425254,2.1787236,-6.8091097,-0.272939
0.10207661,4.8083634,-2.9167054,0.39047623,0.9706064,2.2266076,-7.153875,-0.39743748
0.1029539,4.805353,-2.9167054,0.39047623,0.9706064,2.2266076,-7.153875,-0.39743748
0.103948325,4.8021584,-3.1116488,0.41923836,1.089916,2.1308396,-7.3549876,-0.4165911
0.10494116,4.7989645,-3.1116488,0.41923836,1.089916,2.1308396,-7.3549876,-0.4165911
0.106043935,4.7955885,-3.2810256,0.45545736,1.1921813,1.8004397,-7.541735,-0.5363012
0.10714254,4.79222,-3.2810256,0.45545736,1.1921813,1.8004397,-7.541735,-0.5363012
0.10835197,4.7886744,-3.4280322,0.49380687,1.2859247,1.3838485,-7.656657,-0.6991069
0.10955658,4.7851357,-3.4280322,0.49380687,1.2859247,1.3838485,-7.656657,-0.6991069
0.110854104,4.7814584,-3.5547986,0.52469957,1.3690153,1.2545617,-7.7428484,-0.92416185
0.112148814,4.777781,-3.5547986,0.52469957,1.3690153,1.2545617,-7.7428484,-0.92416185
0.11352743,4.773987,-3.664521,0.55133116,1.4478449,1.0869676,-7.8386164,-0.9816227
0.11490298,4.770192,-3.664521,0.55133116,1.4478449,1.0869676,-7.8386164,-0.9816227
0.11634378,4.766305,-3.7550683,0.5683754,1.5149565,1.1061212,-8.030152,-1.0103531
0.117781304,4.7624173,-3.7550683,0.5683754,1.5149565,1.1061212,-8.030152,-1.0103531
0.11927717,4.7584605,-3.8253758,0.58222383,1.5756766,1.0342951,-8.1163435,-1.0103531
0.12077259,4.7544956,-3.8253758,0.58222383,1.5756766,1.0342951,-8.1163435,-1.0103531
0.12232334,4.7504783,-3.8754432,0.595007,1.6300051,0.8571242,-8.192958,-1.0295067
0.123868845,4.746465,-3.8754432,0.595007,1.6300051,0.8571242,-8.192958,-1.0295067
0.12546887,4.7424064,-3.910597,0.6045944,1.6790073,0.6655881,-8.1402855,-1.067814
0.12706493,4.738347,-3.910597,0.6045944,1.6790073,0.6655881,-8.1402855,-1.067814
0.12870003,4.7342706,-3.9276412,0.6067249,1.7226831,0.60812724,-8.192958,-1.0055647
0.13033094,4.730194,-3.9276412,0.6067249,1.7226831,0.60812724,-8.192958,-1.0055647
0.1319939,4.7261243,-3.9319024,0.6045944,1.766359,0.61291564,-8.24563,-0.91458505
0.13365932,4.7220383,-3.9319024,0.6045944,1.766359,0.61291564,-8.24563,-0.91458505
0.1353592,4.717972,-3.922315,0.6013986,1.8100348,0.5506664,-8.418014,-0.8475474
0.13705488,4.713906,-3.922315,0.6013986,1.8100348,0.5506664,-8.418014,-0.8475474
0.13878925,4.7098684,-3.8956833,0.60033333,1.8526454,0.46447513,-8.643068,-0.8619126
0.14052278,4.705823,-3.8956833,0.60033333,1.8526454,0.46447513,-8.643068,-0.8619126
0.14228953,4.7018294,-3.8509421,0.5971375,1.8941907,0.4261679,-8.954314,-0.80924016
0.14405209,4.6978364,-3.8509421,0.5971375,1.8941907,0.4261679,-8.954314,-0.80924016
0.14584455,4.6939163,-3.7923527,0.5928765,1.935736,0.41180268,-9.394848,-0.6751649
0.14763856,4.689985,-3.7923527,0.5928765,1.935736,0.41180268,-9.394848,-0.6751649
0.14945823,4.6861577,-3.7177842,0.58755016,1.9751507,0.48362875,-9.868899,-0.46926352
0.15127686,4.6823273,-3.7177842,0.58755016,1.9751507,0.48362875,-9.868899,-0.46926352
0.15313445,4.6786146,-3.6283019,0.5800933,2.0135002,0.5506664,-10.635044,-0.090979666
0.15490513,4.675073,-3.6283019,0.5800933,2.0135002,0.5506664,-10.635044,-0.090979666
0.15680203,4.671485,-3.519645,0.5726364,2.048654,0.29209262,-11.18571,0.11492168
0.15878677,4.667728,-3.519645,0.5726364,2.048654,0.29209262,-11.18571,0.11492168
0.1607248,4.6642814,-3.390748,0.5609185,2.076351,0.30645782,-11.822568,0.49320555
0.1626462,4.6608605,-3.390748,0.5609185,2.076351,0.30645782,-11.822568,0.49320555
0.16462515,4.657578,-3.2437415,0.54174376,2.1029825,0.1340753,-13.043611,0.9768343
0.16661856,4.6542673,-3.2437415,0.54174376,2.1029825,0.1340753,-13.043611,0.9768343
0.16863161,4.6511774,-3.0701034,0.51937324,2.1221573,0.062249243,-16.831238,2.303222
0.17065108,4.648073,-3.0701034,0.51937324,2.1221573,0.062249243,-16.831238,2.303222
0.1727632,4.6452312,-2.831484,0.48528478,2.1381361,-1.9249382,-10.644621,0.20111294
0.17487091,4.6423874,-2.831484,0.48528478,2.1381361,-1.9249382,-10.644621,0.20111294
0.17689463,4.639766,-2.5981913,0.40858573,2.125353,2.078167,-19.919758,4.735731
0.17891507,4.6371455,-2.5981913,0.40858573,2.125353,2.078167,-19.919758,4.735731
0.18096067,4.634803,-2.3372014,0.37449726,2.117896,-1.388637,-20.053833,3.821146
0.1830067,4.632457,-2.3372014,0.37449726,2.117896,-1.388637,-20.053833,3.821146
0.18504095,4.6304607,-1.9888599,0.3436046,2.1029825,-1.8339585,-21.265299,3.2561142
0.18734176,4.6281996,-1.9888599,0.3436046,2.1029825,-1.8339585,-21.265299,3.2561142
0.18734176,4.6281996,-1.9888599,0.3436046,2.1029825,-1.8339585,-21.265299,3.2561142
0.19166055,4.624819,-1.5766026,0.244535,2.0582414,-2.5139117,-21.997925,2.7341783
0.1930654,4.6240277,-1.1206694,0.113507465,1.992195,-2.1212628,-21.432894,1.9919758
0.19498095,4.622948,-1.1206694,0.113507465,1.992195,-2.1212628,-21.432894,1.9919758
0.19682482,4.6223636,-0.647692,-0.035629556,1.9005822,-2.135628,-20.752941,1.4269443
0.19866969,4.621778,-0.647692,-0.035629556,1.9005822,-2.135628,-20.752941,1.4269443
0.2004034,4.6216893,-0.1800409,-0.18902764,1.7844684,-1.8579005,-19.440918,0.92895025
0.20214333,4.6215997,-0.1800409,-0.18902764,1.7844684,-1.8579005,-19.440918,0.92895025
0.20372094,4.6219826,0.26737016,-0.33496886,1.6406577,-1.5514427,-18.013973,0.4165911
0.20530875,4.6223683,0.26737016,-0.33496886,1.6406577,-1.5514427,-18.013973,0.4165911
0.2067208,4.6231956,0.68175805,-0.47025746,1.4595628,-0.7038953,-19.55584,1.1731589
0.20813191,4.624023,0.68175805,-0.47025746,1.4595628,-0.7038953,-19.55584,1.1731589
0.20936438,4.6252923,1.0929501,-0.5703923,1.2635541,-1.5514427,-19.354727,0.8714894
0.21059525,4.626562,1.0929501,-0.5703923,1.2635541,-1.5514427,-19.354727,0.8714894
0.21161494,4.6282935,1.5243822,-0.6673314,1.0419791,-1.9201498,-19.096153,0.49320555
0.21263023,4.630022,1.5243822,-0.6673314,1.0419791,-1.9201498,-19.096153,0.49320555
0.21343137,4.632231,1.9685975,-0.76107466,0.80016404,-3.0454245,-18.478449,-0.1388637
0.21422867,4.6344404,1.9685975,-0.76107466,0.80016404,-3.0454245,-18.478449,-0.1388637
0.21478437,4.637122,2.413878,-0.86014426,0.55302274,-3.3518825,-17.597382,-0.7038953
0.21533309,4.639803,2.413878,-0.86014426,0.55302274,-3.3518825,-17.597382,-0.7038953
0.21558107,4.6429157,2.848506,-0.9730623,0.29522872,-2.7629087,-17.022774,-0.79008657
0.21582174,4.6460238,2.848506,-0.9730623,0.29522872,-2.7629087,-17.022774,-0.79008657
0.21578258,4.649536,3.2639592,-1.0742624,0.029977866,-2.4181437,-16.25663,-0.9720459
0.21573867,4.6530337,3.2639592,-1.0742624,0.029977866,-2.4181437,-16.25663,-0.9720459
0.21542247,4.6569443,3.658107,-1.1541573,-0.24272984,-2.111686,-15.773001,-1.0342951
0.21510327,4.6608405,3.658107,-1.1541573,-0.24272984,-2.111686,-15.773001,-1.0342951
0.21450041,4.6651382,4.0256233,-1.213812,-0.5228944,-1.8339585,-15.303738,-1.0390835
0.21389598,4.6694155,4.0256233,-1.213812,-0.5228944,-1.8339585,-15.303738,-1.0390835
0.21289545,4.674629,4.366508,-1.2553574,-0.80625474,-1.7381904,-14.872781,-1.1300632
0.21097164,4.6836066,4.681826,-1.2830542,-1.0885499,-2.0733786,-14.566323,-1.292869
0.21097164,4.6836066,4.681826,-1.2830542,-1.0885499,-2.0733786,-14.566323,-1.292869
0.20984319,4.688416,4.681826,-1.2830542,-1.0885499,-2.0733786,-14.566323,-1.292869
0.20845531,4.6935043,4.9694476,-1.302229,-1.3676491,-2.183512,-14.12579,-1.3982137
0.20705129,4.69864,4.9694476,-1.302229,-1.3676491,-2.183512,-14.12579,-1.3982137
0.20539556,4.7040434,5.2304373,-1.313947,-1.6339653,-2.3894134,-13.637373,-1.388637
0.20373324,4.7094526,5.2304373,-1.313947,-1.6339653,-2.3894134,-13.637373,-1.388637
0.2018063,4.7150803,5.4594693,-1.3214037,-1.8821719,-2.1883004,-13.306973,-1.1587936
0.19987659,4.7207017,5.4594693,-1.3214037,-1.8821719,-2.1883004,-13.306973,-1.1587936
0.19763066,4.7267256,5.658674,-1.318208,-2.1154647,-2.1978772,-13.101071,-0.9768343
0.19555375,4.732283,5.658674,-1.318208,-2.1154647,-2.1978772,-13.101071,-0.9768343
0.1931732,4.7382483,5.8312464,-1.3075553,-2.325322,-2.2409728,-12.947843,-0.7469909
0.1907806,4.744231,5.8312464,-1.3075553,-2.325322,-2.2409728,-12.947843,-0.7469909
0.18819322,4.75034,5.983579,-1.2947721,-2.511743,-2.1787236,-12.876017,-0.4309563
0.18561013,4.756429,5.983579,-1.2947721,-2.511743,-2.1787236,-12.876017,-0.4309563
0.18283673,4.762685,6.123129,-1.2787932,-2.6779244,-2.1739352,-12.904747,-0.22026655
0.18006845,4.768921,6.123129,-1.2787932,-2.6779244,-2.1739352,-12.904747,-0.22026655
0.17715994,4.7752633,6.2541566,-1.2585531,-2.8238657,-2.1883004,-12.904747,-0.1340753
0.17424722,4.781605,6.2541566,-1.2585531,-2.8238657,-2.1883004,-12.904747,-0.1340753
0.17122462,4.7880626,6.381988,-1.2383131,-2.946371,-2.3127987,-12.86644,-0.110133275
0.16820788,4.794494,6.381988,-1.2383131,-2.946371,-2.3127987,-12.86644,-0.110133275
0.16508822,4.8010745,6.5076895,-1.2191384,-3.0475712,-2.4995465,-12.674904,-0.272939
0.16196688,4.8076415,6.5076895,-1.2191384,-3.0475712,-2.4995465,-12.674904,-0.272939
0.15878445,4.8143187,6.6301947,-1.2063552,-3.1253355,-2.719813,-12.497733,-0.22984336
0.1523453,4.8277965,6.747374,-1.1988983,-3.1754029,-3.1651347,-12.172121,-0.1340753
0.1523453,4.8277965,6.747374,-1.1988983,-3.1754029,-3.1651347,-12.172121,-0.1340753
0.14915664,4.834511,6.747374,-1.1988983,-3.1754029,-3.1651347,-12.172121,-0.1340753
0.14591523,4.841427,6.857096,-1.2010288,-3.199904,-3.4237084,-11.812991,0.06703765
0.1426829,4.8483014,6.857096,-1.2010288,-3.199904,-3.4237084,-11.812991,0.06703765
0.13921887,4.855817,6.9582963,-1.2170079,-3.1945777,-3.5577838,-11.137826,0.2777274
0.1362223,4.862296,6.9582963,-1.2170079,-3.1945777,-3.5577838,-11.137826,0.2777274
0.13301148,4.8694086,7.045648,-1.2468352,-3.1583586,-3.2465374,-10.366894,0.5650316
0.12980615,4.8764853,7.045648,-1.2468352,-3.1583586,-3.2465374,-10.366894,0.5650316
0.12665299,4.8835993,7.109564,-1.2841195,-3.095508,-2.5234885,-9.442732,0.6847417
0.12348273,4.8907275,7.109564,-1.2841195,-3.095508,-2.5234885,-9.442732,0.6847417
0.12035708,4.8978724,7.139391,-1.3235343,-3.0102868,-1.5705963,-8.154651,0.81881696
0.11722724,4.905004,7.139391,-1.3235343,-3.0102868,-1.5705963,-8.154651,0.81881696
0.11404813,4.9121175,7.119151,-1.3512312,-2.9112172,-0.39743748,-6.5744777,0.6943185
0.11086708,4.9192305,7.119151,-1.3512312,-2.9112172,-0.39743748,-6.5744777,0.6943185
0.10772101,4.926284,7.034995,-1.3608185,-2.8025603,1.5658079,-4.43885,-0.14844051
0.10457423,4.933324,7.034995,-1.3608185,-2.8025603,1.5658079,-4.43885,-0.14844051
0.10152814,4.9402103,6.8677487,-1.3437743,-2.6896422,3.86903,-1.8674773,-1.364695
0.09847715,4.947093,6.8677487,-1.3437743,-2.6896422,3.86903,-1.8674773,-1.364695
0.09556124,4.953696,6.5950413,-1.2851847,-2.5852463,5.616797,0.7422025,-2.3558946
0.09262902,4.9603214,6.5950413,-1.2851847,-2.5852463,5.616797,0.7422025,-2.3558946
0.08981603,4.9665794,6.2051544,-1.1807889,-2.4957643,6.315904,3.3806129,-3.1603463
0.08700212,4.972829,6.2051544,-1.1807889,-2.4957643,6.315904,3.3806129,-3.1603463
0.08436545,4.9784737,5.692762,-1.0316519,-2.410543,5.3199162,5.21936,-3.6152446
0.081707664,4.9841557,5.692762,-1.0316519,-2.410543,5.3199162,5.21936,-3.6152446
0.079182535,4.9892445,5.0791698,-0.86334,-2.3189301,5.9998693,7.067683,-3.2082303
0.07665851,4.994326,5.0791698,-0.86334,-2.3189301,5.9998693,7.067683,-3.2082303
0.07426654,4.9987044,4.37503,-0.70461565,-2.225187,6.0764837,6.1100025,-1.4413095
0.07187161,5.0030866,4.37503,-0.70461565,-2.225187,6.0764837,6.1100025,-1.4413095
0.06966943,5.006712,3.6197574,-0.48197538,-2.0835068,5.8466406,4.903325,-0.4357447
0.06746974,5.010334,3.6197574,-0.48197538,-2.0835068,5.8466406,4.903325,-0.4357447
0.06551237,5.0132008,2.8708766,-0.2593351,-1.9098687,5.0757074,5.521029,-0.2633622
0.06355571,5.0160675,2.8708766,-0.2593351,-1.9098687,5.0757074,5.521029,-0.2633622
0.061884023,5.0181675,2.1337135,-0.055869583,-1.7117295,4.0797195,6.751649,-0.35913026
0.0601912,5.020296,2.1337135,-0.055869583,-1.7117295,4.0797195,6.751649,-0.35913026
0.058772717,5.0216637,1.3805715,0.115637995,-1.4901545,3.7684734,7.249643,-0.1340753
0.05735491,5.023032,1.3805715,0.115637995,-1.4901545,3.7684734,7.249643,-0.1340753
0.056202512,5.0236287,0.6039937,0.24773079,-1.2451437,4.606444,6.799533,0.7086837
0.055050384,5.024226,0.6039937,0.24773079,-1.2451437,4.606444,6.799533,0.7086837
0.05417866,5.02404,-0.18217143,0.36810568,-0.98202336,5.118803,5.899313,1.3120226
0.053306796,5.0238543,-0.18217143,0.36810568,-0.98202336,5.118803,5.899313,1.3120226
0.052721266,5.0228915,-0.9598145,0.48741528,-0.7103809,5.386954,4.687847,1.685518
0.052132122,5.021924,-0.9598145,0.48741528,-0.7103809,5.386954,4.687847,1.685518
0.051833212,5.020223,-1.7108259,0.6045944,-0.43767324,5.674258,3.3662477,1.9057846
0.05153139,5.018512,-1.7108259,0.6045944,-0.43767324,5.674258,3.3662477,1.9057846
0.051518477,5.016082,-2.4266837,0.7260345,-0.16390027,5.583278,2.3654714,1.9297266
0.051503796,5.013649,-2.4266837,0.7260345,-0.16390027,5.583278,2.3654714,1.9297266
0.051775925,5.0105486,-3.0978003,0.84853995,0.10667691,5.195418,1.4891934,1.8770541
0.052046694,5.0074387,-3.0978003,0.84853995,0.10667691,5.195418,1.4891934,1.8770541
0.052594613,5.003717,-3.7220452,0.96145797,0.37299302,4.6495395,0.5554548,1.8435353
0.0531414,4.9999833,-3.7220452,0.96145797,0.37299302,4.6495395,0.5554548,1.8435353
0.05395675,4.9956746,-4.2962227,1.0573318,0.6350481,4.050989,-0.3878607,1.8195933
0.05476634,4.9913783,-4.2962227,1.0573318,0.6350481,4.050989,-0.3878607,1.8195933
0.05583153,4.986552,-4.8139415,1.130835,0.88858104,3.596091,-1.4221559,1.9201498
0.056891993,4.981729,-4.8139415,1.130835,0.88858104,3.596091,-1.4221559,1.9201498
0.058188397,4.976447,-5.2773314,1.1851635,1.1335919,3.193865,-2.6431987,1.9919758
0.05948217,4.971159,-5.2773314,1.1851635,1.1335919,3.193865,-2.6431987,1.9919758
0.061002117,4.965461,-5.6810665,1.2267088,1.3732764,2.7820623,-3.98874,1.9440918
0.06251798,4.9597616,-5.6810665,1.2267088,1.3732764,2.7820623,-3.98874,1.9440918
0.06425074,4.953707,-6.0272775,1.2544057,1.605504,2.2936451,-5.3438582,1.8818425
0.06597761,4.9476576,-6.0272775,1.2544057,1.605504,2.2936451,-5.3438582,1.8818425
0.067911714,4.9412894,-6.3095727,1.2703847,1.827079,1.9393034,-6.7947445,1.6759412
0.069844946,4.934909,-6.3095727,1.2703847,1.827079,1.9393034,-6.7947445,1.6759412
0.07197306,4.9283056,-6.529017,1.2778416,2.0390666,1.6472107,-8.202535,1.4652514
0.07409305,4.9217095,-6.529017,1.2778416,2.0390666,1.6472107,-8.202535,1.4652514
0.07640722,4.9149303,-6.689872,1.2714499,2.2361405,1.4748282,-9.528923,1.2737153
0.07871864,4.9081383,-6.689872,1.2714499,2.2361405,1.4748282,-9.528923,1.2737153
0.08123586,4.9012,-6.794268,1.255471,2.4193661,0.81402856,-10.778696,0.8619126
0.0837438,4.894261,-6.794268,1.255471,2.4193661,0.81402856,-10.778696,0.8619126
0.086419314,4.887279,-6.8485966,1.2224478,2.5908737,0.48362875,-11.736377,0.7086837
0.08909588,4.880268,-6.8485966,1.2224478,2.5908737,0.48362875,-11.736377,0.7086837
0.09190285,4.873277,-6.853923,1.1659888,2.7464023,0.33518824,-12.674904,0.8283938
0.09470255,4.8662786,-6.853923,1.1659888,2.7464023,0.33518824,-12.674904,0.8283938
0.09764399,4.859328,-6.8049207,1.1020728,2.8955393,0.08140286,-13.469779,0.78529817
0.100575134,4.8523765,-6.8049207,1.1020728,2.8955393,0.08140286,-13.469779,0.78529817
0.10400353,4.844737,-6.6994596,1.0370917,3.0350888,-0.33518824,-14.087482,0.6655881
0.10726569,4.8374395,-6.6994596,1.0370917,3.0350888,-0.33518824,-14.087482,0.6655881
0.10993625,4.831824,-6.5428653,0.9689148,3.1629207,-0.5554548,-14.513651,0.641646
0.11305896,4.825237,-6.5428653,0.9689148,3.1629207,-0.5554548,-14.513651,0.641646
0.116336696,4.818761,-6.3383346,0.8975421,3.2758386,-0.79487497,-14.791378,0.5554548
0.11960977,4.812271,-6.3383346,0.8975421,3.2758386,-0.79487497,-14.791378,0.5554548
0.12297484,4.8060446,-6.0890627,0.82829994,3.3770387,-0.9624691,-15.121778,0.4261679
0.12633203,4.799811,-6.0890627,0.82829994,3.3770387,-0.9624691,-15.121778,0.4261679
0.12977357,4.7938547,-5.800376,0.760123,3.4643905,-0.9959879,-15.231912,0.37828386
0.13319705,4.7879105,-5.800376,0.760123,3.4643905,-0.9959879,-15.231912,0.37828386
0.13666235,4.7823114,-5.4754705,0.69301134,3.5315022,-0.9816227,-15.284584,0.44532153
0.14012408,4.7767043,-5.4754705,0.69301134,3.5315022,-0.9816227,-15.284584,0.44532153
0.14361644,4.7714667,-5.1207376,0.6280302,3.5783737,-0.93852705,-15.471332,0.521936
0.1470874,4.7662544,-5.1207376,0.6280302,3.5783737,-0.93852705,-15.471332,0.521936
0.15058263,4.7614202,-4.740438,0.56624484,3.6018095,-0.94331545,-15.035586,0.51714754
0.15406619,4.756601,-4.740438,0.56624484,3.6018095,-0.94331545,-15.035586,0.51714754
0.15754406,4.7522326,-4.3430943,0.50126374,3.591157,-0.4357447,-15.370775,1.115698
0.16102567,4.7478595,-4.3430943,0.50126374,3.591157,-0.4357447,-15.370775,1.115698
0.16447383,4.7439356,-3.934033,0.4416089,3.5549378,-0.79487497,-15.35641,1.3599066
0.16792929,4.7400017,-3.934033,0.4416089,3.5549378,-0.79487497,-15.35641,1.3599066
0.17133279,4.7364993,-3.511123,0.37769306,3.4888916,-0.46926352,-14.834474,1.685518
0.17133279,4.7364993,-3.511123,0.37769306,3.4888916,-0.46926352,-14.834474,1.685518
0.17133279,4.7364993,-3.511123,0.37769306,3.4888916,-0.46926352,-14.834474,1.685518
0.18270843,4.72604,-3.0871477,0.30632034,3.3919525,-0.8762778,-14.60463,1.9776106
0.18455188,4.724528,-2.669564,0.23388235,3.2715776,-0.866701,-15.1696615,2.2457612
0.18775834,4.721896,-2.669564,0.23388235,3.2715776,-0.866701,-15.1696615,2.2457612
0.19079909,4.719713,-2.2487845,0.14972645,3.1128533,-0.7038953,-17.108965,3.3518825
0.19384532,4.717524,-2.2487845,0.14972645,3.1128533,-0.7038953,-17.108965,3.3518825
0.19676656,4.7158093,-1.8013734,0.06130951,2.9296277,-2.0398598,-11.3964,2.1547816
0.19970378,4.7140827,-1.8013734,0.06130951,2.9296277,-2.0398598,-11.3964,2.1547816
0.20229225,4.7127457,-1.421074,-0.055869583,2.681421,3.916914,-18.301277,5.9184666
0.20488594,4.711405,-1.421074,-0.055869583,2.681421,3.916914,-18.301277,5.9184666
0.20725411,4.7104697,-1.0311872,-0.084631726,2.439606,0.7086837,-18.828003,4.9655743
0.2096269,4.709532,-1.0311872,-0.084631726,2.439606,0.7086837,-18.828003,4.9655743
0.21177459,4.7090435,-0.59868985,-0.08676225,2.1882036,-2.3127987,-18.186356,3.691859
0.2139237,4.7085543,-0.59868985,-0.08676225,2.1882036,-2.3127987,-18.186356,3.691859
0.21580894,4.7085266,-0.15660508,-0.16878761,1.915496,-2.7389667,-18.124107,3.0071173
0.21768953,4.708499,-0.15660508,-0.16878761,1.915496,-2.7389667,-18.124107,3.0071173
0.21926141,4.708929,0.27802283,-0.307272,1.6374619,-1.982399,-16.366762,2.111686
0.22084174,4.709362,0.27802283,-0.307272,1.6374619,-1.982399,-16.366762,2.111686
0.22210637,4.71021,0.6764317,-0.45001742,1.3551668,-1.1540052,-14.513651,1.5514427
0.22337231,4.7110605,0.6764317,-0.45001742,1.3551668,-1.1540052,-14.513651,1.5514427
0.22434433,4.712268,1.0141206,-0.57784915,1.073937,-0.63206923,-13.000515,1.364695
0.22531971,4.713482,1.0141206,-0.57784915,1.073937,-0.63206923,-13.000515,1.364695
0.2260127,4.7149854,1.2836325,-0.68011457,0.79164195,-0.59376204,-12.650962,1.5658079
0.22670585,4.716493,1.2836325,-0.68011457,0.79164195,-0.59376204,-12.650962,1.5658079
0.22711584,4.7182355,1.5041422,-0.7525525,0.51041216,-0.5602432,-12.603078,1.6136919
0.2275413,4.7200527,1.5041422,-0.7525525,0.51041216,-0.5602432,-12.603078,1.6136919
0.2276694,4.7219353,1.6948246,-0.7994242,0.24196549,-0.6943185,-12.220005,1.3263878
0.22779839,4.7238665,1.6948246,-0.7994242,0.24196549,-0.6943185,-12.220005,1.3263878
0.22766687,4.725969,1.862071,-0.82392526,-0.0051758625,-0.9720459,-11.674128,0.8619126
0.22753243,4.7280717,1.862071,-0.82392526,-0.0051758625,-0.9720459,-11.674128,0.8619126
0.22676075,4.732542,2.0037513,-0.8356432,-0.22994666,-1.1444284,-11.099519,0.34476504
0.22676075,4.732542,2.0037513,-0.8356432,-0.22994666,-1.1444284,-11.099519,0.34476504
0.22617562,4.734834,2.115604,-0.84203476,-0.42915112,-1.283292,-10.7116585,-0.08619126
0.22558399,4.737146,2.115604,-0.84203476,-0.42915112,-1.283292,-10.7116585,-0.08619126
0.22485675,4.7394485,2.1965642,-0.84629583,-0.6006587,-1.412579,-10.635044,-0.31603462
0.22414453,4.741701,2.1965642,-0.84629583,-0.6006587,-1.412579,-10.635044,-0.31603462
0.22328448,4.7440605,2.2540884,-0.84842634,-0.74340415,-1.541866,-10.7356,-0.4309563
0.22242837,4.7464075,2.2540884,-0.84842634,-0.74340415,-1.541866,-10.7356,-0.4309563
0.22146137,4.7487936,2.2924378,-0.84842634,-0.8552569,-1.5610195,-10.994174,-0.48841715
0.22049472,4.751177,2.2924378,-0.84842634,-0.8552569,-1.5610195,-10.994174,-0.48841715
0.21943422,4.7535954,2.3222654,-0.8452305,-0.94154334,-1.5275006,-11.348516,-0.49799395
0.21837395,4.7560115,2.3222654,-0.8452305,-0.94154334,-1.5275006,-11.348516,-0.49799395
0.21725778,4.7584443,2.3478317,-0.83883893,-0.9990676,-1.5897499,-11.650186,-0.46447513
0.21613866,4.760882,2.3478317,-0.83883893,-0.9990676,-1.5897499,-11.650186,-0.46447513
0.21499397,4.7633357,2.3744633,-0.82818633,-1.033156,-1.70946,-11.923124,-0.50757074
0.21384965,4.7657866,2.3744633,-0.82818633,-1.033156,-1.70946,-11.923124,-0.50757074
0.21270455,4.768256,2.401095,-0.8164684,-1.044874,-1.8579005,-12.229582,-0.60812724
0.2115585,4.7707257,2.401095,-0.8164684,-1.044874,-1.8579005,-12.229582,-0.60812724
0.21043321,4.7732105,2.4287918,-0.8015547,-1.0352865,-1.9680338,-12.449849,-0.7278373
0.20930673,4.775696,2.4287918,-0.8015547,-1.0352865,-1.9680338,-12.449849,-0.7278373
0.2081916,4.7782598,2.458619,-0.7823799,-1.0075897,-2.054225,-12.679692,-0.91937345
0.2081916,4.7782598,2.458619,-0.7823799,-1.0075897,-2.054225,-12.679692,-0.91937345
0.20582727,4.783716,2.4948382,-0.7546831,-0.9660444,-2.1068976,-12.804191,-1.0342951
0.2030234,4.7908983,2.5353181,-0.7205946,-0.90958536,-2.255338,-12.789825,-1.2593501
0.2030234,4.7908983,2.5353181,-0.7205946,-0.90958536,-2.255338,-12.789825,-1.2593501
0.2030234,4.7908983,2.5353181,-0.7205946,-0.90958536,-2.255338,-12.789825,-1.2593501
0.2021275,4.793483,2.5800593,-0.6822451,-0.84247375,-2.4133554,-12.722788,-1.4508862
0.20117645,4.7962227,2.5800593,-0.6822451,-0.84247375,-2.4133554,-12.722788,-1.4508862
0.19958743,4.801354,2.6290615,-0.64176506,-0.7647094,-2.5139117,-12.545617,-1.4413095
0.19958743,4.801354,2.6290615,-0.64176506,-0.7647094,-2.5139117,-12.545617,-1.4413095
0.19886038,4.804036,2.6801941,-0.5991545,-0.68055356,-2.552219,-12.220005,-1.3790601
0.19813304,4.806715,2.6801941,-0.5991545,-0.68055356,-2.552219,-12.220005,-1.3790601
0.19749783,4.8094416,2.732392,-0.55760914,-0.5932018,-2.528277,-11.774684,-1.2545617
0.19686162,4.812167,2.732392,-0.55760914,-0.5932018,-2.528277,-11.774684,-1.2545617
0.19631946,4.8149395,2.780329,-0.51286805,-0.5037196,-2.480393,-11.267113,-1.1827357
0.19577785,4.8177023,2.780329,-0.51286805,-0.5037196,-2.480393,-11.267113,-1.1827357
0.19532326,4.8204975,2.8186786,-0.46599638,-0.4142374,-2.1883004,-10.433931,-1.2258313
0.19486861,4.823287,2.8186786,-0.46599638,-0.4142374,-2.1883004,-10.433931,-1.2258313
0.19448379,4.8260984,2.8357227,-0.41699424,-0.32795098,-1.532289,-9.3661175,-1.5035586
0.19409975,4.8288975,2.8357227,-0.41699424,-0.32795098,-1.532289,-9.3661175,-1.5035586
0.19377957,4.8316703,2.8154829,-0.363731,-0.25125197,-0.770933,-8.149862,-1.9632454
0.193455,4.8344755,2.8154829,-0.363731,-0.25125197,-0.770933,-8.149862,-1.9632454
0.19319364,4.837153,2.7494364,-0.3008804,-0.18840134,-0.11492168,-7.101202,-2.4181437
0.19293155,4.839833,2.7494364,-0.3008804,-0.18840134,-0.11492168,-7.101202,-2.4181437
0.192729,4.8423862,2.6290615,-0.22418137,-0.13726866,0.19153613,-6.066907,-2.9831753
0.19252622,4.844939,2.6290615,-0.22418137,-0.13726866,0.19153613,-6.066907,-2.9831753
0.19236703,4.8473034,2.4532928,-0.13896021,-0.09891914,0.5650316,-5.2241483,-3.2369606
0.19220783,4.8496656,2.4532928,-0.13896021,-0.09891914,0.5650316,-5.2241483,-3.2369606
0.19208649,4.8518143,2.2231958,-0.046282202,-0.06909173,0.7326257,-4.534618,-3.265691
0.19196206,4.854018,2.2231958,-0.046282202,-0.06909173,0.7326257,-4.534618,-3.265691
0.19188254,4.8557754,1.9419659,0.052787393,-0.04778644,0.6560113,-4.0318356,-3.107674
0.19180308,4.8575344,1.9419659,0.052787393,-0.04778644,0.6560113,-4.0318356,-3.107674
0.19175455,4.859009,1.6191908,0.15292226,-0.02861168,0.5554548,-3.7493198,-2.695871
0.19170639,4.8604817,1.6191908,0.15292226,-0.02861168,0.5554548,-3.7493198,-2.695871
0.19169,4.861579,1.2633924,0.24879605,-0.0073063914,0.47405192,-3.6104562,-2.1404164
0.1916739,4.8626776,1.2633924,0.24879605,-0.0073063914,0.47405192,-3.6104562,-2.1404164
0.1916784,4.8633933,0.8873541,0.3425393,0.015064162,0.62249243,-3.6870706,-1.6280571
0.19168325,4.864107,0.8873541,0.3425393,0.015064162,0.62249243,-3.6870706,-1.6280571
0.19170257,4.8644314,0.50172836,0.4330868,0.03849998,0.7230489,-3.98874,-1.0055647
0.19172211,4.8647547,0.50172836,0.4330868,0.03849998,0.7230489,-3.98874,-1.0055647
0.19176246,4.8646884,0.11397209,0.51724267,0.061935797,0.49799395,-4.280833,-0.40222588
0.19180277,4.864622,0.11397209,0.51724267,0.061935797,0.49799395,-4.280833,-0.40222588
0.19186348,4.864182,-0.26632732,0.5896807,0.088567406,0.2873042,-4.4580035,0.04309563
0.19192417,4.86374,-0.26632732,0.5896807,0.088567406,0.2873042,-4.4580035,0.04309563
0.19201337,4.8629327,-0.6327783,0.6493355,0.120525345,0.49799395,-4.5777135,0.15801731
0.19210163,4.8621283,-0.6327783,0.6493355,0.120525345,0.49799395,-4.5777135,0.15801731
0.19222653,4.8609633,-0.9864461,0.6983377,0.15354854,1.0151415,-4.4340615,0
0.1923506,4.859797,-0.9864461,0.6983377,0.15354854,1.0151415,-4.4340615,0
0.19251435,4.8582816,-1.3305265,0.74094826,0.18870227,1.412579,-4.3622355,-0.17238252
0.19267684,4.8567667,-1.3305265,0.74094826,0.18870227,1.412579,-4.3622355,-0.17238252
0.19288227,4.8549085,-1.66715,0.7835588,0.22811705,1.3694834,-4.5633483,-0.090979666
0.19308645,4.8530493,-1.66715,0.7835588,0.22811705,1.3694834,-4.5633483,-0.090979666
0.1933341,4.8508663,-1.9899253,0.82084304,0.26966238,0.9624691,-4.841076,0.11492168
0.19357981,4.8486843,-1.9899253,0.82084304,0.26966238,0.9624691,-4.841076,0.11492168
0.19387135,4.8462033,-2.2924602,0.84853995,0.316534,0.7565677,-5.305551,0.320823
0.1941607,4.843723,-2.2924602,0.84853995,0.316534,0.7565677,-5.305551,0.320823
0.19450258,4.840978,-2.5715597,0.8677147,0.37192777,0.79008657,-5.7269306,0.49799395
0.19484358,4.8382225,-2.5715597,0.8677147,0.37192777,0.79008657,-5.7269306,0.49799395
0.19524373,4.835233,-2.822962,0.87836736,0.43371308,0.92895025,-6.1866174,0.6703765
0.19564193,4.832242,-2.822962,0.87836736,0.43371308,0.92895025,-6.1866174,0.6703765
0.19610374,4.829026,-3.048798,0.8826284,0.4997595,0.9672575,-6.7229185,0.7326257
0.19656356,4.825808,-3.048798,0.8826284,0.4997595,0.9672575,-6.7229185,0.7326257
0.19708693,4.822402,-3.245872,0.8858242,0.56687117,0.90021986,-7.249643,0.81881696
0.19760883,4.81899,-3.245872,0.8858242,0.56687117,0.90021986,-7.249643,0.81881696
0.19819976,4.8154335,-3.4131186,0.8836937,0.6403744,0.7469909,-7.8769236,0.9864111
0.19879125,4.81186,-3.4131186,0.8836937,0.6403744,0.7469909,-7.8769236,0.9864111
0.19945468,4.808169,-3.548407,0.8773021,0.71494293,0.44532153,-8.5473,1.1587936
0.20011781,4.804467,-3.548407,0.8773021,0.71494293,0.44532153,-8.5473,1.1587936
0.20085223,4.800698,-3.6506724,0.8634536,0.79377246,0.272939,-9.222465,1.2689269
0.20158914,4.796906,-3.6506724,0.8634536,0.79377246,0.272939,-9.222465,1.2689269
0.20239444,4.7930527,-3.7188494,0.84214836,0.8715368,0.19153613,-9.892841,1.2066777
0.20320097,4.789185,-3.7188494,0.84214836,0.8715368,0.19153613,-9.892841,1.2066777
0.20407474,4.785308,-3.754003,0.81445146,0.9503664,0.15322891,-10.352529,1.163582
0.2049465,4.781431,-3.754003,0.81445146,0.9503664,0.15322891,-10.352529,1.163582
0.20589426,4.7775545,-3.7561338,0.7814283,1.0281307,0.11492168,-10.840945,1.2354081
0.2068393,4.7736826,-3.7561338,0.7814283,1.0281307,0.11492168,-10.840945,1.2354081
0.2078527,4.76984,-3.7284367,0.744144,1.1016339,0.090979666,-11.166556,1.1875241
0.20886263,4.7660046,-3.7284367,0.744144,1.1016339,0.090979666,-11.166556,1.1875241
0.20994137,4.762218,-3.6719778,0.7025987,1.1719414,-0.07182605,-11.587936,1.1348516
0.21101454,4.7584467,-3.6719778,0.7025987,1.1719414,-0.07182605,-11.587936,1.1348516
0.21214645,4.7547555,-3.587822,0.6578576,1.2358572,-0.14844051,-11.87524,1.0007763
0.21327952,4.751057,-3.587822,0.6578576,1.2358572,-0.14844051,-11.87524,1.0007763
0.21446729,4.7474976,-3.4791648,0.61205125,1.2955121,-0.272939,-12.20564,1.0965444
0.2156601,4.7439203,-3.4791648,0.61205125,1.2955121,-0.272939,-12.20564,1.0965444
0.21689494,4.7405,-3.3481374,0.5619838,1.34771,-0.34955344,-12.425907,1.0342951
0.21813029,4.737077,-3.3481374,0.5619838,1.34771,-0.34955344,-12.425907,1.0342951
0.21941854,4.7338123,-3.1968699,0.5076553,1.3945817,-0.47884035,-12.679692,1.1444284
0.22070377,4.730555,-3.1968699,0.5076553,1.3945817,-0.47884035,-12.679692,1.1444284
0.2220278,4.727485,-3.0306885,0.4511963,1.4339964,-0.49799395,-12.794614,1.2449849
0.22335422,4.724409,-3.0306885,0.4511963,1.4339964,-0.49799395,-12.794614,1.2449849
0.22471763,4.7215285,-2.8485284,0.39047623,1.4627585,-0.47884035,-12.933477,1.460463
0.22607541,4.718659,-2.8485284,0.39047623,1.4627585,-0.47884035,-12.933477,1.460463
0.22746561,4.71599,-2.653585,0.33188668,1.4840639,-0.4357447,-13.148955,1.70946
0.22885011,4.713331,-2.653585,0.33188668,1.4840639,-0.4357447,-13.148955,1.70946
0.23025556,4.710891,-2.443728,0.27862346,1.4979123,-0.36870706,-14.283808,2.0973208
0.23166087,4.7084494,-2.443728,0.27862346,1.4979123,-0.36870706,-14.283808,2.0973208
0.23308463,4.706267,-2.206174,0.23068656,1.4979123,-1.0726024,-14.192827,2.3080103
0.23450807,4.7040834,-2.206174,0.23068656,1.4979123,-1.0726024,-14.192827,2.3080103
0.23592144,4.702174,-1.9387925,0.1752928,1.4840639,-0.30166942,-13.239936,2.8443117
0.23592144,4.702174,-1.9387925,0.1752928,1.4840639,-0.30166942,-13.239936,2.8443117
0.23592144,4.702174,-1.9387925,0.1752928,1.4840639,-0.30166942,-13.239936,2.8443117
0.2406002,4.696497,-1.6905859,0.11457273,1.4371922,1.2449849,-15.677233,4.390966
0.24132346,4.695619,-1.6905859,0.11457273,1.4371922,1.2449849,-15.677233,4.390966
0.24269927,4.694227,-1.4029645,0.10285482,1.3977774,-0.8331822,-16.582241,3.9552212
0.24396671,4.6932287,-1.0652757,0.05491792,1.3264047,-1.283292,-16.55351,3.691859
0.24523522,4.692229,-1.0652757,0.05491792,1.3264047,-1.283292,-16.55351,3.691859
0.24638233,4.691622,-0.69775945,-0.022846384,1.2305309,-0.9672575,-16.093824,3.217807
0.24861744,4.6907754,-0.31639475,-0.1123286,1.1165476,-0.8379706,-14.585477,2.3989902
0.24861744,4.6907754,-0.31639475,-0.1123286,1.1165476,-0.8379706,-14.585477,2.3989902
0.24966677,4.6905575,-0.31639475,-0.1123286,1.1165476,-0.8379706,-14.585477,2.3989902
0.25055692,4.6907187,0.043664634,-0.20287608,0.9823243,-0.48362875,-13.278243,2.0159178
0.2514504,4.6908803,0.043664634,-0.20287608,0.9823243,-0.48362875,-13.278243,2.0159178
0.25220093,4.6913815,0.36324397,-0.2891625,0.83638304,-0.20111294,-12.306197,1.8243817
0.25295702,4.691887,0.36324397,-0.2891625,0.83638304,-0.20111294,-12.306197,1.8243817
0.25370443,4.692387,0.36324397,-0.2891625,0.83638304,-0.20111294,-12.306197,1.8243817
0.25435743,4.693269,0.63914746,-0.36479628,0.67659336,0.02873042,-12.243947,1.8962077
0.25488636,4.693984,0.63914746,-0.36479628,0.67659336,0.02873042,-12.243947,1.8962077
0.2553047,4.695033,0.8777667,-0.42338583,0.5082816,0.0047884034,-12.0332575,1.7190368
0.25572136,4.6960797,0.8777667,-0.42338583,0.5082816,0.0047884034,-12.0332575,1.7190368
0.25596458,4.6973505,1.0908196,-0.4628006,0.3378393,-0.22505496,-11.669339,1.412579
0.25620726,4.6986246,1.0908196,-0.4628006,0.3378393,-0.22505496,-11.669339,1.412579
0.25628313,4.7000914,1.2783061,-0.48836696,0.17378856,-0.6751649,-11.27669,1.091756
0.25635764,4.701556,1.2783061,-0.48836696,0.17378856,-0.6751649,-11.27669,1.091756
0.25626415,4.7031784,1.4380958,-0.5107375,0.016129427,-0.94331545,-11.018116,0.7086837
0.2561691,4.7048006,1.4380958,-0.5107375,0.016129427,-0.94331545,-11.018116,0.7086837
0.25590628,4.706594,1.5723191,-0.53310806,-0.12874654,-0.94331545,-10.879252,0.34476504
0.2556539,4.7083044,1.5723191,-0.53310806,-0.12874654,-0.94331545,-10.879252,0.34476504
0.2548576,4.71198,1.6831067,-0.54908705,-0.25764355,-0.6512229,-10.630256,-0.033518825
0.2548576,4.71198,1.6831067,-0.54908705,-0.25764355,-0.6512229,-10.630256,-0.033518825
0.2543456,4.713892,1.7747194,-0.55547863,-0.36949632,-0.641646,-10.395624,-0.34476504
0.25383288,4.7158017,1.7747194,-0.55547863,-0.36949632,-0.641646,-10.395624,-0.34476504
0.2532446,4.717734,1.8524836,-0.54908705,-0.46537012,-1.0007763,-10.141838,-0.641646
0.25268698,4.719563,1.8524836,-0.54908705,-0.46537012,-1.0007763,-10.141838,-0.641646
0.2520177,4.721598,1.9174649,-0.5405649,-0.5463302,-1.2689269,-9.844957,-0.8331822
0.25136754,4.723574,1.9174649,-0.5405649,-0.5463302,-1.2689269,-9.844957,-0.8331822
0.25066772,4.725586,1.9685975,-0.5299123,-0.6113113,-1.3742718,-9.548077,-0.93852705
0.249969,4.7275944,1.9685975,-0.5299123,-0.6113113,-1.3742718,-9.548077,-0.93852705
0.24923316,4.7296386,2.006947,-0.51712906,-0.65498716,-1.4317327,-9.227253,-0.9528923
0.2485154,4.731632,2.006947,-0.51712906,-0.65498716,-1.4317327,-9.227253,-0.9528923
0.24776846,4.7336903,2.0314481,-0.49688905,-0.67948824,-1.532289,-8.848969,-0.9720459
0.24700391,4.735797,2.0314481,-0.49688905,-0.67948824,-1.532289,-8.848969,-0.9720459
0.24627005,4.7378464,2.0367744,-0.47132272,-0.6816188,-1.6041151,-8.48984,-1.0390835
0.24554063,4.739882,2.0367744,-0.47132272,-0.6816188,-1.6041151,-8.48984,-1.0390835
0.24483238,4.741902,2.01973,-0.44149533,-0.66457456,-1.5993267,-8.082825,-1.0486604
0.2441185,4.743937,2.01973,-0.44149533,-0.66457456,-1.5993267,-8.082825,-1.0486604
0.24344651,4.7459064,1.9792502,-0.40527633,-0.62622505,-1.4891934,-7.7572136,-1.0151415
0.24277323,4.7478786,1.9792502,-0.40527633,-0.62622505,-1.4891934,-7.7572136,-1.0151415
0.24214499,4.749772,1.9121385,-0.36586154,-0.57189655,-1.2114661,-7.350199,-1.043872
0.24151617,4.7516665,1.9121385,-0.36586154,-0.57189655,-1.2114661,-7.350199,-1.043872
0.24093916,4.753462,1.81733,-0.32005516,-0.5015891,-0.78529817,-6.9288197,-1.0726024
0.23895709,4.7600574,1.5361001,-0.2018108,-0.33114678,-0.32561144,-6.3829417,-1.2593501
0.23895709,4.7600574,1.5361001,-0.2018108,-0.33114678,-0.32561144,-6.3829417,-1.2593501
0.23895709,4.7600574,1.5361001,-0.2018108,-0.33114678,-0.32561144,-6.3829417,-1.2593501
0.23895709,4.7600574,1.5361001,-0.2018108,-0.33114678,-0.32561144,-6.3829417,-1.2593501
0.23854817,4.761533,1.5361001,-0.2018108,-0.33114678,-0.32561144,-6.3829417,-1.2593501
0.23815055,4.763172,1.3496789,-0.13363388,-0.23740351,-0.3878607,-6.2392898,-1.2354081
0.23792765,4.7640924,1.3496789,-0.13363388,-0.23740351,-0.3878607,-6.2392898,-1.2354081
0.23765208,4.765519,1.1387565,-0.066522226,-0.13513812,-0.46447513,-6.2105594,-1.13964
0.23752016,4.7662034,1.1387565,-0.066522226,-0.13513812,-0.46447513,-6.2105594,-1.13964
0.23739544,4.7673297,0.9075941,-0.0015410949,-0.027546417,-0.5554548,-6.205771,-1.0726024
0.23734073,4.7678256,0.9075941,-0.0015410949,-0.027546417,-0.5554548,-6.205771,-1.0726024
0.2373618,4.7683735,0.6604528,0.05704845,0.087502144,-0.46926352,-6.172252,-0.9816227
0.23738319,4.7689247,0.6604528,0.05704845,0.087502144,-0.46926352,-6.172252,-0.9816227
0.23751527,4.7692122,0.403724,0.11137694,0.2057465,-0.30645782,-6.1770406,-0.93373865
0.23764741,4.7695,0.403724,0.11137694,0.2057465,-0.30645782,-6.1770406,-0.93373865
0.23788816,4.76952,0.13953844,0.15931384,0.3250561,-0.15322891,-6.253655,-0.80924016
0.23812856,4.769541,0.13953844,0.15931384,0.3250561,-0.15322891,-6.253655,-0.80924016
0.23848528,4.7692842,-0.12997347,0.20298968,0.44116995,-0.076614454,-6.291962,-0.8331822
0.2388421,4.7690268,-0.12997347,0.20298968,0.44116995,-0.076614454,-6.291962,-0.8331822
0.23930895,4.7684965,-0.39735484,0.24346973,0.55302274,0.05746084,-6.2967505,-0.8858546
0.23977587,4.7679653,-0.39735484,0.24346973,0.55302274,0.05746084,-6.2967505,-0.8858546
0.24034397,4.767162,-0.66154045,0.280754,0.6574186,0.30645782,-6.2967505,-0.8379706
0.24090241,4.7663713,-0.66154045,0.280754,0.6574186,0.30645782,-6.2967505,-0.8379706
0.24156342,4.7653055,-0.921465,0.31803825,0.7522272,0.22505496,-6.4404025,-0.8523358
0.242223,4.764241,-0.921465,0.31803825,0.7522272,0.22505496,-6.4404025,-0.8523358
0.242978,4.7629147,-1.1718022,0.35425723,0.83957887,-0.07182605,-6.6989765,-0.842759
0.24373499,4.761583,-1.1718022,0.35425723,0.83957887,-0.07182605,-6.6989765,-0.842759
0.24458519,4.759999,-1.4093561,0.3883457,0.91734314,-0.37349546,-6.933608,-0.9864111
0.24543498,4.7584124,-1.4093561,0.3883457,0.91734314,-0.37349546,-6.933608,-0.9864111
0.24636602,4.7565966,-1.6298658,0.4181731,0.9908464,-0.5363012,-7.326257,-1.1061212
0.24729463,4.7547817,-1.6298658,0.4181731,0.9908464,-0.5363012,-7.326257,-1.1061212
0.24829361,4.7527575,-1.8301356,0.44373944,1.057958,-0.6560113,-7.7907324,-1.1540052
0.24929088,4.750733,-1.8301356,0.44373944,1.057958,-0.6560113,-7.7907324,-1.1540052
0.25034475,4.748532,-2.0091,0.45865315,1.1197433,-0.866701,-8.432379,-1.0247183
0.25140184,4.746319,-2.0091,0.45865315,1.1197433,-0.866701,-8.432379,-1.0247183
0.2524945,4.743966,-2.162498,0.46611,1.1719414,-0.9528923,-9.064447,-0.8331822
0.25358462,4.7416134,-2.162498,0.46611,1.1719414,-0.9528923,-9.064447,-0.8331822
0.2546969,4.739148,-2.2839382,0.46717528,1.2113562,-0.7661445,-9.753978,-0.7230489
0.25580904,4.736679,-2.2839382,0.46717528,1.2113562,-0.7661445,-9.753978,-0.7230489
0.2569266,4.734142,-2.375551,0.46397948,1.2358572,-0.5363012,-10.481815,-0.50757074
0.25804883,4.7315893,-2.375551,0.46397948,1.2358572,-0.5363012,-10.481815,-0.50757074
0.25916028,4.729028,-2.4330752,0.45865315,1.2475752,-0.6847417,-11.233594,-0.35913026
0.26028344,4.7264366,-2.4330752,0.45865315,1.2475752,-0.6847417,-11.233594,-0.35913026
0.261395,4.7238398,-2.4554458,0.4511963,1.243314,-0.9816227,-11.9853735,-0.21068975
0.26250383,4.7212462,-2.4554458,0.4511963,1.243314,-0.9816227,-11.9853735,-0.21068975
0.26359102,4.718673,-2.4415972,0.4394784,1.2230741,-1.2258313,-12.631808,-0.110133275
0.2646801,4.716094,-2.4415972,0.4394784,1.2230741,-1.2258313,-12.631808,-0.110133275
0.2657303,4.7135873,-2.3915298,0.41923836,1.1911161,-1.4796166,-13.249513,-0.05267244
0.2667848,4.711069,-2.3915298,0.41923836,1.1911161,-1.4796166,-13.249513,-0.05267244
0.26778987,4.7086687,-2.3052435,0.39154148,1.1506361,-1.6950948,-13.733141,-0.009576807
0.26880533,4.7062426,-2.3052435,0.39154148,1.1506361,-1.6950948,-13.733141,-0.009576807
0.2697575,4.7039638,-2.1848686,0.35319197,1.0984381,-1.7669208,-14.111424,-0.1388637
0.27071187,4.701679,-2.1848686,0.35319197,1.0984381,-1.7669208,-14.111424,-0.1388637
0.27160388,4.6995487,-2.0367968,0.30632034,1.0345223,-1.7621324,-14.45619,-0.19153613
0.27249348,4.697425,-2.0367968,0.30632034,1.0345223,-1.7621324,-14.45619,-0.19153613
0.27330887,4.6954904,-1.8578324,0.2562529,0.961019,-1.6663644,-15.035586,-0.30166942
0.27412707,4.693549,-1.8578324,0.2562529,0.961019,-1.6663644,-15.035586,-0.30166942
0.27485868,4.691846,-1.6469101,0.20405495,0.87473255,-1.9201498,-16.01721,-0.19632454
0.27559024,4.6901436,-1.6469101,0.20405495,0.87473255,-1.9201498,-16.01721,-0.19632454
0.2762771,4.688616,-1.3987035,0.14653066,0.7788588,-2.5617957,-12.808979,-1.2114661
0.27696207,4.6870885,-1.3987035,0.14653066,0.7788588,-2.5617957,-12.808979,-1.2114661
0.2774881,4.685933,-1.1664758,0.071962155,0.6520923,0.23942018,-16.472107,0.92895025
0.27801433,4.684778,-1.1664758,0.071962155,0.6520923,0.23942018,-16.472107,0.92895025
0.2784256,4.68389,-0.9076165,0.050656863,0.5402395,-2.3894134,-16.840815,0.20111294
0.27883643,4.683004,-0.9076165,0.050656863,0.5402395,-2.3894134,-16.840815,0.20111294
0.27911302,4.682438,-0.5933635,0.0059157563,0.40601623,-2.3511062,-16.630125,0.095768064
0.27938926,4.6818743,-0.5933635,0.0059157563,0.40601623,-2.3511062,-16.630125,0.095768064
0.27950805,4.681656,-0.24715257,-0.062261168,0.25474867,-2.2649148,-15.773001,-0.2777274
0.279627,4.681438,-0.24715257,-0.062261168,0.25474867,-2.2649148,-15.773001,-0.2777274
0.27959293,4.681567,0.11290683,-0.1272423,0.10028532,-2.2984335,-14.044387,-0.6607997
0.27955872,4.681696,0.11290683,-0.1272423,0.10028532,-2.2984335,-14.044387,-0.6607997
0.27936414,4.682178,0.4527262,-0.19115818,-0.06376541,-1.7860745,-12.593501,-0.6991069
0.27884448,4.683321,0.75419605,-0.2412256,-0.23633824,-1.1587936,-11.482592,-0.5650316
0.27858043,4.683901,0.75419605,-0.2412256,-0.23633824,-1.1587936,-11.482592,-0.5650316
0.2780387,4.6849785,1.0141206,-0.27105302,-0.4142374,-0.56982,-11.180922,-0.46926352
0.2775453,4.6859584,1.0141206,-0.27105302,-0.4142374,-0.56982,-11.180922,-0.46926352
0.27700254,4.6870346,1.0141206,-0.27105302,-0.4142374,-0.56982,-11.180922,-0.46926352
0.27626857,4.6883464,1.2367609,-0.27850986,-0.5974629,-0.39743748,-10.888829,-0.56982
0.27500066,4.690608,1.2367609,-0.27850986,-0.5974629,-0.39743748,-10.888829,-0.56982
0.2747813,4.6909637,1.4295737,-0.2657267,-0.78175366,-0.6655881,-10.448297,-0.78050977
0.27384624,4.6924767,1.4295737,-0.2657267,-0.78175366,-0.6655881,-10.448297,-0.78050977
0.2727746,4.6940804,1.5914938,-0.2444214,-0.9585875,-1.0007763,-10.007763,-1.0773908
0.27172163,4.695655,1.5914938,-0.2444214,-0.9585875,-1.0007763,-10.007763,-1.0773908
0.27050856,4.6973534,1.7182604,-0.22631189,-1.1226382,-1.163582,-9.677363,-1.2114661
0.2692878,4.6990623,1.7182604,-0.22631189,-1.1226382,-1.163582,-9.677363,-1.2114661
0.2679089,4.700864,1.8109384,-0.20926766,-1.2728406,-1.0151415,-9.41879,-1.0534488
0.2665102,4.7026906,1.8109384,-0.20926766,-1.2728406,-1.0151415,-9.41879,-1.0534488
0.26498666,4.704562,1.8716584,-0.19222343,-1.4028028,-0.8714894,-9.112331,-0.90500826
0.26346698,4.7064276,1.8716584,-0.19222343,-1.4028028,-0.8714894,-9.112331,-0.90500826
0.2615789,4.708625,1.9046817,-0.17411393,-1.5093293,-0.94810385,-8.815451,-0.6607997
0.26016942,4.710264,1.9046817,-0.17411393,-1.5093293,-0.94810385,-8.815451,-0.6607997
0.25849178,4.7121325,1.9153343,-0.15600444,-1.5956157,-0.92895025,-8.480263,-0.2873042
0.25674525,4.7140746,1.9153343,-0.15600444,-1.5956157,-0.92895025,-8.480263,-0.2873042
0.25495622,4.716007,1.9068122,-0.14002547,-1.6563357,-0.6943185,-8.149862,0
0.25318292,4.7179203,1.9068122,-0.14002547,-1.6563357,-0.6943185,-8.149862,0
0.25135672,4.7198586,1.8833764,-0.12511177,-1.6957506,-0.41180268,-7.771579,0.35434186
0.24952984,4.721794,1.8833764,-0.12511177,-1.6957506,-0.41180268,-7.771579,0.35434186
0.24768764,4.7237043,1.8428963,-0.109132804,-1.7149253,-0.023942016,-7.503428,0.6512229
0.24585219,4.725605,1.8428963,-0.109132804,-1.7149253,-0.023942016,-7.503428,0.6512229
0.24585219,4.725605,1.8428963,-0.109132804,-1.7149253,-0.023942016,-7.503428,0.6512229
0.24179347,4.7296834,1.7193257,-0.07717487,-1.7074685,0.34955344,-7.2352777,1.0199299
0.24179347,4.7296834,1.7193257,-0.07717487,-1.7074685,0.34955344,-7.2352777,1.0199299
0.23825213,4.7331347,1.6394308,-0.06332643,-1.6797715,0.36391866,-7.273585,1.2114661
0.23650818,4.7347956,1.6394308,-0.06332643,-1.6797715,0.36391866,-7.273585,1.2114661
0.23491757,4.7363095,1.6394308,-0.06332643,-1.6797715,0.36391866,-7.273585,1.2114661
0.23203926,4.738985,1.5488833,-0.055869583,-1.6360958,0.33518824,-7.455544,1.4317327
0.23143506,4.7395463,1.5488833,-0.055869583,-1.6360958,0.33518824,-7.455544,1.4317327
0.22978786,4.741044,1.450879,-0.051608525,-1.5775062,0.38307226,-7.632715,1.6950948
0.22811708,4.7425623,1.450879,-0.051608525,-1.5775062,0.38307226,-7.632715,1.6950948
0.22653538,4.743968,1.3475484,-0.052673787,-1.5040029,0.35434186,-7.9966335,1.8435353
0.22653538,4.743968,1.3475484,-0.052673787,-1.5040029,0.35434186,-7.9966335,1.8435353
0.22308432,4.7469864,1.2442176,-0.06013064,-1.4134555,0.4261679,-8.322245,1.9776106
0.22199999,4.7479343,1.2442176,-0.06013064,-1.4134555,0.4261679,-8.322245,1.9776106
0.22199999,4.7479343,1.2442176,-0.06013064,-1.4134555,0.4261679,-8.322245,1.9776106
0.22199999,4.7479343,1.2442176,-0.06013064,-1.4134555,0.4261679,-8.322245,1.9776106
0.21771154,4.751676,1.0439479,-0.08356646,-1.1961415,0.38307226,-9.093178,2.1787236
0.21684207,4.752443,0.9512699,-0.09848016,-1.073636,0.4213795,-9.294291,2.0925324
0.21499537,4.7540703,0.9512699,-0.09848016,-1.073636,0.4213795,-9.294291,2.0925324
0.21462016,4.7544007,0.9512699,-0.09848016,-1.073636,0.4213795,-9.294291,2.0925324
0.21358415,4.755337,0.86178774,-0.113393866,-0.94580436,0.45010993,-9.356541,2.0733786
0.21254273,4.7562785,0.86178774,-0.113393866,-0.94580436,0.45010993,-9.356541,2.0733786
0.21163113,4.757135,0.7733708,-0.12937284,-0.8137116,0.45489833,-9.370906,2.0446482
0.21071756,4.757993,0.7733708,-0.12937284,-0.8137116,0.45489833,-9.370906,2.0446482
0.20993857,4.7587667,0.6860191,-0.14428653,-0.6752272,0.34955344,-9.356541,1.8914193
0.20915864,4.7595406,0.6860191,-0.14428653,-0.6752272,0.34955344,-9.356541,1.8914193
0.20851125,4.760232,0.6018632,-0.15706971,-0.5410039,0.33039984,-9.3182335,1.8291701
0.20786433,4.760923,0.6018632,-0.15706971,-0.5410039,0.33039984,-9.3182335,1.8291701
0.20734712,4.7615356,0.51983786,-0.1719834,-0.40784582,0.272939,-9.232041,1.733402
0.20683016,4.7621474,0.51983786,-0.1719834,-0.40784582,0.272939,-9.232041,1.733402
0.20643799,4.762683,0.43994302,-0.18583184,-0.2789488,0.31603462,-9.222465,1.6903064
0.20604603,4.7632174,0.43994302,-0.18583184,-0.2789488,0.31603462,-9.222465,1.6903064
0.20576885,4.763673,0.36111343,-0.19754976,-0.15857394,0.33997664,-9.160215,1.5610195
0.20549153,4.7641277,0.36111343,-0.19754976,-0.15857394,0.33997664,-9.160215,1.5610195
0.2053236,4.764513,0.28867546,-0.20926766,-0.04778644,0.45968673,-9.184157,1.5993267
0.20515531,4.7648983,0.28867546,-0.20926766,-0.04778644,0.45968673,-9.184157,1.5993267
0.20508172,4.765215,0.21943328,-0.22098558,0.05021789,0.48841715,-9.222465,1.5370775
0.20500694,4.765535,0.21943328,-0.22098558,0.05021789,0.48841715,-9.222465,1.5370775
0.20501773,4.765794,0.15871319,-0.23057295,0.13543904,0.47884035,-9.26556,1.5466543
0.20502827,4.7660503,0.15871319,-0.23057295,0.13543904,0.47884035,-9.26556,1.5466543
0.20510708,4.7662597,0.107580505,-0.2412256,0.2057465,0.4261679,-9.3661175,1.508347
0.20518626,4.76647,0.107580505,-0.2412256,0.2057465,0.4261679,-9.3661175,1.508347
0.20532152,4.7666435,0.06603519,-0.25400877,0.26114026,0.4309563,-9.394848,1.5753847
0.20545684,4.766817,0.06603519,-0.25400877,0.26114026,0.4309563,-9.394848,1.5753847
0.20563397,4.766963,0.034077257,-0.26679194,0.30268556,0.37349546,-9.476251,1.5945383
0.20581052,4.7671084,0.034077257,-0.26679194,0.30268556,0.37349546,-9.476251,1.5945383
0.20601548,4.7672358,0.012771967,-0.28170565,0.33251297,0.33039984,-9.504981,1.5610195
0.20622006,4.7673626,0.012771967,-0.28170565,0.33251297,0.33039984,-9.504981,1.5610195
0.20643885,4.767484,0.004249851,-0.3008804,0.3495572,0.29209262,-9.533711,1.5035586
0.20665795,4.767606,0.004249851,-0.3008804,0.3495572,0.29209262,-9.533711,1.5035586
0.20688088,4.767728,0.0031845868,-0.32112044,0.35701406,0.29688102,-9.533711,1.4556746
0.20710465,4.767852,0.0031845868,-0.32112044,0.35701406,0.29688102,-9.533711,1.4556746
0.20732328,4.76798,0.0074456446,-0.34136045,0.35594878,0.39264908,-9.466674,1.4077905
0.20754185,4.7681084,0.0074456446,-0.34136045,0.35594878,0.39264908,-9.466674,1.4077905
0.20774956,4.768248,0.01596776,-0.36266574,0.34742668,0.49320555,-9.323022,1.3838485
0.2079571,4.768388,0.01596776,-0.36266574,0.34742668,0.49320555,-9.323022,1.3838485
0.20814379,4.768538,0.027685668,-0.38290578,0.33144772,0.59855044,-9.208099,1.2737153
0.20833024,4.7686887,0.027685668,-0.38290578,0.33144772,0.59855044,-9.208099,1.2737153
0.20849012,4.7688484,0.03940358,-0.39781946,0.30907714,0.7230489,-8.987833,1.163582
0.20865051,4.769008,0.03940358,-0.39781946,0.30907714,0.7230489,-8.987833,1.163582
0.20878243,4.7691674,0.04686043,-0.40634158,0.2867066,0.81402856,-8.791509,0.94331545
0.2089142,4.769326,0.04686043,-0.40634158,0.2867066,0.81402856,-8.791509,0.94331545
0.20901816,4.7694807,0.048990957,-0.41060266,0.2622055,0.7517793,-8.614338,0.770933
0.2091217,4.769635,0.048990957,-0.41060266,0.2622055,0.7517793,-8.614338,0.770933
0.20920034,4.7697773,0.043664634,-0.40953737,0.2387697,0.6895301,-8.42759,0.62249243
0.20927955,4.7699213,0.043664634,-0.40953737,0.2387697,0.6895301,-8.42759,0.62249243
0.20933673,4.770043,0.030881463,-0.40421104,0.21959494,0.6368576,-8.37013,0.5602432
0.2094366,4.7702703,0.011706702,-0.39781946,0.20148544,0.61770403,-8.461109,0.5554548
0.2094366,4.7702703,0.011706702,-0.39781946,0.20148544,0.61770403,-8.461109,0.5554548
0.20947672,4.770373,0.011706702,-0.39781946,0.20148544,0.61770403,-8.461109,0.5554548
0.20950525,4.7704453,-0.0138596445,-0.38929737,0.18976754,0.641646,-8.561666,0.521936
0.20953384,4.770518,-0.0138596445,-0.38929737,0.18976754,0.641646,-8.561666,0.521936
0.209552,4.7705603,-0.040491257,-0.37971,0.1791149,0.63206923,-8.825027,0.51714754
0.20957018,4.770603,-0.040491257,-0.37971,0.1791149,0.63206923,-8.825027,0.51714754
0.20958273,4.770616,-0.06818813,-0.36799207,0.17272331,0.58418524,-9.040505,0.545878
0.20959534,4.7706294,-0.06818813,-0.36799207,0.17272331,0.58418524,-9.040505,0.545878
0.20960385,4.7706056,-0.0990808,-0.3552089,0.16846225,0.45968673,-9.299079,0.50278234
0.2096124,4.7705817,-0.0990808,-0.3552089,0.16846225,0.45968673,-9.299079,0.50278234
0.20962085,4.770529,-0.12784295,-0.34136045,0.16739698,0.36870706,-9.610326,0.5650316
0.20962931,4.770476,-0.12784295,-0.34136045,0.16739698,0.36870706,-9.610326,0.5650316
0.20963946,4.7703915,-0.15447456,-0.33070782,0.16846225,0.31603462,-9.811439,0.5554548
0.20964983,4.770306,-0.15447456,-0.33070782,0.16846225,0.31603462,-9.811439,0.5554548
0.20966427,4.7701936,-0.17791037,-0.31792465,0.17272331,0.20590134,-9.998186,0.49320555
0.209679,4.7700796,-0.17791037,-0.31792465,0.17272331,0.20590134,-9.998186,0.49320555
0.20969923,4.7699456,-0.19708513,-0.30514148,0.17804962,0.12928689,-10.060435,0.47405192
0.20971975,4.7698097,-0.19708513,-0.30514148,0.17804962,0.12928689,-10.060435,0.47405192
0.20974843,4.7696505,-0.2130641,-0.29555407,0.18550648,0.033518825,-10.1226845,0.40701428
0.20979725,4.769381,-0.2130641,-0.29555407,0.18550648,0.033518825,-10.1226845,0.40701428
0.2098088,4.7693253,-0.22691253,-0.28809723,0.19296333,0,-10.141838,0.33039984
0.2098462,4.7691445,-0.22691253,-0.28809723,0.19296333,0,-10.141838,0.33039984
0.20988902,4.7689447,-0.23969571,-0.2806404,0.19722438,-0.038307227,-10.070012,0.22026655
0.20993216,4.7687435,-0.23969571,-0.2806404,0.19722438,-0.038307227,-10.070012,0.22026655
0.20998164,4.768525,-0.24928309,-0.27637932,0.20148544,-0.05267244,-9.993398,0.12449849
0.21003118,4.768307,-0.24928309,-0.27637932,0.20148544,-0.05267244,-9.993398,0.12449849
0.2100832,4.7680798,-0.2546094,-0.2742488,0.20255071,-0.062249243,-9.80665,0.05746084
0.21013537,4.767852,-0.2546094,-0.2742488,0.20255071,-0.062249243,-9.80665,0.05746084
0.21018855,4.7676134,-0.2556747,-0.27105302,0.19935492,-0.10055647,-9.730036,-0.076614454
0.21024178,4.767375,-0.2556747,-0.27105302,0.19935492,-0.10055647,-9.730036,-0.076614454
0.21029535,4.7671328,-0.25673994,-0.2678572,0.19828965,-0.04309563,-9.552865,-0.1388637
0.21034893,4.76689,-0.25673994,-0.2678572,0.19828965,-0.04309563,-9.552865,-0.1388637
0.21039838,4.766642,-0.25673994,-0.2646614,0.1908328,-0.076614454,-9.476251,-0.22026655
0.21044783,4.7663937,-0.25673994,-0.2646614,0.1908328,-0.076614454,-9.476251,-0.22026655
0.21048887,4.7661457,-0.2524789,-0.2614656,0.18018015,-0.02873042,-9.375694,-0.29688102
0.21052982,4.765898,-0.2524789,-0.2614656,0.18018015,-0.02873042,-9.375694,-0.29688102
0.21055844,4.76565,-0.24928309,-0.2593351,0.16633171,-0.033518825,-9.289502,-0.32561144
0.21058689,4.7654037,-0.24928309,-0.2593351,0.16633171,-0.033518825,-9.289502,-0.32561144
0.21060187,4.76516,-0.24502203,-0.25720456,0.15141802,-0.090979666,-9.241618,-0.33518824
0.21061698,4.764916,-0.24502203,-0.25720456,0.15141802,-0.090979666,-9.241618,-0.33518824
0.21062084,4.764675,-0.23649992,-0.25294352,0.13756958,-0.076614454,-9.174581,-0.40222588
0.21062475,4.764433,-0.23649992,-0.25294352,0.13756958,-0.076614454,-9.174581,-0.40222588
0.210606,4.764213,-0.22691253,-0.24761719,0.12159061,0.038307227,-9.078813,-0.25857377
0.21058704,4.7639914,-0.22691253,-0.24761719,0.12159061,0.038307227,-9.078813,-0.25857377
0.21055274,4.763776,-0.21839042,-0.2412256,0.10561164,0.095768064,-9.083601,-0.29209262
0.21051846,4.763561,-0.21839042,-0.2412256,0.10561164,0.095768064,-9.083601,-0.29209262
0.21046698,4.7633586,-0.2066725,-0.23270348,0.09069794,0.1436521,-9.006987,-0.22505496
0.21041578,4.7631583,-0.2066725,-0.23270348,0.09069794,0.1436521,-9.006987,-0.22505496
0.2103464,4.762971,-0.19282407,-0.22098558,0.073653705,0.21068975,-9.045294,-0.19632454
0.2102771,4.762784,-0.19282407,-0.22098558,0.073653705,0.21068975,-9.045294,-0.19632454
0.21018846,4.7626147,-0.17897564,-0.20713714,0.056609474,0.15801731,-9.074024,-0.05746084
0.2100997,4.762446,-0.17897564,-0.20713714,0.056609474,0.15801731,-9.074024,-0.05746084
0.2099977,4.762288,-0.16299666,-0.1932887,0.041695774,0.10534488,-9.136273,-0.08140286
0.20989592,4.76213,-0.16299666,-0.1932887,0.041695774,0.10534488,-9.136273,-0.08140286
0.20977962,4.761988,-0.1470177,-0.17944026,0.027847335,0.07182605,-9.251195,-0.019153614
0.20966326,4.7618465,-0.1470177,-0.17944026,0.027847335,0.07182605,-9.251195,-0.019153614
0.2095356,4.7617226,-0.12997347,-0.16772234,0.017194692,0.08140286,-9.332599,0.033518825
0.20940812,4.761599,-0.12997347,-0.16772234,0.017194692,0.08140286,-9.332599,0.033518825
0.2092724,4.761488,-0.11292924,-0.15600444,0.007607311,0.05267244,-9.375694,0.009576807
0.20913635,4.761377,-0.11292924,-0.15600444,0.007607311,0.05267244,-9.375694,0.009576807
0.20899634,4.7612786,-0.0990808,-0.14428653,0.0033462532,0.05267244,-9.552865,0.033518825
0.20885661,4.7611804,-0.0990808,-0.14428653,0.0033462532,0.05267244,-9.552865,0.033518825
0.20871179,4.761098,-0.0841671,-0.13363388,-0.00091480464,-0.01436521,-9.629479,0.090979666
0.20856744,4.761015,-0.0841671,-0.13363388,-0.00091480464,-0.01436521,-9.629479,0.090979666
0.2084226,4.760938,-0.07138392,-0.12511177,-0.0030453335,-0.019153614,-9.68694,0.01436521
0.20827803,4.7608614,-0.07138392,-0.12511177,-0.0030453335,-0.019153614,-9.68694,0.01436521
0.20813547,4.7607956,-0.06073128,-0.11445913,-0.00091480464,-0.110133275,-9.763555,0.06703765
0.20799261,4.760729,-0.06073128,-0.11445913,-0.00091480464,-0.110133275,-9.763555,0.06703765
0.20785137,4.7606716,-0.050078638,-0.10593701,0.00015045982,-0.110133275,-9.811439,0.06703765
0.20771016,4.7606144,-0.050078638,-0.10593701,0.00015045982,-0.110133275,-9.811439,0.06703765
0.20757271,4.760573,-0.040491257,-0.09848016,0.005476782,-0.05267244,-9.782708,0.16759412
0.20743547,4.7605314,-0.040491257,-0.09848016,0.005476782,-0.05267244,-9.782708,0.16759412
0.20730403,4.760498,-0.033034407,-0.08995804,0.011868369,-0.07182605,-9.787497,0.21068975
0.20717283,4.7604656,-0.033034407,-0.08995804,0.011868369,-0.07182605,-9.787497,0.21068975
0.20704842,4.760442,-0.02238176,-0.081435926,0.018259956,-0.01436521,-9.801862,0.20590134
0.206924,4.760418,-0.02238176,-0.081435926,0.018259956,-0.01436521,-9.801862,0.20590134
0.20680344,4.7604127,-0.011729116,-0.07184855,0.023586277,0.0047884034,-9.730036,0.34955344
0.20668429,4.7604074,-0.011729116,-0.07184855,0.023586277,0.0047884034,-9.730036,0.34955344
0.20657234,4.7604117,-1.12066045e-05,-0.061195903,0.029977866,0.090979666,-9.734824,0.33039984
0.20645986,4.760415,-1.12066045e-05,-0.061195903,0.029977866,0.090979666,-9.734824,0.33039984
0.20635322,4.7604322,0.012771967,-0.05054326,0.03530419,0.10534488,-9.65821,0.37349546
0.20600595,4.76052,0.036207784,-0.027107442,0.04276104,0.05267244,-9.615114,0.35913026
0.20600595,4.76052,0.036207784,-0.027107442,0.04276104,0.05267244,-9.615114,0.35913026
0.20600595,4.76052,0.036207784,-0.027107442,0.04276104,0.05267244,-9.615114,0.35913026
0.2059443,4.760542,0.036207784,-0.027107442,0.04276104,0.05267244,-9.615114,0.35913026
0.20584759,4.7605762,0.036207784,-0.027107442,0.04276104,0.05267244,-9.615114,0.35913026
0.20575039,4.7606297,0.050056223,-0.016454797,0.044891566,0.05267244,-9.581595,0.4357447
0.20565534,4.760681,0.050056223,-0.016454797,0.044891566,0.05267244,-9.581595,0.4357447
0.20556211,4.7607484,0.06177413,-0.007932682,0.04595683,0.047884032,-9.581595,0.50757074
0.20547016,4.7608147,0.06177413,-0.007932682,0.04595683,0.047884032,-9.581595,0.50757074
0.20537947,4.7608914,0.07349204,-0.0004758304,0.04808736,0.1388637,-9.576807,0.50757074
0.20528752,4.760969,0.07349204,-0.0004758304,0.04808736,0.1388637,-9.576807,0.50757074
0.205198,4.7610583,0.08307942,0.006981021,0.04808736,0.1388637,-9.619903,0.56982
0.20510842,4.761147,0.08307942,0.006981021,0.04808736,0.1388637,-9.619903,0.56982
0.20502175,4.7612453,0.091601536,0.014437872,0.05021789,0.14844051,-9.600749,0.60333884
0.20493507,4.761343,0.091601536,0.014437872,0.05021789,0.14844051,-9.600749,0.60333884
0.20485042,4.761446,0.09905839,0.020829458,0.05234842,0.23942018,-9.629479,0.58418524
0.2047659,4.761548,0.09905839,0.020829458,0.05234842,0.23942018,-9.629479,0.58418524
0.20468451,4.761662,0.105449975,0.027221046,0.054478947,0.19632454,-9.572019,0.6655881
0.20460425,4.761774,0.105449975,0.027221046,0.054478947,0.19632454,-9.572019,0.6655881
0.20452154,4.761888,0.109711036,0.03254737,0.05341368,0.19632454,-9.581595,0.62249243
0.20443967,4.7620006,0.109711036,0.03254737,0.05341368,0.19632454,-9.581595,0.62249243
0.20435867,4.7621136,0.1107763,0.036808424,0.054478947,0.21068975,-9.595961,0.62728083
0.20427765,4.762227,0.1107763,0.036808424,0.054478947,0.21068975,-9.595961,0.62728083
0.20419775,4.76234,0.10864577,0.042134747,0.054478947,0.21068975,-9.562442,0.6703765
0.20411763,4.762453,0.10864577,0.042134747,0.054478947,0.21068975,-9.562442,0.6703765
0.20403796,4.7625628,0.105449975,0.04533054,0.054478947,0.24420857,-9.562442,0.6847417
0.20395839,4.7626724,0.105449975,0.04533054,0.054478947,0.24420857,-9.562442,0.6847417
0.20387916,4.7627807,0.09905839,0.048526336,0.054478947,0.22984336,-9.552865,0.7517793
0.20380111,4.762887,0.09905839,0.048526336,0.054478947,0.22984336,-9.552865,0.7517793
0.20372799,4.7629824,0.090536274,0.052787393,0.058740005,0.2777274,-9.5385,0.7374141
0.20358002,4.7631702,0.08307942,0.05704845,0.05980527,0.2681506,-9.495404,0.7613561
0.20358002,4.7631702,0.08307942,0.05704845,0.05980527,0.2681506,-9.495404,0.7613561
0.20350766,4.76326,0.08307942,0.05704845,0.05980527,0.2681506,-9.495404,0.7613561
0.20343412,4.763339,0.074557304,0.060244244,0.05980527,0.2633622,-9.452309,0.7230489
0.20335837,4.76342,0.074557304,0.060244244,0.05980527,0.2633622,-9.452309,0.7230489
0.20329411,4.763487,0.06390466,0.060244244,0.061935797,0.19153613,-9.414001,0.7757214
0.203225,4.7635574,0.06390466,0.060244244,0.061935797,0.19153613,-9.414001,0.7757214
0.2031585,4.7636213,0.05431728,0.05917898,0.06406633,0.20590134,-9.433155,0.80924016
0.20309202,4.763685,0.05431728,0.05917898,0.06406633,0.20590134,-9.433155,0.80924016
0.20302935,4.7637353,0.043664634,0.05704845,0.06939265,0.18674773,-9.409213,0.7469909
0.2029665,4.7637854,0.043664634,0.05704845,0.06939265,0.18674773,-9.409213,0.7469909
0.20291136,4.7638245,0.031946726,0.053852655,0.0768495,0.22984336,-9.394848,0.7565677
0.20285602,4.763864,0.031946726,0.053852655,0.0768495,0.22984336,-9.394848,0.7565677
0.20280643,4.7638955,0.021294083,0.0495916,0.08217582,0.2825158,-9.3182335,0.78529817
0.20275705,4.7639265,0.021294083,0.0495916,0.08217582,0.2825158,-9.3182335,0.78529817
0.20271327,4.7639456,0.0074456446,0.04746107,0.087502144,0.32561144,-9.275137,0.80445176
0.20266947,4.7639647,0.0074456446,0.04746107,0.087502144,0.32561144,-9.275137,0.80445176
0.20263232,4.7639685,-0.0064027933,0.04533054,0.094959,0.34955344,-9.222465,0.7757214
0.20259646,4.7639723,-0.0064027933,0.04533054,0.094959,0.34955344,-9.222465,0.7757214
0.20256335,4.76396,-0.02238176,0.044265278,0.09922005,0.320823,-9.251195,0.7661445
0.20252928,4.763947,-0.02238176,0.044265278,0.09922005,0.320823,-9.251195,0.7661445
0.2024992,4.763913,-0.040491257,0.044265278,0.103481114,0.34955344,-9.23683,0.7086837
0.20246924,4.76388,-0.040491257,0.044265278,0.103481114,0.34955344,-9.23683,0.7086837
0.20237671,4.763626,-0.07884078,0.04533054,0.11413376,0.2873042,-9.3182335,0.7374141
0.20237671,4.763626,-0.07884078,0.04533054,0.11413376,0.2873042,-9.3182335,0.7374141
0.20237671,4.763626,-0.07884078,0.04533054,0.11413376,0.2873042,-9.3182335,0.7374141
0.20237671,4.763626,-0.07884078,0.04533054,0.11413376,0.2873042,-9.3182335,0.7374141
0.20236583,4.7635484,-0.09801554,0.04533054,0.120525345,0.22505496,-9.370906,0.7326257
0.20235321,4.763459,-0.09801554,0.04533054,0.120525345,0.22505496,-9.370906,0.7326257
0.20234723,4.7633533,-0.11612503,0.043200012,0.12691693,0.17238252,-9.399636,0.7422025
0.20234112,4.7632465,-0.11612503,0.043200012,0.12691693,0.17238252,-9.399636,0.7422025
0.20234078,4.76312,-0.13529979,0.038938954,0.13330851,0.19153613,-9.442732,0.7230489
0.20234045,4.762995,-0.13529979,0.038938954,0.13330851,0.19153613,-9.442732,0.7230489
0.20234807,4.762854,-0.15447456,0.03361263,0.14076537,0.15801731,-9.437943,0.7565677
0.20235577,4.7627125,-0.15447456,0.03361263,0.14076537,0.15801731,-9.437943,0.7565677
0.20236838,4.7625523,-0.17364931,0.029351573,0.14609168,0.16759412,-9.471462,0.7469909
0.202381,4.762392,-0.17364931,0.029351573,0.14609168,0.16759412,-9.471462,0.7469909
0.2024012,4.7622204,-0.19069354,0.024025252,0.15248328,0.16759412,-9.548077,0.81402856
0.20242213,4.762043,-0.19069354,0.024025252,0.15248328,0.16759412,-9.548077,0.81402856
0.20244491,4.7618546,-0.20880304,0.01869893,0.1578096,0.1436521,-9.572019,0.7374141
0.20246835,4.7616615,-0.20880304,0.01869893,0.1578096,0.1436521,-9.572019,0.7374141
0.2024984,4.761453,-0.22584727,0.014437872,0.16420119,0.1340753,-9.595961,0.7517793
0.20252869,4.7612433,-0.22584727,0.014437872,0.16420119,0.1340753,-9.595961,0.7517793
0.20256227,4.7610226,-0.23969571,0.010176814,0.16846225,0.18195933,-9.619903,0.7422025
0.2025966,4.760797,-0.23969571,0.010176814,0.16846225,0.18195933,-9.619903,0.7422025
0.20263444,4.760565,-0.2524789,0.0059157563,0.17272331,0.16759412,-9.629479,0.7469909
0.20267235,4.7603326,-0.2524789,0.0059157563,0.17272331,0.16759412,-9.629479,0.7469909
0.20271467,4.7600904,-0.26526207,0.002719963,0.1759191,0.15801731,-9.643845,0.79487497
0.2027572,4.7598476,-0.26526207,0.002719963,0.1759191,0.15801731,-9.643845,0.79487497
0.20279707,4.7595935,-0.27697995,0.00058943406,0.17378856,0.18195933,-9.667787,0.78529817
0.20283714,4.759339,-0.27697995,0.00058943406,0.17378856,0.18195933,-9.667787,0.78529817
0.20287684,4.759075,-0.2876326,-0.0026063593,0.17378856,0.16759412,-9.619903,0.7757214
0.20291677,4.75881,-0.2876326,-0.0026063593,0.17378856,0.16759412,-9.619903,0.7757214
0.20299213,4.7582507,-0.29935053,-0.007932682,0.17272331,0.18674773,-9.629479,0.7278373
0.20299213,4.7582507,-0.29935053,-0.007932682,0.17272331,0.18674773,-9.629479,0.7278373
0.20302856,4.757963,-0.31106842,-0.014324268,0.17165804,0.16759412,-9.653421,0.7374141
0.20306535,4.7576733,-0.31106842,-0.014324268,0.17165804,0.16759412,-9.653421,0.7374141
0.20310158,4.7573867,-0.32278633,-0.02178112,0.1695275,0.15801731,-9.624691,0.8379706
0.20313817,4.7570977,-0.32278633,-0.02178112,0.1695275,0.15801731,-9.624691,0.8379706
0.2031691,4.7567973,-0.333439,-0.030303236,0.16420119,0.15322891,-9.595961,0.82360536
0.2032002,4.7564964,-0.333439,-0.030303236,0.16420119,0.15322891,-9.595961,0.82360536
0.20322709,4.7561884,-0.34409162,-0.037760086,0.15994012,0.1340753,-9.629479,0.8379706
0.2032539,4.7558823,-0.34409162,-0.037760086,0.15994012,0.1340753,-9.629479,0.8379706
0.20327461,4.7555604,-0.35794008,-0.047347467,0.15461381,0.17717093,-9.586384,0.81402856
0.20329548,4.7552366,-0.35794008,-0.047347467,0.15461381,0.17717093,-9.586384,0.81402856
0.20330884,4.7549,-0.36965796,-0.055869583,0.14928748,0.1436521,-9.600749,0.7422025
0.20332213,4.754567,-0.36965796,-0.055869583,0.14928748,0.1436521,-9.600749,0.7422025
0.20332785,4.7542243,-0.38137588,-0.064391695,0.14076537,0.15322891,-9.576807,0.78050977
0.20333365,4.753883,-0.38137588,-0.064391695,0.14076537,0.15322891,-9.576807,0.78050977
0.20332839,4.753525,-0.3930938,-0.07397908,0.13224325,0.16280572,-9.476251,0.6895301
0.20332333,4.7531676,-0.3930938,-0.07397908,0.13224325,0.16280572,-9.476251,0.6895301
0.20330834,4.752798,-0.40587696,-0.082501195,0.12265587,0.21068975,-9.428367,0.6847417
0.20329353,4.752431,-0.40587696,-0.082501195,0.12265587,0.21068975,-9.428367,0.6847417
0.20326738,4.7520456,-0.41759488,-0.09102331,0.11413376,0.21547815,-9.423578,0.5650316
0.2032413,4.7516603,-0.41759488,-0.09102331,0.11413376,0.21547815,-9.423578,0.5650316
0.20320576,4.7512627,-0.4282475,-0.09954543,0.10561164,0.2873042,-9.346964,0.51714754
0.20317027,4.750866,-0.4282475,-0.09954543,0.10561164,0.2873042,-9.346964,0.51714754
0.20312671,4.7504587,-0.4378349,-0.10487175,0.09815479,0.29209262,-9.3182335,0.48362875
0.20308338,4.7500515,-0.4378349,-0.10487175,0.09815479,0.29209262,-9.3182335,0.48362875
0.20303297,4.7496324,-0.44848755,-0.109132804,0.091763206,0.2825158,-9.289502,0.44532153
0.20298268,4.7492137,-0.44848755,-0.109132804,0.091763206,0.2825158,-9.289502,0.44532153
0.202924,4.748784,-0.45914018,-0.109132804,0.08324109,0.31603462,-9.351752,0.44532153
0.20286532,4.748354,-0.45914018,-0.109132804,0.08324109,0.31603462,-9.351752,0.44532153
0.20279993,4.747914,-0.46659705,-0.10487175,0.0768495,0.2633622,-9.356541,0.39264908
0.20273456,4.7474737,-0.46659705,-0.10487175,0.0768495,0.2633622,-9.356541,0.39264908
0.2026637,4.747024,-0.4708581,-0.09848016,0.071523175,0.2825158,-9.404425,0.34476504
0.20259295,4.7465754,-0.4708581,-0.09848016,0.071523175,0.2825158,-9.404425,0.34476504
0.2025208,4.7461267,-0.4708581,-0.08889278,0.06939265,0.320823,-9.433155,0.37828386
0.20244877,4.7456784,-0.4708581,-0.08889278,0.06939265,0.320823,-9.433155,0.37828386
0.20237565,4.745221,-0.4676623,-0.0761096,0.06939265,0.2633622,-9.552865,0.320823
0.20230448,4.744776,-0.4676623,-0.0761096,0.06939265,0.2633622,-9.552865,0.320823
0.20223509,4.74433,-0.46020547,-0.061195903,0.071523175,0.22984336,-9.586384,0.32561144
0.20216574,4.743884,-0.46020547,-0.061195903,0.071523175,0.22984336,-9.586384,0.32561144
0.20210218,4.7434454,-0.4495528,-0.045216937,0.0768495,0.18674773,-9.696517,0.32561144
0.20203868,4.7430077,-0.4495528,-0.045216937,0.0768495,0.18674773,-9.696517,0.32561144
0.20198338,4.7425804,-0.43676963,-0.028172705,0.08430635,0.17717093,-9.753978,0.33997664
0.20192817,4.7421527,-0.43676963,-0.028172705,0.08430635,0.17717093,-9.753978,0.33997664
0.20188035,4.7417364,-0.4197254,-0.012193739,0.091763206,0.16280572,-9.835381,0.30645782
0.20183477,4.741339,-0.4197254,-0.012193739,0.091763206,0.16280572,-9.835381,0.30645782
0.20179686,4.740938,-0.39948538,0.002719963,0.10135058,0.10534488,-9.883265,0.272939
0.20175734,4.74052,-0.39948538,0.002719963,0.10135058,0.10534488,-9.883265,0.272939
0.2017313,4.740136,-0.37604955,0.01869893,0.11306849,0.05746084,-9.974244,0.24899697
0.20170566,4.7397575,-0.37604955,0.01869893,0.11306849,0.05746084,-9.974244,0.24899697
0.20169272,4.73939,-0.35261375,0.031482104,0.12585166,0.08619126,-9.974244,0.15322891
0.20167978,4.7390227,-0.35261375,0.031482104,0.12585166,0.08619126,-9.974244,0.15322891
0.20167892,4.7386827,-0.32917792,0.043200012,0.13756958,0.062249243,-10.007763,0.20590134
0.20167807,4.738341,-0.32917792,0.043200012,0.13756958,0.062249243,-10.007763,0.20590134
0.2016891,4.7380185,-0.3057421,0.051722128,0.14928748,0.06703765,-9.998186,0.1340753
0.20170039,4.7376847,-0.3057421,0.051722128,0.14928748,0.06703765,-9.998186,0.1340753
0.20172463,4.737392,-0.28337154,0.05917898,0.16313592,0.0047884034,-10.0029745,0.15801731
0.2017496,4.73709,-0.28337154,0.05917898,0.16313592,0.0047884034,-10.0029745,0.15801731
0.20178731,4.7368093,-0.261001,0.06344004,0.1759191,0.05746084,-9.969456,0.11971009
0.20182511,4.7365274,-0.261001,0.06344004,0.1759191,0.05746084,-9.969456,0.11971009
0.20187578,4.7362666,-0.24076097,0.067701094,0.18870227,0.047884032,-9.959879,0.1388637
0.20192625,4.7360067,-0.24076097,0.067701094,0.18870227,0.047884032,-9.959879,0.1388637
0.20199206,4.73576,-0.22265148,0.071962155,0.20361596,0.02873042,-9.916783,0.10055647
0.20205769,4.7355146,-0.22265148,0.071962155,0.20361596,0.02873042,-9.916783,0.10055647
0.2021365,4.7352967,-0.20560725,0.07302742,0.21639915,0.047884032,-9.935937,0.24899697
0.20221564,4.7350783,-0.20560725,0.07302742,0.21639915,0.047884032,-9.935937,0.24899697
0.20230366,4.734867,-0.19069354,0.07302742,0.22598653,0.062249243,-9.854534,0.12928689
0.20239139,4.7346563,-0.19069354,0.07302742,0.22598653,0.062249243,-9.854534,0.12928689
0.20239139,4.7346563,-0.19069354,0.07302742,0.22598653,0.062249243,-9.854534,0.12928689
0.2026164,4.734212,-0.1587356,0.07409268,0.24303076,0.076614454,-9.835381,0.18195933
0.20269021,4.734089,-0.1587356,0.07409268,0.24303076,0.076614454,-9.835381,0.18195933
0.20279244,4.7339187,-0.1587356,0.07409268,0.24303076,0.076614454,-9.835381,0.18195933
0.20290573,4.733755,-0.14488718,0.07409268,0.25155288,0.10534488,-9.830592,0.1388637
0.20301919,4.7335916,-0.14488718,0.07409268,0.25155288,0.10534488,-9.830592,0.1388637
0.20301919,4.7335916,-0.14488718,0.07409268,0.25155288,0.10534488,-9.830592,0.1388637
0.20334893,4.7332215,-0.11612503,0.079419,0.26114026,0.090979666,-9.821015,0.110133275
0.20342413,4.7331376,-0.11612503,0.079419,0.26114026,0.090979666,-9.821015,0.110133275
0.20351218,4.733039,-0.11612503,0.079419,0.26114026,0.090979666,-9.821015,0.110133275
0.20363651,4.7329187,-0.10227659,0.079419,0.2622055,0.06703765,-9.753978,0.16280572
0.20376077,4.7327986,-0.10227659,0.079419,0.2622055,0.06703765,-9.753978,0.16280572
0.20388411,4.732686,-0.088428155,0.082614794,0.26114026,0.05267244,-9.797073,0.08140286
0.20400749,4.732573,-0.088428155,0.082614794,0.26114026,0.05267244,-9.797073,0.08140286
0.20412622,4.7324724,-0.074579716,0.08368006,0.25687918,0.06703765,-9.758766,0.05267244
0.20424528,4.7323713,-0.074579716,0.08368006,0.25687918,0.06703765,-9.758766,0.05267244
0.20435975,4.732287,-0.06073128,0.08368006,0.25261813,0.038307227,-9.720459,0.090979666
0.20448817,4.7321925,-0.06073128,0.08368006,0.25261813,0.038307227,-9.720459,0.090979666
0.204583,4.7321243,-0.049013373,0.084745325,0.24409603,0.038307227,-9.734824,0.038307227
0.20468847,4.732048,-0.049013373,0.084745325,0.24409603,0.038307227,-9.734824,0.038307227
0.20478472,4.731981,-0.038360726,0.086875856,0.23450863,0.023942016,-9.715671,0.019153614
0.2048815,4.731913,-0.038360726,0.086875856,0.23450863,0.023942016,-9.715671,0.019153614
0.20497006,4.7318554,-0.025577553,0.09113691,0.22598653,0.038307227,-9.643845,-0.01436521
0.2050584,4.731797,-0.025577553,0.09113691,0.22598653,0.038307227,-9.643845,-0.01436521
0.20513737,4.731749,-0.014924909,0.09539797,0.21639915,-0.038307227,-9.643845,-0.0047884034
0.20521614,4.731701,-0.014924909,0.09539797,0.21639915,-0.038307227,-9.643845,-0.0047884034
0.20528601,4.7316556,-0.007468058,0.0975285,0.20681177,-0.062249243,-9.586384,-0.062249243
0.20535691,4.7316093,-0.007468058,0.0975285,0.20681177,-0.062249243,-9.586384,-0.062249243
0.20541944,4.731567,-0.0021417355,0.100724295,0.19935492,-0.1388637,-9.552865,-0.076614454
0.20548166,4.731525,-0.0021417355,0.100724295,0.19935492,-0.1388637,-9.552865,-0.076614454
0.20553626,4.7314887,-1.12066045e-05,0.10392009,0.19189806,-0.17717093,-9.562442,-0.009576807
0.20559092,4.7314525,-1.12066045e-05,0.10392009,0.19189806,-0.17717093,-9.562442,-0.009576807
0.20563832,4.7314177,0.0031845868,0.10711588,0.18444121,-0.16759412,-9.576807,-0.019153614
0.2056857,4.7313833,0.0031845868,0.10711588,0.18444121,-0.16759412,-9.576807,-0.019153614
0.2057263,4.7313538,0.004249851,0.10711588,0.17804962,-0.18195933,-9.629479,0.02873042
0.20576689,4.731324,0.004249851,0.10711588,0.17804962,-0.18195933,-9.629479,0.02873042
0.20580198,4.7313023,0.004249851,0.10711588,0.17272331,-0.17717093,-9.696517,0.12449849
0.20583706,4.73128,0.004249851,0.10711588,0.17272331,-0.17717093,-9.696517,0.12449849
0.20586884,4.731257,0.0031845868,0.10818114,0.1695275,-0.18674773,-9.744401,0.12928689
0.20590067,4.731234,0.0031845868,0.10818114,0.1695275,-0.18674773,-9.744401,0.12928689
0.20592837,4.7312055,0.0010540579,0.10818114,0.16526645,-0.20111294,-9.749189,0.090979666
0.20595595,4.7311773,0.0010540579,0.10818114,0.16526645,-0.20111294,-9.749189,0.090979666
0.20597924,4.731144,-0.003207,0.10818114,0.1610054,-0.19632454,-9.749189,0.08140286
0.20600262,4.7311106,-0.003207,0.10818114,0.1610054,-0.19632454,-9.749189,0.08140286
0.20602065,4.7310777,-0.008533322,0.10605062,0.15567908,-0.18674773,-9.77792,0.1436521
0.20603876,4.7310443,-0.008533322,0.10605062,0.15567908,-0.18674773,-9.77792,0.1436521
0.20605235,4.731001,-0.017055437,0.10285482,0.15141802,-0.24420857,-9.768343,0.110133275
0.20606595,4.730957,-0.017055437,0.10285482,0.15141802,-0.24420857,-9.768343,0.110133275
0.20607525,4.7309017,-0.026642818,0.098593764,0.14715695,-0.22026655,-9.758766,0.07182605
0.2060846,4.730846,-0.026642818,0.098593764,0.14715695,-0.22026655,-9.758766,0.07182605
0.2060884,4.7307854,-0.03729546,0.09113691,0.14183064,-0.18195933,-9.763555,0.11971009
0.20609222,4.730725,-0.03729546,0.09113691,0.14183064,-0.18195933,-9.763555,0.11971009
0.20608969,4.7306585,-0.04688284,0.084745325,0.13543904,-0.11971009,-9.744401,0.15801731
0.20608692,4.730585,-0.04688284,0.084745325,0.13543904,-0.11971009,-9.744401,0.15801731
0.20600002,4.7302136,-0.075644985,0.06557056,0.11626428,-0.076614454,-9.701305,0.25378537
0.20600002,4.7302136,-0.075644985,0.06557056,0.11626428,-0.076614454,-9.701305,0.25378537
0.20600002,4.7302136,-0.075644985,0.06557056,0.11626428,-0.076614454,-9.701305,0.25378537
0.20600002,4.7302136,-0.075644985,0.06557056,0.11626428,-0.076614454,-9.701305,0.25378537
0.20599021,4.730175,-0.075644985,0.06557056,0.11626428,-0.076614454,-9.701305,0.25378537
0.2059719,4.730103,-0.075644985,0.06557056,0.11626428,-0.076614454,-9.701305,0.25378537
0.20594181,4.730013,-0.08097131,0.05917898,0.10774217,-0.06703765,-9.753978,0.20111294
0.20591144,4.7299223,-0.08097131,0.05917898,0.10774217,-0.06703765,-9.753978,0.20111294
0.20587108,4.7298307,-0.08736289,0.051722128,0.09708953,-0.05267244,-9.753978,0.25857377
0.20583074,4.729739,-0.08736289,0.051722128,0.09708953,-0.05267244,-9.753978,0.25857377
0.20577858,4.72964,-0.08949342,0.04533054,0.08643688,-0.06703765,-9.701305,0.15801731
0.20572646,4.7295403,-0.08949342,0.04533054,0.08643688,-0.06703765,-9.701305,0.15801731
0.20566387,4.7294445,-0.090558685,0.036808424,0.075784236,-0.023942016,-9.720459,0.19153613
