Pitch,Roll,Gyro_X,Gyro_Y,Gyro_Z,Accel_X,Accel_Y,Accel_Z
0.27769074,4.721135,-0.62926966,0.17423743,-0.44294977,-0.30166942,-9.528923,0.7038953
0.27711758,4.720484,-0.62926966,0.17423743,-0.44294977,-0.30166942,-9.528923,0.7038953
0.2765113,4.719891,-0.59305066,0.14441001,-0.48875615,-0.33518824,-9.442732,0.6895301
0.2759003,4.7192945,-0.59305066,0.14441001,-0.48875615,-0.33518824,-9.442732,0.6895301
0.27524266,4.718736,-0.55683166,0.1209742,-0.5313667,-0.4213795,-9.442732,0.62249243
0.27458507,4.7181787,-0.55683166,0.1209742,-0.5313667,-0.4213795,-9.442732,0.62249243
0.2738854,4.717654,-0.521678,0.09966891,-0.56865096,-0.4261679,-9.346964,0.45968673
0.27318582,4.71713,-0.521678,0.09966891,-0.56865096,-0.4261679,-9.346964,0.45968673
0.27245688,4.7166452,-0.48865473,0.08049415,-0.5984784,-0.35913026,-9.361329,0.47884035
0.2717279,4.716161,-0.48865473,0.08049415,-0.5984784,-0.35913026,-9.361329,0.47884035
0.2709779,4.7157106,-0.46095788,0.062384658,-0.6197837,-0.4165911,-9.323022,0.47405192
0.27022806,4.71526,-0.46095788,0.062384658,-0.6197837,-0.4165911,-9.323022,0.47405192
0.26947168,4.7148438,-0.43752205,0.046405688,-0.62937105,-0.40222588,-9.279925,0.56982
0.26871553,4.7144275,-0.43752205,0.046405688,-0.62937105,-0.40222588,-9.279925,0.56982
0.2679556,4.7140384,-0.4151515,0.032557253,-0.63256687,-0.320823,-9.255983,0.60812724
0.2671989,4.7136507,-0.4151515,0.032557253,-0.63256687,-0.320823,-9.255983,0.60812724
0.26644036,4.7132835,-0.39491147,0.021904606,-0.6315016,-0.21547815,-9.097966,0.5746084
0.265682,4.7129164,-0.39491147,0.021904606,-0.6315016,-0.21547815,-9.097966,0.5746084
0.26493022,4.712574,-0.37360618,0.012317227,-0.6261753,-0.1436521,-8.99741,0.58897364
0.26417702,4.7122316,-0.37360618,0.012317227,-0.6261753,-0.1436521,-8.99741,0.58897364
0.26343378,4.711916,-0.35230088,0.003795111,-0.6197837,-0.076614454,-8.882488,0.6560113
0.26268998,4.711601,-0.35230088,0.003795111,-0.6197837,-0.076614454,-8.882488,0.6560113
0.261959,4.711318,-0.32673454,-0.0025964756,-0.61126155,-0.01436521,-8.848969,0.79008657
0.26122814,4.7110357,-0.32673454,-0.0025964756,-0.61126155,-0.01436521,-8.848969,0.79008657
0.2605079,4.7107816,-0.30010295,-0.008988062,-0.60060894,0.033518825,-8.781932,0.79008657
0.25978702,4.7105274,-0.30010295,-0.008988062,-0.60060894,0.033518825,-8.781932,0.79008657
0.25908223,4.7103033,-0.27240607,-0.014314385,-0.58676046,0.07182605,-8.628703,0.80445176
0.2583761,4.7100787,-0.27240607,-0.014314385,-0.58676046,0.07182605,-8.628703,0.80445176
0.25768566,4.7098827,-0.24470918,-0.017510178,-0.5718468,0.11492168,-8.585608,0.79008657
0.25699404,4.7096863,-0.24470918,-0.017510178,-0.5718468,0.11492168,-8.585608,0.79008657
0.25631684,4.709512,-0.21701232,-0.018575443,-0.5537373,0.15801731,-8.441956,0.6560113
0.2556398,4.709338,-0.21701232,-0.018575443,-0.5537373,0.15801731,-8.441956,0.6560113
0.2549801,4.7091866,-0.19251123,-0.020705972,-0.5345625,0.24420857,-8.307879,0.60333884
0.25432044,4.709035,-0.19251123,-0.020705972,-0.5345625,0.24420857,-8.307879,0.60333884
0.25367725,4.7089014,-0.1722712,-0.0228365,-0.516453,0.22984336,-8.1881695,0.5363012
0.2530341,4.708768,-0.1722712,-0.0228365,-0.516453,0.22984336,-8.1881695,0.5363012
0.25240424,4.70864,-0.15948802,-0.028162822,-0.49834353,0.18195933,-8.0445175,0.35434186
0.25177446,4.7085123,-0.15948802,-0.028162822,-0.49834353,0.18195933,-8.0445175,0.35434186
0.25116304,4.708392,-0.15522698,-0.03881547,-0.48023403,0.18195933,-7.929596,0.35913026
0.2505518,4.708272,-0.15522698,-0.03881547,-0.48023403,0.18195933,-7.929596,0.35913026
0.24996321,4.7081475,-0.15948802,-0.048402846,-0.45679823,0.29688102,-7.809886,0.33518824
0.24937476,4.7080235,-0.15948802,-0.048402846,-0.45679823,0.29688102,-7.809886,0.33518824
0.24881065,4.7078867,-0.1722712,-0.052663904,-0.43229714,0.45968673,-7.6470804,0.33039984
0.24824663,4.7077494,-0.1722712,-0.052663904,-0.43229714,0.45968673,-7.6470804,0.33039984
0.24768263,4.7076125,-0.1722712,-0.052663904,-0.43229714,0.45968673,-7.6470804,0.33039984
0.24714603,4.7074485,-0.19357648,-0.048402846,-0.403535,0.6751649,-7.4028716,0.2681506
0.24660937,4.707285,-0.19357648,-0.048402846,-0.403535,0.6751649,-7.4028716,0.2681506
0.2460993,4.707085,-0.2234039,-0.036684938,-0.37583813,0.7661445,-7.015011,0.22026655
0.24559076,4.7068863,-0.2234039,-0.036684938,-0.37583813,0.7661445,-7.015011,0.22026655
0.24510914,4.7066383,-0.26388395,-0.014314385,-0.347076,0.92895025,-6.4787097,0.18195933
0.24462803,4.706391,-0.26388395,-0.014314385,-0.347076,0.92895025,-6.4787097,0.18195933
0.24417332,4.706066,-0.3192777,0.019774077,-0.31831384,1.3742718,-5.8466406,-0.05746084
0.24371806,4.705741,-0.3192777,0.019774077,-0.31831384,1.3742718,-5.8466406,-0.05746084
0.2432923,4.705329,-0.38958514,0.06877624,-0.29061696,1.9728222,-5.233725,-0.17717093
0.24286652,4.704917,-0.38958514,0.06877624,-0.29061696,1.9728222,-5.233725,-0.17717093
0.24246573,4.704387,-0.48332843,0.13695318,-0.26611587,2.5474305,-4.6351743,-0.37828386
0.24206455,4.7038565,-0.48332843,0.13695318,-0.26611587,2.5474305,-4.6351743,-0.37828386
0.24168308,4.703189,-0.6005075,0.22323959,-0.24800639,2.7724855,-4.223372,-0.40222588
0.24130112,4.7025204,-0.6005075,0.22323959,-0.24800639,2.7724855,-4.223372,-0.40222588
0.24092884,4.701686,-0.7421877,0.32870078,-0.23841901,2.8778305,-3.9360676,-0.38307226
0.24055634,4.7008514,-0.7421877,0.32870078,-0.23841901,2.8778305,-3.9360676,-0.38307226
0.24018975,4.6998196,-0.90836895,0.45120618,-0.23096216,2.7820623,-3.667917,-0.40222588
0.23982233,4.698787,-0.90836895,0.45120618,-0.23096216,2.7820623,-3.667917,-0.40222588
0.23946467,4.6975446,-1.0947902,0.58649474,-0.22137478,2.7006595,-3.4955344,-0.19632454
0.23910679,4.6963034,-1.0947902,0.58649474,-0.22137478,2.7006595,-3.4955344,-0.19632454
0.23876275,4.6948276,-1.299321,0.7260444,-0.20539582,2.5330653,-3.466804,0.009576807
0.23841839,4.693355,-1.299321,0.7260444,-0.20539582,2.5330653,-3.466804,0.009576807
0.23809406,4.691634,-1.5145044,0.865594,-0.18302526,2.585738,-3.3087866,0.05746084
0.23776826,4.689914,-1.5145044,0.865594,-0.18302526,2.585738,-3.3087866,0.05746084
0.23746559,4.687936,-1.7403405,1.0051436,-0.15532838,2.5953147,-3.3087866,0.04309563
0.23716111,4.685958,-1.7403405,1.0051436,-0.15532838,2.5953147,-3.3087866,0.04309563
0.23688471,4.683713,-1.9778944,1.1436281,-0.11910939,2.1930888,-3.5051112,0.08140286
0.2366066,4.6814723,-1.9778944,1.1436281,-0.11910939,2.1930888,-3.5051112,0.08140286
0.23636591,4.678949,-2.2239707,1.2767861,-0.07223775,1.7860745,-3.7972038,0.1388637
0.23636591,4.678949,-2.2239707,1.2767861,-0.07223775,1.7860745,-3.7972038,0.1388637
0.23598473,4.673294,-2.4743078,1.401422,-0.009387151,1.4413095,-4.175488,0.14844051
0.2357878,4.670456,-2.4743078,1.401422,-0.009387151,1.4413095,-4.175488,0.14844051
0.23565573,4.667324,-2.728906,1.5164707,0.06731189,1.2162545,-4.548983,0.038307227
0.23546816,4.6608253,-2.9856346,1.622997,0.15892464,1.1252748,-4.783615,-0.04309563
0.23546816,4.6608253,-2.9856346,1.622997,0.15892464,1.1252748,-4.783615,-0.04309563
0.23546816,4.6608253,-2.9856346,1.622997,0.15892464,1.1252748,-4.783615,-0.04309563
0.23540351,4.65381,-3.2434287,1.7231319,0.26119003,1.0965444,-5.080496,-0.21068975
0.23542343,4.6504593,-3.2434287,1.7231319,0.26119003,1.0965444,-5.080496,-0.21068975
0.23554605,4.646549,-3.5022879,1.81581,0.3730428,1.0199299,-5.4204726,-0.11492168
0.23566252,4.6426287,-3.5022879,1.81581,0.3730428,1.0199299,-5.4204726,-0.11492168
0.23588787,4.6384277,-3.7579513,1.8989006,0.49128714,0.8714894,-5.8322754,0.009576807
0.23610598,4.6342235,-3.7579513,1.8989006,0.49128714,0.8714894,-5.8322754,0.009576807
0.23643695,4.6297607,-4.007223,1.9745344,0.6148578,0.60812724,-6.205771,0.076614454
0.23643695,4.6297607,-4.007223,1.9745344,0.6148578,0.60812724,-6.205771,0.076614454
0.23643695,4.6297607,-4.007223,1.9745344,0.6148578,0.60812724,-6.205771,0.076614454
0.23774566,4.61586,-4.2469077,2.0405807,0.7416243,0.272939,-6.6175733,0.21547815
0.23832749,4.6107235,-4.4748745,2.0970397,0.87158656,-0.090979666,-7.1347213,0.2777274
0.2388766,4.605793,-4.4748745,2.0970397,0.87158656,-0.090979666,-7.1347213,0.2777274
0.23955604,4.6006494,-4.6879272,2.1396503,1.0058099,-0.40222588,-7.6710224,0.37349546
0.2402263,4.595498,-4.6879272,2.1396503,1.0058099,-0.40222588,-7.6710224,0.37349546
0.24103154,4.5901346,-4.8828707,2.1673472,1.1464248,-0.7038953,-8.121132,0.34476504
0.24182458,4.584779,-4.8828707,2.1673472,1.1464248,-0.7038953,-8.121132,0.34476504
0.24275428,4.5792193,-5.057574,2.1811957,1.2870396,-1.0295067,-8.63828,0.24420857
0.24366973,4.573674,-5.057574,2.1811957,1.2870396,-1.0295067,-8.63828,0.24420857
0.24472125,4.5679607,-5.2088413,2.1801305,1.4276546,-1.292869,-9.193734,0.19153613
0.24575837,4.562255,-5.2088413,2.1801305,1.4276546,-1.292869,-9.193734,0.19153613
0.24693178,4.5564137,-5.335608,2.1641514,1.566139,-1.5705963,-9.691729,0.16759412
0.2480923,4.5505676,-5.335608,2.1641514,1.566139,-1.5705963,-9.691729,0.16759412
0.24939011,4.5446177,-5.4378734,2.138585,1.7067538,-1.8914193,-10.141838,0.0047884034
0.25067556,4.5386567,-5.4378734,2.138585,1.7067538,-1.8914193,-10.141838,0.0047884034
0.25208172,4.53263,-5.512442,2.102366,1.8463036,-1.9871874,-10.510546,-0.33039984
0.25347847,4.5265794,-5.512442,2.102366,1.8463036,-1.9871874,-10.510546,-0.33039984
0.2550065,4.5204887,-5.56464,2.0586903,1.9837227,-2.2457612,-10.941502,-0.5315128
0.2565205,4.5143914,-5.56464,2.0586903,1.9837227,-2.2457612,-10.941502,-0.5315128
0.2581688,4.5082593,-5.594467,2.0096881,2.1168807,-2.5234885,-11.33894,-0.7517793
0.25979912,4.5021324,-5.594467,2.0096881,2.1168807,-2.5234885,-11.33894,-0.7517793
0.26155066,4.4959927,-5.601924,1.9532291,2.243647,-2.6384103,-11.650186,-0.9864111
0.263286,4.4898515,-5.601924,1.9532291,2.243647,-2.6384103,-11.650186,-0.9864111
0.26513016,4.483717,-5.589141,1.8946395,2.364022,-2.6767175,-11.927913,-1.316811
0.26695845,4.477581,-5.589141,1.8946395,2.364022,-2.6767175,-11.927913,-1.316811
0.26888067,4.4714704,-5.5561175,1.83605,2.4737444,-2.6479871,-12.071565,-1.6567876
0.27078947,4.4653516,-5.5561175,1.83605,2.4737444,-2.6479871,-12.071565,-1.6567876
0.27277634,4.459275,-5.5092463,1.7817215,2.5717487,-2.5953147,-12.152967,-1.9632454
0.27475077,4.4531903,-5.5092463,1.7817215,2.5717487,-2.5953147,-12.152967,-1.9632454
0.27679825,4.447163,-5.448526,1.731654,2.6569698,-2.6671407,-12.176909,-2.231396
0.27883378,4.441128,-5.448526,1.731654,2.6569698,-2.6671407,-12.176909,-2.231396
0.2809176,4.435159,-5.375023,1.6826519,2.7240815,-2.767697,-12.138602,-2.6144683
0.28299063,4.429184,-5.375023,1.6826519,2.7240815,-2.767697,-12.138602,-2.6144683
0.2851019,4.423284,-5.2940626,1.634715,2.7752142,-2.7246015,-12.133814,-2.7629087
0.28718612,4.417424,-5.2940626,1.634715,2.7752142,-2.7246015,-12.133814,-2.7629087
0.28931817,4.4115977,-5.206711,1.5910392,2.8093026,-2.7341783,-12.248735,-2.8634653
0.29145652,4.4057174,-5.206711,1.5910392,2.8093026,-2.7341783,-12.248735,-2.8634653
0.29358238,4.3999825,-5.1097717,1.5526897,2.8252816,-2.7150247,-12.3876,-3.0119057
0.2956871,4.3942685,-5.1097717,1.5526897,2.8252816,-2.7150247,-12.3876,-3.0119057
0.2978125,4.3886395,-5.0000496,1.5122095,2.8220859,-3.0023289,-12.650962,-3.1268275
0.29993334,4.382986,-5.0000496,1.5122095,2.8220859,-3.0023289,-12.650962,-3.1268275
0.30205056,4.377493,-4.8786097,1.465338,2.7997153,-3.5482068,-12.74673,-3.3997664
0.30415407,4.371996,-4.8786097,1.465338,2.7997153,-3.5482068,-12.74673,-3.3997664
0.3062263,4.3666353,-4.743321,1.4024874,2.7603004,-3.5673606,-13.125013,-3.5338416
0.30828574,4.361272,-4.743321,1.4024874,2.7603004,-3.5673606,-13.125013,-3.5338416
0.31033838,4.356082,-4.5963144,1.3268535,2.7112982,-4.1036615,-12.981361,-4.0462008
0.31237882,4.3508835,-4.5963144,1.3268535,2.7112982,-4.1036615,-12.981361,-4.0462008
0.31436014,4.3458695,-4.43759,1.2352408,2.6516435,-3.9264908,-13.656527,-4.0174704
0.31633404,4.3408427,-4.43759,1.2352408,2.6516435,-3.9264908,-13.656527,-4.0174704
0.3182586,4.336013,-4.2618213,1.135106,2.5792055,-3.4045548,-14.882358,-3.5865142
0.32017055,4.331186,-4.2618213,1.135106,2.5792055,-3.4045548,-14.882358,-3.5865142
0.32205388,4.326603,-4.0477033,1.0477543,2.504637,-4.1371803,-15.064317,-4.012682
0.32392886,4.322013,-4.0477033,1.0477543,2.504637,-4.1371803,-15.064317,-4.012682
0.3257404,4.3177075,-3.796301,0.94974995,2.41622,-4.132392,-14.867992,-4.3957543
0.32754493,4.313396,-3.796301,0.94974995,2.41622,-4.132392,-14.867992,-4.3957543
0.3293206,4.30941,-3.5193322,0.8368319,2.3192809,-4.759673,-14.729129,-4.7405195
0.3310893,4.305418,-3.5193322,0.8368319,2.3192809,-4.759673,-14.729129,-4.7405195
0.33281714,4.3017664,-3.228515,0.7100654,2.2180808,-4.9416323,-14.901511,-4.759673
0.3345387,4.298109,-3.228515,0.7100654,2.2180808,-4.9416323,-14.901511,-4.759673
0.33619902,4.294813,-2.9217188,0.5641242,2.1094239,-4.7070007,-15.1696615,-4.76925
0.33785456,4.2915134,-2.9217188,0.5641242,2.1094239,-4.7070007,-15.1696615,-4.76925
0.33945158,4.2885976,-2.5968132,0.41179138,1.9879837,-4.510676,-15.825673,-4.572925
0.34104493,4.285678,-2.5968132,0.41179138,1.9879837,-4.510676,-15.825673,-4.572925
0.34258568,4.2831707,-2.2484717,0.26691544,1.860152,-4.8506527,-15.998055,-4.7884035
0.34412196,4.280663,-2.2484717,0.26691544,1.860152,-4.8506527,-15.998055,-4.7884035
0.34559473,4.278591,-1.8766943,0.11990894,1.7237982,-5.032612,-16.031574,-5.104438
0.34706533,4.276516,-1.8766943,0.11990894,1.7237982,-5.032612,-16.031574,-5.104438
0.34845552,4.274901,-1.4857423,-0.033489145,1.5767916,-4.9943047,-15.978902,-5.434838
0.34984428,4.2732835,-1.4857423,-0.033489145,1.5767916,-4.9943047,-15.978902,-5.434838
0.35113296,4.2721386,-1.082007,-0.19008303,1.4159367,-4.606444,-15.86398,-5.57849
0.352421,4.2709923,-1.082007,-0.19008303,1.4159367,-4.606444,-15.86398,-5.57849
0.35360035,4.270325,-0.670815,-0.3381548,1.2422986,-4.4340615,-15.710752,-5.78918
0.35477927,4.269658,-0.670815,-0.3381548,1.2422986,-4.4340615,-15.710752,-5.78918
0.35583258,4.2694707,-0.25216603,-0.4723781,1.0590731,-4.256891,-15.337256,-6.0142345
0.3568718,4.269285,-0.25216603,-0.4723781,1.0590731,-4.256891,-15.337256,-6.0142345
0.3577831,4.2695622,0.16754816,-0.5991446,0.8673255,-4.261679,-14.9063,-6.459556
0.35870424,4.269842,0.16754816,-0.5991446,0.8673255,-4.261679,-14.9063,-6.459556
0.3594777,4.2705803,0.58193606,-0.7205847,0.66812104,-4.2425256,-14.566323,-6.6654577
0.3602469,4.271314,0.58193606,-0.7205847,0.66812104,-4.2425256,-14.566323,-6.6654577
0.36088577,4.2725005,0.98886704,-0.8409596,0.46145973,-4.357447,-14.188039,-6.8665705
0.3615275,4.273692,0.98886704,-0.8409596,0.46145973,-4.357447,-14.188039,-6.8665705
0.36203846,4.2753224,1.3862107,-0.9645303,0.24947211,-4.209007,-13.690045,-7.0006456
0.36254913,4.276952,1.3862107,-0.9645303,0.24947211,-4.209007,-13.690045,-7.0006456
0.36292458,4.279034,1.7729017,-1.0881009,0.035353955,-4.060566,-13.330915,-7.029376
0.36329922,4.2811155,1.7729017,-1.0881009,0.035353955,-4.060566,-13.330915,-7.029376
0.36352438,4.283648,2.1478748,-1.2095411,-0.18302526,-3.8163576,-13.000515,-6.9288197
0.36374795,4.2861795,2.1478748,-1.2095411,-0.18302526,-3.8163576,-13.000515,-6.9288197
0.36381757,4.2891498,2.515391,-1.325655,-0.40460026,-3.7062242,-12.741941,-6.8665705
0.36388472,4.292116,2.515391,-1.325655,-0.40460026,-3.7062242,-12.741941,-6.8665705
0.36379454,4.2955165,2.8754504,-1.4343119,-0.62511003,-3.7541082,-12.579136,-6.775591
0.36370122,4.2989087,2.8754504,-1.4343119,-0.62511003,-3.7541082,-12.579136,-6.775591
0.3634506,4.3027215,3.2301834,-1.535512,-0.8402934,-3.5817258,-12.430696,-6.9240313
0.36319548,4.306532,3.2301834,-1.535512,-0.8402934,-3.5817258,-12.430696,-6.9240313
0.36278495,4.31074,3.571068,-1.6271248,-1.0458895,-3.2561142,-12.124237,-7.1347213
0.362367,4.314958,3.571068,-1.6271248,-1.0458895,-3.2561142,-12.124237,-7.1347213
0.36179456,4.319582,3.8938432,-1.7091501,-1.2418982,-3.169923,-11.774684,-7.216124
0.36122724,4.324102,3.8938432,-1.7091501,-1.2418982,-3.169923,-11.774684,-7.216124
0.36047563,4.3292403,4.196378,-1.7826533,-1.43045,-3.3135753,-11.439496,-7.1730285
0.35973975,4.3342023,4.196378,-1.7826533,-1.43045,-3.3135753,-11.439496,-7.1730285
0.35889736,4.339287,4.4744124,-1.8508303,-1.6062186,-3.4811692,-11.161768,-7.1251445
0.3580355,4.3444242,4.4744124,-1.8508303,-1.6062186,-3.4811692,-11.161768,-7.1251445
0.3570347,4.3499374,4.72688,-1.9136809,-1.7628125,-3.6774938,-10.821792,-6.9240313
0.35602102,4.3554516,4.72688,-1.9136809,-1.7628125,-3.6774938,-10.821792,-6.9240313
0.35489532,4.361224,4.953781,-1.9733357,-1.8981011,-3.7924154,-10.596737,-6.6750345
0.3537567,4.366991,4.953781,-1.9733357,-1.8981011,-3.7924154,-10.596737,-6.6750345
0.3525197,4.372997,5.152986,-2.0319252,-2.01528,-3.9743748,-10.453085,-6.38773
0.35127243,4.378978,5.152986,-2.0319252,-2.01528,-3.9743748,-10.453085,-6.38773
0.34995925,4.3851633,5.3298197,-2.0851884,-2.1100886,-4.4819455,-10.309433,-6.26802
0.3486305,4.391341,5.3298197,-2.0851884,-2.1100886,-4.4819455,-10.309433,-6.26802
0.34724474,4.397693,5.4832177,-2.1384518,-2.1825266,-4.6686935,-10.132261,-6.081272
0.3458422,4.404037,5.4832177,-2.1384518,-2.1825266,-4.6686935,-10.132261,-6.081272
0.34439036,4.4105363,5.6142454,-2.1981065,-2.232594,-4.620809,-10.036493,-6.1243677
0.34290907,4.41708,5.6142454,-2.1981065,-2.232594,-4.620809,-10.036493,-6.1243677
0.34142298,4.42363,5.717576,-2.2780013,-2.2688131,-4.501099,-9.725247,-6.3063273
0.3399051,4.430232,5.717576,-2.2780013,-2.2688131,-4.501099,-9.725247,-6.3063273
0.33836746,4.436933,5.79534,-2.3738751,-2.2943795,-4.213795,-9.677363,-5.741296
0.3368079,4.443638,5.79534,-2.3738751,-2.2943795,-4.213795,-9.677363,-5.741296
0.33523968,4.4504156,5.8517995,-2.4622922,-2.2997057,-3.8977604,-9.749189,-5.21936
0.33365384,4.4571776,5.8517995,-2.4622922,-2.2997057,-3.8977604,-9.749189,-5.21936
0.33204603,4.4640093,5.895475,-2.5368607,-2.292249,-3.3183637,-9.878476,-4.6016555
0.3304178,4.470838,5.895475,-2.5368607,-2.292249,-3.3183637,-9.878476,-4.6016555
0.3287761,4.4777155,5.9370203,-2.5954502,-2.2784004,-2.9400797,-9.902418,-4.1276035
0.32711595,4.484583,5.9370203,-2.5954502,-2.2784004,-2.9400797,-9.902418,-4.1276035
0.32544464,4.4914947,5.9775004,-2.6401913,-2.2602909,-2.6240451,-9.816227,-3.7445314
0.3237522,4.498409,5.9775004,-2.6401913,-2.2602909,-2.6240451,-9.816227,-3.7445314
0.32205477,4.50536,6.0169153,-2.6732144,-2.2411163,-2.3989902,-9.619903,-3.4763808
0.32033956,4.5123,6.0169153,-2.6732144,-2.2411163,-2.3989902,-9.619903,-3.4763808
0.31861892,4.5192566,6.0488734,-2.699846,-2.21555,-1.9871874,-9.313444,-3.169923
0.31687185,4.5262365,6.0488734,-2.699846,-2.21555,-1.9871874,-9.313444,-3.169923
0.3151193,4.533231,6.0691133,-2.7136946,-2.1867876,-1.2737153,-8.815451,-3.1124623
0.31335542,4.5401855,6.0691133,-2.7136946,-2.1867876,-1.2737153,-8.815451,-3.1124623
0.31157967,4.547163,6.0733743,-2.7126293,-2.1612213,-0.49320555,-8.1163435,-3.1651347
0.309783,4.5541368,6.0733743,-2.7126293,-2.1612213,-0.49320555,-8.1163435,-3.1651347
0.30798405,4.56106,6.0541997,-2.6934545,-2.1388507,0.20590134,-7.431602,-3.289633
0.30798405,4.56106,6.0541997,-2.6934545,-2.1388507,0.20590134,-7.431602,-3.289633
0.30798405,4.56106,6.0041323,-2.6593661,-2.1218066,0.56982,-6.813898,-3.3135753
0.30798405,4.56106,6.0041323,-2.6593661,-2.1218066,0.56982,-6.813898,-3.3135753
0.300576,4.5885572,5.923172,-2.6092987,-2.1132843,0.80445176,-6.205771,-3.1028855
0.29869187,4.5952697,5.923172,-2.6092987,-2.1132843,0.80445176,-6.205771,-3.1028855
0.29681733,4.60175,5.8123846,-2.546448,-2.1047623,0.7613561,-5.717354,-2.8395233
0.2948398,4.608515,5.8123846,-2.546448,-2.1047623,0.7613561,-5.717354,-2.8395233
0.29295006,4.614748,5.6802917,-2.4750752,-2.0941098,0.92416185,-5.473145,-2.4516625
0.29096663,4.6212273,5.6802917,-2.4750752,-2.0941098,0.92416185,-5.473145,-2.4516625
0.28907105,4.6272435,5.5311546,-2.3994415,-2.0770655,0.6368576,-5.056554,-2.3127987
0.28710827,4.633418,5.5311546,-2.3994415,-2.0770655,0.6368576,-5.056554,-2.3127987
0.28514093,4.6394167,5.3649735,-2.320612,-2.0504339,0.5602432,-4.8362875,-1.9967642
0.2831563,4.645417,5.3649735,-2.320612,-2.0504339,0.5602432,-4.8362875,-1.9967642
0.2811798,4.6512065,5.1881394,-2.2471087,-2.0131495,0.89064306,-4.7644615,-1.6950948
0.2811798,4.6512065,5.1881394,-2.2471087,-2.0131495,0.89064306,-4.7644615,-1.6950948
0.2811798,4.6512065,5.1881394,-2.2471087,-2.0131495,0.89064306,-4.7644615,-1.6950948
0.27517352,4.6684513,5.0049143,-2.1725402,-1.966278,1.2641385,-4.735731,-1.3072342
0.27321333,4.6738467,4.8174276,-2.087319,-1.9119495,1.6567876,-4.793192,-0.8475474
0.2712396,4.6792393,4.8174276,-2.087319,-1.9119495,1.6567876,-4.793192,-0.8475474
0.26932183,4.684405,4.6278105,-1.9935757,-1.8501642,2.0207062,-4.8698063,-0.48362875
0.26738948,4.6895733,4.6278105,-1.9935757,-1.8501642,2.0207062,-4.8698063,-0.48362875
0.26551327,4.6945477,4.4392586,-1.8923756,-1.7830524,2.2409728,-4.841076,-0.009576807
0.26363084,4.6995053,4.4392586,-1.8923756,-1.7830524,2.2409728,-4.841076,-0.009576807
0.26181486,4.704261,4.2507067,-1.7858492,-1.7138103,2.5187001,-4.745308,0.51235914
0.25998977,4.70901,4.2507067,-1.7858492,-1.7138103,2.5187001,-4.745308,0.51235914
0.2582419,4.7135487,4.0642858,-1.6708006,-1.6381766,2.657564,-4.596867,0.9959879
0.2564859,4.718082,4.0642858,-1.6708006,-1.6381766,2.657564,-4.596867,0.9959879
0.25481868,4.7223945,3.8746684,-1.5461646,-1.5550859,3.2704794,-3.9983168,1.5131354
0.2531226,4.7267585,3.8746684,-1.5461646,-1.5550859,3.2704794,-3.9983168,1.5131354
0.25156248,4.730773,3.6733334,-1.402354,-1.4645385,2.8203697,-3.5673606,1.6232687
0.2499775,4.734832,3.6733334,-1.402354,-1.4645385,2.8203697,-3.5673606,1.6232687
0.24849373,4.738642,3.4549544,-1.2521517,-1.3644035,2.7629087,-3.1555579,1.7812861
0.24700494,4.7424498,3.4549544,-1.2521517,-1.3644035,2.7629087,-3.1555579,1.7812861
0.24563177,4.745963,3.2152698,-1.1051452,-1.2600076,3.394978,-2.825158,2.1308396
0.24424908,4.7494874,3.2152698,-1.1051452,-1.2600076,3.394978,-2.825158,2.1308396
0.2429834,4.7527103,2.9553452,-0.94535553,-1.1492201,3.845088,-2.5187001,2.3702598
0.24171586,4.755927,2.9553452,-0.94535553,-1.1492201,3.845088,-2.5187001,2.3702598
0.24057595,4.7588186,2.6709197,-0.76213,-1.0309758,3.9360676,-2.1739352,2.60968
0.23943134,4.7617145,2.6709197,-0.76213,-1.0309758,3.9360676,-2.1739352,2.60968
0.23842523,4.764248,2.3609276,-0.5650561,-0.9074051,3.9217024,-1.8100165,2.777274
0.2374065,4.7668085,2.3609276,-0.5650561,-0.9074051,3.9217024,-1.8100165,2.777274
0.23654976,4.768933,2.0253694,-0.35946006,-0.77850807,4.2042184,-1.2785037,2.8682537
0.23568437,4.771076,2.0253694,-0.35946006,-0.77850807,4.2042184,-1.2785037,2.8682537
0.23496133,4.772805,1.6599836,-0.14640717,-0.6496111,4.4101195,-0.9816227,3.0071173
0.23423794,4.774535,1.6599836,-0.14640717,-0.6496111,4.4101195,-0.9816227,3.0071173
0.23365884,4.775821,1.2669011,0.073037304,-0.52177936,4.381389,-0.7469909,3.1411927
0.23307988,4.7771072,1.2669011,0.073037304,-0.52177936,4.381389,-0.7469909,3.1411927
0.23264404,4.7779202,0.8461216,0.29887336,-0.39714342,4.5872903,-0.16759412,3.2752678
0.23220848,4.7787333,0.8461216,0.29887336,-0.39714342,4.5872903,-0.16759412,3.2752678
0.23190963,4.7790465,0.39871055,0.5279052,-0.27676854,4.9703627,-0.05267244,3.6056678
0.23161057,4.7793603,0.39871055,0.5279052,-0.27676854,4.9703627,-0.05267244,3.6056678
0.23144428,4.779149,-0.075332135,0.7633287,-0.16065471,5.109226,-0.36391866,4.060566
0.23127775,4.7789383,-0.075332135,0.7633287,-0.16065471,5.109226,-0.36391866,4.060566
0.23124456,4.7781854,-0.5653538,1.0072743,-0.04454088,4.5441947,-0.7661445,4.175488
0.23121063,4.7774334,-0.5653538,1.0072743,-0.04454088,4.5441947,-0.7661445,4.175488
0.23131093,4.7761374,-1.0585712,1.2395018,0.071572945,3.9456444,-0.7086837,4.1802764
0.23140973,4.7748413,-1.0585712,1.2395018,0.071572945,3.9456444,-0.7086837,4.1802764
0.23162925,4.773005,-1.5517887,1.4493589,0.18129519,3.9983168,-0.80445176,4.333505
0.23184627,4.7711678,-1.5517887,1.4493589,0.18129519,3.9983168,-0.80445176,4.333505
0.23219249,4.768793,-2.0492673,1.6453676,0.297409,3.1316159,-1.1492168,4.333505
0.23253499,4.766418,-2.0492673,1.6453676,0.297409,3.1316159,-1.1492168,4.333505
0.23301291,4.7635107,-2.5456805,1.8211362,0.42417547,2.4133554,-1.7764976,4.3766007
0.23301291,4.7635107,-2.5456805,1.8211362,0.42417547,2.4133554,-1.7764976,4.3766007
0.23405884,4.7570324,-2.5456805,1.8211362,0.42417547,2.4133554,-1.7764976,4.3766007
0.23460045,4.7539062,-3.0303757,1.964947,0.555203,2.4660277,-2.5570073,4.4101195
0.23525423,4.7503996,-3.494831,2.0917134,0.6936874,2.0111294,-3.371036,4.280833
0.23596005,4.7465725,-3.494831,2.0917134,0.6936874,2.0111294,-3.371036,4.280833
0.23682849,4.7422028,-3.9326546,2.2088926,0.8428244,1.3072342,-4.2185836,4.1419687
0.23769191,4.7378087,-3.9326546,2.2088926,0.8428244,1.3072342,-4.2185836,4.1419687
0.23870306,4.733,-4.3427815,2.3058317,1.0026141,0.90979666,-5.195418,3.9839516
0.23970549,4.7281775,-4.3427815,2.3058317,1.0026141,0.90979666,-5.195418,3.9839516
0.24086943,4.722951,-4.717755,2.3804002,1.1741216,0.6368576,-6.129156,3.8307228
0.24201792,4.717735,-4.717755,2.3804002,1.1741216,0.6368576,-6.129156,3.8307228
0.24332544,4.712163,-5.050117,2.4368591,1.3498904,0.49320555,-7.129933,3.5817258
0.24461983,4.7065864,-5.050117,2.4368591,1.3498904,0.49320555,-7.129933,3.5817258
0.24607676,4.7007084,-5.335608,2.4784045,1.52992,0.30166942,-8.0684595,3.41892
0.2475194,4.694825,-5.335608,2.4784045,1.52992,0.30166942,-8.0684595,3.41892
0.24912111,4.6886883,-5.5742273,2.5092971,1.7056886,0.08619126,-8.796297,3.2752678
0.2507062,4.6825504,-5.5742273,2.5092971,1.7056886,0.08619126,-8.796297,3.2752678
0.25245443,4.6761975,-5.7649097,2.5295372,1.8814572,-0.25857377,-9.514558,3.0933087
0.2541851,4.6698437,-5.7649097,2.5295372,1.8814572,-0.25857377,-9.514558,3.0933087
0.25607538,4.6633387,-5.90659,2.5391245,2.052965,-0.8714894,-10.060435,2.7389667
0.257949,4.6568246,-5.90659,2.5391245,2.052965,-0.8714894,-10.060435,2.7389667
0.25997627,4.6502056,-6.0045943,2.5337982,2.2202113,-1.3024458,-10.486604,2.4037786
0.2619864,4.6435766,-6.0045943,2.5337982,2.2202113,-1.3024458,-10.486604,2.4037786
0.2641413,4.636877,-6.06851,2.5135581,2.3821316,-1.5179238,-10.692505,2.0350714
0.26627848,4.630168,-6.06851,2.5135581,2.3821316,-1.5179238,-10.692505,2.0350714
0.26856056,4.62341,-6.1057944,2.4816003,2.5387254,-1.7621324,-10.788273,1.6950948
0.2708202,4.6166553,-6.1057944,2.4816003,2.5387254,-1.7621324,-10.788273,1.6950948
0.27321967,4.6098638,-6.1185775,2.4432507,2.6867971,-1.910573,-10.726024,1.340753
0.2755917,4.603088,-6.1185775,2.4432507,2.6867971,-1.910573,-10.726024,1.340753
0.2780843,4.596303,-6.10899,2.4017055,2.823151,-1.9536686,-10.577583,0.8475474
0.2805588,4.589506,-6.10899,2.4017055,2.823151,-1.9536686,-10.577583,0.8475474
0.28312716,4.5827208,-6.0823584,2.3590949,2.9467218,-1.8674773,-10.453085,0.22984336
0.2856732,4.5759363,-6.0823584,2.3590949,2.9467218,-1.8674773,-10.453085,0.22984336
0.2882875,4.569169,-6.0440087,2.315419,3.0511177,-1.8100165,-10.357317,-0.35913026
0.2908858,4.5623903,-6.0440087,2.315419,3.0511177,-1.8100165,-10.357317,-0.35913026
0.29352108,4.5556345,-5.991811,2.2728083,3.1352735,-1.7908629,-10.247183,-0.9768343
0.29614133,4.548869,-5.991811,2.2728083,3.1352735,-1.7908629,-10.247183,-0.9768343
0.29878312,4.54211,-5.927895,2.2280674,3.1959937,-1.8579005,-10.266336,-1.6472107
0.30140746,4.535345,-5.927895,2.2280674,3.1959937,-1.8579005,-10.266336,-1.6472107
0.304073,4.528599,-5.8543916,2.182261,3.2396693,-1.9776106,-10.338163,-2.2266076
0.30671635,4.521846,-5.8543916,2.182261,3.2396693,-1.9776106,-10.338163,-2.2266076
0.3093945,4.5151515,-5.7670403,2.1332588,3.265236,-2.1883004,-10.577583,-2.6671407
0.31204936,4.5084486,-5.7670403,2.1332588,3.265236,-2.1883004,-10.577583,-2.6671407
0.31472632,4.501829,-5.664775,2.0821261,3.273758,-2.456451,-10.931925,-3.1268275
0.3173795,4.4952,-5.664775,2.0821261,3.273758,-2.456451,-10.931925,-3.1268275
0.32004312,4.488681,-5.5465302,2.0267322,3.2716274,-2.834735,-11.291056,-3.4332852
0.3226828,4.4821515,-5.5465302,2.0267322,3.2716274,-2.834735,-11.291056,-3.4332852
0.32532215,4.4757547,-5.408046,1.9681427,3.26204,-3.2130187,-11.793838,-3.6535518
0.327932,4.4693613,-5.408046,1.9681427,3.26204,-3.2130187,-11.793838,-3.6535518
0.3305384,4.4631233,-5.2503867,1.9020964,3.2481916,-3.4620156,-12.291832,-3.9743748
0.3331214,4.456876,-5.2503867,1.9020964,3.2481916,-3.4620156,-12.291832,-3.9743748
0.33568922,4.4508185,-5.0714226,1.8307236,3.2279515,-3.7493198,-12.837709,-4.1946416
0.3382335,4.4447536,-5.0714226,1.8307236,3.2279515,-3.7493198,-12.837709,-4.1946416
0.34075132,4.438908,-4.871153,1.7529594,3.1991894,-4.0701427,-13.374011,-4.295198
0.34324533,4.433058,-4.871153,1.7529594,3.1991894,-4.0701427,-13.374011,-4.295198
0.34571782,4.4274526,-4.6485124,1.6645424,3.1672316,-4.4340615,-13.929465,-4.4580035
0.34817153,4.421834,-4.6485124,1.6645424,3.1672316,-4.4340615,-13.929465,-4.4580035
0.35058472,4.41652,-4.404567,1.5686686,3.1299472,-4.76925,-14.518439,-4.5872903
0.3529821,4.411198,-4.404567,1.5686686,3.1299472,-4.76925,-14.518439,-4.5872903
0.35536152,4.4061713,-4.138251,1.4642727,3.0905323,-5.21936,-14.757859,-4.687847
0.35772464,4.4011526,-4.138251,1.4642727,3.0905323,-5.21936,-14.757859,-4.687847
0.36007345,4.396516,-3.8548903,1.3513546,3.0447261,-5.0900726,-15.294161,-4.6160207
0.3624192,4.3918715,-3.8548903,1.3513546,3.0447261,-5.0900726,-15.294161,-4.6160207
0.36484733,4.3874025,-3.555551,1.2341756,2.995724,-5.9759274,-15.021221,-5.2480903
0.36723787,4.3829308,-3.555551,1.2341756,2.995724,-5.9759274,-15.021221,-5.2480903
0.36951944,4.3789134,-3.2466245,1.0956912,2.9371343,-5.837064,-15.399506,-5.2720323
0.37179357,4.374909,-3.2466245,1.0956912,2.9371343,-5.837064,-15.399506,-5.2720323
0.37410426,4.3713474,-2.9313061,0.9422931,2.8689575,-5.7029886,-16.759413,-4.76925
0.37640944,4.3677783,-2.9313061,0.9422931,2.8689575,-5.7029886,-16.759413,-4.76925
0.37870544,4.3646097,-2.5968132,0.78996027,2.7933235,-6.1004257,-16.941372,-4.865018
0.38099593,4.3614335,-2.5968132,0.78996027,2.7933235,-6.1004257,-16.941372,-4.865018
0.38339138,4.3586726,-2.2324927,0.6376275,2.7112982,-7.5704656,-16.692375,-5.497087
0.385774,4.3559093,-2.2324927,0.6376275,2.7112982,-7.5704656,-16.692375,-5.497087
0.38817418,4.3535724,-1.855389,0.45014092,2.6186202,-7.4507556,-16.084248,-5.6982
0.39056122,4.3512383,-1.855389,0.45014092,2.6186202,-7.4507556,-16.084248,-5.6982
0.3928462,4.3494062,-1.4804159,0.23602276,2.5120938,-7.0485296,-15.964537,-5.57849
0.3951189,4.3475714,-1.4804159,0.23602276,2.5120938,-7.0485296,-15.964537,-5.57849
0.39744368,4.346169,-1.1107692,0.020839343,2.39598,-7.2113357,-15.648502,-5.765238
0.3997405,4.3447795,-1.1107692,0.020839343,2.39598,-7.2113357,-15.648502,-5.765238
0.40181774,4.343854,-0.7411224,-0.1996704,2.2574956,-5.803545,-15.9022875,-5.209783
0.40389583,4.3429246,-0.7411224,-0.1996704,2.2574956,-5.803545,-15.9022875,-5.209783
0.40590096,4.3424764,-0.37041038,-0.3978096,2.0934448,-5.741296,-16.25663,-4.9799395
0.40790498,4.3420258,-0.37041038,-0.3978096,2.0934448,-5.741296,-16.25663,-4.9799395
0.40980145,4.3420634,0.015215342,-0.57357824,1.9080889,-6.2967505,-15.859192,-5.3247046
0.4116958,4.342099,0.015215342,-0.57357824,1.9080889,-6.2967505,-15.859192,-5.3247046
0.41344094,4.3426175,0.4061674,-0.7525427,1.6992971,-6.5505357,-15.38514,-5.6120086
0.41518256,4.3431334,0.4061674,-0.7525427,1.6992971,-6.5505357,-15.38514,-5.6120086
0.4167552,4.344105,0.7896626,-0.9378987,1.4702652,-6.167464,-15.140931,-5.674258
0.4167552,4.344105,0.7896626,-0.9378987,1.4702652,-6.167464,-15.140931,-5.674258
0.4167552,4.344105,1.1635704,-1.1189936,1.2252543,-5.813122,-14.925453,-5.5737014
0.42102578,4.348525,1.1635704,-1.1189936,1.2252543,-5.813122,-14.925453,-5.5737014
0.4222283,4.350395,1.5257603,-1.2841096,0.96746033,-5.5641246,-14.614207,-5.6551046
0.42344335,4.3522854,1.5257603,-1.2841096,0.96746033,-5.5641246,-14.614207,-5.6551046
0.42449167,4.3546395,1.8772976,-1.4289856,0.69581795,-5.4539914,-14.073117,-5.827487
0.42551413,4.356939,1.8772976,-1.4289856,0.69581795,-5.4539914,-14.073117,-5.827487
0.42551413,4.356939,2.2128558,-1.5610784,0.4177839,-5.559336,-13.345281,-6.0764837
0.42723766,4.362424,2.2128558,-1.5610784,0.4177839,-5.559336,-13.345281,-6.0764837
0.42723766,4.362424,2.527109,-1.6867796,0.13655408,-5.415684,-12.6461735,-6.4020953
0.42852935,4.3686247,2.527109,-1.6867796,0.13655408,-5.415684,-12.6461735,-6.4020953
0.428946,4.3720856,2.816861,-1.809285,-0.14787152,-5.1810527,-12.143391,-6.5984197
0.428946,4.3720856,2.816861,-1.809285,-0.14787152,-5.1810527,-12.143391,-6.5984197
0.42932278,4.3799553,3.0810463,-1.9253988,-0.4333624,-5.0757074,-11.798626,-6.531382
0.42939124,4.3814487,3.0810463,-1.9253988,-0.4333624,-5.0757074,-11.798626,-6.531382
0.42954314,4.3878574,3.324992,-2.0319252,-0.7145922,-4.927267,-11.401189,-6.5457473
0.42947605,4.3919253,3.324992,-2.0319252,-0.7145922,-4.927267,-11.401189,-6.5457473
0.42947605,4.3919253,3.324992,-2.0319252,-0.7145922,-4.927267,-11.401189,-6.5457473
0.42888117,4.400916,3.5486975,-2.127799,-0.98623466,-5.085284,-10.965444,-6.6175733
0.42835587,4.4056487,3.7510977,-2.2172813,-1.2461592,-5.046977,-10.682928,-6.6510925
0.42781466,4.410422,3.7510977,-2.2172813,-1.2461592,-5.046977,-10.682928,-6.6510925
0.42704576,4.415437,3.9364538,-2.2993066,-1.4879742,-4.606444,-10.505757,-6.588843
0.42626482,4.420448,3.9364538,-2.2993066,-1.4879742,-4.606444,-10.505757,-6.588843
0.42527342,4.4256835,4.1058307,-2.3717446,-1.7106144,-4.2904096,-10.275913,-6.646304
0.4242676,4.4309187,4.1058307,-2.3717446,-1.7106144,-4.2904096,-10.275913,-6.646304
0.42306563,4.436353,4.2592287,-2.4324646,-1.9151453,-4.084508,-10.041282,-6.564901
0.42185044,4.4417744,4.2592287,-2.4324646,-1.9151453,-4.084508,-10.041282,-6.564901
0.42044964,4.4473786,4.397713,-2.4761405,-2.099436,-3.9217024,-9.864111,-6.5026517
0.419035,4.4529686,4.397713,-2.4761405,-2.099436,-3.9217024,-9.864111,-6.5026517
0.41745743,4.4587035,4.521284,-2.5049026,-2.2602909,-3.8594532,-9.653421,-6.4882865
0.41586387,4.464428,4.521284,-2.5049026,-2.2602909,-3.8594532,-9.653421,-6.4882865
0.41412947,4.470274,4.6310062,-2.5230122,-2.3966448,-3.8833952,-9.433155,-6.4643445
0.41237852,4.4761086,4.6310062,-2.5230122,-2.3966448,-3.8833952,-9.433155,-6.4643445
0.41050872,4.48204,4.7247496,-2.5294037,-2.5053017,-3.9121256,-9.284714,-6.3350577
0.40862206,4.4879594,4.7247496,-2.5294037,-2.5053017,-3.9121256,-9.284714,-6.3350577
0.40663534,4.4939556,4.804644,-2.5315342,-2.5873272,-3.6870706,-9.083601,-6.1770406
0.40462962,4.4999456,4.804644,-2.5315342,-2.5873272,-3.6870706,-9.083601,-6.1770406
0.4025519,4.5059824,4.870691,-2.5315342,-2.642721,-3.3806129,-8.815451,-6.05733
0.40045518,4.512012,4.870691,-2.5315342,-2.642721,-3.3806129,-8.815451,-6.05733
0.39830244,4.518079,4.9207582,-2.521947,-2.675744,-3.1316159,-8.614338,-5.8705826
0.39613295,4.524132,4.9207582,-2.521947,-2.675744,-3.1316159,-8.614338,-5.8705826
0.39392126,4.5302086,4.9569774,-2.5049026,-2.6885273,-2.7820623,-8.451532,-5.7269306
0.39169505,4.5362663,4.9569774,-2.5049026,-2.6885273,-2.7820623,-8.451532,-5.7269306
0.38944894,4.5423155,4.976152,-2.4814668,-2.6821356,-2.432509,-8.283937,-5.48751
0.38718432,4.5483565,4.976152,-2.4814668,-2.6821356,-2.432509,-8.283937,-5.48751
0.38490978,4.5543795,4.9825435,-2.4505742,-2.6618958,-2.111686,-8.197746,-5.1906295
0.382617,4.5603952,4.9825435,-2.4505742,-2.6618958,-2.111686,-8.197746,-5.1906295
0.38033542,4.566364,4.976152,-2.4122248,-2.626742,-1.8435353,-8.010999,-4.8985367
0.37803623,4.572325,4.976152,-2.4122248,-2.626742,-1.8435353,-8.010999,-4.8985367
0.3757581,4.5782347,4.9569774,-2.3642879,-2.578805,-1.6807296,-7.867347,-4.654328
0.37346545,4.5841317,4.9569774,-2.3642879,-2.578805,-1.6807296,-7.867347,-4.654328
0.3712095,4.589965,4.92715,-2.3131552,-2.5170197,-1.5897499,-7.6949644,-4.309563
0.36893967,4.595786,4.92715,-2.3131552,-2.5170197,-1.5897499,-7.6949644,-4.309563
0.36671987,4.601537,4.8898654,-2.2620225,-2.4435165,-1.6041151,-7.632715,-3.8833952
0.36448702,4.607277,4.8898654,-2.2620225,-2.4435165,-1.6041151,-7.632715,-3.8833952
0.36231312,4.612943,4.8472548,-2.211955,-2.3593605,-1.5370775,-7.5800424,-3.4715924
0.36012474,4.6186047,4.8472548,-2.211955,-2.3593605,-1.5370775,-7.5800424,-3.4715924
0.3580109,4.6241817,4.8014483,-2.1682792,-2.264552,-1.484405,-7.599196,-3.0885203
0.3558834,4.629754,4.8014483,-2.1682792,-2.264552,-1.484405,-7.599196,-3.0885203
0.353836,4.6352577,4.7545767,-2.1331253,-2.1590908,-1.412579,-7.642292,-2.695871
0.3517777,4.6407514,4.7545767,-2.1331253,-2.1590908,-1.412579,-7.642292,-2.695871
0.34980404,4.64618,4.7066402,-2.1054285,-2.0493686,-1.3742718,-7.675811,-2.2840683
0.3478202,4.6516,4.7066402,-2.1054285,-2.0493686,-1.3742718,-7.675811,-2.2840683
0.34592563,4.6569614,4.6597686,-2.0841231,-1.9332547,-1.3215994,-7.7811556,-1.910573
0.34402147,4.6623135,4.6597686,-2.0841231,-1.9332547,-1.3215994,-7.7811556,-1.910573
0.34220833,4.6676188,4.6150274,-2.0681443,-1.809684,-1.1923125,-7.809886,-1.4748282
0.34038433,4.6729207,4.6150274,-2.0681443,-1.809684,-1.1923125,-7.809886,-1.4748282
0.33865568,4.6781797,4.5713515,-2.055361,-1.6818523,-0.9528923,-7.9104424,-1.0247183
0.33691603,4.6834345,4.5713515,-2.055361,-1.6818523,-0.9528923,-7.9104424,-1.0247183
0.33528283,4.688657,4.529806,-2.0447085,-1.5529554,-0.81881696,-7.7189064,-0.6703765
0.33363995,4.693869,4.529806,-2.0447085,-1.5529554,-0.81881696,-7.7189064,-0.6703765
0.33211085,4.699044,4.485065,-2.03086,-1.4229931,-0.7517793,-7.627927,-0.37828386
0.33057156,4.7042103,4.485065,-2.03086,-1.4229931,-0.7517793,-7.627927,-0.37828386
0.32914802,4.7093496,4.4392586,-2.0170116,-1.2972919,-0.36870706,-7.4507556,0.038307227
0.32771233,4.714486,4.4392586,-2.0170116,-1.2972919,-0.36870706,-7.4507556,0.038307227
0.32639533,4.7195735,4.389191,-2.0020978,-1.1758517,0.0047884034,-7.2592196,0.37349546
0.32506862,4.7246494,4.389191,-2.0020978,-1.1758517,0.0047884034,-7.2592196,0.37349546
0.32385585,4.729672,4.3306017,-1.9754663,-1.0586727,0.20111294,-6.9767036,0.6895301
0.32263228,4.7346888,4.3306017,-1.9754663,-1.0586727,0.20111294,-6.9767036,0.6895301
0.32151997,4.7396336,4.2613597,-1.9413778,-0.9489504,0.51235914,-6.766014,1.091756
0.32039735,4.7445726,4.2613597,-1.9413778,-0.9489504,0.51235914,-6.766014,1.091756
0.3193788,4.749422,4.1803994,-1.8987672,-0.84561974,0.7326257,-6.483498,1.4269443
0.31835034,4.7542677,4.1803994,-1.8987672,-0.84561974,0.7326257,-6.483498,1.4269443
0.31741625,4.759004,4.085591,-1.8508303,-0.7518765,1.13964,-6.2249246,1.7956513
0.3164727,4.7637367,4.085591,-1.8508303,-0.7518765,1.13964,-6.2249246,1.7956513
0.31561604,4.768346,3.976934,-1.7954365,-0.66772056,1.4987702,-5.947197,2.2266076
0.3147507,4.772951,3.976934,-1.7954365,-0.66772056,1.4987702,-5.947197,2.2266076
0.3139618,4.777418,3.856559,-1.7325859,-0.5952826,1.8148049,-5.4779334,2.633622
0.31316498,4.7818813,3.856559,-1.7325859,-0.5952826,1.8148049,-5.4779334,2.633622
0.31243998,4.786197,3.7170093,-1.6590827,-0.5271057,2.0638018,-5.085284,3.0933087
0.3117112,4.790489,3.7170093,-1.6590827,-0.5271057,2.0638018,-5.085284,3.0933087
0.31105128,4.79461,3.558285,-1.571731,-0.46425506,1.8722657,-4.687847,3.3327289
0.3103893,4.798701,3.558285,-1.571731,-0.46425506,1.8722657,-4.687847,3.3327289
0.30978376,4.802611,3.3803859,-1.483314,-0.40566552,2.4516625,-4.4244847,3.667917
0.30917275,4.8065157,3.3803859,-1.483314,-0.40566552,2.4516625,-4.4244847,3.667917
0.30862218,4.81019,3.1854424,-1.3917013,-0.35133705,3.1411927,-4.10845,4.1611223
0.3080658,4.8138676,3.1854424,-1.3917013,-0.35133705,3.1411927,-4.10845,4.1611223
0.30756688,4.8173003,2.9734547,-1.2862401,-0.3044654,3.2752678,-3.8786068,4.5777135
0.3070633,4.820732,2.9734547,-1.2862401,-0.3044654,3.2752678,-3.8786068,4.5777135
0.30662218,4.823902,2.7465534,-1.1658653,-0.2565285,3.1028855,-3.7205894,4.960786
0.3061775,4.827069,2.7465534,-1.1658653,-0.2565285,3.1028855,-3.7205894,4.960786
0.30579463,4.8299646,2.5068688,-1.0444251,-0.20752634,3.1268275,-3.5625722,5.257667
0.3054096,4.8328514,2.5068688,-1.0444251,-0.20752634,3.1268275,-3.5625722,5.257667
0.3050902,4.835463,2.257597,-0.9240502,-0.15532838,2.9831753,-3.6822822,5.5880666
0.30476826,4.8380737,2.257597,-0.9240502,-0.15532838,2.9831753,-3.6822822,5.5880666
0.30451414,4.840397,2.0061946,-0.80793643,-0.10099989,2.9257145,-3.8259344,5.7987566
0.3042579,4.84272,2.0061946,-0.80793643,-0.10099989,2.9257145,-3.8259344,5.7987566
0.304069,4.8447576,1.7569227,-0.7003447,-0.04454088,3.122039,-4.0797195,5.9998693
0.30387792,4.8468013,1.7569227,-0.7003447,-0.04454088,3.122039,-4.0797195,5.9998693
0.3037561,4.8485713,1.5119119,-0.60020983,0.011918138,3.0358477,-4.132392,6.1100025
0.3036332,4.8503394,1.5119119,-0.60020983,0.011918138,3.0358477,-4.132392,6.1100025
0.3035747,4.851838,1.2711622,-0.50327075,0.06624663,3.3375173,-4.261679,6.2632318
0.30351523,4.853338,1.2711622,-0.50327075,0.06624663,3.3375173,-4.261679,6.2632318
0.30353445,4.8545723,1.032543,-0.4010054,0.12803197,2.8299465,-4.3143516,6.301539
0.30355364,4.8558455,1.032543,-0.4010054,0.12803197,2.8299465,-4.3143516,6.301539
0.3036484,4.856794,0.7917931,-0.30087054,0.19407836,2.695871,-4.9081135,6.397307
0.30374333,4.857748,0.7917931,-0.30087054,0.19407836,2.695871,-4.9081135,6.397307
0.303917,4.858447,0.55423915,-0.20925778,0.26225528,2.906561,-4.9081135,6.3111157
0.30409065,4.8591475,0.55423915,-0.20925778,0.26225528,2.906561,-4.9081135,6.3111157
0.3043576,4.85959,0.3188157,-0.11231872,0.34001958,2.5953147,-4.999093,6.2345014
0.3046244,4.860032,0.3188157,-0.11231872,0.34001958,2.5953147,-4.999093,6.2345014
0.30499265,4.86021,0.082327,-0.0068575335,0.426306,2.2266076,-5.00867,6.172252
0.30536258,4.8603883,0.082327,-0.0068575335,0.426306,2.2266076,-5.00867,6.172252
0.3058412,4.8602996,-0.15522698,0.102864705,0.5211145,2.1691468,-5.080496,6.1626754
0.30632174,4.8602104,-0.15522698,0.102864705,0.5211145,2.1691468,-5.080496,6.1626754
0.3069237,4.8598533,-0.39171568,0.2200438,0.6265757,2.0350714,-5.080496,6.0238113
0.30752492,4.8594966,-0.39171568,0.2200438,0.6265757,2.0350714,-5.080496,6.0238113
0.3082532,4.858872,-0.62926966,0.33828816,0.74055904,1.9057846,-5.1666875,5.8226986
0.30898413,4.858245,-0.62926966,0.33828816,0.74055904,1.9057846,-5.1666875,5.8226986
0.3098483,4.857349,-0.8646931,0.45866305,0.85773814,1.685518,-5.4204726,5.60722
0.3107113,4.856453,-0.8646931,0.45866305,0.85773814,1.685518,-5.4204726,5.60722
0.3117041,4.8552947,-1.0958555,0.5790379,0.9759825,1.508347,-5.6646814,5.3199162
0.31269744,4.8541346,-1.0958555,0.5790379,0.9759825,1.508347,-5.6646814,5.3199162
0.31382668,4.852715,-1.323822,0.69515175,1.0974226,1.1875241,-5.985504,5.142745
0.31495517,4.8512945,-1.323822,0.69515175,1.0974226,1.1875241,-5.985504,5.142745
0.31621668,4.8496227,-1.5432665,0.809135,1.2177975,0.842759,-6.4020953,4.8937483
0.31747717,4.8479495,-1.5432665,0.809135,1.2177975,0.842759,-6.4020953,4.8937483
0.31886864,4.8460336,-1.7563194,0.917792,1.3349766,0.35913026,-6.8522053,4.711789
0.3202546,4.8441215,-1.7563194,0.917792,1.3349766,0.35913026,-6.8522053,4.711789
0.3217772,4.8419714,-1.9555238,1.0189922,1.453221,-0.05746084,-7.2304893,4.4580035
0.32329056,4.8398294,-1.9555238,1.0189922,1.453221,-0.05746084,-7.2304893,4.4580035
0.32494098,4.8374667,-2.1366189,1.1095396,1.5714653,-0.39743748,-7.651869,4.31914
0.32658595,4.835106,-2.1366189,1.1095396,1.5714653,-0.39743748,-7.651869,4.31914
0.32835382,4.832561,-2.2985392,1.1894344,1.6897097,-0.6799533,-8.183381,4.237737
0.33011922,4.830013,-2.2985392,1.1894344,1.6897097,-0.6799533,-8.183381,4.237737
0.3320059,4.827304,-2.4370234,1.2608072,1.8036929,-1.0390835,-8.6095495,4.1706996
0.33388993,4.8245916,-2.4370234,1.2608072,1.8036929,-1.0390835,-8.6095495,4.1706996
0.33588123,4.821752,-2.5510068,1.3257883,1.9134152,-1.3024458,-9.078813,4.0940847
0.33787546,4.8188996,-2.5510068,1.3257883,1.9134152,-1.3024458,-9.078813,4.0940847
0.33997658,4.815939,-2.6383584,1.3843778,2.017811,-1.5179238,-9.461885,4.0318356
0.33997658,4.815939,-2.6383584,1.3843778,2.017811,-1.5179238,-9.461885,4.0318356
0.33997658,4.815939,-2.6383584,1.3843778,2.017811,-1.5179238,-9.461885,4.0318356
0.33997658,4.815939,-2.6383584,1.3843778,2.017811,-1.5179238,-9.461885,4.0318356
0.34979692,4.802634,-2.7395585,1.5132748,2.2074282,-1.8914193,-10.0508585,4.2281604
0.35150567,4.800297,-2.7395585,1.5132748,2.2074282,-1.8914193,-10.0508585,4.2281604
0.35399193,4.7969823,-2.7544723,1.6070181,2.2894535,-2.4277205,-10.381259,4.390966
0.35631382,4.793874,-2.7544723,1.6070181,2.2894535,-2.4277205,-10.381259,4.390966
0.3587715,4.7906466,-2.749146,1.7263278,2.3629568,-2.6862943,-10.539276,3.9983168
0.3611456,4.7875156,-2.749146,1.7263278,2.3629568,-2.6862943,-10.539276,3.9983168
0.36362654,4.7842593,-2.728906,1.8307236,2.4098284,-2.4468741,-10.453085,3.217807
0.3661046,4.7809916,-2.728906,1.8307236,2.4098284,-2.4468741,-10.453085,3.217807
0.36856496,4.777717,-2.7033396,1.892509,2.4183505,-2.1404164,-10.28549,2.5953147
0.37102744,4.7744246,-2.7033396,1.892509,2.4183505,-2.1404164,-10.28549,2.5953147
0.3734373,4.771124,-2.6820343,1.9191406,2.3906536,-2.2409728,-10.19451,1.8435353
0.3759166,4.7677126,-2.6820343,1.9191406,2.3906536,-2.2409728,-10.19451,1.8435353
0.378212,4.7644672,-2.672447,1.9255322,2.343782,-2.6144683,-10.247183,1.4460979
0.3805493,4.761149,-2.672447,1.9255322,2.343782,-2.6144683,-10.247183,1.4460979
0.3828038,4.7578306,-2.6713817,1.9170101,2.2809315,-2.944868,-10.309433,1.1444284
0.38506258,4.7544928,-2.6713817,1.9170101,2.2809315,-2.944868,-10.309433,1.1444284
0.387226,4.75113,-2.6788385,1.8989006,2.2127545,-3.1890767,-10.366894,0.78050977
0.38938752,4.747759,-2.6788385,1.8989006,2.2127545,-3.1890767,-10.366894,0.78050977
0.39147526,4.7443905,-2.689491,1.8690732,2.138186,-3.3279405,-10.429143,0.80924016
0.39355484,4.7410235,-2.689491,1.8690732,2.138186,-3.3279405,-10.429143,0.80924016
0.39554495,4.7376304,-2.701209,1.83605,2.0582912,-3.3758245,-10.419566,0.6607997
0.39753136,4.734233,-2.701209,1.83605,2.0582912,-3.3758245,-10.419566,0.6607997
0.39942163,4.730835,-2.7076006,1.799831,1.9752005,-3.4380736,-10.524911,0.5793968
0.40130806,4.727433,-2.7076006,1.799831,1.9752005,-3.4380736,-10.524911,0.5793968
0.40309906,4.7240443,-2.7065353,1.7593509,1.8899794,-3.6583402,-10.601525,0.46447513
0.40489033,4.7206454,-2.7065353,1.7593509,1.8899794,-3.6583402,-10.601525,0.46447513
0.40657568,4.7172537,-2.6937523,1.7156751,1.8058234,-4.050989,-10.888829,0.22505496
0.40825862,4.7138634,-2.6937523,1.7156751,1.8058234,-4.050989,-10.888829,0.22505496
0.40986896,4.710413,-2.6681857,1.6613466,1.7269939,-4.367024,-11.147403,-0.18674773
0.4114639,4.706971,-2.6681857,1.6613466,1.7269939,-4.367024,-11.147403,-0.18674773
0.41303235,4.703544,-2.6298363,1.5899739,1.6513602,-4.5154643,-11.295844,-0.50757074
0.414586,4.700119,-2.6298363,1.5899739,1.6513602,-4.5154643,-11.295844,-0.50757074
0.4160713,4.696779,-2.5776384,1.5026222,1.5757264,-4.5777135,-11.525687,-0.7517793
0.4175518,4.693423,-2.5776384,1.5026222,1.5757264,-4.5777135,-11.525687,-0.7517793
0.41896507,4.690177,-2.5105267,1.3992915,1.5011579,-4.6591167,-11.640609,-0.9528923
0.4203692,4.686928,-2.5105267,1.3992915,1.5011579,-4.6591167,-11.640609,-0.9528923
0.4216989,4.683816,-2.4253056,1.2874388,1.4351114,-4.711789,-11.870452,-1.0103531
0.4230175,4.680708,-2.4253056,1.2874388,1.4351114,-4.711789,-11.870452,-1.0103531
0.42427844,4.6777325,-2.3241055,1.175586,1.3743913,-4.8027687,-12.023681,-0.9959879
0.42553082,4.6747565,-2.3241055,1.175586,1.3743913,-4.8027687,-12.023681,-0.9959879
0.42668515,4.6719913,-2.205861,1.062668,1.3189976,-4.759673,-12.248735,-0.7565677
0.42783266,4.669228,-2.205861,1.062668,1.3189976,-4.759673,-12.248735,-0.7565677
0.42891997,4.6666727,-2.0684419,0.95188046,1.2667997,-4.783615,-12.349293,-0.6751649
0.430003,4.6641207,-2.0684419,0.95188046,1.2667997,-4.783615,-12.349293,-0.6751649
0.4310407,4.6617727,-1.9129133,0.84428877,1.2188628,-4.6782703,-12.464214,-0.7278373
0.43207645,4.6594253,-1.9129133,0.84428877,1.2188628,-4.6782703,-12.464214,-0.7278373
0.43307468,4.6572795,-1.7467321,0.7452192,1.1773175,-4.5202527,-12.401965,-0.8810662
0.43408978,4.655093,-1.7467321,0.7452192,1.1773175,-4.5202527,-12.401965,-0.8810662
0.4350462,4.653166,-1.573094,0.6536064,1.1368374,-4.4963107,-12.354081,-1.115698
0.43601117,4.6512165,-1.573094,0.6536064,1.1368374,-4.4963107,-12.354081,-1.115698
0.4369644,4.6494465,-1.4005212,0.56945056,1.0984879,-4.4484267,-12.172121,-1.4173675
0.43791345,4.647679,-1.4005212,0.56945056,1.0984879,-4.4484267,-12.172121,-1.4173675
0.43883893,4.646104,-1.2332746,0.49062097,1.0580078,-4.3766007,-11.9853735,-1.6519991
0.4397637,4.6445255,-1.2332746,0.49062097,1.0580078,-4.3766007,-11.9853735,-1.6519991
0.44065088,4.6431403,-1.0756154,0.41392192,1.0143319,-4.2185836,-11.956643,-1.8339585
0.44153622,4.6417546,-1.0756154,0.41392192,1.0143319,-4.2185836,-11.956643,-1.8339585
0.4424144,4.6405325,-0.9275437,0.33828816,0.9653298,-4.367024,-11.3964,-2.3127987
0.4432894,4.6393123,-0.9275437,0.33828816,0.9653298,-4.367024,-11.3964,-2.3127987
0.44412252,4.638252,-0.7954509,0.26691544,0.9110013,-4.1276035,-11.089942,-2.6240451
0.4449529,4.6371927,-0.7954509,0.26691544,0.9110013,-4.1276035,-11.089942,-2.6240451
0.4456935,4.636301,-0.6814676,0.19447745,0.85028124,-3.8594532,-11.736377,-2.2697031
0.44643626,4.6354055,-0.6814676,0.19447745,0.85028124,-3.8594532,-11.736377,-2.2697031
0.44713458,4.6346354,-0.5760064,0.13162684,0.79062647,-3.8546648,-11.918336,-2.3127987
0.4478117,4.633888,-0.5760064,0.13162684,0.79062647,-3.8546648,-11.918336,-2.3127987
0.4484585,4.633258,-0.47161052,0.07836362,0.7288411,-4.3047748,-11.659762,-2.695871
0.449109,4.6326237,-0.47161052,0.07836362,0.7288411,-4.3047748,-11.659762,-2.695871
0.44977182,4.632089,-0.3789325,0.029361458,0.66812104,-5.57849,-11.434708,-3.0933087
0.45043352,4.631555,-0.3789325,0.029361458,0.66812104,-5.57849,-11.434708,-3.0933087
0.45103717,4.631135,-0.30010295,-0.03881547,0.60740095,-5.3725886,-11.123461,-3.1316159
0.45164064,4.630714,-0.30010295,-0.03881547,0.60740095,-5.3725886,-11.123461,-3.1316159
0.45216087,4.6304026,-0.2351218,-0.11764504,0.5477462,-4.5394063,-10.85531,-3.0597897
0.45268187,4.63009,-0.2351218,-0.11764504,0.5477462,-4.5394063,-10.85531,-3.0597897
0.4531565,4.629856,-0.1871849,-0.17836511,0.4891566,-4.501099,-10.43872,-3.1651347
0.45363095,4.629622,-0.1871849,-0.17836511,0.4891566,-4.501099,-10.43872,-3.1651347
0.45398092,4.6294603,-0.15522698,-0.21351884,0.41991442,-3.2561142,-10.582372,-2.6192567
0.45433074,4.629299,-0.15522698,-0.21351884,0.41991442,-3.2561142,-10.582372,-2.6192567
0.45462433,4.629153,-0.13285641,-0.20925778,0.34747645,-3.4763808,-10.405201,-2.873042
0.45491785,4.629006,-0.13285641,-0.20925778,0.34747645,-3.4763808,-10.405201,-2.873042
0.45517844,4.628843,-0.11900798,-0.17090826,0.27184266,-4.050989,-9.481039,-3.514688
0.45543876,4.6286793,-0.11900798,-0.17090826,0.27184266,-4.050989,-9.481039,-3.514688
0.4556355,4.6284776,-0.12646483,-0.10486186,0.1962089,-4.223372,-8.805874,-3.6727054
0.45583248,4.628275,-0.12646483,-0.10486186,0.1962089,-4.223372,-8.805874,-3.6727054
0.45591426,4.6280146,-0.15522698,-0.031358615,0.11418352,-3.217807,-8.331821,-3.3806129
0.4559958,4.627754,-0.15522698,-0.031358615,0.11418352,-3.217807,-8.331821,-3.3806129
0.45593205,4.6274366,-0.19464175,0.035753045,0.010852873,-2.0398598,-8.1642275,-3.1747115
0.45586812,4.627118,-0.19464175,0.035753045,0.010852873,-2.0398598,-8.1642275,-3.1747115
0.45566577,4.6267276,-0.23938286,0.11351735,-0.11271781,-1.7908629,-8.049306,-2.9879637
0.45546338,4.626337,-0.23938286,0.11351735,-0.11271781,-1.7908629,-8.049306,-2.9879637
0.45510918,4.625864,-0.28518924,0.2051301,-0.25226745,-1.8243817,-7.785944,-2.60968
0.45475498,4.625393,-0.28518924,0.2051301,-0.25226745,-1.8243817,-7.785944,-2.60968
0.45423442,4.624845,-0.32993034,0.29674283,-0.403535,-1.7812861,-7.445967,-2.1787236
0.45371255,4.624297,-0.32993034,0.29674283,-0.403535,-1.7812861,-7.445967,-2.1787236
0.4530144,4.6236806,-0.37467146,0.39048612,-0.5569331,-1.8722657,-7.2448545,-1.6089035
0.45231587,4.6230655,-0.37467146,0.39048612,-0.5569331,-1.8722657,-7.2448545,-1.6089035
0.4514385,4.6223984,-0.4236736,0.49062097,-0.70180905,-1.5753847,-7.2592196,-1.091756
0.45056072,4.6217318,-0.4236736,0.49062097,-0.70180905,-1.5753847,-7.2592196,-1.091756
0.44952786,4.620991,-0.47693685,0.59821266,-0.842424,-1.4748282,-7.2209125,-0.81402856
0.44849476,4.6202517,-0.47693685,0.59821266,-0.842424,-1.4748282,-7.2209125,-0.81402856
0.44732398,4.61938,-0.541918,0.71326125,-0.97238624,-1.2976574,-7.0964136,-1.0582372
0.44615263,4.6185102,-0.541918,0.71326125,-0.97238624,-1.2976574,-7.0964136,-1.0582372
0.44487318,4.6174693,-0.6250086,0.83257085,-1.0895653,-1.3934253,-7.0581064,-1.661576
0.44359416,4.616431,-0.6250086,0.83257085,-1.0895653,-1.3934253,-7.0581064,-1.661576
0.44221953,4.615207,-0.73473084,0.9572068,-1.192896,-1.5466543,-7.038953,-2.1691468
0.4408453,4.613987,-0.73473084,0.9572068,-1.192896,-1.5466543,-7.038953,-2.1691468
0.4393864,4.612568,-0.8732152,1.0839733,-1.2749213,-1.6663644,-7.086837,-2.4037786
0.43792608,4.6111517,-0.8732152,1.0839733,-1.2749213,-1.6663644,-7.086837,-2.4037786
0.43639183,4.6095223,-1.0340701,1.2139355,-1.3324456,-1.8243817,-7.240066,-2.255338
0.4348557,4.607896,-1.0340701,1.2139355,-1.3324456,-1.8243817,-7.240066,-2.255338
0.4332634,4.6060452,-1.210904,1.3364409,-1.3697299,-1.9632454,-7.3406224,-2.0446482
0.4316686,4.6041985,-1.210904,1.3364409,-1.3697299,-1.9632454,-7.3406224,-2.0446482
0.43003538,4.602124,-1.39626,1.4525548,-1.3867741,-2.0446482,-7.359776,-1.8291701
0.428399,4.600054,-1.39626,1.4525548,-1.3867741,-2.0446482,-7.359776,-1.8291701
0.42674842,4.597754,-1.5837466,1.5665381,-1.378252,-2.0254946,-7.302315,-1.6807296
0.42509246,4.595457,-1.5837466,1.5665381,-1.378252,-2.0254946,-7.302315,-1.6807296
0.42345098,4.592942,-1.7712332,1.6783909,-1.3505551,-1.9009962,-7.1873937,-1.6376339
0.42179358,4.590415,-1.7712332,1.6783909,-1.3505551,-1.9009962,-7.1873937,-1.6376339
0.42016172,4.5876675,-1.959785,1.7870479,-1.305814,-1.7381904,-7.1251445,-1.5993267
0.41852486,4.5849257,-1.959785,1.7870479,-1.305814,-1.7381904,-7.1251445,-1.5993267
0.41692254,4.5819564,-2.1472714,1.8903785,-1.249355,-1.5370775,-7.038953,-1.6136919
0.41531444,4.578994,-2.1472714,1.8903785,-1.249355,-1.5370775,-7.038953,-1.6136919
0.41374624,4.5758142,-2.3326275,1.9873176,-1.1843739,-1.4796166,-7.0581064,-1.5179238
0.41217145,4.5726414,-2.3326275,1.9873176,-1.1843739,-1.4796166,-7.0581064,-1.5179238
0.4106442,4.5692596,-2.5126572,2.0746691,-1.1140664,-1.3934253,-7.101202,-1.4748282
0.40910983,4.5658846,-2.5126572,2.0746691,-1.1140664,-1.3934253,-7.101202,-1.4748282
0.40762958,4.562306,-2.6873605,2.153499,-1.0394979,-1.3742718,-7.144298,-1.4700398
0.40614167,4.5587344,-2.6873605,2.153499,-1.0394979,-1.3742718,-7.144298,-1.4700398
0.4047106,4.5549645,-2.8599334,2.2248714,-0.9596031,-1.4556746,-7.1969705,-1.3982137
0.40327552,4.551214,-2.8599334,2.2248714,-0.9596031,-1.4556746,-7.1969705,-1.3982137
0.40190005,4.54727,-3.0239842,2.2855916,-0.87544715,-1.4030021,-7.3310456,-1.3694834
0.4005186,4.543342,-3.0239842,2.2855916,-0.87544715,-1.4030021,-7.3310456,-1.3694834
0.39920533,4.5392284,-3.1827085,2.3367243,-0.78596497,-1.4939818,-7.4746976,-1.388637
0.39788562,4.535131,-3.1827085,2.3367243,-0.78596497,-1.4939818,-7.4746976,-1.388637
0.39663756,4.530864,-3.3361065,2.3761392,-0.69541746,-1.5993267,-7.627927,-1.3934253
0.39538,4.5266047,-3.3361065,2.3761392,-0.69541746,-1.5993267,-7.627927,-1.3934253
0.39420292,4.5221972,-3.4863088,2.4059665,-0.60060894,-1.6328455,-7.872135,-1.2976574
0.39301682,4.5177984,-3.4863088,2.4059665,-0.60060894,-1.6328455,-7.872135,-1.2976574
0.39190882,4.513235,-3.6290543,2.4294024,-0.50366986,-1.6903064,-8.010999,-1.3599066
0.39079583,4.5086985,-3.6290543,2.4294024,-0.50366986,-1.6903064,-8.010999,-1.3599066
0.38976625,4.504011,-3.764343,2.4453812,-0.403535,-1.7381904,-8.145074,-1.3838485
0.38872507,4.4993224,-3.764343,2.4453812,-0.403535,-1.7381904,-8.145074,-1.3838485
0.3877769,4.4945145,-3.8943052,2.4539034,-0.29913908,-1.7142484,-8.279149,-1.4413095
0.3868154,4.489695,-3.8943052,2.4539034,-0.29913908,-1.7142484,-8.279149,-1.4413095
0.38594308,4.484758,-4.0168104,2.4570992,-0.19793896,-1.7525556,-8.418014,-1.4891934
0.38506272,4.4798374,-4.0168104,2.4570992,-0.19793896,-1.7525556,-8.418014,-1.4891934
0.38426685,4.474781,-4.129729,2.4549687,-0.09673884,-1.7286136,-8.5473,-1.5275006
0.38346258,4.469741,-4.129729,2.4549687,-0.09673884,-1.7286136,-8.5473,-1.5275006
0.3827453,4.464606,-4.2330594,2.448577,0.0012654932,-1.6472107,-8.714894,-1.5514427
0.3827453,4.464606,-4.2330594,2.448577,0.0012654932,-1.6472107,-8.714894,-1.5514427
0.3814768,4.4542723,-4.3257375,2.4379244,0.09181297,-1.7381904,-8.959103,-1.5610195
0.38077712,4.4487147,-4.3257375,2.4379244,0.09181297,-1.7381904,-8.959103,-1.5610195
0.38021028,4.443571,-4.405632,2.4219453,0.17703412,-1.9153614,-9.217676,-1.7142484
0.37953216,4.437537,-4.405632,2.4219453,0.17703412,-1.9153614,-9.217676,-1.7142484
0.37903833,4.4325147,-4.472744,2.3974442,0.25479844,-2.135628,-9.437943,-1.8770541
0.37852597,4.4274006,-4.472744,2.3974442,0.25479844,-2.135628,-9.437943,-1.8770541
0.37852597,4.4274006,-4.472744,2.3974442,0.25479844,-2.135628,-9.437943,-1.8770541
0.3775922,4.416637,-4.5281377,2.3622906,0.32617116,-2.3558946,-9.80665,-1.910573
0.3771712,4.4109135,-4.5675526,2.3132885,0.39221755,-2.6144683,-10.141838,-1.9440918
0.3771712,4.4109135,-4.5675526,2.3132885,0.39221755,-2.6144683,-10.141838,-1.9440918
0.37643233,4.4005756,-4.586727,2.2483072,0.4508071,-2.7868507,-10.46745,-1.9776106
0.37608466,4.395156,-4.586727,2.2483072,0.4508071,-2.7868507,-10.46745,-1.9776106
0.3757941,4.3897934,-4.5845966,2.1652167,0.5008745,-2.777274,-10.726024,-2.15957
0.37540334,4.3828435,-4.5845966,2.1652167,0.5008745,-2.777274,-10.726024,-2.15957
0.3752251,4.3791256,-4.5600953,2.070408,0.539224,-2.7581203,-10.922348,-2.408567
0.3749282,4.3731327,-4.5600953,2.070408,0.539224,-2.7581203,-10.922348,-2.408567
0.37472942,4.368405,-4.5132236,1.9681427,0.56479037,-2.8395233,-11.09473,-2.6192567
0.3744858,4.362815,-4.5132236,1.9681427,0.56479037,-2.8395233,-11.09473,-2.6192567
0.37431157,4.358078,-4.4439816,1.8584205,0.5797041,-2.9017725,-11.252748,-2.7724855
0.37411952,4.353046,-4.4439816,1.8584205,0.5797041,-2.9017725,-11.252748,-2.7724855
0.37395263,4.3480854,-4.352369,1.7486982,0.5839651,-2.920926,-11.473015,-2.9831753
0.37377718,4.3430667,-4.352369,1.7486982,0.5839651,-2.920926,-11.473015,-2.9831753
0.37362552,4.338224,-4.240516,1.6389761,0.5797041,-2.9352913,-11.7268,-3.1651347
0.37346804,4.333383,-4.240516,1.6389761,0.5797041,-2.9352913,-11.7268,-3.1651347
0.37333408,4.3287373,-4.1105537,1.5271233,0.56479037,-3.0454245,-11.81778,-3.2225955
0.373194,4.32406,-4.1105537,1.5271233,0.56479037,-3.0454245,-11.81778,-3.2225955
0.37305838,4.319599,-3.9624822,1.4142052,0.5381588,-3.0119057,-11.827356,-3.4284968
0.3729173,4.315109,-3.9624822,1.4142052,0.5381588,-3.0119057,-11.827356,-3.4284968
0.372778,4.3108673,-3.7952356,1.2991567,0.49980927,-3.0310593,-11.899182,-3.5529952
0.37263408,4.306597,-3.7952356,1.2991567,0.49980927,-3.0310593,-11.899182,-3.5529952
0.3724803,4.3025737,-3.607749,1.1862386,0.4508071,-2.9017725,-11.860875,-3.620033
0.37232327,4.2985473,-3.607749,1.1862386,0.4508071,-2.9017725,-11.860875,-3.620033
0.37215716,4.294798,-3.397892,1.0786469,0.3964786,-2.9735985,-11.947066,-3.7014358
0.37198716,4.2910204,-3.397892,1.0786469,0.3964786,-2.9735985,-11.947066,-3.7014358
0.37179837,4.287552,-3.1635337,0.9785121,0.33469325,-3.0502129,-12.052411,-3.8355112
0.3716062,4.2840567,-3.1635337,0.9785121,0.33469325,-3.0502129,-12.052411,-3.8355112
0.37138492,4.2808814,-2.9036093,0.8826383,0.26651633,-3.0454245,-12.200851,-4.0174704
0.371162,4.2777014,-2.9036093,0.8826383,0.26651633,-3.0454245,-12.200851,-4.0174704
0.37090224,4.2748537,-2.6223795,0.7867645,0.1930131,-3.064578,-12.253524,-4.3047748
0.37064052,4.271994,-2.6223795,0.7867645,0.1930131,-3.064578,-12.253524,-4.3047748
0.3703449,4.269495,-2.3209095,0.68662965,0.11524879,-3.040636,-12.397177,-4.510676
0.3700466,4.266978,-2.3209095,0.68662965,0.11524879,-3.040636,-12.397177,-4.510676
0.36971337,4.2648344,-2.0023956,0.58436424,0.033223428,-3.0262709,-12.483368,-4.6830587
0.36937982,4.2626905,-2.0023956,0.58436424,0.033223428,-3.0262709,-12.483368,-4.6830587
0.3690144,4.2609425,-1.665772,0.4810336,-0.053062994,-3.016694,-12.497733,-4.697424
0.36864716,4.259185,-1.665772,0.4810336,-0.053062994,-3.016694,-12.497733,-4.697424
0.36825028,4.25784,-1.3163652,0.37663767,-0.14147994,-3.193865,-12.540829,-4.76925
0.36785147,4.2564883,-1.3163652,0.37663767,-0.14147994,-3.193865,-12.540829,-4.76925
0.367424,4.2555566,-0.95630586,0.27437228,-0.23096216,-3.3039982,-12.5743475,-4.735731
0.3669962,4.254624,-0.95630586,0.27437228,-0.23096216,-3.3039982,-12.5743475,-4.735731
0.36653858,4.254115,-0.5855938,0.17210689,-0.31724858,-3.3279405,-12.588713,-4.7644615
0.3660778,4.253603,-0.5855938,0.17210689,-0.31724858,-3.3279405,-12.588713,-4.7644615
0.36558858,4.253516,-0.2084902,0.06771098,-0.39927393,-3.2992098,-12.617443,-4.879383
0.3650958,4.2534285,-0.2084902,0.06771098,-0.39927393,-3.2992098,-12.617443,-4.879383
0.36457145,4.2537622,0.17074396,-0.033489145,-0.47916877,-3.1555579,-12.512098,-4.951209
0.36404592,4.2540965,0.17074396,-0.033489145,-0.47916877,-3.1555579,-12.512098,-4.951209
0.363485,4.2548428,0.54784757,-0.13255873,-0.5611941,-2.8874073,-12.315774,-4.984728
0.3629192,4.2555933,0.54784757,-0.13255873,-0.5611941,-2.8874073,-12.315774,-4.984728
0.36231998,4.2567496,0.9206901,-0.23056307,-0.64535004,-2.681506,-12.018892,-4.960786
0.36171493,4.2579136,0.9206901,-0.23056307,-0.64535004,-2.681506,-12.018892,-4.960786
0.36108464,4.259486,1.2882063,-0.32963267,-0.7305712,-2.5187001,-11.827356,-4.7165775
0.36044845,4.2610683,1.2882063,-0.32963267,-0.7305712,-2.5187001,-11.827356,-4.7165775
0.35977495,4.2630563,1.6514616,-0.42550647,-0.8200534,-2.504335,-11.530476,-4.5777135
0.35909915,4.2650423,1.6514616,-0.42550647,-0.8200534,-2.504335,-11.530476,-4.5777135
0.3583824,4.2674303,2.0072598,-0.52244556,-0.9148619,-2.5809495,-11.21444,-4.414908
0.3576596,4.2698255,2.0072598,-0.52244556,-0.9148619,-2.5809495,-11.21444,-4.414908
0.35689762,4.272606,2.3566666,-0.6247109,-1.0096705,-2.4372973,-10.970232,-4.2281604
0.35612693,4.275401,2.3566666,-0.6247109,-1.0096705,-2.4372973,-10.970232,-4.2281604
0.35531113,4.2785683,2.692225,-0.72910684,-1.104479,-2.4420857,-10.721235,-4.189853
0.3544921,4.281725,2.692225,-0.72910684,-1.104479,-2.4420857,-10.721235,-4.189853
0.35363004,4.2852526,3.010739,-0.8377638,-1.197157,-2.3989902,-10.443508,-4.0414124
0.3527584,4.2887907,3.010739,-0.8377638,-1.197157,-2.3989902,-10.443508,-4.0414124
0.35185328,4.2926545,3.3090131,-0.95068187,-1.2866392,-2.2840683,-10.151415,-3.8498764
0.35093477,4.296541,3.3090131,-0.95068187,-1.2866392,-2.2840683,-10.151415,-3.8498764
0.34998542,4.3007174,3.5838513,-1.0646651,-1.3718604,-2.2122424,-9.840169,-3.7014358
0.3490204,4.304921,3.5838513,-1.0646651,-1.3718604,-2.2122424,-9.840169,-3.7014358
0.34802192,4.3094025,3.8352537,-1.1797137,-1.4517552,-2.15957,-9.591172,-3.6248214
0.3470144,4.3138766,3.8352537,-1.1797137,-1.4517552,-2.15957,-9.591172,-3.6248214
0.34597924,4.318606,4.065351,-1.2947623,-1.5252584,-2.054225,-9.394848,-3.5098996
0.34492573,4.323365,4.065351,-1.2947623,-1.5252584,-2.054225,-9.394848,-3.5098996
0.34384772,4.32833,4.2741427,-1.4076803,-1.5945007,-1.9728222,-9.232041,-3.4859576
0.34274587,4.3333454,4.2741427,-1.4076803,-1.5945007,-1.9728222,-9.232041,-3.4859576
0.34163728,4.3385224,4.46376,-1.5174025,-1.6552207,-1.8579005,-9.030929,-3.2609026
0.34050333,4.3437533,4.46376,-1.5174025,-1.6552207,-1.8579005,-9.030929,-3.2609026
0.33935526,4.3491435,4.6320715,-1.623929,-1.7084839,-1.7381904,-8.820239,-3.1651347
0.33819345,4.35453,4.6320715,-1.623929,-1.7084839,-1.7381904,-8.820239,-3.1651347
0.33701518,4.36009,4.782274,-1.7229986,-1.7510946,-1.7908629,-8.599973,-3.0789435
0.3358202,4.365657,4.782274,-1.7229986,-1.7510946,-1.7908629,-8.599973,-3.0789435
0.33459103,4.3714757,4.9143667,-1.8156766,-1.7841177,-1.9249382,-8.418014,-3.0693667
0.33337966,4.377139,4.9143667,-1.8156766,-1.7841177,-1.9249382,-8.418014,-3.0693667
0.33216217,4.382943,5.025154,-1.9030282,-1.805423,-1.6089035,-8.1402855,-3.0597897
0.33093378,4.3887305,5.025154,-1.9030282,-1.805423,-1.6089035,-8.1402855,-3.0597897
0.32970357,4.3946486,5.116767,-1.9797273,-1.8160757,-1.5131354,-8.025364,-3.0933087
0.3284613,4.4005566,5.116767,-1.9797273,-1.8160757,-1.5131354,-8.025364,-3.0933087
0.32722822,4.4065475,5.1892047,-2.0479043,-1.8139452,-1.436521,-7.9343843,-3.016694
0.32598028,4.4125404,5.1892047,-2.0479043,-1.8139452,-1.436521,-7.9343843,-3.016694
0.3247489,4.4185877,5.246729,-2.107559,-1.8032925,-1.2593501,-7.690176,-2.9592333
0.32350233,4.424638,5.246729,-2.107559,-1.8032925,-1.2593501,-7.690176,-2.9592333
0.3222765,4.430726,5.286144,-2.1565611,-1.7830524,-1.1492168,-7.4603324,-2.8874073
0.32104117,4.4367876,5.286144,-2.1565611,-1.7830524,-1.1492168,-7.4603324,-2.8874073
0.3198177,4.442912,5.3085146,-2.1970413,-1.7542903,-0.90021986,-7.326257,-2.7820623
0.31858447,4.449009,5.3085146,-2.1970413,-1.7542903,-0.90021986,-7.326257,-2.7820623
0.31737092,4.45513,5.314906,-2.2268686,-1.7191366,-0.7661445,-7.2783732,-2.681506
0.31614378,4.461242,5.314906,-2.2268686,-1.7191366,-0.7661445,-7.2783732,-2.681506
0.31494245,4.467346,5.3117104,-2.248174,-1.6775913,-0.6703765,-7.1873937,-2.4660277
0.31372735,4.473441,5.3117104,-2.248174,-1.6775913,-0.6703765,-7.1873937,-2.4660277
0.3125354,4.4795384,5.295731,-2.2598917,-1.6317849,-0.6512229,-7.240066,-2.2649148
0.31132704,4.4856386,5.295731,-2.2598917,-1.6317849,-0.6512229,-7.240066,-2.2649148
0.31015664,4.4916945,5.27123,-2.2620225,-1.5763912,-0.78050977,-7.445967,-1.9919758
0.30896965,4.4977527,5.27123,-2.2620225,-1.5763912,-0.78050977,-7.445967,-1.9919758
0.30782667,4.50379,5.238207,-2.2545655,-1.5103447,-0.90500826,-7.6231384,-1.70946
0.30666748,4.509823,5.238207,-2.2545655,-1.5103447,-0.90500826,-7.6231384,-1.70946
0.30556792,4.5158167,5.2009225,-2.2417824,-1.4357762,-0.93852705,-7.8146744,-1.4508862
0.30445164,4.5218067,5.2009225,-2.2417824,-1.4357762,-0.93852705,-7.8146744,-1.4508862
0.30341163,4.527761,5.1593776,-2.2268686,-1.3505551,-0.9672575,-8.010999,-1.1444284
0.30235106,4.5337305,5.1593776,-2.2268686,-1.3505551,-0.9672575,-8.010999,-1.1444284
0.30136514,4.5397267,5.1146364,-2.208759,-1.2546813,-0.9816227,-8.135497,-0.90979666
0.30034363,4.545827,5.1146364,-2.208759,-1.2546813,-0.9816227,-8.135497,-0.90979666
0.30034363,4.545827,5.1146364,-2.208759,-1.2546813,-0.9816227,-8.135497,-0.90979666
0.29857725,4.557192,5.0666995,-2.1895845,-1.156677,-0.90021986,-8.259995,-0.6895301
0.29776257,4.5629444,5.015567,-2.1704097,-1.0554769,-1.0342951,-8.288726,-0.45968673
0.29692987,4.5687094,5.015567,-2.1704097,-1.0554769,-1.0342951,-8.288726,-0.45968673
0.296199,4.5744343,4.9612384,-2.1491044,-0.95001566,-0.9720459,-8.312668,-0.06703765
0.29545337,4.580155,4.9612384,-2.1491044,-0.95001566,-0.9720459,-8.312668,-0.06703765
0.29479888,4.5858054,4.904779,-2.1246033,-0.8434892,-0.89543146,-8.327033,0.05746084
0.29413065,4.591447,4.904779,-2.1246033,-0.8434892,-0.89543146,-8.327033,0.05746084
0.29355925,4.59702,4.8429937,-2.0958412,-0.73802805,-0.7230489,-8.279149,0.40701428
0.29297355,4.602597,4.8429937,-2.0958412,-0.73802805,-0.7230489,-8.279149,0.40701428
0.29247513,4.6080823,4.7726865,-2.062818,-0.6378932,-0.40701428,-8.135497,0.7182605
0.29196423,4.6135592,4.7726865,-2.062818,-0.6378932,-0.40701428,-8.135497,0.7182605
0.291536,4.618942,4.6895957,-2.022338,-0.53988886,-0.16280572,-7.9631147,0.92895025
0.29109445,4.6243324,4.6895957,-2.022338,-0.53988886,-0.16280572,-7.9631147,0.92895025
0.29072893,4.6295924,4.590526,-1.97014,-0.4482761,-0.033518825,-7.666234,0.9864111
0.29035163,4.6348505,4.590526,-1.97014,-0.4482761,-0.033518825,-7.666234,0.9864111
0.29004997,4.6399693,4.476543,-1.9072893,-0.36198968,0.11971009,-7.398083,1.2210429
0.289737,4.645092,4.476543,-1.9072893,-0.36198968,0.11971009,-7.398083,1.2210429
0.28949088,4.650051,4.340189,-1.829525,-0.28102958,0.33039984,-7.0245876,1.3551182
0.28923434,4.655015,4.340189,-1.829525,-0.28102958,0.33039984,-7.0245876,1.3551182
0.28903604,4.659789,4.1814647,-1.7389776,-0.20965686,0.641646,-6.6893997,1.5466543
0.28882682,4.6646004,4.1814647,-1.7389776,-0.20965686,0.641646,-6.6893997,1.5466543
0.28867576,4.669123,4.0003695,-1.6335163,-0.14467573,0.91937345,-6.363788,1.8052281
0.28851554,4.6736727,4.0003695,-1.6335163,-0.14467573,0.91937345,-6.363788,1.8052281
0.28840274,4.6779857,3.796904,-1.511011,-0.08928198,1.1779473,-5.9807158,2.0638018
0.2882827,4.6822987,3.796904,-1.511011,-0.08928198,1.1779473,-5.9807158,2.0638018
0.28820172,4.6863422,3.5689375,-1.3757224,-0.04241035,1.3359646,-5.6790466,2.2170308
0.2881146,4.6903863,3.5689375,-1.3757224,-0.04241035,1.3359646,-5.6790466,2.2170308
0.28806236,4.694133,3.3154047,-1.2233895,-0.004060829,1.3790601,-5.482722,2.456451
0.28800508,4.697879,3.3154047,-1.2233895,-0.004060829,1.3790601,-5.482722,2.456451
0.2879769,4.7012987,3.0363054,-1.0593388,0.02683184,1.3024458,-5.267244,2.6001031
0.2879769,4.7012987,3.0363054,-1.0593388,0.02683184,1.3024458,-5.267244,2.6001031
0.2879769,4.7012987,3.0363054,-1.0593388,0.02683184,1.3024458,-5.267244,2.6001031
0.2879769,4.7012987,3.0363054,-1.0593388,0.02683184,1.3024458,-5.267244,2.6001031
0.2878679,4.715333,2.4077992,-0.69501835,0.08329086,0.9720459,-5.1762643,2.858677
0.2878829,4.7173386,2.4077992,-0.69501835,0.08329086,0.9720459,-5.1762643,2.858677
0.28793618,4.719684,2.064784,-0.50114024,0.11418352,0.9816227,-5.1523223,2.9496565
0.2879858,4.721929,2.064784,-0.50114024,0.11418352,0.9816227,-5.1523223,2.9496565
0.28806984,4.72384,1.70579,-0.29874,0.14401093,1.0007763,-5.080496,3.0071173
0.28814775,4.725624,1.70579,-0.29874,0.14401093,1.0007763,-5.080496,3.0071173
0.28826064,4.727047,1.3329475,-0.08994816,0.17383833,1.1013328,-4.951209,3.0597897
0.28837413,4.7284813,1.3329475,-0.08994816,0.17383833,1.1013328,-4.951209,3.0597897
0.28851908,4.7294703,0.95264804,0.12417,0.20260048,1.2162545,-4.8027687,3.0789435
0.28866398,4.730459,0.95264804,0.12417,0.20260048,1.2162545,-4.8027687,3.0789435
0.2888376,4.730996,0.5648918,0.3425492,0.22816682,1.3838485,-4.5633483,3.0502129
0.2890111,4.731532,0.5648918,0.3425492,0.22816682,1.3838485,-4.5633483,3.0502129
0.28921473,4.731601,0.16541763,0.56732,0.2526679,1.4269443,-4.31914,3.0550013
0.28941917,4.7316704,0.16541763,0.56732,0.2526679,1.4269443,-4.31914,3.0550013
0.28965458,4.731267,-0.24257866,0.7931561,0.27929953,1.2737153,-4.175488,2.9783869
0.28989065,4.730862,-0.24257866,0.7931561,0.27929953,1.2737153,-4.175488,2.9783869
0.29015222,4.7299757,-0.6580318,1.0126005,0.30060482,1.3742718,-4.19943,3.1268275
0.2904335,4.729018,-0.6580318,1.0126005,0.30060482,1.3742718,-4.19943,3.1268275
0.2906966,4.727756,-1.0766808,1.2235229,0.32191008,1.4317327,-4.1611223,3.2273839
0.2909804,4.726386,-1.0766808,1.2235229,0.32191008,1.4317327,-4.1611223,3.2273839
0.29128754,4.724538,-1.4974601,1.429119,0.34001958,1.2210429,-4.2760444,3.3997664
0.29159242,4.722687,-1.4974601,1.429119,0.34001958,1.2210429,-4.2760444,3.3997664
0.2919257,4.72036,-1.9182396,1.6240623,0.36132488,0.770933,-4.5058875,3.6056678
0.2922553,4.718032,-1.9182396,1.6240623,0.36132488,0.770933,-4.5058875,3.6056678
0.2926178,4.7152348,-2.3368886,1.8019615,0.3911523,0.29688102,-5.00867,3.7684734
0.29297572,4.712436,-2.3368886,1.8019615,0.3911523,0.29688102,-5.00867,3.7684734
0.2933783,4.709159,-2.744885,1.9574901,0.43163234,-0.25378537,-5.6982,3.916914
0.29376796,4.705936,-2.744885,1.9574901,0.43163234,-0.25378537,-5.6982,3.916914
0.2942083,4.7022533,-3.1390326,2.089583,0.48489556,-0.641646,-6.5122285,3.8833952
0.29464194,4.6985626,-3.1390326,2.089583,0.48489556,-0.641646,-6.5122285,3.8833952
0.29512906,4.6944666,-3.5150712,2.1929135,0.54881144,-0.8714894,-7.2352777,3.8163576
0.2956072,4.690369,-3.5150712,2.1929135,0.54881144,-0.8714894,-7.2352777,3.8163576
0.29614308,4.685893,-3.868739,2.2685473,0.6212494,-0.9528923,-7.8769236,3.6487634
0.29666916,4.6814146,-3.868739,2.2685473,0.6212494,-0.9528923,-7.8769236,3.6487634
0.29725844,4.6765957,-4.195775,2.3218105,0.70007896,-1.1252748,-8.446744,3.3327289
0.29783797,4.6717644,-4.195775,2.3218105,0.70007896,-1.1252748,-8.446744,3.3327289
0.29848635,4.6666155,-4.4951143,2.355899,0.7821043,-1.3503298,-8.911219,3.0454245
0.29912156,4.661474,-4.4951143,2.355899,0.7821043,-1.3503298,-8.911219,3.0454245
0.29982215,4.656062,-4.7624955,2.3708127,0.865195,-1.3838485,-9.184157,2.777274
0.30051145,4.650636,-4.7624955,2.3708127,0.865195,-1.3838485,-9.184157,2.777274
0.3012686,4.6449747,-4.997919,2.371878,0.9514814,-1.4077905,-9.414001,2.4660277
0.30201325,4.639304,-4.997919,2.371878,0.9514814,-1.4077905,-9.414001,2.4660277
0.3028269,4.6334357,-5.199254,2.3612254,1.0377678,-1.4460979,-9.500193,2.1739352
0.30362692,4.627564,-5.199254,2.3612254,1.0377678,-1.4460979,-9.500193,2.1739352
0.3044849,4.6215243,-5.366501,2.335659,1.1187279,-1.2641385,-9.533711,1.7812861
0.3053284,4.615487,-5.366501,2.335659,1.1187279,-1.2641385,-9.533711,1.7812861
0.3062302,4.60931,-5.501789,2.302636,1.195427,-1.1492168,-9.610326,1.5370775
0.30711803,4.6031294,-5.501789,2.302636,1.195427,-1.1492168,-9.610326,1.5370775
0.30805686,4.596845,-5.6072507,2.267482,1.2657344,-1.1252748,-9.730036,1.1971009
0.30898193,4.590557,-5.6072507,2.267482,1.2657344,-1.1252748,-9.730036,1.1971009
0.30994827,4.5841923,-5.6850147,2.2323284,1.328585,-1.13964,-9.753978,0.7422025
0.31090087,4.577823,-5.6850147,2.2323284,1.328585,-1.13964,-9.753978,0.7422025
0.31188592,4.571397,-5.739343,2.1971745,1.3871746,-1.1444284,-9.792285,0.21547815
0.31285864,4.56496,-5.739343,2.1971745,1.3871746,-1.1444284,-9.792285,0.21547815
0.31386164,4.5585017,-5.774497,2.1609557,1.4393725,-1.4077905,-9.873688,-0.24420857
0.31485477,4.55202,-5.774497,2.1609557,1.4393725,-1.4077905,-9.873688,-0.24420857
0.31588122,4.5455437,-5.791541,2.1204755,1.4915705,-1.7477672,-10.146626,-0.63206923
0.31689638,4.5390573,-5.791541,2.1204755,1.4915705,-1.7477672,-10.146626,-0.63206923
0.3179822,4.532392,-5.794737,2.0746691,1.5448337,-2.1547816,-10.453085,-0.9959879
0.31902075,4.525944,-5.794737,2.0746691,1.5448337,-2.1547816,-10.453085,-0.9959879
0.32012212,4.519415,-5.7883453,2.0182102,1.5991622,-2.408567,-10.860099,-1.2354081
0.32119954,4.5129614,-5.7883453,2.0182102,1.5991622,-2.408567,-10.860099,-1.2354081
0.32231957,4.5066233,-5.7713013,1.9510986,1.6556212,-2.6527755,-11.243171,-1.3934253
0.32344505,4.500192,-5.7713013,1.9510986,1.6556212,-2.6527755,-11.243171,-1.3934253
0.32461828,4.4938107,-5.7404084,1.8775953,1.7099497,-2.834735,-11.659762,-1.6519991
0.32579193,4.4873676,-5.7404084,1.8775953,1.7099497,-2.834735,-11.659762,-1.6519991
0.32707763,4.4807043,-5.6935368,1.7945046,1.7642782,-2.96881,-12.047623,-1.8100165
0.3282317,4.4746723,-5.6935368,1.7945046,1.7642782,-2.96881,-12.047623,-1.8100165
0.32950836,4.468405,-5.6274905,1.7018267,1.8154109,-3.1890767,-12.368446,-1.9967642
0.33074525,4.4622836,-5.6274905,1.7018267,1.8154109,-3.1890767,-12.368446,-1.9967642
0.3320647,4.4561596,-5.542269,1.6048876,1.8612173,-3.2944214,-12.756307,-2.0398598
0.33340356,4.449895,-5.542269,1.6048876,1.8612173,-3.2944214,-12.756307,-2.0398598
0.3347617,4.443869,-5.435743,1.501557,1.8995668,-3.265691,-13.005303,-2.231396
0.33610448,4.4378686,-5.435743,1.501557,1.8995668,-3.265691,-13.005303,-2.231396
0.3374973,4.4319906,-5.308976,1.3960958,1.9293941,-3.3423057,-13.048399,-2.408567
0.3388872,4.426085,-5.308976,1.3960958,1.9293941,-3.3423057,-13.048399,-2.408567
0.34029981,4.420371,-5.1641006,1.2906346,1.9506994,-3.667917,-12.679692,-2.9400797
0.34170634,4.414653,-5.1641006,1.2906346,1.9506994,-3.667917,-12.679692,-2.9400797
0.34312573,4.4091,-5.005376,1.1787817,1.9581563,-3.2130187,-12.880805,-3.016694
0.34453458,4.4035606,-5.005376,1.1787817,1.9581563,-3.2130187,-12.880805,-3.016694
0.3459631,4.398226,-4.828542,1.0722554,1.9570911,-3.1794999,-13.13459,-3.1364043
0.3473984,4.39284,-4.828542,1.0722554,1.9570911,-3.1794999,-13.13459,-3.1364043
0.34880647,4.387708,-4.629338,0.97638154,1.9421773,-3.1651347,-12.923901,-3.620033
0.3502108,4.38257,-4.629338,0.97638154,1.9421773,-3.1651347,-12.923901,-3.620033
0.35161784,4.3775244,-4.408828,0.88476884,1.9134152,-3.265691,-12.339716,-4.3047748
0.35305646,4.3723373,-4.408828,0.88476884,1.9134152,-3.265691,-12.339716,-4.3047748
0.35434696,4.3679194,-4.1723394,0.7952866,1.8761309,-3.4284968,-12.023681,-4.8937483
0.35571328,4.3632083,-4.1723394,0.7952866,1.8761309,-3.4284968,-12.023681,-4.8937483
0.3570898,4.35872,-3.9283936,0.70154333,1.8271288,-3.3614593,-11.765107,-5.3103395
0.3584557,4.3542347,-3.9283936,0.70154333,1.8271288,-3.3614593,-11.765107,-5.3103395
0.359787,4.350041,-3.6780565,0.60566956,1.7621477,-3.0693667,-11.769896,-5.616797
0.36111328,4.3458376,-3.6780565,0.60566956,1.7621477,-3.0693667,-11.769896,-5.616797
0.36242503,4.341909,-3.4213278,0.51725256,1.6843834,-3.442862,-11.549629,-6.220136
0.3637273,4.337987,-3.4213278,0.51725256,1.6843834,-3.442862,-11.549629,-6.220136
0.36494458,4.3343697,-3.1582074,0.43416196,1.5895748,-2.6671407,-11.884817,-6.3111157
0.36615404,4.330758,-3.1582074,0.43416196,1.5895748,-2.6671407,-11.884817,-6.3111157
0.3672965,4.3274517,-2.890826,0.36278924,1.4862442,-3.074155,-12.263102,-6.631939
0.36843863,4.324131,-2.890826,0.36278924,1.4862442,-3.074155,-12.263102,-6.631939
0.36951777,4.3211145,-2.6117268,0.3041997,1.376522,-3.4332852,-12.090718,-7.101202
0.37059072,4.3181033,-2.6117268,0.3041997,1.376522,-3.4332852,-12.090718,-7.101202
0.37160376,4.3153925,-2.326236,0.24241436,1.260408,-3.9456444,-12.0093155,-7.441179
0.37261143,4.3126855,-2.326236,0.24241436,1.260408,-3.9456444,-12.0093155,-7.441179
0.37353784,4.3103123,-2.0375493,0.17210689,1.1421638,-4.0940847,-12.167333,-7.6949644
0.37446523,4.307928,-2.0375493,0.17210689,1.1421638,-4.0940847,-12.167333,-7.6949644
0.3752975,4.30589,-1.7446015,0.090081535,1.0185931,-3.8546648,-12.3876,-7.7093296
0.37612262,4.303864,-1.7446015,0.090081535,1.0185931,-3.8546648,-12.3876,-7.7093296
0.37685984,4.302176,-1.4441969,0.008056169,0.8886308,-3.7205894,-12.531252,-7.7572136
0.3775925,4.3004947,-1.4441969,0.008056169,0.8886308,-3.7205894,-12.531252,-7.7572136
0.37823,4.299179,-1.1320745,-0.066512346,0.7576032,-3.7253778,-12.636597,-7.800309
0.3788704,4.2978554,-1.1320745,-0.066512346,0.7576032,-3.7253778,-12.636597,-7.800309
0.37941897,4.296894,-0.8135604,-0.13255873,0.6223147,-3.9360676,-12.612655,-7.905654
0.3799658,4.2959347,-0.8135604,-0.13255873,0.6223147,-3.9360676,-12.612655,-7.905654
0.38043085,4.295335,-0.49078527,-0.1996704,0.48809135,-4.1802764,-12.3876,-7.967903
0.3808946,4.294736,-0.49078527,-0.1996704,0.48809135,-4.1802764,-12.3876,-7.967903
0.38126466,4.294509,-0.16907541,-0.27317366,0.3549333,-4.1371803,-12.29662,-7.9248075
0.38163677,4.29428,-0.16907541,-0.27317366,0.3549333,-4.1371803,-12.29662,-7.9248075
0.38191485,4.294421,0.14730814,-0.35200322,0.2228405,-4.0557775,-12.215217,-7.7189064
0.38219258,4.2945623,0.14730814,-0.35200322,0.2228405,-4.0557775,-12.215217,-7.7189064
0.38238028,4.295066,0.4562348,-0.43402857,0.088617176,-4.084508,-12.176909,-7.560889
0.38256764,4.2955694,0.4562348,-0.43402857,0.088617176,-4.084508,-12.176909,-7.560889
0.3826612,4.2964296,0.76090044,-0.5160539,-0.046671405,-4.0222588,-12.124237,-7.441179
0.3827549,4.297293,0.76090044,-0.5160539,-0.046671405,-4.0222588,-12.124237,-7.441179
0.38275203,4.29851,1.061305,-0.5980793,-0.18302526,-3.8498764,-11.971008,-7.3166804
0.38274887,4.299724,1.061305,-0.5980793,-0.18302526,-3.8498764,-11.971008,-7.3166804
0.38265523,4.3012915,1.3574486,-0.6822352,-0.31937912,-3.763685,-11.693281,-7.2065473
0.38256115,4.3028555,1.3574486,-0.6822352,-0.31937912,-3.763685,-11.693281,-7.2065473
0.38236836,4.3047676,1.6535921,-0.76532584,-0.45892876,-3.5673606,-11.429919,-7.062895
0.38217446,4.306683,1.6535921,-0.76532584,-0.45892876,-3.5673606,-11.429919,-7.062895
0.3818825,4.308938,1.947605,-0.8473512,-0.5974131,-3.3039982,-11.123461,-7.005434
0.38158804,4.311201,1.947605,-0.8473512,-0.5974131,-3.3039982,-11.123461,-7.005434
0.38119566,4.3138013,2.2394874,-0.9283113,-0.7369628,-3.1842883,-10.778696,-6.823475
0.38080207,4.3163953,2.2394874,-0.9283113,-0.7369628,-3.1842883,-10.778696,-6.823475
0.38030833,4.3193355,2.5281742,-1.0039451,-0.87544715,-3.1890767,-10.582372,-6.7372837
0.37981308,4.322268,2.5281742,-1.0039451,-0.87544715,-3.1890767,-10.582372,-6.7372837
0.3792235,4.3255234,2.809404,-1.0795789,-1.0086052,-3.1364043,-10.309433,-6.670246
0.3786296,4.3287826,2.809404,-1.0795789,-1.0086052,-3.1364043,-10.309433,-6.670246
0.37792468,4.3324356,3.0863729,-1.1552126,-1.1396327,-3.0789435,-10.108319,-6.5361705
0.37724409,4.3359394,3.0863729,-1.1552126,-1.1396327,-3.0789435,-10.108319,-6.5361705
0.37645486,4.339825,3.3558848,-1.2308464,-1.2642686,-2.9975405,-9.998186,-6.373365
0.37566084,4.343707,3.3558848,-1.2308464,-1.2642686,-2.9975405,-9.998186,-6.373365
0.37478095,4.3479023,3.6136787,-1.3043497,-1.3793173,-3.1172507,-9.911995,-6.244078
0.373898,4.3520813,3.6136787,-1.3043497,-1.3793173,-3.1172507,-9.911995,-6.244078
0.37293142,4.356543,3.8586895,-1.3735918,-1.4837132,-3.0454245,-9.883265,-6.0716953
0.3719602,4.360992,3.8586895,-1.3735918,-1.4837132,-3.0454245,-9.883265,-6.0716953
0.37091422,4.365723,4.0887866,-1.4407035,-1.5742606,-3.107674,-9.92636,-5.841852
0.36986324,4.3704395,4.0887866,-1.4407035,-1.5742606,-3.107674,-9.92636,-5.841852
0.3687499,4.3754015,4.30397,-1.5024889,-1.652025,-3.2513258,-10.0508585,-5.511452
0.3687499,4.3754015,4.30397,-1.5024889,-1.652025,-3.2513258,-10.0508585,-5.511452
0.36624002,4.386652,4.5031743,-1.5568173,-1.7084839,-3.514688,-10.103531,-5.315128
0.36527988,4.390906,4.5031743,-1.5568173,-1.7084839,-3.514688,-10.103531,-5.315128
0.36527988,4.390906,4.5031743,-1.5568173,-1.7084839,-3.514688,-10.103531,-5.315128
0.3627477,4.4022775,4.687465,-1.6068847,-1.7457682,-3.6487634,-10.16578,-5.305551
0.36166292,4.407244,4.851516,-1.660148,-1.7660083,-3.6343982,-10.089166,-5.33907
0.36037645,4.41308,4.851516,-1.660148,-1.7660083,-3.6343982,-10.089166,-5.33907
0.36037645,4.41308,4.851516,-1.660148,-1.7660083,-3.6343982,-10.089166,-5.33907
0.36037645,4.41308,4.851516,-1.660148,-1.7660083,-3.6343982,-10.089166,-5.33907
0.35642433,4.431369,5.1157017,-1.7751966,-1.7713345,-3.3901896,-9.80665,-5.133168
0.35552603,4.4355764,5.1157017,-1.7751966,-1.7713345,-3.3901896,-9.80665,-5.133168
0.35428426,4.4415298,5.2158365,-1.8273945,-1.7617471,-3.2225955,-9.797073,-4.9081135
0.3530323,4.44747,5.2158365,-1.8273945,-1.7617471,-3.2225955,-9.797073,-4.9081135
0.35179666,4.4534926,5.299992,-1.8710704,-1.7425724,-3.1842883,-9.77792,-4.606444
0.35055426,4.4594846,5.299992,-1.8710704,-1.7425724,-3.1842883,-9.77792,-4.606444
0.34931144,4.465607,5.375626,-1.9072893,-1.7233976,-3.0597897,-9.672575,-4.381389
0.34806186,4.4716988,5.375626,-1.9072893,-1.7233976,-3.0597897,-9.672575,-4.381389
0.34682223,4.477878,5.4427376,-1.9349862,-1.6999619,-2.920926,-9.471462,-4.285621
0.34520853,4.4858227,5.4427376,-1.9349862,-1.6999619,-2.920926,-9.471462,-4.285621
0.3442968,4.4904,5.5002623,-1.9562914,-1.6786566,-2.8874073,-9.346964,-4.1419687
0.34284902,4.497591,5.5002623,-1.9562914,-1.6786566,-2.8874073,-9.346964,-4.1419687
0.34284902,4.497591,5.5002623,-1.9562914,-1.6786566,-2.8874073,-9.346964,-4.1419687
0.34056512,4.509008,5.5471334,-1.9754663,-1.6584165,-2.753332,-9.26556,-3.9935284
0.3392388,4.5156164,5.585483,-1.9957063,-1.6456333,-2.6048915,-9.165004,-3.6152446
0.3380476,4.521489,5.585483,-1.9957063,-1.6456333,-2.6048915,-9.165004,-3.6152446
0.33676723,4.5277762,5.61318,-2.0127504,-1.6328502,-2.4277205,-9.179369,-3.3087866
0.3354766,4.5340505,5.61318,-2.0127504,-1.6328502,-2.4277205,-9.179369,-3.3087866
0.33415988,4.540371,5.6355505,-2.0234032,-1.624328,-2.2218192,-9.141062,-2.930503
0.3328279,4.5467024,5.6355505,-2.0234032,-1.624328,-2.2218192,-9.141062,-2.930503
0.33147857,4.5530396,5.65153,-2.0287294,-1.6179365,-2.135628,-9.136273,-2.6240451
0.33011723,4.5593753,5.65153,-2.0287294,-1.6179365,-2.135628,-9.136273,-2.6240451
0.328723,4.5657234,5.6589866,-2.0255337,-1.615806,-1.9536686,-9.160215,-2.3127987
0.3273185,4.5720625,5.6589866,-2.0255337,-1.615806,-1.9536686,-9.160215,-2.3127987
0.32588595,4.578414,5.661117,-2.0170116,-1.6115448,-1.8579005,-9.059659,-1.9871874
0.3244448,4.5847483,5.661117,-2.0170116,-1.6115448,-1.8579005,-9.059659,-1.9871874
0.32296425,4.591107,5.656856,-1.9999673,-1.6062186,-1.6184803,-9.050082,-1.4652514
0.3214738,4.5974464,5.656856,-1.9999673,-1.6062186,-1.6184803,-9.050082,-1.4652514
0.3199255,4.6039352,5.6398115,-1.9754663,-1.6030228,-1.4652514,-8.815451,-1.1587936
0.31844983,4.610057,5.6398115,-1.9754663,-1.6030228,-1.4652514,-8.815451,-1.1587936
0.31692064,4.6163397,5.61318,-1.9403125,-1.5966312,-1.1827357,-8.5473,-0.79008657
0.3153124,4.6228757,5.61318,-1.9403125,-1.5966312,-1.1827357,-8.5473,-0.79008657
0.31379926,4.628993,5.5695043,-1.8966367,-1.5891744,-0.78529817,-8.240842,-0.30166942
0.3122442,4.6352143,5.5695043,-1.8966367,-1.5891744,-0.78529817,-8.240842,-0.30166942
0.31068072,4.6413937,5.507719,-1.8433734,-1.5827827,-0.320823,-7.872135,0.090979666
0.3090972,4.6475897,5.507719,-1.8433734,-1.5827827,-0.320823,-7.872135,0.090979666
0.30751964,4.653659,5.4256935,-1.7741313,-1.5763912,0.15322891,-7.489063,0.50278234
0.30592948,4.659721,5.4256935,-1.7741313,-1.5763912,0.15322891,-7.489063,0.50278234
0.30434114,4.6656466,5.3212976,-1.6878449,-1.5710648,0.5602432,-7.0485296,0.94810385
0.30273804,4.6715775,5.3212976,-1.6878449,-1.5710648,0.5602432,-7.0485296,0.94810385
0.30113104,4.6773324,5.187074,-1.5855795,-1.5678691,0.94810385,-6.6510925,1.2545617
0.29951522,4.6830754,5.187074,-1.5855795,-1.5678691,0.94810385,-6.6510925,1.2545617
0.29789376,4.688624,5.025154,-1.4684004,-1.5668038,1.2785037,-6.2632318,1.6232687
0.29626158,4.694172,5.025154,-1.4684004,-1.5668038,1.2785037,-6.2632318,1.6232687
0.29462817,4.699478,4.835537,-1.3405687,-1.5678691,1.5227122,-5.9280434,1.9728222
0.2929836,4.704789,4.835537,-1.3405687,-1.5678691,1.5227122,-5.9280434,1.9728222
0.29134333,4.7098355,4.6192884,-1.2010189,-1.5657386,1.6950948,-5.6551046,2.4037786
0.28969634,4.714877,4.6192884,-1.2010189,-1.5657386,1.6950948,-5.6551046,2.4037786
0.28805438,4.719631,4.379604,-1.0572083,-1.5657386,1.733402,-5.544971,2.8778305
0.28640524,4.7243853,4.379604,-1.0572083,-1.5657386,1.733402,-5.544971,2.8778305
0.28476125,4.7288394,4.1239405,-0.9102018,-1.5646733,1.7190368,-5.4300494,3.2609026
0.2831129,4.7332897,4.1239405,-0.9102018,-1.5646733,1.7190368,-5.4300494,3.2609026
0.28147846,4.737431,3.8576243,-0.7631953,-1.5582817,1.5801731,-5.4779334,3.7493198
0.27984077,4.7415695,3.8576243,-0.7631953,-1.5582817,1.5801731,-5.4779334,3.7493198
0.27822095,4.7453947,3.587047,-0.6225804,-1.5454985,1.5179238,-5.544971,4.0222588
0.27659866,4.7492175,3.587047,-0.6225804,-1.5454985,1.5179238,-5.544971,4.0222588
0.27500403,4.752728,3.3143394,-0.4872918,-1.5231279,1.5370775,-5.770026,4.3526587
0.27340767,4.756236,3.3143394,-0.4872918,-1.5231279,1.5370775,-5.770026,4.3526587
0.27183956,4.7594337,3.0448275,-0.35946006,-1.4954311,2.1021092,-5.66947,4.548983
0.27027196,4.7626266,3.0448275,-0.35946006,-1.4954311,2.1021092,-5.66947,4.548983
0.26874453,4.7655206,2.777446,-0.23482412,-1.4624078,2.0207062,-5.650316,4.783615
0.2672165,4.768413,2.777446,-0.23482412,-1.4624078,2.0207062,-5.650316,4.783615
0.265737,4.771005,2.5111299,-0.108057655,-1.4219278,1.9393034,-5.693412,4.879383
0.26425746,4.773596,2.5111299,-0.108057655,-1.4219278,1.9393034,-5.693412,4.879383
0.26282462,4.7758875,2.2469444,0.009121433,-1.378252,2.5474305,-5.8226986,5.1475334
0.261392,4.7781787,2.2469444,0.009121433,-1.378252,2.5474305,-5.8226986,5.1475334
0.26000473,4.780177,1.9880852,0.12310473,-1.3356414,3.2369606,-5.889736,5.2720323
0.2586177,4.782175,1.9880852,0.12310473,-1.3356414,3.2369606,-5.889736,5.2720323
0.2572906,4.7838902,1.7334869,0.24880594,-1.2877045,2.8299465,-5.78918,5.3342814
0.25598523,4.785578,1.7334869,0.24880594,-1.2877045,2.8299465,-5.78918,5.3342814
0.25470623,4.7870355,1.479954,0.381964,-1.2344413,2.135628,-5.5737014,5.267244
0.25345552,4.788461,1.479954,0.381964,-1.2344413,2.135628,-5.5737014,5.267244
0.25228804,4.789608,1.2253557,0.50659996,-1.1694602,1.316811,-5.1906295,5.12838
0.2511248,4.790752,1.2253557,0.50659996,-1.1694602,1.316811,-5.1906295,5.12838
0.25005722,4.7916207,0.9664965,0.61206114,-1.0831738,0.81402856,-5.085284,5.046977
0.24898484,4.7924943,0.9664965,0.61206114,-1.0831738,0.81402856,-5.085284,5.046977
0.24803017,4.7930803,0.70124567,0.696217,-0.98303884,0.5315128,-4.596867,4.8506527
0.2470761,4.7936673,0.70124567,0.696217,-0.98303884,0.5315128,-4.596867,4.8506527
0.24623212,4.7939606,0.4242769,0.76119816,-0.87225133,1.091756,-4.1419687,4.8362875
0.24538846,4.794255,0.4242769,0.76119816,-0.87225133,1.091756,-4.1419687,4.8362875
0.24466713,4.7942424,0.13239443,0.8219182,-0.7529417,1.3838485,-3.6343982,4.76925
0.24394435,4.7942305,0.13239443,0.8219182,-0.7529417,1.3838485,-3.6343982,4.76925
0.24334137,4.7938824,-0.18505438,0.88476884,-0.62724054,1.6950948,-3.5434184,4.8267107
0.24275666,4.793545,-0.18505438,0.88476884,-0.62724054,1.6950948,-3.5434184,4.8267107
0.24228211,4.7928476,-0.5238085,0.9508152,-0.5089962,2.4372973,-3.1172507,5.0134583
0.24180497,4.792148,-0.5238085,0.9508152,-0.5089962,2.4372973,-3.1172507,5.0134583
0.24144769,4.791074,-0.88173735,1.0307101,-0.3950129,2.791639,-2.7820623,5.2145715
0.24108885,4.7899985,-0.88173735,1.0307101,-0.3950129,2.791639,-2.7820623,5.2145715
0.24084531,4.7885175,-1.2652326,1.1287143,-0.28742117,2.882619,-2.5570073,5.3821654
0.24059995,4.787037,-1.2652326,1.1287143,-0.28742117,2.882619,-2.5570073,5.3821654
0.24046578,4.7851305,-1.6668372,1.2363061,-0.18302526,2.896984,-2.3511062,5.391742
0.24032915,4.7832217,-1.6668372,1.2363061,-0.18302526,2.896984,-2.3511062,5.391742
0.24030164,4.7808766,-2.0822904,1.3513546,-0.08075987,2.7102363,-2.2936451,5.315128
0.24027108,4.778531,-2.0822904,1.3513546,-0.08075987,2.7102363,-2.2936451,5.315128
0.24034823,4.775731,-2.507331,1.4664032,0.020440254,2.2505496,-2.4277205,5.12838
0.24042135,4.772934,-2.507331,1.4664032,0.020440254,2.2505496,-2.4277205,5.12838
0.24059677,4.7696843,-2.9366324,1.5739949,0.120575115,1.9967642,-2.7964275,5.046977
0.24076726,4.7664337,-2.9366324,1.5739949,0.120575115,1.9967642,-2.7964275,5.046977
0.24103515,4.7627373,-3.3606076,1.670934,0.22070996,1.8722657,-3.2273839,4.8267107
0.24129722,4.7590404,-3.3606076,1.670934,0.22070996,1.8722657,-3.2273839,4.8267107
0.2416537,4.7549124,-3.7717998,1.7561551,0.32084483,1.8291701,-3.7684734,4.7070007
0.24200287,4.7507873,-3.7717998,1.7561551,0.32084483,1.8291701,-3.7684734,4.7070007
0.24244203,4.746243,-4.1670127,1.83605,0.42097968,1.8291701,-4.390966,4.3957543
0.24287328,4.7416973,-4.1670127,1.83605,0.42097968,1.8291701,-4.390966,4.3957543
0.2433919,4.736761,-4.5398555,1.9084879,0.518984,1.7142484,-4.9655743,4.1419687
0.24390158,4.731823,-4.5398555,1.9084879,0.518984,1.7142484,-4.9655743,4.1419687
0.24449988,4.726523,-4.885001,1.9745344,0.61911887,1.412579,-5.57849,3.7924154
0.24508809,4.7212214,-4.885001,1.9745344,0.61911887,1.412579,-5.57849,3.7924154
0.24578135,4.7154884,-5.2013845,2.0299282,0.72244954,1.067814,-6.2345014,3.6248214
0.24656822,4.708862,-5.2013845,2.0299282,0.72244954,1.067814,-6.2345014,3.6248214
0.24739456,4.702397,-5.489006,2.0767996,0.828976,0.8475474,-6.83784,3.3183637
0.2479228,4.6982045,-5.489006,2.0767996,0.828976,0.8475474,-6.83784,3.3183637
0.24876334,4.692016,-5.7446694,2.114084,0.9397635,0.641646,-7.40766,2.9592333
0.24960625,4.685713,-5.7446694,2.114084,0.9397635,0.641646,-7.40766,2.9592333
0.25053272,4.6792545,-5.968375,2.142846,1.0537468,0.34955344,-7.8625584,2.4468741
0.25143963,4.672838,-5.968375,2.142846,1.0537468,0.34955344,-7.8625584,2.4468741
0.2524525,4.6661882,-6.161188,2.1630862,1.1709259,-0.11971009,-8.307879,2.0111294
0.25345466,4.6595144,-6.161188,2.1630862,1.1709259,-0.11971009,-8.307879,2.0111294
0.25455752,4.6526656,-6.327369,2.170543,1.2913008,-0.40701428,-8.743625,1.5945383
0.2556421,4.64584,-6.327369,2.170543,1.2913008,-0.40701428,-8.743625,1.5945383
0.25682506,4.638861,-6.4658537,2.1694777,1.4116757,-0.6512229,-9.016563,1.1109096
0.25799042,4.6318984,-6.4658537,2.1694777,1.4116757,-0.6512229,-9.016563,1.1109096
0.25925407,4.624797,-6.580902,2.1598904,1.5352463,-0.79008657,-9.260772,0.6368576
0.2605073,4.617669,-6.580902,2.1598904,1.5352463,-0.79008657,-9.260772,0.6368576
0.26186004,4.610449,-6.67358,2.1449766,1.6577517,-1.0869676,-9.509769,0.23942018
0.26319626,4.6032386,-6.67358,2.1449766,1.6577517,-1.0869676,-9.509769,0.23942018
0.2646235,4.5959363,-6.746018,2.1236713,1.7770613,-1.2689269,-9.691729,-0.20590134
0.2660373,4.58863,-6.746018,2.1236713,1.7770613,-1.2689269,-9.691729,-0.20590134
0.26754132,4.5812616,-6.797151,2.098105,1.8931751,-1.4413095,-9.888053,-0.5410896
0.26903233,4.573889,-6.797151,2.098105,1.8931751,-1.4413095,-9.888053,-0.5410896
0.27060303,4.5664616,-6.830174,2.070408,2.0060933,-1.5705963,-10.0508585,-0.94810385
0.27216098,4.5590324,-6.830174,2.070408,2.0060933,-1.5705963,-10.0508585,-0.94810385
0.27379286,4.551544,-6.8440223,2.0427113,2.1126196,-1.6950948,-10.16578,-1.4077905
0.27540702,4.5440717,-6.8440223,2.0427113,2.1126196,-1.6950948,-10.16578,-1.4077905
0.27710536,4.5365396,-6.838696,2.0150144,2.2127545,-1.8962077,-10.25676,-1.910573
0.27878326,4.529011,-6.838696,2.0150144,2.2127545,-1.8962077,-10.25676,-1.910573
0.28055444,4.521464,-6.8152604,1.9883828,2.3064978,-2.0207062,-10.395624,-2.2936451
0.28230193,4.513918,-6.8152604,1.9883828,2.3064978,-2.0207062,-10.395624,-2.2936451
0.28413555,4.5063906,-6.773715,1.9574901,2.388523,-2.1643584,-10.58716,-2.6719291
0.2859478,4.498846,-6.773715,1.9574901,2.388523,-2.1643584,-10.58716,-2.6719291
0.28783688,4.491352,-6.71193,1.9223363,2.4545696,-2.3080103,-10.764331,-3.145981
0.28783688,4.491352,-6.71193,1.9223363,2.4545696,-2.3080103,-10.764331,-3.145981
0.29160687,4.476155,-6.632035,1.8807911,2.5120938,-2.408567,-10.979809,-3.5434184
0.2934895,4.468793,-6.632035,1.8807911,2.5120938,-2.408567,-10.979809,-3.5434184
0.2934895,4.468793,-6.632035,1.8807911,2.5120938,-2.408567,-10.979809,-3.5434184
0.29735127,4.454124,-6.5319,1.8328542,2.561096,-2.4468741,-11.281479,-3.7828386
0.2994254,4.4464664,-6.4115252,1.7817215,2.5962498,-2.5809495,-11.525687,-4.0892963
0.3013348,4.439324,-6.4115252,1.7817215,2.5962498,-2.5809495,-11.525687,-4.0892963
0.3013348,4.439324,-6.4115252,1.7817215,2.5962498,-2.5809495,-11.525687,-4.0892963
0.30526143,4.4250445,-6.2719755,1.727393,2.620751,-2.7389667,-11.722012,-4.3478703
0.3070912,4.4185567,-6.1143165,1.6677382,2.6367297,-2.8443117,-11.975797,-4.5298295
0.30902475,4.4116197,-6.1143165,1.6677382,2.6367297,-2.8443117,-11.975797,-4.5298295
0.31096873,4.4048624,-5.9374824,1.5995612,2.6388602,-2.930503,-12.143391,-4.7261543
0.3128872,4.3981137,-5.9374824,1.5995612,2.6388602,-2.930503,-12.143391,-4.7261543
0.31481248,4.3915553,-5.7414737,1.5239275,2.6303382,-3.1124623,-12.397177,-4.8745947
0.31672406,4.384967,-5.7414737,1.5239275,2.6303382,-3.1124623,-12.397177,-4.8745947
0.3186452,4.3786187,-5.529486,1.4419022,2.6111634,-3.442862,-12.310986,-5.0900726
0.32054734,4.3722596,-5.529486,1.4419022,2.6111634,-3.442862,-12.310986,-5.0900726
0.32242054,4.366184,-5.300454,1.3492241,2.5802708,-3.2034419,-12.330139,-5.2624555
0.32427695,4.3600993,-5.300454,1.3492241,2.5802708,-3.2034419,-12.330139,-5.2624555
0.32617754,4.354247,-5.0565085,1.252285,2.5461824,-3.6391866,-11.760319,-5.7269306
0.32807103,4.348359,-5.0565085,1.252285,2.5461824,-3.6391866,-11.760319,-5.7269306
0.32987496,4.3428493,-4.804041,1.1457586,2.4993107,-3.1555579,-12.378023,-5.602432
0.3316689,4.3373203,-4.804041,1.1457586,2.4993107,-3.1555579,-12.378023,-5.602432
0.3334204,4.3321133,-4.5366597,1.0371016,2.440721,-3.0885203,-12.938266,-5.425261
0.3351602,4.3269057,-4.5366597,1.0371016,2.440721,-3.0885203,-12.938266,-5.425261
0.336866,4.32205,-4.240516,0.9369668,2.3768053,-2.8107927,-13.374011,-5.401319
0.33856338,4.3171926,-4.240516,0.9369668,2.3768053,-2.8107927,-13.374011,-5.401319
0.34029454,4.3125944,-3.9145453,0.8496151,2.311824,-4.4484267,-12.938266,-6.1195793
0.3420104,4.3079944,-3.9145453,0.8496151,2.311824,-4.4484267,-12.938266,-6.1195793
0.34372202,4.303767,-3.5683343,0.73989284,2.239386,-4.510676,-12.684481,-6.4260373
0.34542158,4.299536,-3.5683343,0.73989284,2.239386,-4.510676,-12.684481,-6.4260373
0.34710953,4.2957044,-3.216797,0.5992779,2.1552303,-4.596867,-12.497733,-6.5840545
0.34878588,4.2918725,-3.216797,0.5992779,2.1552303,-4.596867,-12.497733,-6.5840545
0.3504142,4.28846,-2.862064,0.45120618,2.0678785,-4.2760444,-12.540829,-6.679823
0.35203555,4.285041,-2.862064,0.45120618,2.0678785,-4.2760444,-12.540829,-6.679823
0.35363108,4.2820415,-2.5062656,0.3010039,1.9762658,-4.3382936,-12.555194,-6.7229185
0.35521787,4.279043,-2.5062656,0.3010039,1.9762658,-4.3382936,-12.555194,-6.7229185
0.3567113,4.2765374,-2.1472714,0.15186687,1.868674,-3.620033,-13.354857,-6.373365
0.35820165,4.274032,-2.1472714,0.15186687,1.868674,-3.620033,-13.354857,-6.373365
0.359691,4.271888,-1.774429,0.016578285,1.751495,-3.8259344,-13.532028,-6.5218053
0.3610803,4.269885,-1.774429,0.016578285,1.751495,-3.8259344,-13.532028,-6.5218053
0.36245164,4.2682695,-1.3856074,-0.110188186,1.6183369,-4.223372,-13.828909,-6.588843
0.36382043,4.2666564,-1.3856074,-0.110188186,1.6183369,-4.223372,-13.828909,-6.588843
0.36515638,4.2654405,-0.9818722,-0.24015045,1.477722,-4.256891,-12.837709,-7.062895
0.36649022,4.2642245,-0.9818722,-0.24015045,1.477722,-4.256891,-12.837709,-7.062895
0.3677299,4.263497,-0.5834633,-0.38076535,1.3232586,-3.9743748,-12.899959,-6.9527617
0.36896852,4.262769,-0.5834633,-0.38076535,1.3232586,-3.9743748,-12.899959,-6.9527617
0.37014297,4.2624803,-0.18825017,-0.5054013,1.1645343,-3.8402996,-12.41633,-7.4363904
0.37127903,4.2622004,-0.18825017,-0.5054013,1.1645343,-3.8402996,-12.41633,-7.4363904
0.37234828,4.2623835,0.20802821,-0.63642883,0.9866351,-3.347094,-12.042834,-7.5848308
0.3734536,4.262573,0.20802821,-0.63642883,0.9866351,-3.347094,-12.042834,-7.5848308
0.37441555,4.263207,0.5957845,-0.75573844,0.7959528,-2.9879637,-11.233594,-7.920019
0.37537232,4.263839,0.5957845,-0.75573844,0.7959528,-2.9879637,-11.233594,-7.920019
0.37621784,4.264902,0.9675618,-0.85161227,0.5999441,-2.825158,-10.180145,-8.37013
0.37706703,4.265971,0.9675618,-0.85161227,0.5999441,-2.825158,-10.180145,-8.37013
0.37777686,4.2674294,1.3127074,-0.9261808,0.39860913,-3.0693667,-9.504981,-8.7532015
0.37848657,4.2688904,1.3127074,-0.9261808,0.39860913,-3.0693667,-9.504981,-8.7532015
0.37904513,4.270725,1.6301563,-0.9879661,0.20153521,-2.8778305,-9.136273,-8.920795
0.37960222,4.2725606,1.6301563,-0.9879661,0.20153521,-2.8778305,-9.136273,-8.920795
0.3800066,4.27474,1.9231039,-1.0390987,0.008722344,-2.9017725,-9.097966,-9.083601
0.3804092,4.276921,1.9231039,-1.0390987,0.008722344,-2.9017725,-9.097966,-9.083601
0.38065735,4.2794175,2.1947465,-1.0753177,-0.17769894,-3.0454245,-9.275137,-9.121908
0.38090378,4.2819223,2.1947465,-1.0753177,-0.17769894,-3.0454245,-9.275137,-9.121908
0.3810055,4.2847133,2.4557362,-1.0998188,-0.347076,-3.347094,-9.643845,-9.150639
0.38110456,4.287507,2.4557362,-1.0998188,-0.347076,-3.347094,-9.643845,-9.150639
0.3810737,4.2906046,2.7028775,-1.1147326,-0.49834353,-3.6870706,-9.878476,-9.193734
0.38103998,4.2936654,2.7028775,-1.1147326,-0.49834353,-3.6870706,-9.878476,-9.193734
0.38088804,4.2969904,2.9436274,-1.1232547,-0.6315016,-3.9935284,-10.232818,-9.198523
0.38073084,4.3003483,2.9436274,-1.1232547,-0.6315016,-3.9935284,-10.232818,-9.198523
0.38047606,4.303993,3.1769202,-1.1328421,-0.74015856,-4.3622355,-10.548853,-9.112331
0.38021815,4.3076196,3.1769202,-1.1328421,-0.74015856,-4.3622355,-10.548853,-9.112331
0.3798702,4.311657,3.401691,-1.1413642,-0.8253797,-4.7070007,-10.879252,-9.011775
0.37955,4.315318,3.401691,-1.1413642,-0.8253797,-4.7070007,-10.879252,-9.011775
0.3791763,4.3192587,3.6200702,-1.148821,-0.8892956,-5.1523223,-10.864887,-9.121908
0.37878752,4.3233027,3.6200702,-1.148821,-0.8892956,-5.1523223,-10.864887,-9.121908
0.37835878,4.3275723,3.8288622,-1.1594737,-0.93190616,-5.233725,-10.864887,-9.232041
0.37792397,4.3318443,3.8288622,-1.1594737,-0.93190616,-5.233725,-10.864887,-9.232041
0.37746212,4.336317,4.0280666,-1.1690611,-0.95640725,-5.094861,-10.740389,-9.356541
0.37699333,4.3407965,4.0280666,-1.1690611,-0.95640725,-5.094861,-10.740389,-9.356541
0.37650904,4.345466,4.217684,-1.1711916,-0.96599466,-4.9655743,-10.481815,-9.552865
0.3760199,4.3501196,4.217684,-1.1711916,-0.96599466,-4.9655743,-10.481815,-9.552865
0.37551695,4.3549747,4.3945174,-1.1669306,-0.9691904,-4.8362875,-10.103531,-9.696517
0.37500986,4.3598037,4.3945174,-1.1669306,-0.9691904,-4.8362875,-10.103531,-9.696517
0.3744967,4.364785,4.5596337,-1.1552126,-0.9691904,-4.88896,-9.643845,-9.821015
0.3739753,4.36978,4.5596337,-1.1552126,-0.9691904,-4.88896,-9.643845,-9.821015
0.37344474,4.3749204,4.714097,-1.1392337,-0.9691904,-4.936844,-9.289502,-9.883265
0.3729089,4.3800435,4.714097,-1.1392337,-0.9691904,-4.936844,-9.289502,-9.883265
0.37235573,4.385311,4.8536463,-1.1168631,-0.9702557,-4.793192,-8.992621,-9.825804
0.37179574,4.3905764,4.8536463,-1.1168631,-0.9702557,-4.793192,-8.992621,-9.825804
0.3712185,4.3959417,4.9825435,-1.0859704,-0.9702557,-4.5777135,-8.853758,-9.610326
0.37063155,4.4013314,4.9825435,-1.0859704,-0.9702557,-4.5777135,-8.853758,-9.610326
0.37002742,4.4068017,5.102918,-1.0433599,-0.96812516,-4.4005427,-8.7053175,-9.452309
0.36941716,4.4122643,5.102918,-1.0433599,-0.96812516,-4.4005427,-8.7053175,-9.452309
0.36878094,4.4178405,5.2158365,-0.9911619,-0.96812516,-4.2425256,-8.595184,-9.227253
0.36813948,4.4234037,5.2158365,-0.9911619,-0.96812516,-4.2425256,-8.595184,-9.227253
0.3674636,4.429051,5.323428,-0.9304418,-0.97664726,-4.0414124,-8.532935,-8.935161
0.3667816,4.4346957,5.323428,-0.9304418,-0.97664726,-4.0414124,-8.532935,-8.935161
0.36606303,4.4404016,5.4203672,-0.86652595,-0.9894304,-3.9073372,-8.561666,-8.6095495
0.36533567,4.446129,5.4203672,-0.86652595,-0.9894304,-3.9073372,-8.561666,-8.6095495
0.36456388,4.4519024,5.503458,-0.7994143,-1.0086052,-3.6870706,-8.643068,-8.1642275
0.36378816,4.4576626,5.503458,-0.7994143,-1.0086052,-3.6870706,-8.643068,-8.1642275
0.36295676,4.4634957,5.576961,-0.73123735,-1.0352368,-3.4859576,-8.719683,-7.632715
0.362122,4.469314,5.576961,-0.73123735,-1.0352368,-3.4859576,-8.719683,-7.632715
0.3612258,4.47519,5.6398115,-0.6630604,-1.0682601,-3.265691,-8.796297,-6.9719152
0.36033046,4.481028,5.6398115,-0.6630604,-1.0682601,-3.265691,-8.796297,-6.9719152
0.3593674,4.4869146,5.6920094,-0.59594876,-1.1076748,-3.040636,-8.858546,-6.205771
0.3584002,4.492798,5.6920094,-0.59594876,-1.1076748,-3.040636,-8.858546,-6.205771
0.35736033,4.4986944,5.7367506,-0.5299024,-1.1513506,-2.6862943,-8.968679,-5.33907
0.3563129,4.5046115,5.7367506,-0.5299024,-1.1513506,-2.6862943,-8.968679,-5.33907
0.35518676,4.510539,5.7772307,-0.46279073,-1.1992875,-2.4420857,-9.021352,-4.381389
0.3540593,4.5164576,5.7772307,-0.46279073,-1.1992875,-2.4420857,-9.021352,-4.381389
0.3528261,4.522415,5.81345,-0.3946138,-1.2514855,-2.0015526,-9.107543,-3.4284968
0.35159412,4.528356,5.81345,-0.3946138,-1.2514855,-2.0015526,-9.107543,-3.4284968
0.3502423,4.534356,5.8475385,-0.32324108,-1.3079445,-1.6184803,-9.078813,-2.432509
0.34889105,4.5403433,5.8475385,-0.32324108,-1.3079445,-1.6184803,-9.078813,-2.432509
0.34744626,4.546398,5.878431,-0.2476073,-1.3665341,-1.2114661,-9.002198,-1.508347
0.34599838,4.5524445,5.878431,-0.2476073,-1.3665341,-1.2114661,-9.002198,-1.508347
0.34450105,4.5585213,5.902932,-0.16558194,-1.4240583,-0.8379706,-9.002198,-0.59855044
0.34299365,4.564617,5.902932,-0.16558194,-1.4240583,-0.8379706,-9.002198,-0.59855044
0.34143555,4.570706,5.918911,-0.08036078,-1.4869089,-0.4309563,-8.959103,0.2873042
0.339876,4.576784,5.918911,-0.08036078,-1.4869089,-0.4309563,-8.959103,0.2873042
0.33824944,4.582854,5.9210415,0.003795111,-1.5529554,-0.12928689,-8.829816,1.0007763
0.33662534,4.5889015,5.9210415,0.003795111,-1.5529554,-0.12928689,-8.829816,1.0007763
0.33493382,4.5949354,5.906128,0.08475521,-1.6179365,0.019153614,-8.690952,1.7669208
0.33324412,4.600953,5.906128,0.08475521,-1.6179365,0.019153614,-8.690952,1.7669208
0.33149523,4.6069093,5.8720393,0.1571932,-1.6850481,-0.090979666,-8.403648,2.4468741
0.32974207,4.612874,5.8720393,0.1571932,-1.6850481,-0.090979666,-8.403648,2.4468741
0.3279349,4.6187515,5.814515,0.21471748,-1.7500293,-0.25857377,-8.159439,3.1172507
0.32612383,4.624637,5.814515,0.21471748,-1.7500293,-0.25857377,-8.159439,3.1172507
0.3242706,4.6304245,5.7282286,0.25519753,-1.8064883,-0.80924016,-7.4507556,3.572149
0.32242143,4.636197,5.7282286,0.25519753,-1.8064883,-0.80924016,-7.4507556,3.572149
0.3205325,4.641858,5.61318,0.27224174,-1.8512294,-1.0055647,-7.053318,4.1515455
0.31864786,4.6475043,5.61318,0.27224174,-1.8512294,-1.0055647,-7.053318,4.1515455
0.31673035,4.65301,5.468304,0.26371965,-1.8853178,-0.7565677,-6.5361705,4.7309427
0.31481358,4.658512,5.468304,0.26371965,-1.8853178,-0.7565677,-6.5361705,4.7309427
0.31287915,4.6638384,5.2936006,0.23602276,-1.9055579,-0.30645782,-6.0764837,5.257667
0.3109453,4.669162,5.2936006,0.23602276,-1.9055579,-0.30645782,-6.0764837,5.257667
0.30899528,4.6743026,5.0912004,0.20406483,-1.9151453,0.2777274,-5.554548,5.6982
0.3070496,4.6794305,5.0912004,0.20406483,-1.9151453,0.2777274,-5.554548,5.6982
0.30508652,4.684366,4.8557773,0.17317216,-1.918341,0.7613561,-4.8027687,6.129156
0.30315694,4.689216,4.8557773,0.17317216,-1.918341,0.7613561,-4.8027687,6.129156
0.30122414,4.693847,4.5852,0.1476058,-1.9098189,0.59376204,-3.4141316,5.971139
0.29929757,4.6984625,4.5852,0.1476058,-1.9098189,0.59376204,-3.4141316,5.971139
0.29735374,4.7027807,4.2773385,0.12736578,-1.8970357,3.9695864,-3.8738184,7.2592196
0.2954161,4.7070837,4.2773385,0.12736578,-1.8970357,3.9695864,-3.8738184,7.2592196
0.29350263,4.711053,3.9407148,0.13801843,-1.8810568,2.4612393,-5.4300494,8.015787
0.29158586,4.715028,3.9407148,0.13801843,-1.8810568,2.4612393,-5.4300494,8.015787
0.289706,4.7186527,3.610483,0.18489006,-1.8501642,2.0733786,-4.223372,7.297527
0.28782877,4.722273,3.610483,0.18489006,-1.8501642,2.0733786,-4.223372,7.297527
0.2859735,4.725558,3.2813163,0.21365221,-1.8224672,2.8682537,-2.3798366,6.9383965
0.2859735,4.725558,3.2813163,0.21365221,-1.8224672,2.8682537,-2.3798366,6.9383965
0.2859735,4.725558,3.2813163,0.21365221,-1.8224672,2.8682537,-2.3798366,6.9383965
0.2859735,4.725558,3.2813163,0.21365221,-1.8224672,2.8682537,-2.3798366,6.9383965
0.2859735,4.725558,3.2813163,0.21365221,-1.8224672,2.8682537,-2.3798366,6.9383965
0.27775112,4.7373104,2.5068688,0.33296183,-1.7063534,2.657564,-1.0821792,7.1969705
0.27566364,4.7401285,2.064784,0.40646508,-1.620067,3.2321723,-0.8331822,7.6135616
0.2739423,4.742234,2.064784,0.40646508,-1.620067,3.2321723,-0.8331822,7.6135616
0.27249253,4.743665,1.597133,0.48635992,-1.5188669,3.4045548,-1.043872,8.025364
0.27085987,4.7452774,1.597133,0.48635992,-1.5188669,3.4045548,-1.043872,8.025364
0.26950058,4.7462473,1.113503,0.57797265,-1.4027531,3.2273839,-1.7286136,8.465898
0.2680616,4.747275,1.113503,0.57797265,-1.4027531,3.2273839,-1.7286136,8.465898
0.2680616,4.747275,1.113503,0.57797265,-1.4027531,3.2273839,-1.7286136,8.465898
0.26556996,4.748236,0.62667716,0.67704225,-1.2791824,3.4859576,-2.1930888,8.834604
0.26443064,4.748228,0.14943866,0.7867645,-1.1438938,3.0310593,-2.327164,8.911219
0.263289,4.748221,0.14943866,0.7867645,-1.1438938,3.0310593,-2.327164,8.911219
0.26229736,4.7477145,-0.32353875,0.90181303,-0.99901783,2.6288335,-3.0502129,9.165004
0.26229736,4.7477145,-0.32353875,0.90181303,-0.99901783,2.6288335,-3.0502129,9.165004
0.26036978,4.746443,-0.7858635,1.0094048,-0.84135866,2.3463178,-3.9935284,9.495404
0.25955784,4.745476,-0.7858635,1.0094048,-0.84135866,2.3463178,-3.9935284,9.495404
0.25889584,4.744025,-1.226883,1.1074091,-0.6741122,1.9680338,-5.109226,9.677363
0.25820234,4.74251,-1.226883,1.1074091,-0.6741122,1.9680338,-5.109226,9.677363
0.25772372,4.7406473,-1.6423361,1.1936955,-0.49727827,1.3694834,-5.9424086,9.821015
0.25724342,4.7387877,-1.6423361,1.1936955,-0.49727827,1.3694834,-5.9424086,9.821015
0.2569364,4.736497,-2.0300925,1.2597419,-0.31724858,0.9720459,-6.909666,10.060435
0.2566322,4.734248,-2.0300925,1.2597419,-0.31724858,0.9720459,-6.909666,10.060435
0.2565045,4.731603,-2.386956,1.3023524,-0.13615362,0.45968673,-7.819463,10.352529
0.2563731,4.7289534,-2.386956,1.3023524,-0.13615362,0.45968673,-7.819463,10.352529
0.2564199,4.7259746,-2.7118616,1.3236578,0.04387607,0.08619126,-8.571242,10.582372
0.25646284,4.7229924,-2.7118616,1.3236578,0.04387607,0.08619126,-8.571242,10.582372
0.25668028,4.719736,-2.9973526,1.3225925,0.22177523,-0.24899697,-9.179369,10.582372
0.25689435,4.716466,-2.9973526,1.3225925,0.22177523,-0.24899697,-9.179369,10.582372
0.25728074,4.71296,-3.244494,1.3055483,0.39754388,-0.59376204,-9.572019,10.381259
0.2576619,4.7094603,-3.244494,1.3055483,0.39754388,-0.59376204,-9.572019,10.381259
0.2582113,4.7057495,-3.4522204,1.2746556,0.5679862,-0.8571242,-9.773131,10.031705
0.25875556,4.7020407,-3.4522204,1.2746556,0.5679862,-0.8571242,-9.773131,10.031705
0.25945964,4.6981726,-3.6269238,1.2288493,0.7320369,-1.0630256,-9.825804,9.485827
0.26016104,4.6942906,-3.6269238,1.2288493,0.7320369,-1.0630256,-9.825804,9.485827
0.26100963,4.6902885,-3.768604,1.1702597,0.885435,-1.0151415,-9.682152,8.7292595
0.26185262,4.686288,-3.768604,1.1702597,0.885435,-1.0151415,-9.682152,8.7292595
0.26283145,4.682182,-3.8857832,1.1042132,1.0239193,-1.0821792,-9.610326,7.967903
0.26380566,4.6780734,-3.8857832,1.1042132,1.0239193,-1.0821792,-9.610326,7.967903
0.26489553,4.673888,-3.9795263,1.0307101,1.1442943,-0.9624691,-9.428367,7.0581064
0.265981,4.6697006,-3.9795263,1.0307101,1.1442943,-0.9624691,-9.428367,7.0581064
0.26716033,4.6654553,-4.05516,0.9508152,1.2433639,-0.7086837,-9.232041,6.325481
0.26833543,4.661207,-4.05516,0.9508152,1.2433639,-0.7086837,-9.232041,6.325481
0.26958424,4.6569223,-4.1148148,0.87092036,1.3221934,-0.56982,-9.169792,5.7029886
0.27082917,4.6526346,-4.1148148,0.87092036,1.3221934,-0.56982,-9.169792,5.7029886
0.2721378,4.6483026,-4.164882,0.7931561,1.3818482,-0.6799533,-9.14585,5.257667
0.27344012,4.643976,-4.164882,0.7931561,1.3818482,-0.6799533,-9.14585,5.257667
0.27478376,4.6396317,-4.2011013,0.7185876,1.421263,-0.92895025,-9.255983,4.7500963
0.27612263,4.635289,-4.2011013,0.7185876,1.421263,-0.92895025,-9.255983,4.7500963
0.27749342,4.6309304,-4.223472,0.64082325,1.4457641,-1.1204864,-9.394848,4.4580035
0.27885684,4.6265817,-4.223472,0.64082325,1.4457641,-1.1204864,-9.394848,4.4580035
0.28024232,4.6222353,-4.2341247,0.55773264,1.4585472,-1.4317327,-9.600749,4.1515455
0.28162345,4.6178913,-4.2341247,0.55773264,1.4585472,-1.4317327,-9.600749,4.1515455
0.283012,4.613584,-4.2298636,0.46718514,1.4617431,-1.6807296,-9.821015,3.7493198
0.2844035,4.6092567,-4.2298636,0.46718514,1.4617431,-1.6807296,-9.821015,3.7493198
0.28579646,4.6049905,-4.2096233,0.3670503,1.4585472,-1.9009962,-10.0748005,3.3854012
0.2871873,4.6007214,-4.2096233,0.3670503,1.4585472,-1.9009962,-10.0748005,3.3854012
0.28858626,4.596506,-4.17447,0.25732806,1.4500252,-2.183512,-10.328587,2.9975405
0.2899805,4.592297,-4.17447,0.25732806,1.4500252,-2.183512,-10.328587,2.9975405
0.29138085,4.5881543,-4.126533,0.13695318,1.4361767,-2.3750482,-10.462662,2.6001031
0.29276595,4.58405,-4.126533,0.13695318,1.4361767,-2.3750482,-10.462662,2.6001031
0.2941511,4.5800233,-4.063682,0.00592564,1.4159367,-2.3080103,-10.524911,2.2409728
0.29553542,4.5759935,-4.063682,0.00592564,1.4159367,-2.3080103,-10.524911,2.2409728
0.29690248,4.5720806,-3.9880486,-0.133624,1.3903704,-2.0350714,-10.5919485,1.8100165
0.29826936,4.5681653,-3.9880486,-0.133624,1.3903704,-2.0350714,-10.5919485,1.8100165
0.29961616,4.5643725,-3.9070883,-0.27317366,1.3605429,-1.7956513,-10.515334,1.388637
0.30096346,4.560578,-3.9070883,-0.27317366,1.3605429,-1.7956513,-10.515334,1.388637
0.30228883,4.5569124,-3.8186715,-0.40846223,1.3232586,-1.6711528,-10.414778,1.1540052
0.3036154,4.5532455,-3.8186715,-0.40846223,1.3232586,-1.6711528,-10.414778,1.1540052
0.30491152,4.5497127,-3.7249281,-0.5352287,1.2763871,-1.6472107,-10.414778,0.89064306
0.30620912,4.5461783,-3.7249281,-0.5352287,1.2763871,-1.6472107,-10.414778,0.89064306
0.3074774,4.542776,-3.63225,-0.65453833,1.2263197,-1.8148049,-10.352529,0.56982
0.3087475,4.539374,-3.63225,-0.65453833,1.2263197,-1.8148049,-10.352529,0.56982
0.30998182,4.5361013,-3.5395722,-0.76532584,1.1709259,-1.9393034,-10.218452,0.25378537
0.31121695,4.5328317,-3.5395722,-0.76532584,1.1709259,-1.9393034,-10.218452,0.25378537
0.31241304,4.5296826,-3.4479594,-0.8718523,1.1144669,-2.0111294,-10.0748005,-0.1388637
0.3136105,4.5265365,-3.4479594,-0.8718523,1.1144669,-2.0111294,-10.0748005,-0.1388637
0.31475767,4.5235114,-3.3563466,-0.9698566,1.0580078,-1.9871874,-9.974244,-0.5506664
0.3159068,4.5204897,-3.3563466,-0.9698566,1.0580078,-1.9871874,-9.974244,-0.5506664
0.3170048,4.517575,-3.268995,-1.0614693,0.99941826,-2.0111294,-9.940725,-0.90979666
0.31810415,4.5146666,-3.268995,-1.0614693,0.99941826,-2.0111294,-9.940725,-0.90979666
0.31913742,4.5118484,-3.1837738,-1.1424295,0.94082874,-1.9201498,-9.902418,-1.3503298
0.32017577,4.5090294,-3.1837738,-1.1424295,0.94082874,-1.9201498,-9.902418,-1.3503298
0.3211499,4.506288,-3.1028137,-1.2095411,0.8833045,-1.9297266,-9.868899,-1.8004397
0.32212865,4.5035467,-3.1028137,-1.2095411,0.8833045,-1.9297266,-9.868899,-1.8004397
0.32306176,4.5008636,-3.0261147,-1.2638696,0.82684547,-1.9632454,-9.859323,-2.2026656
0.32399836,4.4981813,-3.0261147,-1.2638696,0.82684547,-1.9632454,-9.859323,-2.2026656
0.32491177,4.495535,-2.9536767,-1.3054149,0.7682559,-1.9871874,-9.844957,-2.7629087
0.32581905,4.492912,-2.9536767,-1.3054149,0.7682559,-1.9871874,-9.844957,-2.7629087
0.32670882,4.4903355,-2.8833692,-1.3352423,0.7086011,-1.9919758,-9.68694,-3.3135753
0.32759723,4.487768,-2.8833692,-1.3352423,0.7086011,-1.9919758,-9.68694,-3.3135753
0.3284695,4.4852505,-2.8151922,-1.3522866,0.6510768,-2.0254946,-9.3421755,-4.0318356
0.32934275,4.4827366,-2.8151922,-1.3522866,0.6510768,-2.0254946,-9.3421755,-4.0318356
0.33018532,4.480284,-2.7470155,-1.3533518,0.59355253,-1.9776106,-8.820239,-5.109226
0.33103007,4.477833,-2.7470155,-1.3533518,0.59355253,-1.9776106,-8.820239,-5.109226
0.331833,4.475434,-2.6820343,-1.3373728,0.5370935,-1.9249382,-8.154651,-6.1195793
0.3326369,4.4730396,-2.6820343,-1.3373728,0.5370935,-1.9249382,-8.154651,-6.1195793
0.3333853,4.470697,-2.62451,-1.3022192,0.4838303,-1.6998832,-7.503428,-6.95755
0.33413756,4.4683495,-2.62451,-1.3022192,0.4838303,-1.6998832,-7.503428,-6.95755
0.33481553,4.4660425,-2.579769,-1.2489558,0.4295018,-1.3599066,-7.843405,-7.1586633
0.33549792,4.4637284,-2.579769,-1.2489558,0.4295018,-1.3599066,-7.843405,-7.1586633
0.33609954,4.4614387,-2.5339625,-1.1733221,0.37197754,-1.0486604,-8.365341,-7.264008
0.33670256,4.4591517,-2.5339625,-1.1733221,0.37197754,-1.0486604,-8.365341,-7.264008
0.33722797,4.456892,-2.4785688,-1.0731872,0.3155185,-1.0007763,-8.336611,-7.493851
0.33775356,4.45464,-2.4785688,-1.0731872,0.3155185,-1.0007763,-8.336611,-7.493851
0.33823317,4.452396,-2.415718,-0.95068187,0.26971215,-2.135628,-8.063671,-8.025364
0.33871397,4.450154,-2.415718,-0.95068187,0.26971215,-2.135628,-8.063671,-8.025364
0.33914128,4.447936,-2.3539329,-0.83030695,0.2345584,-2.6479871,-7.97748,-8.499416
0.33957005,4.4457183,-2.3539329,-0.83030695,0.2345584,-2.6479871,-7.97748,-8.499416
0.33993486,4.4435277,-2.2953432,-0.7280416,0.20366573,-2.1404164,-7.9008656,-8.6095495
0.34030163,4.4413323,-2.2953432,-0.7280416,0.20366573,-2.1404164,-7.9008656,-8.6095495
0.3406466,4.4389625,-2.2388842,-0.62044984,0.18022992,-2.0446482,-7.723695,-9.02614
0.34093687,4.4369745,-2.2388842,-0.62044984,0.18022992,-2.0446482,-7.723695,-9.02614
0.34120393,4.4348435,-2.1866863,-0.5054013,0.16425095,-1.9009962,-7.5561004,-9.32781
0.3414738,4.432695,-2.1866863,-0.5054013,0.16425095,-1.9009962,-7.5561004,-9.32781
0.34170648,4.4305506,-2.1387494,-0.3828959,0.15785937,-1.9728222,-7.4986396,-9.643845
0.34194133,4.4283924,-2.1387494,-0.3828959,0.15785937,-1.9728222,-7.4986396,-9.643845
0.34212387,4.4262495,-2.0950735,-0.26039046,0.15040252,-1.6328455,-8.192958,-9.303867
0.34230825,4.4240894,-2.0950735,-0.26039046,0.15040252,-1.6328455,-8.192958,-9.303867
0.3424654,4.4218493,-2.056724,-0.13042821,0.14933725,-2.0685902,-8.39886,-9.409213
0.34261048,4.4197836,-2.056724,-0.13042821,0.14933725,-2.0685902,-8.39886,-9.409213
0.3427305,4.4176474,-2.0194397,-0.0025964756,0.15253304,-2.456451,-8.719683,-9.260772
0.34284782,4.415554,-2.0194397,-0.0025964756,0.15253304,-2.456451,-8.719683,-9.260772
0.34294498,4.413401,-1.9778944,0.11138682,0.16105516,-2.72939,-9.078813,-8.944737
0.3430446,4.4111814,-1.9778944,0.11138682,0.16105516,-2.72939,-9.078813,-8.944737
0.3431317,4.4090357,-1.9320881,0.21152169,0.17916466,-2.906561,-9.021352,-8.710106
0.34321746,4.4069014,-1.9320881,0.21152169,0.17916466,-2.906561,-9.021352,-8.710106
0.34331223,4.404768,-1.8862817,0.29993862,0.20686153,-3.4093432,-9.050082,-8.485051
0.34340656,4.402626,-1.8862817,0.29993862,0.20686153,-3.4093432,-9.050082,-8.485051
0.34350833,4.400491,-1.8415406,0.3670503,0.24094999,-3.2561142,-9.174581,-8.135497
0.3436071,4.3983946,-1.8415406,0.3670503,0.24094999,-3.2561142,-9.174581,-8.135497
0.34371984,4.3963103,-1.7946689,0.418183,0.28036478,-3.0502129,-9.442732,-7.73806
0.3438314,4.3942256,-1.7946689,0.418183,0.28036478,-3.0502129,-9.442732,-7.73806
0.34397045,4.3921747,-1.7414057,0.4629241,0.32510588,-3.1316159,-9.605537,-7.714118
0.3441087,4.390115,-1.7414057,0.4629241,0.32510588,-3.1316159,-9.605537,-7.714118
0.3442637,4.388112,-1.6774899,0.49488202,0.3634554,-2.896984,-9.773131,-7.5321584
0.34441715,4.386109,-1.6774899,0.49488202,0.3634554,-2.896984,-9.773131,-7.5321584
0.34458938,4.3841696,-1.6029214,0.51938313,0.39860913,-2.7150247,-9.830592,-7.465121
0.34476003,4.3822293,-1.6029214,0.51938313,0.39860913,-2.7150247,-9.830592,-7.465121
0.3449526,4.380363,-1.5187654,0.5406884,0.4295018,-2.8299465,-9.940725,-7.398083
0.3451451,4.3784833,-1.5187654,0.5406884,0.4295018,-2.8299465,-9.940725,-7.398083
0.34535882,4.3767138,-1.423957,0.55347157,0.45613343,-3.040636,-10.007763,-7.3406224
0.34557205,4.374935,-1.423957,0.55347157,0.45613343,-3.040636,-10.007763,-7.3406224
0.34581086,4.373254,-1.3206263,0.5545368,0.4806345,-3.2130187,-10.036493,-7.264008
0.34604818,4.3715725,-1.3206263,0.5545368,0.4806345,-3.2130187,-10.036493,-7.264008
0.34630916,4.3700056,-1.2087735,0.5406884,0.503005,-3.265691,-10.141838,-7.067683
0.3465688,4.3684382,-1.2087735,0.5406884,0.503005,-3.265691,-10.141838,-7.067683
0.34684968,4.3669987,-1.089464,0.51299155,0.5200493,-3.2513258,-10.290278,-6.9719152
0.34684968,4.3669987,-1.089464,0.51299155,0.5200493,-3.2513258,-10.290278,-6.9719152
0.34742323,4.364142,-0.9605669,0.47570726,0.53283244,-3.1124623,-10.462662,-6.7564373
0.34772465,4.362809,-0.9605669,0.47570726,0.53283244,-3.1124623,-10.462662,-6.7564373
0.34805346,4.3615904,-0.81888676,0.43416196,0.539224,-3.1316159,-10.6637745,-6.517017
0.3483823,4.360366,-0.81888676,0.43416196,0.539224,-3.1316159,-10.6637745,-6.517017
0.34864733,4.35955,-0.6665539,0.38942084,0.5381588,-3.1603463,-10.817003,-6.291962
0.34864733,4.35955,-0.6665539,0.38942084,0.5381588,-3.1603463,-10.817003,-6.291962
0.34864733,4.35955,-0.50250316,0.34361446,0.53070194,-3.3518825,-11.022904,-6.114791
0.3497268,4.3569098,-0.50250316,0.34361446,0.53070194,-3.3518825,-11.022904,-6.114791
0.3497268,4.3569098,-0.50250316,0.34361446,0.53070194,-3.3518825,-11.022904,-6.114791
0.35029525,4.355867,-0.32779983,0.29354703,0.5200493,-3.4715924,-11.300632,-5.9759274
0.35058436,4.3555307,-0.139248,0.23602276,0.5072661,-3.7014358,-11.597513,-5.755661
0.3509106,4.3551507,-0.139248,0.23602276,0.5072661,-3.7014358,-11.597513,-5.755661
0.35123256,4.3550024,0.06315224,0.16997637,0.4891566,-3.787627,-11.99495,-5.645528
