Pitch,Roll,Gyro_X,Gyro_Y,Gyro_Z,Accel_X,Accel_Y,Accel_Z
6.0017343,4.3979826,4.9985223,-0.34561163,-1.4794521,3.490746,-7.9152308,-5.9902925
6.0017343,4.3979826,4.9985223,-0.34561163,-1.4794521,3.490746,-7.9152308,-5.9902925
5.9973574,4.413254,5.10931,-0.33176318,-1.5284543,3.4332852,-7.0581064,-5.7029886
5.9962835,4.4168706,5.191335,-0.31898,-1.5710648,3.4332852,-7.0581064,-5.7029886
5.9948745,4.421608,5.191335,-0.31898,-1.5710648,3.4332852,-7.0581064,-5.7029886
5.993374,4.426509,5.25099,-0.29874,-1.6040881,3.940856,-6.5505357,-5.3582234
5.9918685,4.4314156,5.25099,-0.29874,-1.6040881,3.940856,-6.5505357,-5.3582234
5.9903107,4.4363775,5.2840133,-0.26997787,-1.6296544,4.098873,-6.564901,-4.783615
5.9887486,4.441345,5.2840133,-0.26997787,-1.6296544,4.098873,-6.564901,-4.783615
5.987154,4.446332,5.3010573,-0.2326936,-1.6456333,4.1371803,-6.009446,-4.572925
5.9855556,4.4513245,5.3010573,-0.2326936,-1.6456333,4.1371803,-6.009446,-4.572925
5.9839125,4.456371,5.299992,-0.19008303,-1.6509597,4.2425256,-5.707777,-4.074931
5.982293,4.461338,5.299992,-0.19008303,-1.6509597,4.2425256,-5.707777,-4.074931
5.980677,4.466324,5.2808175,-0.14321138,-1.6424376,3.514688,-5.2959743,-3.9695864
5.979054,4.471327,5.2808175,-0.14321138,-1.6424376,3.514688,-5.2959743,-3.9695864
5.9774156,4.4763136,5.2456636,-0.11444924,-1.6264586,3.9456444,-4.927267,-3.6583402
5.975777,4.481297,5.2456636,-0.11444924,-1.6264586,3.9456444,-4.927267,-3.6583402
5.974126,4.4862537,5.1934657,-0.10060081,-1.6083491,4.4915223,-4.189853,-3.2800562
5.972473,4.491212,5.1934657,-0.10060081,-1.6083491,4.4915223,-4.189853,-3.2800562
5.9708185,4.496132,5.117832,-0.079295516,-1.5827827,5.133168,-3.9312792,-2.5809495
5.9691606,4.5010576,5.117832,-0.079295516,-1.5827827,5.133168,-3.9312792,-2.5809495
5.9675174,4.5059114,5.0176973,-0.05372917,-1.5561512,5.6359506,-3.6104562,-2.0494366
5.965876,4.510757,5.0176973,-0.05372917,-1.5561512,5.6359506,-3.6104562,-2.0494366
5.9642487,4.515553,4.8994527,-0.018575443,-1.5263238,5.5737014,-4.4101195,-1.1204864
5.9626245,4.5203357,4.8994527,-0.018575443,-1.5263238,5.5737014,-4.4101195,-1.1204864
5.9610295,4.5250487,4.7758822,0.030426722,-1.4869089,4.807557,-5.0278234,-0.62249243
5.9594345,4.529758,4.7758822,0.030426722,-1.4869089,4.807557,-5.0278234,-0.62249243
5.957885,4.5343795,4.6629643,0.06771098,-1.4421679,4.807557,-4.9224787,-0.25857377
5.9562845,4.539145,4.6629643,0.06771098,-1.4421679,4.807557,-4.9224787,-0.25857377
5.9548116,4.543605,4.555372,0.09221206,-1.3867741,5.0517654,-4.711789,0.0047884034
5.9533157,4.5481296,4.555372,0.09221206,-1.3867741,5.0517654,-4.711789,0.0047884034
5.9518914,4.5525737,4.441389,0.12310473,-1.3122056,4.644751,-4.2664676,0.29688102
5.950468,4.557015,4.441389,0.12310473,-1.3122056,4.644751,-4.2664676,0.29688102
5.949149,4.561364,4.3071656,0.1539974,-1.2099402,3.9552212,-4.3239284,0.5267244
5.9478292,4.5657144,4.3071656,0.1539974,-1.2099402,3.9552212,-4.3239284,0.5267244
5.946618,4.5699325,4.159094,0.15506266,-1.1002179,4.1515455,-4.0557775,0.7326257
5.9454107,4.5741353,4.159094,0.15506266,-1.1002179,4.1515455,-4.0557775,0.7326257
5.9443116,4.578184,3.993978,0.1390837,-0.98623466,4.5537715,-3.6104562,0.8571242
5.9432144,4.5822268,3.993978,0.1390837,-0.98623466,4.5537715,-3.6104562,0.8571242
5.9422393,4.5860786,3.8032959,0.12736578,-0.86585975,4.462792,-2.8921957,0.94810385
5.9412646,4.589927,3.8032959,0.12736578,-0.86585975,4.462792,-2.8921957,0.94810385
5.9404144,4.593554,3.5817208,0.11990894,-0.74441963,5.0996494,-2.2840683,1.2401965
5.9395614,4.5971932,3.5817208,0.11990894,-0.74441963,5.0996494,-2.2840683,1.2401965
5.9388323,4.600568,3.3260572,0.12630053,-0.62724054,5.1906295,-1.3790601,1.4700398
5.9381,4.6039567,3.3260572,0.12630053,-0.62724054,5.1906295,-1.3790601,1.4700398
5.9374824,4.607059,3.0331097,0.1508016,-0.5153878,5.386954,-0.7757214,1.7190368
5.9368653,4.610159,3.0331097,0.1508016,-0.5153878,5.386954,-0.7757214,1.7190368
5.936345,4.6129518,2.7039428,0.1838248,-0.41844872,6.129156,-0.29209262,2.1883004
5.935826,4.615742,2.7039428,0.1838248,-0.41844872,6.129156,-0.29209262,2.1883004
5.93539,4.6181903,2.3449488,0.23389223,-0.33535808,6.435614,0.2825158,2.5905263
5.9349523,4.620651,2.3449488,0.23389223,-0.33535808,6.435614,0.2825158,2.5905263
5.934586,4.6227436,1.9571924,0.3031344,-0.26398537,6.4020953,0.7517793,2.9400797
5.934221,4.6248345,1.9571924,0.3031344,-0.26398537,6.4020953,0.7517793,2.9400797
5.933919,4.6265535,1.5428046,0.38302925,-0.19900422,6.1195793,0.9911995,3.41892
5.9336176,4.628269,1.5428046,0.38302925,-0.19900422,6.1195793,0.9911995,3.41892
5.933377,4.6295853,1.1081767,0.4629241,-0.13828415,5.875371,1.0630256,3.892972
5.933137,4.630899,1.1081767,0.4629241,-0.13828415,5.875371,1.0630256,3.892972
5.9329543,4.6317997,0.65970033,0.53536206,-0.078629345,5.6120086,0.9528923,4.2904096
5.932773,4.6326995,0.65970033,0.53536206,-0.078629345,5.6120086,0.9528923,4.2904096
5.932649,4.6331654,0.20057136,0.59395164,-0.020039797,5.793968,0.56982,4.8698063
5.9325247,4.633633,0.20057136,0.59395164,-0.020039797,5.793968,0.56982,4.8698063
5.932454,4.6336617,-0.26068816,0.6418885,0.035353955,6.1866174,0.062249243,5.45878
5.9323826,4.63369,-0.26068816,0.6418885,0.035353955,6.1866174,0.062249243,5.45878
5.9323664,4.6332827,-0.71875185,0.6876949,0.09181297,6.411672,-0.7326257,5.947197
5.932349,4.632875,-0.71875185,0.6876949,0.09181297,6.411672,-0.7326257,5.947197
5.9323835,4.632045,-1.1650977,0.73350126,0.1450762,6.4547677,-1.4556746,6.291962
5.9324174,4.631212,-1.1650977,0.73350126,0.1450762,6.4547677,-1.4556746,6.291962
5.932507,4.6299706,-1.5954645,0.7771771,0.20153521,6.1195793,-2.030283,6.4787097
5.9325957,4.628729,-1.5954645,0.7771771,0.20153521,6.1195793,-2.030283,6.4787097
5.9327445,4.6270847,-2.0098524,0.809135,0.26225528,5.8562174,-2.408567,6.603208
5.9328914,4.625444,-2.0098524,0.809135,0.26225528,5.8562174,-2.408567,6.603208
5.9331,4.6234155,-2.4103918,0.82404876,0.32617116,5.645528,-2.6192567,6.5218053
5.9333076,4.6213784,-2.4103918,0.82404876,0.32617116,5.645528,-2.6192567,6.5218053
5.9335876,4.618961,-2.7981482,0.8219182,0.39860913,5.410896,-2.8443117,6.445191
5.9338646,4.616545,-2.7981482,0.8219182,0.39860913,5.410896,-2.8443117,6.445191
5.934218,4.613753,-3.172056,0.80274343,0.47637343,5.554548,-3.2513258,6.3302693
5.93457,4.610952,-3.172056,0.80274343,0.47637343,5.554548,-3.2513258,6.3302693
5.935002,4.607805,-3.5299847,0.772916,0.5594641,5.425261,-3.5338416,5.985504
5.935002,4.607805,-3.5299847,0.772916,0.5594641,5.425261,-3.5338416,5.985504
5.935908,4.6012754,-3.868739,0.7345665,0.64361995,5.717354,-3.845088,5.5162406
5.9364285,4.5976853,-3.868739,0.7345665,0.64361995,5.717354,-3.845088,5.5162406
5.936981,4.5940933,-4.1861877,0.6919559,0.72671056,5.803545,-4.2425256,5.056554
5.9375873,4.590141,-4.1861877,0.6919559,0.72671056,5.803545,-4.2425256,5.056554
5.9382486,4.5860124,-4.481266,0.6461496,0.80554014,5.7029886,-4.4196963,4.3478703
5.9389067,4.581888,-4.481266,0.6461496,0.80554014,5.7029886,-4.4196963,4.3478703
5.9396386,4.577457,-4.751843,0.5928863,0.8790434,5.6886234,-4.620809,3.667917
5.9403725,4.573,-4.751843,0.5928863,0.8790434,5.6886234,-4.620809,3.667917
5.9411755,4.5683093,-5.0000496,0.5342968,0.95467716,5.5880666,-4.9224787,3.0454245
5.9419756,4.563624,-5.0000496,0.5342968,0.95467716,5.5880666,-4.9224787,3.0454245
5.9428554,4.558666,-5.221625,0.47251147,1.0292457,5.57849,-5.45878,2.4660277
5.9437256,4.553748,-5.221625,0.47251147,1.0292457,5.57849,-5.45878,2.4660277
5.9446716,4.5486145,-5.4123073,0.41072613,1.1016836,5.568913,-6.05733,1.9632454
5.945616,4.543476,-5.4123073,0.41072613,1.1016836,5.568913,-6.05733,1.9632454
5.946633,4.5381727,-5.568901,0.35320187,1.1751869,5.592855,-6.7708025,1.3982137
5.9476485,4.5328646,-5.568901,0.35320187,1.1751869,5.592855,-6.7708025,1.3982137
5.9487367,4.5274277,-5.6914062,0.3010039,1.2497554,5.4300494,-7.4507556,0.7422025
5.949821,4.522003,-5.6914062,0.3010039,1.2497554,5.4300494,-7.4507556,0.7422025
5.950982,4.5164566,-5.778758,0.25626278,1.3189976,5.0374002,-8.130709,0.095768064
5.952139,4.510924,-5.778758,0.25626278,1.3189976,5.0374002,-8.130709,0.095768064
5.9533615,4.5053406,-5.832021,0.21258694,1.3871746,4.735731,-8.834604,-0.58418524
5.954588,4.4997377,-5.832021,0.21258694,1.3871746,4.735731,-8.834604,-0.58418524
5.95588,4.494105,-5.8554573,0.1657153,1.4564167,4.5394063,-9.390059,-1.1779473
5.957168,4.488492,-5.8554573,0.1657153,1.4564167,4.5394063,-9.390059,-1.1779473
5.958515,4.482851,-5.851196,0.118843675,1.5235285,4.3861775,-9.868899,-1.7860745
5.959863,4.477216,-5.851196,0.118843675,1.5235285,4.3861775,-9.868899,-1.7860745
5.9612584,4.4715695,-5.8203034,0.07516783,1.5906401,4.2281604,-10.223241,-2.327164
5.962656,4.4659357,-5.8203034,0.07516783,1.5906401,4.2281604,-10.223241,-2.327164
5.9641266,4.4602585,-5.7649097,0.03681831,1.6545559,4.0462008,-10.457873,-2.8107927
5.9655824,4.4546123,-5.7649097,0.03681831,1.6545559,4.0462008,-10.457873,-2.8107927
5.9671416,4.4489875,-5.6882105,0.0005993177,1.7142107,3.9743748,-10.702082,-3.0693667
5.9686794,4.443385,-5.6882105,0.0005993177,1.7142107,3.9743748,-10.702082,-3.0693667
5.9703116,4.437841,-5.593402,-0.027097559,1.7685392,4.036624,-11.027693,-3.347094
5.971922,4.432314,-5.593402,-0.027097559,1.7685392,4.036624,-11.027693,-3.347094
5.9736285,4.426879,-5.4826145,-0.043076526,1.8164761,4.0462008,-11.473015,-3.6391866
5.9753156,4.421451,-5.4826145,-0.043076526,1.8164761,4.0462008,-11.473015,-3.6391866
5.9771028,4.416149,-5.356913,-0.045207053,1.8569561,3.9791632,-11.836933,-4.003105
5.9788823,4.410844,-5.356913,-0.045207053,1.8569561,3.9791632,-11.836933,-4.003105
5.980718,4.4056826,-5.2152333,-0.040945996,1.8878489,3.9312792,-12.186486,-4.477157
5.982546,4.4005337,-5.2152333,-0.040945996,1.8878489,3.9312792,-12.186486,-4.477157
5.9844117,4.3955455,-5.0597043,-0.03242388,1.9059583,3.787627,-12.540829,-4.8985367
5.986221,4.390704,-5.0597043,-0.03242388,1.9059583,3.787627,-12.540829,-4.8985367
5.9880915,4.385889,-4.889262,-0.0228365,1.9123499,3.7205894,-12.880805,-5.353435
5.990014,4.380937,-4.889262,-0.0228365,1.9123499,3.7205894,-12.880805,-5.353435
5.991876,4.376322,-4.7017756,-0.014314385,1.9070235,3.691859,-13.220781,-5.631162
5.9937253,4.3717356,-4.7017756,-0.014314385,1.9070235,3.691859,-13.220781,-5.631162
5.9955688,4.367325,-4.4961796,-0.008988062,1.8878489,3.6152446,-13.512875,-5.985504
5.997418,4.3628983,-4.4961796,-0.008988062,1.8878489,3.6152446,-13.512875,-5.985504
5.9992304,4.3587236,-4.2682133,-0.0047270046,1.8558909,3.5817258,-13.776237,-6.1195793
6.0010405,4.354555,-4.2682133,-0.0047270046,1.8558909,3.5817258,-13.776237,-6.1195793
6.002813,4.3506374,-4.0125494,-0.00366174,1.8111498,3.5817258,-13.986926,-6.2009826
6.004588,4.346714,-4.0125494,-0.00366174,1.8111498,3.5817258,-13.986926,-6.2009826
6.0063057,4.34307,-3.7313197,-0.0025964756,1.7546908,3.5338416,-14.149732,-6.4308257
6.008023,4.339428,-3.7313197,-0.0025964756,1.7546908,3.5338416,-14.149732,-6.4308257
6.009673,4.336094,-3.4255888,-0.00366174,1.6843834,3.4620156,-14.250289,-6.5457473
6.0113444,4.332718,-3.4255888,-0.00366174,1.6843834,3.4620156,-14.250289,-6.5457473
6.0129185,4.329726,-3.0964222,-0.00366174,1.6044885,3.2752678,-14.288596,-6.6415157
6.0144935,4.3267326,-3.0964222,-0.00366174,1.6044885,3.2752678,-14.288596,-6.6415157
6.0159936,4.324068,-2.7480807,-0.00046594674,1.5171368,3.1890767,-14.389153,-6.7851677
6.017494,4.3214025,-2.7480807,-0.00046594674,1.5171368,3.1890767,-14.389153,-6.7851677
6.018911,4.3190875,-2.3880212,0.0048603755,1.4255241,2.9879637,-14.331692,-6.9048777
6.020324,4.3167777,-2.3880212,0.0048603755,1.4255241,2.9879637,-14.331692,-6.9048777
6.0216503,4.3148265,-2.020505,0.013382491,1.332846,2.8634653,-14.369999,-7.038953
6.0229754,4.3128753,-2.020505,0.013382491,1.332846,2.8634653,-14.369999,-7.038953
6.0242167,4.3112893,-1.6551193,0.026165664,1.2401681,2.72939,-14.360422,-6.991069
6.0255194,4.3096247,-1.6551193,0.026165664,1.2401681,2.72939,-14.360422,-6.991069
6.0278063,4.3071585,-1.2961252,0.043209895,1.1453595,2.6384103,-14.240712,-7.0341644
6.0278063,4.3071585,-1.2961252,0.043209895,1.1453595,2.6384103,-14.240712,-7.0341644
6.028843,4.306279,-0.9477837,0.06344992,1.0494857,2.5761611,-14.135366,-6.9862804
6.0298963,4.305386,-0.9477837,0.06344992,1.0494857,2.5761611,-14.135366,-6.9862804
6.0298963,4.305386,-0.9477837,0.06344992,1.0494857,2.5761611,-14.135366,-6.9862804
6.0317526,4.3042974,-0.6122254,0.086885735,0.95254666,2.6192567,-14.001291,-6.861782
6.0326385,4.304039,-0.29051554,0.11245208,0.85134655,2.6479871,-13.771448,-6.799533
6.033712,4.3041134,0.0141500775,0.1390837,0.7469506,2.6479871,-13.40753,-6.6510925
6.0340786,4.304138,0.0141500775,0.1390837,0.7469506,2.6479871,-13.40753,-6.6510925
6.034812,4.304188,0.0141500775,0.1390837,0.7469506,2.6479871,-13.40753,-6.6510925
6.035422,4.3045125,0.30283675,0.16358478,0.63722837,2.657564,-13.192051,-6.612785
6.0360327,4.304837,0.30283675,0.16358478,0.63722837,2.657564,-13.192051,-6.612785
6.03652,4.3054285,0.57874024,0.1838248,0.5157882,2.719813,-12.943054,-6.5218053
6.037007,4.306018,0.57874024,0.1838248,0.5157882,2.719813,-12.943054,-6.5218053
6.0373645,4.306855,0.8407953,0.1987385,0.38902175,2.7629087,-12.684481,-6.3542113
6.0377216,4.3076925,0.8407953,0.1987385,0.38902175,2.7629087,-12.684481,-6.3542113
6.0379343,4.3087654,1.093263,0.20726062,0.2526679,2.9257145,-12.459426,-6.215348
6.038146,4.309837,1.093263,0.20726062,0.2526679,2.9257145,-12.459426,-6.215348
6.0382004,4.3111277,1.3404043,0.2083259,0.106726676,3.122039,-12.315774,-6.1100025
6.0382533,4.312404,1.3404043,0.2083259,0.106726676,3.122039,-12.315774,-6.1100025
6.038151,4.313927,1.5854151,0.20406483,-0.04773667,3.2082303,-12.08593,-5.8562174
6.038047,4.3154674,1.5854151,0.20406483,-0.04773667,3.2082303,-12.08593,-5.8562174
6.0377784,4.317214,1.8293607,0.19660798,-0.20752634,3.3087866,-11.880029,-5.7843914
6.0375123,4.3189497,1.8293607,0.19660798,-0.20752634,3.3087866,-11.880029,-5.7843914
6.03709,4.3209248,2.0743716,0.18275954,-0.37157705,3.3375173,-11.784261,-5.6790466
6.036667,4.3229074,2.0743716,0.18275954,-0.37157705,3.3375173,-11.784261,-5.6790466
6.036106,4.325108,2.3225782,0.16251951,-0.5356278,3.2273839,-11.358093,-5.7269306
6.0355463,4.3273063,2.3225782,0.16251951,-0.5356278,3.2273839,-11.358093,-5.7269306
6.0348215,4.3297353,2.5707848,0.14014897,-0.6986132,3.41892,-11.166556,-5.7029886
6.0340977,4.332164,2.5707848,0.14014897,-0.6986132,3.41892,-11.166556,-5.7029886
6.0332146,4.3348265,2.821122,0.11458261,-0.8562724,3.6152446,-11.228806,-5.5258174
6.0323334,4.337488,2.821122,0.11458261,-0.8562724,3.6152446,-11.228806,-5.5258174
6.0313234,4.3403835,3.0767853,0.0911468,-1.0054094,3.5913026,-11.209652,-5.449203
6.0303135,4.3432817,3.0767853,0.0911468,-1.0054094,3.5913026,-11.209652,-5.449203
6.029198,4.3464255,3.3431015,0.06771098,-1.1438938,3.466804,-10.912771,-5.650316
6.0280504,4.349661,3.3431015,0.06771098,-1.1438938,3.466804,-10.912771,-5.650316
6.0266366,4.3535614,3.6136787,0.046405688,-1.2717255,3.5290532,-10.668563,-5.746084
6.025066,4.3578935,3.6136787,0.046405688,-1.2717255,3.5290532,-10.668563,-5.746084
6.024319,4.359968,3.884256,0.0251004,-1.3857088,3.2704794,-10.5680065,-5.9567738
6.0230184,4.3635807,3.884256,0.0251004,-1.3857088,3.2704794,-10.5680065,-5.9567738
6.0216117,4.3674803,4.151637,-0.0025964756,-1.4837132,3.4237084,-10.189722,-6.253655
6.020203,4.371384,4.151637,-0.0025964756,-1.4837132,3.4237084,-10.189722,-6.253655
6.0187125,4.37553,4.4094315,-0.036684938,-1.5678691,3.6870706,-9.715671,-6.459556
6.0172205,4.379676,4.4094315,-0.036684938,-1.5678691,3.6870706,-9.715671,-6.459556
6.0156717,4.384032,4.654442,-0.06544708,-1.6381766,3.8498764,-9.519346,-6.5218053
6.014106,4.3884325,4.654442,-0.06544708,-1.6381766,3.8498764,-9.519346,-6.5218053
6.012496,4.3930273,4.884539,-0.0856871,-1.6946355,3.9839516,-9.351752,-6.612785
6.0108824,4.397627,4.884539,-0.0856871,-1.6946355,3.9839516,-9.351752,-6.612785
6.009235,4.40244,5.103984,-0.09847028,-1.7351155,3.8786068,-9.270349,-6.631939
6.007586,4.407254,5.103984,-0.09847028,-1.7351155,3.8786068,-9.270349,-6.631939
6.0059094,4.412276,5.314906,-0.1037966,-1.7638777,3.8594532,-9.279925,-6.6846113
6.0042324,4.4172935,5.314906,-0.1037966,-1.7638777,3.8594532,-9.279925,-6.6846113
6.002545,4.422505,5.520502,-0.10486186,-1.7755957,3.845088,-8.901642,-6.83784
6.0008426,4.4277544,5.520502,-0.10486186,-1.7755957,3.845088,-8.901642,-6.83784
5.9991508,4.4331813,5.720772,-0.09740501,-1.7713345,3.7349546,-8.848969,-6.8186865
5.997453,4.4386206,5.720772,-0.09740501,-1.7713345,3.7349546,-8.848969,-6.8186865
5.9957843,4.4442496,5.9093237,-0.08142605,-1.7478987,3.241749,-8.599973,-7.029376
5.994115,4.449875,5.9093237,-0.08142605,-1.7478987,3.241749,-8.599973,-7.029376
5.9924655,4.4556923,6.089353,-0.07183866,-1.7116797,3.53863,-8.441956,-7.0964136
5.990814,4.461512,6.089353,-0.07183866,-1.7116797,3.53863,-8.441956,-7.0964136
5.989192,4.4674997,6.261926,-0.064381815,-1.6669387,3.9743748,-8.0924015,-7.005434
5.987561,4.4735136,6.261926,-0.064381815,-1.6669387,3.9743748,-8.0924015,-7.005434
5.985972,4.4796867,6.4217157,-0.043076526,-1.6147407,4.0797195,-7.714118,-6.9144545
5.9843793,4.485869,6.4217157,-0.043076526,-1.6147407,4.0797195,-7.714118,-6.9144545
5.982835,4.4922,6.5665917,-0.007922798,-1.5550859,4.027047,-7.249643,-6.7133417
5.9812856,4.498545,6.5665917,-0.007922798,-1.5550859,4.027047,-7.249643,-6.7133417
5.9797897,4.505025,6.6933584,0.031491987,-1.4901048,4.0701427,-7.2592196,-6.339846
5.9782896,4.5115194,6.6933584,0.031491987,-1.4901048,4.0701427,-7.2592196,-6.339846
5.9768515,4.518123,6.8030806,0.06664571,-1.4251236,3.4572272,-5.535394,-6.50744
5.9754095,4.524743,6.8030806,0.06664571,-1.4251236,3.4572272,-5.535394,-6.50744
5.973984,4.531462,6.889367,0.09221206,-1.3633382,5.133168,-5.9663506,-5.497087
5.972556,4.5381913,6.889367,0.09221206,-1.3633382,5.133168,-5.9663506,-5.497087
5.97116,4.5449934,6.954348,0.12843105,-1.3090098,5.497087,-6.2345014,-4.5154643
5.9697537,4.5518456,6.954348,0.12843105,-1.3090098,5.497087,-6.2345014,-4.5154643
5.968456,4.5587363,7.0118723,0.19767325,-1.2440287,3.6008794,-6.751649,-4.309563
5.9671574,4.5656366,7.0118723,0.19767325,-1.2440287,3.6008794,-6.751649,-4.309563
5.965901,4.5726247,7.0779185,0.24241436,-1.1854391,3.6870706,-6.3206925,-4.0174704
5.964646,4.579615,7.0779185,0.24241436,-1.1854391,3.6870706,-6.3206925,-4.0174704
5.963416,4.586669,7.1429,0.26265436,-1.1332412,4.295198,-5.5162406,-3.6966474
5.9621806,4.593767,7.1429,0.26265436,-1.1332412,4.295198,-5.5162406,-3.6966474
5.9610224,4.600896,7.184445,0.2860902,-1.0725211,3.4141316,-5.4061074,-3.1507695
5.959867,4.608027,7.184445,0.2860902,-1.0725211,3.4141316,-5.4061074,-3.1507695
5.958777,4.615185,7.196163,0.3063302,-1.0000831,3.2082303,-5.195418,-2.6192567
5.9576807,4.6224027,7.196163,0.3063302,-1.0000831,3.2082303,-5.195418,-2.6192567
5.956618,4.629568,7.180184,0.3063302,-0.9308409,3.892972,-5.33907,-1.7525556
5.9555607,4.6367126,7.180184,0.3063302,-0.9308409,3.892972,-5.33907,-1.7525556
5.9545465,4.643886,7.1418347,0.30846074,-0.8647945,4.132392,-5.00867,-1.2449849
5.9535365,4.651046,7.1418347,0.30846074,-0.8647945,4.132392,-5.00867,-1.2449849
5.9525776,4.6581936,7.075788,0.3212439,-0.8040744,3.8355112,-4.2521024,-0.82360536
5.951623,4.665328,7.075788,0.3212439,-0.8040744,3.8355112,-4.2521024,-0.82360536
5.9507236,4.672406,6.9777837,0.34148395,-0.74974597,3.9456444,-3.2225955,-0.2681506
5.9498267,4.6794853,6.9777837,0.34148395,-0.74974597,3.9456444,-3.2225955,-0.2681506
5.948993,4.6864634,6.840365,0.36172396,-0.70393956,4.405331,-2.1404164,0.45010993
5.9481616,4.693443,6.840365,0.36172396,-0.70393956,4.405331,-2.1404164,0.45010993
5.9473834,4.7002716,6.65927,0.39155138,-0.66878587,4.9224787,-0.9768343,1.1540052
5.946611,4.7070746,6.65927,0.39155138,-0.66878587,4.9224787,-0.9768343,1.1540052
5.9458733,4.7137117,6.430238,0.43522722,-0.6464153,5.3247046,0.18674773,1.8818425
5.9451423,4.720311,6.430238,0.43522722,-0.6464153,5.3247046,0.18674773,1.8818425
5.9444323,4.726696,6.151139,0.48742518,-0.6378932,5.66947,1.1444284,2.858677
5.943727,4.7330637,6.151139,0.48742518,-0.6378932,5.66947,1.1444284,2.858677
5.943037,4.7391295,5.8209066,0.55134106,-0.63682795,5.755661,1.9249382,3.763685
5.942353,4.745179,5.8209066,0.55134106,-0.63682795,5.755661,1.9249382,3.763685
5.9416733,4.750917,5.443803,0.62058324,-0.64108896,5.827487,2.4756045,4.735731
5.9410014,4.7566223,5.443803,0.62058324,-0.64108896,5.827487,2.4756045,4.735731
5.9403296,4.7619686,5.020893,0.69089067,-0.6496111,6.0046577,2.7820623,5.81791
5.9396634,4.7673,5.020893,0.69089067,-0.6496111,6.0046577,2.7820623,5.81791
5.9390044,4.7722015,4.5596337,0.7622634,-0.6549374,6.105214,2.801216,6.813898
5.938352,4.7770796,4.5596337,0.7622634,-0.6549374,6.105214,2.801216,6.813898
5.937703,4.781536,4.065351,0.8315056,-0.65706795,6.4643445,2.6192567,7.9152308
5.937063,4.7859583,4.065351,0.8315056,-0.65706795,6.4643445,2.6192567,7.9152308
5.9364295,4.789927,3.5497627,0.89861727,-0.65706795,6.751649,2.1021092,8.939949
5.9358044,4.793866,3.5497627,0.89861727,-0.65706795,6.751649,2.1021092,8.939949
5.9352016,4.79733,3.0181959,0.96785945,-0.64321953,6.7133417,1.4700398,9.811439
5.934604,4.800784,3.0181959,0.96785945,-0.64321953,6.7133417,1.4700398,9.811439
5.9340496,4.803718,2.4738457,1.0328406,-0.61445737,6.301539,0.61770403,10.529699
5.933499,4.8066506,2.4738457,1.0328406,-0.61445737,6.301539,0.61770403,10.529699
5.9330025,4.8090754,1.9284303,1.0839733,-0.5697163,5.837064,-0.38307226,11.133038
5.932511,4.811488,1.9284303,1.0839733,-0.5697163,5.837064,-0.38307226,11.133038
5.9320927,4.813377,1.3894064,1.1138006,-0.50580037,5.497087,-1.2785037,11.693281
5.9316764,4.8152666,1.3894064,1.1138006,-0.50580037,5.497087,-1.2785037,11.693281
5.93135,4.816634,0.86529636,1.1212575,-0.42057922,5.439626,-2.2505496,12.23437
5.9310265,4.8179984,0.86529636,1.1212575,-0.42057922,5.439626,-2.2505496,12.23437
5.9308076,4.818857,0.35929576,1.1074091,-0.31724858,5.094861,-2.992752,12.540829
5.9305906,4.8197103,0.35929576,1.1074091,-0.31724858,5.094861,-2.992752,12.540829
5.9304905,4.8200665,-0.12646483,1.0754511,-0.19900422,4.8937483,-3.739743,12.837709
5.9303913,4.820421,-0.12646483,1.0754511,-0.19900422,4.8937483,-3.739743,12.837709
5.9304175,4.8202915,-0.5887896,1.0243185,-0.06904196,4.841076,-4.343082,13.062764
5.9304433,4.820162,-0.5887896,1.0243185,-0.06904196,4.841076,-4.343082,13.062764
5.9306083,4.819565,-1.025548,0.9604026,0.075834006,4.735731,-4.783615,13.062764
5.9307714,4.8189707,-1.025548,0.9604026,0.075834006,4.735731,-4.783615,13.062764
5.9310713,4.817927,-1.4378054,0.88476884,0.22177523,4.8985367,-5.00867,12.943054
5.9313693,4.816887,-1.4378054,0.88476884,0.22177523,4.8985367,-5.00867,12.943054
5.9317994,4.815417,-1.8298227,0.8016782,0.36452067,4.9559975,-5.2241483,12.617443
5.9322267,4.8139534,-1.8298227,0.8016782,0.36452067,4.9559975,-5.2241483,12.617443
5.9327903,4.8120623,-2.2016,0.7143265,0.50620085,4.8123455,-5.046977,12.061988
5.9333515,4.810173,-2.2016,0.7143265,0.50620085,4.8123455,-5.046977,12.061988
5.934033,4.8078775,-2.560594,0.62271374,0.63722837,5.2002063,-5.0374002,11.626244
5.9346848,4.8056755,-2.560594,0.62271374,0.63722837,5.2002063,-5.0374002,11.626244
5.935465,4.803029,-2.9057398,0.531101,0.75866854,5.2768207,-4.9895163,11.080365
5.936261,4.8003216,-2.9057398,0.531101,0.75866854,5.2768207,-4.9895163,11.080365
5.9371448,4.7973037,-3.237037,0.44801039,0.87158656,5.2049947,-4.903325,10.323798
5.938029,4.79428,-3.237037,0.44801039,0.87158656,5.2049947,-4.903325,10.323798
5.9389987,4.7909217,-3.5544858,0.37024608,0.9717214,5.1523223,-4.8267107,9.428367
5.9399734,4.7875443,-3.5544858,0.37024608,0.9717214,5.1523223,-4.8267107,9.428367
5.941016,4.7838564,-3.8570209,0.29248178,1.0569426,5.353435,-4.8985367,8.595184
5.942067,4.780136,-3.8570209,0.29248178,1.0569426,5.353435,-4.8985367,8.595184
5.943165,4.7761483,-4.147838,0.21897852,1.1283153,5.521029,-4.960786,7.73806
5.9442797,4.772098,-4.147838,0.21897852,1.1283153,5.521029,-4.960786,7.73806
5.945417,4.767816,-4.4216113,0.15186687,1.179448,5.765238,-5.12838,7.0102224
5.947067,4.7616053,-4.4216113,0.15186687,1.179448,5.765238,-5.12838,7.0102224
5.9478874,4.758381,-4.67834,0.09221206,1.2114059,5.8562174,-5.233725,6.220136
5.9491057,4.7535977,-4.67834,0.09221206,1.2114059,5.8562174,-5.233725,6.220136
5.950111,4.749463,-4.9126983,0.043209895,1.2273849,5.923255,-5.4539914,5.506664
5.9513044,4.744556,-4.9126983,0.043209895,1.2273849,5.923255,-5.4539914,5.506664
5.9513044,4.744556,-4.9126983,0.043209895,1.2273849,5.923255,-5.4539914,5.506664
5.9535685,4.73481,-5.1225553,0.0027298466,1.2305807,5.7843914,-5.813122,4.8841715
5.9548173,4.729162,-5.3068457,-0.033489145,1.2231238,5.659893,-6.2488666,4.0892963
5.9559226,4.7241673,-5.3068457,-0.033489145,1.2231238,5.659893,-6.2488666,4.0892963
5.9570513,4.718811,-5.4613094,-0.066512346,1.2082101,5.535394,-6.646304,3.4380736
5.9581914,4.713408,-5.4613094,-0.066512346,1.2082101,5.535394,-6.646304,3.4380736
5.9593077,4.707874,-5.5838146,-0.09740501,1.1901007,5.2720323,-7.1395097,2.7341783
5.9604278,4.7023315,-5.5838146,-0.09740501,1.1901007,5.2720323,-7.1395097,2.7341783
5.961518,4.6967125,-5.6722317,-0.12936294,1.1719911,5.109226,-7.699753,2.0494366
5.9626136,4.6910734,-5.6722317,-0.12936294,1.1719911,5.109226,-7.699753,2.0494366
5.963679,4.68536,-5.7276254,-0.15919036,1.1517512,4.9895163,-8.221688,1.364695
5.9647517,4.6796207,-5.7276254,-0.15919036,1.1517512,4.9895163,-8.221688,1.364695
5.965774,4.673917,-5.751061,-0.18795249,1.1347069,4.855441,-8.748413,0.60333884
5.966803,4.6681933,-5.751061,-0.18795249,1.1347069,4.855441,-8.748413,0.60333884
5.967807,4.662424,-5.742539,-0.21671464,1.1229889,4.6926355,-9.23683,-0.02873042
5.9688125,4.656666,-5.742539,-0.21671464,1.1229889,4.6926355,-9.23683,-0.02873042
5.969803,4.650889,-5.7073855,-0.2476073,1.1176627,4.5872903,-9.629479,-0.6368576
5.9707947,4.6451206,-5.7073855,-0.2476073,1.1176627,4.5872903,-9.629479,-0.6368576
5.9718075,4.6393614,-5.641339,-0.27530417,1.1197932,4.462792,-10.0748005,-1.1540052
5.972818,4.6336107,-5.641339,-0.27530417,1.1197932,4.462792,-10.0748005,-1.1540052
5.973868,4.6279163,-5.549726,-0.29980525,1.1283153,4.381389,-10.477027,-1.541866
5.974914,4.6222286,-5.549726,-0.29980525,1.1283153,4.381389,-10.477027,-1.541866
5.976011,4.616633,-5.431482,-0.32324108,1.1379026,4.2521024,-10.817003,-1.982399
5.977104,4.611041,-5.431482,-0.32324108,1.1379026,4.2521024,-10.817003,-1.982399
5.9782476,4.6055775,-5.2898016,-0.3434811,1.1538817,4.1371803,-11.176133,-2.432509
5.979389,4.600117,-5.2898016,-0.3434811,1.1538817,4.1371803,-11.176133,-2.432509
5.980572,4.5948105,-5.130012,-0.3615906,1.1719911,4.0078936,-11.520899,-2.681506
5.9817543,4.589507,-5.130012,-0.3615906,1.1719911,4.0078936,-11.520899,-2.681506
5.9829774,4.5843782,-4.9521127,-0.37437376,1.1943617,3.8977604,-11.808203,-3.0454245
5.9842005,4.5792522,-4.9521127,-0.37437376,1.1943617,3.8977604,-11.808203,-3.0454245
5.985465,4.5743175,-4.7614303,-0.3828959,1.2220585,3.763685,-11.990162,-3.2561142
5.9867296,4.569385,-4.7614303,-0.3828959,1.2220585,3.763685,-11.990162,-3.2561142
5.9880333,4.564659,-4.557965,-0.38502643,1.251886,3.6487634,-12.100295,-3.5003228
5.9893374,4.5599346,-4.557965,-0.38502643,1.251886,3.6487634,-12.100295,-3.5003228
5.990674,4.555425,-4.348108,-0.38183063,1.2817134,3.596091,-12.167333,-3.7493198
5.992011,4.550917,-4.348108,-0.38183063,1.2817134,3.596091,-12.167333,-3.7493198
5.9933724,4.546624,-4.138251,-0.37437376,1.3094102,3.6152446,-12.181698,-4.0797195
5.994735,4.542333,-4.138251,-0.37437376,1.3094102,3.6152446,-12.181698,-4.0797195
5.996117,4.5382566,-3.9294589,-0.3647864,1.3317808,3.6152446,-12.210428,-4.2999864
5.9974995,4.5341816,-3.9294589,-0.3647864,1.3317808,3.6152446,-12.210428,-4.2999864
5.9988947,4.530318,-3.7227976,-0.35626426,1.348825,3.6391866,-12.124237,-4.5920787
6.00029,4.526456,-3.7227976,-0.35626426,1.348825,3.6391866,-12.124237,-4.5920787
6.001687,4.5227976,-3.5235932,-0.34561163,1.3562819,3.7014358,-12.081141,-4.76925
6.0030837,4.519141,-3.5235932,-0.34561163,1.3562819,3.7014358,-12.081141,-4.76925
6.0044727,4.515683,-3.3286498,-0.33602425,1.3520209,3.7253778,-11.990162,-5.0517654
6.0058618,4.512226,-3.3286498,-0.33602425,1.3520209,3.7253778,-11.990162,-5.0517654
6.0072293,4.508962,-3.1379673,-0.3285674,1.3339113,3.7349546,-11.836933,-5.2768207
6.008597,4.5056996,-3.1379673,-0.3285674,1.3339113,3.7349546,-11.836933,-5.2768207
6.009926,4.502625,-2.950481,-0.32324108,1.3030187,3.9217024,-11.678916,-5.559336
6.011254,4.4995513,-2.950481,-0.32324108,1.3030187,3.9217024,-11.678916,-5.559336
6.0125337,4.4966626,-2.76619,-0.3168495,1.2593428,4.0222588,-11.592725,-5.616797
6.013813,4.493775,-2.76619,-0.3168495,1.2593428,4.0222588,-11.592725,-5.616797
6.015036,4.491069,-2.5818994,-0.30939263,1.2050143,4.0940847,-11.544841,-5.707777
6.0162563,4.488369,-2.5818994,-0.30939263,1.2050143,4.0940847,-11.544841,-5.707777
6.0174146,4.4858522,-2.395478,-0.3019358,1.1400332,4.0557775,-11.597513,-5.7987566
6.018572,4.4833355,-2.395478,-0.3019358,1.1400332,4.0557775,-11.597513,-5.7987566
6.019655,4.48101,-2.2016,-0.29767472,1.0633341,4.036624,-11.616667,-5.93762
6.020738,4.4786854,-2.2016,-0.29767472,1.0633341,4.036624,-11.616667,-5.93762
6.0217376,4.476555,-2.003461,-0.29447892,0.97704774,3.9839516,-11.664551,-5.932832
6.0227365,4.474426,-2.003461,-0.29447892,0.97704774,3.9839516,-11.664551,-5.932832
6.0236535,4.4724956,-1.79893,-0.2923484,0.8875655,3.845088,-11.693281,-5.985504
6.0245695,4.4705667,-1.79893,-0.2923484,0.8875655,3.845088,-11.693281,-5.985504
6.0254006,4.468841,-1.589073,-0.29341367,0.79488754,3.7253778,-11.722012,-6.0764837
6.0262346,4.4671097,-1.589073,-0.29341367,0.79488754,3.7253778,-11.722012,-6.0764837
6.0269747,4.4655976,-1.3728242,-0.29660946,0.7032748,3.7780502,-11.745954,-6.2009826
6.027715,4.464085,-1.3728242,-0.29660946,0.7032748,3.7780502,-11.745954,-6.2009826
6.0283694,4.4627843,-1.154445,-0.29874,0.61379254,3.8067808,-11.779472,-6.3111157
6.0290246,4.461481,-1.154445,-0.29874,0.61379254,3.8067808,-11.779472,-6.3111157
6.0295987,4.4603934,-0.9339353,-0.30300105,0.52644086,3.739743,-11.918336,-6.3063273
6.0301723,4.459307,-0.9339353,-0.30300105,0.52644086,3.739743,-11.918336,-6.3063273
6.0306664,4.458433,-0.71449083,-0.30619684,0.44228497,3.739743,-11.971008,-6.3350577
6.03116,4.4575596,-0.71449083,-0.30619684,0.44228497,3.739743,-11.971008,-6.3350577
6.0315795,4.4568996,-0.49504632,-0.30939263,0.36132488,3.6966474,-12.138602,-6.4787097
6.031999,4.4562397,-0.49504632,-0.30939263,0.36132488,3.6966474,-12.138602,-6.4787097
6.0323544,4.4557915,-0.27773237,-0.3136537,0.28675637,3.514688,-12.291832,-6.5696893
6.03271,4.4553432,-0.27773237,-0.3136537,0.28675637,3.514688,-12.291832,-6.5696893
6.033005,4.4551063,-0.05935317,-0.3221758,0.21644892,3.3997664,-12.401965,-6.8905125
6.0333,4.4548693,-0.05935317,-0.3221758,0.21644892,3.3997664,-12.401965,-6.8905125
6.0335374,4.4548483,0.16435237,-0.3381548,0.14933725,3.3135753,-12.583924,-7.1155677
6.0337753,4.454827,0.16435237,-0.3381548,0.14933725,3.3135753,-12.583924,-7.1155677
6.033963,4.455028,0.3944495,-0.3583948,0.08648665,3.1794999,-12.737153,-7.479486
6.034152,4.45523,0.3944495,-0.3583948,0.08648665,3.1794999,-12.737153,-7.479486
6.034297,4.4556665,0.634134,-0.38502643,0.02896237,3.122039,-13.302185,-7.536947
6.0344353,4.4560833,0.634134,-0.38502643,0.02896237,3.122039,-13.302185,-7.536947
6.0345454,4.456762,0.8929933,-0.4095275,-0.02110506,2.825158,-13.776237,-7.680599
6.0346556,4.4574423,0.8929933,-0.4095275,-0.02110506,2.825158,-13.776237,-7.680599
6.0347295,4.4584,1.1784841,-0.43402857,-0.06584617,2.7341783,-13.761871,-7.9966335
6.0348024,4.4593573,1.1784841,-0.43402857,-0.06584617,2.7341783,-13.761871,-7.9966335
6.0348425,4.4606133,1.4874108,-0.45852965,-0.10952201,2.4516625,-13.536817,-8.269572
6.0348816,4.4618716,1.4874108,-0.45852965,-0.10952201,2.4516625,-13.536817,-8.269572
6.0348873,4.4634476,1.814447,-0.47983494,-0.1489368,2.3558946,-13.441049,-8.475474
6.0348926,4.4650235,1.814447,-0.47983494,-0.1489368,2.3558946,-13.441049,-8.475474
6.0348654,4.4669228,2.1478748,-0.5054013,-0.18622105,2.4037786,-13.354857,-8.355764
6.034837,4.4688253,2.1478748,-0.5054013,-0.18622105,2.4037786,-13.354857,-8.355764
6.034775,4.471055,2.4855635,-0.5299024,-0.22563584,2.4037786,-13.249513,-8.240842
6.034711,4.4732847,2.4855635,-0.5299024,-0.22563584,2.4037786,-13.249513,-8.240842
6.034612,4.475854,2.8307092,-0.5448161,-0.26611587,2.2122424,-13.038822,-8.288726
6.0345116,4.478428,2.8307092,-0.5448161,-0.26611587,2.2122424,-13.038822,-8.288726
6.034373,4.4813385,3.1769202,-0.5501424,-0.3076612,1.9728222,-12.756307,-8.379706
6.034232,4.4842467,3.1769202,-0.5501424,-0.3076612,1.9728222,-12.756307,-8.379706
6.034043,4.487493,3.5156744,-0.54588133,-0.35133705,1.9297266,-12.306197,-8.6813755
6.033851,4.4907393,3.5156744,-0.54588133,-0.35133705,1.9297266,-12.306197,-8.6813755
6.033609,4.494311,3.8373842,-0.5320329,-0.39394763,1.9680338,-11.903971,-8.863335
6.033365,4.497875,3.8373842,-0.5320329,-0.39394763,1.9680338,-11.903971,-8.863335
6.0330634,4.5017447,4.137789,-0.5117929,-0.44081926,2.1164744,-11.520899,-9.021352
6.032759,4.5056143,4.137789,-0.5117929,-0.44081926,2.1164744,-11.520899,-9.021352
6.0323935,4.5097585,4.4104967,-0.4872918,-0.49195194,2.2697031,-11.137826,-9.074024
6.032025,4.5139036,4.4104967,-0.4872918,-0.49195194,2.2697031,-11.137826,-9.074024
6.0315905,4.5183,4.6533766,-0.45639914,-0.54628044,2.408567,-10.812215,-8.992621
6.031154,4.522692,4.6533766,-0.45639914,-0.54628044,2.408567,-10.812215,-8.992621
6.030646,4.527297,4.8642993,-0.4191149,-0.60913104,2.3463178,-10.414778,-8.829816
6.030134,4.5319114,4.8642993,-0.4191149,-0.60913104,2.3463178,-10.414778,-8.829816
6.0295467,4.5367074,5.0475245,-0.3765043,-0.6762427,2.327164,-10.060435,-8.5473
6.0289555,4.5415134,5.0475245,-0.3765043,-0.6762427,2.327164,-10.060435,-8.5473
6.0282865,4.546476,5.2041187,-0.33069792,-0.7454849,2.3127987,-9.80665,-8.073248
6.0276146,4.551444,5.2041187,-0.33069792,-0.7454849,2.3127987,-9.80665,-8.073248
6.0268593,4.55656,5.340472,-0.27849996,-0.8157923,2.4229321,-9.509769,-7.5704656
6.026102,4.5616765,5.340472,-0.27849996,-0.8157923,2.4229321,-9.509769,-7.5704656
6.0252523,4.5669284,5.462978,-0.22204095,-0.8892956,2.825158,-9.232041,-7.0485296
6.0244007,4.5721807,5.462978,-0.22204095,-0.8892956,2.825158,-9.232041,-7.0485296
6.023446,4.577566,5.5737653,-0.15812509,-0.96599466,3.4045548,-8.714894,-6.4739213
6.0224915,4.582941,5.5737653,-0.15812509,-0.96599466,3.4045548,-8.714894,-6.4739213
6.021458,4.588434,5.668574,-0.08355658,-1.04802,2.6048915,-8.355764,-5.8226986
6.0204234,4.5939293,5.668574,-0.08355658,-1.04802,2.6048915,-8.355764,-5.8226986
6.0192995,4.5995197,5.7505994,-0.01324912,-1.1279148,2.5809495,-8.269572,-4.951209
6.018173,4.605123,5.7505994,-0.01324912,-1.1279148,2.5809495,-8.269572,-4.951209
6.016944,4.6108055,5.8209066,0.04427516,-1.2099402,2.6671407,-6.6846113,-4.453215
6.0157146,4.6164894,5.8209066,0.04427516,-1.2099402,2.6671407,-6.6846113,-4.453215
6.014356,4.6222496,5.869909,0.10392997,-1.289835,3.7301662,-6.555324,-3.4476504
6.012997,4.6280174,5.869909,0.10392997,-1.289835,3.7301662,-6.555324,-3.4476504
6.0115476,4.6338196,5.8858876,0.17530268,-1.3665341,3.371036,-5.803545,-2.6767175
6.010098,4.63963,5.8858876,0.17530268,-1.3665341,3.371036,-5.803545,-2.6767175
6.0086083,4.645447,5.8720393,0.25839332,-1.4261888,2.3798366,-5.626374,-2.0015526
6.0071225,4.6512594,5.8720393,0.25839332,-1.4261888,2.3798366,-5.626374,-2.0015526
6.0055456,4.65707,5.834755,0.32337445,-1.4698647,2.8107927,-4.510676,-1.6807296
6.0039716,4.6628833,5.834755,0.32337445,-1.4698647,2.8107927,-4.510676,-1.6807296
6.002311,4.668698,5.765513,0.36491975,-1.5092795,3.7110126,-3.8738184,-0.81881696
6.000648,4.674532,5.765513,0.36491975,-1.5092795,3.7110126,-3.8738184,-0.81881696
5.998957,4.6803217,5.655791,0.41392192,-1.5369763,4.2904096,-3.1411927,-0.11971009
5.99727,4.6861076,5.655791,0.41392192,-1.5369763,4.2904096,-3.1411927,-0.11971009
5.995614,4.6917057,5.502393,0.474642,-1.5454985,4.4723687,-2.384625,0.60812724
5.993946,4.6973515,5.502393,0.474642,-1.5454985,4.4723687,-2.384625,0.60812724
5.9923,4.7028384,5.3031883,0.53962314,-1.5380416,4.5872903,-1.6759412,1.1875241
5.990653,4.7083397,5.3031883,0.53962314,-1.5380416,4.5872903,-1.6759412,1.1875241
5.989048,4.7136183,4.76736,0.655737,-1.475191,4.8458643,-0.46447513,2.6192567
5.985284,4.7258224,4.76736,0.655737,-1.475191,4.8458643,-0.46447513,2.6192567
5.985284,4.7258224,4.76736,0.655737,-1.475191,4.8458643,-0.46447513,2.6192567
5.9843535,4.728852,4.76736,0.655737,-1.475191,4.8458643,-0.46447513,2.6192567
5.982879,4.73354,4.436063,0.70154333,-1.4261888,5.195418,-0.0047884034,3.4620156
5.981414,4.7382126,4.436063,0.70154333,-1.4261888,5.195418,-0.0047884034,3.4620156
5.979965,4.7427044,4.0706773,0.7452192,-1.3686646,5.544971,0.35434186,4.4101195
5.978541,4.7471333,4.0706773,0.7452192,-1.3686646,5.544971,0.35434186,4.4101195
5.9771385,4.751362,3.67866,0.79635185,-1.3004876,5.6982,0.6703765,5.291186
5.9759545,4.7549458,3.67866,0.79635185,-1.3004876,5.6982,0.6703765,5.291186
5.9747396,4.7585115,3.2695982,0.8538762,-1.2195276,5.837064,0.842759,6.157887
5.9735084,4.762138,3.2695982,0.8538762,-1.2195276,5.837064,0.842759,6.157887
5.972386,4.765353,2.8477535,0.91140044,-1.124719,5.741296,0.9624691,6.8091097
5.971268,4.7685647,2.8477535,0.91140044,-1.124719,5.741296,0.9624691,6.8091097
5.9698114,4.772632,2.4195173,0.9604026,-1.0203232,5.722142,0.90500826,7.4363904
5.9692497,4.7742043,2.4195173,0.9604026,-1.0203232,5.722142,0.90500826,7.4363904
5.9683685,4.7765856,1.9880852,0.99449104,-0.9074051,5.9902925,0.6991069,8.087613
5.967486,4.7789783,1.9880852,0.99449104,-0.9074051,5.9902925,0.6991069,8.087613
5.9667263,4.780952,1.556653,1.0126005,-0.78596497,6.301539,0.37349546,8.7053175
5.965972,4.7829194,1.556653,1.0126005,-0.78596497,6.301539,0.37349546,8.7053175
5.9653444,4.7844663,1.1294819,1.0211227,-0.661329,6.5505357,-0.10055647,9.346964
5.964718,4.786014,1.1294819,1.0211227,-0.661329,6.5505357,-0.10055647,9.346964
5.9642234,4.7871404,0.7087025,1.022188,-0.5334973,6.5361705,-0.63206923,9.811439
5.9637294,4.788268,0.7087025,1.022188,-0.5334973,6.5361705,-0.63206923,9.811439
5.9633718,4.7889824,0.2985757,1.0136658,-0.39820868,6.631939,-1.1540052,10.299856
5.963016,4.789695,0.2985757,1.0136658,-0.39820868,6.631939,-1.1540052,10.299856
5.962798,4.7900085,-0.09663743,0.9998174,-0.2597243,6.6079965,-1.70946,10.635044
5.962581,4.7903214,-0.09663743,0.9998174,-0.2597243,6.6079965,-1.70946,10.635044
5.962509,4.790248,-0.47587156,0.98383844,-0.11484833,6.4882865,-2.2409728,10.960655
5.9624376,4.7901745,-0.47587156,0.98383844,-0.11484833,6.4882865,-2.2409728,10.960655
5.962515,4.7897315,-0.83593094,0.9646636,0.03428869,6.3111157,-2.705448,11.056423
5.962591,4.7892895,-0.83593094,0.9646636,0.03428869,6.3111157,-2.705448,11.056423
5.9628243,4.7884965,-1.1736197,0.9390973,0.19194783,6.066907,-3.1555579,11.003751
5.963056,4.787707,-1.1736197,0.9390973,0.19194783,6.066907,-3.1555579,11.003751
5.963445,4.786582,-1.4900033,0.9060741,0.3517375,5.9567738,-3.5290532,10.754754
5.963833,4.7854586,-1.4900033,0.9060741,0.3517375,5.9567738,-3.5290532,10.754754
5.9643745,4.78402,-1.7872121,0.8645288,0.5093966,5.875371,-3.892972,10.534488
5.9649143,4.7825823,-1.7872121,0.8645288,0.5093966,5.875371,-3.892972,10.534488
5.965626,4.7807903,-2.0663114,0.81233084,0.6649253,5.7987566,-4.175488,10.117896
5.966345,4.7789745,-2.0663114,0.81233084,0.6649253,5.7987566,-4.175488,10.117896
5.967119,4.7770944,-2.3283665,0.752676,0.81725806,5.827487,-4.43885,9.481039
5.9679456,4.775084,-2.3283665,0.752676,0.81725806,5.827487,-4.43885,9.481039
5.9689083,4.7728047,-2.5733774,0.6876949,0.96106875,5.813122,-4.6591167,8.920795
5.9698787,4.770505,-2.5733774,0.6876949,0.96106875,5.813122,-4.6591167,8.920795
5.97097,4.7679653,-2.8045397,0.623779,1.0963573,5.731719,-4.7788267,8.1881695
5.9720635,4.765418,-2.8045397,0.623779,1.0963573,5.731719,-4.7788267,8.1881695
5.9732723,4.762639,-3.0197232,0.56199366,1.2209933,5.592855,-4.9081135,7.4986396
5.9744773,4.7598667,-3.0197232,0.56199366,1.2209933,5.592855,-4.9081135,7.4986396
5.9757934,4.756871,-3.2199929,0.5023389,1.3381724,5.511452,-5.0182467,6.871359
5.977111,4.75387,-3.2199929,0.5023389,1.3381724,5.511452,-5.0182467,6.871359
5.9785275,4.7506657,-3.4053488,0.44694513,1.4446988,5.5018754,-5.209783,6.2392898
5.979943,4.7474623,-3.4053488,0.44694513,1.4446988,5.5018754,-5.209783,6.2392898
5.981451,4.7440667,-3.5747259,0.3968777,1.5395074,5.363012,-5.425261,5.717354
5.9829535,4.740683,-3.5747259,0.3968777,1.5395074,5.363012,-5.425261,5.717354
5.984541,4.7371116,-3.7291892,0.35533237,1.6194022,5.2049947,-5.722142,5.185841
5.9861145,4.733569,-3.7291892,0.35533237,1.6194022,5.2049947,-5.722142,5.185841
5.987757,4.7298746,-3.8655431,0.32017866,1.6897097,5.00867,-5.971139,4.5920787
5.989397,4.726185,-3.8655431,0.32017866,1.6897097,5.00867,-5.971139,4.5920787
5.9911003,4.7223487,-3.985918,0.29035124,1.7493645,4.8937483,-6.363788,4.074931
5.9927998,4.7185216,-3.985918,0.29035124,1.7493645,4.8937483,-6.363788,4.074931
5.994536,4.7145977,-4.087118,0.2647849,1.7994319,4.8841715,-6.7229185,3.4715924
5.996275,4.7106676,-4.087118,0.2647849,1.7994319,4.8841715,-6.7229185,3.4715924
5.9980435,4.706657,-4.171274,0.2466754,1.8388467,4.855441,-7.16824,2.9879637
5.9998183,4.702632,-4.171274,0.2466754,1.8388467,4.855441,-7.16824,2.9879637
6.0016103,4.698545,-4.2383857,0.2349575,1.8665435,4.817134,-7.73806,2.4708161
6.0034,4.6944637,-4.2383857,0.2349575,1.8665435,4.817134,-7.73806,2.4708161
6.0052066,4.69033,-4.2863226,0.22430485,1.8857183,4.6591167,-8.346188,2.0638018
6.007015,4.6861935,-4.2863226,0.22430485,1.8857183,4.6591167,-8.346188,2.0638018
6.0088224,4.6820393,-4.3118887,0.21578273,1.8942404,4.486734,-8.949526,1.5658079
6.0106316,4.677882,-4.3118887,0.21578273,1.8942404,4.486734,-8.949526,1.5658079
6.0124364,4.6737165,-4.319346,0.2083259,1.8953058,4.367024,-9.629479,1.13964
6.0142426,4.669549,-4.319346,0.2083259,1.8953058,4.367024,-9.629479,1.13964
6.016038,4.6654015,-4.304432,0.19980377,1.8942404,4.333505,-10.25676,0.78050977
6.017836,4.6612473,-4.304432,0.19980377,1.8942404,4.333505,-10.25676,0.78050977
6.0196195,4.657138,-4.2671475,0.19128166,1.8857183,4.2664676,-10.845734,0.50278234
6.021405,4.6530266,-4.2671475,0.19128166,1.8857183,4.2664676,-10.845734,0.50278234
6.0231853,4.648978,-4.208558,0.1838248,1.8729352,3.9839516,-11.434708,0.22505496
6.0249653,4.6449323,-4.208558,0.1838248,1.8729352,3.9839516,-11.434708,0.22505496
6.026761,4.6409802,-4.126533,0.17530268,1.8569561,3.5913026,-11.908759,0.10055647
6.028556,4.637029,-4.126533,0.17530268,1.8569561,3.5913026,-11.908759,0.10055647
6.0303655,4.6331882,-4.020006,0.16358478,1.8399119,3.3087866,-12.320562,-0.11492168
6.0321717,4.6293483,-4.020006,0.16358478,1.8399119,3.3087866,-12.320562,-0.11492168
6.0339565,4.6256347,-3.8900442,0.14654055,1.8175414,3.3279405,-12.6222315,-0.39264908
6.03574,4.6219187,-3.8900442,0.14654055,1.8175414,3.3279405,-12.6222315,-0.39264908
6.03751,4.618351,-3.7419724,0.12630053,1.7909098,3.2752678,-12.919112,-0.6512229
6.0392747,4.614784,-3.7419724,0.12630053,1.7909098,3.2752678,-12.919112,-0.6512229
6.041031,4.611382,-3.5757911,0.10712577,1.7632129,3.1986535,-13.077129,-0.866701
6.0427833,4.6079745,-3.5757911,0.10712577,1.7632129,3.1986535,-13.077129,-0.866701
6.044555,4.6047444,-3.393631,0.089016266,1.7301897,3.1028855,-13.201628,-1.1875241
6.046312,4.6015143,-3.393631,0.089016266,1.7301897,3.1028855,-13.201628,-1.1875241
6.048019,4.5984774,-3.1986876,0.069841504,1.6918402,3.1842883,-13.22557,-1.3982137
6.049693,4.5954437,-3.1986876,0.069841504,1.6918402,3.1842883,-13.22557,-1.3982137
6.051194,4.5924573,-2.9962873,0.050666746,1.6439033,3.2992098,-13.158532,-1.5993267
6.052679,4.589511,-2.9962873,0.050666746,1.6439033,3.2992098,-13.158532,-1.5993267
6.0541563,4.5866957,-2.7906911,0.030426722,1.5906401,3.3614593,-13.081918,-1.8052281
6.0556164,4.5838985,-2.7906911,0.030426722,1.5906401,3.3614593,-13.081918,-1.8052281
6.0570436,4.5812798,-2.5861604,0.01551302,1.5288547,3.371036,-13.091495,-1.9680338
6.0584593,4.5786676,-2.5861604,0.01551302,1.5288547,3.371036,-13.091495,-1.9680338
6.059815,4.5762506,-2.3805645,0.0005993177,1.457482,3.4476504,-13.005303,-2.135628
6.0611644,4.5738354,-2.3805645,0.0005993177,1.457482,3.4476504,-13.005303,-2.135628
6.0624166,4.571639,-2.1792295,-0.012183856,1.3818482,3.5913026,-13.125013,-2.1212628
6.063797,4.569214,-2.1792295,-0.012183856,1.3818482,3.5913026,-13.125013,-2.1212628
6.0649004,4.5673647,-1.9832208,-0.021771235,1.2998228,3.347094,-13.163321,-2.3127987
6.0661025,4.565343,-1.9832208,-0.021771235,1.2998228,3.347094,-13.163321,-2.3127987
6.067231,4.5635066,-1.7872121,-0.035619672,1.2103406,3.3279405,-13.283031,-2.432509
6.0683575,4.561667,-1.7872121,-0.035619672,1.2103406,3.3279405,-13.283031,-2.432509
6.0693955,4.560014,-1.5901382,-0.054794434,1.1187279,3.4524388,-13.259089,-2.5809495
6.0704284,4.558364,-1.5901382,-0.054794434,1.1187279,3.4524388,-13.259089,-2.5809495
6.0713997,4.556892,-1.391999,-0.07503446,1.0260499,3.3135753,-13.388376,-2.7006595
6.0723677,4.555422,-1.391999,-0.07503446,1.0260499,3.3135753,-13.388376,-2.7006595
6.0732565,4.554144,-1.190664,-0.09953554,0.9312414,3.2082303,-13.426683,-2.7102363
6.074143,4.5528665,-1.190664,-0.09953554,0.9312414,3.2082303,-13.426683,-2.7102363
6.0749445,4.551789,-0.97974163,-0.12829769,0.83536756,3.2130187,-13.52724,-2.801216
6.075742,4.5507145,-0.97974163,-0.12829769,0.83536756,3.2130187,-13.52724,-2.801216
6.0764523,4.5498486,-0.7581667,-0.16025561,0.7394938,3.2321723,-13.484144,-2.882619
6.0771585,4.548985,-0.7581667,-0.16025561,0.7394938,3.2321723,-13.484144,-2.882619
6.0777717,4.5483494,-0.52061266,-0.19540934,0.64361995,3.2704794,-13.560759,-2.896984
6.0783844,4.5477138,-0.52061266,-0.19540934,0.64361995,3.2704794,-13.560759,-2.896984
6.078903,4.547317,-0.27240607,-0.2326936,0.54668087,3.3423057,-13.623008,-2.9735985
6.07942,4.5469217,-0.27240607,-0.2326936,0.54668087,3.3423057,-13.623008,-2.9735985
6.0798492,4.546775,-0.010351005,-0.27210838,0.44654605,3.289633,-13.709199,-2.944868
6.080278,4.546629,-0.010351005,-0.27210838,0.44654605,3.289633,-13.709199,-2.944868
6.080639,4.546741,0.26448724,-0.31471896,0.34960696,3.169923,-13.862428,-3.0214825
6.0809994,4.546853,0.26448724,-0.31471896,0.34960696,3.169923,-13.862428,-3.0214825
6.0813003,4.54723,0.54571706,-0.36265585,0.25373316,3.0262709,-14.00608,-3.2848446
6.081601,4.5476084,0.54571706,-0.36265585,0.25373316,3.0262709,-14.00608,-3.2848446
6.0818386,4.5482607,0.8344037,-0.41698435,0.16212043,2.8874073,-14.202404,-3.3375173
6.0820746,4.5489125,0.8344037,-0.41698435,0.16212043,2.8874073,-14.202404,-3.3375173
6.0822453,4.5498514,1.133743,-0.47450864,0.07689927,2.7629087,-14.235924,-3.5865142
6.082415,4.550788,1.133743,-0.47450864,0.07689927,2.7629087,-14.235924,-3.5865142
6.082516,4.5520167,1.4394739,-0.5320329,-0.0029955646,2.6910827,-14.216769,-3.8977604
6.0826163,4.5532455,1.4394739,-0.5320329,-0.0029955646,2.6910827,-14.216769,-3.8977604
6.082658,4.5547743,1.753727,-0.592753,-0.076498814,2.5378537,-14.168885,-4.1276035
6.0826983,4.556303,1.753727,-0.592753,-0.076498814,2.5378537,-14.168885,-4.1276035
6.0826793,4.558138,2.0754368,-0.65666884,-0.14680627,2.4756045,-14.092271,-4.2281604
6.082659,4.559973,2.0754368,-0.65666884,-0.14680627,2.4756045,-14.092271,-4.2281604
6.0825796,4.5621214,2.4046035,-0.7205847,-0.21285266,2.432509,-13.986926,-4.43885
6.082499,4.56427,2.4046035,-0.7205847,-0.21285266,2.432509,-13.986926,-4.43885
6.082363,4.5667496,2.7380314,-0.7813048,-0.274638,2.3558946,-13.828909,-4.6495395
6.0822206,4.5693126,2.7380314,-0.7813048,-0.274638,2.3558946,-13.828909,-4.6495395
6.082039,4.5719676,3.071459,-0.83989435,-0.33322755,2.3080103,-13.642161,-4.8506527
6.0818453,4.5747676,3.071459,-0.83989435,-0.33322755,2.3080103,-13.642161,-4.8506527
6.0815997,4.577869,3.4027562,-0.8942228,-0.3918171,2.2266076,-13.508086,-5.0182467
6.081351,4.5809727,3.4027562,-0.8942228,-0.3918171,2.2266076,-13.508086,-5.0182467
6.081047,4.5843887,3.727662,-0.9464208,-0.4482761,2.255338,-13.383588,-5.1810527
6.0807395,4.5878043,3.727662,-0.9464208,-0.4482761,2.255338,-13.383588,-5.1810527
6.0803814,4.5915246,4.0440454,-0.9943577,-0.50153935,2.1547816,-13.110648,-5.425261
6.08002,4.5952406,4.0440454,-0.9943577,-0.50153935,2.1547816,-13.110648,-5.425261
6.079605,4.5992594,4.3497763,-1.0380335,-0.5537373,2.0973208,-12.708423,-5.602432
6.079186,4.6032734,4.3497763,-1.0380335,-0.5537373,2.0973208,-12.708423,-5.602432
6.0787125,4.607564,4.6405935,-1.076383,-0.6070005,2.054225,-12.310986,-5.7987566
6.078229,4.6118975,4.6405935,-1.076383,-0.6070005,2.054225,-12.310986,-5.7987566
6.0776877,4.6164975,4.9143667,-1.1104715,-0.6602637,2.054225,-11.832145,-5.961562
6.0770802,4.621603,4.9143667,-1.1104715,-0.6602637,2.054225,-11.832145,-5.961562
6.0765295,4.6260004,5.17003,-1.1424295,-0.71352696,2.111686,-11.334151,-6.157887
6.0765295,4.6260004,5.17003,-1.1424295,-0.71352696,2.111686,-11.334151,-6.157887
6.0765295,4.6260004,5.17003,-1.1424295,-0.71352696,2.111686,-11.334151,-6.157887
6.074426,4.6424456,5.17003,-1.1424295,-0.71352696,2.111686,-11.334151,-6.157887
6.0738425,4.6465592,5.617441,-1.18504,-0.826445,2.2697031,-10.505757,-6.133945
6.0731783,4.651207,5.617441,-1.18504,-0.826445,2.2697031,-10.505757,-6.133945
6.0724673,4.655949,5.805993,-1.1935622,-0.88503456,2.2457612,-10.132261,-6.0716953
6.071658,4.661304,5.805993,-1.1935622,-0.88503456,2.2457612,-10.132261,-6.0716953
6.0707717,4.6668835,5.9732394,-1.1967579,-0.9436241,2.3319526,-9.725247,-5.985504
6.069868,4.672524,5.9732394,-1.1967579,-0.9436241,2.3319526,-9.725247,-5.985504
6.0689154,4.6782155,6.1191807,-1.1893011,-0.9979526,2.432509,-9.3182335,-5.8322754
6.0689154,4.6782155,6.1191807,-1.1893011,-0.9979526,2.432509,-9.3182335,-5.8322754
6.066948,4.6897435,6.2459474,-1.1733221,-1.04802,2.705448,-8.327033,-5.803545
6.065826,4.696061,6.2459474,-1.1733221,-1.04802,2.705448,-8.327033,-5.803545
6.0647955,4.701547,6.3471475,-1.14456,-1.0991527,3.6152446,-7.752425,-5.4061074
6.063666,4.707529,6.3471475,-1.14456,-1.0991527,3.6152446,-7.752425,-5.4061074
6.0624595,4.7135744,6.419585,-1.0998188,-1.1513506,4.405331,-7.07726,-4.865018
6.061243,4.7196383,6.419585,-1.0998188,-1.1513506,4.405331,-7.07726,-4.865018
6.05999,4.72576,6.462196,-1.0188588,-1.1939613,3.6248214,-6.622362,-4.6351743
6.058709,4.7319856,6.462196,-1.0188588,-1.1939613,3.6248214,-6.622362,-4.6351743
6.057387,4.7382946,6.4771094,-0.92724603,-1.2301803,2.920926,-5.7748146,-4.4436383
6.056132,4.74426,6.4771094,-0.92724603,-1.2301803,2.920926,-5.7748146,-4.4436383
6.0547776,4.75041,6.459,-0.8473512,-1.2642686,3.5673606,-4.960786,-3.8594532
6.0534186,4.756561,6.459,-0.8473512,-1.2642686,3.5673606,-4.960786,-3.8594532
6.052022,4.762702,6.4004107,-0.7599995,-1.2823782,3.739743,-3.9360676,-3.6056678
6.050626,4.7688255,6.4004107,-0.7599995,-1.2823782,3.739743,-3.9360676,-3.6056678
6.0492215,4.774875,6.289623,-0.6513425,-1.2802477,3.6343982,-2.9831753,-3.1651347
6.0478153,4.7809196,6.289623,-0.6513425,-1.2802477,3.6343982,-2.9831753,-3.1651347
6.046423,4.786846,6.121311,-0.5341634,-1.2589424,3.2752678,-2.2697031,-2.5809495
6.0450325,4.792757,6.121311,-0.5341634,-1.2589424,3.2752678,-2.2697031,-2.5809495
6.043669,4.798506,5.9008017,-0.41698435,-1.2163317,3.394978,-1.6903064,-1.8866309
6.0423,4.8042727,5.9008017,-0.41698435,-1.2163317,3.394978,-1.6903064,-1.8866309
6.0409956,4.809781,5.6323547,-0.30513158,-1.1577423,3.5577838,-1.2258313,-1.1923125
6.039686,4.8153076,5.6323547,-0.30513158,-1.1577423,3.5577838,-1.2258313,-1.1923125
6.038457,4.820587,5.3202324,-0.19753987,-1.0885,4.060566,-0.79487497,-0.34476504
6.037227,4.8258686,5.3202324,-0.19753987,-1.0885,4.060566,-0.79487497,-0.34476504
6.036101,4.83086,4.9697604,-0.08462184,-1.0107358,4.606444,-0.30166942,0.5506664
6.034977,4.8358436,4.9697604,-0.08462184,-1.0107358,4.606444,-0.30166942,0.5506664
6.033962,4.840499,4.586265,0.04214463,-0.92977566,5.0374002,0.20111294,1.3790601
6.0329466,4.845156,4.586265,0.04214463,-0.92977566,5.0374002,0.20111294,1.3790601
6.032042,4.849449,4.170812,0.18275954,-0.8477503,5.2720323,0.641646,2.1212628
6.0311403,4.853735,4.170812,0.18275954,-0.8477503,5.2720323,0.641646,2.1212628
6.030359,4.857612,3.7265966,0.32870078,-0.7614639,5.3199162,1.0199299,2.9735985
6.029599,4.861389,3.7265966,0.32870078,-0.7614639,5.3199162,1.0199299,2.9735985
6.028941,4.864847,3.2578804,0.47144622,-0.6709164,5.1379566,1.2785037,3.8594532
6.028264,4.868417,3.2578804,0.47144622,-0.6709164,5.1379566,1.2785037,3.8594532
6.027726,4.871417,2.7699893,0.6014085,-0.5814342,5.2241483,1.3455414,4.7261543
6.0271916,4.874412,2.7699893,0.6014085,-0.5814342,5.2241483,1.3455414,4.7261543
6.02677,4.8769455,2.2671845,0.716457,-0.48982143,5.5497594,1.3503298,5.7029886
6.0263476,4.8794956,2.2671845,0.716457,-0.48982143,5.5497594,1.3503298,5.7029886
6.026045,4.8815355,1.7558575,0.8229835,-0.39714342,5.779603,1.115698,6.7085533
6.0257416,4.8835907,1.7558575,0.8229835,-0.39714342,5.779603,1.115698,6.7085533
6.0255504,4.88515,1.2381389,0.9241836,-0.30553067,5.995081,0.7661445,7.503428
6.0253606,4.8867083,1.2381389,0.9241836,-0.30553067,5.995081,0.7661445,7.503428
6.025279,4.8877683,0.71615934,1.0189922,-0.21604845,6.105214,0.2681506,8.169016
6.0251985,4.888833,0.71615934,1.0189922,-0.21604845,6.105214,0.2681506,8.169016
6.025223,4.889391,0.1963103,1.1042132,-0.12869677,6.0621185,-0.30645782,8.762778
6.025248,4.889953,0.1963103,1.1042132,-0.12869677,6.0621185,-0.30645782,8.762778
6.0253706,4.890014,-0.31821242,1.1745207,-0.043475613,6.0716953,-0.8714894,9.260772
6.025494,4.8900757,-0.31821242,1.1745207,-0.043475613,6.0716953,-0.8714894,9.260772
6.0257134,4.8896456,-0.819952,1.2267187,0.040680278,5.865794,-1.5275006,9.710882
6.0259314,4.889218,-0.819952,1.2267187,0.040680278,5.865794,-1.5275006,9.710882
6.0262423,4.888304,-1.3067778,1.2586766,0.1269667,5.717354,-2.054225,9.983821
6.0265517,4.8873925,-1.3067778,1.2586766,0.1269667,5.717354,-2.054225,9.983821
6.0269513,4.886017,-1.774429,1.2693293,0.21644892,5.5258174,-2.6671407,10.25676
6.0273504,4.884636,-1.774429,1.2693293,0.21644892,5.5258174,-2.6671407,10.25676
6.0278335,4.8828073,-2.2186441,1.2608072,0.3038006,5.3438582,-3.241749,10.261548
6.0283136,4.88098,-2.2186441,1.2608072,0.3038006,5.3438582,-3.241749,10.261548
6.028876,4.878723,-2.6383584,1.2331103,0.3932828,5.2959743,-3.8163576,10.261548
6.0294366,4.876461,-2.6383584,1.2331103,0.3932828,5.2959743,-3.8163576,10.261548
6.030076,4.873794,-3.0282452,1.1904997,0.4838303,5.3582234,-4.232949,10.065224
6.0307107,4.8711348,-3.0282452,1.1904997,0.4838303,5.3582234,-4.232949,10.065224
6.0314226,4.868088,-3.3904352,1.1372365,0.57224727,5.4061074,-4.7070007,9.749189
6.0321302,4.865044,-3.3904352,1.1372365,0.57224727,5.4061074,-4.7070007,9.749189
6.0329127,4.861649,-3.7217324,1.0797122,0.6574684,5.0421886,-5.1475334,9.375694
6.0336914,4.8582563,-3.7217324,1.0797122,0.6574684,5.0421886,-5.1475334,9.375694
6.0345407,4.8545547,-4.0178757,1.0179269,0.7394938,4.606444,-5.5641246,8.911219
6.035388,4.850845,-4.0178757,1.0179269,0.7394938,4.606444,-5.5641246,8.911219
6.0363054,4.84687,-4.279931,0.94974995,0.8247149,4.280833,-5.9902925,8.432379
6.037225,4.842871,-4.279931,0.94974995,0.8247149,4.280833,-5.9902925,8.432379
6.0382175,4.8386397,-4.5047016,0.87731194,0.91419715,4.209007,-6.531382,7.953538
6.0392065,4.8344088,-4.5047016,0.87731194,0.91419715,4.209007,-6.531382,7.953538
6.040272,4.82997,-4.6921883,0.8006129,1.0047446,4.213795,-6.9719152,7.5225816
6.041304,4.8256598,-4.6921883,0.8006129,1.0047446,4.213795,-6.9719152,7.5225816
6.0424457,4.8210373,-4.8466516,0.7228486,1.0952921,4.271256,-7.5704656,7.053318
6.043614,4.816295,-4.8466516,0.7228486,1.0952921,4.271256,-7.5704656,7.053318
6.0448303,4.811516,-4.9702225,0.65041065,1.1826438,4.3478703,-8.058883,6.5457473
6.0465856,4.8046026,-4.9702225,0.65041065,1.1826438,4.3478703,-8.058883,6.5457473
6.047296,4.8019075,-5.065031,0.58969057,1.267865,4.3622355,-8.470686,6.129156
6.048565,4.7970877,-5.065031,0.58969057,1.267865,4.3622355,-8.470686,6.129156
6.049912,4.792159,-5.1364036,0.5342968,1.348825,4.3047748,-8.686164,5.6790466
6.05126,4.787221,-5.1364036,0.5342968,1.348825,4.3047748,-8.686164,5.6790466
6.052679,4.7822194,-5.1854057,0.49062097,1.4223282,3.9839516,-8.829816,5.2289367
6.0541053,4.7771893,-5.1854057,0.49062097,1.4223282,3.9839516,-8.829816,5.2289367
6.055594,4.7721357,-5.2162986,0.45440197,1.4915705,3.667917,-8.916007,4.7070007
6.057069,4.767123,-5.2162986,0.45440197,1.4915705,3.667917,-8.916007,4.7070007
6.058613,4.7620697,-5.2322774,0.42563984,1.5597473,3.5434184,-9.102755,4.1946416
6.060162,4.756997,-5.2322774,0.42563984,1.5597473,3.5434184,-9.102755,4.1946416
6.061764,4.7519274,-5.234408,0.402204,1.622598,3.5482068,-9.270349,3.7253778
6.063362,4.7468643,-5.234408,0.402204,1.622598,3.5482068,-9.270349,3.7253778
6.065038,4.741727,-5.2248206,0.38622504,1.679057,3.5051112,-9.548077,3.2800562
6.0666666,4.736733,-5.2248206,0.38622504,1.679057,3.5051112,-9.548077,3.2800562
6.068357,4.7317014,-5.2056456,0.37663767,1.7280592,3.4237084,-9.797073,2.8060043
6.070051,4.726656,-5.2056456,0.37663767,1.7280592,3.4237084,-9.797073,2.8060043
6.0717835,4.7216463,-5.1758184,0.37237662,1.7685392,3.2321723,-10.0748005,2.408567
6.073513,4.716644,-5.1758184,0.37237662,1.7685392,3.2321723,-10.0748005,2.408567
6.0752745,4.711671,-5.1364036,0.36918083,1.8026277,3.1747115,-10.338163,1.9967642
6.0770383,4.706689,-5.1364036,0.36918083,1.8026277,3.1747115,-10.338163,1.9967642
6.0788093,4.7017937,-5.085271,0.36918083,1.8271288,3.0885203,-10.644621,1.5897499
6.080588,4.6968756,-5.085271,0.36918083,1.8271288,3.0885203,-10.644621,1.5897499
6.0823812,4.6920114,-5.0224204,0.36491975,1.8409772,2.9735985,-10.912771,1.2354081
6.084164,4.687172,-5.0224204,0.36491975,1.8409772,2.9735985,-10.912771,1.2354081
6.0859556,4.6823916,-4.949982,0.3574629,1.8452382,2.8395233,-11.171345,0.89064306
6.087744,4.677617,-4.949982,0.3574629,1.8452382,2.8395233,-11.171345,0.89064306
6.089522,4.6729302,-4.8647614,0.34681025,1.8420424,2.8299465,-11.36767,0.6751649
6.091302,4.668235,-4.8647614,0.34681025,1.8420424,2.8299465,-11.36767,0.6751649
6.093053,4.663635,-4.7688875,0.33296183,1.8271288,2.8921957,-11.616667,0.4165911
6.094799,4.659045,-4.7688875,0.33296183,1.8271288,2.8921957,-11.616667,0.4165911
6.0965242,4.65454,-4.6623607,0.32017866,1.8047582,2.9735985,-11.9853735,0.29209262
6.098245,4.650046,-4.6623607,0.32017866,1.8047582,2.9735985,-11.9853735,0.29209262
6.0999484,4.6456776,-4.5430512,0.3073955,1.7749308,2.825158,-12.397177,0.22026655
6.101654,4.6413016,-4.5430512,0.3073955,1.7749308,2.825158,-12.397177,0.22026655
6.1033325,4.637064,-4.413089,0.289286,1.7376466,2.6767175,-12.765883,0.08140286
6.104985,4.6328864,-4.413089,0.289286,1.7376466,2.6767175,-12.765883,0.08140286
6.1066403,4.628786,-4.270344,0.26371965,1.6918402,2.4468741,-13.091495,-0.08140286
6.10832,4.6246166,-4.270344,0.26371965,1.6918402,2.4468741,-13.091495,-0.08140286
6.1099386,4.620673,-4.1126842,0.23282696,1.6407075,2.303222,-13.388376,-0.34476504
6.1115465,4.616746,-4.1126842,0.23282696,1.6407075,2.303222,-13.388376,-0.34476504
6.1131306,4.6129656,-3.9379811,0.19128166,1.5885096,2.1978772,-13.651738,-0.5793968
6.114719,4.609163,-3.9379811,0.19128166,1.5885096,2.1978772,-13.651738,-0.5793968
6.116257,4.6055627,-3.748364,0.1390837,1.5320505,2.1930888,-13.939042,-0.8523358
6.1177917,4.601956,-3.748364,0.1390837,1.5320505,2.1930888,-13.939042,-0.8523358
6.1192718,4.5985603,-3.5406375,0.08155942,1.4691999,2.2026656,-14.202404,-1.067814
6.120748,4.5951586,-3.5406375,0.08155942,1.4691999,2.2026656,-14.202404,-1.067814
6.1221805,4.591956,-3.3137362,0.018708814,1.4020883,2.207454,-14.322115,-1.283292
6.1236053,4.588752,-3.3137362,0.018708814,1.4020883,2.207454,-14.322115,-1.283292
6.1249456,4.5858045,-3.06766,-0.04946811,1.328585,2.2601264,-14.4609785,-1.3599066
6.126282,4.5828524,-3.06766,-0.04946811,1.328585,2.2601264,-14.4609785,-1.3599066
6.1275554,4.580163,-2.8034744,-0.11977556,1.2508208,2.2457612,-14.5759,-1.5610195
6.128829,4.5774584,-2.8034744,-0.11977556,1.2508208,2.2457612,-14.5759,-1.5610195
6.130037,4.57505,-2.5222447,-0.19221355,1.1655996,2.207454,-14.671668,-1.7621324
6.131247,4.5726166,-2.5222447,-0.19221355,1.1655996,2.207454,-14.671668,-1.7621324
6.132422,4.570461,-2.2239707,-0.26997787,1.075052,2.1212628,-14.657303,-1.8962077
6.1335793,4.568316,-2.2239707,-0.26997787,1.075052,2.1212628,-14.657303,-1.8962077
6.1347146,4.566314,-1.9107828,-0.35200322,0.9802435,2.0207062,-14.599842,-2.2218192
6.135858,4.5643244,-1.9107828,-0.35200322,0.9802435,2.0207062,-14.599842,-2.2218192
6.1368394,4.562603,-1.5837466,-0.4329633,0.88436973,2.0350714,-14.475344,-2.4708161
6.137881,4.5607767,-1.5837466,-0.4329633,0.88436973,2.0350714,-14.475344,-2.4708161
6.138721,4.559401,-1.247123,-0.51285815,0.78743064,2.1212628,-14.331692,-2.705448
6.138721,4.559401,-1.247123,-0.51285815,0.78743064,2.1212628,-14.331692,-2.705448
6.1404505,4.5566616,-0.90410787,-0.58742666,0.6894263,2.1691468,-14.197616,-3.0119057
6.141136,4.555694,-0.90410787,-0.58742666,0.6894263,2.1691468,-14.197616,-3.0119057
6.141808,4.554951,-0.55683166,-0.6556036,0.58929145,2.2170308,-14.135366,-3.1124623
6.141808,4.554951,-0.55683166,-0.6556036,0.58929145,2.2170308,-14.135366,-3.1124623
6.1429815,4.554141,-0.2084902,-0.7173889,0.4870261,2.1883004,-14.044387,-3.3183637
6.1435704,4.5537353,-0.2084902,-0.7173889,0.4870261,2.1883004,-14.044387,-3.3183637
6.144037,4.553675,0.13772075,-0.7717174,0.38689122,2.1308396,-13.972561,-3.5338416
6.144754,4.553583,0.13772075,-0.7717174,0.38689122,2.1308396,-13.972561,-3.5338416
6.1449723,4.55373,0.4839317,-0.8228501,0.2856911,2.0590134,-13.934254,-3.7062242
6.1453795,4.5540032,0.4839317,-0.8228501,0.2856911,2.0590134,-13.934254,-3.7062242
6.145702,4.5546103,0.82694685,-0.87291753,0.1866215,1.958457,-13.8241205,-3.9743748
6.146024,4.555218,0.82694685,-0.87291753,0.1866215,1.958457,-13.8241205,-3.9743748
6.1462646,4.5561543,1.1646357,-0.92085445,0.087551914,1.757344,-13.661315,-4.213795
6.1465044,4.557095,1.1646357,-0.92085445,0.087551914,1.757344,-13.661315,-4.213795
6.1466513,4.558356,1.4938024,-0.9666608,-0.009387151,1.7669208,-13.445837,-4.501099
6.146796,4.559612,1.4938024,-0.9666608,-0.009387151,1.7669208,-13.445837,-4.501099
6.14685,4.561181,1.814447,-1.0103366,-0.10206516,1.8339585,-13.168109,-4.6686935
6.1469026,4.56275,1.814447,-1.0103366,-0.10206516,1.8339585,-13.168109,-4.6686935
6.146862,4.564617,2.1233737,-1.0508167,-0.1936779,2.0111294,-13.28782,-4.596867
6.1468196,4.5664825,2.1233737,-1.0508167,-0.1936779,2.0111294,-13.28782,-4.596867
6.146701,4.568648,2.4259088,-1.0817094,-0.28316012,1.7908629,-13.417107,-4.4963107
6.1465793,4.5708156,2.4259088,-1.0817094,-0.28316012,1.7908629,-13.417107,-4.4963107
6.1463747,4.5732794,2.7273786,-1.1062105,-0.37264234,1.6280571,-13.192051,-4.644751
6.1461673,4.5757427,2.7273786,-1.1062105,-0.37264234,1.6280571,-13.192051,-4.644751
6.145869,4.578496,3.0235221,-1.1307116,-0.46212456,1.6376339,-12.717999,-4.7261543
6.145567,4.581249,3.0235221,-1.1307116,-0.46212456,1.6376339,-12.717999,-4.7261543
6.1451793,4.584284,3.3100784,-1.1509515,-0.54628044,1.6089035,-12.306197,-4.7644615
6.1447887,4.5873184,3.3100784,-1.1509515,-0.54628044,1.6089035,-12.306197,-4.7644615
6.144326,4.5906167,3.578525,-1.1690611,-0.62297946,1.3551182,-11.918336,-4.817134
6.14386,4.5939145,3.578525,-1.1690611,-0.62297946,1.3551182,-11.918336,-4.817134
6.1433115,4.5974603,3.8309927,-1.1861053,-0.6964827,1.5227122,-11.654974,-4.8745947
6.1427593,4.6010056,3.8309927,-1.1861053,-0.6964827,1.5227122,-11.654974,-4.8745947
6.1421175,4.6047792,4.0642858,-1.2031496,-0.769986,1.9536686,-11.382035,-4.960786
6.141471,4.6085525,4.0642858,-1.2031496,-0.769986,1.9536686,-11.382035,-4.960786
6.1407433,4.612536,4.2773385,-1.2127368,-0.8402934,2.183512,-11.137826,-5.032612
6.1400113,4.6165185,4.2773385,-1.2127368,-0.8402934,2.183512,-11.137826,-5.032612
6.1392045,4.6206894,4.4669557,-1.2095411,-0.9106009,2.111686,-10.778696,-5.0278234
6.1392045,4.6206894,4.4669557,-1.2095411,-0.9106009,2.111686,-10.778696,-5.0278234
6.1375384,4.6291504,4.6352673,-1.1999537,-0.98090833,2.1691468,-10.366894,-5.0134583
6.13661,4.6336436,4.6352673,-1.1999537,-0.98090833,2.1691468,-10.366894,-5.0134583
6.135669,4.6379786,4.7812085,-1.1871705,-1.0469548,2.2840683,-9.835381,-5.070919
6.134703,4.6424074,4.7812085,-1.1871705,-1.0469548,2.2840683,-9.835381,-5.070919
6.1336517,4.647021,4.901583,-1.1658653,-1.1076748,2.3750482,-9.380483,-5.0182467
6.132597,4.6516247,4.901583,-1.1658653,-1.1076748,2.3750482,-9.380483,-5.0182467
6.1314917,4.656328,4.9995875,-1.1360378,-1.160938,1.9393034,-8.968679,-5.0996494
6.130382,4.661027,4.9995875,-1.1360378,-1.160938,1.9393034,-8.968679,-5.0996494
6.1291986,4.66582,5.076287,-1.1104715,-1.2120707,2.360683,-8.590396,-4.841076
6.1280146,4.6705933,5.076287,-1.1104715,-1.2120707,2.360683,-8.590396,-4.841076
6.1267643,4.6754384,5.1327457,-1.0806441,-1.2557466,2.753332,-8.101978,-4.5058875
6.125506,4.680297,5.1327457,-1.0806441,-1.2557466,2.753332,-8.101978,-4.5058875
6.1241994,4.6851873,5.17003,-1.031642,-1.2930309,2.9113493,-7.608773,-4.2281604
6.1228957,4.6900473,5.17003,-1.031642,-1.2930309,2.9113493,-7.608773,-4.2281604
6.121542,4.694976,5.1881394,-0.96772605,-1.3228582,2.753332,-7.091625,-3.6870706
6.1201816,4.6999135,5.1881394,-0.96772605,-1.3228582,2.753332,-7.091625,-3.6870706
6.118785,4.7048564,5.1924005,-0.8974186,-1.3441635,2.9735985,-6.7708025,-3.2082303
6.117388,4.709789,5.1924005,-0.8974186,-1.3441635,2.9735985,-6.7708025,-3.2082303
6.1159534,4.71473,5.177487,-0.8260459,-1.362273,3.0071173,-5.463568,-2.96881
6.1145186,4.7196603,5.177487,-0.8260459,-1.362273,3.0071173,-5.463568,-2.96881
6.1130257,4.724586,5.133811,-0.75147736,-1.378252,4.189853,-5.2480903,-2.4037786
6.11153,4.7295113,5.133811,-0.75147736,-1.378252,4.189853,-5.2480903,-2.4037786
6.1099987,4.734418,5.0539165,-0.669452,-1.3878393,4.3718123,-5.0757074,-1.8818425
6.1084776,4.7392855,5.0539165,-0.669452,-1.3878393,4.3718123,-5.0757074,-1.8818425
6.106968,4.744058,4.940998,-0.5629256,-1.382513,3.5051112,-4.9320555,-1.5993267
6.105465,4.748802,4.940998,-0.5629256,-1.382513,3.5051112,-4.9320555,-1.5993267
6.1039753,4.753439,4.7982526,-0.4606602,-1.3665341,3.241749,-4.3622355,-1.5610195
6.1024785,4.758095,4.7982526,-0.4606602,-1.3665341,3.241749,-4.3622355,-1.5610195
6.1009903,4.7626066,4.62568,-0.37756956,-1.3430983,4.0892963,-3.2752678,-1.340753
6.0995054,4.767105,4.62568,-0.37756956,-1.3430983,4.0892963,-3.2752678,-1.340753
6.098049,4.7714543,4.4083657,-0.28169575,-1.305814,4.5777135,-2.360683,-0.8810662
6.096596,4.775791,4.4083657,-0.28169575,-1.305814,4.5777135,-2.360683,-0.8810662
6.0952106,4.779898,4.1367235,-0.1666472,-1.249355,4.9081135,-1.6567876,-0.3878607
6.0938244,4.784005,4.1367235,-0.1666472,-1.249355,4.9081135,-1.6567876,-0.3878607
6.0925283,4.7878313,3.8171442,-0.040945996,-1.1790475,4.793192,-1.0295067,0.21068975
6.09123,4.7916656,3.8171442,-0.040945996,-1.1790475,4.793192,-1.0295067,0.21068975
6.0900345,4.795169,3.453889,0.08475521,-1.0980874,4.711789,-0.8379706,0.82360536
6.088837,4.7986803,3.453889,0.08475521,-1.0980874,4.711789,-0.8379706,0.82360536
6.0877457,4.8018193,3.05548,0.19980377,-1.0149968,4.903325,-0.6703765,1.4460979
6.0866523,4.804966,3.05548,0.19980377,-1.0149968,4.903325,-0.6703765,1.4460979
6.085674,4.8077135,2.6336353,0.3073955,-0.9223188,5.1810527,-0.5363012,2.111686
6.084695,4.810465,2.6336353,0.3073955,-0.9223188,5.1810527,-0.5363012,2.111686
6.0838337,4.812805,2.1958117,0.41392192,-0.8243145,5.415684,-0.4357447,2.825158
6.0829725,4.815149,2.1958117,0.41392192,-0.8243145,5.415684,-0.4357447,2.825158
6.082234,4.8170657,1.7484006,0.5225789,-0.7209838,5.506664,-0.5267244,3.3806129
6.0814953,4.8189855,1.7484006,0.5225789,-0.7209838,5.506664,-0.5267244,3.3806129
6.0808854,4.8204794,1.2977937,0.6312359,-0.61126155,5.377377,-0.8810662,3.9983168
6.080278,4.8219714,1.2977937,0.6312359,-0.61126155,5.377377,-0.8810662,3.9983168
6.0798016,4.8230457,0.8525132,0.73137075,-0.49514773,5.1235914,-1.3215994,4.486734
6.0793324,4.8241067,0.8525132,0.73137075,-0.49514773,5.1235914,-1.3215994,4.486734
6.07899,4.824766,0.41682005,0.8165919,-0.37583813,5.0374002,-1.8243817,4.984728
6.0786443,4.8254333,0.41682005,0.8165919,-0.37583813,5.0374002,-1.8243817,4.984728
6.078437,4.8256865,-0.0028941538,0.8858341,-0.2533327,5.070919,-2.360683,5.473145
6.07823,4.8259397,-0.0028941538,0.8858341,-0.2533327,5.070919,-2.360683,5.473145
6.0781507,4.8258033,-0.40449885,0.94122785,-0.13295783,5.1235914,-2.873042,5.889736
6.078071,4.825666,-0.40449885,0.94122785,-0.13295783,5.1235914,-2.873042,5.889736
6.078121,4.82515,-0.7922551,0.9891647,-0.01151768,5.109226,-3.4141316,6.291962
6.0781703,4.8246355,-0.7922551,0.9891647,-0.01151768,5.109226,-3.4141316,6.291962
6.0783486,4.823759,-1.1608366,1.0296447,0.11098773,4.9655743,-3.9025488,6.6367273
6.0785265,4.8228827,-1.1608366,1.0296447,0.11098773,4.9655743,-3.9025488,6.6367273
6.078828,4.821659,-1.5134392,1.0605375,0.23029736,4.807557,-4.3239284,6.813898
6.07913,4.820428,-1.5134392,1.0605375,0.23029736,4.807557,-4.3239284,6.813898
6.079548,4.8188686,-1.851128,1.0818428,0.3453459,4.654328,-4.745308,6.895301
6.079962,4.817319,-1.851128,1.0818428,0.3453459,4.654328,-4.745308,6.895301
6.08049,4.8154387,-2.1728377,1.094626,0.45719868,4.55856,-5.080496,6.95755
6.0810165,4.8135605,-2.1728377,1.094626,0.45719868,4.55856,-5.080496,6.95755
6.0816464,4.8113728,-2.4785688,1.0978217,0.56265986,4.534618,-5.3582234,6.9000893
6.082274,4.8091846,-2.4785688,1.0978217,0.56265986,4.534618,-5.3582234,6.9000893
6.083002,4.8067026,-2.7672553,1.094626,0.66599053,4.4915223,-5.568913,6.679823
6.083728,4.8042173,-2.7672553,1.094626,0.66599053,4.4915223,-5.568913,6.679823
6.0845404,4.8014584,-3.039963,1.0861038,0.75866854,4.462792,-5.707777,6.349423
6.0853477,4.798707,-3.039963,1.0861038,0.75866854,4.462792,-5.707777,6.349423
6.086231,4.795696,-3.296692,1.0733206,0.83962864,4.3287168,-5.803545,6.0716953
6.0871143,4.792675,-3.296692,1.0733206,0.83962864,4.3287168,-5.803545,6.0716953
6.088064,4.789419,-3.5331805,1.0562764,0.9131319,4.209007,-5.971139,5.7987566
6.0890117,4.7861595,-3.5331805,1.0562764,0.9131319,4.209007,-5.971139,5.7987566
6.090018,4.7826796,-3.748364,1.0360364,0.97917825,4.1611223,-6.0860605,5.3821654
6.0910215,4.779196,-3.748364,1.0360364,0.97917825,4.1611223,-6.0860605,5.3821654
6.0920715,4.775518,-3.9401116,1.0126005,1.0356373,4.2521024,-6.277597,4.9943047
6.0931177,4.771839,-3.9401116,1.0126005,1.0356373,4.2521024,-6.277597,4.9943047
6.094206,4.767987,-4.108423,0.98809946,1.0857047,4.2999864,-6.555324,4.7309427
6.095291,4.764134,-4.108423,0.98809946,1.0857047,4.2999864,-6.555324,4.7309427
6.096411,4.7601357,-4.249038,0.9646636,1.1283153,4.189853,-6.8330517,4.343082
6.0975285,4.756137,-4.249038,0.9646636,1.1283153,4.189853,-6.8330517,4.343082
6.098674,4.752021,-4.366217,0.9422931,1.1645343,4.1706996,-7.264008,4.10845
6.099818,4.7478967,-4.366217,0.9422931,1.1645343,4.1706996,-7.264008,4.10845
6.1009893,4.743681,-4.45783,0.91992253,1.1975574,4.098873,-7.632715,3.8833952
6.1021557,4.739469,-4.45783,0.91992253,1.1975574,4.098873,-7.632715,3.8833952
6.1033487,4.735182,-4.526007,0.9007478,1.2273849,3.9504328,-8.049306,3.643975
6.104521,4.7309594,-4.526007,0.9007478,1.2273849,3.9504328,-8.049306,3.643975
6.1057367,4.726622,-4.573944,0.8826383,1.2572123,3.7732618,-8.355764,3.3614593
6.10697,4.722211,-4.573944,0.8826383,1.2572123,3.7732618,-8.355764,3.3614593
6.1082053,4.717843,-4.6016407,0.865594,1.2859744,3.6966474,-8.7532015,3.0454245
6.1094313,4.713496,-4.6016407,0.865594,1.2859744,3.6966474,-8.7532015,3.0454245
6.1106887,4.7091107,-4.6154895,0.8464193,1.3168671,3.6248214,-9.074024,2.7724855
6.111949,4.704704,-4.6154895,0.8464193,1.3168671,3.6248214,-9.074024,2.7724855
6.113231,4.7003145,-4.6165547,0.8272445,1.3477597,3.4955344,-9.423578,2.5761611
6.1145105,4.6959257,-4.6165547,0.8272445,1.3477597,3.4955344,-9.423578,2.5761611
6.1158156,4.6915464,-4.608032,0.8070045,1.3818482,3.4284968,-9.749189,2.2170308
6.1171193,4.6871614,-4.608032,0.8070045,1.3818482,3.4284968,-9.749189,2.2170308
6.1184587,4.6827917,-4.5877924,0.7867645,1.4159367,3.2321723,-9.998186,2.0638018
6.119811,4.6783695,-4.5877924,0.7867645,1.4159367,3.2321723,-9.998186,2.0638018
6.1212025,4.6739483,-4.557965,0.7643939,1.4478946,3.1316159,-10.199299,1.9201498
6.122525,4.6697354,-4.557965,0.7643939,1.4478946,3.1316159,-10.199299,1.9201498
6.123896,4.6654925,-4.5196157,0.74308866,1.477722,3.040636,-10.400413,1.7381904
6.1252804,4.661198,-4.5196157,0.74308866,1.477722,3.040636,-10.400413,1.7381904
6.1267,4.6569386,-4.4738092,0.7175223,1.5075494,2.825158,-10.5919485,1.5370775
6.1281147,4.652683,-4.4738092,0.7175223,1.5075494,2.825158,-10.5919485,1.5370775
6.129559,4.648472,-4.4173503,0.6876949,1.5331157,2.7389667,-10.802638,1.4269443
6.1315928,4.6425266,-4.4173503,0.6876949,1.5331157,2.7389667,-10.802638,1.4269443
6.132466,4.6400366,-4.352369,0.6536064,1.5565516,2.9640217,-10.994174,1.3982137
6.132466,4.6400366,-4.352369,0.6536064,1.5565516,2.9640217,-10.994174,1.3982137
6.135427,4.631594,-4.2809963,0.6184527,1.5735959,3.0693667,-11.190498,1.3359646
6.1368675,4.627575,-4.2809963,0.6184527,1.5735959,3.0693667,-11.190498,1.3359646
6.1383066,4.62366,-4.2021666,0.5854295,1.5853138,3.083732,-11.449073,1.2449849
6.139832,4.6195045,-4.2021666,0.5854295,1.5853138,3.083732,-11.449073,1.2449849
6.1419377,4.613918,-4.1169453,0.5524063,1.5874443,2.9113493,-11.669339,1.2401965
6.1428084,4.6116037,-4.1169453,0.5524063,1.5874443,2.9113493,-11.669339,1.2401965
6.1428084,4.6116037,-4.1169453,0.5524063,1.5874443,2.9113493,-11.669339,1.2401965
6.1462917,4.6025777,-4.025333,0.51725256,1.586379,2.7389667,-11.951855,1.1013328
6.147178,4.6003447,-3.9273283,0.474642,1.5810527,2.4756045,-12.354081,0.92416185
6.14866,4.5966053,-3.9273283,0.474642,1.5810527,2.4756045,-12.354081,0.92416185
6.150152,4.592954,-3.8186715,0.42244405,1.5714653,2.255338,-12.785037,0.79487497
6.1516414,4.5893025,-3.8186715,0.42244405,1.5714653,2.255338,-12.785037,0.79487497
6.1531315,4.5857673,-3.6993618,0.36172396,1.5608127,2.087744,-13.22557,0.61291564
6.1546116,4.5822487,-3.6993618,0.36172396,1.5608127,2.087744,-13.22557,0.61291564
6.156095,4.57883,-3.567269,0.29354703,1.5480295,2.1308396,-13.603854,0.4165911
6.1575828,4.5753965,-3.567269,0.29354703,1.5480295,2.1308396,-13.603854,0.4165911
6.1590343,4.5721626,-3.4149363,0.21897852,1.52992,2.1547816,-13.948619,0.1340753
6.1605024,4.5688868,-3.4149363,0.21897852,1.52992,2.1547816,-13.948619,0.1340753
6.161952,4.5657873,-3.2412982,0.14121422,1.5064842,2.1404164,-14.288596,-0.16280572
6.163402,4.5626817,-3.2412982,0.14121422,1.5064842,2.1404164,-14.288596,-0.16280572
6.1648383,4.5597706,-3.0442243,0.060254127,1.4745263,1.9488802,-14.54717,-0.41180268
6.1662726,4.556859,-3.0442243,0.060254127,1.4745263,1.9488802,-14.54717,-0.41180268
6.1676936,4.554155,-2.8247797,-0.02496703,1.4383073,1.7908629,-14.834474,-0.7038953
6.1691146,4.5514474,-2.8247797,-0.02496703,1.4383073,1.7908629,-14.834474,-0.7038953
6.1705155,4.5489726,-2.5850952,-0.11444924,1.3956966,1.6376339,-15.016433,-0.9864111
6.171915,4.546498,-2.5850952,-0.11444924,1.3956966,1.6376339,-15.016433,-0.9864111
6.1732965,4.5442743,-2.3251708,-0.20606199,1.3509556,1.4796166,-15.1696615,-1.2401965
6.1746783,4.542047,-2.3251708,-0.20606199,1.3509556,1.4796166,-15.1696615,-1.2401965
6.176036,4.540087,-2.0492673,-0.29660946,1.304084,1.4221559,-15.365987,-1.5035586
6.177391,4.538128,-2.0492673,-0.29660946,1.304084,1.4221559,-15.365987,-1.5035586
6.1787257,4.5364494,-1.7573847,-0.38396114,1.2540165,1.3311762,-15.514427,-1.7908629
6.180061,4.5347686,-1.7573847,-0.38396114,1.2540165,1.3311762,-15.514427,-1.7908629
6.1813765,4.5333786,-1.4548496,-0.4691823,1.2007532,1.3072342,-15.591042,-2.1691468
6.182684,4.531995,-1.4548496,-0.4691823,1.2007532,1.3072342,-15.591042,-2.1691468
6.184002,4.530891,-1.1448576,-0.5501424,1.1442943,1.1875241,-15.614984,-2.528277
6.185317,4.529789,-1.1448576,-0.5501424,1.1442943,1.1875241,-15.614984,-2.528277
6.186634,4.528928,-0.8327352,-0.6247109,1.0825089,1.1109096,-15.619772,-2.8443117
6.1879506,4.5280724,-0.8327352,-0.6247109,1.0825089,1.1109096,-15.619772,-2.8443117
6.189209,4.527463,-0.5227432,-0.6939531,1.0196583,1.0726024,-15.619772,-3.0502129
6.1904683,4.5268555,-0.5227432,-0.6939531,1.0196583,1.0726024,-15.619772,-3.0502129
6.1916847,4.5264935,-0.21701232,-0.75893426,0.95254666,0.90979666,-15.380352,-3.371036
6.192824,4.5261536,-0.21701232,-0.75893426,0.95254666,0.90979666,-15.380352,-3.371036
6.193917,4.5260935,0.08552279,-0.8175238,0.88010865,0.9624691,-15.346833,-3.4763808
6.1949835,4.5260344,0.08552279,-0.8175238,0.88010865,0.9624691,-15.346833,-3.4763808
6.195995,4.526264,0.3827316,-0.8654607,0.8066054,0.90500826,-15.418659,-3.5913026
6.197009,4.5264945,0.3827316,-0.8654607,0.8066054,0.90500826,-15.418659,-3.5913026
6.197961,4.5270166,0.6767446,-0.8995491,0.7331022,0.6751649,-15.433024,-3.9360676
6.198905,4.5275364,0.6767446,-0.8995491,0.7331022,0.6751649,-15.433024,-3.9360676
6.1997724,4.5283413,0.9664965,-0.92937654,0.65533787,0.58897364,-15.140931,-4.237737
6.200635,4.5291443,0.9664965,-0.92937654,0.65533787,0.58897364,-15.140931,-4.237737
6.20141,4.5302267,1.2509221,-0.95707345,0.57118195,0.59376204,-14.805743,-4.4723687
6.2021837,4.531311,1.2509221,-0.95707345,0.57118195,0.59376204,-14.805743,-4.4723687
6.2028627,4.532661,1.524695,-0.98157454,0.48276502,0.6607997,-14.537593,-4.6926355
6.2035413,4.5340147,1.524695,-0.98157454,0.48276502,0.6607997,-14.537593,-4.6926355
6.2041283,4.5356493,1.7856848,-1.0018145,0.38902175,0.82360536,-14.355634,-4.783615
6.204694,4.5372314,1.7856848,-1.0018145,0.38902175,0.82360536,-14.355634,-4.783615
6.2051663,4.5390887,2.0349567,-1.0220546,0.2856911,0.8571242,-14.197616,-4.88896
6.205636,4.540943,2.0349567,-1.0220546,0.2856911,0.8571242,-14.197616,-4.88896
6.2059917,4.5430355,2.2767718,-1.0390987,0.1749036,0.94810385,-13.819332,-4.8985367
6.2063456,4.5451326,2.2767718,-1.0390987,0.1749036,0.94810385,-13.819332,-4.8985367
6.206573,4.547456,2.5058036,-1.0518819,0.05346345,1.0630256,-13.326127,-5.0038815
6.2067976,4.549777,2.5058036,-1.0518819,0.05346345,1.0630256,-13.326127,-5.0038815
6.206889,4.5523076,2.7231176,-1.0625346,-0.075433545,1.1540052,-12.876017,-4.9320555
6.2069783,4.5548487,2.7231176,-1.0625346,-0.075433545,1.1540052,-12.876017,-4.9320555
6.206928,4.557591,2.926583,-1.0710567,-0.21072213,1.2401965,-12.569559,-4.8841715
6.206875,4.560325,2.926583,-1.0710567,-0.21072213,1.2401965,-12.569559,-4.8841715
6.206677,4.5632463,3.115135,-1.0731872,-0.347076,1.4269443,-12.253524,-4.831499
6.2064757,4.5661697,3.115135,-1.0731872,-0.347076,1.4269443,-12.253524,-4.831499
6.206126,4.5692635,3.293034,-1.0689262,-0.48982143,1.508347,-11.856087,-4.7979803
6.2057734,4.572363,3.293034,-1.0689262,-0.48982143,1.508347,-11.856087,-4.7979803
6.205267,4.5756283,3.457085,-1.0604041,-0.63256687,1.685518,-11.3964,-4.7884035
6.2047577,4.578893,3.457085,-1.0604041,-0.63256687,1.685518,-11.3964,-4.7884035
6.204099,4.5823,3.6040914,-1.0476209,-0.77424705,1.8004397,-10.840945,-4.8219223
6.2034388,4.5857005,3.6040914,-1.0476209,-0.77424705,1.8004397,-10.840945,-4.8219223
6.202631,4.5892377,3.731923,-1.0337725,-0.91379666,1.8004397,-10.582372,-4.721366
6.201824,4.5927563,3.731923,-1.0337725,-0.91379666,1.8004397,-10.582372,-4.721366
6.2008686,4.596415,3.84058,-1.019924,-1.0469548,1.8483237,-10.275913,-4.606444
6.1999154,4.600051,3.84058,-1.019924,-1.0469548,1.8483237,-10.275913,-4.606444
6.198827,4.603778,3.9311275,-1.0028799,-1.1726559,1.9488802,-10.041282,-4.405331
6.1977315,4.6075144,3.9311275,-1.0028799,-1.1726559,1.9488802,-10.041282,-4.405331
6.1965203,4.611303,4.0088916,-0.98583555,-1.2887697,1.9967642,-9.916783,-4.2185836
6.195296,4.615121,4.0088916,-0.98583555,-1.2887697,1.9967642,-9.916783,-4.2185836
6.193969,4.6189957,4.078134,-0.96772605,-1.3921005,1.8722657,-9.892841,-4.050989
6.1926374,4.6228733,4.078134,-0.96772605,-1.3921005,1.8722657,-9.892841,-4.050989
6.1912146,4.626815,4.143115,-0.9538776,-1.4815826,1.7764976,-9.787497,-4.036624
6.18979,4.630751,4.143115,-0.9538776,-1.4815826,1.7764976,-9.787497,-4.036624
6.188286,4.6347523,4.208096,-0.9464208,-1.5540206,1.8339585,-9.773131,-3.916914
6.1867785,4.638752,4.208096,-0.9464208,-1.5540206,1.8339585,-9.773131,-3.916914
6.1852117,4.6428123,4.2773385,-0.9421597,-1.6115448,1.8483237,-9.950302,-3.763685
6.183634,4.6468916,4.2773385,-0.9421597,-1.6115448,1.8483237,-9.950302,-3.763685
6.181877,4.651386,4.356168,-0.93896395,-1.6541555,1.8387469,-10.0987425,-3.5482068
6.180334,4.655323,4.356168,-0.93896395,-1.6541555,1.8387469,-10.0987425,-3.5482068
6.1787295,4.6594234,4.4477806,-0.93896395,-1.6797218,1.9153614,-10.314221,-3.3135753
6.177078,4.663637,4.4477806,-0.93896395,-1.6797218,1.9153614,-10.314221,-3.3135753
6.175404,4.6679735,4.554307,-0.94109446,-1.6914397,1.910573,-10.5919485,-3.169923
6.1737266,4.672308,4.554307,-0.94109446,-1.6914397,1.910573,-10.5919485,-3.169923
6.172047,4.676773,4.6768126,-0.94535553,-1.6903745,1.7956513,-10.807426,-2.9496565
6.1703663,4.6812325,4.6768126,-0.94535553,-1.6903745,1.7956513,-10.807426,-2.9496565
6.168701,4.6858273,4.814232,-0.9517471,-1.6775913,1.6280571,-10.922348,-2.8874073
6.1670346,4.690417,4.814232,-0.9517471,-1.6775913,1.6280571,-10.922348,-2.8874073
6.1653857,4.695158,4.963369,-0.9645303,-1.652025,1.6711528,-10.955867,-2.7629087
6.1637287,4.699912,4.963369,-0.9645303,-1.652025,1.6711528,-10.955867,-2.7629087
6.1621184,4.7048063,5.116767,-0.9805092,-1.6168712,1.2689269,-10.170568,-2.9640217
6.160514,4.70967,5.116767,-0.9805092,-1.6168712,1.2689269,-10.170568,-2.9640217
6.158873,4.7147436,5.266969,-1.0028799,-1.5742606,2.7102363,-9.950302,-2.5713725
6.1572404,4.719781,5.266969,-1.0028799,-1.5742606,2.7102363,-9.950302,-2.5713725
6.1556582,4.724956,5.403323,-1.0103366,-1.5252584,2.4133554,-9.80665,-2.4229321
6.1540723,4.73013,5.403323,-1.0103366,-1.5252584,2.4133554,-9.80665,-2.4229321
6.152576,4.7354136,5.527959,-0.99755347,-1.4645385,1.6041151,-9.193734,-2.7581203
6.1510687,4.740718,5.527959,-0.99755347,-1.4645385,1.6041151,-9.193734,-2.7581203
6.1495943,4.7461076,5.6440725,-0.9964882,-1.4070141,2.3463178,-7.991845,-2.873042
6.148103,4.75154,5.6440725,-0.9964882,-1.4070141,2.3463178,-7.991845,-2.873042
6.146629,4.7570424,5.737816,-0.9964882,-1.3558815,3.466804,-6.579266,-2.7485435
6.145144,4.762566,5.737816,-0.9964882,-1.3558815,3.466804,-6.579266,-2.7485435
6.143678,4.768152,5.7921443,-0.9698566,-1.305814,4.4819455,-5.070919,-2.4420857
6.1422076,4.773738,5.7921443,-0.9698566,-1.305814,4.4819455,-5.070919,-2.4420857
6.14078,4.7793446,5.7985363,-0.9123323,-1.2536161,4.2425256,-3.7110126,-2.0590134
6.139351,4.7849393,5.7985363,-0.9123323,-1.2536161,4.2425256,-3.7110126,-2.0590134
6.1379595,4.7905354,5.7516646,-0.8388291,-1.201418,4.2042184,-2.743755,-1.508347
6.1365666,4.7961197,5.7516646,-0.8388291,-1.201418,4.2042184,-2.743755,-1.508347
6.1352262,4.801622,5.6504645,-0.7642606,-1.1513506,4.5154643,-1.8339585,-1.1109096
6.1338797,4.8071346,5.6504645,-0.7642606,-1.1513506,4.5154643,-1.8339585,-1.1109096
6.13259,4.812527,5.5002623,-0.685431,-1.1034137,5.085284,-0.9528923,-0.7374141
6.1312947,4.81793,5.5002623,-0.685431,-1.1034137,5.085284,-0.9528923,-0.7374141
6.1300693,4.823126,5.299992,-0.5980793,-1.0586727,5.717354,-0.05746084,-0.23942018
6.128829,4.828374,5.299992,-0.5980793,-1.0586727,5.717354,-0.05746084,-0.23942018
6.127662,4.833372,5.0485897,-0.4936834,-1.011801,6.277597,0.7469909,0.37828386
6.1264935,4.8383713,5.0485897,-0.4936834,-1.011801,6.277597,0.7469909,0.37828386
6.125393,4.843095,4.748185,-0.36798218,-0.9638641,6.564901,1.388637,0.7086837
6.1242914,4.8478184,4.748185,-0.36798218,-0.9638641,6.564901,1.388637,0.7086837
6.123269,4.8522224,4.3998437,-0.22736728,-0.90953565,6.694188,1.9153614,1.2641385
6.1222215,4.8567324,4.3998437,-0.22736728,-0.90953565,6.694188,1.9153614,1.2641385
6.1213007,4.860685,4.009957,-0.08036078,-0.8530766,6.799533,2.3319526,1.5897499
6.1203647,4.8647027,4.009957,-0.08036078,-0.8530766,6.799533,2.3319526,1.5897499
6.1195073,4.868375,3.582786,0.06877624,-0.7891607,7.0485296,2.5905263,2.1930888
6.118656,4.872022,3.582786,0.06877624,-0.7891607,7.0485296,2.5905263,2.1930888
6.1179028,4.8752394,3.1268528,0.21897852,-0.7209838,7.2209125,2.705448,2.9352913
6.117151,4.8784537,3.1268528,0.21897852,-0.7209838,7.2209125,2.705448,2.9352913
6.1165032,4.8812203,2.6474838,0.37344187,-0.64535004,7.1730285,2.6479871,3.5338416
6.115857,4.8839884,2.6474838,0.37344187,-0.64535004,7.1730285,2.6479871,3.5338416
6.1153293,4.8862953,2.1574621,0.531101,-0.55799836,7.192182,2.4229321,4.2999864
6.1148024,4.8886027,2.1574621,0.531101,-0.55799836,7.192182,2.4229321,4.2999864
6.1144037,4.8904405,1.6578531,0.68662965,-0.45999402,7.1347213,2.0159178,4.999093
6.114007,4.8922753,1.6578531,0.68662965,-0.45999402,7.1347213,2.0159178,4.999093
6.113747,4.8936377,1.1561136,0.8357667,-0.35346758,7.053318,1.436521,5.8801594
6.113488,4.8950005,1.1561136,0.8357667,-0.35346758,7.053318,1.436521,5.8801594
6.113236,4.8979607,0.17287448,1.1084744,-0.11378307,6.540959,0.110133275,7.3166804
6.113236,4.8979607,0.17287448,1.1084744,-0.11378307,6.540959,0.110133275,7.3166804
6.113236,4.8979607,0.17287448,1.1084744,-0.11378307,6.540959,0.110133275,7.3166804
6.113236,4.8979607,0.17287448,1.1084744,-0.11378307,6.540959,0.110133275,7.3166804
6.1134305,4.897935,-0.30010295,1.2299145,0.021505518,6.2584434,-0.7326257,7.920019
6.1134305,4.897935,-0.30010295,1.2299145,0.021505518,6.2584434,-0.7326257,7.920019
6.114203,4.896955,-0.7571014,1.3449631,0.16957727,5.923255,-1.4987702,8.317456
6.114546,4.8965178,-0.7571014,1.3449631,0.16957727,5.923255,-1.4987702,8.317456
6.115091,4.8956246,-1.2002515,1.4493589,0.32936695,5.45878,-2.207454,8.595184
6.1156197,4.8947544,-1.2002515,1.4493589,0.32936695,5.45878,-2.207454,8.595184
6.11636,4.8934207,-1.629553,1.5409718,0.49874398,5.080496,-2.777274,8.690952
6.117069,4.8921404,-1.629553,1.5409718,0.49874398,5.080496,-2.777274,8.690952
6.118379,4.889669,-2.0482018,1.6176708,0.6755779,4.697424,-3.3279405,8.552089
6.1188974,4.888688,-2.0482018,1.6176708,0.6755779,4.697424,-3.3279405,8.552089
6.119988,4.8865747,-2.4572635,1.6773256,0.8545423,4.3526587,-3.8833952,8.494628
6.121084,4.8844423,-2.4572635,1.6773256,0.8545423,4.3526587,-3.8833952,8.494628
6.1223674,4.88191,-2.8578029,1.7220666,1.034572,3.892972,-4.510676,8.42759
6.123643,4.879384,-2.8578029,1.7220666,1.034572,3.892972,-4.510676,8.42759
6.1251073,4.8764553,-3.2498202,1.7550899,1.215667,3.5242648,-5.118803,8.307879
6.126564,4.8735304,-3.2498202,1.7550899,1.215667,3.5242648,-5.118803,8.307879
6.1285024,4.8696146,-3.627989,1.7763952,1.3956966,3.2465374,-5.7748146,8.288726
6.1298537,4.8668737,-3.627989,1.7763952,1.3956966,3.2465374,-5.7748146,8.288726
6.1316423,4.8632283,-3.990179,1.7881131,1.5682695,3.016694,-6.4547677,8.207323
6.133428,4.8595734,-3.990179,1.7881131,1.5682695,3.016694,-6.4547677,8.207323
6.1353717,4.8555684,-4.3299985,1.7902436,1.7301897,3.040636,-7.053318,8.054094
6.137315,4.851549,-4.3299985,1.7902436,1.7301897,3.040636,-7.053318,8.054094
6.1393924,4.847211,-4.6442513,1.7859825,1.8740004,3.0550013,-7.469909,7.704541
6.1414614,4.842875,-4.6442513,1.7859825,1.8740004,3.0550013,-7.469909,7.704541
6.143646,4.83824,-4.928677,1.77533,1.9975711,3.1172507,-7.680599,7.2831616
6.1458216,4.8336077,-4.928677,1.77533,1.9975711,3.1172507,-7.680599,7.2831616
6.148084,4.8287163,-5.1811447,1.7572204,2.098771,3.2273839,-7.8865004,6.7612257
6.150337,4.823828,-5.1811447,1.7572204,2.098771,3.2273839,-7.8865004,6.7612257
6.1526723,4.8186526,-5.400589,1.7305888,2.1680133,3.2609026,-7.9104424,6.205771
6.154949,4.813587,-5.400589,1.7305888,2.1680133,3.2609026,-7.9104424,6.205771
6.15728,4.808269,-5.585945,1.6975656,2.2074282,3.1794999,-7.9870567,5.717354
6.1596003,4.8029537,-5.585945,1.6975656,2.2074282,3.1794999,-7.9870567,5.717354
6.1619153,4.7974806,-5.7414737,1.6570855,2.219146,3.145981,-7.9966335,5.2289367
6.164215,4.7920227,-5.7414737,1.6570855,2.219146,3.145981,-7.9966335,5.2289367
6.1664844,4.786415,-5.8650446,1.6102139,2.2031672,3.4141316,-7.967903,4.6830587
6.1687484,4.7808,-5.8650446,1.6102139,2.2031672,3.4141316,-7.967903,4.6830587
6.1709547,4.775078,-5.963049,1.5654728,2.1648176,3.5673606,-7.9822683,4.19943
6.173153,4.769354,-5.963049,1.5654728,2.1648176,3.5673606,-7.9822683,4.19943
6.1752763,4.763545,-6.040813,1.5228622,2.1040976,3.5051112,-8.106767,3.7972038
6.1752763,4.763545,-6.040813,1.5228622,2.1040976,3.5051112,-8.106767,3.7972038
6.1794796,4.7518644,-6.097272,1.4845127,2.0263333,3.3423057,-8.173804,3.3854012
6.1815343,4.7458787,-6.097272,1.4845127,2.0263333,3.3423057,-8.173804,3.3854012
6.1834292,4.740027,-6.1345563,1.4504242,1.9400468,3.1986535,-8.355764,2.920926
6.1853127,4.734185,-6.1345563,1.4504242,1.9400468,3.1986535,-8.355764,2.920926
6.187111,4.7282476,-6.152666,1.4184663,1.8473688,3.064578,-8.542512,2.4229321
6.1889052,4.722297,-6.152666,1.4184663,1.8473688,3.064578,-8.542512,2.4229321
6.1905866,4.716343,-6.155862,1.3886389,1.7525603,2.858677,-8.829816,1.9057846
6.19226,4.710394,-6.155862,1.3886389,1.7525603,2.858677,-8.829816,1.9057846
6.1938124,4.704426,-6.146274,1.3577462,1.6588169,2.8634653,-9.016563,1.2018893
6.1953554,4.6984696,-6.146274,1.3577462,1.6588169,2.8634653,-9.016563,1.2018893
6.196782,4.6925097,-6.1228385,1.3257883,1.5693347,2.681506,-9.313444,0.5554548
6.198205,4.6865435,-6.1228385,1.3257883,1.5693347,2.681506,-9.313444,0.5554548
6.1995187,4.680613,-6.08875,1.2927651,1.4830483,2.2409728,-9.653421,0.11971009
6.2008314,4.674668,-6.08875,1.2927651,1.4830483,2.2409728,-9.653421,0.11971009
6.2020493,4.6687565,-6.0429435,1.2565461,1.4042188,1.934515,-10.113108,-0.18674773
6.2032623,4.6628504,-6.0429435,1.2565461,1.4042188,1.934515,-10.113108,-0.18674773
6.204396,4.656985,-5.9811583,1.216066,1.3371071,1.6184803,-10.553641,-0.44532153
6.205525,4.6511292,-5.9811583,1.216066,1.3371071,1.6184803,-10.553641,-0.44532153
6.206591,4.6453247,-5.901263,1.171325,1.2838439,1.4030021,-10.927136,-0.6703765
6.207652,4.6395345,-5.901263,1.171325,1.2838439,1.4030021,-10.927136,-0.6703765
6.2086706,4.633803,-5.8021936,1.1244533,1.2444291,1.484405,-11.425131,-0.8762778
6.2096777,4.6281075,-5.8021936,1.1244533,1.2444291,1.484405,-11.425131,-0.8762778
6.210699,4.622435,-5.68608,1.0775816,1.2167323,1.1875241,-11.741165,-1.2306197
6.2116966,4.6167755,-5.68608,1.0775816,1.2167323,1.1875241,-11.741165,-1.2306197
6.2127132,4.6112175,-5.553987,1.0307101,1.1986227,1.091756,-12.210428,-1.412579
6.213703,4.6056705,-5.553987,1.0307101,1.1986227,1.091756,-12.210428,-1.412579
6.2147264,4.6002483,-5.40485,0.9806426,1.1890354,1.1109096,-12.445061,-1.7669208
6.2157335,4.5948286,-5.40485,0.9806426,1.1890354,1.1109096,-12.445061,-1.7669208
6.216767,4.589561,-5.2418647,0.93377095,1.18797,1.0342951,-12.65575,-1.9871874
6.2177873,4.584294,-5.2418647,0.93377095,1.18797,1.0342951,-12.65575,-1.9871874
6.218851,4.5791917,-5.069292,0.8922257,1.1911659,0.8523358,-12.761095,-2.1691468
6.2199063,4.5740886,-5.069292,0.8922257,1.1911659,0.8523358,-12.761095,-2.1691468
6.2209806,4.569164,-4.888197,0.8549414,1.199688,0.79008657,-12.876017,-2.3798366
6.2220483,4.564238,-4.888197,0.8549414,1.199688,0.79008657,-12.876017,-2.3798366
6.2231293,4.559492,-4.7049713,0.8176572,1.2135365,0.7757214,-12.842498,-2.6288335
6.2242036,4.5547457,-4.7049713,0.8176572,1.2135365,0.7757214,-12.842498,-2.6288335
6.2252836,4.550184,-4.517485,0.7825034,1.2263197,0.81881696,-12.828133,-2.8060043
6.2263565,4.545621,-4.517485,0.7825034,1.2263197,0.81881696,-12.828133,-2.8060043
6.2274303,4.541243,-4.3310637,0.75161076,1.2369722,0.90021986,-12.780249,-2.9735985
6.2284966,4.5368643,-4.3310637,0.75161076,1.2369722,0.90021986,-12.780249,-2.9735985
6.2295713,4.532666,-4.147838,0.72178334,1.2433639,0.90021986,-12.703634,-3.1316159
6.2306476,4.528434,-4.147838,0.72178334,1.2433639,0.90021986,-12.703634,-3.1316159
6.231696,4.524433,-3.9667432,0.69728225,1.2422986,1.0199299,-12.631808,-3.217807
6.232747,4.5203953,-3.9667432,0.69728225,1.2422986,1.0199299,-12.631808,-3.217807
6.23377,4.5165854,-3.7899094,0.675977,1.2327112,1.0582372,-12.62702,-3.2609026
6.2347956,4.5127335,-3.7899094,0.675977,1.2327112,1.0582372,-12.62702,-3.2609026
6.235795,4.509078,-3.615206,0.655737,1.2146018,1.0773908,-12.62702,-3.3135753
6.2367926,4.5054007,-3.615206,0.655737,1.2146018,1.0773908,-12.62702,-3.3135753
6.2377625,4.5019116,-3.445829,0.63656217,1.1869048,1.0390835,-12.708423,-3.394978
6.23873,4.4984026,-3.445829,0.63656217,1.1869048,1.0390835,-12.708423,-3.394978
6.2396607,4.4950786,-3.2764518,0.61419165,1.1453595,0.9672575,-12.837709,-3.4620156
6.240588,4.4917393,-3.2764518,0.61419165,1.1453595,0.9672575,-12.837709,-3.4620156
6.2414846,4.488569,-3.10814,0.5854295,1.0974226,0.8571242,-12.914324,-3.5290532
6.2423735,4.485399,-3.10814,0.5854295,1.0974226,0.8571242,-12.914324,-3.5290532
6.243216,4.4824023,-2.9366324,0.5492105,1.0409636,0.842759,-13.043611,-3.6487634
6.2440553,4.479395,-2.9366324,0.5492105,1.0409636,0.842759,-13.043611,-3.6487634
6.2448516,4.476569,-2.7597985,0.50553465,0.9738519,0.7661445,-12.981361,-3.8402996
6.2456455,4.473732,-2.7597985,0.50553465,0.9738519,0.7661445,-12.981361,-3.8402996
6.2463236,4.4711,-2.5765731,0.45440197,0.9003487,1.0869676,-13.283031,-3.7588966
6.2469945,4.46847,-2.5765731,0.45440197,0.9003487,1.0869676,-13.283031,-3.7588966
6.247557,4.4660773,-2.3816297,0.402204,0.81725806,1.2162545,-13.670892,-3.6056678
6.2481174,4.463681,-2.3816297,0.402204,0.81725806,1.2162545,-13.670892,-3.6056678
6.248596,4.4615254,-2.1685767,0.34787554,0.72671056,1.067814,-14.001291,-3.5769374
6.249073,4.4593773,-2.1685767,0.34787554,0.72671056,1.067814,-14.001291,-3.5769374
6.24947,4.457487,-1.9299575,0.28395966,0.62551045,1.0869676,-14.18325,-3.572149
6.249871,4.455595,-1.9299575,0.28395966,0.62551045,1.0869676,-14.18325,-3.572149
6.250203,4.4539957,-1.6689677,0.21258694,0.518984,1.0486604,-14.4609785,-3.5194764
6.250538,4.4523997,-1.6689677,0.21258694,0.518984,1.0486604,-14.4609785,-3.5194764
6.250857,4.4511156,-1.3866727,0.13375737,0.4081965,0.6895301,-14.834474,-3.4859576
6.2511764,4.449832,-1.3866727,0.13375737,0.4081965,0.6895301,-14.834474,-3.4859576
6.2514987,4.448847,-1.082007,0.04427516,0.29953954,0.18195933,-15.571888,-3.4620156
6.2518187,4.447864,-1.082007,0.04427516,0.29953954,0.18195933,-15.571888,-3.4620156
6.2520714,4.447208,-0.74857926,-0.066512346,0.19194783,0.12928689,-16.069881,-3.6104562
6.252323,4.446552,-0.74857926,-0.066512346,0.19194783,0.12928689,-16.069881,-3.6104562
6.2525463,4.4462395,-0.38319355,-0.19647461,0.08542138,-0.076614454,-16.338032,-3.9264908
6.2527695,4.4459276,-0.38319355,-0.19647461,0.08542138,-0.076614454,-16.338032,-3.9264908
6.252984,4.4459176,0.005627962,-0.33602425,-0.014713474,-0.45010993,-16.46732,-4.534618
6.253198,4.445908,0.005627962,-0.33602425,-0.014713474,-0.45010993,-16.46732,-4.534618
6.2533574,4.4462843,0.41895056,-0.4936834,-0.10952201,-0.41180268,-16.778566,-4.7788267
6.253516,4.446659,0.41895056,-0.4936834,-0.10952201,-0.41180268,-16.778566,-4.7788267
6.2536354,4.447485,0.86103535,-0.6641257,-0.20113476,-0.20590134,-17.386692,-4.8123455
6.253753,4.448309,0.86103535,-0.6641257,-0.20113476,-0.20590134,-17.386692,-4.8123455
6.253802,4.449565,1.3414696,-0.83350277,-0.29168224,0.04309563,-17.525557,-5.00867
6.253846,4.4508157,1.3414696,-0.83350277,-0.29168224,0.04309563,-17.525557,-5.00867
6.2538357,4.452569,1.8591881,-0.9932924,-0.37583813,-0.34955344,-17.219099,-5.3103395
6.2538214,4.454321,1.8591881,-0.9932924,-0.37583813,-0.34955344,-17.219099,-5.3103395
6.2537518,4.4566064,2.4077992,-1.1530821,-0.45892876,-0.81402856,-16.749836,-5.8801594
6.2536774,4.4588914,2.4077992,-1.1530821,-0.45892876,-0.81402856,-16.749836,-5.8801594
6.2535334,4.4617286,2.9755852,-1.3235244,-0.5452152,-0.4309563,-16.558298,-6.0381765
6.2533846,4.4645653,2.9755852,-1.3235244,-0.5452152,-0.4309563,-16.558298,-6.0381765
6.253181,4.4679637,3.546567,-1.495032,-0.63256687,-0.58418524,-16.01242,-6.4978633
6.2529716,4.4713616,3.546567,-1.495032,-0.63256687,-0.58418524,-16.01242,-6.4978633
6.252662,4.4753146,4.1122227,-1.6569521,-0.72631013,0.4309563,-15.993267,-6.421249
6.2523456,4.479267,4.1122227,-1.6569521,-0.72631013,0.4309563,-15.993267,-6.421249
6.251976,4.483766,4.6640296,-1.7901102,-0.82111865,-0.06703765,-15.605407,-6.7708025
6.251598,4.488264,4.6640296,-1.7901102,-0.82111865,-0.06703765,-15.605407,-6.7708025
6.2511296,4.493285,5.194531,-1.9072893,-0.91805774,0.23942018,-14.992491,-7.2927384
6.250651,4.498306,5.194531,-1.9072893,-0.91805774,0.23942018,-14.992491,-7.2927384
6.2500668,4.5038185,5.69414,-2.0159464,-1.0267147,0.60812724,-13.953407,-7.6375036
6.2494707,4.5093355,5.69414,-2.0159464,-1.0267147,0.60812724,-13.953407,-7.6375036
6.2487693,4.515298,6.151139,-2.1043632,-1.1375022,0.7182605,-13.239936,-7.7811556
6.248051,4.521283,6.151139,-2.1043632,-1.1375022,0.7182605,-13.239936,-7.7811556
6.247242,4.5274763,6.5612655,-2.1746707,-1.2525507,0.8571242,-12.492945,-7.690176
6.2463703,4.5340247,6.5612655,-2.1746707,-1.2525507,0.8571242,-12.492945,-7.690176
6.2454066,4.5407085,6.9277163,-2.232195,-1.3697299,0.94810385,-11.808203,-7.7811556
6.24442,4.547437,6.9277163,-2.232195,-1.3697299,0.94810385,-11.808203,-7.7811556
6.243308,4.5544724,7.2536874,-2.2737403,-1.4869089,1.0630256,-11.142614,-7.824251
6.243308,4.5544724,7.2536874,-2.2737403,-1.4869089,1.0630256,-11.142614,-7.824251
6.240951,4.5689707,7.533852,-2.2971761,-1.6019576,1.0055647,-10.625467,-7.800309
6.2397165,4.576049,7.533852,-2.2971761,-1.6019576,1.0055647,-10.625467,-7.800309
6.2397165,4.576049,7.533852,-2.2971761,-1.6019576,1.0055647,-10.625467,-7.800309
6.2368608,4.5913653,7.773536,-2.3035676,-1.7106144,0.80924016,-10.01734,-7.7811556
6.2353544,4.598954,7.978067,-2.3025024,-1.8107493,0.93373865,-9.672575,-7.517793
6.2337527,4.6069202,7.978067,-2.3025024,-1.8107493,0.93373865,-9.672575,-7.517793
6.2321177,4.614638,8.148509,-2.2918499,-1.9012969,1.3982137,-8.949526,-7.374141
6.2304177,4.6225653,8.148509,-2.2918499,-1.9012969,1.3982137,-8.949526,-7.374141
6.2304177,4.6225653,8.148509,-2.2918499,-1.9012969,1.3982137,-8.949526,-7.374141
6.226858,4.638366,8.282733,-2.2673488,-1.9833221,1.5035586,-8.317456,-7.1586633
6.2249565,4.646453,8.380737,-2.2247381,-2.0525644,1.5227122,-7.7093296,-6.981492
6.2230206,4.6546,8.380737,-2.2247381,-2.0525644,1.5227122,-7.7093296,-6.981492
6.2210073,4.6627617,8.443587,-2.1746707,-2.112219,1.8770541,-7.2831616,-6.631939
6.218974,4.670927,8.443587,-2.1746707,-2.112219,1.8770541,-7.2831616,-6.631939
6.2168503,4.6791434,8.476611,-2.1182117,-2.167613,2.3319526,-6.766014,-6.157887
6.214685,4.6874466,8.476611,-2.1182117,-2.167613,2.3319526,-6.766014,-6.157887
6.2124634,4.6956825,8.480872,-2.0457737,-2.212354,2.7485435,-6.0525417,-5.7365074
6.21023,4.703898,8.480872,-2.0457737,-2.212354,2.7485435,-6.0525417,-5.7365074
6.2079625,4.7120366,8.457437,-1.9530957,-2.244312,2.633622,-5.5976434,-5.377377
6.205666,4.7202206,8.457437,-1.9530957,-2.244312,2.633622,-5.5976434,-5.377377
6.203336,4.7283535,8.404173,-1.8486998,-2.2634866,2.4851813,-4.3287168,-5.3725886
6.200996,4.736467,8.404173,-1.8486998,-2.2634866,2.4851813,-4.3287168,-5.3725886
6.198607,4.7445273,8.320017,-1.7443038,-2.2698784,3.4715924,-3.9217024,-4.654328
6.1962028,4.752593,8.320017,-1.7443038,-2.2698784,3.4715924,-3.9217024,-4.654328
6.1937556,4.7605743,8.195381,-1.6345816,-2.2656174,4.865018,-3.940856,-3.4093432
6.1912994,4.768545,8.195381,-1.6345816,-2.2656174,4.865018,-3.940856,-3.4093432
6.1889095,4.776347,8.040917,-1.4779878,-2.2347245,2.695871,-4.1036615,-3.1268275
6.186505,4.7841625,8.040917,-1.4779878,-2.2347245,2.695871,-4.1036615,-3.1268275
6.1841245,4.791815,7.8758016,-1.3363075,-2.1985056,3.145981,-3.107674,-2.9975405
6.1817336,4.799474,7.8758016,-1.3363075,-2.1985056,3.145981,-3.107674,-2.9975405
6.179349,4.8069935,7.691511,-1.2233895,-2.1612213,4.8985367,-1.6950948,-2.4229321
6.176954,4.81452,7.691511,-1.2233895,-2.1612213,4.8985367,-1.6950948,-2.4229321
6.1746325,4.8218107,7.4646096,-1.0891662,-2.1047623,3.5673606,-0.62249243,-2.183512
6.1723003,4.829115,7.4646096,-1.0891662,-2.1047623,3.5673606,-0.62249243,-2.183512
6.1700544,4.836174,7.1833797,-0.9517471,-2.03552,3.9025488,0.5746084,-1.4221559
6.1678014,4.8432407,7.1833797,-0.9517471,-2.03552,3.9025488,0.5746084,-1.4221559
6.1656513,4.8500185,6.845691,-0.8249806,-1.9534948,4.6495395,0.91458505,-0.25857377
6.1634965,4.856797,6.845691,-0.8249806,-1.9534948,4.6495395,0.91458505,-0.25857377
6.161481,4.8632097,6.457935,-0.68862677,-1.8554904,3.9456444,2.2840683,0.17717093
6.1594577,4.8696356,6.457935,-0.68862677,-1.8554904,3.9456444,2.2840683,0.17717093
6.1575603,4.8756437,6.019046,-0.556534,-1.7532251,5.4683566,2.8491,1.2497733
6.1556616,4.881654,6.019046,-0.556534,-1.7532251,5.4683566,2.8491,1.2497733
6.1539025,4.887193,5.5258284,-0.4159191,-1.6403071,6.2728086,3.5194764,2.2122424
6.1521673,4.8926573,5.5258284,-0.4159191,-1.6403071,6.2728086,3.5194764,2.2122424
6.1505594,4.8976874,4.985739,-0.24867256,-1.5199322,6.670246,4.175488,3.0119057
6.1489305,4.902785,4.985739,-0.24867256,-1.5199322,6.670246,4.175488,3.0119057
6.147489,4.9072566,4.4030395,-0.060120758,-1.3952962,6.4643445,4.5777135,3.7780502
6.1460557,4.9117074,4.4030395,-0.060120758,-1.3952962,6.4643445,4.5777135,3.7780502
6.1447887,4.915587,3.7819905,0.13269211,-1.2632034,6.4404025,4.8219223,4.582502
6.143517,4.9194875,3.7819905,0.13269211,-1.2632034,6.4404025,4.8219223,4.582502
6.14244,4.922747,3.1343098,0.31804812,-1.1151316,6.2632318,4.8458643,5.315128
6.1413655,4.9260044,3.1343098,0.31804812,-1.1151316,6.2632318,4.8458643,5.315128
6.140485,4.9286213,2.4674542,0.48955572,-0.9574725,6.3781533,4.663905,6.0764837
6.139605,4.9312396,2.4674542,0.48955572,-0.9574725,6.3781533,4.663905,6.0764837
6.1389227,4.933199,1.7878155,0.6450843,-0.7934218,6.5265937,4.309563,6.871359
6.13824,4.9351645,1.7878155,0.6450843,-0.7934218,6.5265937,4.309563,6.871359
6.1377554,4.9364657,1.1060462,0.78996027,-0.6261753,6.5936313,3.739743,7.656657
6.13727,4.9377737,1.1060462,0.78996027,-0.6261753,6.5936313,3.739743,7.656657
6.1369944,4.9384103,0.43173376,0.9241836,-0.4514719,6.2871737,2.8778305,8.418014
6.136719,4.939048,0.43173376,0.9241836,-0.4514719,6.2871737,2.8778305,8.418014
6.136641,4.939048,-0.22553442,1.0434933,-0.2778338,6.081272,1.6759412,9.074024
6.1365623,4.939048,-0.22553442,1.0434933,-0.2778338,6.081272,1.6759412,9.074024
6.1366787,4.9384317,-0.85404044,1.1478891,-0.104195684,5.9041014,0.49799395,9.787497
6.1367936,4.9378166,-0.85404044,1.1478891,-0.104195684,5.9041014,0.49799395,9.787497
6.137101,4.93662,-1.4452622,1.2384366,0.071572945,5.683835,-0.5602432,10.19451
6.1374083,4.935421,-1.4452622,1.2384366,0.071572945,5.683835,-0.5602432,10.19451
6.137901,4.9336786,-1.9970692,1.3183315,0.24521105,5.5737014,-1.3455414,10.376471
6.1383915,4.9319353,-1.9970692,1.3183315,0.24521105,5.5737014,-1.3455414,10.376471
6.1390605,4.929681,-2.5126572,1.3875736,0.4145881,5.3965306,-1.8052281,10.390836
6.139727,4.9274263,-2.5126572,1.3875736,0.4145881,5.3965306,-1.8052281,10.390836
6.140562,4.9246864,-3.0005484,1.4440327,0.57863885,5.4683566,-2.456451,10.409989
6.1413937,4.9219456,-3.0005484,1.4440327,0.57863885,5.4683566,-2.456451,10.409989
6.142382,4.9187446,-3.4639385,1.4972959,0.7331022,5.4683566,-2.930503,10.242394
6.1433673,4.915542,-3.4639385,1.4972959,0.7331022,5.4683566,-2.930503,10.242394
6.1445045,4.9119034,-3.9038925,1.5516244,0.88010865,5.0613422,-3.4715924,10.084377
6.145638,4.9082603,-3.9038925,1.5516244,0.88010865,5.0613422,-3.4715924,10.084377
6.146916,4.904211,-4.320411,1.6016918,1.0228541,4.55856,-3.8115692,9.720459
6.14819,4.9001565,-4.320411,1.6016918,1.0228541,4.55856,-3.8115692,9.720459
6.149601,4.895708,-4.7166896,1.6464329,1.1581427,4.098873,-4.0462008,9.251195
6.1510057,4.8912587,-4.7166896,1.6464329,1.1581427,4.098873,-4.0462008,9.251195
6.1525383,4.886441,-5.090597,1.6794561,1.2870396,3.6343982,-4.534618,8.868123
6.154065,4.881618,-5.090597,1.6794561,1.2870396,3.6343982,-4.534618,8.868123
6.1557093,4.8764424,-5.4421344,1.6996962,1.4106103,3.5098996,-5.0517654,8.418014
6.1573234,4.871338,-5.4421344,1.6996962,1.4106103,3.5098996,-5.0517654,8.418014
6.159071,4.8658214,-5.774497,1.7092835,1.5277895,3.5098996,-5.683835,8.192958
6.160833,4.8602314,-5.774497,1.7092835,1.5277895,3.5098996,-5.683835,8.192958
6.162671,4.854414,-6.077032,1.711414,1.6375117,3.4572272,-6.3685765,8.010999
6.1644917,4.848624,-6.077032,1.711414,1.6375117,3.4572272,-6.3685765,8.010999
6.166413,4.842527,-6.347609,1.711414,1.7365813,3.4093432,-7.1059904,7.8146744
6.16833,4.836409,-6.347609,1.711414,1.7365813,3.4093432,-7.1059904,7.8146744
6.1703157,4.8300805,-6.580902,1.707153,1.8228678,3.3423057,-7.7572136,7.4986396
6.172292,4.82375,-6.580902,1.707153,1.8228678,3.3423057,-7.7572136,7.4986396
6.1743336,4.8172207,-6.776911,1.6996962,1.8985015,3.2034419,-8.317456,7.2209125
6.1765013,4.8102527,-6.776911,1.6996962,1.8985015,3.2034419,-8.317456,7.2209125
6.1784754,4.8039074,-6.935635,1.6858476,1.9624174,3.2225955,-8.901642,6.919243
6.1806827,4.7967777,-6.935635,1.6858476,1.9624174,3.2225955,-8.901642,6.919243
6.182664,4.7903876,-7.0570755,1.6656077,2.0146153,2.9879637,-9.481039,6.612785
6.184733,4.783683,-7.0570755,1.6656077,2.0146153,2.9879637,-9.481039,6.612785
6.1868663,4.7767863,-7.1433616,1.6443024,2.0540302,2.5474305,-10.070012,6.3542113
6.1889977,4.7698603,-7.1433616,1.6443024,2.0540302,2.5474305,-10.070012,6.3542113
6.1911488,4.7628994,-7.19556,1.6112791,2.0891838,2.2744915,-10.625467,6.114791
6.1932917,4.7559285,-7.19556,1.6112791,2.0891838,2.2744915,-10.625467,6.114791
6.1954513,4.748948,-7.2147346,1.5697339,2.1211417,2.1499932,-11.21444,5.81791
6.197609,4.7419376,-7.2147346,1.5697339,2.1211417,2.1499932,-11.21444,5.81791
6.199775,4.734953,-7.204082,1.5186012,2.1477733,2.1021092,-11.707646,5.4779334
6.2019324,4.7279587,-7.204082,1.5186012,2.1477733,2.1021092,-11.707646,5.4779334
6.204099,4.7210064,-7.163602,1.4568158,2.1680133,1.9440918,-12.243947,5.185841
6.20626,4.7140374,-7.163602,1.4568158,2.1680133,1.9440918,-12.243947,5.185841
6.2084303,4.7071285,-7.0975556,1.3865083,2.1839924,1.7142484,-12.856863,4.8985367
6.210589,4.700224,-7.0975556,1.3865083,2.1839924,1.7142484,-12.856863,4.8985367
6.212754,4.6934066,-7.0038123,1.3066136,2.194645,1.4700398,-13.369223,4.654328
6.2149086,4.686587,-7.0038123,1.3066136,2.194645,1.4700398,-13.369223,4.654328
6.2170687,4.6798797,-6.8845024,1.2181966,2.2042325,1.3455414,-13.804967,4.2281604
6.219219,4.67317,-6.8845024,1.2181966,2.2042325,1.3455414,-13.804967,4.2281604
6.221375,4.6665955,-6.741757,1.119127,2.2116892,1.2114661,-14.211981,3.9264908
6.223522,4.6600194,-6.741757,1.119127,2.2116892,1.2114661,-14.211981,3.9264908
6.2256694,4.6536016,-6.575576,1.0115353,2.2138197,1.1923125,-14.623784,3.5242648
6.227809,4.647182,-6.575576,1.0115353,2.2138197,1.1923125,-14.623784,3.5242648
6.2299533,4.640946,-6.3848934,0.89542145,2.2127545,0.90021986,-14.96376,3.0789435
6.232091,4.6347084,-6.3848934,0.89542145,2.2127545,0.90021986,-14.96376,3.0789435
6.234228,4.62867,-6.1718407,0.77185076,2.2052977,0.80924016,-15.231912,2.681506
6.2363563,4.622637,-6.1718407,0.77185076,2.2052977,0.80924016,-15.231912,2.681506
6.238477,4.6168327,-5.935352,0.6376275,2.1914492,0.79008657,-15.437813,2.2122424
6.2405887,4.6110387,-5.935352,0.6376275,2.1914492,0.79008657,-15.437813,2.2122424
6.2426953,4.6054835,-5.673297,0.49701256,2.1701438,0.7278373,-15.456966,1.5945383
6.244795,4.599932,-5.673297,0.49701256,2.1701438,0.7278373,-15.456966,1.5945383
6.246881,4.594658,-5.3910017,0.35213658,2.142447,0.641646,-15.500062,1.0534488
6.248963,4.5893826,-5.3910017,0.35213658,2.142447,0.641646,-15.500062,1.0534488
6.2510233,4.584403,-5.089532,0.20726062,2.1072934,0.62728083,-15.466543,0.5363012
6.253081,4.5794234,-5.089532,0.20726062,2.1072934,0.62728083,-15.466543,0.5363012
6.2551136,4.5747604,-4.7678223,0.06344992,2.0689437,0.6560113,-15.456966,0.08619126
6.257144,4.5700974,-4.7678223,0.06344992,2.0689437,0.6560113,-15.456966,0.08619126
6.2591467,4.565769,-4.429068,-0.077164985,2.025268,0.6368576,-15.452178,-0.40701428
6.261207,4.561311,-4.429068,-0.077164985,2.025268,0.6368576,-15.452178,-0.40701428
6.263113,4.5574536,-4.074335,-0.21351884,1.97307,0.59855044,-15.389929,-0.92895025
6.265076,4.553477,-4.074335,-0.21351884,1.97307,0.59855044,-15.389929,-0.92895025
6.266999,4.5498567,-3.7078838,-0.34454638,1.9144804,0.5602432,-15.303738,-1.4077905
6.2689166,4.5462437,-3.7078838,-0.34454638,1.9144804,0.5602432,-15.303738,-1.4077905
6.2707686,4.543005,-3.3307803,-0.46705177,1.8526951,0.59855044,-15.188815,-1.8579005
6.2726226,4.5397635,-3.3307803,-0.46705177,1.8526951,0.59855044,-15.188815,-1.8579005
6.2743945,4.5368857,-2.94622,-0.5810351,1.7887793,0.5410896,-15.093047,-2.3223755
6.2761693,4.5340133,-2.94622,-0.5810351,1.7887793,0.5410896,-15.093047,-2.3223755
6.2778463,4.5314593,-2.5595288,-0.6801047,1.7227329,0.62249243,-14.978126,-2.6719291
6.279525,4.5289173,-2.5595288,-0.6801047,1.7227329,0.62249243,-14.978126,-2.6719291
6.281193,4.526666,-2.177099,-0.7663911,1.6524254,0.49320555,-14.882358,-3.098097
6.282855,4.524419,-2.177099,-0.7663911,1.6524254,0.49320555,-14.882358,-3.098097
0.0013279571,4.5225286,-1.7967995,-0.84202486,1.5821179,0.31603462,-14.853627,-3.3758245
0.0029808476,4.520642,-1.7967995,-0.84202486,1.5821179,0.31603462,-14.853627,-3.3758245
0.007863312,4.5160985,-1.423957,-0.90913653,1.5107453,0.10534488,-14.772224,-3.620033
0.007863312,4.5160985,-1.423957,-0.90913653,1.5107453,0.10534488,-14.772224,-3.620033
0.007863312,4.5160985,-1.423957,-0.90913653,1.5107453,0.10534488,-14.772224,-3.620033
0.009530514,4.514889,-1.0585712,-0.9698566,1.4361767,-0.05267244,-14.772224,-3.8977604
0.011061186,4.5140896,-0.70383817,-1.0252503,1.3605429,-0.076614454,-14.748282,-4.074931
0.012565781,4.5133047,-0.70383817,-1.0252503,1.3605429,-0.076614454,-14.748282,-4.074931
0.01411783,4.5128336,-0.35869247,-1.0785136,1.2859744,-0.33997664,-14.312538,-4.3143516
0.0155438855,4.512402,-0.35869247,-1.0785136,1.2859744,-0.33997664,-14.312538,-4.3143516
0.016960096,4.5122833,-0.0284605,-1.1275158,1.2060796,0.08140286,-14.551958,-4.295198
0.018276792,4.512174,-0.0284605,-1.1275158,1.2060796,0.08140286,-14.551958,-4.295198
0.019574143,4.5123796,0.28792304,-1.1679958,1.1208584,0.07182605,-14.772224,-4.1659107
0.020871023,4.512586,0.28792304,-1.1679958,1.1208584,0.07182605,-14.772224,-4.1659107
0.022118224,4.5131,0.597915,-1.1988884,1.0324415,-0.35434186,-14.834474,-4.285621
0.023373388,4.51362,0.597915,-1.1988884,1.0324415,-0.35434186,-14.834474,-4.285621
0.024540331,4.514445,0.9036459,-1.2329769,0.93443716,-0.46926352,-14.494497,-4.4580035
0.025700564,4.5152683,0.9036459,-1.2329769,0.93443716,-0.46926352,-14.494497,-4.4580035
0.025700564,4.5152683,0.9036459,-1.2329769,0.93443716,-0.46926352,-14.494497,-4.4580035
0.027857492,4.5175233,1.1965936,-1.2713264,0.83323705,-0.521936,-14.168885,-4.4723687
0.028830295,4.5189233,1.4703666,-1.3096759,0.7277759,-0.49799395,-14.092271,-4.3287168
0.029804373,4.5203295,1.4703666,-1.3096759,0.7277759,-0.49799395,-14.092271,-4.3287168
0.030902889,4.5224266,1.7281606,-1.3501561,0.61698836,-0.5650316,-14.068329,-4.3287168
0.031542968,4.5236535,1.7281606,-1.3501561,0.61698836,-0.5650316,-14.068329,-4.3287168
0.032297023,4.5255556,1.9721061,-1.3917013,0.5008745,-0.545878,-14.068329,-4.367024
0.033050198,4.527464,1.9721061,-1.3917013,0.5008745,-0.545878,-14.068329,-4.367024
0.03367727,4.5296144,2.20966,-1.4332466,0.37623858,-0.3878607,-13.757083,-4.4580035
0.034300946,4.531766,2.20966,-1.4332466,0.37623858,-0.3878607,-13.757083,-4.4580035
0.034783814,4.5341473,2.4365613,-1.474792,0.24201526,-0.110133275,-13.455414,-4.5872903
0.035263408,4.5365295,2.4365613,-1.474792,0.24201526,-0.110133275,-13.455414,-4.5872903
0.035613187,4.5391335,2.6560059,-1.5131415,0.10033509,-0.22984336,-13.062764,-4.572925
0.03595906,4.541738,2.6560059,-1.5131415,0.10033509,-0.22984336,-13.062764,-4.572925
0.036165792,4.544552,2.8637326,-1.5482953,-0.046671405,-0.2777274,-12.559982,-4.7644615
0.036368217,4.547365,2.8637326,-1.5482953,-0.046671405,-0.2777274,-12.559982,-4.7644615
0.03641705,4.550375,3.0576105,-1.5823836,-0.19900422,-0.1388637,-12.152967,-4.841076
0.03646122,4.553385,3.0576105,-1.5823836,-0.19900422,-0.1388637,-12.152967,-4.841076
0.036340617,4.556577,3.2376404,-1.6132764,-0.35346758,0.21068975,-11.923124,-4.8267107
0.036215175,4.5597696,3.2376404,-1.6132764,-0.35346758,0.21068975,-11.923124,-4.8267107
0.03594427,4.5631294,3.4048867,-1.6377774,-0.50580037,0.038307227,-11.769896,-4.841076
0.035667934,4.5664883,3.4048867,-1.6377774,-0.50580037,0.038307227,-11.769896,-4.841076
0.035247978,4.570007,3.5636113,-1.6569521,-0.6560027,-0.17238252,-11.329363,-4.7788267
0.034822263,4.5735235,3.5636113,-1.6569521,-0.6560027,-0.17238252,-11.329363,-4.7788267
0.034249965,4.5771856,3.7084873,-1.6729312,-0.79874814,-0.10534488,-10.951078,-4.879383
0.03367161,4.580846,3.7084873,-1.6729312,-0.79874814,-0.10534488,-10.951078,-4.879383
0.03294917,4.584637,3.8395147,-1.6867796,-0.9308409,0.20590134,-10.5440645,-5.0038815
0.032221097,4.588423,3.8395147,-1.6867796,-0.9308409,0.20590134,-10.5440645,-5.0038815
0.03135618,4.5923214,3.9492369,-1.6942364,-1.0565422,0.4165911,-10.175357,-4.951209
0.030484753,4.596218,3.9492369,-1.6942364,-1.0565422,0.4165911,-10.175357,-4.951209
0.029484557,4.6002283,4.0365887,-1.6910406,-1.1715907,0.46926352,-9.773131,-5.032612
0.0285156,4.604085,4.0365887,-1.6910406,-1.1715907,0.46926352,-9.773131,-5.032612
0.027444456,4.608317,4.0365887,-1.6910406,-1.1715907,0.46926352,-9.773131,-5.032612
0.026340632,4.6123104,4.1037,-1.6825185,-1.2770518,0.4309563,-9.409213,-5.2385135
0.025146695,4.616305,4.1495066,-1.6697353,-1.3718604,0.50757074,-9.006987,-5.315128
0.023920227,4.620383,4.1495066,-1.6697353,-1.3718604,0.50757074,-9.006987,-5.315128
0.022607546,4.624469,4.1729426,-1.6494954,-1.4496247,0.6991069,-8.700529,-5.3965306
0.021276271,4.6285887,4.1729426,-1.6494954,-1.4496247,0.6991069,-8.700529,-5.3965306
0.019878916,4.6326814,4.1729426,-1.6196679,-1.5103447,0.90021986,-8.288726,-5.4300494
0.018474875,4.6367702,4.1729426,-1.6196679,-1.5103447,0.90021986,-8.288726,-5.4300494
0.017004747,4.6408415,4.1527023,-1.5791879,-1.5540206,1.3982137,-7.872135,-5.3582234
0.015528191,4.6449094,4.1527023,-1.5791879,-1.5540206,1.3982137,-7.872135,-5.3582234
0.014000689,4.6489367,4.114353,-1.5227288,-1.5827827,1.9249382,-7.350199,-5.243302
0.012456445,4.65299,4.114353,-1.5227288,-1.5827827,1.9249382,-7.350199,-5.243302
0.010882832,4.656949,4.054698,-1.4534867,-1.6040881,2.3415294,-6.8569937,-5.056554
0.009309946,4.66089,4.054698,-1.4534867,-1.6040881,2.3415294,-6.8569937,-5.056554
0.007695868,4.6647882,3.9790645,-1.3672003,-1.615806,2.4947581,-6.4068837,-4.841076
0.0060894815,4.6686525,3.9790645,-1.3672003,-1.615806,2.4947581,-6.4068837,-4.841076
0.0044628237,4.672422,3.8810601,-1.2670654,-1.6190017,2.6384103,-5.971139,-4.548983
0.0028234774,4.6762075,3.8810601,-1.2670654,-1.6190017,2.6384103,-5.971139,-4.548983
0.0011829025,4.6799836,3.8810601,-1.2670654,-1.6190017,2.6384103,-5.971139,-4.548983
6.2827206,4.683634,3.7628157,-1.1541474,-1.6147407,2.7581203,-5.449203,-4.2185836
6.281062,4.687296,3.7628157,-1.1541474,-1.6147407,2.7581203,-5.449203,-4.2185836
6.2794075,4.6908097,3.619005,-1.031642,-1.5966312,2.992752,-5.0182467,-3.8115692
6.2777514,4.694318,3.619005,-1.031642,-1.5966312,2.992752,-5.0182467,-3.8115692
6.27611,4.6976695,3.4517584,-0.8974186,-1.563608,3.1172507,-4.5681367,-3.41892
6.2744684,4.701016,3.4517584,-0.8974186,-1.563608,3.1172507,-4.5681367,-3.41892
6.2728505,4.704179,3.260011,-0.75573844,-1.5220627,3.3375173,-4.0892963,-2.9161377
6.2712307,4.7073402,3.260011,-0.75573844,-1.5220627,3.3375173,-4.0892963,-2.9161377
6.269654,4.71029,3.0405664,-0.60553616,-1.4687995,3.371036,-3.7349546,-2.5330653
6.2680774,4.713235,3.0405664,-0.60553616,-1.4687995,3.371036,-3.7349546,-2.5330653
6.2665443,4.71596,2.793425,-0.44894227,-1.4059489,3.86903,-3.347094,-1.9536686
6.265012,4.718682,2.793425,-0.44894227,-1.4059489,3.86903,-3.347094,-1.9536686
6.2635393,4.721167,2.512195,-0.28808734,-1.3388371,4.7405195,-3.5338416,-0.7517793
6.2620664,4.723652,2.512195,-0.28808734,-1.3388371,4.7405195,-3.5338416,-0.7517793
6.2606792,4.7258463,2.2075295,-0.10060081,-1.2514855,3.5673606,-4.2042184,-0.23463176
6.259293,4.728039,2.2075295,-0.10060081,-1.2514855,3.5673606,-4.2042184,-0.23463176
6.2579994,4.7299333,1.8943418,0.07516783,-1.1630685,3.643975,-3.9935284,0.0047884034
6.2567053,4.7318277,1.8943418,0.07516783,-1.1630685,3.643975,-3.9935284,0.0047884034
6.25547,4.733465,1.5747625,0.22537012,-1.0735863,3.8019924,-3.3997664,0.18195933
6.2543097,4.7350035,1.5747625,0.22537012,-1.0735863,3.8019924,-3.3997664,0.18195933
6.2532263,4.7362585,1.2328126,0.37237662,-0.97664726,3.9791632,-2.825158,0.521936
6.252143,4.7375135,1.2328126,0.37237662,-0.97664726,3.9791632,-2.825158,0.521936
6.2511864,4.738408,0.8642311,0.5204484,-0.8701208,4.43885,-2.207454,0.90500826
6.2502112,4.7393208,0.8642311,0.5204484,-0.8701208,4.43885,-2.207454,0.90500826
6.249382,4.7398434,0.46262643,0.6642591,-0.74974597,3.6104562,-2.2409728,1.4030021
6.248557,4.740364,0.46262643,0.6642591,-0.74974597,3.6104562,-2.2409728,1.4030021
6.2478614,4.740477,0.039716423,0.788895,-0.62937105,4.0653543,-2.6431987,2.0973208
6.247162,4.7405915,0.039716423,0.788895,-0.62937105,4.0653543,-2.6431987,2.0973208
6.246583,4.740285,-0.38745463,0.8911604,-0.51858354,4.606444,-3.0502129,2.6144683
6.2460017,4.739978,-0.38745463,0.8911604,-0.51858354,4.606444,-3.0502129,2.6144683
6.245518,4.7392235,-0.8103646,0.99023,-0.4088613,4.6112323,-2.9017725,2.825158
6.2450657,4.7385178,-0.8103646,0.99023,-0.4088613,4.6112323,-2.9017725,2.825158
6.2447214,4.7374053,-1.226883,1.0882343,-0.30020434,4.548983,-2.8538885,3.016694
6.244372,4.736278,-1.226883,1.0882343,-0.30020434,4.548983,-2.8538885,3.016694
6.2441273,4.734742,-1.6380751,1.1787817,-0.19580843,4.5633483,-2.9831753,3.1555579
6.2438807,4.733204,-1.6380751,1.1787817,-0.19580843,4.5633483,-2.9831753,3.1555579
6.2437367,4.731267,-2.0396798,1.2597419,-0.093543045,4.4723687,-3.323152,3.2513258
6.243591,4.7293363,-2.0396798,1.2597419,-0.093543045,4.4723687,-3.323152,3.2513258
6.2435517,4.7270203,-2.4242404,1.3289841,0.011918138,4.0653543,-3.9935284,3.3566709
6.2435102,4.7247186,-2.4242404,1.3289841,0.011918138,4.0653543,-3.9935284,3.3566709
6.2435737,4.722043,-2.7832344,1.3779863,0.118444584,3.8259344,-4.6782703,3.3423057
6.2436333,4.7193804,-2.7832344,1.3779863,0.118444584,3.8259344,-4.6782703,3.3423057
6.243796,4.7163963,-3.1060095,1.4078137,0.22390577,3.7110126,-5.3821654,3.41892
6.2439547,4.7134213,-3.1060095,1.4078137,0.22390577,3.7110126,-5.3821654,3.41892
6.244217,4.7101474,-3.3883047,1.4216621,0.32936695,3.596091,-5.985504,3.442862
6.244474,4.706883,-3.3883047,1.4216621,0.32936695,3.596091,-5.985504,3.442862
6.2448325,4.7033772,-3.627989,1.4248579,0.43482813,3.5051112,-6.6367273,3.4237084
6.2451844,4.6998916,-3.627989,1.4248579,0.43482813,3.5051112,-6.6367273,3.4237084
6.2456417,4.696179,-3.820802,1.4184663,0.539224,3.2944214,-7.297527,3.3566709
6.2460904,4.6924953,-3.820802,1.4184663,0.539224,3.2944214,-7.297527,3.3566709
6.2466455,4.6886435,-3.9678085,1.4067484,0.64575046,3.217807,-8.039729,3.3997664
6.2471943,4.6848016,-3.9678085,1.4067484,0.64575046,3.217807,-8.039729,3.3997664
6.247849,4.6808553,-4.074335,1.3897042,0.7533422,2.96881,-8.7771435,3.3662477
6.2484984,4.676908,-4.074335,1.3897042,0.7533422,2.96881,-8.7771435,3.3662477
6.2492576,4.6728973,-4.139316,1.3673337,0.8609339,2.633622,-9.524135,3.3901896
6.2500114,4.668886,-4.139316,1.3673337,0.8609339,2.633622,-9.524135,3.3901896
6.250869,4.6648574,-4.168078,1.3343104,0.97065616,2.4708161,-10.19451,3.1651347
6.2517266,4.660804,-4.168078,1.3343104,0.97065616,2.4708161,-10.19451,3.1651347
6.2526836,4.6567793,-4.1616864,1.2916999,1.0782479,2.336741,-10.82658,2.954445
6.253641,4.652729,-4.1616864,1.2916999,1.0782479,2.336741,-10.82658,2.954445
