Pitch,Roll,Gyro_X,Gyro_Y,Gyro_Z,Accel_X,Accel_Y,Accel_Z
0.68454087,2.31069,-1.4061855,0.19928877,-1.1754739,5.5372615,-13.233984,7.323105
0.68532574,2.3100696,-1.4061855,0.19928877,-1.1754739,5.5432405,-13.233559,7.3163147
0.6865513,2.3090677,-1.4732971,0.22165933,-1.2116929,5.5813046,-13.170799,7.1283646
0.68694854,2.308744,-1.4732971,0.22165933,-1.2116929,5.584326,-13.170624,7.1248684
0.6876763,2.3081238,-1.5457351,0.24616042,-1.2457813,5.6090145,-13.108184,6.9267883
0.6884514,2.3074648,-1.5457351,0.24616042,-1.2457813,5.6149063,-13.1079645,6.9198227
0.689245,2.3067539,-1.6234994,0.26959622,-1.2777393,5.678399,-13.036087,6.749688
0.69004595,2.3060384,-1.6234994,0.26959622,-1.2777393,5.684478,-13.036015,6.742296
0.6908587,2.305274,-1.7055248,0.2909015,-1.3107625,5.700221,-12.921203,6.5574093
0.6916708,2.304512,-1.7055248,0.2909015,-1.3107625,5.706374,-12.9212885,6.5497036
0.6924934,2.3036952,-1.7939417,0.3122068,-1.3427204,5.8083744,-12.816249,6.311803
0.6933161,2.3028798,-1.7939417,0.3122068,-1.3427204,5.814604,-12.816531,6.3037577
0.69414884,2.3020012,-1.8887503,0.3335121,-1.3725479,5.92146,-12.7165165,6.0846195
0.6949824,2.3011234,-1.8887503,0.3335121,-1.3725479,5.927765,-12.717037,6.0761776
0.6958212,2.3001816,-1.9878199,0.35694793,-1.40131,5.9771943,-12.722628,5.9332685
0.69666266,2.2992392,-1.9878199,0.35694793,-1.40131,5.983549,-12.723408,5.924424
0.6975116,2.2982287,-2.0911505,0.38038373,-1.4322027,6.0474157,-12.657438,5.771513
0.6983619,2.297219,-2.0911505,0.38038373,-1.4322027,6.0538235,-12.658478,5.7622547
0.6992228,2.2961345,-2.1987422,0.39955848,-1.4630953,6.1800194,-12.516174,5.5753517
0.7000836,2.295053,-2.1987422,0.39955848,-1.4630953,6.1865005,-12.517489,5.5656414
0.7009615,2.2938938,-2.3084645,0.42086378,-1.498249,6.1691628,-12.418533,5.3590937
0.70183927,2.2927382,-2.3084645,0.42086378,-1.498249,6.175763,-12.420098,5.348898
0.7027335,2.291506,-2.419252,0.43897328,-1.5334028,6.120229,-12.235191,5.1993246
0.7036304,2.2902737,-2.419252,0.43897328,-1.5334028,6.126963,-12.237004,5.188612
0.70453924,2.288963,-2.53217,0.45708278,-1.5642954,6.042799,-12.052372,5.014596
0.7054499,2.2876537,-2.53217,0.45708278,-1.5642954,6.0496264,-12.054449,5.0033884
0.70637894,2.2862551,-2.649349,0.4719965,-1.5951881,5.9272947,-11.898834,4.843151
0.70730907,2.2848587,-2.649349,0.4719965,-1.5951881,5.9342537,-11.901191,4.8313646
0.7082577,2.2833695,-2.769724,0.4837144,-1.6250155,5.768962,-11.827273,4.713627
0.7092074,2.281883,-2.769724,0.4837144,-1.6250155,5.776057,-11.829922,4.7012434
0.7101753,2.2802932,-2.8943598,0.49330178,-1.6505818,5.6013207,-11.794648,4.63074
0.7111461,2.2787025,-2.8943598,0.49330178,-1.6505818,5.6085653,-11.797637,4.6176825
0.71213377,2.276998,-3.0264528,0.49969336,-1.6718872,5.395654,-11.829793,4.579954
0.71312183,2.2752979,-3.0264528,0.49969336,-1.6718872,5.4030123,-11.833161,4.5661964
0.7141376,2.2734442,-3.1617413,0.50288916,-1.6857356,5.3291674,-11.899343,4.5514526
0.7151344,2.2716315,-3.1617413,0.50288916,-1.6857356,5.3365746,-11.90313,4.537011
0.7161445,2.2696786,-3.2991605,0.5039544,-1.6942577,5.24352,-11.9601555,4.689313
0.7171536,2.2677343,-3.2991605,0.5039544,-1.6942577,5.251008,-11.964428,4.6740694
0.71817565,2.265636,-3.4397752,0.5039544,-1.6974535,5.2202754,-12.146495,4.820694
0.7192008,2.2635384,-3.4397752,0.5039544,-1.6974535,5.227868,-12.151323,4.8045034
0.72022676,2.2613015,-3.579325,0.5018239,-1.6942577,5.106174,-12.271675,4.897647
0.7212603,2.2590566,-3.579325,0.5018239,-1.6942577,5.113815,-12.277053,4.8805704
0.7222904,2.2566698,-3.7167442,0.49969336,-1.6857356,5.0687485,-12.431497,5.0877438
0.72332287,2.2542858,-3.7167442,0.49969336,-1.6857356,5.0763702,-12.437417,5.069871
0.7243521,2.2517548,-3.848837,0.4954323,-1.6718872,5.0360756,-12.683398,5.2522736
0.7253851,2.2492244,-3.848837,0.4954323,-1.6718872,5.0436826,-12.689875,5.233536
0.7264117,2.2465527,-3.9756033,0.490106,-1.6548429,5.0320845,-12.854982,5.3049927
0.72744244,2.2438815,-3.9756033,0.490106,-1.6548429,5.039662,-12.861982,5.2854404
0.7284652,2.2410715,-4.094913,0.48264912,-1.6335377,4.9609847,-13.065911,5.509321
0.72949195,2.2382607,-4.094913,0.48264912,-1.6335377,4.9685206,-13.0734215,5.488965
0.730513,2.235308,-4.204635,0.474127,-1.6090366,4.908969,-13.325739,5.6401825
0.7315301,2.232378,-4.204635,0.474127,-1.6090366,4.9164195,-13.333685,5.619156
0.73254114,2.2293124,-4.3037047,0.46347436,-1.582405,4.7849574,-13.591187,5.8463497
0.7335566,2.2262466,-4.3037047,0.46347436,-1.582405,4.7923822,-13.599585,5.8245163
0.7345618,2.2230597,-4.3899913,0.4506912,-1.5525775,4.8093023,-13.943676,6.0988846
0.7355671,2.2198846,-4.3899913,0.4506912,-1.5525775,4.8166413,-13.952434,6.0764256
0.7365635,2.216599,-4.4602985,0.4325817,-1.5206196,4.857426,-14.143594,6.3502283
0.73756635,2.2133064,-4.4602985,0.4325817,-1.5206196,4.864733,-14.152698,6.3270636
0.73855346,2.2099319,-4.515692,0.41553748,-1.4854659,4.824034,-14.372835,6.461479
0.73954463,2.2065558,-4.515692,0.41553748,-1.4854659,4.8312435,-14.382168,6.4378405
0.74051744,2.2031054,-4.5572376,0.39849323,-1.4460511,4.795217,-14.659971,6.672394
0.7414954,2.1996508,-4.5572376,0.39849323,-1.4460511,4.8023167,-14.669514,6.6483
0.74245495,2.1961274,-4.582804,0.38038373,-1.4045057,4.785335,-14.971434,6.9399014
0.7434169,2.1926107,-4.582804,0.38038373,-1.4045057,4.792306,-14.981121,6.915472
0.7443595,2.1890397,-4.5923915,0.36120898,-1.3618952,4.7991314,-15.335798,7.2786407
0.74530643,2.1854675,-4.5923915,0.36120898,-1.3618952,4.8059797,-15.345585,7.2538996
0.74622893,2.1818643,-4.5849347,0.34523,-1.3160888,4.649843,-15.748177,7.473257
0.7471638,2.1782267,-4.5849347,0.34523,-1.3160888,4.656596,-15.758085,7.4481487
0.7481003,2.1744616,-4.555107,0.32498997,-1.2670866,4.8261585,-16.103586,7.9058723
0.74897826,2.1709452,-4.555107,0.32498997,-1.2670866,4.832488,-16.113096,7.881645
0.7498391,2.167383,-4.502909,0.30474997,-1.2127582,4.8339005,-16.386147,8.168434
0.75071454,2.1637719,-4.502909,0.30474997,-1.2127582,4.8402014,-16.395844,8.143619
0.75155705,2.1601853,-4.428341,0.28664047,-1.1562991,4.8989344,-16.64973,8.502116
0.75240535,2.1565862,-4.428341,0.28664047,-1.1562991,4.905031,-16.659325,8.477429
0.75321585,2.1530411,-4.331402,0.26640043,-1.0966443,4.9587326,-16.956116,8.888931
0.7540295,2.1494946,-4.331402,0.26640043,-1.0966443,4.964574,-16.965492,8.864645
0.75480354,2.146021,-4.212092,0.24722567,-1.034859,4.955759,-17.276377,9.295823
0.75558084,2.1425421,-4.212092,0.24722567,-1.034859,4.9613266,-17.285494,9.272043
0.75631636,2.139163,-4.071477,0.22698565,-0.97094315,4.7750587,-17.643925,9.598546
0.757058,2.1357653,-4.071477,0.22698565,-0.97094315,4.780364,-17.652748,9.575352
0.7577541,2.1324823,-3.9074264,0.20674562,-0.9027662,4.718302,-18.164085,9.974374
0.7584521,2.1292014,-3.9074264,0.20674562,-0.9027662,4.7232914,-18.172539,9.951996
0.75910306,2.1260555,-3.7188747,0.18011402,-0.8303282,4.69921,-18.764854,10.351976
0.75975645,2.122905,-3.7188747,0.18011402,-0.8303282,4.703871,-18.77291,10.330524
0.76036453,2.119904,-3.5047565,0.15135187,-0.756825,4.7034187,-19.297745,10.707566
0.7609754,2.1168954,-3.5047565,0.15135187,-0.756825,4.707773,-19.30537,10.687108
0.7609754,2.1168954,-3.5047565,0.15135187,-0.756825,4.707773,-19.30537,10.687108
0.7609754,2.1168954,-3.5047565,0.15135187,-0.756825,4.707773,-19.30537,10.687108
0.7609754,2.1168954,-3.5047565,0.15135187,-0.756825,4.707773,-19.30537,10.687108
0.7632556,2.1053956,-2.99556,0.087436005,-0.6087532,4.355297,-20.100338,11.260159
0.76339304,2.1047053,-2.6994166,0.05228228,-0.5405763,4.3562756,-20.102032,11.255459
0.76434946,2.099957,-2.6994166,0.05228228,-0.5405763,4.5546093,-20.63546,11.596568
0.7645507,2.0989742,-2.375576,0.0277812,-0.4713341,4.819399,-20.886795,11.723932
0.7649802,2.0968785,-2.375576,0.0277812,-0.4713341,4.8224487,-20.891752,11.709592
0.7653552,2.0950956,-2.0282998,0.019259084,-0.40209192,4.049387,-21.37473,11.558508
0.7657426,2.0932555,-2.0282998,0.019259084,-0.40209192,4.0521355,-21.378962,11.5458765
0.76607436,2.0917625,-1.6629142,0.009671704,-0.3371108,4.1550465,-21.449314,11.458953
0.7664102,2.0902524,-1.6629142,0.009671704,-0.3371108,4.157425,-21.452648,11.448528
0.7666891,2.089098,-1.279419,0.0022148527,-0.27106437,4.7914734,-21.656166,11.37823
0.76695526,2.0879965,-1.279419,0.0022148527,-0.27106437,4.7933598,-21.65845,11.370546
0.7672042,2.087079,-0.8810101,0.018193819,-0.19969167,4.459934,-21.712856,11.215612
0.76738334,2.0864182,-0.8810101,0.018193819,-0.19969167,4.4612045,-21.7141,11.210944
0.76749754,2.0860975,-0.47194853,0.054412812,-0.12618841,3.580946,-21.872559,11.055351
0.7676258,2.0857372,-0.47194853,0.054412812,-0.12618841,3.581852,-21.873053,11.052703
0.76769984,2.0857968,-0.054364875,0.0789139,-0.049489375,3.0029812,-21.896347,10.904369
0.7677287,2.08582,-0.054364875,0.0789139,-0.049489375,3.0031834,-21.896093,10.904425
0.767712,2.0862386,0.37067565,0.07145704,0.033601254,2.8306847,-21.880367,10.820861
0.7676953,2.0866575,0.37067565,0.07145704,0.033601254,2.8305664,-21.879005,10.823498
0.767622,2.0874407,0.80423826,0.033107523,0.11988767,2.9114494,-21.93895,10.689704
0.76754916,2.088222,0.80423826,0.033107523,0.11988767,2.9109344,-21.93665,10.6947565
0.7674311,2.0893617,1.246323,-0.027612552,0.2029783,3.8390465,-21.89026,10.46755
0.767314,2.0904958,1.246323,-0.027612552,0.2029783,3.8382206,-21.886967,10.474911
0.76716095,2.0919867,1.6916035,-0.0862021,0.27754682,4.2824574,-21.968817,10.350517
0.7670075,2.0934813,1.6916035,-0.0862021,0.27754682,4.281371,-21.964443,10.360212
0.7668187,2.0953531,2.1368842,-0.123486355,0.34146267,4.3087645,-21.901466,10.147291
0.76662916,2.097236,2.1368842,-0.123486355,0.34146267,4.3074207,-21.895893,10.159487
0.76641154,2.0995147,2.5779035,-0.1458569,0.3893996,4.042515,-21.587378,9.920403
0.7661943,2.1017928,2.5779035,-0.1458569,0.3893996,4.0409746,-21.580494,9.935091
0.7659451,2.1044726,3.00614,-0.1554443,0.43414068,3.7949991,-21.299377,9.770368
0.7656965,2.1071486,3.00614,-0.1554443,0.43414068,3.7932358,-21.291153,9.787563
0.7654207,2.1102054,3.4162667,-0.1639664,0.47462073,3.3411694,-21.0997,9.629972
0.76514614,2.1132586,3.4162667,-0.1639664,0.47462073,3.339221,-21.090149,9.649512
0.7648494,2.1166677,3.8104146,-0.1852717,0.5151008,3.3035955,-20.849508,9.436636
0.7645523,2.1200967,3.8104146,-0.1852717,0.5151008,3.301484,-20.838558,9.458472
0.7642399,2.123836,4.186453,-0.22149068,0.5587766,3.2801142,-20.711542,9.372082
0.7639292,2.127575,4.186453,-0.22149068,0.5587766,3.2779055,-20.699347,9.395775
0.76360977,2.1316056,4.541186,-0.27049285,0.60245246,3.0601568,-20.494463,9.263198
0.7632928,2.1356363,4.541186,-0.27049285,0.60245246,3.0579042,-20.481,9.288582
0.76297814,2.1399157,4.8735485,-0.33547398,0.64506304,2.926382,-20.207886,9.157377
0.7626652,2.1442072,4.8735485,-0.33547398,0.64506304,2.9241543,-20.193172,9.18421
0.76236767,2.148706,5.182475,-0.41856462,0.6844778,3.0848427,-19.923655,9.159489
0.76207197,2.153222,5.182475,-0.41856462,0.6844778,3.082736,-19.907719,9.187483
0.7618049,2.1579099,5.463705,-0.5112426,0.7164358,3.2915258,-19.689695,9.139692
0.76154053,2.1626158,5.463705,-0.5112426,0.7164358,3.2896433,-19.67256,9.168549
0.7613102,2.1674778,5.7204337,-0.6017901,0.7420021,3.326312,-19.486868,9.169383
0.7610837,2.1723492,5.7204337,-0.6017901,0.7420021,3.3246956,-19.46857,9.198918
0.7608964,2.1773756,5.9494658,-0.68914175,0.7611769,3.0456343,-19.329563,9.186017
0.76071435,2.1823864,5.9494658,-0.68914175,0.7611769,3.0443373,-19.310143,9.216013
0.76057464,2.187529,6.1550617,-0.77755874,0.77822113,2.9906673,-19.1222,9.203421
0.76044035,2.1926718,6.1550617,-0.77755874,0.77822113,2.9897108,-19.10166,9.233798
0.7603553,2.1979175,6.3372216,-0.87023675,0.79206955,2.7784147,-18.90309,9.101676
0.76027644,2.2031631,6.3372216,-0.87023675,0.79206955,2.777853,-18.881495,9.132215
0.76025504,2.208487,6.494881,-0.9682411,0.80059165,2.7393951,-18.691498,8.97612
0.7602404,2.213811,6.494881,-0.9682411,0.80059165,2.7392902,-18.668894,9.006622
0.7602899,2.219177,6.6301694,-1.068376,0.80378747,2.8258324,-18.535467,8.893321
0.76034665,2.2245703,6.6301694,-1.068376,0.80378747,2.8262377,-18.511856,8.923676
0.76047,2.229996,6.744153,-1.1685108,0.805918,2.9133081,-18.348719,8.771854
0.7606008,2.2354171,6.744153,-1.1685108,0.805918,2.9142418,-18.324268,8.801796
0.76079863,2.2408636,6.8389616,-1.2643846,0.805918,3.0162067,-18.241728,8.539362
0.76100415,2.2463102,6.8389616,-1.2643846,0.805918,3.0176725,-18.216448,8.568851
0.76127654,2.2517676,6.9124646,-1.3538668,0.8027222,3.0914402,-18.113998,8.439946
0.7615572,2.2572255,6.9124646,-1.3538668,0.8027222,3.093439,-18.087963,8.4688835
0.7619033,2.262669,6.966793,-1.439088,0.79846114,3.138998,-17.975311,8.233942
0.7622591,2.2681298,6.966793,-1.439088,0.79846114,3.141531,-17.948574,8.262257
0.76268005,2.273577,7.0040774,-1.5179175,0.7910043,3.245082,-17.796915,8.0314865
0.76310843,2.2790036,7.0040774,-1.5179175,0.7910043,3.2481298,-17.769672,8.058979
0.7636035,2.2844307,7.0221868,-1.5914208,0.78035164,3.3905134,-17.62223,7.8466063
0.76410615,2.2898378,7.0221868,-1.5914208,0.78035164,3.394086,-17.594421,7.873337
0.76467437,2.2952144,7.023252,-1.6595978,0.76543796,3.5274067,-17.326868,7.5642567
0.7652547,2.3006191,7.023252,-1.6595978,0.76543796,3.5315266,-17.29841,7.590292
0.7658977,2.3059547,7.006208,-1.7224483,0.74626315,3.7563562,-17.102242,7.428755
0.7665503,2.3112917,7.006208,-1.7224483,0.74626315,3.7609801,-17.073492,7.4537525
0.76725847,2.3165603,6.975315,-1.7746463,0.7270884,4.0820346,-16.829197,7.181093
0.76797974,2.3218565,6.975315,-1.7746463,0.7270884,4.0871425,-16.800068,7.2052193
0.7687517,2.3270729,6.927378,-1.8161916,0.7047179,4.2601986,-16.5076,6.912487
0.7695361,2.3323114,6.927378,-1.8161916,0.7047179,4.265742,-16.478218,6.9356613
0.7703617,2.3374655,6.8634624,-1.8438884,0.68128204,4.573245,-16.065872,6.5797577
0.7711998,2.3426416,6.8634624,-1.8438884,0.68128204,4.5791616,-16.036327,6.6020117
0.77207494,2.3477278,6.7835674,-1.8609327,0.6535852,4.7481375,-15.734012,6.3361483
0.7729608,2.3528256,6.7835674,-1.8609327,0.6535852,4.754379,-15.704432,6.357424
0.77388483,2.3578484,6.686629,-1.8694547,0.61843145,5.1535354,-15.41638,6.100235
0.77481943,2.3628826,6.686629,-1.8694547,0.61843145,5.1601105,-15.386707,6.1206083
0.7757872,2.3678322,6.572645,-1.8673242,0.5779514,5.4350643,-15.141736,5.7715178
0.77676266,2.372779,6.572645,-1.8673242,0.5779514,5.4419093,-15.112146,5.7908993
0.7777699,2.3776474,6.4448137,-1.8534758,0.5268187,5.784163,-14.91034,5.4887524
0.77878505,2.3825176,6.4448137,-1.8534758,0.5268187,5.79128,-14.8808,5.5072308
0.7798283,2.3873112,6.302068,-1.8279095,0.4671639,6.181653,-14.683855,5.0892735
0.78087896,2.3921065,6.302068,-1.8279095,0.4671639,6.189001,-14.654394,5.106866
0.7819548,2.3968225,6.144409,-1.7927557,0.40005222,6.48861,-14.313911,4.7215567
0.78303766,2.4015408,6.144409,-1.7927557,0.40005222,6.4961653,-14.284574,4.7382793
0.78414273,2.4061801,5.970771,-1.7469494,0.32335317,6.7480783,-13.838889,4.232419
0.7852542,2.410822,5.970771,-1.7469494,0.32335317,6.7558155,-13.8097,4.2483025
0.7863831,2.4153836,5.779023,-1.6904904,0.2391973,6.9073205,-13.096054,3.597971
0.78751457,2.4199343,5.779023,-1.6904904,0.2391973,6.9151764,-13.067147,3.612998
0.788661,2.4244165,5.564905,-1.6212481,0.15078035,6.9518633,-12.545275,3.0959663
0.7898091,2.428888,5.564905,-1.6212481,0.15078035,6.9598207,-12.516614,3.1102304
0.7909644,2.4332595,5.32309,-1.5445491,0.0591676,6.8098054,-12.124484,2.5540285
0.79212224,2.437626,5.32309,-1.5445491,0.0591676,6.8178062,-12.096253,2.5674496
0.7932866,2.4418676,5.0535784,-1.4721111,-0.03883673,7.1993484,-11.599347,1.8618765
0.79445493,2.446113,5.0535784,-1.4721111,-0.03883673,7.2074065,-11.571636,1.8744059
0.795627,2.4502,4.7563696,-1.4018037,-0.14429791,7.7469935,-11.080238,0.94275856
0.79680216,2.4542909,4.7563696,-1.4018037,-0.14429791,7.7550826,-11.053258,0.9542875
0.7979758,2.4581864,4.428268,-1.32617,-0.2529549,8.323397,-10.955469,0.016737938
0.79915774,2.4621053,4.428268,-1.32617,-0.2529549,8.331511,-10.929325,0.02721405
0.80032897,2.4658124,4.065013,-1.2462751,-0.37439504,8.607691,-9.295433,-0.992795
0.801503,2.4695272,4.065013,-1.2462751,-0.37439504,8.615731,-9.270379,-0.98339844
0.80267316,2.4730127,3.6580818,-1.1621192,-0.50861835,9.782526,-7.9393167,-2.4211693
0.8038392,2.4764876,3.6580818,-1.1621192,-0.50861835,9.7905,-7.915553,-2.4129686
0.8049972,2.479673,3.1989527,-1.0641148,-0.6566901,10.454409,-6.701059,-4.0293207
0.8061613,2.482878,3.1989527,-1.0641148,-0.6566901,10.462339,-6.678737,-4.0224466
0.8073213,2.4857666,2.6780384,-0.948001,-0.8207408,10.479815,-5.6717224,-5.276306
0.8084798,2.488656,2.6780384,-0.948001,-0.8207408,10.487694,-5.6511197,-5.2708883
0.80964017,2.49118,2.0974693,-0.8297567,-0.99118316,10.557822,-4.885488,-6.1672764
0.81080675,2.493723,2.0974693,-0.8297567,-0.99118316,10.565745,-4.866723,-6.163474
0.8119886,2.4958484,1.4593759,-0.7179039,-1.1669518,10.7269745,-4.2994823,-6.7121935
0.8131468,2.4979377,1.4593759,-0.7179039,-1.1669518,10.734811,-4.283211,-6.710313
0.8143232,2.4995763,0.7733456,-0.6049859,-1.3437856,10.833744,-3.8144035,-7.452608
0.8154656,2.501173,0.7733456,-0.6049859,-1.3437856,10.84145,-3.8008733,-7.4527197
0.8166504,2.5023155,0.04470472,-0.4878068,-1.518489,10.7632475,-3.1910758,-8.206715
0.8178742,2.503501,0.04470472,-0.4878068,-1.518489,10.771484,-3.1794314,-8.209005
0.8190675,2.504109,-0.7222857,-0.371693,-1.6931925,10.549673,-2.9220471,-8.725817
0.8202542,2.5047178,-0.7222857,-0.371693,-1.6931925,10.557635,-2.913681,-8.730246
0.8214597,2.504755,-1.521234,-0.26090547,-1.8636347,10.254469,-2.9657779,-9.077053
0.8226722,2.5047963,-1.521234,-0.26090547,-1.8636347,10.262595,-2.96036,-9.083916
0.8238893,2.5042324,-2.3414876,-0.1554443,-2.0244896,10.021737,-3.2167425,-9.002243
0.82510823,2.503671,-2.3414876,-0.1554443,-2.0244896,10.029888,-3.2145138,-9.011547
0.82634336,2.5024843,-3.1702633,-0.058505222,-2.1725614,9.501829,-3.771001,-8.716981
0.8275805,2.5013008,-3.1702633,-0.058505222,-2.1725614,9.510072,-3.7719793,-8.728874
0.8288312,2.499477,-3.9958434,0.032042257,-2.3014584,9.020395,-4.518484,-8.211888
0.83009166,2.4976466,-3.9958434,0.032042257,-2.3014584,9.028768,-4.522731,-8.226501
0.8313553,2.4951808,-4.8054442,0.117263414,-2.4090502,8.414662,-5.373043,-7.333883
0.8326163,2.492732,-4.8054442,0.117263414,-2.4090502,8.423023,-5.38045,-7.3509846
0.83389586,2.489626,-5.5830874,0.19715825,-2.4942713,7.7036514,-6.3823624,-6.2982435
0.8351784,2.486531,-5.5830874,0.19715825,-2.4942713,7.712132,-6.3929152,-6.3180995
0.8364663,2.4828126,-6.321316,0.26853096,-2.5560567,7.366277,-7.5318756,-5.0332985
0.83775854,2.4791064,-6.321316,0.26853096,-2.5560567,7.3747935,-7.5453634,-5.0557375
0.8390557,2.4747827,-7.0084114,0.33564264,-2.5954714,7.1582737,-8.711119,-3.768735
0.8403618,2.4704638,-7.0084114,0.33564264,-2.5954714,7.1668515,-8.727444,-3.7938356
0.84166497,2.4655812,-7.635852,0.40275428,-2.6210377,6.801909,-9.9101,-2.3225164
0.84297997,2.4606986,-7.635852,0.40275428,-2.6210377,6.8105235,-9.928944,-2.3501072
0.8442887,2.455289,-8.200442,0.46667016,-2.633821,6.345032,-11.18571,-0.838048
0.84561044,2.4498785,-8.200442,0.46667016,-2.633821,6.3536625,-11.2068,-0.8680248
0.8469146,2.4439838,-8.696856,0.5252597,-2.6306252,6.0030403,-12.470383,0.63227177
0.84824646,2.4380283,-8.696856,0.5252597,-2.6306252,6.011714,-12.493696,0.599761
0.8495289,2.4317439,-9.124026,0.5731966,-2.6082547,5.5747347,-13.505034,2.1845064
0.8508347,2.4254193,-9.124026,0.5731966,-2.6082547,5.58321,-13.529781,2.1503391
0.8508347,2.4254193,-9.124026,0.5731966,-2.6082547,5.58321,-13.529781,2.1503391
0.85404724,2.4086041,-9.485151,0.61367667,-2.5677745,5.010253,-14.452672,3.5734758
0.85468805,2.404968,-9.781295,0.64456934,-2.5070546,5.119739,-15.185175,4.9811373
0.85593075,2.397983,-9.781295,0.64456934,-2.5070546,5.127763,-15.212242,4.943922
0.8573016,2.3895764,-10.017783,0.67439675,-2.4282248,5.007309,-15.953721,6.3313293
0.85904425,2.3790674,-10.017783,0.67439675,-2.4282248,5.0185237,-15.993941,6.275463
0.8596609,2.37498,-10.198878,0.70955044,-2.3344817,4.9650235,-16.608261,7.6090813
0.8607981,2.3675187,-10.198878,0.70955044,-2.3344817,4.9723225,-16.636724,7.569647
0.8618644,2.359766,-10.327775,0.7468347,-2.2268898,4.974368,-17.145378,8.8985815
0.86296546,2.3518758,-10.327775,0.7468347,-2.2268898,4.9814186,-17.175262,8.857037
0.86397773,2.3437583,-10.408735,0.7894453,-2.109711,5.1746387,-17.488773,10.088434
0.86516094,2.3344283,-10.408735,0.7894453,-2.109711,5.1821957,-17.523806,10.039439
0.86591005,2.3277009,-10.438562,0.84057796,-1.9818791,5.4407597,-17.712114,11.033985
0.86700225,2.318062,-10.438562,0.84057796,-1.9818791,5.4477167,-17.74809,10.98353
0.8675946,2.3119464,-10.421518,0.9066244,-1.8465905,5.3557196,-17.929209,12.048433
0.8675946,2.3119464,-10.421518,0.9066244,-1.8465905,5.3557196,-17.929209,12.048433
0.8695244,2.291357,-10.366125,0.9833234,-1.7059757,5.253064,-18.26913,13.013916
0.8698323,2.2876742,-10.366125,0.9833234,-1.7059757,5.2550173,-18.282776,12.994794
0.8703594,2.2795966,-10.274512,1.0653487,-1.5610996,4.971056,-18.734673,14.150539
0.8709028,2.2715,-10.274512,1.0653487,-1.5610996,4.9745064,-18.76482,14.108781
0.87129074,2.263482,-10.142419,1.1495047,-1.4098321,4.7662716,-19.341057,15.303344
0.8718649,2.2521245,-10.142419,1.1495047,-1.4098321,4.769911,-19.383331,15.244989
0.8720058,2.2475412,-9.965586,1.2347258,-1.2511077,4.670246,-19.87957,16.461937
0.8722596,2.2396274,-9.965586,1.2347258,-1.2511077,4.6718483,-19.909286,16.421585
0.87235403,2.2307081,-9.740814,1.3231428,-1.0849264,4.8448315,-20.326597,17.52592
0.8724347,2.2241316,-9.740814,1.3231428,-1.0849264,4.845337,-20.351517,17.492603
0.8723443,2.2166886,-9.4691725,1.4211471,-0.9112883,4.6532326,-20.763615,18.37488
0.8722667,2.2092614,-9.4691725,1.4211471,-0.9112883,4.6527424,-20.792234,18.337597
0.8720007,2.2020876,-9.146397,1.5202167,-0.7355197,4.397274,-21.19427,19.29821
0.8717419,2.1947856,-9.146397,1.5202167,-0.7355197,4.3956375,-21.222996,19.26194
0.8713111,2.188015,-8.767163,1.6065031,-0.5618816,4.641899,-21.43253,20.382952
0.87090534,2.1814785,-8.767163,1.6065031,-0.5618816,4.63933,-21.458889,20.350857
0.8703031,2.1750379,-8.3336,1.6800064,-0.38398242,5.44475,-21.639147,21.244074
0.8696808,2.1682649,-8.3336,1.6800064,-0.38398242,5.440811,-21.667307,21.211266
0.8689037,2.1623018,-7.8510356,1.7694886,-0.20501798,5.550791,-22.076426,22.126488
0.8681324,2.1563113,-7.8510356,1.7694886,-0.20501798,5.5458946,-22.102386,22.098028
0.86716676,2.1508424,-7.3162727,1.8749498,-0.032445144,5.563692,-22.582481,23.06416
0.8662114,2.1453867,-7.3162727,1.8749498,-0.032445144,5.5576,-22.607456,23.038961
0.86507136,2.1404872,-6.737834,1.9729542,0.13054031,5.3492165,-22.708172,23.874434
0.86393887,2.1355896,-6.737834,1.9729542,0.13054031,5.341984,-22.73212,23.852604
0.8626457,2.131315,-6.111459,2.0539143,0.28074262,5.314556,-23.348652,24.782751
0.86136436,2.127059,-6.111459,2.0539143,0.28074262,5.3063583,-23.37121,24.764698
0.85991627,2.123434,-5.43182,2.1306133,0.4213575,4.823017,-24.436516,25.933357
0.85848224,2.1198306,-5.43182,2.1306133,0.4213575,4.813793,-24.457737,25.919224
0.85690504,2.11694,-4.694657,2.1934638,0.5545156,3.8651123,-25.664967,27.087395
0.8553327,2.1140494,-4.694657,2.1934638,0.5545156,3.8549805,-25.684624,27.077501
0.8536383,2.1119251,-3.8946433,2.233944,0.67915154,3.1018295,-26.511717,28.125685
0.85195094,2.1098037,-3.8946433,2.233944,0.67915154,3.090908,-26.529503,28.120327
0.85014665,2.1084836,-3.0221918,2.2456617,0.80378747,2.5955734,-27.421633,28.871603
0.8483476,2.1071622,-3.0221918,2.2456617,0.80378747,2.5838737,-27.437447,28.871027
0.846457,2.1066923,-2.0815632,2.2286177,0.9252276,2.0879402,-28.595427,29.2921
0.8445651,2.106217,-2.0815632,2.2286177,0.9252276,2.0755959,-28.608992,29.29654
0.8425988,2.106629,-1.0727577,2.1785502,1.0424067,1.3492584,-29.194656,29.30624
0.8406318,2.107034,-1.0727577,2.1785502,1.0424067,1.3363533,-29.205708,29.3159
0.8386122,2.108347,-0.0011016531,2.0880027,1.1627816,0.14513779,-29.86523,28.82331
0.836585,2.1096554,-0.0011016531,2.0880027,1.1627816,0.13179398,-29.87354,28.838305
0.8345221,2.1118715,1.121687,1.9441919,1.2884828,0.223526,-29.831047,28.006248
0.83245873,2.1140761,1.121687,1.9441919,1.2884828,0.20986557,-29.8364,28.026505
0.8303915,2.117178,2.2828252,1.7535096,1.4120535,-0.32097626,-29.824226,26.85956
0.82831323,2.1202817,2.2828252,1.7535096,1.4120535,-0.33478928,-29.826359,26.88503
0.82625926,2.1242719,3.4588773,1.5276736,1.5249715,-0.48254395,-29.513859,25.569921
0.8242054,2.1282477,3.4588773,1.5276736,1.5249715,-0.49625778,-29.512482,25.6003
0.8221953,2.133102,4.629603,1.2677491,1.6272368,-0.42351913,-29.220217,23.873386
0.82007587,2.138206,4.629603,1.2677491,1.6272368,-0.4377327,-29.214792,23.91047
0.8182496,2.1435525,5.7726316,0.97799706,1.7231107,-1.1682549,-29.503336,22.353252
0.8163213,2.1491878,5.7726316,0.97799706,1.7231107,-1.1812477,-29.494293,22.39262
0.81448364,2.1555789,6.8730497,0.66480935,1.8200498,0.6115875,-28.270144,20.352915
0.81263936,2.1619914,6.8730497,0.66480935,1.8200498,0.5991249,-28.257074,20.39629
0.81089276,2.1691327,7.909552,0.3484258,1.9159236,-0.93062973,-28.7383,18.638107
0.80917925,2.1761508,7.909552,0.3484258,1.9159236,-0.9422512,-28.721407,18.684269
0.80758625,2.183806,8.875747,0.0064759105,2.0086017,-1.9394875,-28.949932,17.019176
0.80599856,2.1914678,8.875747,0.0064759105,2.0086017,-1.9503002,-28.928965,17.068249
0.80455863,2.1996794,9.766308,-0.371693,2.1002142,-0.7390766,-28.454391,15.482008
0.8031398,2.207835,9.766308,-0.371693,2.1002142,-0.74876404,-28.429554,15.532848
0.80187196,2.2164702,10.575909,-0.74347025,2.1971533,-0.22592163,-27.984823,13.92395
0.8006252,2.2250648,10.575909,-0.74347025,2.1971533,-0.23445892,-27.956228,13.976134
0.79952127,2.234079,11.290702,-1.0737022,2.291962,-1.9275436,-28.264538,12.617189
0.7984397,2.2430708,11.290702,-1.0737022,2.291962,-1.9349651,-28.232317,12.670362
0.79752463,2.252338,11.917077,-1.4081953,2.3782482,-2.195036,-28.226194,11.3306
0.79662776,2.2616568,11.917077,-1.4081953,2.3782482,-2.2012043,-28.190477,11.384175
0.79592353,2.2711568,12.4603615,-1.7661241,2.461339,-1.7415771,-28.118864,10.168611
0.7952481,2.2806349,12.4603615,-1.7661241,2.461339,-1.7462273,-28.080175,10.2214
0.79476905,2.2902875,12.924817,-2.115531,2.538038,-1.064786,-28.1732,9.210812
0.7943212,2.299939,12.924817,-2.115531,2.538038,-1.0678749,-28.131468,9.26273
0.79407644,2.3096552,13.315769,-2.4415019,2.6019537,-0.7678919,-28.140532,8.178779
0.79386455,2.3194292,13.315769,-2.4415019,2.6019537,-0.7693567,-28.09598,8.229412
0.7938571,2.3292394,13.639609,-2.7376454,2.6477602,-0.54435253,-28.001825,7.4647703
0.79388654,2.3390594,13.639609,-2.7376454,2.6477602,-0.54414845,-27.954844,7.5135717
0.79410774,2.3489342,13.897404,-2.9975698,2.6765223,2.804472,-26.709053,5.823042
0.7943682,2.3588095,13.897404,-2.9975698,2.6765223,2.8062687,-26.659714,5.8700256
0.79479593,2.368728,14.080629,-3.1861217,2.6935666,0.031943798,-27.34631,4.6613073
0.7952644,2.3786473,14.080629,-3.1861217,2.6935666,0.03517008,-27.294851,4.7064123
0.79587734,2.3885903,14.1988735,-3.3288672,2.691436,0.83426476,-26.710651,4.02252
0.7965324,2.3985445,14.1988735,-3.3288672,2.691436,0.8387737,-26.6573,4.0657434
0.79735607,2.4084673,14.271312,-3.4833305,2.6680002,1.5579095,-26.804033,3.2885542
0.79822344,2.4184113,14.271312,-3.4833305,2.6680002,1.5638738,-26.748964,3.3294697
0.79926085,2.4283137,14.306465,-3.6218147,2.6285856,1.7673156,-26.314686,2.3679123
0.8003419,2.4382277,14.306465,-3.6218147,2.6285856,1.7747307,-26.258099,2.4063473
0.8015919,2.4481583,14.309661,-3.731537,2.5689306,1.3714851,-25.448547,1.0450964
0.8028784,2.4580407,14.309661,-3.731537,2.5689306,1.3802856,-25.390568,1.0810184
0.8043447,2.4679086,14.269181,-3.8412592,2.48584,2.0894055,-24.072235,-0.14411163
0.8058425,2.4777093,14.269181,-3.8412592,2.48584,2.0996213,-24.01321,-0.11100769
0.8075333,2.487495,14.171177,-3.948851,2.38464,3.2986555,-22.66989,-1.0230246
0.809269,2.497303,14.171177,-3.948851,2.38464,3.3104515,-22.609325,-0.992568
0.8111746,2.5069876,14.004995,-4.030876,2.2631998,4.242755,-21.303524,-2.1996727
0.81312454,2.516695,14.004995,-4.030876,2.2631998,4.255952,-21.242216,-2.172227
0.8152215,2.526256,13.767442,-4.073487,2.127911,4.4999585,-20.223255,-3.061492
0.8173571,2.535821,13.767442,-4.073487,2.127911,4.514352,-20.16166,-3.0370789
0.819615,2.5452108,13.45958,-4.082009,1.986231,4.266172,-18.55855,-3.6994905
0.82190686,2.5545955,13.45958,-4.082009,1.986231,4.2815437,-18.497099,-3.6780767
0.8243003,2.5637796,13.083542,-4.0724216,1.8381592,5.116374,-16.3246,-4.870167
0.8267225,2.5729501,13.083542,-4.0724216,1.8381592,5.132539,-16.263683,-4.8516912
0.82921207,2.5818596,12.632935,-4.0425944,1.6773043,7.136299,-13.589458,-7.0666256
0.8317351,2.5907836,12.632935,-4.0425944,1.6773043,7.1530476,-13.529466,-7.050975
0.8342895,2.5993676,12.086454,-3.98507,1.4919482,9.2146015,-8.725952,-11.021291
0.8368612,2.6079226,12.086454,-3.98507,1.4919482,9.231577,-8.667848,-11.008476
0.8394815,2.6160586,11.407881,-3.8977184,1.2703733,10.766731,-6.0070577,-13.320341
0.8421255,2.6242003,11.407881,-3.8977184,1.2703733,10.784094,-5.9510794,-13.310541
0.84481215,2.6317956,10.59828,-3.7986488,1.0264277,12.487183,-4.2125797,-14.5147915
0.8475272,2.63942,10.59828,-3.7986488,1.0264277,12.504888,-4.159381,-14.508186
0.8502758,2.646407,9.671499,-3.6846654,0.7665032,15.443701,-1.4570026,-16.328667
0.85304403,2.6534076,9.671499,-3.6846654,0.7665032,15.461632,-1.4073229,-16.32531
0.8558041,2.6597028,8.633932,-3.5280716,0.4905997,15.920008,1.3484468,-18.311651
0.8585882,2.66603,8.633932,-3.5280716,0.4905997,15.9379425,1.3941584,-18.311262
0.86132675,2.671598,7.4823813,-3.327802,0.19552144,14.825455,2.124815,-19.337883
0.86408556,2.6771953,7.4823813,-3.327802,0.19552144,14.843115,2.1660824,-19.340164
0.8668172,2.6819756,6.252001,-3.1424458,-0.116601035,14.779133,2.4515028,-19.579517
0.86956054,2.6867728,6.252001,-3.1424458,-0.116601035,14.796579,2.4879637,-19.584541
0.87230265,2.6907105,4.9790096,-2.9847867,-0.4319193,15.493916,3.0701075,-19.687943
0.87504303,2.6946476,4.9790096,-2.9847867,-0.4319193,15.511227,3.1014824,-19.695778
0.87778395,2.697724,3.6879091,-2.824997,-0.73871547,14.944292,3.8126383,-19.868942
0.8805208,2.7008007,3.6879091,-2.824997,-0.73871547,14.961477,3.8389654,-19.879423
0.883235,2.702987,2.3914824,-2.667338,-1.0380548,14.451725,4.147423,-19.470877
0.88596547,2.7051923,2.3914824,-2.667338,-1.0380548,14.468756,4.168683,-19.48388
0.88868207,2.7065072,1.1067734,-2.5245924,-1.328872,14.53352,4.050762,-18.455349
0.89139843,2.707827,1.1067734,-2.5245924,-1.328872,14.550343,4.0669193,-18.470749
0.89409703,2.708276,-0.15023868,-2.3786511,-1.6005144,14.571787,3.632801,-16.970432
0.89679015,2.7087286,-0.15023868,-2.3786511,-1.6005144,14.588342,3.6440125,-16.988035
0.8994495,2.708342,-1.3625096,-2.2156658,-1.8465905,14.135393,2.7167072,-15.073095
0.9021041,2.7079606,-1.3625096,-2.2156658,-1.8465905,14.151611,2.7231913,-15.092653
0.9046903,2.7067814,-2.5151258,-2.0398972,-2.0628393,12.687751,1.4705229,-13.026062
0.90727794,2.7056057,-2.5151258,-2.0398972,-2.0628393,12.703446,1.4725056,-13.047243
0.90978813,2.7036922,-3.5867817,-1.8694547,-2.2524562,11.023546,0.07683182,-10.99641
0.912311,2.7017736,-3.5867817,-1.8694547,-2.2524562,11.038769,0.07469082,-11.019086
0.9147766,2.6991625,-4.5604334,-1.7309704,-2.4090502,10.411945,-1.2433262,-8.988931
0.9172462,2.6965528,-4.5604334,-1.7309704,-2.4090502,10.426737,-1.2491727,-9.013052
0.91968095,2.6932914,-5.4350157,-1.6233788,-2.5304904,10.067789,-2.541812,-6.807243
0.92211616,2.6900368,-5.4350157,-1.6233788,-2.5304904,10.08229,-2.5509632,-6.832848
0.92453265,2.6861742,-6.209463,-1.5317659,-2.6189072,9.66567,-3.7555764,-4.863179
0.9269487,2.682322,-6.209463,-1.5317659,-2.6189072,9.679962,-3.767635,-4.8902864
0.9269487,2.682322,-6.8891015,-1.4518712,-2.674301,9.679962,-3.767635,-4.8902864
0.93188596,2.67327,-6.8891015,-1.4518712,-2.674301,9.282864,-4.999773,-2.9665422
0.9342736,2.6683648,-7.479258,-1.3794332,-2.6977367,8.636054,-6.0128107,-1.1672306
0.93659604,2.663608,-7.479258,-1.3794332,-2.6977367,8.649615,-6.0290833,-1.1963005
0.93659604,2.663608,-7.479258,-1.3794332,-2.6977367,8.649615,-6.0290833,-1.1963005
0.94185483,2.6517127,-7.9884543,-1.3133868,-2.6881495,8.306671,-7.1242723,0.51586246
0.94377494,2.6469264,-8.425213,-1.2473403,-2.6487346,8.063986,-8.094324,2.193984
0.9461581,2.641003,-8.425213,-1.2473403,-2.6487346,8.077729,-8.115253,2.1609888
0.94847673,2.6346018,-8.793795,-1.1727718,-2.5773618,8.306523,-9.00043,3.8699894
0.95082486,2.6281412,-8.793795,-1.1727718,-2.5773618,8.319973,-9.023539,3.8355255
0.9529797,2.6215122,-9.103786,-1.0790286,-2.4761617,8.327483,-9.976859,5.482544
0.9551825,2.6147585,-9.103786,-1.0790286,-2.4761617,8.34002,-10.001308,5.4480133
0.95825255,2.6041403,-9.354123,-0.96184945,-2.34833,8.285601,-10.979184,6.856654
0.9591775,2.6009536,-9.354123,-0.96184945,-2.34833,8.290831,-10.990824,6.841012
0.9610408,2.5935845,-9.551197,-0.8201693,-2.1959972,8.310923,-11.818281,8.16654
0.96418804,2.581207,-9.551197,-0.8201693,-2.1959972,8.328617,-11.864079,8.108304
0.9647463,2.5786526,-9.696074,-0.65824914,-2.0319464,8.379631,-12.544175,9.360993
0.9647463,2.5786526,-9.696074,-0.65824914,-2.0319464,8.379631,-12.544175,9.360993
0.9680268,2.5634184,-9.788752,-0.4814152,-1.8593737,8.493744,-13.209649,10.508886
0.9694904,2.5555387,-9.788752,-0.4814152,-1.8593737,8.501901,-13.239801,10.474832
0.97115695,2.5445557,-9.832427,-0.2864718,-1.6804093,8.717067,-13.80488,11.51173
0.9719089,2.5396342,-9.832427,-0.2864718,-1.6804093,8.721241,-13.823986,11.491274
0.97285545,2.5315914,-9.8302965,-0.0680926,-1.498249,8.807892,-14.210586,12.378931
0.97381306,2.5235333,-9.8302965,-0.0680926,-1.498249,8.813191,-14.242558,12.346855
0.9744812,2.5154529,-9.786621,0.17585295,-1.3182193,8.7402725,-14.716228,13.168745
0.97515315,2.5074391,-9.786621,0.17585295,-1.3182193,8.74398,-14.748766,13.138233
0.9755248,2.4995008,-9.702465,0.4325817,-1.1413854,8.568863,-15.251414,13.938097
0.9759064,2.4915514,-9.702465,0.4325817,-1.1413854,8.570968,-15.284554,13.90922
0.97597647,2.483767,-9.584221,0.7020936,-0.9666821,8.7581005,-15.600789,14.557821
0.9760567,2.4759514,-9.584221,0.7020936,-0.9666821,8.758545,-15.634387,14.530817
0.9758151,2.4683576,-9.432953,0.9865192,-0.793044,8.503426,-15.816885,15.291681
0.97558343,2.4607728,-9.432953,0.9865192,-0.793044,8.50215,-15.850679,15.266946
0.9750263,2.4534388,-9.2507925,1.279467,-0.6215364,8.230926,-16.167427,16.058886
0.97447747,2.4461002,-9.2507925,1.279467,-0.6215364,8.227893,-16.201492,16.036472
0.9736122,2.439075,-9.03774,1.5702841,-0.45748568,7.571886,-16.834314,16.864412
0.9727568,2.4320612,-9.03774,1.5702841,-0.45748568,7.567148,-16.868376,16.844515
0.9715973,2.4253788,-8.788468,1.8461876,-0.29663074,7.124975,-17.323954,17.718052
0.9704471,2.4187016,-8.788468,1.8461876,-0.29663074,7.1185856,-17.358,17.700644
0.9690154,2.4123929,-8.495521,2.0965247,-0.14003685,6.8424683,-17.875597,18.581451
0.96759295,2.4060905,-8.495521,2.0965247,-0.14003685,6.8345356,-17.909441,18.566528
0.96591544,2.4001846,-8.157831,2.3180997,0.009100171,6.801218,-18.124956,19.55513
0.96424675,2.394285,-8.157831,2.3180997,0.009100171,6.791872,-18.158411,19.542671
0.9623511,2.388817,-7.777532,2.5130432,0.14545402,7.1451416,-18.440321,20.265566
0.96046346,2.3833542,-7.777532,2.5130432,0.14545402,7.134512,-18.47316,20.255552
0.9583695,2.3783638,-7.3556876,2.6920075,0.26795945,7.5057583,-18.251425,21.206028
0.95633966,2.373512,-7.3556876,2.6920075,0.26795945,7.494259,-18.282553,21.198757
0.95426214,2.3685298,-7.3556876,2.6920075,0.26795945,7.482458,-18.314491,21.19101
0.9519233,2.3639276,-6.9008193,2.8645804,0.37555113,7.3829403,-18.652811,21.980923
0.94948953,2.3600283,-6.4118633,3.0243702,0.47035968,7.1487484,-19.132479,22.654278
0.9470581,2.3561215,-6.4118633,3.0243702,0.47035968,7.1348,-19.162077,22.652218
0.94448006,2.3528047,-5.8898835,3.1681807,0.55238503,7.5461216,-19.434336,23.337963
0.9418826,2.349453,-5.8898835,3.1681807,0.55238503,7.5311184,-19.462666,23.338749
0.93916595,2.3467321,-5.335946,3.2992084,0.62482303,7.1179314,-19.64236,23.888533
0.9364516,2.3440034,-5.335946,3.2992084,0.62482303,7.102127,-19.668858,23.892242
0.9337419,2.3412695,-5.335946,3.2992084,0.62482303,7.0862923,-19.695368,23.895761
0.93092144,2.3391623,-4.7543116,3.4078653,0.6855431,6.8063946,-20.155722,24.189686
0.92810184,2.3370454,-4.7543116,3.4078653,0.6855431,6.789789,-20.180372,24.196152
0.9251982,2.335552,-4.148176,3.483499,0.73561054,6.1118393,-20.217327,24.066765
0.92229474,2.334047,-4.148176,3.483499,0.73561054,6.094614,-20.23996,24.076077
0.91934294,2.3331566,-3.5207355,3.5207834,0.7792864,5.3731384,-20.53328,24.116964
0.916387,2.332252,-3.5207355,3.5207834,0.7792864,5.3554688,-20.55373,24.128994
0.913407,2.331936,-2.8762505,3.518653,0.82509273,4.7821293,-20.78255,24.531515
0.9104219,2.331605,-2.8762505,3.518653,0.82509273,4.7641506,-20.800747,24.546087
0.90742564,2.3318467,-2.2157865,3.4856296,0.87302965,3.879324,-21.08473,24.405172
0.90442926,2.3320732,-2.2157865,3.4856296,0.87302965,3.8611412,-21.100586,24.422163
0.9014527,2.332851,-1.5446699,3.4174528,0.918836,3.1008015,-21.295916,24.111067
0.8984714,2.3336122,-1.5446699,3.4174528,0.918836,3.0825653,-21.30931,24.130299
0.8955181,2.3348966,-0.86822695,3.3183832,0.9731645,2.829794,-21.530958,23.950594
0.8925624,2.3361633,-0.86822695,3.3183832,0.9731645,2.8115845,-21.541918,23.971918
0.88965183,2.3379312,-0.191784,3.193747,1.0285583,1.9029369,-21.990913,23.492472
0.88673836,2.3396814,-0.191784,3.193747,1.0285583,1.8848534,-21.999367,23.515736
0.8838975,2.3419087,0.48892,3.031827,1.0818214,1.4409904,-22.23509,22.798552
0.8810529,2.3441179,0.48892,3.031827,1.0818214,1.4232025,-22.24094,22.82354
0.87830734,2.34677,1.1664282,2.8315573,1.13615,0.91277885,-22.43572,21.98328
0.8755584,2.3494053,1.1664282,2.8315573,1.13615,0.8954849,-22.438911,22.009676
0.8729342,2.3524535,1.8396753,2.5961337,1.1904784,0.31867027,-22.702816,20.988636
0.8703071,2.3554864,1.8396753,2.5961337,1.1904784,0.30203438,-22.703289,21.016205
0.86782515,2.358902,2.5097268,2.3276873,1.249068,0.60230255,-22.547876,19.866793
0.8653405,2.362303,2.5097268,2.3276873,1.249068,0.58647156,-22.545603,19.895271
0.86302114,2.3660648,3.1712558,2.0390005,1.3076576,0.73446274,-22.25335,18.497555
0.8606969,2.369817,3.1712558,2.0390005,1.3076576,0.71957016,-22.248281,18.526775
0.8585504,2.3739214,3.8136103,1.742857,1.357725,0.22215843,-21.929243,17.081776
0.8564027,2.3780143,3.8136103,1.742857,1.357725,0.20833015,-21.921316,17.111557
0.85445243,2.3824253,4.424007,1.4296693,1.4014008,-0.29746246,-21.599457,15.681229
0.8525023,2.3868265,4.424007,1.4296693,1.4014008,-0.31008148,-21.588696,15.7112875
0.85076785,2.3915014,4.997119,1.0973067,1.4418808,-0.35963058,-21.26889,14.501176
0.8490886,2.3960238,4.997119,1.0973067,1.4418808,-0.3705349,-21.255798,14.530251
0.8475841,2.4009209,5.527621,0.7500305,1.482361,-0.2510395,-20.899868,13.544848
0.8460364,2.4059637,5.527621,0.7500305,1.482361,-0.26112366,-20.88324,13.575404
0.84477556,2.4110317,6.0144467,0.39955848,1.5217757,-0.33639717,-20.620653,12.378615
0.843524,2.4160752,6.0144467,0.39955848,1.5217757,-0.34457397,-20.602165,12.407416
0.84250915,2.4212923,6.4512053,0.048021223,1.55906,-0.2267189,-20.093075,11.410884
0.8414961,2.4265268,6.4512053,0.048021223,1.55906,-0.23335838,-20.072124,11.439047
0.8407282,2.4318407,6.8378963,-0.2928634,1.595279,-0.11389732,-19.987173,11.020771
0.83996844,2.4371471,6.8378963,-0.2928634,1.595279,-0.11888504,-19.964308,11.047634
0.8394396,2.4425316,7.17665,-0.6209648,1.6304327,2.1090355,-18.627768,10.139696
0.83891946,2.447915,7.17665,-0.6209648,1.6304327,2.1056156,-18.603064,10.165317
0.83861315,2.4533515,7.4557495,-0.9096515,1.6655864,0.63834953,-17.853888,8.2170105
0.838317,2.458788,7.4557495,-0.9096515,1.6655864,0.63639927,-17.827572,8.241327
0.83821833,2.464221,7.663476,-1.177033,1.6922181,1.8759499,-17.800228,8.288317
0.8381309,2.469654,7.663476,-1.177033,1.6922181,1.8753729,-17.772703,8.311144
0.83821625,2.4750662,7.8115478,-1.4018037,1.712458,2.5367346,-17.835361,7.7868805
0.83831334,2.4804785,7.8115478,-1.4018037,1.712458,2.537374,-17.806871,7.8082657
0.8385735,2.4858599,7.918074,-1.6031387,1.7188497,3.7026668,-17.950083,7.091009
0.8388464,2.4912415,7.918074,-1.6031387,1.7188497,3.7044616,-17.920757,7.1109295
0.839265,2.496593,7.996904,-1.7725158,1.7156538,4.698414,-18.154211,6.8328323
0.8396966,2.501945,7.996904,-1.7725158,1.7156538,4.701249,-18.124155,6.851369
0.840245,2.5072992,8.050167,-1.886499,1.6954138,4.4031825,-17.925903,6.031083
0.840806,2.512648,8.050167,-1.886499,1.6954138,4.4068656,-17.895138,6.048497
0.8414843,2.518022,8.08532,-1.9855686,1.6549338,4.5597553,-17.198074,5.198427
0.8421751,2.5233908,8.08532,-1.9855686,1.6549338,4.5642834,-17.166502,5.2147713
0.8429867,2.5287607,8.091712,-2.0825076,1.6006052,5.1633596,-16.171877,4.3587236
0.84381175,2.5341313,8.091712,-2.0825076,1.6006052,5.168755,-16.139605,4.373884
0.844757,2.5394866,8.059754,-2.1709247,1.5324284,5.7495427,-15.082138,3.435174
0.8457152,2.5448422,8.059754,-2.1709247,1.5324284,5.755801,-15.049284,3.4490824
0.84678715,2.5501714,7.9819903,-2.240167,1.446142,6.1219187,-14.259497,2.2984076
0.8478702,2.5554957,7.9819903,-2.240167,1.446142,6.1289783,-14.226217,2.3110256
0.8478702,2.5554957,7.9819903,-2.240167,1.446142,6.1289783,-14.226217,2.3110256
0.85080045,2.5676959,7.667737,-2.3083436,1.2160448,7.9388847,-11.404273,-0.5414591
0.8516827,2.5713196,7.667737,-2.3083436,1.2160448,7.9446025,-11.380981,-0.5342293
0.8529446,2.576466,7.667737,-2.3083436,1.2160448,7.9527793,-11.34785,-0.5241842
0.8542745,2.5815582,7.4152694,-2.3040826,1.0711688,9.225514,-9.84948,-2.147811
0.8556172,2.5866618,7.4152694,-2.3040826,1.0711688,9.234191,-9.816238,-2.1388302
0.8570193,2.5916524,7.091429,-2.2699943,0.9071181,9.511377,-8.892736,-3.1507502
0.8584331,2.596655,7.091429,-2.2699943,0.9071181,9.520483,-8.859766,-3.142972
0.85989565,2.6014743,6.6972814,-2.2220573,0.7238926,9.127648,-7.8459926,-4.189766
0.8613629,2.6062865,6.6972814,-2.2220573,0.7238926,9.13706,-7.813869,-4.1833572
0.8628891,2.6108527,6.2381525,-2.1815772,0.52788395,9.592157,-6.8012667,-4.944463
0.8644237,2.6154265,6.2381525,-2.1815772,0.52788395,9.601968,-6.7702303,-4.9396334
0.8660209,2.6196911,5.7151074,-2.1432278,0.326549,10.1005745,-5.950595,-5.5492907
0.86762494,2.6239629,5.7151074,-2.1432278,0.326549,10.110794,-5.9210067,-5.546221
0.86929035,2.6278934,5.133473,-2.095291,0.112430826,10.4422,-5.141321,-6.3348684
0.87096304,2.6318355,5.133473,-2.095291,0.112430826,10.452815,-5.113356,-6.3335934
0.8726882,2.6353877,4.494314,-2.0377667,-0.11020945,10.774977,-4.3403926,-7.2485914
0.8744161,2.6389434,4.494314,-2.0377667,-0.11020945,10.785896,-4.314425,-7.2491465
0.8762002,2.6420755,3.799762,-1.9759812,-0.34563288,11.663855,-3.4478724,-8.02241
0.8779866,2.645212,3.799762,-1.9759812,-0.34563288,11.675085,-3.4240794,-8.024864
0.87982166,2.6478813,3.0519462,-1.9046085,-0.5863827,12.883709,-2.243935,-8.895839
0.8816557,2.650552,3.0519462,-1.9046085,-0.5863827,12.895204,-2.2226129,-8.900191
0.88353074,2.652756,2.249802,-1.8066041,-0.8313935,12.38498,-1.0114398,-10.32365
0.88537776,2.6549315,2.249802,-1.8066041,-0.8313935,12.3965025,-0.9928684,-10.329715
0.88726616,2.65659,1.3858727,-1.7032735,-1.0859917,13.236646,-0.6753516,-10.308895
0.88915426,2.6582534,1.3858727,-1.7032735,-1.0859917,13.248366,-0.6595044,-10.316852
0.89105576,2.6593618,0.47933263,-1.5860945,-1.3384594,12.982415,-0.9914379,-10.020084
0.89295703,2.6604753,0.47933263,-1.5860945,-1.3384594,12.994158,-0.9785948,-10.029801
0.89485055,2.661018,-0.44744745,-1.4508059,-1.582405,12.330659,-1.2035456,-9.60539
0.89674324,2.661565,-0.44744745,-1.4508059,-1.582405,12.342304,-1.1938434,-9.616728
0.89862454,2.6615334,-1.3752928,-1.3187131,-1.8167632,10.357073,-1.0676193,-9.519525
0.9005058,2.6615067,-1.3752928,-1.3187131,-1.8167632,10.3685875,-1.0610709,-9.532455
0.9023945,2.6608787,-2.2967465,-1.2111213,-2.0351424,9.733685,-1.5557303,-8.666087
0.9023945,2.6608787,-2.2967465,-1.2111213,-2.0351424,9.733685,-1.5557303,-8.666087
0.9023945,2.6608787,-2.2967465,-1.2111213,-2.0351424,9.733685,-1.5557303,-8.666087
0.9023945,2.6608787,-2.2967465,-1.2111213,-2.0351424,9.733685,-1.5557303,-8.666087
0.9110597,2.6523547,-4.0661507,-1.0374832,-2.3770921,9.307394,-3.0737195,-5.9914694
0.91246545,2.6507065,-4.892796,-0.9224347,-2.4964018,8.61676,-4.26007,-4.229293
0.914034,2.6486633,-4.892796,-0.9224347,-2.4964018,8.626192,-4.265131,-4.245865
0.91589344,2.646249,-4.892796,-0.9224347,-2.4964018,8.637352,-4.2710075,-4.265502
0.9177133,2.64329,-5.6640477,-0.80632085,-2.581623,7.915626,-5.644502,-2.6200733
0.9195933,2.640246,-5.6640477,-0.80632085,-2.581623,7.926847,-5.653409,-2.6416922
0.9214366,2.6366658,-6.366057,-0.6955334,-2.6370168,7.2052073,-6.8813877,-0.89291286
0.9233043,2.6330552,-6.366057,-0.6955334,-2.6370168,7.216302,-6.893038,-0.9161339
0.92511004,2.628976,-6.9903016,-0.60392064,-2.6647136,7.083355,-8.09473,0.83617306
0.92695177,2.624836,-6.9903016,-0.60392064,-2.6647136,7.0942473,-8.108912,0.811512
0.92695177,2.624836,-6.9903016,-0.60392064,-2.6647136,7.0942473,-8.108912,0.811512
0.92695177,2.624836,-6.9903016,-0.60392064,-2.6647136,7.0942473,-8.108912,0.811512
0.92695177,2.624836,-6.9903016,-0.60392064,-2.6647136,7.0942473,-8.108912,0.811512
0.93488926,2.603774,-8.378342,-0.3770193,-2.5997324,6.3029156,-11.416496,6.192195
0.9367259,2.597806,-8.378342,-0.3770193,-2.5997324,6.313637,-11.43887,6.161788
0.93743753,2.5955043,-8.378342,-0.3770193,-2.5997324,6.3177824,-11.447414,6.150009
0.9390511,2.5896783,-8.6840725,-0.3045813,-2.5379472,5.8962135,-12.3698635,7.6824207
0.940691,2.5837958,-8.6840725,-0.3045813,-2.5379472,5.9057326,-12.392021,7.6533566
0.9422406,2.5776148,-8.9163,-0.23640439,-2.4548566,6.17807,-13.172346,9.405164
0.9438025,2.5714297,-8.9163,-0.23640439,-2.4548566,6.187095,-13.195817,9.375465
0.94526076,2.5649998,-9.080351,-0.16503167,-2.3515258,6.1284676,-13.871887,10.806042
0.94672954,2.558571,-9.080351,-0.16503167,-2.3515258,6.136922,-13.896418,10.775967
0.94808245,2.5519361,-9.17729,-0.08513683,-2.2322164,6.0489264,-14.439333,12.201551
0.9494461,2.5453024,-9.17729,-0.08513683,-2.2322164,6.0567455,-14.464781,12.171254
0.95067245,2.5385566,-9.212443,8.432381e-05,-2.1001234,6.298397,-14.878975,13.400707
0.9519131,2.5317922,-9.212443,8.432381e-05,-2.1001234,6.305485,-14.905069,13.370517
0.95300317,2.5249527,-9.1879425,0.09595813,-1.9563128,6.5990057,-15.018132,14.518863
0.95410496,2.518108,-9.1879425,0.09595813,-1.9563128,6.605282,-15.044722,14.489012
0.95503765,2.5112512,-9.111243,0.20887616,-1.8061105,6.8069105,-15.071907,15.547034
0.9559937,2.5043004,-9.111243,0.20887616,-1.8061105,6.8123417,-15.099169,15.517468
0.95675397,2.4974651,-8.989803,0.33883843,-1.6516471,6.859749,-15.231942,16.561996
0.957522,2.4906464,-8.989803,0.33883843,-1.6516471,6.8640995,-15.259031,16.533762
0.9580942,2.4838223,-8.8268175,0.4869102,-1.4907922,6.771572,-15.602914,17.722843
0.95865536,2.477244,-8.8268175,0.4869102,-1.4907922,6.774746,-15.629512,17.696434
0.9590055,2.4707127,-8.621222,0.6520262,-1.3267415,6.5181503,-16.22179,18.8924
0.9593655,2.4641798,-8.621222,0.6520262,-1.3267415,6.5201855,-16.24882,18.8671
0.9594982,2.4578128,-8.367689,0.8235338,-1.159495,6.367708,-16.716627,20.05032
0.9596422,2.451331,-8.367689,0.8235338,-1.159495,6.3685207,-16.744188,20.026207
0.95955366,2.4453945,-8.063023,0.99823713,-0.99331367,6.128603,-17.177444,21.154549
0.9594717,2.4393373,-8.063023,0.99823713,-0.99331367,6.1281395,-17.204052,21.133034
0.95915496,2.4336047,-7.70829,1.1729405,-0.82606715,6.6913795,-17.12023,22.172224
0.9588476,2.4278967,-7.70829,1.1729405,-0.82606715,6.689642,-17.146292,22.15305
0.9582936,2.422533,-7.304555,1.3551008,-0.6545596,6.9929657,-17.30617,22.936172
0.9577507,2.4172037,-7.304555,1.3551008,-0.6545596,6.9898987,-17.331701,22.919523
0.9569484,2.412298,-6.865666,1.5564357,-0.48518252,6.6501617,-17.634485,23.715122
0.9561559,2.407414,-6.865666,1.5564357,-0.48518252,6.645668,-17.65935,23.701355
0.9551062,2.4030254,-6.3852315,1.7609664,-0.317936,6.1465034,-18.353855,24.58629
0.9540656,2.3986523,-6.3852315,1.7609664,-0.317936,6.140585,-18.377846,24.575672
0.95278215,2.3947854,-5.863252,1.9420614,-0.15814635,6.411003,-19.10492,25.329678
0.9515092,2.3909352,-5.863252,1.9420614,-0.15814635,6.403734,-19.12796,25.322199
0.95002246,2.3876424,-5.295466,2.09759,-0.004748267,5.8637295,-19.872892,25.816017
0.94854033,2.3843498,-5.295466,2.09759,-0.004748267,5.8552284,-19.894749,25.811707
0.9468609,2.3816447,-4.6808085,2.2318134,0.1433235,5.0602875,-20.034966,25.925695
0.9451972,2.3789582,-4.6808085,2.2318134,0.1433235,5.0507164,-20.055325,25.92464
0.943361,2.3768473,-4.028867,2.3202302,0.28074262,5.6817665,-20.328026,26.271544
0.94153714,2.3747444,-4.028867,2.3202302,0.28074262,5.6712227,-20.346855,26.273577
0.9395842,2.3732495,-3.3481627,2.3777547,0.4043133,6.081272,-20.876236,26.51815
0.937637,2.3717537,-3.3481627,2.3777547,0.4043133,6.06995,-20.893236,26.523216
0.9355649,2.3708992,-2.6418922,2.4363441,0.52149236,5.167221,-21.090206,26.181988
0.93349814,2.3700411,-2.6418922,2.4363441,0.52149236,5.1551437,-21.105206,26.190214
0.9313181,2.3698242,-1.9228387,2.48002,0.63867146,4.2756615,-21.611334,25.981407
0.9291384,2.3696003,-1.9228387,2.48002,0.63867146,4.2628403,-21.624273,25.992815
0.9268775,2.3699923,-1.191002,2.4778895,0.7515895,3.6509552,-22.262316,25.86833
0.92462313,2.370375,-1.191002,2.4778895,0.7515895,3.637619,-22.27305,25.882605
0.9223275,2.3713486,-0.43786007,2.4310179,0.8655728,2.819538,-22.947044,25.602678
0.9199898,2.3723307,-0.43786007,2.4310179,0.8655728,2.805626,-22.955599,25.6199
0.91766846,2.3738606,0.3323261,2.347927,0.99020875,2.2554703,-23.612873,25.261017
0.91530347,2.3754072,0.3323261,2.347927,0.99020875,2.2413063,-23.619017,25.28074
0.9129671,2.3774827,1.1195565,2.2307482,1.120171,2.0070038,-24.020077,24.483696
0.91067326,2.3795078,1.1195565,2.2307482,1.120171,1.9931793,-24.023594,24.505026
0.9083539,2.3821144,1.918505,2.0837417,1.2458723,1.6631298,-24.082064,23.403656
0.9060399,2.384702,1.918505,2.0837417,1.2458723,1.6490993,-24.083008,23.427473
0.9037488,2.3878417,2.716388,1.9132993,1.366247,1.2377357,-23.956766,22.146227
0.901468,2.3909545,2.716388,1.9132993,1.366247,1.2238369,-23.954947,22.172049
0.89925146,2.394581,3.5068142,1.7140949,1.4791651,1.0618439,-23.744438,20.720047
0.89702797,2.3982081,3.5068142,1.7140949,1.4791651,1.0482101,-23.7397,20.747707
0.8949175,2.4022827,4.275935,1.4871935,1.5824958,0.92510223,-23.487965,19.36401
0.89280546,2.406352,4.275935,1.4871935,1.5824958,0.9120865,-23.480286,19.392853
0.8908178,2.4108617,5.0184245,1.2368563,1.676239,1.0338764,-22.986134,17.991085
0.8888218,2.415385,5.0184245,1.2368563,1.676239,1.0215149,-22.975382,18.021122
0.88697946,2.420281,5.722564,0.96414864,1.7689171,0.99570465,-22.621939,16.739773
0.8851363,2.4251783,5.722564,0.96414864,1.7689171,0.98423576,-22.60825,16.770412
0.8834656,2.430408,6.3840933,0.679723,1.853073,0.36568832,-22.069986,15.29782
0.8817913,2.4356575,6.3840933,0.679723,1.853073,0.3552227,-22.053358,15.328832
0.88031214,2.4411836,6.9912944,0.37718794,1.9276415,0.09217644,-21.651152,13.937619
0.8788365,2.4467154,6.9912944,0.37718794,1.9276415,0.08291817,-21.631744,13.968487
0.87757653,2.452479,7.5399055,0.050151754,1.9968836,-0.0063991547,-21.274763,12.763524
0.8763251,2.4582384,7.5399055,0.050151754,1.9968836,-0.0142765045,-21.252724,12.793819
0.8753054,2.464165,8.025666,-0.29073286,2.06293,0.44377327,-20.725756,11.587893
0.87429637,2.4700887,8.025666,-0.29073286,2.06293,0.43740845,-20.701326,11.617183
0.87352455,2.4761317,8.446445,-0.62629116,2.1225848,0.64801407,-20.200933,10.352535
0.87276506,2.482173,8.446445,-0.62629116,2.1225848,0.6432123,-20.174345,10.380536
0.87224394,2.4882724,8.800114,-0.948001,2.1726522,0.826663,-19.605083,9.104755
0.871733,2.494414,8.800114,-0.948001,2.1726522,0.8234291,-19.576468,9.131351
0.8714576,2.5005608,9.084538,-1.2516015,2.2120671,1.0467415,-19.010286,7.9161882
0.871197,2.5067196,9.084538,-1.2516015,2.2120671,1.0450878,-18.980112,7.9410005
0.8711702,2.5128384,9.297592,-1.5434839,2.239764,1.4327784,-18.666428,6.5323277
0.8711597,2.5189939,9.297592,-1.5434839,2.239764,1.4327116,-18.634861,6.5552397
0.87138444,2.5250697,9.444598,-1.825779,2.2504165,2.7365804,-18.291294,5.350381
0.8716271,2.5311637,9.444598,-1.825779,2.2504165,2.7381163,-18.258682,5.371107
0.8721052,2.537164,9.527689,-2.09103,2.239764,3.4689832,-18.14403,3.9485245
0.8726038,2.5431948,9.527689,-2.09103,2.239764,3.472138,-18.110441,3.9670172
0.8733396,2.5491295,9.551125,-2.3360407,2.200349,4.329123,-17.621365,2.5325813
0.87409276,2.555058,9.551125,-2.3360407,2.200349,4.3338833,-17.587074,2.5486794
0.8750842,2.5608602,9.517036,-2.5650725,2.1311069,4.6561723,-17.221996,1.0303202
0.87610185,2.5667086,9.517036,-2.5650725,2.1311069,4.662586,-17.186918,1.0440111
0.877355,2.5724025,9.425424,-2.7802558,2.0352333,5.977708,-16.409452,-0.21348286
0.8786284,2.578107,9.425424,-2.7802558,2.0352333,5.9857135,-16.374025,-0.20237923
0.8801305,2.583664,9.275221,-2.9720035,1.9127277,7.149144,-15.390339,-1.8311176
0.8816532,2.5892305,9.275221,-2.9720035,1.9127277,7.15868,-15.354622,-1.8225641
0.88337666,2.5946338,9.060038,-3.1222057,1.7593297,8.198956,-14.073996,-3.6739902
0.8851269,2.6000683,9.060038,-3.1222057,1.7593297,8.209871,-14.038099,-3.6678371
0.8870639,2.6053424,8.773481,-3.231928,1.5750389,9.318476,-12.719063,-5.2725687
0.8890046,2.6105833,8.773481,-3.231928,1.5750389,9.330521,-12.68351,-5.268774
0.89110166,2.6156592,8.412357,-3.2937133,1.3630513,10.037823,-10.732916,-7.124671
0.8932209,2.6207542,8.412357,-3.2937133,1.3630513,10.050924,-10.697548,-7.123
0.89545816,2.6256037,7.969207,-3.3192797,1.1233668,9.9928665,-8.709422,-8.923552
0.89772534,2.6304908,7.969207,-3.3192797,1.1233668,10.006794,-8.674711,-8.923985
0.9001205,2.6350975,7.441901,-3.3299325,0.858116,11.237726,-7.238084,-9.860085
0.9025311,2.6397128,7.441901,-3.3299325,0.858116,11.252443,-7.204421,-9.862757
0.9050568,2.6440115,6.8325696,-3.316084,0.57582086,11.708347,-6.0228796,-10.58083
0.9076059,2.6483364,6.8325696,-3.316084,0.57582086,11.723824,-5.9904056,-10.585723
0.9102401,2.6523201,6.14867,-3.2628207,0.28074262,11.447653,-4.5996084,-11.554857
0.9128808,2.656305,6.14867,-3.2628207,0.28074262,11.463575,-4.56877,-11.561758
0.915591,2.6598983,5.3944626,-3.1935785,-0.018596705,11.379293,-3.1320524,-12.49938
0.91832244,2.663515,5.3944626,-3.1935785,-0.018596705,11.3956375,-3.1030016,-12.508313
0.9211072,2.6666656,4.573144,-3.11901,-0.3147402,12.235849,-1.8744178,-12.940441
0.92391175,2.6698382,4.573144,-3.11901,-0.3147402,12.252516,-1.8476124,-12.951426
0.926751,2.6724963,3.6868439,-3.0242014,-0.6023616,12.858296,-0.56890965,-13.323317
0.92959803,2.6751635,3.6868439,-3.0242014,-0.6023616,12.875092,-0.54475975,-13.336242
0.9324454,2.677285,2.74515,-2.897435,-0.8814609,12.843929,0.36231804,-13.484816
0.9353106,2.679423,2.74515,-2.897435,-0.8814609,12.860697,0.38364124,-13.499499
0.93815213,2.6809783,1.7565846,-2.748298,-1.1488423,12.743183,1.0099163,-13.314521
0.94099385,2.682538,1.7565846,-2.748298,-1.1488423,12.759693,1.0280495,-13.33073
0.943786,2.6834865,0.7371266,-2.579986,-1.3981142,12.2634735,1.2630768,-12.874177
0.94659424,2.6844451,0.7371266,-2.579986,-1.3981142,12.279667,1.2779274,-12.891831
0.94932735,2.6847641,-0.29617992,-2.3988912,-1.6218197,11.58667,0.98275137,-11.871542
0.9520658,2.6850884,-0.29617992,-2.3988912,-1.6218197,11.602335,0.9940839,-11.890408
0.9547138,2.6847625,-1.3209643,-2.2135353,-1.8178284,10.535234,0.39365864,-10.631794
0.95737773,2.6844387,-1.3209643,-2.2135353,-1.8178284,10.550356,0.4014578,-10.651818
0.9599397,2.6834576,-2.3169866,-2.0345707,-1.9818791,9.722075,-0.3270259,-9.068665
0.9625179,2.6824741,-2.3169866,-2.0345707,-1.9818791,9.736601,-0.32278442,-9.089767
0.96499634,2.6808333,-3.2682676,-1.866259,-2.1118414,9.487156,-1.2080021,-7.186865
0.9674819,2.6791918,-3.2682676,-1.866259,-2.1118414,9.501053,-1.2072592,-7.2089725
0.9698577,2.6769118,-4.1652203,-1.7000778,-2.203454,8.930108,-2.2251534,-5.412294
0.97225034,2.6746194,-4.1652203,-1.7000778,-2.203454,8.9434,-2.2277992,-5.4353766
0.9745222,2.6717098,-4.998257,-1.5338964,-2.255652,8.635155,-3.272908,-3.419279
0.9769558,2.6685998,-4.998257,-1.5338964,-2.255652,8.648569,-3.279184,-3.4447393
0.9769558,2.6685998,-5.7641826,-1.3677152,-2.2737615,8.648569,-3.279184,-3.4447393
0.98141927,2.6613817,-5.7641826,-1.3677152,-2.2737615,8.103248,-4.3463182,-1.594307
0.9833276,2.6576316,-6.4576697,-1.205795,-2.2620437,7.5246964,-5.544747,0.3072939
0.9833276,2.6576316,-6.4576697,-1.205795,-2.2620437,7.5246964,-5.544747,0.3072939
0.9833276,2.6576316,-6.4576697,-1.205795,-2.2620437,7.5246964,-5.544747,0.3072939
0.98989135,2.6440964,-7.60709,-0.91497785,-2.1672351,7.61299,-7.8155403,4.3431883
0.99147147,2.639668,-7.60709,-0.91497785,-2.1672351,7.621516,-7.830272,4.3203297
0.993331,2.6344738,-7.60709,-0.91497785,-2.1672351,7.631516,-7.847326,4.2934084
0.9950672,2.6286972,-8.057696,-0.7669061,-2.0873404,7.5929475,-9.150671,6.2529697
0.9950672,2.6286972,-8.057696,-0.7669061,-2.0873404,7.5929475,-9.150671,6.2529697
0.9950672,2.6286972,-8.057696,-0.7669061,-2.0873404,7.5929475,-9.150671,6.2529697
1.001231,2.6083622,-8.057696,-0.7669061,-2.0873404,7.6258116,-9.219134,6.1546507
1.002307,2.6032872,-8.720291,-0.4462615,-1.8710916,7.588423,-11.335038,9.925658
1.0033886,2.5982072,-8.720291,-0.4462615,-1.8710916,7.594147,-11.353468,9.904126
1.0033886,2.5982072,-8.720291,-0.4462615,-1.8710916,7.594147,-11.353468,9.904126
1.0056678,2.5852356,-8.934409,-0.28114548,-1.7432599,7.7163134,-12.36443,11.590395
1.0065769,2.5788274,-9.073959,-0.11283371,-1.6079713,7.869541,-13.255717,13.261181
1.0077553,2.5705938,-9.073959,-0.11283371,-1.6079713,7.8757343,-13.286968,13.229656
1.008439,2.5644124,-9.13894,0.06400019,-1.4684216,7.9319954,-14.091636,14.720393
1.0093404,2.5563483,-9.13894,0.06400019,-1.4684216,7.9367228,-14.122848,14.690914
1.0098304,2.5502427,-9.131483,0.24616042,-1.3256762,8.102096,-14.827136,16.120659
1.0103966,2.5432835,-9.131483,0.24616042,-1.3256762,8.105059,-14.854655,16.096342
1.0107464,2.5362668,-9.059046,0.4325817,-1.1818655,8.202654,-15.31899,17.418713
1.0111103,2.5291486,-9.059046,0.4325817,-1.1818655,8.204559,-15.347768,17.394945
1.0112422,2.522183,-8.924822,0.62432927,-1.0380548,7.9849834,-15.726386,18.507875
1.0113832,2.5151956,-8.924822,0.62432927,-1.0380548,7.985716,-15.755339,18.485634
1.0112828,2.50839,-8.73627,0.8277948,-0.8931788,7.5829697,-16.205935,19.763033
1.011191,2.5015917,-8.73627,0.8277948,-0.8931788,7.582487,-16.23494,19.742538
1.010859,2.49505,-8.492325,1.0323256,-0.75149864,7.092331,-16.766733,21.098534
1.0105354,2.4885168,-8.492325,1.0323256,-0.75149864,7.090641,-16.795555,21.08001
1.0099803,2.4822762,-8.196181,1.2251384,-0.6108837,6.8866253,-17.245626,22.222555
1.0094343,2.4760516,-8.196181,1.2251384,-0.6108837,6.88377,-17.274124,22.206093
1.0086664,2.4701772,-7.842513,1.4062334,-0.47346464,7.114376,-18.121067,23.30772
1.0079066,2.464312,-7.842513,1.4062334,-0.47346464,7.110388,-18.149057,23.293444
1.0069314,2.4588723,-7.4323864,1.5841326,-0.34030658,7.086113,-18.454113,24.071863
1.0059634,2.4534364,-7.4323864,1.5841326,-0.34030658,7.0810165,-18.481358,24.059992
1.0047874,2.4484856,-6.971127,1.7567054,-0.21140957,7.352545,-18.627409,24.639866
1.003655,2.443697,-6.971127,1.7567054,-0.21140957,7.3465652,-18.652853,24.630875
1.0022832,2.43927,-6.466192,1.9228866,-0.08996943,7.387188,-18.912733,25.218246
1.0008734,2.4347048,-6.466192,1.9228866,-0.08996943,7.379713,-18.93875,25.211468
0.9993193,2.4308605,-5.923972,2.0837417,0.022948608,6.772894,-19.738358,25.538343
0.9977782,2.427038,-5.923972,2.0837417,0.022948608,6.7646847,-19.762106,25.534668
0.99606836,2.4237998,-5.3412724,2.217965,0.123083465,5.9032173,-20.133984,25.696768
0.99435425,2.420546,-5.3412724,2.217965,0.123083465,5.8940372,-20.15642,25.695938
0.9925244,2.4179182,-4.7180924,2.3085124,0.21469621,5.4340916,-20.77074,25.913406
0.9906983,2.4152894,-4.7180924,2.3085124,0.21469621,5.4242573,-20.791307,25.915277
0.9887842,2.4132752,-4.058694,2.3575146,0.29778683,5.2032337,-21.33663,25.756987
0.9868723,2.4112577,-4.058694,2.3575146,0.29778683,5.192873,-21.355244,25.761415
0.98489803,2.4098616,-3.366272,2.3756242,0.37555113,5.0337124,-21.659012,25.53856
0.9829251,2.4084606,-3.366272,2.3756242,0.37555113,5.022955,-21.675491,25.545485
0.98090625,2.407684,-2.6514797,2.3724282,0.45118493,4.561817,-21.962645,24.942003
0.9788883,2.4069016,-2.6514797,2.3724282,0.45118493,4.5507584,-21.976881,24.951355
0.9768403,2.4067423,-1.9196429,2.3500576,0.52575344,4.151638,-22.070135,24.034216
0.9747884,2.4065754,-1.9196429,2.3500576,0.52575344,4.140316,-22.082031,24.04601
0.97271836,2.4070065,-1.1856757,2.3053167,0.604583,4.5598164,-22.201689,23.193413
0.9706501,2.4074287,-1.1856757,2.3053167,0.604583,4.5483456,-22.211212,23.207447
0.9685724,2.4084387,-0.45064324,2.2435312,0.68128204,4.0914593,-22.237482,21.815948
0.9664954,2.4094377,-0.45064324,2.2435312,0.68128204,4.0798645,-22.244593,21.832186
0.9644335,2.4110138,0.28332394,2.1647017,0.74945897,3.871994,-22.340147,20.39962
0.9623678,2.4125812,0.28332394,2.1647017,0.74945897,3.8603935,-22.344711,20.41792
0.9603355,2.4147022,1.0055733,2.0645669,0.81230956,2.9678783,-22.054613,18.637676
0.9583012,2.416812,1.0055733,2.0645669,0.81230956,2.9563904,-22.056576,18.65784
0.9563209,2.4194355,1.7097131,1.9346045,0.87302965,3.3042984,-21.54363,16.879189
0.9543425,2.4220424,1.7097131,1.9346045,0.87302965,3.2930584,-21.542994,16.9009
0.95243907,2.4251204,2.3818948,1.774815,0.9284234,3.3205204,-21.204647,15.3724985
0.95054376,2.4281716,2.3818948,1.774815,0.9284234,3.3096962,-21.20144,15.395394
0.94873893,2.4316535,3.0178578,1.6065031,0.9795561,2.681654,-20.846218,13.618907
0.94693315,2.435125,3.0178578,1.6065031,0.9795561,2.6712914,-20.840467,13.642833
0.945249,2.4389627,3.6101449,1.4094292,1.023232,2.5131578,-20.233799,11.804688
0.94356596,2.442787,3.6101449,1.4094292,1.023232,2.5034494,-20.225586,11.829166
0.9420327,2.4469178,4.1523643,1.179332,1.0594509,2.80583,-19.257425,10.077367
0.94050086,2.451036,4.1523643,1.179332,1.0594509,2.796955,-19.246841,10.101971
0.9391397,2.4553852,4.634929,0.93538654,1.0914088,2.8417263,-18.420185,8.809551
0.93777776,2.4597316,4.634929,0.93538654,1.0914088,2.833807,-18.407429,8.833908
0.9365939,2.4642458,5.052513,0.68291885,1.1223016,3.1716738,-17.19577,7.679788
0.935412,2.4687543,5.052513,0.68291885,1.1223016,3.1647778,-17.181086,7.703544
0.9344223,2.47337,5.402985,0.42405957,1.1489332,2.043293,-16.54233,6.5963755
0.9334674,2.4778292,5.402985,0.42405957,1.1489332,2.0377069,-16.526482,6.618437
0.9326866,2.4824824,5.6874104,0.15028661,1.1670426,2.4736652,-15.752192,6.1468506
0.9318845,2.487281,5.6874104,0.15028661,1.1670426,2.4689631,-15.733772,6.1690493
0.9313323,2.4918993,5.9121814,-0.14053059,1.1830215,3.0355396,-15.006187,5.566472
0.93078715,2.4964924,5.9121814,-0.14053059,1.1830215,3.0323386,-14.987262,5.5861816
0.930461,2.5010438,6.0783625,-0.41962987,1.1915437,3.5523562,-14.234765,5.1206465
0.9301386,2.5056171,6.0783625,-0.41962987,1.1915437,3.5504599,-14.214683,5.138712
0.93002844,2.5100775,6.1891503,-0.6752933,1.1915437,3.9376721,-13.46622,4.8963747
0.9299238,2.514537,6.1891503,-0.6752933,1.1915437,3.9370596,-13.445494,4.912484
0.9300175,2.5188804,6.2456093,-0.90858626,1.1851522,4.2201242,-12.907191,4.658678
0.9301175,2.5232239,6.2456093,-0.90858626,1.1851522,4.2207127,-12.885946,4.6728945
0.9304065,2.5274322,6.252001,-1.1205739,1.1670426,4.342123,-12.610647,4.479439
0.930702,2.5316367,6.252001,-1.1205739,1.1670426,4.3438597,-12.58908,4.491729
0.9311782,2.535688,6.212586,-1.3187131,1.1393458,5.2708206,-12.581759,4.497451
0.931661,2.5397363,6.212586,-1.3187131,1.1393458,5.273652,-12.560032,4.5078087
0.9323181,2.5436218,6.1358867,-1.4966122,1.0978005,5.478625,-12.653206,4.2386694
0.93298227,2.547508,6.1358867,-1.4966122,1.0978005,5.4825163,-12.631406,4.2471104
0.93381643,2.5512369,6.0304255,-1.6595978,1.0413414,5.8465295,-12.38934,3.7175226
0.93465626,2.5549622,6.0304255,-1.6595978,1.0413414,5.851444,-12.367528,3.7240963
0.9356726,2.5585384,5.8993983,-1.8193873,0.96570766,6.3362193,-11.857249,2.9388313
0.93669504,2.5621145,5.8993983,-1.8193873,0.96570766,6.3421817,-11.835363,2.943511
0.93788946,2.5655398,5.7396083,-1.9685243,0.8762254,6.971634,-11.119157,2.0606213
0.9390874,2.5689585,5.7396083,-1.9685243,0.8762254,6.9786005,-11.0973,2.0634384
0.9404577,2.5722234,5.5435996,-2.1070087,0.769699,7.0871086,-10.342844,1.1164198
0.94183326,2.5754879,5.5435996,-2.1070087,0.769699,7.0950823,-10.321014,1.1173677
0.9433766,2.5785837,5.310307,-2.23271,0.6461283,7.5110216,-9.686398,0.45576668
0.94492185,2.581673,5.310307,-2.23271,0.6461283,7.519943,-9.66475,0.45483494
0.9466263,2.58457,5.037599,-2.3434975,0.511905,8.252804,-8.982598,0.17440891
0.9483353,2.587466,5.037599,-2.3434975,0.511905,8.26262,-8.961265,0.17158222
0.95017797,2.5901752,4.7276073,-2.422327,0.3712901,8.024176,-8.150228,-0.4696722
0.95202434,2.5928829,4.7276073,-2.422327,0.3712901,8.034729,-8.129305,-0.47419167
0.95401675,2.5954287,4.379266,-2.4734597,0.2296099,8.146645,-7.2514725,-0.79631805
0.95593655,2.597876,4.379266,-2.4734597,0.2296099,8.157553,-7.2315826,-0.8022957
0.95797944,2.6001296,3.9915094,-2.4968956,0.08686448,8.734171,-6.6902237,-0.7427311
0.96002537,2.6023822,3.9915094,-2.4968956,0.08686448,8.745729,-6.6708293,-0.7503166
0.96214163,2.6043804,3.5696647,-2.4915693,-0.053750433,8.982706,-6.614103,-0.31867218
0.9642643,2.6063814,3.5696647,-2.4915693,-0.053750433,8.99463,-6.5956783,-0.32767105
0.96642053,2.6081376,3.1275802,-2.4510891,-0.18797375,8.752927,-6.3724284,-0.14134979
0.96858084,2.6098948,3.1275802,-2.4510891,-0.18797375,8.764986,-6.355089,-0.15144825
0.97074956,2.611402,2.6737773,-2.393565,-0.32006654,8.757895,-5.9415073,-0.13365173
0.97284955,2.6128597,2.6737773,-2.393565,-0.32006654,8.769551,-5.925907,-0.14429283
0.9751582,2.61418,2.2135832,-2.3307142,-0.44789827,8.997797,-5.785633,0.2836876
0.97747666,2.615505,2.2135832,-2.3307142,-0.44789827,9.010572,-5.7698207,0.27102184
0.979475,2.6164088,1.7491279,-2.25295,-0.5682732,9.299276,-5.7094545,0.69035625
0.9816636,2.6173983,1.7491279,-2.25295,-0.5682732,9.31126,-5.6958027,0.67758465
0.98383635,2.6181407,1.2899989,-2.160272,-0.6790607,8.987934,-5.884509,1.3297968
0.98600936,2.6188827,1.2899989,-2.160272,-0.6790607,8.999762,-5.8721113,1.3163824
0.9881445,2.6193643,0.839392,-2.0569413,-0.78132606,9.54285,-5.7892737,1.7909079
0.99027973,2.6198456,0.839392,-2.0569413,-0.78132606,9.554391,-5.7782655,1.776988
0.9923824,2.6200998,0.3994378,-1.9408275,-0.8665472,8.694235,-6.1275806,2.2367125
0.9944813,2.6203537,0.3994378,-1.9408275,-0.8665472,8.705503,-6.1177793,2.2223835
0.9965263,2.6203322,-0.021341678,-1.8225832,-0.93898517,9.324582,-6.4398713,3.1797352
0.9985736,2.6203108,-0.021341678,-1.8225832,-0.93898517,9.335506,-6.431544,3.164999
1.0005593,2.6200354,-0.41868532,-1.7000778,-0.99757475,9.379588,-6.7550254,4.1268463
1.0025414,2.61976,-0.41868532,-1.7000778,-0.99757475,9.3901005,-6.7481046,4.1118765
1.0044446,2.619259,-0.78939736,-1.5637239,-1.0423158,9.012304,-7.2692494,5.0593376
1.0063477,2.6187577,-0.78939736,-1.5637239,-1.0423158,9.022339,-7.263647,5.0443172
1.0081518,2.6180546,-1.1260209,-1.4252396,-1.0742738,8.811554,-7.608903,5.934476
1.0099559,2.617351,-1.1260209,-1.4252396,-1.0742738,8.821013,-7.6045794,5.919627
1.0116614,2.6164687,-1.4253602,-1.2910162,-1.0945138,8.466007,-7.912696,6.7717066
1.0133636,2.6155875,-1.4253602,-1.2910162,-1.0945138,8.474878,-7.9095426,6.7571125
1.0149645,2.6145456,-1.6874152,-1.1621192,-1.1030359,8.286879,-8.09425,7.5520725
1.0165645,2.613505,-1.6874152,-1.1621192,-1.1030359,8.295175,-8.092177,7.537792
1.0180553,2.6123202,-1.9153819,-1.0396138,-1.0987749,8.436962,-8.167788,8.261341
1.0195482,2.611134,-1.9153819,-1.0396138,-1.0987749,8.444664,-8.166746,8.247452
1.02093,2.6098256,-2.10926,-0.9192389,-1.0838611,8.590641,-8.358222,8.8565445
1.0223126,2.6085167,-2.10926,-0.9192389,-1.0838611,8.597742,-8.358125,8.84313
1.0235738,2.6071105,-2.2733107,-0.79140717,-1.05936,8.508438,-8.665397,9.543812
1.0248356,2.6057034,-2.2733107,-0.79140717,-1.05936,8.514894,-8.666177,9.531024
1.0259788,2.60421,-2.4075341,-0.6571838,-1.0263369,8.319614,-8.945543,10.141352
1.0271076,2.6027346,-2.4075341,-0.6571838,-1.0263369,8.325365,-8.947124,10.129336
1.0281055,2.6012177,-2.5097995,-0.5240258,-0.9901179,8.229885,-9.361225,10.601792
1.0291754,2.5995927,-2.5097995,-0.5240258,-0.9901179,8.235317,-9.363653,10.58981
1.0291754,2.5995927,-2.580107,-0.39406353,-0.94644207,8.246959,-9.669853,11.090899
1.0308914,2.596543,-2.580107,-0.39406353,-0.94644207,8.248797,-9.671057,11.086578
1.0308914,2.596543,-2.580107,-0.39406353,-0.94644207,8.248797,-9.671057,11.086578
1.0325894,2.592915,-2.6301744,-0.13200846,-0.8484377,8.515948,-9.9904995,11.524492
1.0329944,2.591892,-2.6301744,-0.13200846,-0.8484377,8.517989,-9.9931135,11.518877
1.0335947,2.5903769,-2.6301744,-0.13200846,-0.8484377,8.521014,-9.9969635,11.510561
1.0335947,2.5903769,-2.6301744,-0.13200846,-0.8484377,8.521014,-9.9969635,11.510561
1.0345199,2.5874104,-2.6205869,0.0064759105,-0.7951745,8.578344,-10.134848,11.764219
1.0348105,2.5860894,-2.59289,0.15135187,-0.7397807,8.493613,-10.239752,11.768208
1.035351,2.5836463,-2.59289,0.15135187,-0.7397807,8.496326,-10.247755,11.757835
1.0353978,2.5832558,-2.5492141,0.29622784,-0.68225646,8.295448,-10.474267,11.823501
1.0355384,2.582077,-2.5492141,0.29622784,-0.68225646,8.296154,-10.478649,11.819355
1.0355474,2.5809252,-2.49169,0.43364695,-0.6268627,8.056781,-10.7277155,11.71567
1.0355573,2.579772,-2.49169,0.43364695,-0.6268627,8.056831,-10.73257,11.712515
1.0355573,2.579772,-2.49169,0.43364695,-0.6268627,8.056831,-10.73257,11.712515
1.0352224,2.5771418,-2.3361614,0.66480935,-0.5224668,7.3273106,-11.123535,11.482806
1.0350978,2.5766335,-2.3361614,0.66480935,-0.5224668,7.326686,-11.126255,11.482328
1.034866,2.5756855,-2.3361614,0.66480935,-0.5224668,7.3255205,-11.131325,11.481438
1.0345424,2.5748394,-2.2413528,0.7468347,-0.48092148,7.2903748,-11.471571,11.538921
1.0342171,2.5739872,-2.2413528,0.7468347,-0.48092148,7.288741,-11.476663,11.538945
1.0338231,2.573248,-2.1348264,0.8075548,-0.446833,7.1431036,-11.644399,11.50623
1.0334302,2.5725088,-2.1348264,0.8075548,-0.446833,7.1411266,-11.649324,11.507027
1.0329877,2.5718865,-2.0219083,0.8512306,-0.42126667,6.8084984,-11.706651,11.273858
1.032546,2.5712633,-2.0219083,0.8512306,-0.42126667,6.8062716,-11.711309,11.275301
1.0320743,2.5707474,-1.9068598,0.8736012,-0.40209192,7.0481005,-11.72523,11.229364
1.0316029,2.5702298,-1.9068598,0.8736012,-0.40209192,7.0457144,-11.729583,11.231297
1.0311153,2.5698183,-1.790746,0.8842538,-0.3871782,7.2922506,-11.78623,11.152239
1.0306278,2.5694056,-1.790746,0.8842538,-0.3871782,7.2897825,-11.790215,11.154558
1.0301232,2.5690937,-1.682089,0.8959717,-0.3754603,7.507498,-11.731596,11.056731
1.0296192,2.568781,-1.682089,0.8959717,-0.3754603,7.504943,-11.735233,11.0594425
1.0290998,2.5685706,-1.5819541,0.9098202,-0.3690687,7.5454025,-11.676252,10.9284725
1.0285808,2.5683596,-1.5819541,0.9098202,-0.3690687,7.5427694,-11.679528,10.931568
1.0280476,2.568248,-1.4946024,0.92579913,-0.36800346,7.5496397,-11.735112,10.80575
1.0275146,2.5681353,-1.4946024,0.92579913,-0.36800346,7.5469294,-11.7380295,10.809211
1.026975,2.5681205,-1.4221644,0.9407128,-0.37759084,7.448412,-11.7166195,10.774679
1.0264347,2.5681036,-1.4221644,0.9407128,-0.37759084,7.4456615,-11.719158,10.778457
1.0258912,2.5681825,-1.3593138,0.95562655,-0.39250454,7.0981255,-11.716512,10.729839
1.0253477,2.5682597,-1.3593138,0.95562655,-0.39250454,7.095352,-11.718659,10.733896
1.0247816,2.5684404,-1.3081812,0.96201813,-0.41913614,6.771637,-11.62949,10.556438
1.0242742,2.5686004,-1.3081812,0.96201813,-0.41913614,6.769043,-11.631116,10.560465
1.0237784,2.5688462,-1.2666358,0.94923496,-0.45748568,6.713835,-11.421625,10.459303
1.0232773,2.5690935,-1.2666358,0.94923496,-0.45748568,6.7112694,-11.422848,10.4635315
1.0228212,2.5694091,-1.2368084,0.9236686,-0.503292,6.675413,-11.318216,10.37665
1.0223651,2.5697231,-1.2368084,0.9236686,-0.503292,6.673074,-11.318936,10.380738
1.0219669,2.570093,-1.227221,0.8906454,-0.55975103,6.5561123,-11.223379,10.365425
1.0215695,2.5704608,-1.227221,0.8906454,-0.55975103,6.5540686,-11.223596,10.369251
1.021241,2.5708842,-1.2325474,0.8512306,-0.6289932,6.6146297,-11.180159,10.233883
1.0209124,2.5713058,-1.2325474,0.8512306,-0.6289932,6.6129417,-11.179825,10.237371
1.0206628,2.5717666,-1.2538526,0.80435896,-0.7035617,6.6403875,-11.083191,10.087187
1.0204128,2.572226,-1.2538526,0.80435896,-0.7035617,6.639102,-11.082329,10.090229
1.0202483,2.5727198,-1.2911369,0.75535685,-0.78558713,6.5999475,-10.970799,9.714478
1.0200832,2.5732126,-1.2911369,0.75535685,-0.78558713,6.5990953,-10.969407,9.717007
1.0200077,2.5737307,-1.3422697,0.70315886,-0.87187356,6.536459,-10.766385,9.465193
1.0199325,2.574245,-1.3422697,0.70315886,-0.87187356,6.5360713,-10.76449,9.467147
1.0199544,2.5747707,-1.4093813,0.64669985,-0.96455157,6.4930882,-10.417345,8.999184
1.0199757,2.575299,-1.4093813,0.64669985,-0.96455157,6.4931984,-10.414953,9.000492
1.0200998,2.575826,-1.4924719,0.58597976,-1.0604254,6.398069,-10.0386095,8.498288
1.0202233,2.5763545,-1.4924719,0.58597976,-1.0604254,6.398706,-10.035755,8.498873
1.0204551,2.5768604,-1.5926068,0.5188681,-1.1541686,6.232304,-9.735634,7.981476
1.0206848,2.5773642,-1.5926068,0.5188681,-1.1541686,6.2334857,-9.732415,7.9812384
1.0210278,2.5778222,-1.7108511,0.4442996,-1.2468467,6.168213,-9.475101,7.4246106
1.0213706,2.578282,-1.7108511,0.4442996,-1.2468467,6.169973,-9.471567,7.4234414
1.0218257,2.5786626,-1.8461397,0.36440477,-1.3320677,6.2249837,-9.18057,6.9472017
1.0222806,2.5790458,-1.8461397,0.36440477,-1.3320677,6.227319,-9.176869,6.9450216
1.0228509,2.5793247,-1.9974072,0.27918363,-1.4098321,6.3451643,-9.125218,6.391061
1.0234149,2.5796041,-1.9974072,0.27918363,-1.4098321,6.348055,-9.121484,6.3878202
1.0240895,2.579744,-2.1635885,0.19076666,-1.4748132,6.5574093,-8.993359,5.8758316
1.0247631,2.5798879,-2.1635885,0.19076666,-1.4748132,6.560854,-8.989721,5.8714333
1.0255454,2.579867,-2.3404224,0.10021918,-1.5312722,6.8425746,-9.101229,5.4300604
1.0263463,2.5798497,-2.3404224,0.10021918,-1.5312722,6.8466587,-9.0977125,5.424309
1.0272188,2.579648,-2.5289743,0.009671704,-1.5802743,7.080946,-8.984534,4.9818
1.0280793,2.5794532,-2.5289743,0.009671704,-1.5802743,7.085322,-8.981509,4.9751387
1.0290513,2.5790622,-2.7207217,-0.07981051,-1.6239502,7.320099,-9.065012,4.4356356
1.0300246,2.5786753,-2.7207217,-0.07981051,-1.6239502,7.325035,-9.062292,4.4276476
1.0310928,2.5780869,-2.9103389,-0.16609693,-1.6612345,7.512405,-9.189283,3.9491758
1.0321571,2.5775063,-2.9103389,-0.16609693,-1.6612345,7.51778,-9.186961,3.940013
1.0333123,2.576728,-3.0946295,-0.2502528,-1.6985188,7.657679,-9.376591,3.6279898
1.0344714,2.5759532,-3.0946295,-0.2502528,-1.6985188,7.663511,-9.374636,3.6176262
1.035711,2.5749898,-3.2703984,-0.33014765,-1.7326072,7.937892,-9.420977,3.3093004
1.0369112,2.5740628,-3.2703984,-0.33014765,-1.7326072,7.9439054,-9.419437,3.2982302
1.0382372,2.5729308,-3.4323184,-0.40152037,-1.7645651,7.711116,-9.446894,2.945735
1.0395964,2.5717764,-3.4323184,-0.40152037,-1.7645651,7.717902,-9.445534,2.9329224
1.0409801,2.5705023,-3.583586,-0.46224046,-1.7933273,7.921116,-9.363127,2.5461159
1.0423614,2.5692365,-3.583586,-0.46224046,-1.7933273,7.9279776,-9.362066,2.5328484
1.0438021,2.5678196,-3.7231357,-0.51550364,-1.8156978,8.212841,-9.43794,2.1165218
1.0452533,2.5663981,-3.7231357,-0.51550364,-1.8156978,8.220015,-9.437129,2.1023426
1.046734,2.5648685,-3.853098,-0.55491847,-1.8370031,8.212948,-9.403069,1.618392
1.0482243,2.563335,-3.853098,-0.55491847,-1.8370031,8.220275,-9.4024515,1.603632
1.0497401,2.5616877,-3.974538,-0.5847459,-1.8540474,8.644306,-9.253695,1.3010864
1.0512602,2.560043,-3.974538,-0.5847459,-1.8540474,8.651739,-9.253302,1.2858219
1.0528018,2.5582902,-4.0895867,-0.6028554,-1.8657652,8.711931,-9.27714,1.0642157
1.0543544,2.5565302,-4.0895867,-0.6028554,-1.8657652,8.719489,-9.2769575,1.0484152
1.0559107,2.5546842,-4.195048,-0.6103122,-1.8742874,8.7845,-9.339303,0.96053505
1.0574696,2.552842,-4.195048,-0.6103122,-1.8742874,8.792042,-9.339315,0.9444752
1.0590414,2.5509021,-4.291987,-0.61563855,-1.8796138,8.761322,-9.57423,1.1579142
1.0606143,2.5489676,-4.291987,-0.61563855,-1.8796138,8.7688875,-9.574428,1.1415148
1.0622106,2.5469213,-4.3740125,-0.6252259,-1.880679,8.805278,-10.015428,1.7615108
1.0638015,2.544888,-4.3740125,-0.6252259,-1.880679,8.812892,-10.015806,1.7447319
1.0653971,2.5427666,-4.4347324,-0.63587856,-1.8721569,8.652909,-10.600628,2.6087484
1.0670118,2.5406263,-4.4347324,-0.63587856,-1.8721569,8.660591,-10.601181,2.5915222
1.0686263,2.5383985,-4.472017,-0.65079224,-1.8551127,8.668249,-11.492649,3.8765087
1.0702488,2.5361662,-4.472017,-0.65079224,-1.8551127,8.675923,-11.493382,3.8589945
1.0718772,2.5338433,-4.477343,-0.66251016,-1.8263505,8.707542,-12.519081,5.25377
1.0735055,2.5315266,-4.477343,-0.66251016,-1.8263505,8.715196,-12.519966,5.2359934
1.0751158,2.5291665,-4.442189,-0.665706,-1.7848052,8.617399,-13.751649,6.649971
1.0767318,2.526802,-4.442189,-0.665706,-1.7848052,8.624954,-13.752623,6.632168
1.0783124,2.5244322,-4.362294,-0.65824914,-1.7294114,8.637107,-14.874209,8.122953
1.0798954,2.5220623,-4.362294,-0.65824914,-1.7294114,8.644461,-14.87522,8.105387
1.0814247,2.5197306,-4.232332,-0.64013964,-1.6601692,8.699429,-15.881847,9.409903
1.0829597,2.5173945,-4.232332,-0.64013964,-1.6601692,8.70652,-15.882828,9.392776
1.084426,2.515152,-4.0491066,-0.6103122,-1.582405,8.713271,-16.822266,10.597433
1.0858951,2.5129094,-4.0491066,-0.6103122,-1.582405,8.720019,-16.8231,10.581034
1.0872837,2.5108132,-3.8147483,-0.56983215,-1.498249,8.616248,-17.527632,11.456251
1.0886728,2.5087194,-3.8147483,-0.56983215,-1.498249,8.622592,-17.528198,11.440835
1.0899765,2.5068128,-3.5324533,-0.52083,-1.4066362,8.470516,-18.06956,12.111268
1.091284,2.5049021,-3.5324533,-0.52083,-1.4066362,8.4764595,-18.06977,12.096934
1.0924761,2.50324,-3.2064824,-0.46437097,-1.3054361,8.376522,-18.443123,12.553337
1.0936732,2.5015745,-3.2064824,-0.46437097,-1.3054361,8.381937,-18.44293,12.540453
1.0947604,2.5001864,-2.8400314,-0.40045512,-1.2021055,8.161789,-18.696056,12.902577
1.0958488,2.4987993,-2.8400314,-0.40045512,-1.2021055,8.166692,-18.695356,12.8912115
1.0968151,2.497729,-2.443753,-0.3290824,-1.095579,7.835845,-18.923979,13.226326
1.0977548,2.49669,-2.443753,-0.3290824,-1.095579,7.840066,-18.922764,13.216948
1.0985998,2.495964,-2.0197778,-0.25238335,-0.98798734,7.590066,-19.102869,13.520324
1.0994724,2.4952164,-2.0197778,-0.25238335,-0.98798734,7.5939684,-19.100933,13.512197
1.1001883,2.4948664,-1.5702362,-0.17142326,-0.87826514,7.199724,-19.313877,13.769615
1.1008992,2.4945202,-1.5702362,-0.17142326,-0.87826514,7.2028923,-19.311348,13.763706
1.1014858,2.4945698,-1.1004546,-0.08833262,-0.76960814,7.033123,-19.442144,14.18111
1.1020728,2.4946208,-1.1004546,-0.08833262,-0.76960814,7.035736,-19.438858,14.177137
1.1025275,2.495089,-0.61256343,-0.006307263,-0.6630817,6.8366413,-19.607174,14.543909
1.102983,2.4955602,-0.61256343,-0.006307263,-0.6630817,6.838667,-19.603096,14.54197
1.1033119,2.4964705,-0.10549757,0.073587574,-0.55975103,6.739565,-19.679535,14.752794
1.1036389,2.4973783,-0.10549757,0.073587574,-0.55975103,6.7410183,-19.674591,14.752904
1.1038443,2.498752,0.41861254,0.15135187,-0.45855093,6.847271,-19.93679,15.12862
1.1040497,2.50013,0.41861254,0.15135187,-0.45855093,6.8481827,-19.930826,15.130827
1.1041286,2.5019615,0.95550585,0.22911619,-0.35522026,6.7240353,-20.268673,15.302705
1.1042069,2.5038009,0.95550585,0.22911619,-0.35522026,6.7243786,-20.261723,15.307003
1.1041644,2.5060978,1.5062475,0.30261943,-0.2529549,6.848688,-20.426155,15.313356
1.1041209,2.508404,1.5062475,0.30261943,-0.2529549,6.8484955,-20.41816,15.319718
1.1039555,2.511203,2.0655115,0.37612268,-0.1506895,7.2164707,-20.337189,15.0073805
1.1037896,2.5139952,2.0655115,0.37612268,-0.1506895,7.2157383,-20.328045,15.015835
1.1034977,2.5172641,2.6258404,0.453887,-0.044163052,7.1569843,-20.164581,14.605026
1.1032038,2.5205371,2.6258404,0.453887,-0.044163052,7.155676,-20.154295,14.615588
1.1027799,2.5242777,3.1776476,0.5369776,0.063428655,6.995783,-20.224346,14.149406
1.102354,2.5280218,3.1776476,0.5369776,0.063428655,6.993889,-20.212929,14.162064
1.1018022,2.532214,3.719867,0.6147419,0.17102037,7.015377,-20.032856,13.515927
1.101249,2.5364053,3.719867,0.6147419,0.17102037,7.0129166,-20.020308,13.530555
1.1005728,2.5410166,4.248238,0.68504936,0.28500366,6.8279448,-19.748177,12.843202
1.0998949,2.545626,4.248238,0.68504936,0.28500366,6.824918,-19.734533,12.859694
1.0990999,2.5506115,4.7563696,0.74896526,0.4011175,6.615466,-19.490122,12.269798
1.0982308,2.5560522,4.7563696,0.74896526,0.4011175,6.611577,-19.474096,12.289646
1.0972927,2.5615852,5.238934,0.80222845,0.5151008,6.40147,-19.261583,11.740337
1.0958741,2.5699294,5.238934,0.80222845,0.5151008,6.395097,-19.236897,11.7711735
1.095537,2.5718255,5.695933,0.8437738,0.6280188,6.374423,-18.977522,11.356887
1.0944519,2.5779228,5.695933,0.8437738,0.6280188,6.3695345,-18.95943,11.379646
1.0944519,2.5779228,5.695933,0.8437738,0.6280188,6.3695345,-18.95943,11.379646
1.0923305,2.5894222,6.124169,0.8736012,0.7409369,6.331211,-18.566013,10.958427
1.0911891,2.595439,6.523643,0.8959717,0.84852856,6.249422,-18.241478,10.626829
1.0900449,2.6014688,6.523643,0.8959717,0.84852856,6.24422,-18.223177,10.649546
1.0888369,2.607727,6.889029,0.9055591,0.9486634,6.166891,-18.002953,10.357146
1.0888369,2.607727,6.889029,0.9055591,0.9486634,6.166891,-18.002953,10.357146
1.0859727,2.6224318,7.221391,0.90449387,1.0413414,6.149004,-17.660471,10.177882
1.0850575,2.6271296,7.221391,0.90449387,1.0413414,6.144805,-17.64566,10.195463
1.0838234,2.6334713,7.5207305,0.88958013,1.1254973,6.096032,-17.328594,10.02277
1.0825576,2.639978,7.5207305,0.88958013,1.1254973,6.0901966,-17.307663,10.046914
1.0803146,2.6516716,7.783851,0.85868746,1.1968701,5.950534,-17.077818,10.084988
1.0799543,2.6535523,7.783851,0.85868746,1.1968701,5.948862,-17.071589,10.091851
1.0787632,2.6599374,8.012883,0.8096853,1.2554595,5.9768515,-16.825117,10.014251
1.0775183,2.6666276,8.012883,0.8096853,1.2554595,5.971058,-16.802444,10.03816
1.0762913,2.6735342,8.206761,0.74363893,1.2948743,5.8743534,-16.543941,10.038324
1.0749239,2.681254,8.206761,0.74363893,1.2948743,5.86796,-16.516962,10.065077
1.073946,2.687146,8.367616,0.66267884,1.3172449,6.0405483,-16.256506,10.094438
1.0726058,2.6952538,8.367616,0.66267884,1.3172449,6.034253,-16.227274,10.121445
1.0717939,2.7006373,8.494383,0.5646745,1.3183101,6.274642,-15.991929,9.865715
1.0707713,2.70745,8.494383,0.5646745,1.3183101,6.269822,-15.966586,9.8873205
1.0698556,2.7143211,8.590256,0.45921332,1.3002007,5.930312,-15.729713,9.644693
1.0689487,2.7211716,8.590256,0.45921332,1.3002007,5.9260225,-15.7034,9.665148
1.0681629,2.7280617,8.649911,0.34736055,1.2682427,5.5296497,-15.39858,9.282336
1.0673835,2.734945,8.649911,0.34736055,1.2682427,5.5259523,-15.371313,9.301514
1.0667381,2.7418368,8.672281,0.2259204,1.2277627,5.293044,-14.878908,8.682619
1.0661011,2.74871,8.672281,0.2259204,1.2277627,5.2900147,-14.850876,8.700298
1.0656096,2.7555752,8.658433,0.09595813,1.17663,5.139235,-14.25243,7.7685156
1.0651273,2.7624164,8.658433,0.09595813,1.17663,5.1369348,-14.223746,7.78454
1.0647951,2.7692678,8.6019745,-0.0382652,1.1159099,4.9342403,-13.476146,6.769678
1.0644714,2.7760897,8.6019745,-0.0382652,1.1159099,4.9326963,-13.446795,6.784012
1.0643021,2.7828443,8.497579,-0.17248851,1.0487983,5.0516,-12.617499,5.7194057
1.0641396,2.7895977,8.497579,-0.17248851,1.0487983,5.050824,-12.587758,5.7319326
1.0641336,2.796254,8.343115,-0.30884236,0.975295,5.32373,-11.547552,4.497854
1.0641333,2.8029099,8.343115,-0.30884236,0.975295,5.3237333,-11.517611,4.5085173
1.0642818,2.8094454,8.135388,-0.43773937,0.89326966,5.659626,-10.290628,3.2342873
1.0644312,2.8157728,8.135388,-0.43773937,0.89326966,5.6603394,-10.261632,3.2428312
1.0647261,2.8221686,7.870137,-0.5623753,0.79846114,6.336913,-9.1209755,2.0529976
1.0650351,2.8287458,7.870137,-0.5623753,0.79846114,6.3383837,-9.090339,2.0602188
1.0654597,2.834979,7.542036,-0.6763586,0.69086945,7.106557,-7.7728534,0.86869335
1.0658855,2.84116,7.542036,-0.6763586,0.69086945,7.1085777,-7.743671,0.8739872
1.0664152,2.8471653,7.152149,-0.7764935,0.5694293,7.7719026,-6.2641306,-0.26642704
1.0669512,2.8531933,7.152149,-0.7764935,0.5694293,7.7744436,-6.235361,-0.26261806
1.0675719,2.8589256,6.700477,-0.86064935,0.43414068,8.280175,-4.8430443,-1.3231125
1.0681939,2.8646457,6.700477,-0.86064935,0.43414068,8.283125,-4.81549,-1.320776
1.068908,2.8700635,6.1870193,-0.93308735,0.28180787,9.01914,-3.5968049,-2.1242056
1.0696223,2.8754709,6.1870193,-0.93308735,0.28180787,9.02252,-3.5705059,-2.123353
1.070429,2.880533,5.6149726,-0.9948727,0.11136556,9.744583,-2.405963,-2.832529
1.0712359,2.885596,5.6149726,-0.9948727,0.11136556,9.748395,-2.3810918,-2.8331575
1.0721381,2.8903637,4.9875317,-1.0396138,-0.072925195,10.159655,-1.3901423,-3.309122
1.0730257,2.8950577,4.9875317,-1.0396138,-0.072925195,10.163827,-1.3668598,-3.311121
1.0739949,2.8994286,4.3132195,-1.0694412,-0.26999912,10.498774,-0.58835745,-3.6446896
1.0749605,2.903794,4.3132195,-1.0694412,-0.26999912,10.503302,-0.5665021,-3.6479435
1.0759954,2.9078224,3.598427,-1.0854201,-0.47772568,10.852904,-0.043306112,-3.7480211
1.0770271,2.9118512,3.598427,-1.0854201,-0.47772568,10.857728,-0.022949934,-3.7523994
1.0781083,2.9155185,2.8484807,-1.0854201,-0.69184387,10.987257,0.36930633,-3.9061089
1.0791862,2.9191916,2.8484807,-1.0854201,-0.69184387,10.992268,0.38803577,-3.9114246
1.0802923,2.92249,2.0740335,-1.0673107,-0.9080925,11.160214,0.7594125,-3.9653234
1.0813937,2.9257884,2.0740335,-1.0673107,-0.9080925,11.165313,0.7763903,-3.971366
1.0825137,2.9287236,1.2836072,-1.0353527,-1.123276,11.079508,1.1364768,-4.1599474
1.0836269,2.9316573,1.2836072,-1.0353527,-1.123276,11.084637,1.1517351,-4.1665697
1.0847402,2.9342022,0.48146313,-0.9906116,-1.3352636,11.10413,1.6153059,-4.3795166
1.0858498,2.9367552,0.48146313,-0.9906116,-1.3352636,11.1092205,1.6287582,-4.386574
1.0869524,2.9389007,-0.33026838,-0.9405442,-1.5387291,11.5548115,1.8893254,-4.3700438
1.0880501,2.941053,-0.33026838,-0.9405442,-1.5387291,11.559834,1.900883,-4.3774443
1.0891211,2.9427893,-1.1473262,-0.8755631,-1.7326072,11.344447,1.7907912,-4.116872
1.0901887,2.9445367,-1.1473262,-0.8755631,-1.7326072,11.349309,1.8004246,-4.1244383
1.0912097,2.9458501,-1.9622536,-0.79779875,-1.9137021,10.530342,1.6691533,-3.887804
1.0922253,2.94717,-1.9622536,-0.79779875,-1.9137021,10.534948,1.6767461,-3.8953438
1.0932059,2.9480488,-2.7633324,-0.7274913,-2.0798833,9.869013,1.3710558,-3.232607
1.0941819,2.9489355,-2.7633324,-0.7274913,-2.0798833,9.873423,1.3766254,-3.2402115
1.095128,2.9493647,-3.5409753,-0.6710323,-2.2247593,9.623905,0.8102864,-2.38126
1.09607,2.9498024,-3.5409753,-0.6710323,-2.2247593,9.628147,0.8137938,-2.388977
1.0969889,2.949794,-4.2823997,-0.6188343,-2.34833,9.335395,0.029992282,-1.4008904
1.0979042,2.9497952,-4.2823997,-0.6188343,-2.34833,9.339498,0.031526268,-1.4087582
1.0987908,2.9493628,-4.981213,-0.5666364,-2.4463344,8.936459,-0.81644046,-0.35851765
1.0996466,2.948954,-4.981213,-0.5666364,-2.4463344,8.940285,-0.816797,-0.36623096
1.1005129,2.9481142,-5.633155,-0.51656896,-2.5166419,8.652059,-1.6617793,0.6407385
1.1014075,2.947257,-5.633155,-0.51656896,-2.5166419,8.656044,-1.6640124,0.63229847
1.1023237,2.9459553,-6.233964,-0.46756676,-2.5581872,8.468581,-2.5731428,1.7054663
1.1031566,2.9447846,-6.233964,-0.46756676,-2.5581872,8.472275,-2.5768142,1.6972799
1.1040444,2.943085,-6.7836404,-0.41643408,-2.569905,8.461845,-3.6696358,3.124671
1.1049521,2.9413643,-6.7836404,-0.41643408,-2.569905,8.465864,-3.6755164,3.115344
1.105814,2.9391456,-7.276858,-0.35464874,-2.5592525,8.560648,-4.751415,4.283905
1.1066929,2.9369047,-7.276858,-0.35464874,-2.5592525,8.564523,-4.759527,4.2743397
1.1075156,2.9341693,-7.7050943,-0.28114548,-2.5304904,8.4675865,-5.890316,5.5097713
1.1083422,2.9314475,-7.7050943,-0.28114548,-2.5304904,8.471221,-5.900505,5.5001745
1.1090927,2.9282763,-8.07048,-0.20018539,-2.4793575,8.297343,-7.0332036,6.7549276
1.1098514,2.9251094,-8.07048,-0.20018539,-2.4793575,8.300663,-7.045331,6.7454367
1.1105239,2.9215407,-8.370885,-0.11816003,-2.4133112,8.452047,-8.060061,7.986042
1.1112058,2.9179716,-8.370885,-0.11816003,-2.4133112,8.455025,-8.073945,7.9767447
1.1117973,2.9140284,-8.610569,-0.034004137,-2.331286,8.649141,-9.023283,9.155337
1.1123971,2.9100952,-8.610569,-0.034004137,-2.331286,8.651755,-9.038767,9.146286
1.1128976,2.9058273,-8.790599,0.057608604,-2.238608,8.711393,-9.7980175,10.358733
1.1134064,2.9015646,-8.790599,0.057608604,-2.238608,8.713608,-9.814967,10.350002
1.1138034,2.8970253,-8.915235,0.15880872,-2.1363425,8.777581,-10.513224,11.347432
1.1142097,2.8924823,-8.915235,0.15880872,-2.1363425,8.7793455,-10.531467,11.339138
1.1144936,2.8876975,-8.985542,0.2674657,-2.0244896,8.866767,-11.053722,12.375416
1.1147871,2.8829129,-8.985542,0.2674657,-2.0244896,8.868038,-11.073127,12.367647
1.1149435,2.877934,-9.001521,0.38890585,-1.9062454,8.921388,-11.5102005,13.256173
1.1151098,2.8729599,-9.001521,0.38890585,-1.9062454,8.922109,-11.530601,13.249088
1.1151285,2.867845,-8.9695635,0.5188681,-1.7848052,8.754598,-11.800891,14.076181
1.1151571,2.8627355,-8.9695635,0.5188681,-1.7848052,8.754721,-11.82211,14.069904
1.1150327,2.8575199,-8.891799,0.6520262,-1.6601692,8.802068,-12.093107,14.90265
1.114918,2.8523095,-8.891799,0.6520262,-1.6601692,8.801571,-12.115043,14.8972435
1.1146477,2.8470535,-8.769294,0.7873148,-1.5355333,8.714207,-12.319502,15.764466
1.1143868,2.841803,-8.769294,0.7873148,-1.5355333,8.713076,-12.341943,15.760009
1.113964,2.836537,-8.605243,0.92579913,-1.4066362,8.409571,-12.609075,16.470243
1.1135502,2.8312771,-8.605243,0.92579913,-1.4066362,8.407776,-12.6319475,16.466803
1.1129779,2.826051,-8.400712,1.0600225,-1.2756088,8.022211,-12.990303,17.197247
1.1124141,2.8208265,-8.400712,1.0600225,-1.2756088,8.019758,-13.013455,17.194859
1.111696,2.8156722,-8.155701,1.1867889,-1.1424507,7.796362,-13.419836,17.97903
1.1109846,2.8105142,-8.155701,1.1867889,-1.1424507,7.7932606,-13.443162,17.977703
1.1101272,2.805465,-7.873406,1.3039681,-1.0050316,7.468691,-13.835198,18.69109
1.1092764,2.8004131,-7.873406,1.3039681,-1.0050316,7.4649677,-13.85855,18.690817
1.1082788,2.795463,-7.550631,1.4104944,-0.86228615,7.144554,-14.418251,19.386091
1.1072803,2.790477,-7.550631,1.4104944,-0.86228615,7.1401653,-14.441851,19.38687
1.1061366,2.7855957,-7.1873755,1.5031725,-0.71847546,7.063303,-14.862945,20.04488
1.1050594,2.7809796,-7.1873755,1.5031725,-0.71847546,7.058548,-14.885346,20.046604
1.1038449,2.776463,-6.7889667,1.5809368,-0.57359946,7.378788,-15.161605,20.446924
1.1026202,2.7718952,-6.7889667,1.5809368,-0.57359946,7.373352,-15.184374,20.449688
1.1012788,2.7675533,-6.3543386,1.6555053,-0.4287235,7.2812004,-15.556191,20.726585
1.0999416,2.763216,-6.3543386,1.6555053,-0.4287235,7.275238,-15.578485,20.73039
1.0984915,2.75914,-5.8888183,1.7247474,-0.28597808,7.053276,-15.920947,20.845558
1.0970469,2.7550728,-5.8888183,1.7247474,-0.28597808,7.0468006,-15.942595,20.850456
1.0955019,2.7513008,-5.392405,1.7801412,-0.1506895,6.6711445,-16.308174,20.88049
1.0939604,2.7475338,-5.392405,1.7801412,-0.1506895,6.664194,-16.329025,20.886456
1.0923427,2.7440882,-4.8704257,1.8120992,-0.020727234,6.3216915,-16.79418,20.740261
1.0907272,2.740647,-4.8704257,1.8120992,-0.020727234,6.3143597,-16.814047,20.747183
1.0890603,2.7375443,-4.321814,1.8174255,0.10497397,6.292412,-17.07695,20.30492
1.087395,2.734446,-4.321814,1.8174255,0.10497397,6.284807,-17.095676,20.312672
1.0857027,2.7317085,-3.748702,1.799316,0.22428359,6.2387466,-17.247114,19.804075
1.0840081,2.7289703,-3.748702,1.799316,0.22428359,6.230961,-17.264544,19.812557
1.0822985,2.7266004,-3.1574802,1.7662928,0.34465846,6.0363293,-17.443329,19.11309
1.0805902,2.7242348,-3.1574802,1.7662928,0.34465846,6.028431,-17.459333,19.122229
1.0788804,2.7222443,-2.5566711,1.7172906,0.45864177,6.0348587,-17.502531,18.509546
1.0771718,2.7202578,-2.5566711,1.7172906,0.45864177,6.026903,-17.517017,18.519297
1.0754727,2.7186522,-1.9505357,1.6576358,0.568364,6.296692,-17.434118,17.86885
1.0737736,2.71705,-1.9505357,1.6576358,0.568364,6.2887363,-17.447006,17.879166
1.0720887,2.7158325,-1.3454654,1.5958505,0.67702097,5.8450737,-17.640186,17.18618
1.0704004,2.7146156,-1.3454654,1.5958505,0.67702097,5.8371162,-17.65144,17.197086
1.0687315,2.7137825,-0.7425257,1.5287389,0.78248215,5.3408127,-17.900412,16.734499
1.0670627,2.7129526,-0.7425257,1.5287389,0.78248215,5.3328934,-17.909967,16.74596
1.0654263,2.7124944,-0.14278182,1.4445829,0.8858128,5.018652,-18.248213,16.33171
1.0637501,2.7120275,-0.14278182,1.4445829,0.8858128,5.0106544,-18.25624,16.343897
1.062195,2.711936,0.4558968,1.3433828,0.9870129,4.9888496,-18.669226,16.121231
1.062195,2.711936,0.4558968,1.3433828,0.9870129,4.9888496,-18.669226,16.121231
1.0581989,2.7126188,1.0513797,1.2325953,1.0882131,4.888233,-18.977402,15.842549
1.0574051,2.7127562,1.0513797,1.2325953,1.0882131,4.8843975,-18.979628,15.849021
1.0560362,2.7133336,1.6426014,1.1122204,1.1851522,4.9256573,-19.331514,15.429891
1.0546193,2.7139332,1.6426014,1.1122204,1.1851522,4.918787,-19.3339,15.442126
1.0531201,2.7149806,2.2274315,0.9843887,1.2778301,4.930649,-19.650612,15.245227
1.0517688,2.7159264,2.2274315,0.9843887,1.2778301,4.924059,-19.651188,15.257644
1.0497665,2.71796,2.8058703,0.85016537,1.3651818,5.07707,-19.663538,14.808063
1.0492477,2.718488,2.8058703,0.85016537,1.3651818,5.0745335,-19.662996,14.813156
1.0480349,2.7201686,3.3757868,0.711681,1.4472072,4.953659,-19.808153,14.184328
1.0468225,2.7218523,3.3757868,0.711681,1.4472072,4.9476967,-19.804815,14.1971445
1.0468225,2.7218523,3.3757868,0.711681,1.4472072,4.9476967,-19.804815,14.1971445
1.0468225,2.7218523,3.3757868,0.711681,1.4472072,4.9476967,-19.804815,14.1971445
1.0468225,2.7218523,3.3757868,0.711681,1.4472072,4.9476967,-19.804815,14.1971445
1.0427203,2.7319949,4.9907274,0.2376383,1.6251063,5.693574,-19.011658,12.463207
1.0422163,2.7336378,4.9907274,0.2376383,1.6251063,5.6910706,-19.005884,12.470382
1.0412011,2.7369595,4.9907274,0.2376383,1.6251063,5.6860313,-18.994137,12.484815
1.0406739,2.7393334,5.4818144,0.06506546,1.6613253,4.064928,-18.980247,11.756157
1.0400323,2.7422388,5.4818144,0.06506546,1.6613253,4.0617332,-18.969055,11.766814
1.039519,2.7455285,5.9334865,-0.10431159,1.6868917,5.486122,-18.357077,11.580851
1.0390092,2.7488286,5.9334865,-0.10431159,1.6868917,5.4835787,-18.343542,11.59117
1.0386465,2.7524145,6.341483,-0.26303598,1.7018054,5.23277,-18.060017,10.911306
1.0382894,2.7559967,6.341483,-0.26303598,1.7018054,5.2309875,-18.044594,10.920866
1.0380648,2.7598505,6.7026076,-0.40045512,1.7071317,4.9329834,-17.572554,10.393539
1.0378462,2.7637045,6.7026076,-0.40045512,1.7071317,4.9318914,-17.55535,10.402401
1.0377605,2.7678044,7.018991,-0.5325479,1.7028706,4.1892595,-17.402473,9.7593775
1.0376807,2.7719285,7.018991,-0.5325479,1.7028706,4.188862,-17.383503,9.767498
1.037743,2.7762244,7.291699,-0.67209756,1.6900874,4.5722446,-17.162155,9.482632
1.0378127,2.7805333,7.291699,-0.67209756,1.6900874,4.5725937,-17.141806,9.489735
1.0380263,2.785017,7.522861,-0.8116472,1.6741085,4.7604084,-17.01484,9.237333
1.0382476,2.7894964,7.522861,-0.8116472,1.6741085,4.7615137,-16.993195,9.243342
1.0386032,2.794138,7.719935,-0.93947893,1.6570643,4.825541,-16.71181,8.764828
1.0389664,2.7987707,7.719935,-0.93947893,1.6570643,4.8273525,-16.689007,8.7697525
1.0394547,2.8035207,7.875464,-1.056658,1.6336285,4.6669836,-16.421082,8.108169
1.0399541,2.8082907,7.875464,-1.056658,1.6336285,4.6694713,-16.397242,8.1119995
1.0405809,2.8131652,7.989447,-1.1738371,1.6016705,5.3142357,-16.137928,7.549819
1.0412166,2.8180406,7.989447,-1.1738371,1.6016705,5.317401,-16.113228,7.5524735
1.0419785,2.8229928,8.061885,-1.2878205,1.5622557,5.919733,-15.61379,6.7065477
1.04275,2.827951,8.061885,-1.2878205,1.5622557,5.923562,-15.58837,6.707964
1.043635,2.8329883,8.094908,-1.3836942,1.5100578,6.2200384,-14.992493,5.616685
1.0445294,2.838032,8.094908,-1.3836942,1.5100578,6.2244654,-14.966411,5.616949
1.0455292,2.8431468,8.086386,-1.4667848,1.4482725,6.215032,-14.073063,4.3809032
1.0465331,2.8482432,8.086386,-1.4667848,1.4482725,6.2199845,-14.046536,4.3800526
1.0476362,2.8533988,8.035254,-1.5434839,1.3758345,6.49835,-13.033127,3.0998173
1.0487463,2.8585515,8.035254,-1.5434839,1.3758345,6.5038075,-13.006175,3.097866
1.0499504,2.863747,7.937249,-1.6137913,1.289548,6.868839,-11.796126,1.9362497
1.0511606,2.8689349,7.937249,-1.6137913,1.289548,6.874754,-11.768898,1.9332018
1.0524495,2.8741324,7.7859817,-1.6734462,1.1947395,7.082157,-10.486949,0.70831203
1.053746,2.879334,7.7859817,-1.6734462,1.1947395,7.088476,-10.4595995,0.7042446
1.0551054,2.8845053,7.5793204,-1.7213831,1.0914088,7.262669,-9.139462,-0.4593439
1.0564721,2.8896813,7.5793204,-1.7213831,1.0914088,7.2692914,-9.112239,-0.46435165
1.0578861,2.8947766,7.3140693,-1.7618631,0.9795561,7.678359,-7.7589884,-1.7341537
1.059307,2.899877,7.3140693,-1.7618631,0.9795561,7.6852036,-7.732173,-1.7400331
1.0607641,2.9048185,6.9827724,-1.7959516,0.86131173,8.635535,-6.255232,-3.0585728
1.0622269,2.9097655,6.9827724,-1.7959516,0.86131173,8.64255,-6.229227,-3.0652885
1.0637274,2.9144988,6.581167,-1.8193873,0.72921896,9.693598,-4.9448895,-4.265011
1.065232,2.9192379,6.581167,-1.8193873,0.72921896,9.700781,-4.919957,-4.2725954
1.0667727,2.9237304,6.1103206,-1.8311052,0.5811472,10.483832,-3.9145737,-5.454035
1.0683205,2.9282384,6.1103206,-1.8311052,0.5811472,10.491176,-3.8908215,-5.462492
1.0699015,2.9324672,5.5712967,-1.8343011,0.42242277,11.130735,-3.1692882,-6.386215
1.0714846,2.936699,5.5712967,-1.8343011,0.42242277,11.138204,-3.1469386,-6.3954897
1.0731057,2.9406202,4.9736834,-1.8332359,0.25730678,12.5153055,-2.417361,-7.047142
1.074727,2.944545,4.9736834,-1.8332359,0.25730678,12.52291,-2.3965414,-7.057252
1.0763547,2.948128,4.3249373,-1.8108653,0.08579921,11.769169,-1.2999803,-8.384634
1.0779836,2.9517186,4.3249373,-1.8108653,0.08579921,11.77677,-1.2808563,-8.395303
1.0796134,2.954955,3.6239934,-1.7757115,-0.09423048,12.014181,-1.1532989,-8.736773
1.0812439,2.9581995,3.6239934,-1.7757115,-0.09423048,12.02174,-1.135917,-8.747917
1.0828848,2.9610753,2.890026,-1.7448188,-0.28171703,13.135446,-1.0292907,-8.658977
1.0845199,2.9639485,2.890026,-1.7448188,-0.28171703,13.142967,-1.0137367,-8.670611
1.086124,2.9664493,2.14008,-1.6798377,-0.46707305,12.724171,-0.7414093,-8.916971
1.087737,2.968974,2.14008,-1.6798377,-0.46707305,12.731558,-0.7275953,-8.928812
1.0893083,2.9711514,1.3848073,-1.5892903,-0.6534943,11.982162,-0.40422082,-9.079476
1.0908523,2.9733016,1.3848073,-1.5892903,-0.6534943,11.9891815,-0.3923061,-9.091104
1.0923079,2.9750395,0.62846965,-1.5040691,-0.84204614,11.938326,-0.013705254,-8.824596
1.0937912,2.9768202,0.62846965,-1.5040691,-0.84204614,11.94503,-0.0036215782,-8.836051
1.095231,2.9782348,-0.1225418,-1.4273701,-1.0274022,12.143073,0.24893808,-8.445205
1.0966717,2.97966,-0.1225418,-1.4273701,-1.0274022,12.149553,0.25730824,-8.456608
1.0980566,2.9807117,-0.86716163,-1.3432142,-1.2021055,11.911556,0.24954772,-7.7256184
1.0994384,2.9817715,-0.86716163,-1.3432142,-1.2021055,11.917736,0.25616288,-7.7368145
1.1007628,2.982463,-1.5989983,-1.2547972,-1.3672215,11.6890135,0.026422262,-6.809265
1.102082,2.9831614,-1.5989983,-1.2547972,-1.3672215,11.694893,0.03132248,-6.8202057
1.103339,2.983493,-2.310595,-1.1663803,-1.518489,11.283876,-0.44911242,-5.7056
1.1045957,2.9838338,-2.310595,-1.1663803,-1.518489,11.28944,-0.44588554,-5.7162666
1.105782,2.9838123,-2.9891684,-1.0737022,-1.6473861,10.796693,-1.2152737,-4.26612
1.1069703,2.9837995,-2.9891684,-1.0737022,-1.6473861,10.801923,-1.2136866,-4.276454
1.1080838,2.983429,-3.6261966,-0.9788937,-1.7507167,10.150809,-2.003841,-2.9216938
1.1092013,2.9830651,-3.6261966,-0.9788937,-1.7507167,10.155716,-2.0038645,-2.9316645
1.1102563,2.9823532,-4.217418,-0.8840852,-1.8274157,9.542628,-2.9152675,-1.3132801
1.1113027,2.9816551,-4.217418,-0.8840852,-1.8274157,9.547205,-2.9168112,-1.322876
1.1122899,2.980607,-4.756442,-0.7935377,-1.8753526,9.465312,-3.7866325,0.18093395
1.1132864,2.9795575,-4.756442,-0.7935377,-1.8753526,9.46965,-3.7897258,0.17152023
1.1142486,2.978125,-5.2379417,-0.70725125,-1.900919,9.330175,-4.546266,1.8045483
1.1152134,2.976699,-5.2379417,-0.70725125,-1.900919,9.334358,-4.5509696,1.7951307
1.1161307,2.9748647,-5.661917,-0.6167038,-1.9062454,9.213831,-5.3666964,3.3324804
1.117052,2.973036,-5.661917,-0.6167038,-1.9062454,9.217804,-5.3731217,3.3231287
1.117903,2.970812,-6.0294333,-0.52083,-1.8923969,8.857556,-6.247998,4.894266
1.1187592,2.9685905,-6.0294333,-0.52083,-1.8923969,8.861237,-6.256118,4.8851624
1.1195247,2.9660122,-6.335164,-0.4217604,-1.860439,8.792697,-7.13255,6.4232206
1.120317,2.9633625,-6.335164,-0.4217604,-1.860439,8.796096,-7.1424985,6.4143124
1.1209722,2.9605124,-6.58124,-0.31736448,-1.808241,8.808477,-7.962709,8.096733
1.1216438,2.9576118,-6.58124,-0.31736448,-1.808241,8.811349,-7.973823,8.088628
1.1222029,2.9544067,-6.764466,-0.20551172,-1.7389988,8.818525,-8.723772,9.508173
1.1227694,2.9511933,-6.764466,-0.20551172,-1.7389988,8.820944,-8.736292,9.500672
1.123196,2.947788,-6.8880363,-0.07981051,-1.659104,9.095701,-9.44892,10.911552
1.1236329,2.9443452,-6.8880363,-0.07981051,-1.659104,9.097559,-9.462543,10.904899
1.1239164,2.9406977,-6.955148,0.06506546,-1.5674912,9.285514,-10.047073,12.110832
1.1242058,2.93705,-6.955148,0.06506546,-1.5674912,9.286743,-10.061745,12.105193
1.1243129,2.933249,-6.966866,0.23657304,-1.4641606,9.086086,-10.699851,13.178346
1.1244258,2.9294517,-6.966866,0.23657304,-1.4641606,9.086565,-10.715421,13.173994
1.1243399,2.925539,-6.9295816,0.42299432,-1.3544383,8.894665,-11.2441845,14.152836
1.1242596,2.92163,-6.9295816,0.42299432,-1.3544383,8.894322,-11.260555,14.1499405
1.123972,2.917654,-6.8454256,0.6158072,-1.2383245,8.725507,-11.598427,14.900485
1.12369,2.913682,-6.8454256,0.6158072,-1.2383245,8.724309,-11.61545,14.899141
1.123192,2.9096742,-6.716529,0.8150116,-1.1158191,8.3678465,-11.896431,15.684856
1.1227087,2.9057467,-6.716529,0.8150116,-1.1158191,8.365787,-11.913702,15.685144
1.1219974,2.9017498,-6.5471516,1.0152813,-0.9901179,7.9988317,-12.084989,16.43425
1.1212779,2.8976824,-6.5471516,1.0152813,-0.9901179,7.995759,-12.103389,16.436275
1.1203562,2.8937328,-6.342621,1.21129,-0.86228615,7.4603043,-12.49527,17.177502
1.1194446,2.8898125,-6.342621,1.21129,-0.86228615,7.456394,-12.513553,17.18116
1.118319,2.8859456,-6.1008058,1.3987765,-0.73125863,7.0253906,-12.94394,18.01982
1.1171918,2.882062,-6.1008058,1.3987765,-0.73125863,7.0205326,-12.962656,18.025206
1.1158732,2.8783028,-5.821707,1.5713494,-0.5970353,6.784996,-13.508074,19.004326
1.114558,2.874547,-5.821707,1.5713494,-0.5970353,6.7793026,-13.526811,19.01128
1.1130607,2.8709285,-5.5031924,1.726878,-0.46068147,6.3514233,-14.349919,20.015833
1.1115669,2.867314,-5.5031924,1.726878,-0.46068147,6.3449154,-14.368628,20.024296
1.1099075,2.8638744,-5.142068,1.8642972,-0.32432762,6.2035923,-15.052664,20.91534
1.1082516,2.8604426,-5.142068,1.8642972,-0.32432762,6.196331,-15.071147,20.925213
1.1064484,2.857217,-4.7362022,1.9793457,-0.18690848,6.250654,-15.75,21.630816
1.1046472,2.853996,-4.7362022,1.9793457,-0.18690848,6.242695,-15.768108,21.642006
1.1027207,2.8510337,-4.288791,2.073089,-0.05801149,7.0769176,-16.058455,22.166847
1.1007961,2.8480763,-4.288791,2.073089,-0.05801149,7.068363,-16.075918,22.179234
1.0987471,2.8454256,-3.8040957,2.1668322,0.06768972,6.8293686,-16.46596,22.480288
1.0966995,2.8427794,-3.8040957,2.1668322,0.06768972,6.8201847,-16.48256,22.49396
1.0945212,2.8404856,-3.2927687,2.2690976,0.1880646,5.732992,-17.249834,22.877825
1.0923445,2.838196,-3.2927687,2.2690976,0.1880646,5.7231503,-17.265379,22.892899
1.0900652,2.8362875,-2.7516146,2.3426008,0.30098262,5.272272,-17.686625,22.947598
1.087786,2.8343825,-2.7516146,2.3426008,0.30098262,5.2618713,-17.700897,22.963928
1.0854409,2.8328621,-2.1848938,2.3766894,0.41496593,5.3660564,-18.192568,22.971699
1.0830954,2.8313446,-2.1848938,2.3766894,0.41496593,5.3552666,-18.205431,22.989
1.0807071,2.830224,-1.6000636,2.387342,0.52575344,4.9515743,-18.47049,22.490034
1.0783191,2.829106,-1.6000636,2.387342,0.52575344,4.9404945,-18.48179,22.508144
1.075911,2.8284047,-0.9971239,2.3756242,0.6290841,4.651537,-18.433863,21.88536
1.0735025,2.827705,-0.9971239,2.3756242,0.6290841,4.640259,-18.443407,21.904171
1.0710952,2.8274257,-0.38779265,2.3426008,0.7281537,4.28895,-18.522907,21.181355
1.0686884,2.8271472,-0.38779265,2.3426008,0.7281537,4.277582,-18.530584,21.200699
1.0663023,2.827286,0.22153862,2.2893376,0.8229622,4.3859634,-18.10536,20.257998
1.0639162,2.8274245,0.22153862,2.2893376,0.8229622,4.37459,-18.11108,20.27773
1.0615714,2.8279746,0.8212825,2.217965,0.91137916,4.1526756,-17.870592,19.268211
1.0592264,2.8285239,0.8212825,2.217965,0.91137916,4.141405,-17.874287,19.288181
1.0544863,2.830483,1.3997211,2.126352,0.991274,3.8503227,-17.743662,18.448683
1.0544863,2.830483,1.3997211,2.126352,0.991274,3.8503227,-17.743662,18.448683
1.0544863,2.830483,1.3997211,2.126352,0.991274,3.8503227,-17.743662,18.448683
1.049705,2.8333564,1.9579197,2.012369,1.063712,3.9419231,-17.6039,17.467144
1.0480822,2.834665,2.4937477,1.8781456,1.1254973,4.0009995,-17.381704,16.519817
1.0459664,2.8363707,2.4937477,1.8781456,1.1254973,3.9905853,-17.379137,16.539536
1.0439261,2.8384833,3.0050747,1.726878,1.1798258,4.057123,-17.216362,15.6207
1.0419595,2.8405185,3.0050747,1.726878,1.1798258,4.0473766,-17.211708,15.63966
1.0401058,2.8429215,3.4876394,1.5638926,1.2256322,3.9567547,-17.013403,14.839413
1.0384119,2.845118,3.4876394,1.5638926,1.2256322,3.948307,-17.007145,14.85636
1.0366955,2.847868,3.9361157,1.3902545,1.2629164,3.9971848,-16.658236,14.088973
1.035026,2.850544,3.9361157,1.3902545,1.2629164,3.9888077,-16.649456,14.1063795
1.0335546,2.8534462,4.7201505,1.0120856,1.3140491,4.101116,-16.351717,13.308448
1.0335546,2.8534462,4.7201505,1.0120856,1.3140491,4.101116,-16.351717,13.308448
1.0335546,2.8534462,4.7201505,1.0120856,1.3140491,4.101116,-16.351717,13.308448
1.0294505,2.8634765,4.7201505,1.0120856,1.3140491,4.0708027,-15.92487,12.565794
1.0286171,2.8660333,5.0471864,0.8160769,1.3247018,3.9420757,-15.569547,11.910511
1.0275301,2.869374,5.0471864,0.8160769,1.3247018,3.936551,-15.555677,11.923916
1.0263406,2.874067,5.330547,0.6147419,1.3321586,3.8251476,-15.257592,11.245625
1.0257142,2.876546,5.330547,0.6147419,1.3321586,3.8219538,-15.246783,11.254034
1.0250089,2.8802779,5.5702314,0.41234165,1.3342892,3.7896252,-14.832494,10.747576
1.0243124,2.8839827,5.5702314,0.41234165,1.3342892,3.786065,-14.815697,10.758091
1.0238247,2.887717,5.765175,0.21420248,1.330028,3.635129,-14.501369,10.082146
1.0233129,2.8916693,5.765175,0.21420248,1.330028,3.6325083,-14.482843,10.091359
1.0230143,2.8955705,5.9175076,0.019259084,1.3204408,3.4633856,-14.262971,9.557606
1.0227207,2.8994753,5.9175076,0.019259084,1.3204408,3.4618788,-14.244144,9.564835
1.0226183,2.9034564,6.0304255,-0.17355378,1.3097881,3.830059,-14.162273,9.187454
1.0225207,2.9074411,6.0304255,-0.17355378,1.3097881,3.8295603,-14.142597,9.193034
1.0226077,2.911452,6.1103206,-0.35677928,1.2959397,4.069427,-14.15114,8.545828
1.0227004,2.9154794,6.1103206,-0.35677928,1.2959397,4.0699034,-14.13085,8.549741
1.0229741,2.9195452,6.160388,-0.5325479,1.269308,4.4304366,-13.861021,7.8290844
1.0232521,2.9235954,6.160388,-0.5325479,1.269308,4.4318595,-13.84026,7.831335
1.0237083,2.927683,6.181693,-0.7040555,1.2298932,4.822057,-13.201287,6.783416
1.024172,2.9317884,6.181693,-0.7040555,1.2298932,4.8244276,-13.179932,6.7840214
1.0248042,2.9359071,6.172106,-0.86704093,1.180891,5.478883,-12.128726,5.6483088
1.025442,2.9400275,6.172106,-0.86704093,1.180891,5.4821377,-12.107033,5.6473093
1.026236,2.9441745,6.1231036,-1.0140474,1.1169752,5.5292864,-10.811259,4.2371635
1.0270345,2.9483194,6.1231036,-1.0140474,1.1169752,5.533355,-10.789243,4.2346706
1.0279771,2.9524794,6.028295,-1.1546624,1.0392109,6.8214397,-9.445359,2.957179
1.0289233,2.9566376,6.028295,-1.1546624,1.0392109,6.826249,-9.423125,2.9532738
1.0299857,2.9607868,5.874897,-1.2761025,0.9433371,7.6600246,-8.069633,1.3585358
1.0310495,2.9649265,5.874897,-1.2761025,0.9433371,7.66541,-8.047418,1.3534298
1.0322022,2.9690356,5.6586485,-1.3698457,0.82828856,8.954525,-6.7563553,-0.07470703
1.0333542,2.9731321,5.6586485,-1.3698457,0.82828856,8.960333,-6.7343464,-0.08079624
1.0345691,2.9771433,5.3763533,-1.4326963,0.69513047,9.5745735,-5.664078,-1.4283352
1.0357851,2.9811506,5.3763533,-1.4326963,0.69513047,9.58068,-5.642554,-1.4352322
1.0370446,2.9850364,5.024816,-1.4689153,0.54386294,9.654036,-4.5586143,-2.6924639
1.0383059,2.9889233,5.024816,-1.4689153,0.54386294,9.660343,-4.5377626,-2.7000322
1.0396131,2.9926322,4.6114936,-1.4998081,0.3798122,10.5096245,-3.5170236,-3.6371622
1.040922,2.9963465,4.6114936,-1.4998081,0.3798122,10.51614,-3.4971013,-3.645441
1.042273,2.9998727,4.1417117,-1.5189828,0.20404357,10.776638,-2.9944937,-4.1139812
1.0436257,3.0034053,4.1417117,-1.5189828,0.20404357,10.783337,-2.9755533,-4.122925
1.0449991,3.0067248,3.6239934,-1.5179175,0.02081808,10.751825,-2.4692862,-4.6398363
1.0463731,3.010051,3.6239934,-1.5179175,0.02081808,10.7586,-2.4514697,-4.649255
1.0477563,3.0131364,3.0721862,-1.5061996,-0.16453794,10.655272,-1.8123938,-4.9893703
1.0491395,3.016229,3.0721862,-1.5061996,-0.16453794,10.662064,-1.7958405,-4.9991503
1.0505279,3.0190532,2.490552,-1.4880902,-0.34882867,11.305727,-1.2730792,-4.8942766
1.0519128,3.0218797,2.490552,-1.4880902,-0.34882867,11.312496,-1.2579415,-4.9043474
1.0532831,3.0244243,1.8854817,-1.44761,-0.52459735,11.223395,-0.875535,-4.612849
1.0546489,3.0269718,1.8854817,-1.44761,-0.52459735,11.230044,-0.86188126,-4.623021
1.0559675,3.0292165,1.266563,-1.3836942,-0.69823545,10.858149,-0.58642125,-4.412737
1.0572867,3.031474,1.266563,-1.3836942,-0.69823545,10.864538,-0.574309,-4.422756
1.0585507,3.0334244,0.6444486,-1.3123215,-0.865482,10.659956,-0.56855667,-3.8291655
1.0598137,3.035383,0.6444486,-1.3123215,-0.865482,10.666033,-0.55801594,-3.8389301
1.0610207,3.037021,0.027660487,-1.2409488,-1.0199453,10.595219,-0.5730375,-3.0678988
1.0622262,3.0386667,0.027660487,-1.2409488,-1.0199453,10.601009,-0.56411326,-3.077382
1.0633718,3.0399842,-0.57634443,-1.1685108,-1.159495,10.338341,-0.71485204,-2.3156023
1.0645185,3.0413122,-0.57634443,-1.1685108,-1.159495,10.343811,-0.70754665,-2.3247786
1.0656061,3.042316,-1.1569136,-1.0982033,-1.280935,10.090429,-1.1040785,-1.3088999
1.0666909,3.0433254,-1.1569136,-1.0982033,-1.280935,10.0955925,-1.0983789,-1.3177223
1.0677242,3.0440178,-1.7076553,-1.0300264,-1.3810699,9.712631,-1.5299807,-0.13874054
1.0687561,3.0447173,-1.7076553,-1.0300264,-1.3810699,9.717522,-1.5258172,-0.14727592
1.0697384,3.0451117,-2.2200475,-0.9650453,-1.4588343,9.1188345,-1.9301558,1.0463591
1.0707186,3.0455122,-2.2200475,-0.9650453,-1.4588343,9.12346,-1.9274602,1.0381174
1.071679,3.0456374,-2.6887639,-0.90539044,-1.518489,8.625206,-2.3905528,2.2509575
1.0726378,3.0457687,-2.6887639,-0.90539044,-1.518489,8.629715,-2.389144,2.2427702
1.0736136,3.0455806,-3.1138043,-0.851062,-1.5589691,8.208138,-2.9877653,3.6085587
1.0745906,3.0453992,-3.1138043,-0.851062,-1.5589691,8.212717,-2.987802,3.6000671
1.0755537,3.04483,-3.4898427,-0.794603,-1.5781438,8.030476,-3.6696033,4.9801445
1.076518,3.0442667,-3.4898427,-0.794603,-1.5781438,8.034981,-3.6714146,4.9715815
1.0774349,3.0433514,-3.8179443,-0.7285566,-1.5749481,7.1438246,-4.484127,6.2609167
1.0783516,3.042442,-3.8179443,-0.7285566,-1.5749481,7.148096,-4.487557,6.252592
1.0792133,3.041196,-4.0970435,-0.66890174,-1.5483165,6.9461985,-5.2730856,7.5230827
1.0800757,3.0399556,-4.0970435,-0.66890174,-1.5483165,6.950201,-5.27806,7.5150576
1.0808818,3.0384014,-4.323945,-0.61563855,-1.5025101,7.222088,-5.8974237,8.76671
1.08169,3.03685,-4.323945,-0.61563855,-1.5025101,7.225827,-5.9038334,8.758982
1.0824312,3.0350046,-4.501844,-0.55172265,-1.4364637,7.114331,-6.567644,9.924842
1.0831752,3.0331614,-4.501844,-0.55172265,-1.4364637,7.1177616,-6.575405,9.9175005
1.0838399,3.0310454,-4.6318064,-0.47821942,-1.3544383,6.9819593,-7.2308993,11.083844
1.0845076,3.0289307,-4.6318064,-0.47821942,-1.3544383,6.985034,-7.239923,11.07699
1.0850943,3.0265718,-4.712766,-0.40471616,-1.2617604,7.1361675,-7.805569,12.282153
1.0856837,3.0242138,-4.712766,-0.40471616,-1.2617604,7.138878,-7.815727,12.275807
1.0861857,3.0216424,-4.7489853,-0.3258866,-1.1605603,7.356656,-8.248301,13.285208
1.0866905,3.0190713,-4.7489853,-0.3258866,-1.1605603,7.3589687,-8.259462,13.27942
1.0870948,3.016319,-4.7415285,-0.23533912,-1.050838,7.360821,-8.7791,14.236838
1.0875018,3.0135667,-4.7415285,-0.23533912,-1.050838,7.3626833,-8.791142,14.231733
1.0877986,3.01067,-4.695722,-0.13626952,-0.9357894,7.287427,-9.187012,15.113314
1.0880989,3.0077612,-4.695722,-0.13626952,-0.9357894,7.2887974,-9.199838,15.108963
1.0882816,3.0047517,-4.611566,-0.030808344,-0.82180613,7.232172,-9.57716,15.9339285
1.0884674,3.0017414,-4.611566,-0.030808344,-0.82180613,7.233018,-9.590548,15.930431
1.0885317,2.9986608,-4.4911914,0.07784863,-0.70675755,7.0130463,-9.81029,16.665306
1.0885988,2.9955797,-4.4911914,0.07784863,-0.70675755,7.0133543,-9.824118,16.662703
1.0885379,2.992463,-4.3377934,0.19289719,-0.5906437,6.653946,-10.03459,17.35545
1.0884793,2.9893496,-4.3377934,0.19289719,-0.5906437,6.653677,-10.048716,17.353823
1.0882912,2.986222,-4.152437,0.30794576,-0.4713341,6.1452484,-10.278554,18.124193
1.0881045,2.983098,-4.152437,0.30794576,-0.4713341,6.144392,-10.292898,18.123571
1.0877922,2.9799984,-3.9351232,0.41873327,-0.35202447,5.5923004,-10.484484,19.134354
1.0874815,2.9768996,-3.9351232,0.41873327,-0.35202447,5.5908813,-10.4989,19.134722
1.0870503,2.9738533,-3.6858513,0.52312917,-0.2284538,4.7605133,-10.886762,20.366741
1.0866189,2.9708025,-3.6858513,0.52312917,-0.2284538,4.758541,-10.901162,20.368088
1.0860758,2.9678206,-3.4035563,0.6158072,-0.09636101,4.0425797,-11.509198,21.735104
1.085533,2.9648411,-3.4035563,0.6158072,-0.09636101,4.0400925,-11.52348,21.737366
1.0848927,2.9619544,-3.0818465,0.69144094,0.041058104,3.4002934,-12.375487,23.387718
1.0842526,2.9590704,-3.0818465,0.69144094,0.041058104,3.3973503,-12.389533,23.390804
1.0835311,2.9563177,-2.7153955,0.74896526,0.18167302,2.9726524,-13.451802,25.13285
1.0828087,2.9535658,-2.7153955,0.74896526,0.18167302,2.9693184,-13.465434,25.136665
1.0820193,2.9509735,-2.3020728,0.78838,0.32761425,2.6113358,-14.761773,26.788364
1.0812297,2.948388,-2.3020728,0.78838,0.32761425,2.6076775,-14.774815,26.792816
1.080389,2.9460063,-1.8397481,0.8107506,0.475686,2.527172,-16.1278,28.239153
1.0795474,2.9436293,-1.8397481,0.8107506,0.475686,2.5232658,-16.14004,28.24416
1.0786691,2.9415054,-1.3252254,0.81820744,0.6237578,2.318077,-17.391415,29.145115
1.0777678,2.9393358,-1.3252254,0.81820744,0.6237578,2.3138885,-17.402868,29.150747
1.0768765,2.9375513,-0.76276577,0.8150116,0.77076423,2.3432503,-18.65756,29.439146
1.0759654,2.9357338,-0.76276577,0.8150116,0.77076423,2.338997,-18.667473,29.445162
1.0750499,2.9342797,-0.15982606,0.80009794,0.9167055,2.1096535,-19.652588,29.034927
1.0741221,2.9328117,-0.15982606,0.80009794,0.9167055,2.1053123,-19.660975,29.041359
1.0731964,2.9317312,0.47507155,0.7713358,1.0562551,2.1823692,-20.323608,28.205376
1.0722643,2.9306495,0.47507155,0.7713358,1.0562551,2.17799,-20.330265,28.212198
1.0713518,2.929994,1.133405,0.72552943,1.1819563,3.0595417,-20.248747,26.792313
1.0704396,2.9293442,1.133405,0.72552943,1.1819563,3.0552425,-20.253403,26.799372
1.0695425,2.9291482,1.7991953,0.68291885,1.2959397,2.9312916,-19.834557,24.671116
1.0686482,2.9289575,1.7991953,0.68291885,1.2959397,2.9270573,-19.837065,24.678469
1.0677657,2.929237,2.4522023,0.6477651,1.3960745,2.6212063,-19.5788,22.833076
1.0668828,2.9295206,2.4522023,0.6477651,1.3960745,2.6170197,-19.579088,22.840788
1.0660253,2.9302635,3.0817738,0.60195875,1.4876872,2.9433422,-19.39523,21.096195
1.0651698,2.9310093,3.0817738,0.60195875,1.4876872,2.9392643,-19.393297,21.104156
1.0643476,2.932183,3.6804523,0.54976076,1.5782347,2.7964802,-19.039743,19.33095
1.0635288,2.9333577,3.6804523,0.54976076,1.5782347,2.7925663,-19.035717,19.339008
1.0627365,2.9349394,4.242912,0.50288916,1.6655864,2.472746,-18.785507,17.455812
1.0619483,2.9365206,4.242912,0.50288916,1.6655864,2.4689655,-18.779478,17.463997
1.0611899,2.9384599,4.767022,0.45708278,1.7540034,2.5419426,-18.728594,15.887299
1.0604322,2.9404097,4.767022,0.45708278,1.7540034,2.5383053,-18.720724,15.895548
1.0597091,2.9426677,5.2453256,0.40914586,1.8424203,2.4486341,-18.682583,14.3331995
1.0589871,2.944937,5.2453256,0.40914586,1.8424203,2.445158,-18.673084,14.341422
1.0583048,2.9474757,5.682084,0.35694793,1.9287068,2.7626886,-18.595173,12.735849
1.0576254,2.9500215,5.682084,0.35694793,1.9287068,2.759409,-18.584227,12.743919
1.0569832,2.9528058,6.0741014,0.30368468,2.0149932,3.503296,-18.533743,11.473367
1.0563484,2.9555807,6.0741014,0.30368468,2.0149932,3.500224,-18.52156,11.48121
1.0557368,2.9586172,6.4213777,0.2557478,2.0959532,3.808506,-18.575104,10.46434
1.0551289,2.9616673,6.4213777,0.2557478,2.0959532,3.8055582,-18.561491,10.472124
1.0545918,2.964685,6.7271085,0.21313721,2.1683912,4.34404,-18.605354,9.425804
1.0545918,2.964685,6.7271085,0.21313721,2.1683912,4.34404,-18.605354,9.425804
1.053467,2.9717596,6.989164,0.17372243,2.2291112,4.740798,-18.73594,8.426073
1.053467,2.9717596,6.989164,0.17372243,2.2291112,4.740798,-18.73594,8.426073
1.0524814,2.9787593,7.212869,0.13750345,2.2749176,5.056821,-18.761173,7.309967
1.0520641,2.9817944,7.5388403,0.06826125,2.312202,5.627721,-17.275223,3.9216251
1.0507418,2.9934547,7.5388403,0.06826125,2.312202,5.627721,-17.275223,3.9216251
1.0507418,2.9934547,7.5388403,0.06826125,2.312202,5.627721,-17.275223,3.9216251
1.0507418,2.9934547,7.5388403,0.06826125,2.312202,5.627721,-17.275223,3.9216251
1.0504022,2.9966881,7.5388403,0.06826125,2.312202,5.6260643,-17.260004,3.9268045
1.0500513,3.000577,7.6325836,0.021389613,2.3036797,6.4240117,-15.896049,1.9692364
1.049716,3.00439,7.6325836,0.021389613,2.3036797,6.4223623,-15.877954,1.974659
1.049716,3.00439,7.6325836,0.021389613,2.3036797,6.4223623,-15.877954,1.974659
1.0490991,3.0127754,7.667737,-0.028677817,2.2781134,7.6403832,-14.1093025,0.0077171326
1.0488845,3.0162356,7.6325836,-0.074484184,2.2323072,8.213937,-12.091148,-1.9036789
1.0486526,3.0200975,7.6325836,-0.074484184,2.2323072,8.212801,-12.072587,-1.8993835
1.0486526,3.0200975,7.6325836,-0.074484184,2.2323072,8.212801,-12.072587,-1.8993835
1.0486526,3.0200975,7.6325836,-0.074484184,2.2323072,8.212801,-12.072587,-1.8993835
1.0480368,3.0341854,7.3023515,-0.20764224,2.0171237,9.65588,-7.848131,-5.14717
1.0479412,3.0380347,7.3023515,-0.20764224,2.0171237,9.655413,-7.8294086,-5.144367
1.0479386,3.0397966,7.003012,-0.29712445,1.8445508,10.5173,-5.6708055,-6.374077
1.0479367,3.0436833,7.003012,-0.29712445,1.8445508,10.517291,-5.651804,-6.372157
1.048044,3.047486,6.6184516,-0.39406353,1.6453464,11.178621,-3.5262213,-7.549225
1.0481569,3.0512733,6.6184516,-0.39406353,1.6453464,11.179182,-3.5076075,-7.5484705
1.0483978,3.0549345,6.14867,-0.49845943,1.4216409,12.655188,-1.6986544,-8.35338
1.0486434,3.0585918,6.14867,-0.49845943,1.4216409,12.656393,-1.6805892,-8.353947
1.049016,3.0620992,5.595798,-0.5985943,1.1702384,13.726035,-0.4086182,-8.829771
1.0493968,3.065642,5.595798,-0.5985943,1.1702384,13.727913,-0.3910489,-8.8316555
1.0498881,3.0689654,4.971553,-0.6880765,0.8954002,14.189996,0.9423101,-9.370937
1.050377,3.072253,4.971553,-0.6880765,0.8954002,14.192388,0.95865965,-9.373956
1.0509871,3.0753715,4.2855225,-0.77968925,0.59819144,14.870539,2.1473854,-9.665423
1.0516032,3.0785134,4.2855225,-0.77968925,0.59819144,14.873554,2.1630416,-9.669682
1.0523384,3.0814452,3.5483596,-0.8744978,0.2892647,14.881929,3.0156767,-10.010259
1.0530626,3.08433,3.5483596,-0.8744978,0.2892647,14.8854475,3.0300756,-10.0156145
