Pitch,Roll,Gyro_X,Gyro_Y,Gyro_Z,Accel_X,Accel_Y,Accel_Z
0.19760224,4.666798,-0.18430196,-0.0100632105,0.21107282,0.11492168,-9.500193,-0.4213795
0.19767591,4.6666107,-0.18430196,-0.0100632105,0.21107282,0.11492168,-9.500193,-0.4213795
0.1977519,4.6664305,-0.18217143,-0.008997946,0.21639915,0.08619126,-9.572019,-0.45010993
0.19782834,4.6662493,-0.18217143,-0.008997946,0.21639915,0.08619126,-9.572019,-0.45010993
0.19790944,4.666066,-0.1800409,-0.008997946,0.22066021,0.090979666,-9.552865,-0.48841715
0.19799086,4.665882,-0.1800409,-0.008997946,0.22066021,0.090979666,-9.552865,-0.48841715
0.19808124,4.6656914,-0.17791037,-0.007932682,0.223856,0.038307227,-9.56723,-0.45010993
0.19816114,4.6655226,-0.17791037,-0.007932682,0.223856,0.038307227,-9.56723,-0.45010993
0.19824876,4.665345,-0.1768451,-0.006867417,0.22811705,0.06703765,-9.552865,-0.47405192
0.19833723,4.6651664,-0.1768451,-0.006867417,0.22811705,0.06703765,-9.552865,-0.47405192
0.19843228,4.6649876,-0.17471458,-0.006867417,0.23450863,0.04309563,-9.600749,-0.49320555
0.19852726,4.6648097,-0.17471458,-0.006867417,0.23450863,0.04309563,-9.600749,-0.49320555
0.19862969,4.664632,-0.17471458,-0.006867417,0.24196549,0.05746084,-9.586384,-0.48362875
0.19873267,4.6644535,-0.17471458,-0.006867417,0.24196549,0.05746084,-9.586384,-0.48362875
0.19884214,4.664274,-0.17471458,-0.0058021527,0.24942234,0.023942016,-9.619903,-0.51714754
0.19895178,4.664094,-0.17471458,-0.0058021527,0.24942234,0.023942016,-9.619903,-0.51714754
0.19907005,4.6639137,-0.17258404,-0.004736888,0.25794446,0.033518825,-9.610326,-0.5506664
0.1991883,4.663733,-0.17258404,-0.004736888,0.25794446,0.033518825,-9.610326,-0.5506664
0.19931611,4.663557,-0.17151879,-0.0036716238,0.26753184,0.01436521,-9.629479,-0.51235914
0.19944395,4.66338,-0.17151879,-0.0036716238,0.26753184,0.01436521,-9.629479,-0.51235914
0.19957787,4.663201,-0.17045352,-0.0026063593,0.27392343,0.047884032,-9.643845,-0.56982
0.19971207,4.663021,-0.17045352,-0.0026063593,0.27392343,0.047884032,-9.643845,-0.56982
0.19985585,4.6628485,-0.16938825,0.00058943406,0.2835108,0.047884032,-9.610326,-0.47884035
0.19999965,4.662676,-0.16938825,0.00058943406,0.2835108,0.047884032,-9.610326,-0.47884035
0.20015047,4.6625032,-0.168323,0.002719963,0.29096764,0.02873042,-9.591172,-0.49320555
0.20030135,4.6623306,-0.168323,0.002719963,0.29096764,0.02873042,-9.591172,-0.49320555
0.20045772,4.662156,-0.16619246,0.0059157563,0.29629397,0.033518825,-9.572019,-0.5315128
0.20061375,4.6619816,-0.16619246,0.0059157563,0.29629397,0.033518825,-9.572019,-0.5315128
0.20077384,4.661813,-0.16406193,0.010176814,0.30055505,-0.009576807,-9.605537,-0.48362875
0.20093423,4.661644,-0.16406193,0.010176814,0.30055505,-0.009576807,-9.605537,-0.48362875
0.20109908,4.6614714,-0.16086614,0.012307343,0.30588135,-0.07182605,-9.610326,-0.5650316
0.2012644,4.6612988,-0.16086614,0.012307343,0.30588135,-0.07182605,-9.610326,-0.5650316
0.20143294,4.6611357,-0.15767035,0.0133726075,0.30907714,-0.06703765,-9.619903,-0.49320555
0.20160154,4.6609716,-0.15767035,0.0133726075,0.30907714,-0.06703765,-9.619903,-0.49320555
0.20177203,4.6608086,-0.15447456,0.014437872,0.31120768,-0.033518825,-9.648633,-0.5267244
0.2019427,4.660646,-0.15447456,0.014437872,0.31120768,-0.033518825,-9.648633,-0.5267244
0.20211534,4.6604853,-0.15234402,0.014437872,0.31333822,-0.01436521,-9.715671,-0.5267244
0.20228784,4.6603255,-0.15234402,0.014437872,0.31333822,-0.01436521,-9.715671,-0.5267244
0.20246099,4.6601744,-0.1502135,0.015503136,0.31333822,0.02873042,-9.696517,-0.4261679
0.20263514,4.6600227,-0.1502135,0.015503136,0.31333822,0.02873042,-9.696517,-0.4261679
0.20280784,4.659873,-0.14595243,0.017633665,0.31333822,0,-9.720459,-0.47405192
0.20298074,4.659723,-0.14595243,0.017633665,0.31333822,0,-9.720459,-0.47405192
0.20315425,4.6595793,-0.14382191,0.01869893,0.31333822,-0.009576807,-9.696517,-0.40701428
0.2033283,4.6594357,-0.14382191,0.01869893,0.31333822,-0.009576807,-9.696517,-0.40701428
0.20349964,4.659286,-0.14169139,0.020829458,0.31227294,-0.047884032,-9.68694,-0.51714754
0.20367098,4.6591363,-0.14169139,0.020829458,0.31227294,-0.047884032,-9.68694,-0.51714754
0.20383894,4.6589975,-0.13849558,0.021894723,0.3080119,-0.05267244,-9.706094,-0.4213795
0.204007,4.658858,-0.13849558,0.021894723,0.3080119,-0.05267244,-9.706094,-0.4213795
0.2041723,4.6587205,-0.13423453,0.021894723,0.30588135,-0.08140286,-9.696517,-0.45489833
0.20433773,4.6585836,-0.13423453,0.021894723,0.30588135,-0.08140286,-9.696517,-0.45489833
0.20449977,4.658448,-0.13103874,0.019764194,0.30268556,-0.10534488,-9.734824,-0.47884035
0.2046621,4.6583133,-0.13103874,0.019764194,0.30268556,-0.10534488,-9.734824,-0.47884035
0.20481974,4.6581783,-0.1289082,0.01869893,0.2984245,-0.090979666,-9.734824,-0.51235914
0.20497742,4.6580434,-0.1289082,0.01869893,0.2984245,-0.090979666,-9.734824,-0.51235914
0.20513268,4.657917,-0.12571241,0.017633665,0.29522872,-0.12928689,-9.744401,-0.44532153
0.20528793,4.657791,-0.12571241,0.017633665,0.29522872,-0.12928689,-9.744401,-0.44532153
0.20543912,4.657664,-0.12251662,0.0165684,0.29203293,-0.10534488,-9.758766,-0.51235914
0.20559081,4.6575356,-0.12251662,0.0165684,0.29203293,-0.10534488,-9.758766,-0.51235914
0.20574053,4.657416,-0.117190294,0.014437872,0.2899024,-0.08619126,-9.715671,-0.48362875
0.2058899,4.6572967,-0.117190294,0.014437872,0.2899024,-0.08619126,-9.715671,-0.48362875
0.20603682,4.657179,-0.1139945,0.012307343,0.2867066,-0.076614454,-9.782708,-0.50757074
0.20618312,4.657061,-0.1139945,0.012307343,0.2867066,-0.076614454,-9.782708,-0.50757074
0.20632426,4.656945,-0.11186397,0.011242079,0.28138027,-0.110133275,-9.77792,-0.51714754
0.20646548,4.65683,-0.11186397,0.011242079,0.28138027,-0.110133275,-9.77792,-0.51714754
0.20646548,4.65683,-0.10760292,0.008046285,0.27711922,-0.10534488,-9.821015,-0.48841715
0.20674385,4.6566105,-0.10760292,0.008046285,0.27711922,-0.10534488,-9.821015,-0.48841715
0.20688133,4.656507,-0.10227659,0.0037852274,0.27392343,-0.095768064,-9.80665,-0.47884035
0.20701276,4.6564083,-0.10227659,0.0037852274,0.27392343,-0.095768064,-9.80665,-0.47884035
0.20719945,4.656267,-0.0990808,0.0016546985,0.26966238,-0.090979666,-9.825804,-0.49320555
0.20727229,4.6562123,-0.0990808,0.0016546985,0.26966238,-0.090979666,-9.825804,-0.49320555
0.20739663,4.6561217,-0.09481974,-0.0004758304,0.2654013,-0.1388637,-9.816227,-0.46926352
0.20752338,4.65603,-0.09481974,-0.0004758304,0.2654013,-0.1388637,-9.816227,-0.46926352
0.20764688,4.6559463,-0.092689216,-0.0015410949,0.26114026,-0.1340753,-9.840169,-0.39743748
0.20777015,4.655863,-0.092689216,-0.0015410949,0.26114026,-0.1340753,-9.840169,-0.39743748
0.20788899,4.655776,-0.08949342,-0.0036716238,0.25794446,-0.14844051,-9.883265,-0.49320555
0.20800792,4.6556892,-0.08949342,-0.0036716238,0.25794446,-0.14844051,-9.883265,-0.49320555
0.20812562,4.65561,-0.08736289,-0.0058021527,0.25581393,-0.19153613,-9.907207,-0.4309563
0.20824352,4.655531,-0.08736289,-0.0058021527,0.25581393,-0.19153613,-9.907207,-0.4309563
0.20835766,4.6554565,-0.0841671,-0.0058021527,0.25155288,-0.19632454,-9.916783,-0.40222588
0.20847172,4.655383,-0.0841671,-0.0058021527,0.25155288,-0.19632454,-9.916783,-0.40222588
0.20858355,4.65531,-0.08310183,-0.007932682,0.24942234,-0.17717093,-9.902418,-0.41180268
0.20869549,4.655237,-0.08310183,-0.007932682,0.24942234,-0.17717093,-9.902418,-0.41180268
0.20880838,4.6551695,-0.08097131,-0.008997946,0.24942234,-0.20590134,-9.9790325,-0.37828386
0.20892113,4.6551023,-0.08097131,-0.008997946,0.24942234,-0.20590134,-9.9790325,-0.37828386
0.20903446,4.655036,-0.07777551,-0.011128475,0.2504876,-0.21068975,-9.988609,-0.40701428
0.20914781,4.65497,-0.07777551,-0.011128475,0.2504876,-0.21068975,-9.988609,-0.40701428
0.20926149,4.6549025,-0.07671025,-0.0100632105,0.25155288,-0.19632454,-10.065224,-0.44532153
0.2093753,4.6548343,-0.07671025,-0.0100632105,0.25155288,-0.19632454,-10.065224,-0.44532153
0.20948648,4.654765,-0.075644985,-0.008997946,0.24942234,-0.18674773,-10.070012,-0.47405192
0.20959763,4.6546965,-0.075644985,-0.008997946,0.24942234,-0.18674773,-10.070012,-0.47405192
0.20970896,4.654623,-0.074579716,-0.008997946,0.2504876,-0.24899697,-10.089166,-0.5554548
0.20982155,4.6545486,-0.074579716,-0.008997946,0.2504876,-0.24899697,-10.089166,-0.5554548
0.2099335,4.65448,-0.07244919,-0.007932682,0.2504876,-0.25378537,-10.113108,-0.51235914
0.21004425,4.6544123,-0.07244919,-0.007932682,0.2504876,-0.25378537,-10.113108,-0.51235914
0.21015444,4.6543407,-0.07244919,-0.006867417,0.24942234,-0.25857377,-10.0748005,-0.5506664
0.21026862,4.6542673,-0.07244919,-0.006867417,0.24942234,-0.25857377,-10.0748005,-0.5506664
0.21037807,4.654191,-0.074579716,-0.004736888,0.24729182,-0.2825158,-10.093954,-0.5650316
0.21048346,4.654118,-0.074579716,-0.004736888,0.24729182,-0.2825158,-10.093954,-0.5650316
0.21058576,4.6540446,-0.07671025,-0.0036716238,0.24409603,-0.31124622,-10.170568,-0.5410896
0.21069083,4.65397,-0.07671025,-0.0036716238,0.24409603,-0.31124622,-10.170568,-0.5410896
0.21079494,4.653891,-0.07990604,-0.0004758304,0.24303076,-0.34955344,-10.108319,-0.5363012
0.21089758,4.6538134,-0.07990604,-0.0004758304,0.24303076,-0.34955344,-10.108319,-0.5363012
0.21100314,4.65373,-0.08203657,0.002719963,0.24303076,-0.31124622,-10.146626,-0.545878
0.21110396,4.6536503,-0.08203657,0.002719963,0.24303076,-0.31124622,-10.146626,-0.545878
0.21120441,4.6535673,-0.08523236,0.004850492,0.23983496,-0.31603462,-10.19451,-0.51714754
0.21130466,4.6534843,-0.08523236,0.004850492,0.23983496,-0.31603462,-10.19451,-0.51714754
0.21140046,4.6533933,-0.08949342,0.00911155,0.2355739,-0.2777274,-10.093954,-0.5506664
0.21149576,4.653302,-0.08949342,0.00911155,0.2355739,-0.2777274,-10.093954,-0.5506664
0.21158695,4.6531982,-0.092689216,0.0133726075,0.23024759,-0.16280572,-10.16578,-0.6512229
0.21167469,4.653098,-0.092689216,0.0133726075,0.23024759,-0.16280572,-10.16578,-0.6512229
0.21175712,4.65299,-0.09695027,0.01869893,0.223856,-0.11492168,-10.160992,-0.6751649
0.21183977,4.652881,-0.09695027,0.01869893,0.223856,-0.11492168,-10.160992,-0.6751649
0.21191137,4.6527634,-0.10334186,0.025090516,0.21320336,-0.22505496,-10.031705,-0.6799533
0.21198298,4.6526456,-0.10334186,0.025090516,0.21320336,-0.22505496,-10.031705,-0.6799533
0.21204188,4.652525,-0.11292924,0.02828631,0.20042017,-0.40222588,-9.964667,-0.58418524
0.21210074,4.6524043,-0.11292924,0.02828631,0.20042017,-0.40222588,-9.964667,-0.58418524
0.21214712,4.652279,-0.120386094,0.02828631,0.187637,-0.4261679,-9.931149,-0.5554548
0.21219347,4.6521535,-0.120386094,0.02828631,0.187637,-0.4261679,-9.931149,-0.5554548
0.21222995,4.6520257,-0.12784295,0.02828631,0.17698435,-0.29209262,-9.873688,-0.49320555
0.21222995,4.6520257,-0.12784295,0.02828631,0.17698435,-0.29209262,-9.873688,-0.49320555
0.2123012,4.6517696,-0.132104,0.029351573,0.16846225,-0.1436521,-9.892841,-0.4405331
0.21233034,4.65164,-0.132104,0.029351573,0.16846225,-0.1436521,-9.892841,-0.4405331
0.21234798,4.6515036,-0.13743033,0.031482104,0.1578096,-0.10055647,-9.825804,-0.46447513
0.21234798,4.6515036,-0.13743033,0.031482104,0.1578096,-0.10055647,-9.825804,-0.46447513
0.212379,4.651237,-0.13956085,0.034677897,0.14289589,-0.023942016,-9.844957,-0.46926352
0.21238178,4.6510897,-0.13956085,0.034677897,0.14289589,-0.023942016,-9.844957,-0.46926352
0.21236931,4.6509514,-0.14062612,0.03787369,0.1279822,-0.02873042,-9.854534,-0.51714754
0.21235566,4.6508007,-0.14062612,0.03787369,0.1279822,-0.02873042,-9.854534,-0.51714754
0.2123267,4.6506486,-0.14275664,0.042134747,0.11306849,-0.076614454,-9.763555,-0.5793968
0.21229799,4.6504984,-0.14275664,0.042134747,0.11306849,-0.076614454,-9.763555,-0.5793968
0.21225597,4.650345,-0.14382191,0.046395805,0.10028532,-0.095768064,-9.696517,-0.5746084
0.21221383,4.6501913,-0.14382191,0.046395805,0.10028532,-0.095768064,-9.696517,-0.5746084
0.21215636,4.6500297,-0.14595243,0.048526336,0.08537161,-0.11492168,-9.65821,-0.6560113
0.21209899,4.649868,-0.14595243,0.048526336,0.08537161,-0.11492168,-9.65821,-0.6560113
0.21202873,4.6497073,-0.14595243,0.048526336,0.072588444,-0.090979666,-9.643845,-0.6512229
0.21195863,4.6495466,-0.14595243,0.048526336,0.072588444,-0.090979666,-9.643845,-0.6512229
0.21188007,4.6493897,-0.14595243,0.048526336,0.06406633,-0.07182605,-9.548077,-0.59855044
0.21180168,4.649233,-0.14595243,0.048526336,0.06406633,-0.07182605,-9.548077,-0.59855044
0.21171586,4.649071,-0.14808297,0.048526336,0.05767474,-0.047884032,-9.557653,-0.60812724
0.21163137,4.648913,-0.14808297,0.048526336,0.05767474,-0.047884032,-9.557653,-0.60812724
0.21153815,4.64875,-0.14808297,0.048526336,0.051283155,-0.023942016,-9.572019,-0.61291564
0.21144886,4.648594,-0.14808297,0.048526336,0.051283155,-0.023942016,-9.572019,-0.61291564
0.21135415,4.6484323,-0.14914823,0.048526336,0.04808736,-0.0047884034,-9.533711,-0.63206923
0.21126014,4.648271,-0.14914823,0.048526336,0.04808736,-0.0047884034,-9.533711,-0.63206923
0.2111644,4.648108,-0.1502135,0.050656863,0.047022097,-0.01436521,-9.586384,-0.6368576
0.21106817,4.6479445,-0.1502135,0.050656863,0.047022097,-0.01436521,-9.586384,-0.6368576
0.21097025,4.647783,-0.15127876,0.052787393,0.044891566,0.0047884034,-9.600749,-0.59376204
0.21087256,4.647621,-0.15127876,0.052787393,0.044891566,0.0047884034,-9.600749,-0.59376204
0.21077815,4.647456,-0.15340929,0.053852655,0.04808736,-0.095768064,-9.65821,-0.6368576
0.21068278,4.647289,-0.15340929,0.053852655,0.04808736,-0.095768064,-9.65821,-0.6368576
0.21059439,4.6471195,-0.15553981,0.05491792,0.054478947,-0.11971009,-9.634268,-0.6607997
0.21050559,4.646949,-0.15553981,0.05491792,0.054478947,-0.11971009,-9.634268,-0.6607997
0.21042205,4.646776,-0.1587356,0.052787393,0.060870536,-0.047884032,-9.648633,-0.61291564
0.2103412,4.6466093,-0.1587356,0.052787393,0.060870536,-0.047884032,-9.648633,-0.61291564
0.2102678,4.646437,-0.16193141,0.052787393,0.06939265,-0.02873042,-9.648633,-0.60812724
0.21019453,4.646265,-0.16193141,0.052787393,0.06939265,-0.02873042,-9.648633,-0.60812724
0.21012962,4.6460958,-0.16406193,0.053852655,0.0768495,-0.0047884034,-9.739613,-0.5602432
0.21006417,4.645925,-0.16406193,0.053852655,0.0768495,-0.0047884034,-9.739613,-0.5602432
0.21000798,4.645752,-0.1651272,0.055983186,0.08643688,0.019153614,-9.749189,-0.5746084
0.20995145,4.6455774,-0.1651272,0.055983186,0.08643688,0.019153614,-9.749189,-0.5746084
0.20990503,4.6454,-0.16619246,0.055983186,0.09708953,-0.038307227,-9.792285,-0.58897364
0.20985997,4.6452274,-0.16619246,0.055983186,0.09708953,-0.038307227,-9.792285,-0.58897364
0.20982593,4.6450567,-0.16725773,0.05491792,0.10774217,0.009576807,-9.801862,-0.545878
0.20979169,4.644884,-0.16725773,0.05491792,0.10774217,0.009576807,-9.801862,-0.545878
0.20976572,4.644711,-0.16725773,0.053852655,0.11626428,0,-9.825804,-0.5554548
0.20973986,4.644539,-0.16725773,0.053852655,0.11626428,0,-9.825804,-0.5554548
0.20972364,4.644368,-0.1651272,0.051722128,0.12585166,-0.019153614,-9.773131,-0.5554548
0.20970747,4.6441984,-0.1651272,0.051722128,0.12585166,-0.019153614,-9.773131,-0.5554548
0.20969507,4.6440277,-0.16193141,0.0495916,0.13011272,-0.01436521,-9.749189,-0.60812724
0.2096827,4.6438575,-0.16193141,0.0495916,0.13011272,-0.01436521,-9.749189,-0.60812724
0.20967728,4.6436915,-0.16086614,0.04746107,0.1365043,0.02873042,-9.706094,-0.56982
0.20967185,4.643525,-0.16086614,0.04746107,0.1365043,0.02873042,-9.706094,-0.56982
0.2096722,4.6433563,-0.1587356,0.044265278,0.14289589,0.05746084,-9.65821,-0.6464345
0.20967259,4.6431875,-0.1587356,0.044265278,0.14289589,0.05746084,-9.65821,-0.6464345
0.20967664,4.6430225,-0.15767035,0.04000422,0.14609168,0.038307227,-9.648633,-0.62249243
0.20968069,4.6428576,-0.15767035,0.04000422,0.14609168,0.038307227,-9.648633,-0.62249243
0.20968576,4.6426945,-0.15447456,0.036808424,0.14715695,0.08140286,-9.595961,-0.6512229
0.2096909,4.642531,-0.15447456,0.036808424,0.14715695,0.08140286,-9.595961,-0.6512229
0.20969748,4.642372,-0.15234402,0.034677897,0.14822222,0.110133275,-9.5385,-0.62249243
0.20970407,4.642214,-0.15234402,0.034677897,0.14822222,0.110133275,-9.5385,-0.62249243
0.209711,4.6420584,-0.1502135,0.031482104,0.14822222,0.11492168,-9.519346,-0.60812724
0.20971861,4.6418896,-0.1502135,0.031482104,0.14822222,0.11492168,-9.519346,-0.60812724
0.20972331,4.641743,-0.14808297,0.030416839,0.14715695,0.06703765,-9.466674,-0.7182605
0.2097284,4.641583,-0.14808297,0.030416839,0.14715695,0.06703765,-9.466674,-0.7182605
0.20973052,4.641426,-0.14595243,0.027221046,0.14396116,0.11492168,-9.500193,-0.7326257
0.20973274,4.6412683,-0.14595243,0.027221046,0.14396116,0.11492168,-9.500193,-0.7326257
0.20972934,4.641121,-0.14382191,0.025090516,0.13756958,0.14844051,-9.548077,-0.62728083
0.20972604,4.640973,-0.14382191,0.025090516,0.13756958,0.14844051,-9.548077,-0.62728083
0.20971702,4.640825,-0.14062612,0.021894723,0.13224325,0.10534488,-9.509769,-0.6991069
0.20970799,4.640676,-0.14062612,0.021894723,0.13224325,0.10534488,-9.509769,-0.6991069
0.20969078,4.640533,-0.13743033,0.017633665,0.12372114,0.076614454,-9.476251,-0.6847417
0.20967366,4.6403894,-0.13743033,0.017633665,0.12372114,0.076614454,-9.476251,-0.6847417
0.2096483,4.64025,-0.13423453,0.0133726075,0.11519902,0.090979666,-9.409213,-0.6895301
0.20962295,4.6401105,-0.13423453,0.0133726075,0.11519902,0.090979666,-9.409213,-0.6895301
0.20958936,4.6399755,-0.13103874,0.00911155,0.10667691,0.095768064,-9.44752,-0.6895301
0.20955569,4.63984,-0.13103874,0.00911155,0.10667691,0.095768064,-9.44752,-0.6895301
0.20951559,4.6397076,-0.12997347,0.002719963,0.10028532,0.11971009,-9.471462,-0.6368576
0.20947747,4.639582,-0.12997347,0.002719963,0.10028532,0.11971009,-9.471462,-0.6368576
0.20943469,4.6394663,-0.12784295,-0.0004758304,0.09389373,0.15801731,-9.471462,-0.50278234
0.20939155,4.6393495,-0.12784295,-0.0004758304,0.09389373,0.15801731,-9.471462,-0.50278234
0.2093448,4.6392403,-0.12251662,-0.0036716238,0.089632675,0.15801731,-9.476251,-0.48362875
0.20929796,4.6391306,-0.12251662,-0.0036716238,0.089632675,0.15801731,-9.476251,-0.48362875
0.20925248,4.639037,-0.1139945,-0.0058021527,0.088567406,0.19632454,-9.437943,-0.37349546
0.20920709,4.638943,-0.1139945,-0.0058021527,0.088567406,0.19632454,-9.437943,-0.37349546
0.2091558,4.638851,-0.104407124,-0.004736888,0.08537161,0.17717093,-9.481039,-0.50278234
0.20910454,4.6387596,-0.104407124,-0.004736888,0.08537161,0.17717093,-9.481039,-0.50278234
0.20904863,4.6386757,-0.09481974,-0.0036716238,0.08111056,0.20590134,-9.490616,-0.521936
0.20899272,4.638592,-0.09481974,-0.0036716238,0.08111056,0.20590134,-9.490616,-0.521936
0.20893148,4.6385164,-0.08203657,-0.004736888,0.0768495,0.14844051,-9.500193,-0.59855044
0.20887026,4.638441,-0.08203657,-0.004736888,0.0768495,0.14844051,-9.500193,-0.59855044
0.20880736,4.638373,-0.07031866,-0.006867417,0.075784236,0.1340753,-9.509769,-0.6703765
0.20874447,4.6383057,-0.07031866,-0.006867417,0.075784236,0.1340753,-9.509769,-0.6703765
0.20867817,4.6382422,-0.059666015,-0.011128475,0.072588444,0.10534488,-9.552865,-0.78050977
0.20861176,4.638179,-0.059666015,-0.011128475,0.072588444,0.10534488,-9.552865,-0.78050977
0.20853636,4.6381164,-0.050078638,-0.015389533,0.07045791,0.06703765,-9.500193,-0.8283938
0.20847283,4.638064,-0.050078638,-0.015389533,0.07045791,0.06703765,-9.500193,-0.8283938
0.20840436,4.63802,-0.03942599,-0.02178112,0.07045791,0.047884032,-9.543288,-0.81881696
0.20833921,4.637978,-0.03942599,-0.02178112,0.07045791,0.047884032,-9.543288,-0.81881696
0.2082416,4.637941,-0.028773347,-0.02923797,0.071523175,-0.033518825,-9.56723,-0.7326257
0.20820762,4.637928,-0.028773347,-0.02923797,0.071523175,-0.033518825,-9.56723,-0.7326257
0.20814241,4.637917,-0.017055437,-0.037760086,0.071523175,-0.0047884034,-9.485827,-0.7182605
0.20806107,4.637903,-0.017055437,-0.037760086,0.071523175,-0.0047884034,-9.485827,-0.7182605
0.20801553,4.637905,-0.005337529,-0.045216937,0.075784236,0.038307227,-9.461885,-0.7086837
0.20795509,4.6379085,-0.005337529,-0.045216937,0.075784236,0.038307227,-9.461885,-0.7086837
0.20790078,4.637928,0.008510909,-0.051608525,0.08111056,0.08619126,-9.44752,-0.6799533
0.20784642,4.637948,0.008510909,-0.051608525,0.08111056,0.08619126,-9.44752,-0.6799533
0.20779622,4.6379786,0.022359347,-0.055869583,0.08537161,0.11971009,-9.461885,-0.7374141
0.2077461,4.638009,0.022359347,-0.055869583,0.08537161,0.11971009,-9.461885,-0.7374141
0.20769915,4.6380525,0.03514252,-0.05800011,0.088567406,0.08140286,-9.437943,-0.7422025
0.20765224,4.638096,0.03514252,-0.05800011,0.088567406,0.08140286,-9.437943,-0.7422025
0.20761047,4.6381454,0.04686043,-0.059065375,0.09389373,0.08619126,-9.423578,-0.81881696
0.20756903,4.6381946,0.04686043,-0.059065375,0.09389373,0.08619126,-9.423578,-0.81881696
0.20753159,4.6382446,0.05857834,-0.059065375,0.09708953,0.076614454,-9.394848,-0.9768343
0.20749423,4.638294,0.05857834,-0.059065375,0.09708953,0.076614454,-9.394848,-0.9768343
0.20746067,4.638357,0.06816572,-0.06013064,0.10135058,0.033518825,-9.476251,-0.93852705
0.2074272,4.6384196,0.06816572,-0.06013064,0.10135058,0.033518825,-9.476251,-0.93852705
0.2073968,4.6384935,0.076687835,-0.062261168,0.104546376,0,-9.524135,-0.90500826
0.20736632,4.638567,0.076687835,-0.062261168,0.104546376,0,-9.524135,-0.90500826
0.20733778,4.6386547,0.08520995,-0.064391695,0.10667691,-0.047884032,-9.504981,-0.8331822
0.2073093,4.6387415,0.08520995,-0.064391695,0.10667691,-0.047884032,-9.504981,-0.8331822
0.20728351,4.638834,0.09479733,-0.066522226,0.10880744,-0.10534488,-9.457097,-0.89543146
0.20725735,4.6389275,0.09479733,-0.066522226,0.10880744,-0.10534488,-9.457097,-0.89543146
0.20723177,4.6390314,0.10438471,-0.07078329,0.10880744,-0.038307227,-9.41879,-0.8571242
0.20720626,4.639136,0.10438471,-0.07078329,0.10880744,-0.038307227,-9.41879,-0.8571242
0.2071829,4.63925,0.11290683,-0.07397908,0.11093796,0.02873042,-9.399636,-0.866701
0.20715958,4.6393633,0.11290683,-0.07397908,0.11093796,0.02873042,-9.399636,-0.866701
0.20713708,4.6394887,0.122494206,-0.07397908,0.11200323,-0.023942016,-9.394848,-0.842759
0.20711464,4.639613,0.122494206,-0.07397908,0.11200323,-0.023942016,-9.394848,-0.842759
0.20709434,4.6397443,0.12888579,-0.07397908,0.11413376,0.009576807,-9.404425,-0.8379706
0.20707396,4.639876,0.12888579,-0.07397908,0.11413376,0.009576807,-9.404425,-0.8379706
0.20705782,4.640009,0.13421212,-0.07078329,0.118394814,-0.047884032,-9.385271,-0.8619126
0.20704156,4.6401434,0.13421212,-0.07078329,0.118394814,-0.047884032,-9.385271,-0.8619126
0.20702687,4.640273,0.13634264,-0.066522226,0.119460076,-0.10534488,-9.385271,-0.92416185
0.20701224,4.640402,0.13634264,-0.066522226,0.119460076,-0.10534488,-9.385271,-0.92416185
0.20699944,4.6405306,0.13740791,-0.062261168,0.12159061,-0.090979666,-9.332599,-0.92895025
0.20698665,4.6406593,0.13740791,-0.062261168,0.12159061,-0.090979666,-9.332599,-0.92895025
0.20697401,4.6407895,0.13634264,-0.05693485,0.12265587,-0.110133275,-9.32781,-0.8762778
0.20696135,4.6409197,0.13634264,-0.05693485,0.12265587,-0.110133275,-9.32781,-0.8762778
0.20695011,4.6410418,0.13314685,-0.052673787,0.12372114,-0.14844051,-9.32781,-0.92416185
0.20693882,4.641165,0.13314685,-0.052673787,0.12372114,-0.14844051,-9.32781,-0.92416185
0.20692983,4.641279,0.12888579,-0.047347467,0.12585166,-0.1340753,-9.303867,-0.9528923
0.20692086,4.6413927,0.12888579,-0.047347467,0.12585166,-0.1340753,-9.303867,-0.9528923
0.20691413,4.6414933,0.121428944,-0.04415167,0.12691693,-0.07182605,-9.227253,-1.0295067
0.2069074,4.641594,0.121428944,-0.04415167,0.12691693,-0.07182605,-9.227253,-1.0295067
0.20690194,4.641681,0.1107763,-0.039890617,0.1279822,-0.095768064,-9.212888,-1.043872
0.2068965,4.6417685,0.1107763,-0.039890617,0.1279822,-0.095768064,-9.212888,-1.043872
0.20689407,4.6418414,0.09905839,-0.03349903,0.13117799,-0.11492168,-9.232041,-1.0534488
0.20689166,4.641916,0.09905839,-0.03349903,0.13117799,-0.11492168,-9.232041,-1.0534488
0.20688939,4.641982,0.08627521,-0.02923797,0.13224325,-0.08619126,-9.251195,-1.043872
0.20688754,4.6420374,0.08627521,-0.02923797,0.13224325,-0.08619126,-9.251195,-1.043872
0.20688678,4.6420827,0.07349204,-0.026042178,0.13330851,-0.1436521,-9.227253,-1.043872
0.20688596,4.6421347,0.07349204,-0.026042178,0.13330851,-0.1436521,-9.227253,-1.043872
0.20688453,4.642169,0.0628394,-0.020715855,0.13437378,-0.10534488,-9.255983,-0.9864111
0.20688228,4.642225,0.0628394,-0.020715855,0.13437378,-0.10534488,-9.255983,-0.9864111
0.20688139,4.6422453,0.05112149,-0.016454797,0.1365043,-0.090979666,-9.270349,-0.8762778
0.20687981,4.6422806,0.05112149,-0.016454797,0.1365043,-0.090979666,-9.270349,-0.8762778
0.20687817,4.6423044,0.042599373,-0.012193739,0.1365043,-0.110133275,-9.279925,-0.89064306
0.20687646,4.642329,0.042599373,-0.012193739,0.1365043,-0.110133275,-9.279925,-0.89064306
0.20687649,4.642349,0.036207784,-0.0100632105,0.13863485,-0.07182605,-9.3182335,-0.8762778
0.20687656,4.6423674,0.036207784,-0.0100632105,0.13863485,-0.07182605,-9.3182335,-0.8762778
0.20687777,4.642377,0.0298162,-0.0058021527,0.1397001,-0.090979666,-9.246407,-0.90021986
0.20687898,4.6423864,0.0298162,-0.0058021527,0.1397001,-0.090979666,-9.246407,-0.90021986
0.20687678,4.6424,0.025555141,-0.0015410949,0.13756958,-0.095768064,-9.3182335,-0.79487497
0.20687456,4.642412,0.025555141,-0.0015410949,0.13756958,-0.095768064,-9.3182335,-0.79487497
0.20686917,4.642416,0.021294083,0.002719963,0.13437378,-0.090979666,-9.299079,-0.8475474
0.20686382,4.6424193,0.021294083,0.002719963,0.13437378,-0.090979666,-9.299079,-0.8475474
0.2068557,4.642424,0.01809829,0.0059157563,0.13224325,-0.090979666,-9.332599,-0.78529817
0.20684761,4.6424284,0.01809829,0.0059157563,0.13224325,-0.090979666,-9.332599,-0.78529817
0.2068418,4.6424265,0.014902496,0.006981021,0.13437378,-0.05267244,-9.279925,-0.8331822
0.206836,4.6424236,0.014902496,0.006981021,0.13437378,-0.05267244,-9.279925,-0.8331822
0.20683418,4.64242,0.011706702,0.00911155,0.13863485,-0.14844051,-9.346964,-0.80445176
0.20683235,4.6424155,0.011706702,0.00911155,0.13863485,-0.14844051,-9.346964,-0.80445176
0.2068302,4.642413,0.0095761735,0.010176814,0.13863485,-0.12449849,-9.3421755,-0.7517793
0.20682809,4.642411,0.0095761735,0.010176814,0.13863485,-0.12449849,-9.3421755,-0.7517793
0.20682804,4.642407,0.0053151157,0.011242079,0.14076537,-0.076614454,-9.399636,-0.7230489
0.206828,4.6424026,0.0053151157,0.011242079,0.14076537,-0.076614454,-9.399636,-0.7230489
0.20682895,4.6423936,0.0031845868,0.012307343,0.14183064,-0.095768064,-9.399636,-0.7565677
0.20682982,4.6423845,0.0031845868,0.012307343,0.14183064,-0.095768064,-9.399636,-0.7565677
0.20683385,4.642377,0.0010540579,0.014437872,0.14502643,-0.06703765,-9.390059,-0.7086837
0.20683783,4.642369,0.0010540579,0.014437872,0.14502643,-0.06703765,-9.390059,-0.7086837
0.20684375,4.6423597,0.0010540579,0.0165684,0.14715695,-0.033518825,-9.466674,-0.7326257
0.20684974,4.6423497,0.0010540579,0.0165684,0.14715695,-0.033518825,-9.466674,-0.7326257
0.20685764,4.642335,-1.12066045e-05,0.01869893,0.14928748,-0.08140286,-9.481039,-0.7757214
0.2068656,4.6423206,-1.12066045e-05,0.01869893,0.14928748,-0.08140286,-9.481039,-0.7757214
0.2068777,4.642314,-1.12066045e-05,0.022959989,0.15354854,-0.11492168,-9.524135,-0.6607997
0.20688982,4.6423078,-1.12066045e-05,0.022959989,0.15354854,-0.11492168,-9.524135,-0.6607997
0.20690571,4.642294,0.0021193223,0.026155781,0.1578096,-0.110133275,-9.519346,-0.7661445
0.20692156,4.642281,0.0021193223,0.026155781,0.1578096,-0.110133275,-9.519346,-0.7661445
0.2069417,4.642279,0.0074456446,0.02828631,0.16207066,-0.10055647,-9.586384,-0.6895301
0.2069622,4.642277,0.0074456446,0.02828631,0.16207066,-0.10055647,-9.586384,-0.6895301
0.20698489,4.6422753,0.012771967,0.031482104,0.16526645,-0.10055647,-9.605537,-0.7422025
0.20700765,4.642274,0.012771967,0.031482104,0.16526645,-0.10055647,-9.605537,-0.7422025
0.20703486,4.6422777,0.020228818,0.03254737,0.1695275,-0.11971009,-9.600749,-0.7661445
0.20706199,4.642282,0.020228818,0.03254737,0.1695275,-0.11971009,-9.600749,-0.7661445
0.20709321,4.6422935,0.027685668,0.034677897,0.17378856,-0.062249243,-9.615114,-0.7613561
0.20712447,4.642305,0.027685668,0.034677897,0.17378856,-0.062249243,-9.615114,-0.7613561
0.20716089,4.6423244,0.03727305,0.03787369,0.1791149,-0.07182605,-9.65821,-0.770933
0.2071971,4.6423445,0.03727305,0.03787369,0.1791149,-0.07182605,-9.65821,-0.770933
0.20723644,4.642376,0.047925696,0.041069485,0.18231069,-0.110133275,-9.68694,-0.7517793
0.20727533,4.6424065,0.047925696,0.041069485,0.18231069,-0.110133275,-9.68694,-0.7517793
0.2073166,4.642449,0.05857834,0.043200012,0.18444121,-0.15801731,-9.701305,-0.7374141
0.20735838,4.6424923,0.05857834,0.043200012,0.18444121,-0.15801731,-9.701305,-0.7374141
0.2074005,4.642542,0.07029625,0.046395805,0.18550648,-0.17717093,-9.730036,-0.78050977
0.20744237,4.6425915,0.07029625,0.046395805,0.18550648,-0.17717093,-9.730036,-0.78050977
0.20748861,4.6426525,0.07988363,0.048526336,0.18976754,-0.12928689,-9.710882,-0.7613561
0.20753509,4.6427135,0.07988363,0.048526336,0.18976754,-0.12928689,-9.710882,-0.7613561
0.2075855,4.6427813,0.089471005,0.0495916,0.19402859,-0.15801731,-9.753978,-0.79008657
0.2076359,4.642849,0.089471005,0.0495916,0.19402859,-0.15801731,-9.753978,-0.79008657
0.20768951,4.642932,0.09905839,0.051722128,0.19722438,-0.1388637,-9.701305,-0.7038953
0.20774305,4.6430154,0.09905839,0.051722128,0.19722438,-0.1388637,-9.701305,-0.7038953
0.20779763,4.643108,0.106515236,0.05491792,0.19828965,-0.14844051,-9.730036,-0.6703765
0.20785227,4.6432004,0.106515236,0.05491792,0.19828965,-0.14844051,-9.730036,-0.6703765
0.2079097,4.6432953,0.11184156,0.05917898,0.20148544,-0.11971009,-9.753978,-0.6943185
0.2079671,4.6433907,0.11184156,0.05917898,0.20148544,-0.11971009,-9.753978,-0.6943185
0.20802304,4.6434865,0.11610262,0.06344004,0.20042017,-0.12928689,-9.701305,-0.7182605
0.20807897,4.643583,0.11610262,0.06344004,0.20042017,-0.12928689,-9.701305,-0.7182605
0.20813394,4.643688,0.120363675,0.06663583,0.19935492,-0.19632454,-9.720459,-0.6464345
0.20818888,4.643793,0.120363675,0.06663583,0.19935492,-0.19632454,-9.720459,-0.6464345
0.20824358,4.643899,0.12355947,0.068766356,0.19935492,-0.21068975,-9.720459,-0.6751649
0.20829828,4.644005,0.12355947,0.068766356,0.19935492,-0.21068975,-9.720459,-0.6751649
0.20834994,4.64412,0.12462474,0.069831625,0.19509386,-0.11492168,-9.749189,-0.5554548
0.20840162,4.644235,0.12462474,0.069831625,0.19509386,-0.11492168,-9.749189,-0.5554548
0.20845021,4.644352,0.12462474,0.07089689,0.19189806,-0.15801731,-9.773131,-0.5410896
0.2084988,4.6444683,0.12462474,0.07089689,0.19189806,-0.15801731,-9.773131,-0.5410896
0.20854346,4.644582,0.12569,0.07302742,0.18870227,-0.090979666,-9.787497,-0.58418524
0.20858811,4.644695,0.12569,0.07302742,0.18870227,-0.090979666,-9.787497,-0.58418524
0.20862631,4.644812,0.12462474,0.07515795,0.18124542,-0.1436521,-9.825804,-0.521936
0.2086642,4.6449285,0.12462474,0.07515795,0.18124542,-0.1436521,-9.825804,-0.521936
0.20869379,4.6450396,0.12355947,0.07728848,0.17378856,-0.1388637,-9.801862,-0.5793968
0.20872335,4.64515,0.12355947,0.07728848,0.17378856,-0.1388637,-9.801862,-0.5793968
0.20874633,4.64526,0.122494206,0.079419,0.16739698,-0.19153613,-9.801862,-0.5793968
0.20876932,4.645369,0.122494206,0.079419,0.16739698,-0.19153613,-9.801862,-0.5793968
0.20878267,4.645477,0.121428944,0.08048427,0.1578096,-0.090979666,-9.782708,-0.58418524
0.20879605,4.645584,0.121428944,0.08048427,0.1578096,-0.090979666,-9.782708,-0.58418524
0.20879932,4.6456943,0.121428944,0.08048427,0.14715695,-0.095768064,-9.758766,-0.5410896
0.20880258,4.645805,0.121428944,0.08048427,0.14715695,-0.095768064,-9.758766,-0.5410896
0.2087988,4.6459217,0.121428944,0.07835374,0.13863485,-0.11492168,-9.710882,-0.45968673
0.20879507,4.6460385,0.121428944,0.07835374,0.13863485,-0.11492168,-9.710882,-0.45968673
0.20878232,4.6461554,0.12355947,0.07622321,0.13011272,-0.1436521,-9.696517,-0.49320555
0.2087695,4.6462727,0.12355947,0.07622321,0.13011272,-0.1436521,-9.696517,-0.49320555
0.2087474,4.646391,0.12462474,0.07302742,0.120525345,-0.14844051,-9.715671,-0.49320555
0.20872523,4.6465096,0.12462474,0.07302742,0.120525345,-0.14844051,-9.715671,-0.49320555
0.20869352,4.6466346,0.12675527,0.068766356,0.1098727,-0.11492168,-9.672575,-0.44532153
0.20866182,4.6467595,0.12675527,0.068766356,0.1098727,-0.11492168,-9.672575,-0.44532153
0.20866182,4.6467595,0.12995106,0.0645053,0.103481114,-0.08140286,-9.65821,-0.41180268
0.20858666,4.6470246,0.12995106,0.0645053,0.103481114,-0.08140286,-9.65821,-0.41180268
0.20854023,4.6471577,0.13208158,0.06130951,0.09602426,-0.110133275,-9.662998,-0.46447513
0.20849662,4.6472826,0.13208158,0.06130951,0.09602426,-0.110133275,-9.662998,-0.46447513
0.2084443,4.647419,0.13421212,0.05917898,0.087502144,-0.05746084,-9.634268,-0.39743748
0.20837057,4.6476116,0.13421212,0.05917898,0.087502144,-0.05746084,-9.634268,-0.39743748
0.20833471,4.647694,0.13634264,0.058113717,0.0800453,-0.047884032,-9.706094,-0.40222588
0.20827428,4.647835,0.13634264,0.058113717,0.0800453,-0.047884032,-9.706094,-0.40222588
0.20821072,4.647978,0.13953844,0.058113717,0.075784236,-0.076614454,-9.715671,-0.38307226
0.20814727,4.648121,0.13953844,0.058113717,0.075784236,-0.076614454,-9.715671,-0.38307226
0.20807682,4.6482654,0.14166896,0.055983186,0.06939265,-0.08619126,-9.730036,-0.40222588
0.20800634,4.648411,0.14166896,0.055983186,0.06939265,-0.08619126,-9.730036,-0.40222588
0.20793132,4.648557,0.14486475,0.052787393,0.06513159,-0.019153614,-9.677363,-0.4213795
0.20785625,4.648704,0.14486475,0.052787393,0.06513159,-0.019153614,-9.677363,-0.4213795
0.20777988,4.648857,0.14593002,0.048526336,0.061935797,0.0047884034,-9.639056,-0.34476504
0.2077034,4.649011,0.14593002,0.048526336,0.061935797,0.0047884034,-9.639056,-0.34476504
0.20762366,4.649163,0.14806056,0.043200012,0.05980527,0,-9.600749,-0.41180268
0.20754382,4.649315,0.14806056,0.043200012,0.05980527,0,-9.600749,-0.41180268
0.20746036,4.6494665,0.14806056,0.038938954,0.05767474,0.08140286,-9.639056,-0.45489833
0.20737804,4.649616,0.14806056,0.038938954,0.05767474,0.08140286,-9.639056,-0.45489833
0.20729618,4.6497736,0.14806056,0.035743162,0.055544212,0.0047884034,-9.787497,-0.34476504
0.20721488,4.6499305,0.14806056,0.035743162,0.055544212,0.0047884034,-9.787497,-0.34476504
0.20713209,4.650094,0.14912581,0.031482104,0.05341368,-0.01436521,-9.801862,-0.29688102
0.20704935,4.6502576,0.14912581,0.031482104,0.05341368,-0.01436521,-9.801862,-0.29688102
0.20696455,4.650425,0.1523216,0.027221046,0.051283155,-0.019153614,-9.710882,-0.29688102
0.20688003,4.6505914,0.1523216,0.027221046,0.051283155,-0.019153614,-9.710882,-0.29688102
0.20679235,4.6507597,0.1555174,0.022959989,0.049152624,0.08140286,-9.653421,-0.33039984
0.20670475,4.650927,0.1555174,0.022959989,0.049152624,0.08140286,-9.653421,-0.33039984
0.20661375,4.6511016,0.15871319,0.01869893,0.04808736,0.10055647,-9.56723,-0.34476504
0.20652656,4.651269,0.15871319,0.01869893,0.04808736,0.10055647,-9.56723,-0.34476504
0.20643725,4.651438,0.16084373,0.014437872,0.04808736,0.10534488,-9.543288,-0.39264908
0.20634559,4.651612,0.16084373,0.014437872,0.04808736,0.10534488,-9.543288,-0.39264908
0.20623392,4.651827,0.16297425,0.00911155,0.04808736,0.04309563,-9.495404,-0.40222588
0.20616324,4.651963,0.16297425,0.00911155,0.04808736,0.04309563,-9.495404,-0.40222588
0.20607781,4.652133,0.16403952,0.004850492,0.049152624,0.05267244,-9.490616,-0.39264908
0.20599118,4.6523046,0.16403952,0.004850492,0.049152624,0.05267244,-9.490616,-0.39264908
0.20590125,4.652474,0.16297425,0.0016546985,0.04808736,0.04309563,-9.452309,-0.45968673
0.2058109,4.6526437,0.16297425,0.0016546985,0.04808736,0.04309563,-9.452309,-0.45968673
0.2057245,4.652815,0.16297425,-0.0004758304,0.051283155,0.10055647,-9.44752,-0.4357447
0.20563777,4.6529865,0.16297425,-0.0004758304,0.051283155,0.10055647,-9.44752,-0.4357447
0.2055554,4.653156,0.16084373,-0.0026063593,0.055544212,0.095768064,-9.481039,-0.4405331
0.20547304,4.6533246,0.16084373,-0.0026063593,0.055544212,0.095768064,-9.481039,-0.4405331
0.20539646,4.653487,0.15977846,-0.004736888,0.061935797,0.090979666,-9.562442,-0.521936
0.20531945,4.6536503,0.15977846,-0.004736888,0.061935797,0.090979666,-9.562442,-0.521936
0.20525223,4.6538143,0.15871319,-0.004736888,0.071523175,0.062249243,-9.528923,-0.49320555
0.2051854,4.6539774,0.15871319,-0.004736888,0.071523175,0.062249243,-9.528923,-0.49320555
0.20512562,4.6541357,0.15658267,-0.004736888,0.07898003,0.15322891,-9.548077,-0.5315128
0.20506582,4.6542935,0.15658267,-0.004736888,0.07898003,0.15322891,-9.548077,-0.5315128
0.20501564,4.6544504,0.15445215,-0.0026063593,0.088567406,0.16280572,-9.514558,-0.50278234
0.20496532,4.6546082,0.15445215,-0.0026063593,0.088567406,0.16280572,-9.514558,-0.50278234
0.2049218,4.6547575,0.1523216,-0.0004758304,0.09602426,0.16280572,-9.533711,-0.58418524
0.2048783,4.6549063,0.1523216,-0.0004758304,0.09602426,0.16280572,-9.533711,-0.58418524
0.20484391,4.6550455,0.14912581,0.002719963,0.10561164,0.15322891,-9.552865,-0.6703765
0.2048094,4.655185,0.14912581,0.002719963,0.10561164,0.15322891,-9.552865,-0.6703765
0.20478338,4.6553197,0.14486475,0.008046285,0.11413376,0.1388637,-9.552865,-0.6464345
0.20474206,4.6555333,0.14486475,0.008046285,0.11413376,0.1388637,-9.552865,-0.6464345
0.20473503,4.65559,0.14166896,0.0133726075,0.12372114,0.07182605,-9.504981,-0.56982
0.20471843,4.655725,0.14166896,0.0133726075,0.12372114,0.07182605,-9.504981,-0.56982
0.20470978,4.6558533,0.13953844,0.01869893,0.13224325,0.062249243,-9.500193,-0.62249243
0.20470117,4.655981,0.13953844,0.01869893,0.13224325,0.062249243,-9.500193,-0.62249243
0.20470186,4.6561074,0.13847317,0.022959989,0.14183064,0.10534488,-9.533711,-0.62249243
0.20470186,4.6561074,0.13847317,0.022959989,0.14183064,0.10534488,-9.533711,-0.62249243
0.20470625,4.656352,0.13847317,0.030416839,0.15248328,0.076614454,-9.552865,-0.6751649
0.20471768,4.656478,0.13847317,0.030416839,0.15248328,0.076614454,-9.552865,-0.6751649
0.20473929,4.656596,0.13740791,0.04000422,0.16313592,0.095768064,-9.572019,-0.7038953
0.20476004,4.6567097,0.13740791,0.04000422,0.16313592,0.095768064,-9.572019,-0.7038953
0.20478803,4.6568303,0.13740791,0.048526336,0.17059277,-0.08140286,-9.730036,-0.59855044
0.204816,4.656951,0.13740791,0.048526336,0.17059277,-0.08140286,-9.730036,-0.59855044
0.20485313,4.657076,0.1406037,0.05704845,0.18018015,-0.12449849,-9.92636,-0.5793968
0.2048902,4.6572,0.1406037,0.05704845,0.18018015,-0.12449849,-9.92636,-0.5793968
0.20493871,4.657318,0.14486475,0.0645053,0.19189806,-0.1388637,-9.868899,-0.6895301
0.20498653,4.6574354,0.14486475,0.0645053,0.19189806,-0.1388637,-9.868899,-0.6895301
0.2050497,4.6575556,0.15125635,0.07089689,0.20681177,-0.16759412,-9.868899,-0.7230489
0.20511383,4.657677,0.15125635,0.07089689,0.20681177,-0.16759412,-9.868899,-0.7230489
0.20518877,4.657798,0.1555174,0.07835374,0.21852967,-0.18195933,-9.825804,-0.7469909
0.20526311,4.657917,0.1555174,0.07835374,0.21852967,-0.18195933,-9.825804,-0.7469909
0.20534746,4.6580553,0.15977846,0.086875856,0.22811705,-0.1388637,-9.830592,-0.56982
0.205431,4.6581917,0.15977846,0.086875856,0.22811705,-0.1388637,-9.830592,-0.56982
0.20552172,4.658336,0.16403952,0.09007165,0.2355739,-0.15322891,-9.825804,-0.50278234
0.20561275,4.6584806,0.16403952,0.09007165,0.2355739,-0.15322891,-9.825804,-0.50278234
0.20571229,4.658641,0.16830058,0.08900639,0.24196549,-0.22984336,-9.878476,-0.36870706
0.20581162,4.6588,0.16830058,0.08900639,0.24196549,-0.22984336,-9.878476,-0.36870706
0.20591769,4.658975,0.17256163,0.082614794,0.24516128,-0.35913026,-9.878476,-0.2681506
0.20602499,4.6591516,0.17256163,0.082614794,0.24516128,-0.35913026,-9.878476,-0.2681506
0.20614381,4.6593432,0.17575742,0.07622321,0.2504876,-0.40222588,-9.935937,-0.23463176
0.20625041,4.6595154,0.17575742,0.07622321,0.2504876,-0.40222588,-9.935937,-0.23463176
0.20636886,4.6597033,0.17788796,0.06557056,0.25474867,-0.29688102,-9.998186,-0.17238252
0.20648736,4.659891,0.17788796,0.06557056,0.25474867,-0.29688102,-9.998186,-0.17238252
0.20662576,4.6601057,0.17895322,0.052787393,0.25900972,-0.1388637,-10.0029745,-0.1436521
0.20673387,4.660273,0.17895322,0.052787393,0.25900972,-0.1388637,-10.0029745,-0.1436521
0.20685938,4.6604643,0.17682269,0.038938954,0.26007497,-0.12449849,-10.031705,-0.17717093
0.20698297,4.660653,0.17682269,0.038938954,0.26007497,-0.12449849,-10.031705,-0.17717093
0.2071114,4.660853,0.1736269,0.024025252,0.25794446,-0.22026655,-10.041282,-0.02873042
0.20723961,4.661053,0.1736269,0.024025252,0.25794446,-0.22026655,-10.041282,-0.02873042
0.20737067,4.661262,0.16830058,0.0059157563,0.25261813,-0.23463176,-10.141838,0.1436521
0.20750174,4.661471,0.16830058,0.0059157563,0.25261813,-0.23463176,-10.141838,0.1436521
0.20762655,4.661683,0.16403952,-0.018585326,0.24303076,-0.21547815,-10.16578,0.21068975
0.20775196,4.6618967,0.16403952,-0.018585326,0.24303076,-0.21547815,-10.16578,0.21068975
0.20786951,4.6621137,0.16084373,-0.047347467,0.23237811,-0.1436521,-10.218452,0.2825158
0.20798564,4.6623287,0.16084373,-0.047347467,0.23237811,-0.1436521,-10.218452,0.2825158
0.20809275,4.6625557,0.15764794,-0.08356646,0.21533388,-0.1388637,-10.218452,0.39743748
0.20819896,4.6627817,0.15764794,-0.08356646,0.21533388,-0.1388637,-10.218452,0.39743748
0.20829533,4.663025,0.1555174,-0.12617704,0.19189806,-0.23463176,-10.275913,0.6368576
0.20839173,4.663268,0.1555174,-0.12617704,0.19189806,-0.23463176,-10.275913,0.6368576
0.2084844,4.663537,0.15871319,-0.17624447,0.16739698,-0.44532153,-10.400413,1.0007763
0.20857705,4.6638064,0.15871319,-0.17624447,0.16739698,-0.44532153,-10.400413,1.0007763
0.20866011,4.6641073,0.16936584,-0.23376875,0.13756958,-0.6703765,-10.644621,1.3838485
0.20874296,4.6644073,0.16936584,-0.23376875,0.13756958,-0.6703765,-10.644621,1.3838485
0.2088038,4.6647477,0.19280165,-0.2976846,0.10667691,-0.79966336,-10.860099,1.4987702
0.20886442,4.6650877,0.19280165,-0.2976846,0.10667691,-0.79966336,-10.860099,1.4987702
0.20890251,4.6654844,0.23115118,-0.3733184,0.074718975,-0.9528923,-11.008539,1.5849615
0.20894024,4.665881,0.23115118,-0.3733184,0.074718975,-0.9528923,-11.008539,1.5849615
0.20894024,4.665881,0.23115118,-0.3733184,0.074718975,-0.9528923,-11.008539,1.5849615
0.20896296,4.6668243,0.28121862,-0.46067008,0.04063051,-1.2354081,-11.128249,1.3599066
0.20893948,4.6673717,0.34193867,-0.5522828,0.007607311,-1.3742718,-11.200075,0.9864111
0.20893948,4.6673717,0.34193867,-0.5522828,0.007607311,-1.3742718,-11.200075,0.9864111
0.20887679,4.66849,0.41118088,-0.65028715,-0.02328536,-1.3742718,-11.190498,0.6368576
0.20881242,4.669112,0.41118088,-0.65028715,-0.02328536,-1.3742718,-11.190498,0.6368576
0.20869346,4.6698313,0.49001044,-0.7546831,-0.05417803,-1.1779473,-11.300632,0.33518824
0.20857157,4.6705613,0.49001044,-0.7546831,-0.05417803,-1.1779473,-11.300632,0.33518824
0.2084034,4.671377,0.58055794,-0.86334,-0.08720122,-0.9576807,-11.314998,0.1340753
0.2082341,4.6721916,0.58055794,-0.86334,-0.08720122,-0.9576807,-11.314998,0.1340753
0.2080158,4.673113,0.6828233,-0.9730623,-0.12661602,-0.8475474,-11.295844,-0.090979666
0.20779622,4.674033,0.6828233,-0.9730623,-0.12661602,-0.8475474,-11.295844,-0.090979666
0.20752952,4.675068,0.7957413,-1.0795888,-0.16922659,-0.81881696,-11.286267,-0.32561144
0.20726143,4.6761007,0.7957413,-1.0795888,-0.16922659,-0.81881696,-11.286267,-0.32561144
0.20694889,4.677251,0.9171815,-1.1829194,-0.21609822,-0.8858546,-11.233594,-0.5793968
0.20663337,4.6784062,0.9171815,-1.1829194,-0.21609822,-0.8858546,-11.233594,-0.5793968
0.20628111,4.6796803,1.0471437,-1.2851847,-0.2651004,-0.9672575,-11.109096,-0.7517793
0.20592684,4.6809564,1.0471437,-1.2851847,-0.2651004,-0.9672575,-11.109096,-0.7517793
0.20553285,4.6823764,1.1824323,-1.3885155,-0.3162331,-0.90500826,-10.94629,-0.9720459
0.20513862,4.683792,1.1824323,-1.3885155,-0.3162331,-0.90500826,-10.94629,-0.9720459
0.20450534,4.6860514,1.3198514,-1.4929113,-0.36843103,-0.81881696,-10.769119,-1.1061212
0.20425266,4.6869493,1.3198514,-1.4929113,-0.36843103,-0.81881696,-10.769119,-1.1061212
0.20376667,4.688657,1.4562052,-1.5919809,-0.420629,-0.6655881,-10.419566,-1.1971009
0.20327902,4.690362,1.4562052,-1.5919809,-0.420629,-0.6655881,-10.419566,-1.1971009
0.20273297,4.6922274,1.5893633,-1.6910505,-0.4749575,-0.4309563,-10.0987425,-1.2545617
0.20218535,4.694089,1.5893633,-1.6910505,-0.4749575,-0.4309563,-10.0987425,-1.2545617
0.20157036,4.696104,1.7139993,-1.7837285,-0.5346123,-0.31124622,-9.801862,-1.1827357
0.20095214,4.6981187,1.7139993,-1.7837285,-0.5346123,-0.31124622,-9.801862,-1.1827357
0.20026425,4.700268,1.8279825,-1.8678844,-0.59426713,-0.1340753,-9.615114,-1.0342951
0.19957332,4.7024136,1.8279825,-1.8678844,-0.59426713,-0.1340753,-9.615114,-1.0342951
0.19881094,4.7046833,1.9334438,-1.9403224,-0.6560525,-0.02873042,-9.471462,-0.8475474
0.19804421,4.7069526,1.9334438,-1.9403224,-0.6560525,-0.02873042,-9.471462,-0.8475474
0.19720471,4.709344,2.0303829,-1.9999772,-0.71570724,0.16280572,-9.332599,-0.641646
0.1963611,4.711732,2.0303829,-1.9999772,-0.71570724,0.16280572,-9.332599,-0.641646
0.19544917,4.7142253,2.1177344,-2.0447183,-0.7742968,0.4165911,-9.136273,-0.47405192
0.1945299,4.7167225,2.1177344,-2.0447183,-0.7742968,0.4165911,-9.136273,-0.47405192
0.19355094,4.719302,2.1965642,-2.0713499,-0.8296906,0.6368576,-8.954314,-0.30166942
0.19256508,4.721883,2.1965642,-2.0713499,-0.8296906,0.6368576,-8.954314,-0.30166942
0.19256508,4.721883,2.1965642,-2.0713499,-0.8296906,0.6368576,-8.954314,-0.30166942
0.19044688,4.7272468,2.2658062,-2.0788069,-0.8818885,0.8475474,-8.710106,-0.22505496
0.18880205,4.731272,2.3254611,-2.0660236,-0.9287602,1.0007763,-8.384495,-0.29209262
0.18823752,4.732645,2.3254611,-2.0660236,-0.9287602,1.0007763,-8.384495,-0.29209262
0.18708946,4.735365,2.3723328,-2.0372615,-0.97030544,1.1971009,-8.073248,-0.35434186
0.18593733,4.738078,2.3723328,-2.0372615,-0.97030544,1.1971009,-8.073248,-0.35434186
0.18593733,4.738078,2.3723328,-2.0372615,-0.97030544,1.1971009,-8.073248,-0.35434186
0.18354799,4.743533,2.4042907,-1.9925203,-1.0065244,1.3599066,-7.6135616,-0.5267244
0.18231949,4.7462597,2.4202697,-1.930735,-1.0342213,1.5466543,-7.1490865,-0.8475474
0.18109003,4.7489743,2.4202697,-1.930735,-1.0342213,1.5466543,-7.1490865,-0.8475474
0.18109003,4.7489743,2.4202697,-1.930735,-1.0342213,1.5466543,-7.1490865,-0.8475474
0.17863868,4.754232,2.4160085,-1.8561665,-1.0565919,1.6519991,-6.7133417,-1.1492168
0.17732656,4.7569666,2.3904421,-1.7709453,-1.0704403,1.6567876,-6.2392898,-1.3934253
0.17606089,4.759592,2.3904421,-1.7709453,-1.0704403,1.6567876,-6.2392898,-1.3934253
0.17479992,4.7621436,2.34144,-1.6761369,-1.0704403,1.661576,-5.7508726,-1.541866
0.17353538,4.764692,2.34144,-1.6761369,-1.0704403,1.661576,-5.7508726,-1.541866
0.17353538,4.764692,2.34144,-1.6761369,-1.0704403,1.661576,-5.7508726,-1.541866
0.17108682,4.769508,2.2700675,-1.5728061,-1.0576571,1.6089035,-5.386954,-1.7477672
0.16983204,4.7719193,2.1773894,-1.4609534,-1.028895,1.6472107,-4.9799395,-1.8435353
0.16861922,4.7742424,2.1773894,-1.4609534,-1.028895,1.6472107,-4.9799395,-1.8435353
0.16745219,4.776429,2.0602102,-1.3384479,-0.9852192,1.733402,-4.7022123,-1.9009962
0.16628149,4.7786164,2.0602102,-1.3384479,-0.9852192,1.733402,-4.7022123,-1.9009962
0.16517805,4.7806373,1.9206606,-1.2063552,-0.9244991,1.7812861,-4.4915223,-1.8483237
0.1640737,4.782654,1.9206606,-1.2063552,-0.9244991,1.7812861,-4.4915223,-1.8483237
0.1640737,4.782654,1.9206606,-1.2063552,-0.9244991,1.7812861,-4.4915223,-1.8483237
0.16202474,4.786332,1.7608709,-1.0668056,-0.84673476,1.8483237,-4.2425256,-1.8387469
0.16109487,4.78797,1.5819066,-0.91660327,-0.7561873,1.9632454,-4.0940847,-1.7429788
0.16016752,4.7896,1.5819066,-0.91660327,-0.7561873,1.9632454,-4.0940847,-1.7429788
0.16016752,4.7896,1.5819066,-0.91660327,-0.7561873,1.9632454,-4.0940847,-1.7429788
0.15857121,4.7923646,1.3827021,-0.75787884,-0.6496609,1.9776106,-3.9456444,-1.6807296
0.15786083,4.793577,1.1589965,-0.5927629,-0.52715546,1.8914193,-3.8307228,-1.6136919
0.15786083,4.793577,1.1589965,-0.5927629,-0.52715546,1.8914193,-3.8307228,-1.6136919
0.15655658,4.795798,0.915051,-0.4212553,-0.3908016,1.7286136,-3.8019924,-1.5897499
0.15600353,4.796728,0.915051,-0.4212553,-0.3908016,1.7286136,-3.8019924,-1.5897499
0.15564509,4.7973156,0.64873487,-0.25081298,-0.24272984,1.5179238,-3.7014358,-1.5035586
0.15528266,4.7979097,0.64873487,-0.25081298,-0.24272984,1.5179238,-3.7014358,-1.5035586
0.15509392,4.7981977,0.3621787,-0.08356646,-0.07867911,1.4221559,-3.8259344,-1.2785037
0.15490459,4.7984867,0.3621787,-0.08356646,-0.07867911,1.4221559,-3.8259344,-1.2785037
0.15491109,4.7984476,0.05857834,0.079419,0.09815479,1.1204864,-4.0174704,-1.1587936
0.15491109,4.7984476,0.05857834,0.079419,0.09815479,1.1204864,-4.0174704,-1.1587936
0.15497378,4.798287,-0.261001,0.23707815,0.2867066,0.89064306,-4.295198,-1.1061212
0.15519671,4.797888,-0.261001,0.23707815,0.2867066,0.89064306,-4.295198,-1.1061212
0.15562463,4.7971535,-0.59123296,0.38621518,0.4848458,0.61291564,-4.525041,-0.92416185
0.15562463,4.7971535,-0.59123296,0.38621518,0.4848458,0.61291564,-4.525041,-0.92416185
0.15652232,4.795617,-0.9267913,0.52469957,0.6936376,0.48841715,-4.879383,-0.8571242
0.15718894,4.7944965,-0.9267913,0.52469957,0.6936376,0.48841715,-4.879383,-0.8571242
0.15718894,4.7944965,-0.9267913,0.52469957,0.6936376,0.48841715,-4.879383,-0.8571242
0.15893732,4.791602,-1.2655454,0.65253127,0.90455997,0.2825158,-5.2049947,-0.8283938
0.16003123,4.7897997,-1.6021689,0.76971036,1.1197433,0.272939,-5.5401826,-0.7565677
0.16003123,4.7897997,-1.6021689,0.76971036,1.1197433,0.272939,-5.5401826,-0.7565677
0.16232108,4.7860236,-1.932401,0.8762368,1.3317311,0.16280572,-5.932832,-0.6560113
0.16362593,4.7838774,-1.932401,0.8762368,1.3317311,0.16280572,-5.932832,-0.6560113
0.16362593,4.7838774,-1.932401,0.8762368,1.3317311,0.16280572,-5.932832,-0.6560113
0.16659087,4.7790184,-2.2530456,0.9731759,1.537327,0.047884032,-6.3542113,-0.6368576
0.16838007,4.7760887,-2.5598416,1.058397,1.7354662,-0.076614454,-6.7803793,-0.5267244
0.17008612,4.773287,-2.5598416,1.058397,1.7354662,-0.076614454,-6.7803793,-0.5267244
0.17008612,4.773287,-2.5598416,1.058397,1.7354662,-0.076614454,-6.7803793,-0.5267244
0.17385888,4.767084,-2.8495936,1.1319003,1.9229528,-0.12449849,-7.240066,-0.46447513
0.17591082,4.763694,-3.1191056,1.1915551,2.0944605,-0.076614454,-7.73806,-0.33518824
0.17794901,4.760315,-3.1191056,1.1915551,2.0944605,-0.076614454,-7.73806,-0.33518824
0.17794901,4.760315,-3.1191056,1.1915551,2.0944605,-0.076614454,-7.73806,-0.33518824
0.18235752,4.753025,-3.3651817,1.2416226,2.25425,-0.31603462,-8.461109,-0.48362875
0.18469447,4.7491484,-3.5910177,1.2746457,2.399126,-0.6847417,-8.848969,-0.19632454
0.18702547,4.745267,-3.5910177,1.2746457,2.399126,-0.6847417,-8.848969,-0.19632454
0.18947567,4.741237,-3.793418,1.2852983,2.5258925,-0.7757214,-9.423578,0.49799395
0.19208537,4.7369385,-3.793418,1.2852983,2.5258925,-0.7757214,-9.423578,0.49799395
0.19208537,4.7369385,-3.793418,1.2852983,2.5258925,-0.7757214,-9.423578,0.49799395
0.19696544,4.729108,-3.9606645,1.2852983,2.6420064,-0.7134721,-10.237606,1.1875241
0.19972585,4.7247386,-4.0821047,1.2831678,2.7474675,-0.61770403,-11.070788,1.7190368
0.20239839,4.7204957,-4.0821047,1.2831678,2.7474675,-0.61770403,-11.070788,1.7190368
0.20239839,4.7204957,-4.0821047,1.2831678,2.7474675,-0.61770403,-11.070788,1.7190368
0.20793371,4.711818,-4.1545424,1.2799721,2.8358843,-0.5793968,-11.760319,2.0111294
0.2107613,4.7074513,-4.183305,1.2757109,2.907257,-0.62728083,-12.521675,2.1978772
0.2107613,4.7074513,-4.183305,1.2757109,2.907257,-0.62728083,-12.521675,2.1978772
0.21644458,4.698682,-4.167326,1.263993,2.9573245,-0.58418524,-13.177686,2.5139117
0.21931209,4.69431,-4.167326,1.263993,2.9573245,-0.58418524,-13.177686,2.5139117
0.22219975,4.6899943,-4.107671,1.2458836,2.9850214,-0.45968673,-13.809755,2.657564
0.22508495,4.685667,-4.107671,1.2458836,2.9850214,-0.45968673,-13.809755,2.657564
0.22508495,4.685667,-4.107671,1.2458836,2.9850214,-0.45968673,-13.809755,2.657564
0.23086926,4.677198,-4.0064707,1.2203172,2.9967394,-0.5506664,-14.322115,2.6479871
0.23373616,4.673107,-3.8669212,1.187294,2.9882174,-0.60812724,-14.848839,2.4516625
0.23660101,4.669006,-3.8669212,1.187294,2.9882174,-0.60812724,-14.848839,2.4516625
0.23942915,4.665082,-3.6922178,1.1414877,2.9583898,-0.6560113,-16.745047,2.5378537
0.23942915,4.665082,-3.6922178,1.1414877,2.9583898,-0.6560113,-16.745047,2.5378537
0.24523085,4.6570754,-3.4621208,1.0818329,2.9083223,-1.508347,-18.186356,3.0310593
0.24788822,4.6535506,-3.4621208,1.0818329,2.9083223,-1.508347,-18.186356,3.0310593
0.25057203,4.6502137,-3.164912,0.9902201,2.838015,-1.5466543,-14.03481,1.8674773
0.25327373,4.646844,-3.164912,0.9902201,2.838015,-1.5466543,-14.03481,1.8674773
0.25584188,4.643751,-2.9007263,0.86025786,2.7112484,2.2840683,-21.758505,5.741296
0.25841472,4.6406446,-2.9007263,0.86025786,2.7112484,2.2840683,-21.758505,5.741296
0.2609235,4.6379,-2.5641026,0.82190835,2.6228316,-2.3750482,-23.238121,4.745308
0.26344183,4.6351366,-2.5641026,0.82190835,2.6228316,-2.3750482,-23.238121,4.745308
0.2661658,4.632503,-2.1177568,0.723904,2.484347,-1.8435353,-24.100035,4.1706996
0.26810896,4.63062,-2.1177568,0.723904,2.484347,-1.8435353,-24.100035,4.1706996
0.27031153,4.6288977,-1.6000384,0.57370174,2.3160353,-2.7724855,-24.296358,3.5003228
0.272517,4.627169,-1.6000384,0.57370174,2.3160353,-2.7724855,-24.296358,3.5003228
0.27455956,4.6260643,-1.0343829,0.41071624,2.137071,-4.1515455,-22.835896,2.1212628
0.27660486,4.624955,-1.0343829,0.41071624,2.137071,-4.1515455,-22.835896,2.1212628
0.27844828,4.6244693,-0.4644665,0.20298968,1.935736,-2.9975405,-21.284452,1.6280571
0.28029093,4.6239824,-0.4644665,0.20298968,1.935736,-2.9975405,-21.284452,1.6280571
0.2819467,4.6240997,0.07029625,-0.016454797,1.7226831,-3.1507695,-22.70661,2.1404164
0.28360024,4.6242166,0.07029625,-0.016454797,1.7226831,-3.1507695,-22.70661,2.1404164
0.28505155,4.6249156,0.5954716,-0.20607187,1.512826,-3.2082303,-22.639572,1.4317327
0.2865021,4.6256146,0.5954716,-0.20607187,1.512826,-3.2082303,-22.639572,1.4317327
0.28772038,4.6269083,1.1312996,-0.40101525,1.2731415,-2.6431987,-22.960394,1.2976574
0.28893498,4.6281996,1.1312996,-0.40101525,1.2731415,-2.6431987,-22.960394,1.2976574
0.28991753,4.630089,1.6692582,-0.5725228,1.0249349,-3.490746,-22.510284,0.7326257
0.29089886,4.631981,1.6692582,-0.5725228,1.0249349,-3.490746,-22.510284,0.7326257
0.29163173,4.6344633,2.2114778,-0.72911674,0.77353245,-3.8594532,-21.945253,0.08140286
0.29236114,4.6369457,2.2114778,-0.72911674,0.77353245,-3.8594532,-21.945253,0.08140286
0.29281616,4.6400084,2.7494364,-0.8921022,0.5050858,-3.7588966,-20.977995,-0.4357447
0.29326677,4.6430726,2.7494364,-0.8921022,0.5050858,-3.7588966,-20.977995,-0.4357447
0.2934227,4.646699,3.275677,-1.0497613,0.22066021,-3.2704794,-19.709068,-0.9816227
0.293572,4.6502833,3.275677,-1.0497613,0.22066021,-3.2704794,-19.709068,-0.9816227
0.2933559,4.6564593,3.779547,-1.1903763,-0.076548584,-2.8203697,-18.732235,-1.0151415
0.29327846,4.658588,3.779547,-1.1903763,-0.076548584,-2.8203697,-18.732235,-1.0151415
0.29282513,4.663227,4.25572,-1.3054248,-0.38334474,-2.6767175,-17.81765,-0.90979666
0.2923639,4.6678743,4.25572,-1.3054248,-0.38334474,-2.6767175,-17.81765,-0.90979666
0.29158834,4.673028,4.7095227,-1.3981028,-0.69546723,-2.8778305,-17.367538,-0.60812724
0.29080614,4.678164,4.7095227,-1.3981028,-0.69546723,-2.8778305,-17.367538,-0.60812724
0.2897008,4.683769,5.149477,-1.4790629,-1.0129161,-2.8538885,-16.97489,-0.51235914
0.2885866,4.6893644,5.149477,-1.4790629,-1.0129161,-2.8538885,-16.97489,-0.51235914
0.28714564,4.6954093,5.5830398,-1.5536314,-1.3314301,-3.0214825,-16.151285,-0.50757074
0.2857517,4.7012124,5.5830398,-1.5536314,-1.3314301,-3.0214825,-16.151285,-0.50757074
0.2842957,4.7072315,5.5830398,-1.5536314,-1.3314301,-3.0214825,-16.151285,-0.50757074
0.2824521,4.7139125,6.0080805,-1.6186125,-1.6478137,-2.9640217,-15.887922,-0.44532153
0.28035298,4.7207823,6.4192724,-1.66868,-1.9556751,-2.825158,-15.720328,-0.40222588
0.27824888,4.727629,6.4192724,-1.66868,-1.9556751,-2.825158,-15.720328,-0.40222588
0.27586442,4.7348204,6.8272686,-1.704899,-2.2496881,-2.3463178,-15.251065,-0.6607997
0.27343926,4.7420983,6.8272686,-1.704899,-2.2496881,-2.3463178,-15.251065,-0.6607997
0.27073252,4.749721,7.232069,-1.7219431,-2.5373094,-2.1452048,-15.016433,-0.6607997
0.2680187,4.757328,7.232069,-1.7219431,-2.5373094,-2.1452048,-15.016433,-0.6607997
0.26511267,4.7652817,7.6326084,-1.725139,-2.801495,-3.3423057,-13.742718,-0.89064306
0.26219556,4.7732315,7.6326084,-1.725139,-2.801495,-3.3423057,-13.742718,-0.89064306
0.25910026,4.7815657,8.027822,-1.7240738,-3.0358531,-4.8267107,-14.858416,-0.842759
0.25599214,4.7898874,8.027822,-1.7240738,-3.0358531,-4.8267107,-14.858416,-0.842759
0.25268617,4.798596,8.4241,-1.745379,-3.2265356,-5.1762643,-14.858416,-1.2018893
0.24936715,4.8072915,8.4241,-1.745379,-3.2265356,-5.1762643,-14.858416,-1.2018893
0.2458891,4.816372,8.816117,-1.7837285,-3.3724768,-5.415684,-14.518439,-1.6663644
0.24239783,4.825439,8.816117,-1.7837285,-3.3724768,-5.415684,-14.518439,-1.6663644
0.23878402,4.8348837,9.194286,-1.838057,-3.4885907,-5.9759274,-13.713987,-2.1404164
0.23515657,4.8443136,9.194286,-1.838057,-3.4885907,-5.9759274,-13.713987,-2.1404164
0.23143168,4.854105,9.54902,-1.9115603,-3.5802033,-6.813898,-12.698846,-2.4277205
0.2276926,4.863881,9.54902,-1.9115603,-3.5802033,-6.813898,-12.698846,-2.4277205
0.22386418,4.873999,9.87286,-2.0084994,-3.6441193,-6.895301,-11.295844,-2.6001031
0.22002882,4.884082,9.87286,-2.0084994,-3.6441193,-6.895301,-11.295844,-2.6001031
0.21610393,4.894454,10.151959,-2.124613,-3.6814034,-5.5162406,-9.442732,-3.0502129
0.21216404,4.9048114,10.151959,-2.124613,-3.6814034,-5.5162406,-9.442732,-3.0502129
0.20812996,4.9153795,10.368208,-2.2375312,-3.7059045,-3.169923,-7.273585,-3.6008794
0.20408097,4.925933,10.505627,-2.3206217,-3.732536,-0.80924016,-5.3007627,-3.845088
0.20408097,4.925933,10.505627,-2.3206217,-3.732536,-0.80924016,-5.3007627,-3.845088
0.20408097,4.925933,10.505627,-2.3206217,-3.732536,-0.80924016,-5.3007627,-3.845088
0.1915777,4.9579616,10.505627,-2.3206217,-3.732536,-0.80924016,-5.3007627,-3.845088
0.187394,4.9684305,10.550368,-2.357906,-3.771951,0.6607997,-3.5338416,-3.8546648
0.18311588,4.979088,10.550368,-2.357906,-3.771951,0.6607997,-3.5338416,-3.8546648
0.17877102,4.9896564,10.497105,-2.337666,-3.8188226,1.4173675,-1.5753847,-3.7780502
0.17427543,5.000339,10.339446,-2.2599018,-3.860368,1.7764976,1.0821792,-4.1611223
0.1698776,5.010749,10.339446,-2.2599018,-3.860368,1.7764976,1.0821792,-4.1611223
0.16557536,5.0207415,10.061412,-2.1267438,-3.8838038,1.2976574,3.2848446,-4.9176903
0.16115947,5.030966,10.061412,-2.1267438,-3.8838038,1.2976574,3.2848446,-4.9176903
0.15681417,5.0406904,9.666199,-1.9616277,-3.8763468,4.19943,5.473145,-4.759673
0.1524666,5.050397,9.666199,-1.9616277,-3.8763468,4.19943,5.473145,-4.759673
0.14813872,5.0595675,9.134631,-1.8007728,-3.8742163,6.2488666,4.477157,-3.394978
0.14380658,5.068732,9.134631,-1.8007728,-3.8742163,6.2488666,4.477157,-3.394978
0.13947485,5.07788,9.134631,-1.8007728,-3.8742163,6.2488666,4.477157,-3.394978
0.13527943,5.0863733,8.499734,-1.5269998,-3.8177574,5.971139,3.892972,-3.0023289
0.13109136,5.094845,8.499734,-1.5269998,-3.8177574,5.971139,3.892972,-3.0023289
0.12708692,5.1026125,7.810508,-1.2404437,-3.7410583,5.2720323,4.841076,-3.1986535
0.123091996,5.1103616,7.810508,-1.2404437,-3.7410583,5.2720323,4.841076,-3.1986535
0.11931372,5.1173773,7.070149,-0.9751928,-3.638793,4.453215,7.747637,-3.7253778
0.11555372,5.124365,7.070149,-0.9751928,-3.638793,4.453215,7.747637,-3.7253778
0.11203083,5.1305437,6.2488303,-0.7387041,-3.493917,3.5434184,9.533711,-3.3375173
0.10851557,5.136718,6.2488303,-0.7387041,-3.493917,3.5434184,9.533711,-3.3375173
0.10526453,5.1419764,5.3358984,-0.54269546,-3.2989736,4.0940847,10.28549,-2.0973208
0.10201444,5.1472416,5.3358984,-0.54269546,-3.2989736,4.0940847,10.28549,-2.0973208
0.09906688,5.1515193,4.3547897,-0.37225312,-3.0571585,4.4915223,10.419566,-0.6607997
0.09611422,5.1558113,4.3547897,-0.37225312,-3.0571585,4.4915223,10.419566,-0.6607997
0.09347344,5.1591134,3.3385277,-0.19861501,-2.772733,5.291186,9.452309,0.90500826
0.09085413,5.1623945,3.3385277,-0.19861501,-2.772733,5.291186,9.452309,0.90500826
0.088601,5.1646566,2.3201349,-0.023911647,-2.45848,5.511452,8.992621,1.7908629
0.08634326,5.166927,2.3201349,-0.023911647,-2.45848,5.511452,8.992621,1.7908629
0.08447817,5.168201,1.3166556,0.15931384,-2.112269,4.960786,8.212111,2.27928
0.08261427,5.1694765,1.3166556,0.15931384,-2.112269,4.960786,8.212111,2.27928
0.08261427,5.1694765,1.3166556,0.15931384,-2.112269,4.960786,8.212111,2.27928
0.07944524,5.1699204,-0.62319094,0.48848057,-1.3644533,5.094861,6.3685765,2.681506
0.078246616,5.1691775,-0.62319094,0.48848057,-1.3644533,5.094861,6.3685765,2.681506
0.0775889,5.168771,-0.62319094,0.48848057,-1.3644533,5.094861,6.3685765,2.681506
0.07693517,5.167183,-1.5446447,0.63655233,-0.972436,5.3199162,5.2528787,2.834735
0.07628762,5.165615,-1.5446447,0.63655233,-0.972436,5.3199162,5.2528787,2.834735
0.076044224,5.163176,-2.4181616,0.7771672,-0.58148396,5.2720323,4.0797195,2.920926
0.07580011,5.160752,-2.4181616,0.7771672,-0.58148396,5.2720323,4.0797195,2.920926
0.075950004,5.157503,-3.2330887,0.90712947,-0.1958582,4.8458643,2.7485435,2.9640217
0.07609814,5.154232,-3.2330887,0.90712947,-0.1958582,4.8458643,2.7485435,2.9640217
0.07663138,5.150246,-3.9819698,1.0264391,0.18870227,4.343082,1.3982137,2.8060043
0.077165216,5.1462317,-3.9819698,1.0264391,0.18870227,4.343082,1.3982137,2.8060043
0.078067206,5.141571,-4.6594777,1.1319003,0.5690017,4.1515455,-0.05746084,2.767697
0.07896579,5.136909,-4.6594777,1.1319003,0.5690017,4.1515455,-0.05746084,2.767697
0.08022395,5.131631,-5.2645483,1.2256435,0.940779,3.7445314,-1.5705963,2.6144683
0.08147873,5.1263514,-5.2645483,1.2256435,0.940779,3.7445314,-1.5705963,2.6144683
0.08308288,5.1204967,-5.792919,1.3055384,1.2965773,3.490746,-3.1316159,2.6048915
0.08465813,5.1147337,-5.792919,1.3055384,1.2965773,3.490746,-3.1316159,2.6048915
0.08657192,5.1084433,-6.24033,1.3758458,1.6353314,2.9400797,-4.5537715,2.3942018
0.08847661,5.1021695,-6.24033,1.3758458,1.6353314,2.9400797,-4.5537715,2.3942018
0.09068373,5.095482,-6.613173,1.4291091,1.9506497,2.2026656,-6.0285997,2.006341
0.09395584,5.0855417,-6.613173,1.4291091,1.9506497,2.2026656,-6.0285997,2.006341
0.09527266,5.081838,-6.9178386,1.461067,2.2435975,1.4508862,-7.249643,1.7429788
0.09527266,5.081838,-6.9178386,1.461067,2.2435975,1.4508862,-7.249643,1.7429788
0.10030196,5.0678067,-7.161784,1.4631976,2.5141745,1.6232687,-8.671799,1.9249382
0.10305032,5.0605197,-7.161784,1.4631976,2.5141745,1.6232687,-8.671799,1.9249382
0.10604065,5.053056,-7.34501,1.449349,2.769838,1.13964,-9.662998,1.9297266
0.10903066,5.045576,-7.34501,1.449349,2.769838,1.13964,-9.662998,1.9297266
0.112269975,5.0379744,-7.467515,1.4323049,3.0137837,0.4213795,-10.927136,1.7286136
0.11549625,5.030386,-7.467515,1.4323049,3.0137837,0.4213795,-10.927136,1.7286136
0.11894876,5.022726,-7.5314307,1.3971511,3.2417502,-0.08619126,-11.9374895,1.6950948
0.12239833,5.0150557,-7.5314307,1.3971511,3.2417502,-0.08619126,-11.9374895,1.6950948
0.12604497,5.0073996,-7.5367575,1.3428227,3.454803,-0.545878,-12.684481,1.5131354
0.12968957,4.999732,-7.5367575,1.3428227,3.454803,-0.545878,-12.684481,1.5131354
0.13352251,4.9921227,-7.4866896,1.2746457,3.6529422,-1.0151415,-13.110648,1.1875241
0.13735846,4.9844933,-7.4866896,1.2746457,3.6529422,-1.0151415,-13.110648,1.1875241
0.14134327,4.976987,-7.390816,1.1947509,3.8351026,-1.2018893,-13.431472,1.1348516
0.14533164,4.9694614,-7.390816,1.1947509,3.8351026,-1.2018893,-13.431472,1.1348516
0.14945409,4.9620914,-7.2565928,1.1031381,4.0002184,-1.340753,-13.8480625,1.0055647
0.15361373,4.9546432,-7.2565928,1.1031381,4.0002184,-1.340753,-13.8480625,1.0055647
0.1578198,4.947515,-7.0829544,1.0083296,4.14829,-1.508347,-14.322115,1.067814
0.16188644,4.9406123,-7.0829544,1.0083296,4.14829,-1.508347,-14.322115,1.067814
0.16627774,4.9335585,-6.872032,0.90926003,4.2729263,-1.6711528,-14.700398,1.1971009
0.1707383,4.926382,-6.872032,0.90926003,4.2729263,-1.6711528,-14.700398,1.1971009
0.1751248,4.9196997,-6.6312823,0.8091252,4.377322,-1.6998832,-15.136143,1.3215994
0.17949781,4.9130273,-6.6312823,0.8091252,4.377322,-1.6998832,-15.136143,1.3215994
0.18393762,4.906609,-6.3575096,0.7121861,4.454021,-1.6567876,-15.547946,1.5658079
0.1884027,4.900144,-6.3575096,0.7121861,4.454021,-1.6567876,-15.547946,1.5658079
0.1928558,4.8940487,-6.051779,0.62057334,4.4998274,-1.7477672,-16.055517,1.7286136
0.19730285,4.887953,-6.051779,0.62057334,4.4998274,-1.7477672,-16.055517,1.7286136
0.20173489,4.8822126,-5.7215466,0.5406785,4.512611,-1.9057846,-16.563087,1.9249382
0.20616092,4.8764734,-5.7215466,0.5406785,4.512611,-1.9057846,-16.563087,1.9249382
0.2105597,4.871096,-5.367879,0.46824053,4.4955664,-2.0494366,-16.965313,2.0638018
0.21494494,4.8657327,-5.367879,0.46824053,4.4955664,-2.0494366,-16.965313,2.0638018
0.2192829,4.860744,-4.9961014,0.40112886,4.450825,-2.0733786,-17.319654,2.0446482
0.22360936,4.855768,-4.9961014,0.40112886,4.450825,-2.0733786,-17.319654,2.0446482
0.22786847,4.8511744,-4.6104755,0.33827826,4.380518,-2.303222,-17.587805,1.9871874
0.23211673,4.846594,-4.6104755,0.33827826,4.380518,-2.303222,-17.587805,1.9871874
0.23626508,4.842413,-4.209936,0.27649292,4.280383,-2.633622,-17.683575,1.9249382
0.24041127,4.838236,-4.209936,0.27649292,4.280383,-2.633622,-17.683575,1.9249382
0.2444093,4.834501,-3.797679,0.20725074,4.147225,-2.327164,-17.621325,1.9967642
0.24841988,4.8307576,-3.797679,0.20725074,4.147225,-2.327164,-17.621325,1.9967642
0.2522515,4.8274393,-3.3758342,0.12842117,3.9799786,-2.8107927,-17.27656,1.7429788
0.2561017,4.8241086,-3.3758342,0.12842117,3.9799786,-2.8107927,-17.27656,1.7429788
0.25969672,4.8212757,-2.9465327,0.04000422,3.7786434,-2.231396,-17.070658,1.8291701
0.2633182,4.818425,-2.9465327,0.04000422,3.7786434,-2.231396,-17.070658,1.8291701
0.26669958,4.8160286,-2.5161657,-0.053739052,3.5453506,-2.1643584,-16.836027,1.8674773
0.27008238,4.8136334,-2.5161657,-0.053739052,3.5453506,-2.1643584,-16.836027,1.8674773
0.27320102,4.8116927,-2.0804727,-0.1453518,3.284361,-1.7286136,-16.247053,1.8291701
0.276321,4.8097525,-2.0804727,-0.1453518,3.284361,-1.7286136,-16.247053,1.8291701
0.27913854,4.8082495,-1.6447796,-0.23589927,2.9967394,-2.1787236,-15.1936035,1.3503298
0.2819597,4.8067465,-1.6447796,-0.23589927,2.9967394,-2.1787236,-15.1936035,1.3503298
0.28446096,4.805705,-1.2186737,-0.32644674,2.681421,-1.7381904,-14.743494,1.5562311
0.28696048,4.8046665,-1.2186737,-0.32644674,2.681421,-1.7381904,-14.743494,1.5562311
0.28912243,4.8040643,-0.8042859,-0.4116679,2.3447976,-1.316811,-14.590265,1.7046716
0.2912848,4.803464,-0.8042859,-0.4116679,2.3447976,-1.316811,-14.590265,1.7046716
0.29309115,4.8032703,-0.40374643,-0.47664905,1.9943255,-1.3263878,-13.962984,1.532289
0.29489768,4.8030787,-0.40374643,-0.47664905,1.9943255,-1.3263878,-13.962984,1.532289
0.2963427,4.803283,-0.015990173,-0.5277817,1.6353314,-1.1731589,-13.594277,1.541866
0.29778755,4.8034887,-0.015990173,-0.5277817,1.6353314,-1.1731589,-13.594277,1.541866
0.29886886,4.804072,0.3536566,-0.5703923,1.2731415,-1.5370775,-13.584701,1.5993267
0.29994965,4.804656,0.3536566,-0.5703923,1.2731415,-1.5370775,-13.584701,1.5993267
0.30066603,4.8056035,0.7073244,-0.6130029,0.9098863,-1.7046716,-13.852851,1.7477672
0.3013814,4.806551,0.7073244,-0.6130029,0.9098863,-1.7046716,-13.852851,1.7477672
0.30173326,4.80785,1.0524701,-0.65880924,0.54876167,-1.8243817,-13.982138,1.7812861
0.30213827,4.80935,1.0524701,-0.65880924,0.54876167,-1.8243817,-13.982138,1.7812861
0.3021362,4.810732,1.3880284,-0.70141983,0.20255071,-2.2457612,-14.087482,1.6328455
0.3021323,4.8123493,1.3880284,-0.70141983,0.20255071,-2.2457612,-14.087482,1.6328455
0.30179277,4.814283,1.7108035,-0.7440304,-0.12555075,-2.695871,-14.355634,1.3982137
0.30144998,4.8162236,1.7108035,-0.7440304,-0.12555075,-2.695871,-14.355634,1.3982137
0.30079526,4.818451,2.0175996,-0.7994242,-0.4355427,-2.9496565,-14.647726,1.2785037
0.30014032,4.820672,2.0175996,-0.7994242,-0.4355427,-2.9496565,-14.647726,1.2785037
0.29919243,4.8231916,2.309482,-0.86227477,-0.7220988,-2.9735985,-14.911088,1.283292
0.29824385,4.8257065,2.309482,-0.86227477,-0.7220988,-2.9735985,-14.911088,1.283292
0.29703647,4.828486,2.583255,-0.9304517,-0.98202336,-2.9352913,-14.958972,1.0965444
0.2958266,4.831266,2.583255,-0.9304517,-0.98202336,-2.9352913,-14.958972,1.0965444
0.29439563,4.83429,2.8389187,-0.99543285,-1.2163815,-3.0789435,-14.729129,0.7757214
0.29296815,4.837303,2.8389187,-0.99543285,-1.2163815,-3.0789435,-14.729129,0.7757214
0.29137138,4.840532,3.070081,-1.052957,-1.419847,-3.3614593,-14.025233,0.40222588
0.28977162,4.843763,3.070081,-1.052957,-1.419847,-3.3614593,-14.025233,0.40222588
0.28735316,4.848507,3.2735465,-1.0987635,-1.5913546,-3.4715924,-13.215993,-0.02873042
0.28618723,4.850791,3.2735465,-1.0987635,-1.5913546,-3.4715924,-13.215993,-0.02873042
0.2843302,4.8543415,3.4482498,-1.128591,-1.7287737,-3.2944214,-12.229582,-0.37828386
0.2824884,4.8578568,3.4482498,-1.128591,-1.7287737,-3.2944214,-12.229582,-0.37828386
0.280535,4.861527,3.5877995,-1.1360477,-1.8299738,-2.9640217,-10.984597,-0.8379706
0.27854982,4.8652496,3.5877995,-1.1360477,-1.8299738,-2.9640217,-10.984597,-0.8379706
0.2764923,4.869056,3.685804,-1.1179383,-1.8960203,-2.27928,-9.490616,-1.4652514
0.2744389,4.8728476,3.685804,-1.1179383,-1.8960203,-2.27928,-9.490616,-1.4652514
0.27233014,4.876675,3.7316103,-1.0731971,-1.9396961,-1.4317327,-8.034941,-2.1883004
0.27021915,4.880499,3.7316103,-1.0731971,-1.9396961,-1.4317327,-8.034941,-2.1883004
0.26808447,4.884279,3.7156312,-0.9996939,-1.9684583,-0.78529817,-6.6510925,-2.7102363
0.26594782,4.888055,3.7156312,-0.9996939,-1.9684583,-0.78529817,-6.6510925,-2.7102363
0.26381046,4.891715,3.633606,-0.89636326,-1.9812415,-0.34955344,-5.57849,-2.8682537
0.26167163,4.895372,3.633606,-0.89636326,-1.9812415,-0.34955344,-5.57849,-2.8682537
0.25955477,4.8988466,3.4865994,-0.7685315,-1.9769803,-0.090979666,-4.55856,-2.8060043
0.25743917,4.902315,3.4865994,-0.7685315,-1.9769803,-0.090979666,-4.55856,-2.8060043
0.25536662,4.905531,3.2778075,-0.61406815,-1.9556751,0.25378537,-3.6152446,-2.7150247
0.25536662,4.905531,3.2778075,-0.61406815,-1.9556751,0.25378537,-3.6152446,-2.7150247
0.2502974,4.912859,3.0114913,-0.43829954,-1.915195,0.545878,-2.7629087,-2.4851813
0.2492556,4.914364,3.0114913,-0.43829954,-1.915195,0.545878,-2.7629087,-2.4851813
0.24740148,4.916808,2.690847,-0.24761719,-1.8555403,0.79966336,-2.1691468,-2.1308396
0.2454788,4.919342,2.690847,-0.24761719,-1.8555403,0.79966336,-2.1691468,-2.1308396
0.24366571,4.9214664,2.3265264,-0.048412733,-1.7767106,0.9816227,-1.7764976,-1.9201498
0.24185348,4.92359,2.3265264,-0.048412733,-1.7767106,0.9816227,-1.7764976,-1.9201498
0.2401706,4.9252644,1.9174649,0.15185699,-1.6797715,1.0055647,-1.532289,-1.5753847
0.23850562,4.9269223,1.9174649,0.15185699,-1.6797715,1.0055647,-1.532289,-1.5753847
0.23695596,4.9281244,1.4700538,0.34573513,-1.5679188,1.0103531,-1.4891934,-1.1204864
0.23538397,4.929345,1.4700538,0.34573513,-1.5679188,1.0103531,-1.4891934,-1.1204864
0.23399407,4.9300423,0.9896195,0.53109115,-1.4390218,0.6943185,-1.661576,-0.62249243
0.23262015,4.9307327,0.9896195,0.53109115,-1.4390218,0.6943185,-1.661576,-0.62249243
0.23139799,4.930921,0.48681465,0.7025987,-1.286689,0.48362875,-1.9632454,-0.10055647
0.23017,4.9311123,0.48681465,0.7025987,-1.286689,0.48362875,-1.9632454,-0.10055647
0.2291356,4.930792,-0.030903876,0.8591926,-1.1119857,0.2825158,-2.4037786,0.31124622
0.22810087,4.9304733,-0.030903876,0.8591926,-1.1119857,0.2825158,-2.4037786,0.31124622
0.22728682,4.9296165,-0.5571445,0.99767697,-0.91384643,0.18195933,-2.8682537,0.46447513
0.22647166,4.928761,-0.5571445,0.99767697,-0.91384643,0.18195933,-2.8682537,0.46447513
0.22589514,4.927354,-1.0876462,1.1201824,-0.6965325,0.22984336,-3.289633,0.48362875
0.22531672,4.925948,-1.0876462,1.1201824,-0.6965325,0.22984336,-3.289633,0.48362875
0.22498965,4.923997,-1.6170826,1.2309699,-0.46217433,0.1436521,-3.739743,0.5506664
0.22466047,4.9220514,-1.6170826,1.2309699,-0.46217433,0.1436521,-3.739743,0.5506664
0.22458819,4.9195604,-2.142258,1.3289742,-0.21716349,0.15322891,-4.343082,0.61770403
0.22451232,4.917075,-2.142258,1.3289742,-0.21716349,0.15322891,-4.343082,0.61770403
0.22469538,4.9141026,-2.6546502,1.4173912,0.037434716,-0.30166942,-5.1379566,1.0295067
0.2248746,4.911128,-2.6546502,1.4173912,0.037434716,-0.30166942,-5.1379566,1.0295067
0.22532694,4.907652,-3.1393456,1.4951555,0.30055505,-0.770933,-6.042965,1.2593501
0.22577238,4.9042034,-3.1393456,1.4951555,0.30055505,-0.770933,-6.042965,1.2593501
0.22647925,4.900316,-3.5856915,1.5569408,0.56687117,-1.0199299,-6.981492,1.364695
0.22718509,4.896414,-3.5856915,1.5569408,0.56687117,-1.0199299,-6.981492,1.364695
0.22815882,4.8920617,-3.9915571,1.6027472,0.8331873,-1.1492168,-7.85777,1.3120226
0.22912528,4.8877096,-3.9915571,1.6027472,0.8331873,-1.1492168,-7.85777,1.3120226
0.23034547,4.88299,-4.353747,1.6325746,1.0888507,-1.292869,-8.695741,1.3263878
0.23155709,4.878269,-4.353747,1.6325746,1.0888507,-1.292869,-8.695741,1.3263878
0.23300602,4.873227,-4.672261,1.6474882,1.3317311,-1.4987702,-9.504981,1.388637
0.23444454,4.8681893,-4.672261,1.6474882,1.3317311,-1.4987702,-9.504981,1.388637
0.23610123,4.8628774,-4.941773,1.646423,1.5565019,-1.5993267,-10.295067,1.3790601
0.23774725,4.857569,-4.941773,1.646423,1.5565019,-1.5993267,-10.295067,1.3790601
0.23958768,4.852049,-5.1601524,1.630444,1.7631631,-1.5945383,-11.09473,1.4030021
0.24141847,4.846532,-5.1601524,1.630444,1.7631631,-1.5945383,-11.09473,1.4030021
0.24342155,4.8408422,-5.328464,1.6006167,1.9453233,-1.5993267,-11.798626,1.292869
0.24542072,4.8351364,-5.328464,1.6006167,1.9453233,-1.5993267,-11.798626,1.292869
0.24755126,4.8293447,-5.442447,1.5548103,2.0976562,-1.6567876,-12.373235,1.2210429
0.24967013,4.8235598,-5.442447,1.5548103,2.0976562,-1.6567876,-12.373235,1.2210429
0.2519006,4.8177147,-5.505298,1.4962207,2.2201617,-1.6759412,-12.971785,1.2162545
0.2541227,4.8118696,-5.505298,1.4962207,2.2201617,-1.6759412,-12.971785,1.2162545
0.25642613,4.806011,-5.521277,1.4280438,2.3139048,-1.8052281,-13.383588,1.0534488
0.25872093,4.800153,-5.521277,1.4280438,2.3139048,-1.8052281,-13.383588,1.0534488
0.26106945,4.7943325,-5.4914494,1.3492142,2.3799512,-1.910573,-13.713987,0.90500826
0.26340985,4.788512,-5.4914494,1.3492142,2.3799512,-1.910573,-13.713987,0.90500826
0.26577947,4.7827725,-5.4232726,1.2586668,2.4214966,-1.8052281,-13.88637,0.7374141
0.2681062,4.7771187,-5.4232726,1.2586668,2.4214966,-1.8052281,-13.88637,0.7374141
0.27054843,4.7713118,-5.195306,1.0637233,2.426823,-1.532289,-14.135366,0.92416185
0.27054843,4.7713118,-5.195306,1.0637233,2.426823,-1.532289,-14.135366,0.92416185
0.27054843,4.7713118,-5.195306,1.0637233,2.426823,-1.532289,-14.135366,0.92416185
0.2775383,4.75502,-5.195306,1.0637233,2.426823,-1.532289,-14.135366,0.92416185
0.27984932,4.7497845,-5.0440383,0.9646538,2.3980608,-1.2689269,-14.298173,1.6280571
0.28215995,4.74454,-5.0440383,0.9646538,2.3980608,-1.2689269,-14.298173,1.6280571
0.28443754,4.7395163,-4.859748,0.8741063,2.354385,-1.2689269,-14.628572,2.2697031
0.28672165,4.7344675,-4.859748,0.8741063,2.354385,-1.2689269,-14.628572,2.2697031
0.28894344,4.7296834,-4.6413684,0.79634196,2.2925997,-1.3215994,-14.920665,2.8634653
0.2911649,4.7248893,-4.6413684,0.79634196,2.2925997,-1.3215994,-14.920665,2.8634653
0.29331067,4.720373,-4.3889008,0.72177345,2.2148352,-1.2880806,-15.308526,3.4237084
0.29545394,4.715853,-4.3889008,0.72177345,2.2148352,-1.2880806,-15.308526,3.4237084
0.2975046,4.7116303,-4.1023445,0.6429439,2.1200268,-1.3072342,-17.54471,4.1132383
0.29954907,4.7074122,-4.1023445,0.6429439,2.1200268,-1.3072342,-17.54471,4.1132383
0.30150172,4.7035794,-3.754003,0.558788,2.0060434,-2.9879637,-16.136919,3.5482068
0.3034601,4.699728,-3.754003,0.558788,2.0060434,-2.9879637,-16.136919,3.5482068
0.3052497,4.696296,-3.354529,0.4362826,1.8728853,1.067814,-16.443377,4.9224787
0.30704707,4.6928444,-3.354529,0.4362826,1.8728853,1.067814,-16.443377,4.9224787
0.30868238,4.6898546,-2.97636,0.31590772,1.7109652,-1.5753847,-19.661184,5.415684
0.3103235,4.6868505,-2.97636,0.31590772,1.7109652,-1.5753847,-19.661184,5.415684
0.31183076,4.684312,-2.53321,0.24879605,1.5767418,-2.8491,-21.538239,4.5777135
0.31334653,4.681756,-2.53321,0.24879605,1.5767418,-2.8491,-21.538239,4.5777135
0.31466448,4.679801,-1.997382,0.07089689,1.3913858,-2.7246015,-22.151154,3.845088
0.3159746,4.6778564,-1.997382,0.07089689,1.3913858,-2.7246015,-22.151154,3.845088
0.31708735,4.6765556,-1.4072256,-0.12937284,1.1932466,-2.834735,-21.399374,2.695871
0.31820148,4.6752534,-1.4072256,-0.12937284,1.1932466,-2.834735,-21.399374,2.695871
0.31910044,4.67463,-0.7915027,-0.33816466,0.98338956,-2.6910827,-19.536686,1.6711528
0.31999946,4.674007,-0.7915027,-0.33816466,0.98338956,-2.6910827,-19.536686,1.6711528
0.32066777,4.674046,-0.19388933,-0.5501523,0.75329244,-1.934515,-17.894264,1.3455414
0.32133588,4.6740856,-0.19388933,-0.5501523,0.75329244,-1.934515,-17.894264,1.3455414
0.32133588,4.6740856,-0.19388933,-0.5501523,0.75329244,-1.934515,-17.894264,1.3455414
0.32237265,4.675647,0.3621787,-0.73337775,0.517869,-1.5753847,-16.558298,1.2880806
0.32249644,4.6764207,0.87350565,-0.88890636,0.2717929,-1.0773908,-15.883134,1.4221559
0.32268798,4.6776237,0.87350565,-0.88890636,0.2717929,-1.0773908,-15.883134,1.4221559
0.32263395,4.679397,1.3507441,-1.0146075,0.01932522,-0.78529817,-15.040375,1.5179238
0.32257852,4.68114,1.3507441,-1.0146075,0.01932522,-0.78529817,-15.040375,1.5179238
0.3222692,4.6833677,1.8002857,-1.1094161,-0.2320772,-0.89543146,-14.00608,1.2258313
0.32195914,4.685576,1.8002857,-1.1094161,-0.2320772,-0.89543146,-14.00608,1.2258313
0.32138404,4.68825,2.2221305,-1.1850499,-0.48667538,-1.0390835,-12.909535,0.842759
0.32080078,4.690941,2.2221305,-1.1850499,-0.48667538,-1.0390835,-12.909535,0.842759
0.3199608,4.694012,2.6173437,-1.2489657,-0.7380778,-0.94331545,-12.018892,0.49799395
0.31911707,4.6970773,2.6173437,-1.2489657,-0.7380778,-0.94331545,-12.018892,0.49799395
0.31801757,4.700532,2.9805987,-1.3032943,-0.9788276,-0.91937345,-11.305421,0.2681506
0.3169204,4.7039585,2.9805987,-1.3032943,-0.9788276,-0.91937345,-11.305421,0.2681506
0.31559,4.7076964,3.3065696,-1.3448396,-1.2078594,-0.9576807,-10.673351,0.02873042
0.31424746,4.711447,3.3065696,-1.3448396,-1.2078594,-0.9576807,-10.673351,0.02873042
0.31268987,4.7154827,3.598452,-1.3767976,-1.4166512,-0.7134721,-10.132261,-0.14844051
0.31112674,4.719512,3.598452,-1.3767976,-1.4166512,-0.7134721,-10.132261,-0.14844051
0.3093679,4.723795,3.8530502,-1.399168,-1.6041378,-0.61291564,-9.730036,-0.29688102
0.30760884,4.7280574,3.8530502,-1.399168,-1.6041378,-0.61291564,-9.730036,-0.29688102
0.30567685,4.732534,4.07356,-1.4162123,-1.7724496,-0.6751649,-9.56723,-0.33518824
0.30373773,4.7370067,4.07356,-1.4162123,-1.7724496,-0.6751649,-9.56723,-0.33518824
0.30164146,4.741666,4.2610464,-1.431126,-1.9226519,-0.7613561,-9.404425,-0.24420857
0.29953992,4.746316,4.2610464,-1.431126,-1.9226519,-0.7613561,-9.404425,-0.24420857
0.29729998,4.7511334,4.418706,-1.4439092,-2.0504837,-0.5554548,-9.260772,-0.019153614
0.29505405,4.7559414,4.418706,-1.4439092,-2.0504837,-0.5554548,-9.260772,-0.019153614
0.2926975,4.760873,4.545472,-1.4481702,-2.1538143,-0.44532153,-9.069236,0.06703765
0.29033008,4.7658052,4.545472,-1.4481702,-2.1538143,-0.44532153,-9.069236,0.06703765
0.287888,4.7708187,4.642411,-1.4385829,-2.2283828,-0.320823,-8.829816,0.2633622
0.2854371,4.775828,4.642411,-1.4385829,-2.2283828,-0.320823,-8.829816,0.2633622
0.28293452,4.780892,4.7105885,-1.4172776,-2.277385,-0.20590134,-8.5473,0.38307226
0.28042307,4.7859516,4.7105885,-1.4172776,-2.277385,-0.20590134,-8.5473,0.38307226
0.27788326,4.791034,4.7478724,-1.3863848,-2.301886,-0.02873042,-8.202535,0.4357447
0.27533728,4.796108,4.7478724,-1.3863848,-2.301886,-0.02873042,-8.202535,0.4357447
0.27278796,4.801167,4.7521334,-1.3448396,-2.3029513,0.12449849,-7.8146744,0.4405331
0.2702331,4.8062167,4.7521334,-1.3448396,-2.3029513,0.12449849,-7.8146744,0.4405331
0.26769745,4.811222,4.7244368,-1.2937069,-2.2827113,0.1436521,-7.321469,0.49320555
0.26510575,4.8163185,4.7244368,-1.2937069,-2.2827113,0.1436521,-7.321469,0.49320555
0.26263767,4.8211837,4.664782,-1.2361826,-2.2432964,0.23942018,-6.8905125,0.6655881
0.2601397,4.8260894,4.664782,-1.2361826,-2.2432964,0.23942018,-6.8905125,0.6655881
0.25770637,4.8309,4.576365,-1.1754625,-2.1868374,0.45489833,-6.2392898,0.89064306
0.2552606,4.835719,4.576365,-1.1754625,-2.1868374,0.45489833,-6.2392898,0.89064306
0.25289446,4.840418,4.4623814,-1.1083509,-2.112269,0.60812724,-5.7843914,1.0151415
0.25052375,4.84511,4.4623814,-1.1083509,-2.112269,0.60812724,-5.7843914,1.0151415
0.24824908,4.8496404,4.3196363,-1.0348476,-2.0227869,0.80445176,-5.1666875,0.9816227
0.24597038,4.854165,4.3196363,-1.0348476,-2.0227869,0.80445176,-5.1666875,0.9816227
0.24379942,4.858496,4.1449327,-0.9581486,-1.9226519,0.8810662,-4.6830587,0.94331545
0.24162711,4.862818,4.1449327,-0.9581486,-1.9226519,0.8810662,-4.6830587,0.94331545
0.23956902,4.8669205,3.936141,-0.8814495,-1.8118644,0.92895025,-4.2281604,0.8714894
0.2375101,4.8710146,3.936141,-0.8814495,-1.8118644,0.92895025,-4.2281604,0.8714894
0.23531243,4.8754106,3.6932607,-0.80581576,-1.689359,0.8810662,-3.9360676,1.0007763
0.23362197,4.8787837,3.6932607,-0.80581576,-1.689359,0.8810662,-3.9360676,1.0007763
0.231863,4.882305,3.4194877,-0.72911674,-1.5519398,0.8475474,-3.6535518,0.9959879
0.23007339,4.8858805,3.4194877,-0.72911674,-1.5519398,0.8475474,-3.6535518,0.9959879
0.22846468,4.8890653,3.1169527,-0.65028715,-1.3996071,0.9959879,-3.4141316,0.6991069
0.22684295,4.89227,3.1169527,-0.65028715,-1.3996071,0.9959879,-3.4141316,0.6991069
0.2253964,4.8951135,2.7867205,-0.5682618,-1.2323605,1.283292,-3.074155,0.38307226
0.22394449,4.897963,2.7867205,-0.5682618,-1.2323605,1.283292,-3.074155,0.38307226
0.22268264,4.900426,2.4266613,-0.48197538,-1.0555266,1.6232687,-2.7724855,0.08619126
0.22142012,4.902887,2.4266613,-0.48197538,-1.0555266,1.6232687,-2.7724855,0.08619126
0.22035435,4.9049397,2.0357091,-0.39036262,-0.8733664,1.8004397,-2.5953147,-0.04309563
0.21928813,4.9069915,2.0357091,-0.39036262,-0.8733664,1.8004397,-2.5953147,-0.04309563
0.21842158,4.9086175,1.6202561,-0.29661936,-0.68694514,1.5610195,-2.6384103,0.06703765
0.21755475,4.9102426,1.6202561,-0.29661936,-0.68694514,1.5610195,-2.6384103,0.06703765
0.21688929,4.911442,1.1845629,-0.20713714,-0.49732804,0.93373865,-2.954445,0.49799395
0.2162236,4.9126406,1.1845629,-0.20713714,-0.49732804,0.93373865,-2.954445,0.49799395
0.2157809,4.9134345,0.74034756,-0.13043809,-0.29918885,0.18195933,-3.4237084,0.9816227
0.2157809,4.9134345,0.74034756,-0.13043809,-0.29918885,0.18195933,-3.4237084,0.9816227
0.2153303,4.9143524,0.29719758,-0.07504434,-0.08933175,-0.21547815,-4.6255975,1.6567876
0.21520701,4.914603,0.29719758,-0.07504434,-0.08933175,-0.21547815,-4.6255975,1.6567876
0.21542105,4.914561,-0.132104,-0.04095588,0.1365043,-1.9871874,-4.841076,1.6759412
0.21563703,4.914518,-0.132104,-0.04095588,0.1365043,-1.9871874,-4.841076,1.6759412
0.21593684,4.9140983,-0.5337087,-0.03882535,0.36873198,-0.7086837,-6.799533,2.815581
0.21623667,4.9136786,-0.5337087,-0.03882535,0.36873198,-0.7086837,-6.799533,2.815581
0.2167377,4.9128976,-0.8948333,-0.04308641,0.59776384,-0.4261679,-9.045294,3.5290532
0.21723947,4.912116,-0.8948333,-0.04308641,0.59776384,-0.4261679,-9.045294,3.5290532
0.21795711,4.911048,-1.1899116,-0.03882535,0.8246651,-0.7230489,-10.213664,3.5434184
0.21867514,4.90998,-1.1899116,-0.03882535,0.8246651,-0.7230489,-10.213664,3.5434184
0.21959001,4.9086895,-1.4178782,-0.04308641,1.0323917,-1.2210429,-11.27669,3.3614593
0.2205045,4.907401,-1.4178782,-0.04308641,1.0323917,-1.2210429,-11.27669,3.3614593
0.22158362,4.9059443,-1.590451,-0.06971802,1.2156172,-1.5131354,-12.569559,3.3758245
0.2226637,4.9044886,-1.590451,-0.06971802,1.2156172,-1.5131354,-12.569559,3.3758245
0.2238824,4.902924,-1.7129564,-0.12085071,1.36795,-1.8291701,-14.077906,3.6248214
0.22510107,4.9013624,-1.7129564,-0.12085071,1.36795,-1.8291701,-14.077906,3.6248214
0.22641669,4.8997507,-1.7779375,-0.18796237,1.4872596,-1.9153614,-15.466543,3.8594532
0.22773641,4.898137,-1.7779375,-0.18796237,1.4872596,-1.9153614,-15.466543,3.8594532
0.22912785,4.896537,-1.7800682,-0.26359615,1.5767418,-2.111686,-16.716316,4.0222588
0.23051679,4.8949413,-1.7800682,-0.26359615,1.5767418,-2.111686,-16.716316,4.0222588
0.23051679,4.8949413,-1.7800682,-0.26359615,1.5767418,-2.111686,-16.716316,4.0222588
0.23051679,4.8949413,-1.7800682,-0.26359615,1.5767418,-2.111686,-16.716316,4.0222588
0.23504266,4.890211,-1.5957774,-0.42871213,1.6608977,-2.3080103,-18.02355,3.8881836
0.2362461,4.88905,-1.5957774,-0.42871213,1.6608977,-2.3080103,-18.02355,3.8881836
0.23765527,4.8878555,-1.4178782,-0.5224554,1.653441,-2.4037786,-18.272547,3.7493198
0.23905891,4.886668,-1.4178782,-0.5224554,1.653441,-2.4037786,-18.272547,3.7493198
0.24041104,4.8857107,-1.1931074,-0.617264,1.617222,-2.4756045,-18.253393,3.4955344
0.24176425,4.884755,-1.1931074,-0.617264,1.617222,-2.4756045,-18.253393,3.4955344
0.24302897,4.8840723,-0.9289218,-0.714203,1.5511755,-2.3798366,-17.903841,3.193865
0.24432233,4.8833766,-0.9289218,-0.714203,1.5511755,-2.3798366,-17.903841,3.193865
0.24546413,4.883006,-0.6349088,-0.81007683,1.4553018,-2.231396,-17.468096,2.9879637
0.24662144,4.8826323,-0.6349088,-0.81007683,1.4553018,-2.231396,-17.468096,2.9879637
0.24765898,4.8825855,-0.31639475,-0.9016896,1.3327963,-1.9919758,-16.859968,2.72939
0.24869353,4.88254,-0.31639475,-0.9016896,1.3327963,-1.9919758,-16.859968,2.72939
0.24953584,4.882845,0.019163553,-0.9869107,1.1825941,-1.4891934,-15.859192,2.6048915
0.2503813,4.883152,0.019163553,-0.9869107,1.1825941,-1.4891934,-15.859192,2.6048915
0.25105345,4.8838215,0.3621787,-1.0593487,1.0046948,-1.1204864,-15.1936035,2.504335
0.2517215,4.884488,0.3621787,-1.0593487,1.0046948,-1.1204864,-15.1936035,2.504335
0.25218552,4.885505,0.70199805,-1.1179383,0.8065556,-1.163582,-14.446613,2.408567
0.25264645,4.8865185,0.70199805,-1.1179383,0.8065556,-1.163582,-14.446613,2.408567
0.25288564,4.8878593,1.0364912,-1.1669405,0.590307,-1.4077905,-13.642161,2.135628
0.2531229,4.8891964,1.0364912,-1.1669405,0.590307,-1.4077905,-13.642161,2.135628
0.25312504,4.890861,1.3571357,-1.2127467,0.36020985,-1.3311762,-12.947843,1.9919758
0.2531254,4.8925195,1.3571357,-1.2127467,0.36020985,-1.3311762,-12.947843,1.9919758
0.25288403,4.894471,1.6575403,-1.2564226,0.12265587,-1.1683705,-12.306197,1.7717092
0.25264153,4.896415,1.6575403,-1.2564226,0.12265587,-1.1683705,-12.306197,1.7717092
0.2521533,4.898626,1.9313133,-1.2947721,-0.12022442,-0.9959879,-11.9135475,1.5897499
0.25166222,4.900838,1.9313133,-1.2947721,-0.12022442,-0.9959879,-11.9135475,1.5897499
0.25092426,4.903276,2.1741936,-1.3299259,-0.36949632,-0.9576807,-11.439496,1.3215994
0.25018516,4.905709,2.1741936,-1.3299259,-0.36949632,-0.9576807,-11.439496,1.3215994
0.24920629,4.90833,2.3840506,-1.3640144,-0.6177029,-0.9911995,-10.94629,1.0295067
0.2482257,4.910948,2.3840506,-1.3640144,-0.6177029,-0.9911995,-10.94629,1.0295067
0.24701373,4.9137235,2.5555582,-1.3938417,-0.8584527,-0.90979666,-10.352529,0.59855044
0.24580483,4.916485,2.5555582,-1.3938417,-0.8584527,-0.90979666,-10.352529,0.59855044
0.24436572,4.9193807,2.687651,-1.4204733,-1.0896151,-0.90979666,-9.629479,0.31603462
0.2429277,4.922267,2.687651,-1.4204733,-1.0896151,-0.90979666,-9.629479,0.31603462
0.24127051,4.9252377,2.7824595,-1.4417787,-1.3058637,-0.48362875,-8.844181,-0.10055647
0.23961619,4.9281955,2.7824595,-1.4417787,-1.3058637,-0.48362875,-8.844181,-0.10055647
0.23774695,4.9312043,2.8357227,-1.4481702,-1.5061334,0.17238252,-8.0445175,-0.36870706
0.2317561,4.94022,2.8495712,-1.4364523,-1.689359,0.7517793,-7.225701,-0.5793968
0.2317561,4.94022,2.8495712,-1.4364523,-1.689359,0.7517793,-7.225701,-0.5793968
0.2317561,4.94022,2.8495712,-1.4364523,-1.689359,0.7517793,-7.225701,-0.5793968
0.22953779,4.9431796,2.8293312,-1.4012986,-1.8523444,1.1300632,-6.3781533,-0.7517793
0.22731522,4.9461384,2.8293312,-1.4012986,-1.8523444,1.1300632,-6.3781533,-0.7517793
0.22495584,4.949023,2.7739375,-1.3416438,-1.9950899,1.436521,-5.511452,-0.78529817
0.22495584,4.949023,2.7739375,-1.3416438,-1.9950899,1.436521,-5.511452,-0.78529817
0.22495584,4.949023,2.7739375,-1.3416438,-1.9950899,1.436521,-5.511452,-0.78529817
0.21746865,4.958022,2.6844552,-1.2606837,-2.1133342,1.7525556,-4.7500963,-0.8283938
0.21531877,4.960234,2.5608845,-1.1594836,-2.204947,1.8483237,-3.2561142,-1.0390835
0.21278793,4.9628344,2.5608845,-1.1594836,-2.204947,1.8483237,-3.2561142,-1.0390835
0.21020642,4.965266,2.4000297,-1.0423045,-2.2667322,2.695871,-3.3423057,-0.90500826
0.20762134,4.9676976,2.4000297,-1.0423045,-2.2667322,2.695871,-3.3423057,-0.90500826
0.20506498,4.9698806,2.2072167,-0.9059506,-2.2922986,2.3702598,-1.6519991,-1.4269443
0.20250297,4.972066,2.2072167,-0.9059506,-2.2922986,2.3702598,-1.6519991,-1.4269443
0.19995713,4.974029,1.9696628,-0.77918416,-2.306147,4.027047,-2.3558946,-0.45489833
0.19739555,4.9760027,1.9696628,-0.77918416,-2.306147,4.027047,-2.3558946,-0.45489833
0.19490829,4.977668,1.7022814,-0.6002197,-2.277385,3.7062242,-2.743755,-0.4165911
0.19241849,4.9793334,1.7022814,-0.6002197,-2.277385,3.7062242,-2.743755,-0.4165911
0.19004935,4.980669,1.4274431,-0.40953737,-2.2166648,3.0310593,-2.408567,-0.7469909
0.18767568,4.982007,1.4274431,-0.40953737,-2.2166648,3.0310593,-2.408567,-0.7469909
0.18543579,4.9830065,1.136626,-0.23696454,-2.1229217,2.0638018,-1.0342951,-1.292869
0.18321842,4.9839964,1.136626,-0.23696454,-2.1229217,2.0638018,-1.0342951,-1.292869
0.18114962,4.984651,0.8149161,-0.09208857,-1.9908288,1.5753847,-0.34476504,-1.1683705
0.17912611,4.9852924,0.8149161,-0.09208857,-1.9908288,1.5753847,-0.34476504,-1.1683705
0.17726707,4.9856157,0.45379144,0.020829458,-1.8235823,2.2697031,-0.35434186,-0.6368576
0.1753987,4.9859414,0.45379144,0.020829458,-1.8235823,2.2697031,-0.35434186,-0.6368576
0.17375056,4.9858937,0.06710045,0.12629063,-1.6201168,2.5617957,-0.7326257,-0.15322891
0.17211059,4.9858475,0.06710045,0.12629063,-1.6201168,2.5617957,-0.7326257,-0.15322891
0.17070657,4.9853916,-0.33983058,0.23388235,-1.3932154,2.528277,-1.412579,0.1388637
0.16930076,4.9849377,-0.33983058,0.23388235,-1.3932154,2.528277,-1.412579,0.1388637
0.16815963,4.9840717,-0.75421846,0.33827826,-1.1450088,2.1739352,-1.982399,0.49320555
0.16701798,4.9832077,-0.75421846,0.33827826,-1.1450088,2.1739352,-1.982399,0.49320555
0.16615248,4.981921,-1.1739327,0.4330868,-0.87869275,1.7860745,-2.4995465,0.6895301
0.16529311,4.980646,-1.1739327,0.4330868,-0.87869275,1.7860745,-2.4995465,0.6895301
0.1647182,4.9789376,-1.5915163,0.51724267,-0.5953324,1.5131354,-3.193865,0.842759
0.16414393,4.977236,-1.5915163,0.51724267,-0.5953324,1.5131354,-3.193865,0.842759
0.16387309,4.975112,-2.000578,0.5864849,-0.29599306,1.2689269,-3.5482068,0.7374141
0.16360115,4.9729915,-2.000578,0.5864849,-0.29599306,1.2689269,-3.5482068,0.7374141
0.16363753,4.970464,-2.3979216,0.6376176,0.010803104,1.6280571,-4.247314,0.7374141
0.1636723,4.967945,-2.3979216,0.6376176,0.010803104,1.6280571,-4.247314,0.7374141
0.16401364,4.9650517,-2.7771556,0.6802282,0.31866452,1.6903064,-5.056554,0.8331822
0.16435452,4.962147,-2.7771556,0.6802282,0.31866452,1.6903064,-5.056554,0.8331822
0.16500367,4.9588914,-3.1223013,0.72177345,0.62439543,1.3982137,-5.7748146,0.770933
0.16564938,4.955642,-3.1223013,0.72177345,0.62439543,1.3982137,-5.7748146,0.770933
0.16659905,4.952066,-3.4259017,0.75586194,0.9184084,1.1300632,-6.4643445,0.59855044
0.16753942,4.948515,-3.4259017,0.75586194,0.9184084,1.1300632,-6.4643445,0.59855044
0.16876295,4.944721,-3.6836958,0.7814283,1.198573,0.9720459,-7.062895,0.22984336
0.1699984,4.9408803,-3.6836958,0.7814283,1.198573,0.9720459,-7.062895,0.22984336
0.17149325,4.936837,-3.8967485,0.7952767,1.4584975,0.9528923,-7.61835,-0.02873042
0.17299251,4.932773,-3.8967485,0.7952767,1.4584975,0.9528923,-7.61835,-0.02873042
0.17472024,4.928556,-4.0618644,0.80060303,1.693921,1.0295067,-8.09719,-0.17238252
0.17644496,4.924338,-4.0618644,0.80060303,1.693921,1.0295067,-8.09719,-0.17238252
0.17837334,4.92001,-4.180109,0.8016683,1.9048433,1.0534488,-8.537724,-0.23463176
0.18030252,4.915673,-4.180109,0.8016683,1.9048433,1.0534488,-8.537724,-0.23463176
0.18241517,4.9112754,-4.253612,0.80273354,2.0933952,0.80445176,-8.882488,-0.2873042
0.18452898,4.9068675,-4.253612,0.80273354,2.0933952,0.80445176,-8.882488,-0.2873042
0.18681037,4.902425,-4.280244,0.80273354,2.2563806,0.49799395,-9.165004,-0.22026655
0.1890794,4.897999,-4.280244,0.80273354,2.2563806,0.49799395,-9.165004,-0.22026655
0.1914954,4.8935776,-4.2653303,0.7952767,2.3959303,0.10534488,-9.380483,-0.16759412
0.1939128,4.889146,-4.2653303,0.7952767,2.3959303,0.10534488,-9.380483,-0.16759412
0.19643953,4.8847847,-4.214197,0.7771672,2.5141745,-0.272939,-9.662998,-0.07182605
0.19897014,4.880408,-4.214197,0.7771672,2.5141745,-0.272939,-9.662998,-0.07182605
0.20159936,4.8761153,-4.1343026,0.7484051,2.6153748,-0.545878,-9.993398,0.0047884034
0.2042195,4.8718295,-4.1343026,0.7484051,2.6153748,-0.545878,-9.993398,0.0047884034
0.20690624,4.8676567,-4.0288415,0.7100556,2.6963348,-0.545878,-10.376471,0.15801731
0.20958646,4.8634863,-4.0288415,0.7100556,2.6963348,-0.545878,-10.376471,0.15801731
0.21231994,4.859447,-3.90314,0.6663797,2.75812,-0.6464345,-10.788273,0.23942018
0.21504974,4.8554068,-3.90314,0.6663797,2.75812,-0.6464345,-10.788273,0.23942018
0.21781546,4.851511,-3.7603948,0.62376916,2.7996655,-0.6847417,-11.180922,0.2825158
0.22056933,4.8476257,-3.7603948,0.62376916,2.7996655,-0.6847417,-11.180922,0.2825158
0.22333279,4.8439116,-3.600605,0.5832891,2.822036,-0.6655881,-11.674128,0.35913026
0.22609572,4.8401933,-3.600605,0.5832891,2.822036,-0.6655881,-11.674128,0.35913026
0.22888559,4.836613,-3.4301627,0.5438743,2.8241665,-0.8858546,-12.167333,0.35434186
0.23165564,4.833054,-3.4301627,0.5438743,2.8241665,-0.8858546,-12.167333,0.35434186
0.23437086,4.8297167,-3.250133,0.50126374,2.8028612,-1.1109096,-12.6222315,0.4357447
0.23709118,4.8263683,-3.250133,0.50126374,2.8028612,-1.1109096,-12.6222315,0.4357447
0.23975015,4.823235,-3.0594506,0.45332682,2.7613158,-1.388637,-13.129802,0.6703765
0.24242496,4.82008,-3.0594506,0.45332682,2.7613158,-1.388637,-13.129802,0.6703765
0.2450242,4.817148,-2.8581157,0.39899835,2.7005959,-1.541866,-13.599066,0.8475474
0.24762121,4.8142176,-2.8581157,0.39899835,2.7005959,-1.541866,-13.599066,0.8475474
0.2501338,4.8115253,-2.6418672,0.3404088,2.6238968,-1.6136919,-13.9917145,1.091756
0.25263533,4.8088455,-2.6418672,0.3404088,2.6238968,-1.6136919,-13.9917145,1.091756
0.2550455,4.8064156,-2.4096394,0.280754,2.532284,-1.9009962,-14.42746,1.292869
0.2574531,4.8039885,-2.4096394,0.280754,2.532284,-1.9009962,-14.42746,1.292869
0.25975478,4.80183,-2.158237,0.21577285,2.426823,-2.0829554,-14.671668,1.3790601
0.26204532,4.799683,-2.158237,0.21577285,2.426823,-2.0829554,-14.671668,1.3790601
0.2642169,4.7978196,-1.8908557,0.14226961,2.3053827,-1.9776106,-14.800955,1.4652514
0.2663912,4.7959557,-1.8908557,0.14226961,2.3053827,-1.9776106,-14.800955,1.4652514
0.268419,4.7943964,-1.60643,0.06130951,2.1668983,-1.8291701,-14.911088,1.4748282
0.268419,4.7943964,-1.60643,0.06130951,2.1668983,-1.8291701,-14.911088,1.4748282
0.268419,4.7943964,-1.60643,0.06130951,2.1668983,-1.8291701,-14.911088,1.4748282
0.27429524,4.7912407,-0.9960335,-0.11658966,1.8324053,-1.4221559,-14.748282,1.5658079
0.27519423,4.790759,-0.9960335,-0.11658966,1.8324053,-1.4221559,-14.748282,1.5658079
0.2768678,4.789863,-0.9960335,-0.11658966,1.8324053,-1.4221559,-14.748282,1.5658079
0.278349,4.7893095,-0.67325836,-0.2050066,1.6374619,-1.316811,-14.422671,1.5993267
0.27983347,4.7887554,-0.67325836,-0.2050066,1.6374619,-1.316811,-14.422671,1.5993267
0.2811003,4.7885504,-0.34302637,-0.29129303,1.4265395,-1.2976574,-14.149732,1.5227122
0.2823647,4.7883453,-0.34302637,-0.29129303,1.4265395,-1.2976574,-14.149732,1.5227122
0.2834085,4.7884874,-0.010663851,-0.36799207,1.2070951,-1.2976574,-13.704411,1.388637
0.28444812,4.788629,-0.010663851,-0.36799207,1.2070951,-1.2976574,-13.704411,1.388637
0.2852545,4.789118,0.32063338,-0.43829954,0.9780632,-0.9768343,-13.474567,1.412579
0.28606135,4.789607,0.32063338,-0.43829954,0.9780632,-0.9768343,-13.474567,1.412579
0.28662708,4.7904286,0.6508654,-0.49369326,0.7447703,-0.9816227,-13.306973,1.2545617
0.28719616,4.791256,0.6508654,-0.49369326,0.7447703,-0.9816227,-13.306973,1.2545617
0.2875253,4.7923994,0.975771,-0.53097755,0.51254267,-1.6663644,-13.168109,1.043872
0.28785396,4.7935433,0.975771,-0.53097755,0.51254267,-1.6663644,-13.168109,1.043872
0.28795612,4.794977,1.294285,-0.5629355,0.28457606,-2.2266076,-13.091495,0.7086837
0.2880584,4.796416,1.294285,-0.5629355,0.28457606,-2.2266076,-13.091495,0.7086837
0.28796983,4.798116,1.600016,-0.5980892,0.06939265,-2.480393,-13.129802,0.24899697
0.2878809,4.7998257,1.600016,-0.5980892,0.06939265,-2.480393,-13.129802,0.24899697
0.2876071,4.801817,1.8918985,-0.637504,-0.13194233,-2.3702598,-12.962208,-0.21547815
0.28733346,4.8038054,1.8918985,-0.637504,-0.13194233,-2.3702598,-12.962208,-0.21547815
0.28686258,4.8060718,2.1656713,-0.6758535,-0.3247552,-1.8531121,-12.694057,-0.63206923
0.28639364,4.8083262,2.1656713,-0.6758535,-0.3247552,-1.8531121,-12.694057,-0.63206923
0.2857278,4.810857,2.4181392,-0.7056809,-0.5122417,-1.5658079,-12.41633,-0.80445176
0.28506485,4.813373,2.4181392,-0.7056809,-0.5122417,-1.5658079,-12.41633,-0.80445176
0.2842331,4.8161116,2.64291,-0.71952933,-0.6901409,-1.7238252,-12.124237,-1.0103531
0.28340164,4.818845,2.64291,-0.71952933,-0.6901409,-1.7238252,-12.124237,-1.0103531
0.2824262,4.8217626,2.8421144,-0.72272515,-0.85632217,-2.1643584,-11.750742,-1.1875241
0.28144613,4.82469,2.8421144,-0.72272515,-0.85632217,-2.1643584,-11.750742,-1.1875241
0.28034058,4.827777,3.0146873,-0.72165984,-1.0054592,-2.6479871,-11.362882,-1.2785037
0.2792408,4.830843,3.0146873,-0.72165984,-1.0054592,-2.6479871,-11.362882,-1.2785037
0.27801755,4.834059,3.159563,-0.7173988,-1.1332909,-2.7485435,-10.955867,-1.3599066
0.27679443,4.8372693,3.159563,-0.7173988,-1.1332909,-2.7485435,-10.955867,-1.3599066
0.27545825,4.8405995,3.2778075,-0.70674616,-1.2376869,-2.5091233,-10.5919485,-1.292869
0.27412903,4.843908,3.2778075,-0.70674616,-1.2376869,-2.5091233,-10.5919485,-1.292869
0.27270278,4.8473234,3.372616,-0.6854409,-1.3207774,-2.2505496,-10.280702,-1.2593501
0.27128,4.850726,3.372616,-0.6854409,-1.3207774,-2.2505496,-10.280702,-1.2593501
0.26976857,4.8542395,3.4439888,-0.6513524,-1.3868239,-2.0590134,-9.9550905,-1.1923125
0.26824304,4.857781,3.4439888,-0.6513524,-1.3868239,-2.0590134,-9.9550905,-1.1923125
0.2664267,4.8618937,3.4897952,-0.60554606,-1.4379566,-1.8387469,-9.56723,-1.0773908
0.26516947,4.864738,3.4897952,-0.60554606,-1.4379566,-1.8387469,-9.56723,-1.0773908
0.2635896,4.868247,3.513231,-0.5501523,-1.4731103,-1.6807296,-9.126697,-0.90021986
0.26132864,4.8732653,3.513231,-0.5501523,-1.4731103,-1.6807296,-9.126697,-0.90021986
0.26044616,4.875194,3.5121658,-0.48836696,-1.4944155,-1.5131354,-8.614338,-0.79008657
0.25884,4.8787036,3.5121658,-0.48836696,-1.4944155,-1.5131354,-8.614338,-0.79008657
0.25729814,4.8820224,3.481273,-0.42232054,-1.5029377,-1.3120226,-8.00621,-0.7661445
0.25729814,4.8820224,3.481273,-0.42232054,-1.5029377,-1.3120226,-8.00621,-0.7661445
0.25398052,4.889145,3.4216182,-0.3520131,-1.5029377,-1.115698,-7.2209125,-0.62728083
0.25101897,4.8953285,3.335332,-0.2795751,-1.492285,-0.78529817,-6.4978633,-0.62728083
0.25101897,4.8953285,3.335332,-0.2795751,-1.492285,-0.78529817,-6.4978633,-0.62728083
0.24945395,4.898562,3.335332,-0.2795751,-1.492285,-0.78529817,-6.4978633,-0.62728083
0.24793054,4.9016457,3.2160223,-0.20074555,-1.4709798,-0.62249243,-5.779603,-0.7422025
0.24640988,4.9047246,3.2160223,-0.20074555,-1.4709798,-0.62249243,-5.779603,-0.7422025
0.24484162,4.9078407,3.0636895,-0.11978545,-1.4422176,-0.58897364,-4.5920787,-1.0247183
0.24484162,4.9078407,3.0636895,-0.11978545,-1.4422176,-0.58897364,-4.5920787,-1.0247183
0.24172635,4.9138346,2.8655503,-0.04095588,-1.4059986,-0.7422025,-4.280833,-1.115698
0.24067616,4.915857,2.8655503,-0.04095588,-1.4059986,-0.7422025,-4.280833,-1.115698
0.23932062,4.9182916,2.6290615,0.03361263,-1.3548659,-0.1388637,-3.4093432,-0.9911995
0.23795271,4.9207506,2.6290615,0.03361263,-1.3548659,-0.1388637,-3.4093432,-0.9911995
0.23660259,4.9229097,2.3520927,0.08900639,-1.306929,0.36870706,-4.2281604,-0.05267244
0.23463649,4.9260573,2.3520927,0.08900639,-1.306929,0.36870706,-4.2281604,-0.05267244
0.23394088,4.9270744,2.0559492,0.18168439,-1.2366216,0.51235914,-4.4963107,0.17238252
0.23394088,4.9270744,2.0559492,0.18168439,-1.2366216,0.51235914,-4.4963107,0.17238252
0.2314016,4.930747,1.7587404,0.27968872,-1.1492699,-0.07182605,-3.8594532,0.02873042
0.23025662,4.9322896,1.7587404,0.27968872,-1.1492699,-0.07182605,-3.8594532,0.02873042
0.22933044,4.9334917,1.4530095,0.3617141,-1.0459392,-0.78529817,-3.0789435,-0.23463176
0.22840157,4.9346995,1.4530095,0.3617141,-1.0459392,-0.78529817,-3.0789435,-0.23463176
0.22840157,4.9346995,1.4530095,0.3617141,-1.0459392,-0.78529817,-3.0789435,-0.23463176
0.22655769,4.936654,1.1249081,0.4181731,-0.9287602,-0.62249243,-3.0071173,0.18195933
0.2259431,4.93715,0.7755013,0.4565226,-0.7945368,-0.22984336,-3.5529952,0.89543146
0.22513908,4.9377985,0.7755013,0.4565226,-0.7945368,-0.22984336,-3.5529952,0.89543146
0.22450909,4.9381332,0.42076826,0.49061108,-0.6517914,0.18674773,-4.31914,1.6376339
0.22387616,4.9384694,0.42076826,0.49061108,-0.6517914,0.18674773,-4.31914,1.6376339
0.22341835,4.938465,0.07242677,0.53322166,-0.49945858,0.22984336,-4.984728,2.1787236
0.22295885,4.9384613,0.07242677,0.53322166,-0.49945858,0.22984336,-4.984728,2.1787236
0.22267249,4.9381313,-0.2578052,0.57796276,-0.3396689,0.110133275,-5.57849,2.4995465
0.2223858,4.9378014,-0.2578052,0.57796276,-0.3396689,0.110133275,-5.57849,2.4995465
0.22226997,4.9371653,-0.5677972,0.615247,-0.17774871,-0.15322891,-6.0716953,2.6144683
0.22215372,4.9365287,-0.5677972,0.615247,-0.17774871,-0.15322891,-6.0716953,2.6144683
0.22220208,4.935608,-0.8564838,0.64081335,-0.013697978,-0.16759412,-6.5361705,2.791639
0.22225036,4.934684,-0.8564838,0.64081335,-0.013697978,-0.16759412,-6.5361705,2.791639
0.22246507,4.933475,-1.1217346,0.6535965,0.15035275,-0.14844051,-6.933608,2.9735985
0.22246507,4.933475,-1.1217346,0.6535965,0.15035275,-0.14844051,-6.933608,2.9735985
0.22319318,4.930562,-1.3614192,0.65679234,0.30588135,0.06703765,-7.4507556,3.1747115
0.22353019,4.9292116,-1.3614192,0.65679234,0.30588135,0.06703765,-7.4507556,3.1747115
0.22401875,4.927595,-1.5744721,0.65679234,0.45182258,0.19153613,-7.920019,3.3327289
0.22450383,4.9259887,-1.5744721,0.65679234,0.45182258,0.19153613,-7.920019,3.3327289
0.22512473,4.924189,-1.7545018,0.6557271,0.58498067,0.18674773,-8.331821,3.5194764
0.22574498,4.9223895,-1.7545018,0.6557271,0.58498067,0.18674773,-8.331821,3.5194764
0.22648543,4.9204435,-1.8983124,0.651466,0.7042903,0.17238252,-8.710106,3.715801
0.22722161,4.918507,-1.8983124,0.651466,0.7042903,0.17238252,-8.710106,3.715801
0.22805966,4.9164557,-2.0101652,0.6450744,0.8086862,0.11971009,-9.011775,3.739743
0.22889641,4.914406,-2.0101652,0.6450744,0.8086862,0.11971009,-9.011775,3.739743
0.22981648,4.912284,-2.09006,0.6354871,0.9013642,0.11971009,-9.313444,3.739743
0.23073615,4.910162,-2.09006,0.6354871,0.9013642,0.11971009,-9.313444,3.739743
0.23173094,4.9079933,-2.1390622,0.6248344,0.9844548,0.05746084,-9.615114,3.6727054
0.23272616,4.9058228,-2.1390622,0.6248344,0.9844548,0.05746084,-9.615114,3.6727054
0.23378064,4.903634,-2.1646285,0.61205125,1.053697,-0.06703765,-9.892841,3.5577838
0.23483895,4.9014354,-2.1646285,0.61205125,1.053697,-0.06703765,-9.892841,3.5577838
0.2359418,4.8992405,-2.1678243,0.59394175,1.1112213,-0.19632454,-10.113108,3.3518825
0.23704329,4.897047,-2.1678243,0.59394175,1.1112213,-0.19632454,-10.113108,3.3518825
0.23818645,4.894868,-2.1550412,0.5673101,1.1634192,-0.30166942,-10.237606,3.1603463
0.23933066,4.892686,-2.1550412,0.5673101,1.1634192,-0.30166942,-10.237606,3.1603463
0.2404986,4.8905306,-2.1316054,0.5342869,1.2038993,-0.23942018,-10.309433,2.9400797
0.24166653,4.8883743,-2.1316054,0.5342869,1.2038993,-0.23942018,-10.309433,2.9400797
0.24285235,4.8862514,-2.101778,0.49806795,1.234792,-0.17717093,-10.299856,2.767697
0.24404883,4.884109,-2.101778,0.49806795,1.234792,-0.17717093,-10.299856,2.767697
0.24523398,4.8820434,-2.06982,0.4629142,1.2560972,-0.15322891,-10.271125,2.6479871
0.2464312,4.8799562,-2.06982,0.4629142,1.2560972,-0.15322891,-10.271125,2.6479871
0.24762708,4.877903,-2.0389273,0.42989102,1.2667499,-0.10534488,-10.16578,2.4612393
0.24882552,4.875846,-2.0389273,0.42989102,1.2667499,-0.10534488,-10.16578,2.4612393
0.25001782,4.873815,-2.0112305,0.40432465,1.2678151,-0.272939,-10.007763,2.2409728
0.25120547,4.8717923,-2.0112305,0.40432465,1.2678151,-0.272939,-10.007763,2.2409728
0.25238326,4.8697934,-1.9877946,0.3819541,1.2592931,-0.30166942,-9.892841,2.1930888
0.2535626,4.867792,-1.9877946,0.3819541,1.2592931,-0.30166942,-9.892841,2.1930888
0.2547155,4.865807,-1.96862,0.3606488,1.2454447,-0.39743748,-9.744401,1.9009962
0.25586987,4.8638196,-1.96862,0.3606488,1.2454447,-0.39743748,-9.744401,1.9009962
0.2570003,4.861845,-1.9537063,0.34466985,1.2262698,-0.39743748,-9.653421,1.7812861
0.2581309,4.8598704,-1.9537063,0.34466985,1.2262698,-0.39743748,-9.653421,1.7812861
0.25923178,4.857902,-1.9419883,0.33295193,1.2007035,-0.35434186,-9.615114,1.6519991
0.2603327,4.855934,-1.9419883,0.33295193,1.2007035,-0.35434186,-9.615114,1.6519991
0.26140082,4.85397,-1.9313357,0.3254951,1.1708761,-0.44532153,-9.701305,1.5370775
0.2624688,4.852007,-1.9313357,0.3254951,1.1708761,-0.44532153,-9.701305,1.5370775
0.26349956,4.8500504,-1.920683,0.32123405,1.1346571,-0.4357447,-9.854534,1.508347
0.26453036,4.848095,-1.920683,0.32123405,1.1346571,-0.4357447,-9.854534,1.508347
0.2655187,4.846145,-1.9057693,0.31803825,1.094177,-0.4213795,-9.950302,1.3838485
0.26650703,4.8441954,-1.9057693,0.31803825,1.094177,-0.4213795,-9.950302,1.3838485
0.26744956,4.842256,-1.8865945,0.31590772,1.0473055,-0.37349546,-10.0748005,1.3215994
0.26838923,4.8403225,-1.8865945,0.31590772,1.0473055,-0.37349546,-10.0748005,1.3215994
0.26927924,4.8384013,-1.8620934,0.31803825,0.9961727,-0.44532153,-10.0987425,1.2162545
0.27016634,4.8364863,-1.8620934,0.31803825,0.9961727,-0.44532153,-10.0987425,1.2162545
0.2710011,4.834589,-1.8343966,0.32016876,0.9418442,-0.47405192,-10.156203,1.163582
0.27183554,4.8326926,-1.8343966,0.32016876,0.9418442,-0.47405192,-10.156203,1.163582
0.2726154,4.8308306,-1.7981776,0.3191035,0.8875157,-0.50278234,-10.184934,1.1492168
0.27339506,4.828969,-1.7981776,0.3191035,0.8875157,-0.50278234,-10.184934,1.1492168
0.27411857,4.827139,-1.7608933,0.31484246,0.832122,-0.51235914,-10.184934,1.0582372
0.27484164,4.8253093,-1.7608933,0.31484246,0.832122,-0.51235914,-10.184934,1.0582372
0.27550662,4.8235226,-1.7161522,0.30951613,0.7745977,-0.46447513,-10.19451,1.0247183
0.2761706,4.8217382,-1.7161522,0.30951613,0.7745977,-0.46447513,-10.19451,1.0247183
0.27677482,4.8200045,-1.66715,0.3041898,0.7160082,-0.4309563,-10.13705,1.0103531
0.27738115,4.8182645,-1.66715,0.3041898,0.7160082,-0.4309563,-10.13705,1.0103531
0.27792674,4.8165846,-1.6138868,0.29673296,0.6584839,-0.49799395,-10.093954,0.9911995
0.27847317,4.8149014,-1.6138868,0.29673296,0.6584839,-0.49799395,-10.093954,0.9911995
0.2789631,4.813268,-1.5595584,0.2892761,0.60309017,-0.51714754,-10.113108,0.89543146
0.2794527,4.811635,-1.5595584,0.2892761,0.60309017,-0.51714754,-10.113108,0.89543146
0.27988824,4.8100595,-1.5041646,0.28181925,0.5498269,-0.50757074,-10.108319,0.90021986
0.28032345,4.808484,-1.5041646,0.28181925,0.5498269,-0.50757074,-10.108319,0.90021986
0.2807098,4.8069596,-1.4487709,0.2743624,0.50189,-0.5410896,-10.13705,0.80445176
0.2807098,4.8069596,-1.4487709,0.2743624,0.50189,-0.5410896,-10.13705,0.80445176
0.2807098,4.8069596,-1.4487709,0.2743624,0.50189,-0.5410896,-10.13705,0.80445176
0.28180137,4.802235,-1.3944423,0.26690555,0.4571489,-0.5746084,-10.113108,0.7182605
0.2820415,4.801096,-1.3443749,0.26157922,0.41773412,-0.50278234,-10.0748005,0.6655881
0.28234133,4.799672,-1.3443749,0.26157922,0.41773412,-0.50278234,-10.0748005,0.6655881
0.28260654,4.798293,-1.2975034,0.25518763,0.38364565,-0.58418524,-10.041282,0.58418524
0.28287178,4.7969117,-1.2975034,0.25518763,0.38364565,-0.58418524,-10.041282,0.58418524
0.28310835,4.795567,-1.2570232,0.24879605,0.35488352,-0.60333884,-9.998186,0.47405192
0.28334534,4.794218,-1.2570232,0.24879605,0.35488352,-0.60333884,-9.998186,0.47405192
0.28355744,4.7929163,-1.2208042,0.24346973,0.33251297,-0.60812724,-9.945514,0.47884035
0.2837696,4.7916126,-1.2208042,0.24346973,0.33251297,-0.60812724,-9.945514,0.47884035
0.28396425,4.790334,-1.1899116,0.23601288,0.31440347,-0.6464345,-9.849746,0.37828386
0.28415817,4.7890577,-1.1899116,0.23601288,0.31440347,-0.6464345,-9.849746,0.37828386
0.284335,4.7878113,-1.1643453,0.22749077,0.2984245,-0.6751649,-9.773131,0.37828386
0.28451213,4.7865596,-1.1643453,0.22749077,0.2984245,-0.6751649,-9.773131,0.37828386
0.28467712,4.7853303,-1.14304,0.21896864,0.2867066,-0.6943185,-9.706094,0.32561144
0.2848412,4.7841053,-1.14304,0.21896864,0.2867066,-0.6943185,-9.706094,0.32561144
0.28499895,4.782894,-1.1259958,0.21044654,0.280315,-0.6799533,-9.643845,0.2825158
0.28515613,4.781685,-1.1259958,0.21044654,0.280315,-0.6799533,-9.643845,0.2825158
0.28530765,4.7804937,-1.1121473,0.19872862,0.27605397,-0.6751649,-9.586384,0.29209262
0.28545877,4.7793036,-1.1121473,0.19872862,0.27605397,-0.6751649,-9.586384,0.29209262
0.28560728,4.77813,-1.1025599,0.18914124,0.27498868,-0.6847417,-9.528923,0.33997664
0.2857554,4.776957,-1.1025599,0.18914124,0.27498868,-0.6847417,-9.528923,0.33997664
0.28590092,4.7758007,-1.0940378,0.17742333,0.27392343,-0.6368576,-9.485827,0.39743748
0.2860462,4.7746453,-1.0940378,0.17742333,0.27392343,-0.6368576,-9.485827,0.39743748
0.2861905,4.773501,-1.0876462,0.16783595,0.27392343,-0.6368576,-9.519346,0.4165911
0.28633448,4.7723575,-1.0876462,0.16783595,0.27392343,-0.6368576,-9.519346,0.4165911
0.28648198,4.7712164,-1.0812546,0.1571833,0.27711922,-0.62728083,-9.466674,0.40222588
0.28662834,4.7700825,-1.0812546,0.1571833,0.27711922,-0.62728083,-9.466674,0.40222588
0.28677422,4.7689695,-1.0737978,0.14653066,0.27818447,-0.641646,-9.44752,0.45010993
0.28692055,4.7678523,-1.0737978,0.14653066,0.27818447,-0.641646,-9.44752,0.45010993
0.28706968,4.7667437,-1.0652757,0.13587803,0.28138027,-0.63206923,-9.471462,0.4309563
0.28737557,4.764509,-1.0556883,0.12629063,0.28564134,-0.61770403,-9.519346,0.4213795
0.28737557,4.764509,-1.0556883,0.12629063,0.28564134,-0.61770403,-9.519346,0.4213795
0.28755355,4.7632318,-1.0556883,0.12629063,0.28564134,-0.61770403,-9.519346,0.4213795
0.2876799,4.762348,-1.0461009,0.11670326,0.28777185,-0.62249243,-9.533711,0.45968673
0.2878316,4.7612867,-1.0461009,0.11670326,0.28777185,-0.62249243,-9.533711,0.45968673
0.28798625,4.760233,-1.0322524,0.10711588,0.28883713,-0.6368576,-9.528923,0.51235914
0.2881417,4.7591753,-1.0322524,0.10711588,0.28883713,-0.6368576,-9.528923,0.51235914
0.2882988,4.758148,-1.0152082,0.09433271,0.29096764,-0.58418524,-9.557653,0.58418524
0.28845665,4.7571173,-1.0152082,0.09433271,0.29096764,-0.58418524,-9.557653,0.58418524
0.28861853,4.75611,-0.9960335,0.08900639,0.29416344,-0.61770403,-9.605537,0.63206923
0.28878003,4.755107,-0.9960335,0.08900639,0.29416344,-0.61770403,-9.605537,0.63206923
0.28894308,4.75412,-0.9757934,0.086875856,0.29629397,-0.641646,-9.643845,0.58897364
0.28910598,4.753135,-0.9757934,0.086875856,0.29629397,-0.641646,-9.643845,0.58897364
0.2892732,4.752179,-0.9512924,0.082614794,0.29948977,-0.60812724,-9.677363,0.6464345
0.28944078,4.7512226,-0.9512924,0.082614794,0.29948977,-0.60812724,-9.677363,0.6464345
0.28961042,4.750293,-0.92466074,0.08048427,0.30268556,-0.6512229,-9.744401,0.60333884
0.28978002,4.7493634,-0.92466074,0.08048427,0.30268556,-0.6512229,-9.744401,0.60333884
0.28995222,4.7484603,-0.8969639,0.07835374,0.30588135,-0.6991069,-9.758766,0.5650316
0.29012448,4.747558,-0.8969639,0.07835374,0.30588135,-0.6991069,-9.758766,0.5650316
0.29030037,4.7466774,-0.86820173,0.07515795,0.31120768,-0.6847417,-9.821015,0.45968673
0.29047784,4.74579,-0.86820173,0.07515795,0.31120768,-0.6847417,-9.821015,0.45968673
0.29065478,4.7449408,-0.8405049,0.07089689,0.31440347,-0.6607997,-9.801862,0.38307226
0.29083252,4.7440877,-0.8405049,0.07089689,0.31440347,-0.6607997,-9.801862,0.38307226
0.29083252,4.7440877,-0.8405049,0.07089689,0.31440347,-0.6607997,-9.801862,0.38307226
0.29083252,4.7440877,-0.8405049,0.07089689,0.31440347,-0.6607997,-9.801862,0.38307226
0.29083252,4.7440877,-0.8405049,0.07089689,0.31440347,-0.6607997,-9.801862,0.38307226
0.2916282,4.740509,-0.77126265,0.06237477,0.3218603,-0.7326257,-10.012551,0.12449849
0.29173926,4.740028,-0.77126265,0.06237477,0.3218603,-0.7326257,-10.012551,0.12449849
0.29192328,4.7392297,-0.77126265,0.06237477,0.3218603,-0.7326257,-10.012551,0.12449849
0.29211202,4.7384453,-0.7520879,0.058113717,0.3261214,-0.79008657,-10.007763,0.033518825
0.29230016,4.7376633,-0.7520879,0.058113717,0.3261214,-0.79008657,-10.007763,0.033518825
0.29249448,4.7368927,-0.7350437,0.05491792,0.33144772,-0.80924016,-10.141838,-0.062249243
0.29268822,4.736124,-0.7350437,0.05491792,0.33144772,-0.80924016,-10.141838,-0.062249243
0.2928854,4.73537,-0.72012997,0.051722128,0.3346435,-0.92416185,-10.060435,-0.07182605
0.2930829,4.7346144,-0.72012997,0.051722128,0.3346435,-0.92416185,-10.060435,-0.07182605
0.29328334,4.7338734,-0.70841205,0.048526336,0.3378393,-0.92416185,-10.113108,-0.033518825
0.29348296,4.7331357,-0.70841205,0.048526336,0.3378393,-0.92416185,-10.113108,-0.033518825
0.29368734,4.7324038,-0.7009552,0.043200012,0.34210035,-0.9576807,-10.156203,-0.07182605
0.29389155,4.731672,-0.7009552,0.043200012,0.34210035,-0.9576807,-10.156203,-0.07182605
0.29409865,4.730949,-0.6945636,0.03787369,0.34529614,-0.9624691,-10.189722,-0.06703765
0.29430556,4.730227,-0.6945636,0.03787369,0.34529614,-0.9624691,-10.189722,-0.06703765
0.2945156,4.7295074,-0.68817204,0.031482104,0.34742668,-0.9911995,-10.208876,-0.1388637
0.29472515,4.7287903,-0.68817204,0.031482104,0.34742668,-0.9911995,-10.208876,-0.1388637
0.29493436,4.728081,-0.6828457,0.025090516,0.34742668,-1.0199299,-10.184934,-0.110133275
0.29514575,4.7273645,-0.6828457,0.025090516,0.34742668,-1.0199299,-10.184934,-0.110133275
0.29534942,4.7266703,-0.6775194,0.017633665,0.3442309,-1.0582372,-10.251971,-0.12928689
0.29555574,4.7259674,-0.6775194,0.017633665,0.3442309,-1.0582372,-10.251971,-0.12928689
0.29575607,4.7252684,-0.67219305,0.011242079,0.3378393,-1.0534488,-10.290278,-0.19153613
0.29595593,4.724571,-0.67219305,0.011242079,0.3378393,-1.0534488,-10.290278,-0.19153613
0.2961483,4.7238803,-0.66793203,0.0059157563,0.33038244,-1.0342951,-10.28549,-0.16759412
0.29633948,4.723194,-0.66793203,0.0059157563,0.33038244,-1.0342951,-10.28549,-0.16759412
0.29652047,4.7225084,-0.66367096,-0.0036716238,0.31866452,-1.0295067,-10.31901,-0.20111294
0.29670063,4.7218256,-0.66367096,-0.0036716238,0.31866452,-1.0295067,-10.31901,-0.20111294
0.2968675,4.7211485,-0.6572794,-0.012193739,0.3048161,-1.0869676,-10.362105,-0.23463176
0.2970343,4.7204723,-0.6572794,-0.012193739,0.3048161,-1.0869676,-10.362105,-0.23463176
0.2971807,4.7198057,-0.6508878,-0.02178112,0.28457606,-1.0534488,-10.352529,-0.2633622
0.29732755,4.719137,-0.6508878,-0.02178112,0.28457606,-1.0534488,-10.352529,-0.2633622
0.2974523,4.7184787,-0.6423657,-0.032433763,0.2622055,-1.043872,-10.381259,-0.31124622
0.29757708,4.71782,-0.6423657,-0.032433763,0.2622055,-1.043872,-10.381259,-0.31124622
0.2976761,4.7171783,-0.6306478,-0.04415167,0.23663917,-1.1252748,-10.46745,-0.30166942
0.29777512,4.7165356,-0.6306478,-0.04415167,0.23663917,-1.1252748,-10.46745,-0.30166942
0.29784775,4.715911,-0.61573404,-0.055869583,0.21000756,-1.1204864,-10.472239,-0.33518824
0.2979205,4.715286,-0.61573404,-0.055869583,0.21000756,-1.1204864,-10.472239,-0.33518824
0.2979639,4.714676,-0.59868985,-0.06865276,0.1791149,-1.1492168,-10.524911,-0.4165911
0.29800758,4.71406,-0.59868985,-0.06865276,0.1791149,-1.1492168,-10.524911,-0.4165911
0.29802215,4.713477,-0.5795151,-0.081435926,0.14928748,-1.1779473,-10.5680065,-0.47405192
0.29803675,4.7128882,-0.5795151,-0.081435926,0.14928748,-1.1779473,-10.5680065,-0.47405192
0.29802158,4.7123194,-0.55607927,-0.0942191,0.11626428,-1.2018893,-10.601525,-0.59376204
0.29800624,4.7117505,-0.55607927,-0.0942191,0.11626428,-1.2018893,-10.601525,-0.59376204
0.29795903,4.711213,-0.5273171,-0.10806754,0.08324109,-1.1875241,-10.649409,-0.641646
0.29791152,4.710675,-0.5273171,-0.10806754,0.08324109,-1.1875241,-10.649409,-0.641646
0.29783425,4.7101674,-0.49535918,-0.11765492,0.05021789,-1.1875241,-10.697293,-0.7517793
0.29775685,4.7096596,-0.49535918,-0.11765492,0.05021789,-1.1875241,-10.697293,-0.7517793
0.2976454,4.7091894,-0.45807493,-0.12617704,0.015064162,-1.1300632,-10.682928,-0.80924016
0.29753384,4.70872,-0.45807493,-0.12617704,0.015064162,-1.1300632,-10.682928,-0.80924016
0.2973883,4.70829,-0.41866013,-0.13363388,-0.020089565,-1.1013328,-10.658986,-0.8571242
0.29724264,4.707861,-0.41866013,-0.13363388,-0.020089565,-1.1013328,-10.658986,-0.8571242
0.2970673,4.707471,-0.37391904,-0.13789494,-0.05417803,-1.043872,-10.673351,-1.0199299
0.29689184,4.707081,-0.37391904,-0.13789494,-0.05417803,-1.043872,-10.673351,-1.0199299
0.2966861,4.7067356,-0.32491687,-0.13789494,-0.08933175,-1.1013328,-10.682928,-1.1300632
0.29648018,4.7063894,-0.32491687,-0.13789494,-0.08933175,-1.1013328,-10.682928,-1.1300632
0.29623607,4.706099,-0.27165365,-0.13682967,-0.12555075,-1.1061212,-10.67814,-1.0726024
0.29599202,4.7058086,-0.27165365,-0.13682967,-0.12555075,-1.1061212,-10.67814,-1.0726024
0.2957193,4.7055655,-0.2162599,-0.13256863,-0.15963921,-1.0582372,-10.682928,-1.2593501
0.2954465,4.705323,-0.2162599,-0.13256863,-0.15963921,-1.0582372,-10.682928,-1.2593501
0.29514125,4.705139,-0.15553981,-0.1272423,-0.1926624,-1.1252748,-10.572795,-1.2162545
0.29483637,4.704955,-0.15553981,-0.1272423,-0.1926624,-1.1252748,-10.572795,-1.2162545
0.2944541,4.7048073,-0.09162395,-0.11765492,-0.22355507,-1.1444284,-10.5919485,-1.3503298
0.29417318,4.704699,-0.09162395,-0.11765492,-0.22355507,-1.1444284,-10.5919485,-1.3503298
0.29381138,4.7046366,-0.025577553,-0.109132804,-0.25444776,-1.1779473,-10.620679,-1.283292
0.29344773,4.7045736,-0.025577553,-0.109132804,-0.25444776,-1.1779473,-10.620679,-1.283292
0.2930576,4.7045765,0.042599373,-0.10061069,-0.2821446,-1.1779473,-10.563218,-1.283292
0.2926668,4.7045784,0.042599373,-0.10061069,-0.2821446,-1.1779473,-10.563218,-1.283292
0.29225013,4.704648,0.11184156,-0.09102331,-0.3066457,-1.1779473,-10.582372,-1.2593501
0.2918348,4.7047176,0.11184156,-0.09102331,-0.3066457,-1.1779473,-10.582372,-1.2593501
0.2913942,4.704855,0.18108375,-0.080370665,-0.32901627,-1.1061212,-10.6158905,-1.2641385
0.29095417,4.7049913,0.18108375,-0.080370665,-0.32901627,-1.1061212,-10.6158905,-1.2641385
0.29048777,4.705199,0.25032595,-0.06971802,-0.35032153,-1.0582372,-10.620679,-1.163582
0.290022,4.705406,0.25032595,-0.06971802,-0.35032153,-1.0582372,-10.620679,-1.163582
0.28953895,4.7056756,0.3174376,-0.05800011,-0.36843103,-1.0726024,-10.654198,-1.1827357
0.28905612,4.705945,0.3174376,-0.05800011,-0.36843103,-1.0726024,-10.654198,-1.1827357
0.28854117,4.706287,0.38241872,-0.047347467,-0.38547528,-1.0773908,-10.673351,-1.1348516
0.28804243,4.706618,0.38241872,-0.047347467,-0.38547528,-1.0773908,-10.673351,-1.1348516
0.28753045,4.707007,0.44526935,-0.03669482,-0.40145424,-1.0199299,-10.630256,-1.0821792
0.28701243,4.7074003,0.44526935,-0.03669482,-0.40145424,-1.0199299,-10.630256,-1.0821792
