Pitch,Roll,Gyro_X,Gyro_Y,Gyro_Z,Accel_X,Accel_Y,Accel_Z
0.14258988,4.6778293,0.021294083,0.015503136,0.11626428,-0.15801731,-9.648633,-0.40222588
0.14256603,4.677841,0.01809829,0.0165684,0.11732955,-0.19153613,-9.691729,-0.36391866
0.14254583,4.6778517,0.01809829,0.0165684,0.11732955,-0.19153613,-9.691729,-0.36391866
0.14252272,4.6778593,0.014902496,0.015503136,0.11732955,-0.12449849,-9.706094,-0.37349546
0.14250019,4.677867,0.014902496,0.015503136,0.11732955,-0.12449849,-9.706094,-0.37349546
0.14247543,4.6778755,0.010641438,0.015503136,0.11626428,-0.11971009,-9.701305,-0.33039984
0.14245191,4.677884,0.010641438,0.015503136,0.11626428,-0.11971009,-9.701305,-0.33039984
0.14242785,4.677894,0.008510909,0.015503136,0.11626428,-0.110133275,-9.782708,-0.29688102
0.14240403,4.6779046,0.008510909,0.015503136,0.11626428,-0.110133275,-9.782708,-0.29688102
0.14238235,4.6779137,0.00638038,0.015503136,0.11732955,-0.12928689,-9.830592,-0.2825158
0.14236006,4.6779237,0.00638038,0.015503136,0.11732955,-0.12928689,-9.830592,-0.2825158
0.14234197,4.6779313,0.004249851,0.015503136,0.12159061,-0.095768064,-9.801862,-0.2825158
0.14232384,4.6779385,0.004249851,0.015503136,0.12159061,-0.095768064,-9.801862,-0.2825158
0.1423071,4.6779375,0.0021193223,0.017633665,0.12372114,-0.1340753,-9.835381,-0.33997664
0.14229044,4.6779366,0.0021193223,0.017633665,0.12372114,-0.1340753,-9.835381,-0.33997664
0.14227714,4.6779375,0.0010540579,0.01869893,0.12691693,-0.17717093,-9.840169,-0.31124622
0.14226386,4.6779385,0.0010540579,0.01869893,0.12691693,-0.17717093,-9.840169,-0.31124622
0.142254,4.6779404,0.0010540579,0.019764194,0.13011272,-0.12928689,-9.801862,-0.29209262
0.14224406,4.677943,0.0010540579,0.019764194,0.13011272,-0.12928689,-9.801862,-0.29209262
0.1422336,4.677938,-0.0010764711,0.019764194,0.13011272,-0.11492168,-9.787497,-0.34476504
0.14222321,4.6779327,-0.0010764711,0.019764194,0.13011272,-0.11492168,-9.787497,-0.34476504
0.14221485,4.677924,-0.0042722644,0.019764194,0.13224325,-0.110133275,-9.811439,-0.34476504
0.14220664,4.6779156,-0.0042722644,0.019764194,0.13224325,-0.110133275,-9.811439,-0.34476504
0.14219926,4.6779003,-0.005337529,0.020829458,0.13330851,-0.11971009,-9.768343,-0.39264908
0.14219189,4.677885,-0.005337529,0.020829458,0.13330851,-0.11971009,-9.768343,-0.39264908
0.14218351,4.677865,-0.009598587,0.021894723,0.13224325,-0.12449849,-9.677363,-0.39743748
0.14217511,4.6778445,-0.009598587,0.021894723,0.13224325,-0.12449849,-9.677363,-0.39743748
0.14216986,4.6778235,-0.014924909,0.025090516,0.13543904,-0.110133275,-9.715671,-0.34955344
0.14216459,4.677803,-0.014924909,0.025090516,0.13543904,-0.110133275,-9.715671,-0.34955344
0.14216042,4.67777,-0.019185968,0.027221046,0.1365043,-0.1388637,-9.696517,-0.4165911
0.14215617,4.677737,-0.019185968,0.027221046,0.1365043,-0.1388637,-9.696517,-0.4165911
0.14215063,4.677682,-0.025577553,0.02828631,0.13543904,-0.1340753,-9.672575,-0.47405192
0.14214689,4.6776447,-0.025577553,0.02828631,0.13543904,-0.1340753,-9.672575,-0.47405192
0.14213939,4.6775928,-0.03196914,0.029351573,0.13437378,-0.12928689,-9.744401,-0.41180268
0.142134,4.6775546,-0.03196914,0.029351573,0.13437378,-0.12928689,-9.744401,-0.41180268
0.14212635,4.677504,-0.03729546,0.031482104,0.13330851,-0.11492168,-9.725247,-0.41180268
0.14211869,4.6774535,-0.03729546,0.031482104,0.13330851,-0.11492168,-9.725247,-0.41180268
0.1421092,4.6773815,-0.042621784,0.03254737,0.13437378,-0.16759412,-9.749189,-0.36870706
0.14210518,4.6773505,-0.042621784,0.03254737,0.13437378,-0.16759412,-9.749189,-0.36870706
0.14209726,4.677286,-0.047948107,0.03361263,0.13437378,-0.15801731,-9.710882,-0.35434186
0.14209163,4.6772394,-0.047948107,0.03361263,0.13437378,-0.15801731,-9.710882,-0.35434186
0.14208402,4.67718,-0.054339692,0.034677897,0.13330851,-0.15322891,-9.753978,-0.35434186
0.14207625,4.6771193,-0.054339692,0.034677897,0.13330851,-0.15322891,-9.753978,-0.35434186
0.14206736,4.6770515,-0.058600754,0.034677897,0.13224325,-0.15801731,-9.768343,-0.37349546
0.14205836,4.6769843,-0.058600754,0.034677897,0.13224325,-0.15801731,-9.768343,-0.37349546
0.1420514,4.6769238,-0.061796546,0.035743162,0.13330851,-0.10534488,-9.801862,-0.2825158
0.1420444,4.6768627,-0.061796546,0.035743162,0.13330851,-0.10534488,-9.801862,-0.2825158
0.14203963,4.676798,-0.06712287,0.036808424,0.13543904,-0.16280572,-9.840169,-0.2825158
0.14203481,4.676732,-0.06712287,0.036808424,0.13543904,-0.16280572,-9.840169,-0.2825158
0.14202973,4.676669,-0.0692534,0.036808424,0.13437378,-0.15322891,-9.830592,-0.24420857
0.14202473,4.676606,-0.0692534,0.036808424,0.13437378,-0.15322891,-9.830592,-0.24420857
0.142018,4.67653,-0.07031866,0.036808424,0.13437378,-0.1388637,-9.849746,-0.34955344
0.14201126,4.6764536,-0.07031866,0.036808424,0.13437378,-0.1388637,-9.849746,-0.34955344
0.14200574,4.6763797,-0.07031866,0.035743162,0.13543904,-0.15322891,-9.821015,-0.33997664
0.14200015,4.6763053,-0.07031866,0.035743162,0.13543904,-0.15322891,-9.821015,-0.33997664
0.14199677,4.676232,-0.0692534,0.034677897,0.13756958,-0.18674773,-9.868899,-0.33997664
0.14199336,4.6761594,-0.0692534,0.034677897,0.13756958,-0.18674773,-9.868899,-0.33997664
0.14199272,4.676091,-0.0692534,0.03254737,0.1397001,-0.17717093,-9.840169,-0.30166942
0.14199205,4.6760225,-0.0692534,0.03254737,0.1397001,-0.17717093,-9.840169,-0.30166942
0.14198986,4.6759534,-0.06712287,0.030416839,0.13863485,-0.1340753,-9.797073,-0.33518824
0.14198776,4.6758833,-0.06712287,0.030416839,0.13863485,-0.1340753,-9.797073,-0.33518824
0.1419857,4.6758237,-0.06499234,0.029351573,0.13756958,-0.1340753,-9.835381,-0.2681506
0.1419837,4.675764,-0.06499234,0.029351573,0.13756958,-0.1340753,-9.835381,-0.2681506
0.1419817,4.675713,-0.06073128,0.02828631,0.1365043,-0.15801731,-9.825804,-0.22984336
0.14197972,4.675662,-0.06073128,0.02828631,0.1365043,-0.15801731,-9.825804,-0.22984336
0.14197724,4.6756124,-0.05753549,0.026155781,0.1365043,-0.1340753,-9.77792,-0.24899697
0.14197475,4.675563,-0.05753549,0.026155781,0.1365043,-0.1340753,-9.77792,-0.24899697
0.14197126,4.6755166,-0.054339692,0.024025252,0.13543904,-0.18674773,-9.840169,-0.25378537
0.14196773,4.6754704,-0.054339692,0.024025252,0.13543904,-0.18674773,-9.840169,-0.25378537
0.14196515,4.675428,-0.050078638,0.021894723,0.1365043,-0.16280572,-9.801862,-0.2633622
0.14196251,4.675384,-0.050078638,0.021894723,0.1365043,-0.16280572,-9.801862,-0.2633622
0.14196044,4.675341,-0.04688284,0.020829458,0.13756958,-0.1340753,-9.720459,-0.2825158
0.14195852,4.6753006,-0.04688284,0.020829458,0.13756958,-0.1340753,-9.720459,-0.2825158
0.14195524,4.6752605,-0.04368705,0.01869893,0.1365043,-0.15322891,-9.787497,-0.30645782
0.14195187,4.67522,-0.04368705,0.01869893,0.1365043,-0.15322891,-9.787497,-0.30645782
0.14194754,4.6751842,-0.03942599,0.015503136,0.13543904,-0.15322891,-9.758766,-0.30645782
0.14194329,4.675148,-0.03942599,0.015503136,0.13543904,-0.15322891,-9.758766,-0.30645782
0.14193767,4.675112,-0.03729546,0.0133726075,0.13437378,-0.1436521,-9.758766,-0.33039984
0.14193204,4.675076,-0.03729546,0.0133726075,0.13437378,-0.1436521,-9.758766,-0.33039984
0.14192817,4.675047,-0.03409967,0.011242079,0.13543904,-0.16759412,-9.744401,-0.29688102
0.14192423,4.675019,-0.03409967,0.011242079,0.13543904,-0.16759412,-9.744401,-0.29688102
0.14191875,4.6749883,-0.03196914,0.00911155,0.13437378,-0.16280572,-9.77792,-0.33518824
0.14191322,4.6749578,-0.03196914,0.00911155,0.13437378,-0.16280572,-9.77792,-0.33518824
0.14190471,4.674931,-0.02983861,0.006981021,0.13117799,-0.17238252,-9.797073,-0.32561144
0.14189622,4.6749043,-0.02983861,0.006981021,0.13117799,-0.17238252,-9.797073,-0.32561144
0.14188829,4.674874,-0.026642818,0.0059157563,0.13224325,-0.19153613,-9.797073,-0.3878607
0.14188038,4.6748433,-0.026642818,0.0059157563,0.13224325,-0.19153613,-9.797073,-0.3878607
0.1418733,4.674824,-0.02451229,0.0059157563,0.13224325,-0.21068975,-9.734824,-0.30645782
0.14186618,4.6748056,-0.02451229,0.0059157563,0.13224325,-0.21068975,-9.734824,-0.30645782
0.14185578,4.674787,-0.02238176,0.0037852274,0.12904745,-0.19153613,-9.744401,-0.320823
0.1418453,4.674769,-0.02238176,0.0037852274,0.12904745,-0.19153613,-9.744401,-0.320823
0.14183354,4.6747503,-0.020251231,0.0037852274,0.1279822,-0.17717093,-9.730036,-0.34476504
0.14182167,4.674731,-0.020251231,0.0037852274,0.1279822,-0.17717093,-9.730036,-0.34476504
0.14180957,4.674705,-0.018120702,0.002719963,0.1279822,-0.21547815,-9.696517,-0.4213795
0.14179756,4.674679,-0.018120702,0.002719963,0.1279822,-0.21547815,-9.696517,-0.4213795
0.14178558,4.674653,-0.015990173,0.002719963,0.1279822,-0.17238252,-9.677363,-0.4405331
0.14177364,4.6746273,-0.015990173,0.002719963,0.1279822,-0.17238252,-9.677363,-0.4405331
0.1417616,4.674605,-0.014924909,0.0037852274,0.1279822,-0.11971009,-9.639056,-0.4165911
0.14174946,4.674583,-0.014924909,0.0037852274,0.1279822,-0.11971009,-9.639056,-0.4165911
0.14173646,4.674568,-0.0138596445,0.002719963,0.12691693,-0.16280572,-9.648633,-0.36391866
0.14172345,4.6745534,-0.0138596445,0.002719963,0.12691693,-0.16280572,-9.648633,-0.36391866
0.14170943,4.6745296,-0.0138596445,0.0016546985,0.12585166,-0.090979666,-9.643845,-0.44532153
0.1416954,4.674506,-0.0138596445,0.0016546985,0.12585166,-0.090979666,-9.643845,-0.44532153
0.14167911,4.67449,-0.011729116,0.0016546985,0.12372114,-0.1436521,-9.653421,-0.39264908
0.14166282,4.6744747,-0.011729116,0.0016546985,0.12372114,-0.1436521,-9.653421,-0.39264908
0.14164518,4.6744432,-0.009598587,0.002719963,0.120525345,-0.14844051,-9.624691,-0.545878
0.14162757,4.674412,-0.009598587,0.002719963,0.120525345,-0.14844051,-9.624691,-0.545878
0.14161062,4.6743784,-0.008533322,0.0037852274,0.120525345,-0.076614454,-9.677363,-0.58897364
0.1415936,4.674345,-0.008533322,0.0037852274,0.120525345,-0.076614454,-9.677363,-0.58897364
0.14157574,4.6743174,-0.0064027933,0.004850492,0.120525345,-0.22984336,-9.5385,-0.521936
0.14155787,4.6742897,-0.0064027933,0.004850492,0.120525345,-0.22984336,-9.5385,-0.521936
0.14153929,4.67428,-0.0042722644,0.004850492,0.12159061,-0.37828386,-9.605537,-0.39264908
0.14152066,4.674271,-0.0042722644,0.004850492,0.12159061,-0.37828386,-9.605537,-0.39264908
0.14150667,4.67427,-0.003207,0.004850492,0.12585166,-0.35913026,-9.706094,-0.34476504
0.14149268,4.6742687,-0.003207,0.004850492,0.12585166,-0.35913026,-9.706094,-0.34476504
0.14148682,4.674282,0.0010540579,0.002719963,0.13224325,-0.21068975,-9.725247,-0.2633622
0.14148101,4.6742945,0.0010540579,0.002719963,0.13224325,-0.21068975,-9.725247,-0.2633622
0.14147903,4.674303,0.0053151157,0.0016546985,0.13756958,-0.08140286,-9.768343,-0.33518824
0.14147706,4.674311,0.0053151157,0.0016546985,0.13756958,-0.08140286,-9.768343,-0.33518824
0.14148098,4.6743174,0.008510909,0.004850492,0.14396116,-0.047884032,-9.691729,-0.37828386
0.14148489,4.674323,0.008510909,0.004850492,0.14396116,-0.047884032,-9.691729,-0.37828386
0.14149646,4.6743197,0.010641438,0.008046285,0.15141802,-0.08140286,-9.629479,-0.47884035
0.14150807,4.674316,0.010641438,0.008046285,0.15141802,-0.08140286,-9.629479,-0.47884035
0.141523,4.6743026,0.010641438,0.014437872,0.15354854,-0.1388637,-9.5385,-0.545878
0.14153795,4.6742897,0.010641438,0.014437872,0.15354854,-0.1388637,-9.5385,-0.545878
0.14155449,4.6742725,0.00638038,0.019764194,0.15567908,-0.22984336,-9.500193,-0.51714754
0.14157115,4.6742563,0.00638038,0.019764194,0.15567908,-0.22984336,-9.500193,-0.51714754
0.14159355,4.674224,0.0010540579,0.025090516,0.15887487,-0.29209262,-9.471462,-0.58418524
0.14162041,4.674185,0.0010540579,0.025090516,0.15887487,-0.29209262,-9.471462,-0.58418524
0.14162041,4.674185,-0.0042722644,0.02828631,0.16420119,-0.24420857,-9.519346,-0.49799395
0.14166921,4.6741323,-0.0042722644,0.02828631,0.16420119,-0.24420857,-9.519346,-0.49799395
0.14169262,4.6741,-0.011729116,0.029351573,0.16739698,-0.25378537,-9.533711,-0.5506664
0.14172138,4.6740603,-0.011729116,0.029351573,0.16739698,-0.25378537,-9.533711,-0.5506664
0.14175223,4.674018,-0.018120702,0.03254737,0.17059277,-0.16280572,-9.5385,-0.5267244
0.14178304,4.673975,-0.018120702,0.03254737,0.17059277,-0.16280572,-9.5385,-0.5267244
0.14181761,4.6739283,-0.02451229,0.034677897,0.17485383,-0.17717093,-9.562442,-0.50757074
0.14185224,4.673881,-0.02451229,0.034677897,0.17485383,-0.17717093,-9.562442,-0.50757074
0.14188845,4.673833,-0.02983861,0.04000422,0.17698435,-0.1436521,-9.552865,-0.46447513
0.14192863,4.673779,-0.02983861,0.04000422,0.17698435,-0.1436521,-9.552865,-0.46447513
0.14197145,4.6737165,-0.035164934,0.046395805,0.18124542,-0.14844051,-9.514558,-0.50757074
0.14201026,4.67366,-0.035164934,0.046395805,0.18124542,-0.14844051,-9.514558,-0.50757074
0.14205287,4.6735983,-0.038360726,0.051722128,0.18550648,-0.16280572,-9.509769,-0.521936
0.14209385,4.673539,-0.038360726,0.051722128,0.18550648,-0.16280572,-9.509769,-0.521936
0.14214008,4.67347,-0.042621784,0.05491792,0.187637,-0.20111294,-9.471462,-0.521936
0.14218701,4.6733994,-0.042621784,0.05491792,0.187637,-0.20111294,-9.471462,-0.521936
0.1422364,4.673327,-0.047948107,0.058113717,0.1908328,-0.20111294,-9.461885,-0.49320555
0.14228585,4.6732545,-0.047948107,0.058113717,0.1908328,-0.20111294,-9.461885,-0.49320555
0.1423409,4.6731615,-0.05327443,0.06130951,0.19296333,-0.15801731,-9.471462,-0.63206923
0.14239623,4.6730685,-0.05327443,0.06130951,0.19296333,-0.15801731,-9.471462,-0.63206923
0.14245057,4.6729803,-0.05753549,0.06344004,0.19509386,-0.12449849,-9.442732,-0.5506664
0.14250481,4.672892,-0.05753549,0.06344004,0.19509386,-0.12449849,-9.442732,-0.5506664
0.1425622,4.672808,-0.06073128,0.06557056,0.19935492,-0.15322891,-9.471462,-0.48362875
0.14261948,4.672724,-0.06073128,0.06557056,0.19935492,-0.15322891,-9.471462,-0.48362875
0.14268047,4.672632,-0.06392708,0.068766356,0.20255071,-0.11492168,-9.495404,-0.521936
0.14274108,4.6725416,-0.06392708,0.068766356,0.20255071,-0.11492168,-9.495404,-0.521936
0.14280365,4.6724486,-0.06712287,0.069831625,0.20468123,-0.12928689,-9.495404,-0.50757074
0.14286767,4.6723533,-0.06712287,0.069831625,0.20468123,-0.12928689,-9.495404,-0.50757074
0.14293382,4.6722574,-0.0692534,0.07409268,0.2089423,-0.12928689,-9.466674,-0.51714754
0.14299999,4.672161,-0.0692534,0.07409268,0.2089423,-0.12928689,-9.466674,-0.51714754
0.1430689,4.672072,-0.07244919,0.07622321,0.21213809,-0.11492168,-9.428367,-0.4213795
0.14313787,4.671983,-0.07244919,0.07622321,0.21213809,-0.11492168,-9.428367,-0.4213795
0.14321138,4.671882,-0.075644985,0.079419,0.21639915,-0.11492168,-9.495404,-0.48841715
0.14328472,4.6717825,-0.075644985,0.079419,0.21639915,-0.11492168,-9.495404,-0.48841715
0.1433608,4.671685,-0.07777551,0.08581059,0.21959494,-0.08619126,-9.500193,-0.4357447
0.14343688,4.6715884,-0.07777551,0.08581059,0.21959494,-0.08619126,-9.500193,-0.4357447
0.14351709,4.671486,-0.08097131,0.09220218,0.223856,-0.090979666,-9.437943,-0.44532153
0.1435971,4.671384,-0.08097131,0.09220218,0.223856,-0.090979666,-9.437943,-0.44532153
0.14367917,4.6712813,-0.08310183,0.098593764,0.22598653,-0.110133275,-9.423578,-0.4213795
0.14376102,4.671179,-0.08310183,0.098593764,0.22598653,-0.110133275,-9.423578,-0.4213795
0.14384364,4.671068,-0.08629763,0.10498535,0.2270518,-0.12928689,-9.457097,-0.45968673
0.14392652,4.670957,-0.08629763,0.10498535,0.2270518,-0.12928689,-9.457097,-0.45968673
0.14400892,4.6708403,-0.090558685,0.11137694,0.2270518,-0.10534488,-9.423578,-0.47405192
0.14409165,4.6707225,-0.090558685,0.11137694,0.2270518,-0.10534488,-9.423578,-0.47405192
0.14417334,4.6705937,-0.09481974,0.117768526,0.22598653,-0.12449849,-9.428367,-0.5315128
0.1442554,4.6704645,-0.09481974,0.117768526,0.22598653,-0.12449849,-9.428367,-0.5315128
0.14433797,4.670328,-0.10121133,0.12522538,0.2270518,-0.12449849,-9.457097,-0.5363012
0.1444207,4.670192,-0.10121133,0.12522538,0.2270518,-0.12449849,-9.457097,-0.5363012
0.14450504,4.670037,-0.10973345,0.13161696,0.2270518,-0.1436521,-9.428367,-0.61770403
0.14458932,4.669882,-0.10973345,0.13161696,0.2270518,-0.1436521,-9.428367,-0.61770403
0.14467165,4.669717,-0.117190294,0.13800855,0.22492126,-0.1388637,-9.399636,-0.63206923
0.14475384,4.6695523,-0.117190294,0.13800855,0.22492126,-0.1388637,-9.399636,-0.63206923
0.14483295,4.6693773,-0.12571241,0.14333487,0.22172546,-0.1388637,-9.404425,-0.63206923
0.14492579,4.6691723,-0.12571241,0.14333487,0.22172546,-0.1388637,-9.404425,-0.63206923
0.14499022,4.6690164,-0.13529979,0.1486612,0.21959494,-0.15801731,-9.394848,-0.6799533
0.1450678,4.668828,-0.13529979,0.1486612,0.21959494,-0.15801731,-9.394848,-0.6799533
0.14514461,4.6686234,-0.1470177,0.15398751,0.2174644,-0.11492168,-9.351752,-0.6847417
0.14522456,4.6684103,-0.1470177,0.15398751,0.2174644,-0.11492168,-9.351752,-0.6847417
0.14529806,4.6682005,-0.1587356,0.15931384,0.21533388,-0.1436521,-9.303867,-0.82360536
0.14538327,4.6679573,-0.1587356,0.15931384,0.21533388,-0.1436521,-9.303867,-0.82360536
0.14545827,4.6677303,-0.17258404,0.1667707,0.21639915,-0.12449849,-9.26556,-0.8283938
0.1455384,4.6674886,-0.17258404,0.1667707,0.21639915,-0.12449849,-9.26556,-0.8283938
0.14562128,4.667226,-0.18643248,0.17422754,0.21533388,-0.17717093,-9.251195,-0.8858546
0.14570425,4.6669617,-0.18643248,0.17422754,0.21533388,-0.17717093,-9.251195,-0.8858546
0.145791,4.666674,-0.20347671,0.17955387,0.21426861,-0.19153613,-9.184157,-0.9624691
0.14587781,4.6663857,-0.20347671,0.17955387,0.21426861,-0.19153613,-9.184157,-0.9624691
0.1459586,4.6660857,-0.22265148,0.18701072,0.21533388,-0.14844051,-9.155427,-0.8762778
0.14603917,4.6657863,-0.22265148,0.18701072,0.21533388,-0.14844051,-9.155427,-0.8762778
0.1461222,4.6654634,-0.24182624,0.19553283,0.21639915,-0.1388637,-9.126697,-0.90979666
0.14620493,4.66514,-0.24182624,0.19553283,0.21639915,-0.1388637,-9.126697,-0.90979666
0.1462941,4.664791,-0.261001,0.2051202,0.21852967,-0.19153613,-9.107543,-0.9672575
0.14638285,4.664443,-0.261001,0.2051202,0.21852967,-0.19153613,-9.107543,-0.9672575
0.1464709,4.664074,-0.28124103,0.21257706,0.21959494,-0.18674773,-9.102755,-0.94810385
0.14655925,4.663703,-0.28124103,0.21257706,0.21959494,-0.18674773,-9.102755,-0.94810385
0.14664406,4.6633196,-0.30148104,0.21790338,0.22172546,-0.16759412,-9.121908,-0.8810662
0.14672779,4.66294,-0.30148104,0.21790338,0.22172546,-0.16759412,-9.121908,-0.8810662
0.14681955,4.66253,-0.32172108,0.22429498,0.22492126,-0.1388637,-9.141062,-0.9816227
0.14691103,4.66212,-0.32172108,0.22429498,0.22492126,-0.1388637,-9.141062,-0.9816227
0.1470036,4.6616936,-0.34089583,0.23068656,0.22918232,-0.20590134,-9.14585,-0.90979666
0.14709641,4.661265,-0.34089583,0.23068656,0.22918232,-0.20590134,-9.14585,-0.90979666
0.14719278,4.660818,-0.35900533,0.23707815,0.23450863,-0.19153613,-9.232041,-0.90021986
0.14728884,4.6603703,-0.35900533,0.23707815,0.23450863,-0.19153613,-9.232041,-0.90021986
0.14739443,4.6599097,-0.3749843,0.24560025,0.24409603,-0.22026655,-9.174581,-0.91937345
0.14749837,4.6594553,-0.3749843,0.24560025,0.24409603,-0.22026655,-9.174581,-0.91937345
0.14760749,4.658981,-0.3930938,0.25199184,0.25155288,-0.17238252,-9.131485,-0.89064306
0.14771658,4.6585054,-0.3930938,0.25199184,0.25155288,-0.17238252,-9.131485,-0.89064306
0.14783077,4.658014,-0.41226855,0.2594487,0.26007497,-0.11971009,-9.078813,-0.842759
0.14794442,4.6575227,-0.41226855,0.2594487,0.26007497,-0.11971009,-9.078813,-0.842759
0.14806794,4.657006,-0.43037805,0.27010134,0.26753184,-0.12449849,-9.011775,-0.90021986
0.14819054,4.6564913,-0.43037805,0.27010134,0.26753184,-0.12449849,-9.011775,-0.90021986
0.1483205,4.6559515,-0.4527486,0.27968872,0.27498868,-0.110133275,-9.011775,-0.91458505
0.14845017,4.655411,-0.4527486,0.27968872,0.27498868,-0.110133275,-9.011775,-0.91458505
0.14859301,4.654838,-0.47724968,0.29140663,0.28564134,-0.08140286,-8.959103,-0.9864111
0.14873467,4.6542687,-0.47724968,0.29140663,0.28564134,-0.08140286,-8.959103,-0.9864111
0.14888565,4.653661,-0.50494653,0.30205926,0.29522872,-0.06703765,-8.992621,-0.94810385
0.14903116,4.6530733,-0.50494653,0.30205926,0.29522872,-0.06703765,-8.992621,-0.94810385
0.14918816,4.652447,-0.5337087,0.31271192,0.3048161,-0.12449849,-8.992621,-0.9576807
0.1493451,4.65182,-0.5337087,0.31271192,0.3048161,-0.12449849,-8.992621,-0.9576807
0.14951132,4.651164,-0.5614056,0.32442984,0.31546873,-0.15322891,-9.011775,-0.94810385
0.14967746,4.6505065,-0.5614056,0.32442984,0.31546873,-0.15322891,-9.011775,-0.94810385
0.14985032,4.649823,-0.5880372,0.33508247,0.32399085,-0.16280572,-9.050082,-0.94331545
0.15002272,4.6491394,-0.5880372,0.33508247,0.32399085,-0.16280572,-9.050082,-0.94331545
0.15020184,4.6484375,-0.6146688,0.34466985,0.33570877,-0.14844051,-9.083601,-0.8858546
0.15038168,4.647731,-0.6146688,0.34466985,0.33570877,-0.14844051,-9.083601,-0.8858546
0.15058906,4.64694,-0.6413004,0.35425723,0.34849194,-0.19153613,-9.112331,-0.93373865
0.15076765,4.646258,-0.6413004,0.35425723,0.34849194,-0.19153613,-9.112331,-0.93373865
0.15096472,4.6455107,-0.6689973,0.36277935,0.36020985,-0.16759412,-9.165004,-0.8331822
0.15116303,4.6447573,-0.6689973,0.36277935,0.36020985,-0.16759412,-9.165004,-0.8331822
0.15137157,4.643983,-0.6934984,0.37343198,0.37299302,-0.15322891,-9.294291,-0.80924016
0.15158078,4.6432056,-0.6934984,0.37343198,0.37299302,-0.15322891,-9.294291,-0.80924016
0.1518159,4.642354,-0.7169342,0.38621518,0.38684145,-0.24420857,-9.375694,-0.8571242
0.1520247,4.6415963,-0.7169342,0.38621518,0.38684145,-0.24420857,-9.375694,-0.8571242
0.1522559,4.6407757,-0.7393047,0.3968678,0.39962465,-0.29209262,-9.461885,-0.8379706
0.1524872,4.6399536,-0.7393047,0.3968678,0.39962465,-0.29209262,-9.461885,-0.8379706
0.15273152,4.639112,-0.7574142,0.40538993,0.41347307,-0.33518824,-9.433155,-0.82360536
0.15297551,4.63827,-0.7574142,0.40538993,0.41347307,-0.33518824,-9.433155,-0.82360536
0.15323633,4.6373987,-0.77765423,0.41284677,0.42945203,-0.320823,-9.433155,-0.90500826
0.15349665,4.636528,-0.77765423,0.41284677,0.42945203,-0.320823,-9.433155,-0.90500826
0.15377326,4.6356354,-0.79682904,0.42030364,0.44649628,-0.35913026,-9.461885,-0.92895025
0.15404966,4.6347423,-0.79682904,0.42030364,0.44649628,-0.35913026,-9.461885,-0.92895025
0.15433583,4.633836,-0.81493855,0.42882574,0.45927945,-0.39264908,-9.509769,-0.89543146
0.1546216,4.6329303,-0.81493855,0.42882574,0.45927945,-0.39264908,-9.509769,-0.89543146
0.15492076,4.6320014,-0.8341133,0.43521732,0.47312787,-0.36870706,-9.500193,-0.92416185
0.15521911,4.6310735,-0.8341133,0.43521732,0.47312787,-0.36870706,-9.500193,-0.92416185
0.155529,4.6301327,-0.8522228,0.4426742,0.48697633,-0.36870706,-9.595961,-0.8858546
0.15583831,4.6291933,-0.8522228,0.4426742,0.48697633,-0.36870706,-9.595961,-0.8858546
0.15615922,4.6282377,-0.869267,0.4480005,0.4997595,-0.41180268,-9.615114,-0.8762778
0.15647955,4.627283,-0.869267,0.4480005,0.4997595,-0.41180268,-9.615114,-0.8762778
0.15680991,4.626309,-0.8841807,0.45332682,0.51041216,-0.4357447,-9.629479,-0.90979666
0.1571472,4.6253138,-0.8841807,0.45332682,0.51041216,-0.4357447,-9.629479,-0.90979666
0.15747668,4.624345,-0.8969639,0.4607837,0.517869,-0.4357447,-9.639056,-0.93373865
0.15781155,4.6233587,-0.8969639,0.4607837,0.517869,-0.4357447,-9.639056,-0.93373865
0.15815149,4.6223574,-0.9086818,0.46611,0.5231953,-0.39743748,-9.696517,-0.9576807
0.15849045,4.621358,-0.9086818,0.46611,0.5231953,-0.39743748,-9.696517,-0.9576807
0.1588399,4.6203485,-0.9193344,0.47143632,0.5317174,-0.4309563,-9.730036,-0.8810662
0.15918157,4.6193614,-0.9193344,0.47143632,0.5317174,-0.4309563,-9.730036,-0.8810662
0.15953085,4.6183453,-0.92785656,0.47676265,0.53704375,-0.46926352,-9.753978,-0.9624691
0.1598824,4.617322,-0.92785656,0.47676265,0.53704375,-0.46926352,-9.753978,-0.9624691
0.16023375,4.616307,-0.93424815,0.4810237,0.53917426,-0.46447513,-9.768343,-0.89543146
0.16058256,4.6152987,-0.93424815,0.4810237,0.53917426,-0.46447513,-9.768343,-0.89543146
0.16093501,4.6142797,-0.9395745,0.4842195,0.5413048,-0.45968673,-9.830592,-0.89543146
0.16128922,4.6132565,-0.9395745,0.4842195,0.5413048,-0.45968673,-9.830592,-0.89543146
0.16164218,4.612236,-0.94277024,0.48848057,0.5423701,-0.48841715,-9.825804,-0.8858546
0.1619942,4.611219,-0.94277024,0.48848057,0.5423701,-0.48841715,-9.825804,-0.8858546
0.16234839,4.610201,-0.9438355,0.49061108,0.5445006,-0.51235914,-9.854534,-0.8858546
0.16270226,4.6091833,-0.9438355,0.49061108,0.5445006,-0.51235914,-9.854534,-0.8858546
0.16305661,4.6081715,-0.94490075,0.49167636,0.54343534,-0.51235914,-9.892841,-0.842759
0.16341075,4.6071606,-0.94490075,0.49167636,0.54343534,-0.51235914,-9.892841,-0.842759
0.16375989,4.606145,-0.941705,0.4927416,0.5413048,-0.5315128,-9.92636,-0.91458505
0.16418622,4.6049056,-0.941705,0.4927416,0.5413048,-0.5315128,-9.92636,-0.91458505
0.16418622,4.6049056,-0.941705,0.4927416,0.5413048,-0.5315128,-9.92636,-0.91458505
0.16506703,4.6024365,-0.93637866,0.4927416,0.5413048,-0.59855044,-10.022128,-0.80924016
0.16523923,4.601963,-0.9289218,0.49380687,0.538109,-0.5410896,-10.041282,-0.7326257
0.1662038,4.599346,-0.9193344,0.49380687,0.5338479,-0.5315128,-10.13705,-0.6703765
0.1662038,4.599346,-0.9193344,0.49380687,0.5338479,-0.5315128,-10.13705,-0.6703765
0.16636889,4.5989065,-0.9076165,0.4927416,0.5295869,-0.5410896,-10.16578,-0.5650316
0.16659659,4.5983095,-0.9076165,0.4927416,0.5295869,-0.5410896,-10.16578,-0.5650316
0.16695896,4.5973587,-0.9076165,0.4927416,0.5295869,-0.5410896,-10.16578,-0.5650316
0.16731045,4.5964413,-0.8905723,0.49061108,0.5231953,-0.51714754,-10.242394,-0.5410896
0.1676633,4.5955205,-0.8905723,0.49061108,0.5231953,-0.51714754,-10.242394,-0.5410896
0.16801605,4.594623,-0.869267,0.48635003,0.51680374,-0.51714754,-10.280702,-0.46926352
0.16837013,4.5937223,-0.869267,0.48635003,0.51680374,-0.51714754,-10.280702,-0.46926352
0.16872294,4.59286,-0.8426354,0.47995844,0.51041216,-0.5267244,-10.386047,-0.36391866
0.16907743,4.591994,-0.8426354,0.47995844,0.51041216,-0.5267244,-10.386047,-0.36391866
0.1694184,4.591161,-0.81067747,0.46930578,0.50082475,-0.48841715,-10.429143,-0.41180268
0.16980095,4.5902267,-0.81067747,0.46930578,0.50082475,-0.48841715,-10.429143,-0.41180268
0.17010252,4.5895147,-0.77445847,0.4575879,0.49230263,-0.45489833,-10.481815,-0.35434186
0.17043369,4.5887322,-0.77445847,0.4575879,0.49230263,-0.45489833,-10.481815,-0.35434186
0.17076518,4.587985,-0.73291314,0.4448047,0.4848458,-0.5315128,-10.539276,-0.36870706
0.17109837,4.5872345,-0.73291314,0.4448047,0.4848458,-0.5315128,-10.539276,-0.36870706
0.17142043,4.586531,-0.6892373,0.42882574,0.4784542,-0.51235914,-10.520123,-0.4405331
0.17174375,4.5858254,-0.6892373,0.42882574,0.4784542,-0.51235914,-10.520123,-0.4405331
0.17205901,4.5851717,-0.64343095,0.40858573,0.46780157,-0.5602432,-10.596737,-0.45489833
0.17237392,4.5845184,-0.64343095,0.40858573,0.46780157,-0.5602432,-10.596737,-0.45489833
0.17267932,4.583913,-0.5944288,0.38408464,0.4571489,-0.59855044,-10.582372,-0.545878
0.17298348,4.5833097,-0.5944288,0.38408464,0.4571489,-0.59855044,-10.582372,-0.545878
0.17328677,4.5827627,-0.5432961,0.35745302,0.44969207,-0.58897364,-10.611102,-0.49799395
0.17359668,4.5822034,-0.5432961,0.35745302,0.44969207,-0.58897364,-10.611102,-0.49799395
0.17388971,4.581721,-0.49322864,0.3286909,0.4433005,-0.5267244,-10.611102,-0.48362875
0.17418776,4.5812297,-0.49322864,0.3286909,0.4433005,-0.5267244,-10.611102,-0.48362875
0.17448553,4.5807943,-0.44209597,0.29779822,0.43797415,-0.5506664,-10.601525,-0.49320555
0.17478351,4.580359,-0.44209597,0.29779822,0.43797415,-0.5506664,-10.601525,-0.49320555
0.17507543,4.5799766,-0.3930938,0.2679708,0.43158257,-0.521936,-10.572795,-0.5315128
0.17536877,4.5795913,-0.3930938,0.2679708,0.43158257,-0.521936,-10.572795,-0.5315128
0.17565854,4.579259,-0.34515688,0.2413392,0.4273215,-0.521936,-10.534488,-0.5650316
0.17594835,4.5789266,-0.34515688,0.2413392,0.4273215,-0.521936,-10.534488,-0.5650316
0.17623268,4.578642,-0.29935053,0.21577285,0.4219952,-0.521936,-10.520123,-0.62728083
0.17651762,4.5783567,-0.29935053,0.21577285,0.4219952,-0.521936,-10.520123,-0.62728083
0.17680025,4.5781198,-0.25673994,0.19127177,0.41666886,-0.51714754,-10.43872,-0.60812724
0.17708424,4.5778823,-0.25673994,0.19127177,0.41666886,-0.51714754,-10.43872,-0.60812724
0.17736158,4.5776873,-0.21732515,0.16996649,0.41134253,-0.50757074,-10.424355,-0.641646
0.17763977,4.5774918,-0.21732515,0.16996649,0.41134253,-0.50757074,-10.424355,-0.641646
0.1779155,4.5773396,-0.17791037,0.1486612,0.4038857,-0.5363012,-10.352529,-0.641646
0.17818874,4.5771885,-0.17791037,0.1486612,0.4038857,-0.5363012,-10.352529,-0.641646
0.17844717,4.5770655,-0.14382191,0.12842117,0.39323303,-0.521936,-10.309433,-0.78529817
0.1787051,4.5769434,-0.14382191,0.12842117,0.39323303,-0.521936,-10.309433,-0.78529817
0.1789563,4.5768566,-0.11186397,0.11137694,0.38471094,-0.5363012,-10.261548,-0.79008657
0.17920764,4.5767694,-0.11186397,0.11137694,0.38471094,-0.5363012,-10.261548,-0.79008657
0.17944446,4.576708,-0.08310183,0.09433271,0.37299302,-0.5315128,-10.204087,-0.8762778
0.17968105,4.576647,-0.08310183,0.09433271,0.37299302,-0.5315128,-10.204087,-0.8762778
0.17991108,4.576623,-0.056470223,0.07622321,0.3580793,-0.5650316,-10.208876,-0.79008657
0.18014108,4.576598,-0.056470223,0.07622321,0.3580793,-0.5650316,-10.208876,-0.79008657
0.18035567,4.5766,-0.03196914,0.060244244,0.34210035,-0.6943185,-10.189722,-0.8714894
0.1805738,4.576602,-0.03196914,0.060244244,0.34210035,-0.6943185,-10.189722,-0.8714894
0.1805738,4.576602,-0.03196914,0.060244244,0.34210035,-0.6943185,-10.189722,-0.8714894
0.1805738,4.576602,-0.03196914,0.060244244,0.34210035,-0.6655881,-10.0748005,-0.9816227
0.181188,4.57674,0.010641438,0.026155781,0.31333822,-0.6655881,-10.0748005,-0.9816227
0.18130007,4.5767646,0.010641438,0.026155781,0.31333822,-0.6655881,-10.0748005,-0.9816227
0.18146943,4.5768266,0.028750934,0.011242079,0.2984245,-0.60812724,-10.041282,-0.9576807
0.18164173,4.5768895,0.028750934,0.011242079,0.2984245,-0.60812724,-10.041282,-0.9576807
0.18194993,4.5770493,0.04686043,0.00058943406,0.28244555,-0.51235914,-9.988609,-0.94810385
0.18194993,4.5770493,0.04686043,0.00058943406,0.28244555,-0.51235914,-9.988609,-0.94810385
0.18208253,4.5771422,0.06390466,-0.004736888,0.26433605,-0.5267244,-9.969456,-1.0103531
0.1822134,4.577234,0.06390466,-0.004736888,0.26433605,-0.5267244,-9.969456,-1.0103531
0.1823272,4.577345,0.08201416,-0.008997946,0.24516128,-0.59855044,-9.969456,-1.0342951
0.1824413,4.5774565,0.08201416,-0.008997946,0.24516128,-0.59855044,-9.969456,-1.0342951
0.18253465,4.5775843,0.09905839,-0.013259004,0.22492126,-0.6512229,-9.9550905,-1.067814
0.18262793,4.577712,0.09905839,-0.013259004,0.22492126,-0.6512229,-9.9550905,-1.067814
0.18269259,4.5778475,0.11397209,-0.016454797,0.19935492,-0.62249243,-9.916783,-1.1348516
0.18275742,4.5779834,0.11397209,-0.016454797,0.19935492,-0.62249243,-9.916783,-1.1348516
0.1827977,4.5781317,0.12782052,-0.022846384,0.17485383,-0.6751649,-9.873688,-1.163582
0.18283792,4.57828,0.12782052,-0.022846384,0.17485383,-0.6751649,-9.873688,-1.163582
0.18285586,4.5784435,0.14166896,-0.030303236,0.15141802,-0.6512229,-9.907207,-1.163582
0.18287373,4.5786076,0.14166896,-0.030303236,0.15141802,-0.6512229,-9.907207,-1.163582
0.18286537,4.578779,0.1555174,-0.037760086,0.12585166,-0.58897364,-9.907207,-1.2210429
0.18285695,4.578951,0.1555174,-0.037760086,0.12585166,-0.58897364,-9.907207,-1.2210429
0.18282661,4.5791492,0.1704311,-0.04415167,0.10135058,-0.61770403,-9.931149,-1.1587936
0.18279701,4.5793424,0.1704311,-0.04415167,0.10135058,-0.61770403,-9.931149,-1.1587936
0.18274167,4.5795445,0.18321428,-0.051608525,0.0768495,-0.51714754,-9.92636,-1.2210429
0.18268631,4.5797467,0.18321428,-0.051608525,0.0768495,-0.51714754,-9.92636,-1.2210429
0.18260705,4.5799685,0.19599745,-0.05800011,0.05021789,-0.545878,-9.92636,-1.163582
0.18252742,4.5801916,0.19599745,-0.05800011,0.05021789,-0.545878,-9.92636,-1.163582
0.18242848,4.5804377,0.21197642,-0.061195903,0.0289126,-0.5650316,-9.950302,-1.115698
0.18232994,4.580682,0.21197642,-0.061195903,0.0289126,-0.5650316,-9.950302,-1.115698
0.18221517,4.5809503,0.22689012,-0.065456964,0.010803104,-0.6368576,-9.907207,-1.067814
0.182101,4.581217,0.22689012,-0.065456964,0.010803104,-0.6368576,-9.907207,-1.067814
0.1819699,4.5814953,0.2396733,-0.06971802,-0.008371656,-0.6368576,-9.873688,-1.0582372
0.1818346,4.5817814,0.2396733,-0.06971802,-0.008371656,-0.6368576,-9.873688,-1.0582372
0.1816868,4.582072,0.25352174,-0.07397908,-0.027546417,-0.63206923,-9.844957,-1.0486604
0.18153618,4.5823665,0.25352174,-0.07397908,-0.027546417,-0.63206923,-9.844957,-1.0486604
0.18136781,4.582672,0.2663049,-0.078240134,-0.043525383,-0.5793968,-9.859323,-1.0773908
0.18119991,4.582977,0.2663049,-0.078240134,-0.043525383,-0.5793968,-9.859323,-1.0773908
0.18101707,4.583295,0.27908808,-0.08569699,-0.05950435,-0.5554548,-9.859323,-1.0773908
0.1808336,4.5836134,0.27908808,-0.08569699,-0.05950435,-0.5554548,-9.859323,-1.0773908
0.18063457,4.5839515,0.2897407,-0.093153834,-0.076548584,-0.48841715,-9.811439,-1.0151415
0.18043834,4.5842834,0.2897407,-0.093153834,-0.076548584,-0.48841715,-9.811439,-1.0151415
0.18022408,4.5846334,0.30145863,-0.10380648,-0.093592815,-0.5746084,-9.859323,-1.0342951
0.18001114,4.5849805,0.30145863,-0.10380648,-0.093592815,-0.5746084,-9.859323,-1.0342951
0.17979376,4.5853567,0.31317654,-0.11445913,-0.10744125,-0.545878,-9.892841,-0.8714894
0.17957559,4.585733,0.31317654,-0.11445913,-0.10744125,-0.545878,-9.892841,-0.8714894
0.1793422,4.5861206,0.32489446,-0.12511177,-0.122354954,-0.5363012,-9.825804,-0.89543146
0.17910816,4.5865073,0.32489446,-0.12511177,-0.122354954,-0.5363012,-9.825804,-0.89543146
0.17886502,4.58691,0.3355471,-0.13682967,-0.13407286,-0.49799395,-9.782708,-0.8571242
0.17862244,4.587311,0.3355471,-0.13682967,-0.13407286,-0.49799395,-9.782708,-0.8571242
0.17836832,4.587726,0.34619975,-0.14748232,-0.14685604,-0.47884035,-9.792285,-0.8379706
0.17811415,4.5881414,0.34619975,-0.14748232,-0.14685604,-0.47884035,-9.792285,-0.8379706
0.17784639,4.588562,0.35578713,-0.15706971,-0.15857394,-0.36391866,-9.639056,-0.8571242
0.17757839,4.5889826,0.35578713,-0.15706971,-0.15857394,-0.36391866,-9.639056,-0.8571242
0.17729759,4.589404,0.36430925,-0.16452655,-0.16816132,-0.33518824,-9.557653,-0.93852705
0.17701745,4.589824,0.36430925,-0.16452655,-0.16816132,-0.33518824,-9.557653,-0.93852705
0.17672387,4.590252,0.37070084,-0.16985288,-0.17987923,-0.31603462,-9.457097,-0.94810385
0.17643037,4.590678,0.37070084,-0.16985288,-0.17987923,-0.31603462,-9.457097,-0.94810385
0.17612097,4.5910926,0.37389663,-0.17411393,-0.1926624,-0.34476504,-9.346964,-1.091756
0.17581144,4.591506,0.37389663,-0.17411393,-0.1926624,-0.34476504,-9.346964,-1.091756
0.17549261,4.5919185,0.37389663,-0.17944026,-0.20224978,-0.36870706,-9.270349,-1.1061212
0.17517398,4.592329,0.37389663,-0.17944026,-0.20224978,-0.36870706,-9.270349,-1.1061212
0.17484757,4.59273,0.3685703,-0.18157078,-0.20970663,-0.36870706,-9.217676,-1.1492168
0.17452109,4.59313,0.3685703,-0.18157078,-0.20970663,-0.36870706,-9.217676,-1.1492168
0.17418827,4.5935206,0.3621787,-0.18370132,-0.21609822,-0.33518824,-9.203311,-1.1827357
0.17385608,4.5939097,0.3621787,-0.18370132,-0.21609822,-0.33518824,-9.203311,-1.1827357
0.17351948,4.594289,0.35259134,-0.18689711,-0.22035928,-0.2825158,-9.165004,-1.1923125
0.1731831,4.594667,0.35259134,-0.18689711,-0.22035928,-0.2825158,-9.165004,-1.1923125
0.1728449,4.595037,0.34087342,-0.18796237,-0.22035928,-0.272939,-9.217676,-1.1875241
0.17250976,4.5954027,0.34087342,-0.18796237,-0.22035928,-0.272939,-9.217676,-1.1875241
0.172178,4.5957484,0.3291555,-0.18689711,-0.21716349,-0.29688102,-9.165004,-1.2593501
0.17184654,4.5960937,0.3291555,-0.18689711,-0.21716349,-0.29688102,-9.165004,-1.2593501
0.17151399,4.596428,0.31530708,-0.18476658,-0.21609822,-0.2681506,-9.141062,-1.2354081
0.17118286,4.5967603,0.31530708,-0.18476658,-0.21609822,-0.2681506,-9.141062,-1.2354081
0.17085639,4.5970707,0.30039337,-0.18050553,-0.21183717,-0.30645782,-9.11712,-1.2976574
0.17053069,4.597379,0.30039337,-0.18050553,-0.21183717,-0.30645782,-9.11712,-1.2976574
0.17020814,4.597684,0.28547966,-0.1751792,-0.20438032,-0.2681506,-9.126697,-1.2018893
0.16988625,4.5979867,0.28547966,-0.1751792,-0.20438032,-0.2681506,-9.126697,-1.2018893
0.16957512,4.5982656,0.27056596,-0.16772234,-0.19479294,-0.25378537,-9.136273,-1.2689269
0.16926304,4.5985456,0.27056596,-0.16772234,-0.19479294,-0.25378537,-9.136273,-1.2689269
0.16896307,4.598807,0.25245646,-0.16133076,-0.18200976,-0.2633622,-9.11712,-1.2449849
0.16866231,4.5990686,0.25245646,-0.16133076,-0.18200976,-0.2633622,-9.11712,-1.2449849
0.16837923,4.599308,0.23541224,-0.15280865,-0.16496553,-0.25378537,-9.165004,-1.2737153
0.16809528,4.5995483,0.23541224,-0.15280865,-0.16496553,-0.25378537,-9.165004,-1.2737153
0.1678285,4.5997634,0.21517222,-0.14428653,-0.1479213,-0.23942018,-9.126697,-1.2880806
0.16756137,4.599979,0.21517222,-0.14428653,-0.1479213,-0.23942018,-9.126697,-1.2880806
0.1673123,4.600175,0.19599745,-0.13469915,-0.12768127,-0.22026655,-9.102755,-1.2689269
0.1670642,4.60037,0.19599745,-0.13469915,-0.12768127,-0.22026655,-9.102755,-1.2689269
0.16683795,4.600541,0.17469217,-0.12511177,-0.104245454,-0.22026655,-9.102755,-1.2785037
0.16661224,4.600712,0.17469217,-0.12511177,-0.104245454,-0.22026655,-9.102755,-1.2785037
0.16640575,4.6008587,0.15338688,-0.11445913,-0.08294017,-0.17238252,-9.054871,-1.2785037
0.16620007,4.601006,0.15338688,-0.11445913,-0.08294017,-0.17238252,-9.054871,-1.2785037
0.16601357,4.6011267,0.13101631,-0.10380648,-0.062700145,-0.19632454,-9.059659,-1.2880806
0.16582681,4.601248,0.13101631,-0.10380648,-0.062700145,-0.19632454,-9.059659,-1.2880806
0.16566284,4.601344,0.107580505,-0.09102331,-0.03819906,-0.19632454,-9.050082,-1.2641385
0.16566284,4.601344,0.107580505,-0.09102331,-0.03819906,-0.19632454,-9.050082,-1.2641385
0.16566284,4.601344,0.107580505,-0.09102331,-0.03819906,-0.19632454,-9.050082,-1.2641385
0.16511695,4.6015887,0.060708866,-0.067587495,0.0086725755,-0.17717093,-9.045294,-1.3072342
0.16511695,4.6015887,0.060708866,-0.067587495,0.0086725755,-0.17717093,-9.045294,-1.3072342
0.16499788,4.6016297,0.060708866,-0.067587495,0.0086725755,-0.17717093,-9.045294,-1.3072342
0.16490227,4.601648,0.03727305,-0.05693485,0.034238923,-0.1436521,-9.093178,-1.2880806
0.1648035,4.601667,0.03727305,-0.05693485,0.034238923,-0.1436521,-9.093178,-1.2880806
0.16472915,4.6016645,0.014902496,-0.046282202,0.056609474,-0.14844051,-9.107543,-1.2497733
0.16465414,4.6016617,0.014902496,-0.046282202,0.056609474,-0.14844051,-9.107543,-1.2497733
0.16459586,4.6016393,-0.0064027933,-0.037760086,0.075784236,-0.18674773,-9.131485,-1.2162545
0.16453761,4.6016164,-0.0064027933,-0.037760086,0.075784236,-0.18674773,-9.131485,-1.2162545
0.1644987,4.6015744,-0.026642818,-0.028172705,0.09815479,-0.24420857,-9.136273,-1.1731589
0.16446908,4.6014805,-0.04688284,-0.017520063,0.118394814,-0.17717093,-9.174581,-1.1683705
0.16445981,4.6014514,-0.04688284,-0.017520063,0.118394814,-0.17717093,-9.174581,-1.1683705
0.16444068,4.601391,-0.04688284,-0.017520063,0.118394814,-0.17717093,-9.174581,-1.1683705
0.16443919,4.6013103,-0.06499234,-0.007932682,0.13756958,-0.19153613,-9.222465,-1.1683705
0.16443765,4.6012297,-0.06499234,-0.007932682,0.13756958,-0.19153613,-9.222465,-1.1683705
0.16445175,4.601132,-0.08203657,0.0016546985,0.15461381,-0.24899697,-9.260772,-1.1492168
0.16446586,4.601034,-0.08203657,0.0016546985,0.15461381,-0.24899697,-9.260772,-1.1492168
0.16449103,4.600926,-0.09695027,0.011242079,0.16739698,-0.23942018,-9.313444,-1.1013328
0.16451631,4.6008177,-0.09695027,0.011242079,0.16739698,-0.23942018,-9.313444,-1.1013328
0.16455348,4.6007004,-0.11186397,0.020829458,0.18018015,-0.24899697,-9.361329,-1.0342951
0.1645906,4.6005836,-0.11186397,0.020829458,0.18018015,-0.24899697,-9.361329,-1.0342951
0.1646405,4.6004515,-0.12464715,0.02828631,0.19402859,-0.272939,-9.399636,-1.0486604
0.16469045,4.6003194,-0.12464715,0.02828631,0.19402859,-0.272939,-9.399636,-1.0486604
0.16475035,4.600175,-0.13743033,0.036808424,0.20468123,-0.2681506,-9.476251,-1.0342951
0.16481009,4.6000314,-0.13743033,0.036808424,0.20468123,-0.2681506,-9.476251,-1.0342951
0.16487642,4.5998755,-0.1470177,0.043200012,0.21213809,-0.2777274,-9.471462,-1.0486604
0.16494386,4.599717,-0.1470177,0.043200012,0.21213809,-0.2777274,-9.471462,-1.0486604
0.16501552,4.5995584,-0.15447456,0.04746107,0.2174644,-0.35434186,-9.495404,-1.0103531
0.1650861,4.5994015,-0.15447456,0.04746107,0.2174644,-0.35434186,-9.495404,-1.0103531
0.16516165,4.5992403,-0.16193141,0.050656863,0.22066021,-0.33997664,-9.543288,-0.9672575
0.1652372,4.599079,-0.16193141,0.050656863,0.22066021,-0.33997664,-9.543288,-0.9672575
0.16531426,4.598911,-0.16725773,0.05491792,0.22279073,-0.33518824,-9.572019,-0.9768343
0.16539142,4.598743,-0.16725773,0.05491792,0.22279073,-0.33518824,-9.572019,-0.9768343
0.16546871,4.598572,-0.17151879,0.055983186,0.22279073,-0.30166942,-9.543288,-0.9624691
0.16554587,4.5984,-0.17151879,0.055983186,0.22279073,-0.30166942,-9.543288,-0.9624691
0.16562133,4.5982265,-0.17471458,0.05491792,0.22066021,-0.31124622,-9.591172,-0.9672575
0.16569658,4.5980535,-0.17471458,0.05491792,0.22066021,-0.31124622,-9.591172,-0.9672575
0.16577046,4.597887,-0.17471458,0.05491792,0.21639915,-0.33039984,-9.615114,-0.89543146
0.16584402,4.597722,-0.17471458,0.05491792,0.21639915,-0.33039984,-9.615114,-0.89543146
0.16591148,4.597554,-0.17364931,0.051722128,0.21107282,-0.34476504,-9.639056,-0.93852705
0.16597904,4.5973864,-0.17364931,0.051722128,0.21107282,-0.34476504,-9.639056,-0.93852705
0.16604243,4.597225,-0.17151879,0.0495916,0.2057465,-0.33518824,-9.619903,-0.90500826
0.16610603,4.597064,-0.17151879,0.0495916,0.2057465,-0.33518824,-9.619903,-0.90500826
0.16616242,4.596906,-0.16619246,0.04746107,0.19935492,-0.34476504,-9.634268,-0.93373865
0.16621928,4.5967474,-0.16619246,0.04746107,0.19935492,-0.34476504,-9.634268,-0.93373865
0.1662726,4.596604,-0.16193141,0.044265278,0.19189806,-0.34955344,-9.677363,-0.8475474
0.1663259,4.5964603,-0.16193141,0.044265278,0.19189806,-0.34955344,-9.677363,-0.8475474
0.16637027,4.5963187,-0.15553981,0.04000422,0.18444121,-0.34476504,-9.710882,-0.90021986
0.16641456,4.5961776,-0.15553981,0.04000422,0.18444121,-0.34476504,-9.710882,-0.90021986
0.16645207,4.596044,-0.14914823,0.035743162,0.17698435,-0.37828386,-9.720459,-0.90500826
0.16648962,4.5959105,-0.14914823,0.035743162,0.17698435,-0.37828386,-9.720459,-0.90500826
0.16652375,4.5957885,-0.14169139,0.03361263,0.17165804,-0.4309563,-9.730036,-0.8810662
0.166558,4.5956664,-0.14169139,0.03361263,0.17165804,-0.4309563,-9.730036,-0.8810662
0.166558,4.5956664,-0.14169139,0.03361263,0.17165804,-0.4309563,-9.730036,-0.8810662
0.166558,4.5956664,-0.121451356,0.022959989,0.16420119,-0.34955344,-9.701305,-0.93852705
0.16664243,4.595304,-0.121451356,0.022959989,0.16420119,-0.34955344,-9.701305,-0.93852705
0.16665772,4.5952387,-0.121451356,0.022959989,0.16420119,-0.34955344,-9.701305,-0.93852705
0.16667867,4.5951443,-0.11186397,0.019764194,0.15887487,-0.35913026,-9.710882,-0.91937345
0.16669962,4.59505,-0.11186397,0.019764194,0.15887487,-0.35913026,-9.710882,-0.91937345
0.16671436,4.5949593,-0.104407124,0.0165684,0.15354854,-0.36391866,-9.68694,-0.9576807
0.16672893,4.5948696,-0.104407124,0.0165684,0.15354854,-0.36391866,-9.68694,-0.9576807
0.16673711,4.5947824,-0.09695027,0.0133726075,0.14822222,-0.33518824,-9.65821,-1.0007763
0.16674538,4.5946956,-0.09695027,0.0133726075,0.14822222,-0.33518824,-9.65821,-1.0007763
0.16675332,4.5946245,-0.08949342,0.010176814,0.14502643,-0.35434186,-9.667787,-0.92895025
0.16676128,4.5945535,-0.08949342,0.010176814,0.14502643,-0.35434186,-9.667787,-0.92895025
0.16676393,4.5944805,-0.0841671,0.0059157563,0.14183064,-0.33997664,-9.65821,-1.0055647
0.16676667,4.5944076,-0.0841671,0.0059157563,0.14183064,-0.33997664,-9.65821,-1.0055647
0.16676798,4.594345,-0.07884078,0.002719963,0.13863485,-0.33518824,-9.624691,-0.9576807
0.16676933,4.594283,-0.07884078,0.002719963,0.13863485,-0.33518824,-9.624691,-0.9576807
0.1667691,4.5942273,-0.073514454,0.002719963,0.1365043,-0.34476504,-9.610326,-0.94331545
0.1667689,4.594172,-0.073514454,0.002719963,0.1365043,-0.34476504,-9.610326,-0.94331545
0.16677023,4.5940776,-0.06818813,0.0037852274,0.1365043,-0.33039984,-9.610326,-0.91458505
0.16677023,4.5940776,-0.06818813,0.0037852274,0.1365043,-0.33039984,-9.610326,-0.91458505
0.1667676,4.5940247,-0.06286181,0.0059157563,0.1365043,-0.2873042,-9.572019,-1.0007763
0.16676493,4.593972,-0.06286181,0.0059157563,0.1365043,-0.2873042,-9.572019,-1.0007763
0.16676562,4.593935,-0.058600754,0.010176814,0.1365043,-0.30166942,-9.562442,-0.89064306
0.16676624,4.593898,-0.058600754,0.010176814,0.1365043,-0.30166942,-9.562442,-0.89064306
0.16676843,4.5938644,-0.054339692,0.015503136,0.13863485,-0.33518824,-9.519346,-0.89064306
0.16677076,4.59383,-0.054339692,0.015503136,0.13863485,-0.33518824,-9.519346,-0.89064306
0.16677202,4.593793,-0.0511439,0.021894723,0.14076537,-0.30166942,-9.495404,-0.94331545
0.16677329,4.5937552,-0.0511439,0.021894723,0.14076537,-0.30166942,-9.495404,-0.94331545
0.16677645,4.593719,-0.04688284,0.027221046,0.14396116,-0.33039984,-9.504981,-0.9672575
0.16677965,4.593683,-0.04688284,0.027221046,0.14396116,-0.33039984,-9.504981,-0.9672575
0.16678464,4.5936475,-0.041556522,0.030416839,0.14715695,-0.33039984,-9.5385,-1.0055647
0.16678964,4.5936127,-0.041556522,0.030416839,0.14715695,-0.33039984,-9.5385,-1.0055647
0.16679773,4.5935817,-0.03729546,0.031482104,0.15035275,-0.36391866,-9.528923,-1.0055647
0.16680577,4.593551,-0.03729546,0.031482104,0.15035275,-0.36391866,-9.528923,-1.0055647
0.16681607,4.5935206,-0.033034407,0.031482104,0.15354854,-0.320823,-9.514558,-1.0390835
0.16682638,4.5934896,-0.033034407,0.031482104,0.15354854,-0.320823,-9.514558,-1.0390835
0.16684285,4.5934634,-0.026642818,0.030416839,0.15994012,-0.31603462,-9.581595,-1.0630256
0.16685927,4.5934377,-0.026642818,0.030416839,0.15994012,-0.31603462,-9.581595,-1.0630256
0.16688311,4.593417,-0.019185968,0.027221046,0.16739698,-0.35434186,-9.595961,-1.0869676
0.16690692,4.593397,-0.019185968,0.027221046,0.16739698,-0.35434186,-9.595961,-1.0869676
0.16694064,4.5933933,-0.011729116,0.020829458,0.17485383,-0.34955344,-9.619903,-1.0151415
0.16697453,4.593389,-0.011729116,0.020829458,0.17485383,-0.34955344,-9.619903,-1.0151415
0.16701497,4.5933895,-0.003207,0.014437872,0.18231069,-0.30166942,-9.639056,-1.0582372
0.16705579,4.5933905,-0.003207,0.014437872,0.18231069,-0.30166942,-9.639056,-1.0582372
0.1671048,4.5934014,0.00638038,0.008046285,0.18976754,-0.18195933,-9.643845,-1.0534488
0.16715382,4.5934124,0.00638038,0.008046285,0.18976754,-0.18195933,-9.643845,-1.0534488
0.1672135,4.5934477,0.017033026,0.0016546985,0.19615912,-0.21547815,-9.706094,-0.92895025
0.16727322,4.5934825,0.017033026,0.0016546985,0.19615912,-0.21547815,-9.706094,-0.92895025
0.16734232,4.593539,0.027685668,-0.0058021527,0.20042017,-0.30645782,-9.758766,-0.842759
0.16741128,4.593596,0.027685668,-0.0058021527,0.20042017,-0.30645782,-9.758766,-0.842759
0.16748434,4.593662,0.04046884,-0.014324268,0.2057465,-0.23942018,-9.773131,-0.8858546
0.16755717,4.593727,0.04046884,-0.014324268,0.2057465,-0.23942018,-9.773131,-0.8858546
0.16764215,4.593821,0.057513073,-0.023911647,0.21107282,-0.1340753,-9.753978,-0.7374141
0.16772677,4.5939145,0.057513073,-0.023911647,0.21107282,-0.1340753,-9.753978,-0.7374141
0.16781132,4.5940223,0.078818366,-0.03349903,0.21426861,0.019153614,-9.725247,-0.81881696
0.1678958,4.5941296,0.078818366,-0.03349903,0.21426861,0.019153614,-9.725247,-0.81881696
0.1679851,4.5942726,0.10438471,-0.04308641,0.21320336,0.06703765,-9.758766,-0.7086837
0.16807504,4.5944166,0.10438471,-0.04308641,0.21320336,0.06703765,-9.758766,-0.7086837
0.16816044,4.594589,0.13634264,-0.054804318,0.21000756,0.15322891,-9.648633,-0.6655881
0.16824706,4.5947647,0.13634264,-0.054804318,0.21000756,0.15322891,-9.648633,-0.6655881
0.16832824,4.59498,0.17575742,-0.06865276,0.20361596,0.25857377,-9.591172,-0.6703765
0.16840947,4.5951953,0.17575742,-0.06865276,0.20361596,0.25857377,-9.591172,-0.6703765
0.1684842,4.5954666,0.22369432,-0.084631726,0.19189806,0.4261679,-9.533711,-0.5363012
0.16855884,4.5957375,0.22369432,-0.084631726,0.19189806,0.4261679,-9.533711,-0.5363012
0.16862737,4.5960793,0.2844144,-0.10274122,0.17804962,0.47884035,-9.581595,-0.36870706
0.1686959,4.5964217,0.2844144,-0.10274122,0.17804962,0.47884035,-9.581595,-0.36870706
0.16875716,4.596855,0.36324397,-0.12191598,0.15994012,0.5506664,-9.629479,-0.11492168
0.16881825,4.597288,0.36324397,-0.12191598,0.15994012,0.5506664,-9.629479,-0.11492168
0.16887,4.5978303,0.46231356,-0.14748232,0.14183064,0.5746084,-9.639056,0.05746084
0.16892156,4.5983725,0.46231356,-0.14748232,0.14183064,0.5746084,-9.639056,0.05746084
0.16895947,4.599038,0.5794926,-0.18476658,0.12372114,0.5650316,-9.68694,0.062249243
0.16899693,4.599704,0.5794926,-0.18476658,0.12372114,0.5650316,-9.68694,0.062249243
0.16901799,4.6005206,0.7211728,-0.23589927,0.10135058,0.5315128,-9.763555,0.05746084
0.16903858,4.6013384,0.7211728,-0.23589927,0.10135058,0.5315128,-9.763555,0.05746084
0.16904062,4.6023254,0.88202775,-0.29874986,0.07791477,0.45489833,-9.92636,-0.023942016
0.169042,4.6033125,0.88202775,-0.29874986,0.07791477,0.45489833,-9.92636,-0.023942016
0.16902633,4.604488,1.0620575,-0.3754489,0.05980527,0.33997664,-10.0748005,-0.24420857
0.16900973,4.605663,1.0620575,-0.3754489,0.05980527,0.33997664,-10.0748005,-0.24420857
0.168973,4.6070385,1.2633924,-0.4628006,0.04063051,0.2633622,-10.275913,-0.5267244
0.16893496,4.6084156,1.2633924,-0.4628006,0.04063051,0.2633622,-10.275913,-0.5267244
0.16889185,4.6100197,1.487098,-0.5565439,0.032108393,0.08140286,-10.529699,-0.7326257
0.16884722,4.6116257,1.487098,-0.5565439,0.032108393,0.08140286,-10.529699,-0.7326257
0.16880341,4.613475,1.7331741,-0.65667874,0.029977866,0.023942016,-10.922348,-1.0390835
0.16875832,4.6153183,1.7331741,-0.65667874,0.029977866,0.023942016,-10.922348,-1.0390835
0.16872463,4.6174326,2.0016208,-0.7642704,0.032108393,-0.019153614,-11.238382,-1.3120226
0.16868952,4.6195455,2.0016208,-0.7642704,0.032108393,-0.019153614,-11.238382,-1.3120226
0.16867507,4.621962,2.2924378,-0.8771885,0.039565243,-0.19153613,-11.51611,-1.508347
0.16865939,4.624365,2.2924378,-0.8771885,0.039565243,-0.19153613,-11.51611,-1.508347
0.16867435,4.6270876,2.6045604,-0.9964981,0.051283155,-0.60333884,-11.750742,-1.6280571
0.16868828,4.629806,2.6045604,-0.9964981,0.051283155,-0.60333884,-11.750742,-1.6280571
0.16876234,4.632847,2.9358575,-1.121134,0.07045791,-1.1061212,-11.832145,-1.8291701
0.16883536,4.635892,2.9358575,-1.121134,0.07045791,-1.1061212,-11.832145,-1.8291701
0.16897814,4.639282,3.287395,-1.2532269,0.103481114,-1.4317327,-11.731588,-1.9201498
0.16911954,4.6426992,3.287395,-1.2532269,0.103481114,-1.4317327,-11.731588,-1.9201498
0.16934368,4.646488,3.6570418,-1.3895807,0.14609168,-1.8483237,-11.903971,-2.1308396
0.16960646,4.6510396,3.6570418,-1.3895807,0.14609168,-1.8483237,-11.903971,-2.1308396
0.16987626,4.654938,4.040537,-1.5312608,0.19509386,-2.1643584,-12.11466,-2.2361844
0.17017455,4.6593494,4.040537,-1.5312608,0.19509386,-2.1643584,-12.11466,-2.2361844
0.17046696,4.663173,4.4368153,-1.6740063,0.25261813,-2.4037786,-12.339716,-2.4037786
0.17081015,4.66776,4.4368153,-1.6740063,0.25261813,-2.4037786,-12.339716,-2.4037786
0.17119981,4.6727886,4.842681,-1.8167517,0.31120768,-2.2649148,-12.579136,-2.6144683
0.17158288,4.6778536,4.842681,-1.8167517,0.31120768,-2.2649148,-12.579136,-2.6144683
0.17228658,4.687028,5.254938,-1.9573666,0.36660144,-2.1452048,-12.832921,-2.72939
0.17242154,4.6888337,5.254938,-1.9573666,0.36660144,-2.1452048,-12.832921,-2.72939
0.17287263,4.694746,5.6618695,-2.0862637,0.41453832,-2.1452048,-13.101071,-2.8682537
0.17331152,4.7006598,5.6618695,-2.0862637,0.41453832,-2.1452048,-13.101071,-2.8682537
0.17377968,4.7070017,6.062409,-2.2013123,0.45182258,-2.2697031,-13.321339,-2.9113493
0.17423332,4.713338,6.062409,-2.2013123,0.45182258,-2.2697031,-13.321339,-2.9113493
0.17470342,4.7200894,6.4512305,-2.3035777,0.47419316,-2.552219,-13.522451,-3.016694
0.17515774,4.726842,6.4512305,-2.3035777,0.47419316,-2.552219,-13.522451,-3.016694
0.1756154,4.733968,6.819812,-2.3962555,0.48591104,-2.9017725,-13.694834,-2.9352913
0.17605713,4.7411237,6.819812,-2.3962555,0.48591104,-2.9017725,-13.694834,-2.9352913
0.17648691,4.748625,7.1692185,-2.482542,0.48378053,-3.2800562,-13.594277,-2.8778305
0.17689794,4.7561426,7.1692185,-2.482542,0.48378053,-3.2800562,-13.594277,-2.8778305
0.17727481,4.764011,7.4941244,-2.5656326,0.46567103,-3.490746,-13.455414,-2.7868507
0.1776286,4.771841,7.4941244,-2.5656326,0.46567103,-3.490746,-13.455414,-2.7868507
0.17793277,4.780006,7.7892027,-2.6497886,0.4369089,-3.5769374,-13.187263,-2.6623523
0.17821407,4.7881722,7.7892027,-2.6497886,0.4369089,-3.5769374,-13.187263,-2.6623523
0.17842472,4.796614,8.050192,-2.7307487,0.39429832,-3.5003228,-12.842498,-2.4851813
0.17861125,4.805057,8.050192,-2.7307487,0.39429832,-3.5003228,-12.842498,-2.4851813
0.17870848,4.8137727,8.274963,-2.8095782,0.33677402,-3.3087866,-12.306197,-2.2649148
0.17877983,4.8224363,8.274963,-2.8095782,0.33677402,-3.3087866,-12.306197,-2.2649148
0.17874253,4.8314323,8.46245,-2.8841467,0.26114026,-3.1411927,-11.702858,-2.0015526
0.17868018,4.840188,8.46245,-2.8841467,0.26114026,-3.1411927,-11.702858,-2.0015526
0.1784947,4.849235,8.609456,-2.953389,0.16846225,-3.098097,-11.027693,-1.7429788
0.17828126,4.8582983,8.609456,-2.953389,0.16846225,-3.098097,-11.027693,-1.7429788
0.17793313,4.8674374,8.712787,-3.0162394,0.06300107,-2.9735985,-10.247183,-1.3790601
0.17755689,4.8765745,8.712787,-3.0162394,0.06300107,-2.9735985,-10.247183,-1.3790601
0.17703125,4.885777,8.773507,-3.0758944,-0.050982233,-2.705448,-9.557653,-0.9959879
0.1764776,4.894968,8.773507,-3.0758944,-0.050982233,-2.705448,-9.557653,-0.9959879
0.17576578,4.904207,8.792682,-3.1248965,-0.16816132,-2.2984335,-8.825027,-0.5650316
0.17502528,4.9134426,8.792682,-3.1248965,-0.16816132,-2.2984335,-8.825027,-0.5650316
0.17411283,4.9226475,8.773507,-3.1653764,-0.2949278,-1.7812861,-8.049306,-0.15322891
0.17317228,4.931847,8.773507,-3.1653764,-0.2949278,-1.7812861,-8.049306,-0.15322891
0.17205359,4.940962,8.712787,-3.1920083,-0.42595533,-1.3120226,-7.369353,0.29209262
0.17090347,4.950108,8.712787,-3.1920083,-0.42595533,-1.3120226,-7.369353,0.29209262
0.16957717,4.959095,8.615848,-3.2026608,-0.5580481,-0.9911995,-6.6893997,0.842759
0.16821611,4.968148,8.615848,-3.2026608,-0.5580481,-0.9911995,-6.6893997,0.842759
0.16664547,4.9770403,8.486951,-3.2015955,-0.69120616,-0.6464345,-5.195418,1.0773908
0.16505948,4.9859204,8.486951,-3.2015955,-0.69120616,-0.6464345,-5.195418,1.0773908
0.16325997,4.9947195,8.316508,-3.1824207,-0.82010317,-0.5554548,-5.12838,1.4700398
0.16143721,5.003473,8.316508,-3.1824207,-0.82010317,-0.5554548,-5.12838,1.4700398
0.15950474,5.012097,8.110912,-3.1536586,-0.940478,0.5746084,-3.7110126,1.6998832
0.1575505,5.020694,8.110912,-3.1536586,-0.940478,0.5746084,-3.7110126,1.6998832
0.15548329,5.0290146,7.856314,-3.127027,-1.0683098,1.70946,-5.3103395,3.53863
0.15338856,5.0373425,7.856314,-3.127027,-1.0683098,1.70946,-5.3103395,3.53863
0.15121138,5.0453753,7.5846715,-3.0332837,-1.1684446,1.6998832,-6.05733,4.1036615
0.1489842,5.053504,7.5846715,-3.0332837,-1.1684446,1.6998832,-6.05733,4.1036615
0.1463602,5.0625587,7.332204,-2.918235,-1.2526006,1.13964,-5.185841,3.8498764
0.1444955,5.0689316,7.332204,-2.918235,-1.2526006,1.13964,-5.185841,3.8498764
0.14224178,5.0763597,7.0733447,-2.8021214,-1.3165164,0.3878607,-3.9312792,3.6152446
0.13996239,5.0838113,7.0733447,-2.8021214,-1.3165164,0.3878607,-3.9312792,3.6152446
0.13734083,5.0921016,6.7835927,-2.6945295,-1.3538007,-0.24420857,-3.347094,3.7110126
0.13508214,5.099189,6.7835927,-2.6945295,-1.3538007,-0.24420857,-3.347094,3.7110126
0.13278289,5.106056,6.4512305,-2.6061127,-1.3601923,0.10534488,-3.7828386,4.4963107
0.13080554,5.111926,6.4512305,-2.6061127,-1.3601923,0.10534488,-3.7828386,4.4963107
0.1284705,5.1185913,6.0901055,-2.5166304,-1.3303648,0.44532153,-4.271256,5.032612
0.12631537,5.1247063,6.0901055,-2.5166304,-1.3303648,0.44532153,-4.271256,5.032612
0.12411074,5.1307344,5.7151327,-2.422887,-1.2771016,1.0534488,-5.085284,5.5401826
0.121922016,5.1366844,5.7151327,-2.422887,-1.2771016,1.0534488,-5.085284,5.5401826
0.119801976,5.14229,5.3327026,-2.317426,-1.2057289,1.4221559,-5.4779334,5.683835
0.117672406,5.147891,5.3327026,-2.317426,-1.2057289,1.4221559,-5.4779334,5.683835
0.1156559,5.153084,4.9449463,-2.1991816,-1.1237036,1.541866,-5.722142,5.731719
0.11362279,5.1582932,4.9449463,-2.1991816,-1.1237036,1.541866,-5.722142,5.731719
0.11170625,5.1630764,4.545472,-2.0798721,-1.0384824,1.934515,-5.813122,5.741296
0.10978226,5.1678553,4.545472,-2.0798721,-1.0384824,1.934515,-5.813122,5.741296
0.10798622,5.172212,4.1364107,-1.9520403,-0.9490002,2.0350714,-5.6790466,5.650316
0.10619291,5.1765437,4.1364107,-1.9520403,-0.9490002,2.0350714,-5.6790466,5.650316
0.10451181,5.180482,3.714566,-1.8188822,-0.8616485,2.054225,-5.683835,5.544971
0.10281522,5.18444,3.714566,-1.8188822,-0.8616485,2.054225,-5.683835,5.544971
0.10127468,5.187894,3.2778075,-1.6835936,-0.7774926,2.1643584,-5.473145,5.5018754
0.09973291,5.1913376,3.2778075,-1.6835936,-0.7774926,2.1643584,-5.473145,5.5018754
0.09831638,5.1943417,2.8303964,-1.5408483,-0.69759774,1.9680338,-5.4204726,5.3199162
0.09689776,5.19734,2.8303964,-1.5408483,-0.69759774,1.9680338,-5.4204726,5.3199162
0.095617704,5.199893,2.3755286,-1.3959723,-0.6155724,1.508347,-5.305551,5.2145715
0.09433619,5.2024417,2.3755286,-1.3959723,-0.6155724,1.508347,-5.305551,5.2145715
0.093211114,5.204528,1.9206606,-1.2564226,-0.5324818,0.8858546,-5.391742,5.2720323
0.09208527,5.2066107,1.9206606,-1.2564226,-0.5324818,0.8858546,-5.391742,5.2720323
0.0911015,5.2082434,1.471119,-1.1232646,-0.44513008,0.6368576,-5.5737014,5.2959743
0.09011637,5.209875,1.471119,-1.1232646,-0.44513008,0.6368576,-5.5737014,5.2959743
0.08926986,5.2110615,1.0354259,-0.99543285,-0.3577784,0.5506664,-5.6790466,5.233725
0.08841913,5.2122526,1.0354259,-0.99543285,-0.3577784,0.5506664,-5.6790466,5.233725
0.087687016,5.21301,0.61890745,-0.8676011,-0.27468777,1.0199299,-5.5976434,5.142745
0.08695515,5.2137656,0.61890745,-0.8676011,-0.27468777,1.0199299,-5.5976434,5.142745
0.08632933,5.214098,0.21943328,-0.730182,-0.19905399,1.9153614,-5.257667,4.7405195
0.08570526,5.2144284,0.21943328,-0.730182,-0.19905399,1.9153614,-5.257667,4.7405195
0.08519133,5.214341,-0.17151879,-0.5725228,-0.13939919,2.7341783,-4.7261543,4.1132383
0.0846785,5.2142544,-0.17151879,-0.5725228,-0.13939919,2.7341783,-4.7261543,4.1132383
0.08428633,5.213755,-0.5614056,-0.38716683,-0.09678861,3.1268275,-4.0797195,3.4859576
0.083891615,5.2132525,-0.5614056,-0.38716683,-0.09678861,3.1268275,-4.0797195,3.4859576
0.0836261,5.2123413,-0.96087974,-0.17730974,-0.06802647,3.265691,-3.4859576,3.016694
0.083358906,5.211424,-0.96087974,-0.17730974,-0.06802647,3.265691,-3.4859576,3.016694
0.08322105,5.210087,-1.3720719,0.050656863,-0.0520475,3.2082303,-2.7581203,2.8538885
0.08308309,5.2087483,-1.3720719,0.050656863,-0.0520475,3.2082303,-2.7581203,2.8538885
0.08308076,5.2069707,-1.7971123,0.29460242,-0.037133798,3.4572272,-2.0733786,2.815581
0.08307814,5.2051926,-1.7971123,0.29460242,-0.037133798,3.4572272,-2.0733786,2.815581
0.08321673,5.2029595,-2.2423928,0.55133116,-0.022220094,3.715801,-1.3072342,2.7868507
0.083354585,5.200723,-2.2423928,0.55133116,-0.022220094,3.715801,-1.3072342,2.7868507
0.08363398,5.1980047,-2.7089787,0.816582,-0.008371656,4.050989,-0.7278373,2.9161377
0.08391172,5.195285,-2.7089787,0.816582,-0.008371656,4.050989,-0.7278373,2.9161377
0.084332295,5.192055,-3.2011309,1.0882244,0.0086725755,4.295198,-0.34955344,3.040636
0.084748715,5.188834,-3.2011309,1.0882244,0.0086725755,4.295198,-0.34955344,3.040636
0.08531134,5.1850595,-3.7188494,1.364128,0.0289126,4.2999864,-0.24420857,3.1986535
0.08586916,5.181288,-3.7188494,1.364128,0.0289126,4.2999864,-0.24420857,3.1986535
0.08656806,5.176964,-4.256808,1.6357703,0.05234842,4.0462008,-0.30166942,3.3375173
0.08726098,5.1726384,-4.256808,1.6357703,0.05234842,4.0462008,-0.30166942,3.3375173
0.088093445,5.167742,-4.8107457,1.8978255,0.08217582,3.6391866,-0.50278234,3.466804
0.088918075,5.1628437,-4.8107457,1.8978255,0.08217582,3.6391866,-0.50278234,3.466804
0.089878425,5.157363,-5.376401,2.1407058,0.12372114,3.2130187,-0.842759,3.4955344
0.09082888,5.1518793,-5.376401,2.1407058,0.12372114,3.2130187,-0.842759,3.4955344
0.09191061,5.145819,-5.9505787,2.36015,0.17804962,2.801216,-1.2162545,3.5529952
0.092982456,5.139744,-5.9505787,2.36015,0.17804962,2.801216,-1.2162545,3.5529952
0.09418363,5.1330605,-6.530082,2.552963,0.24516128,2.4229321,-1.6950948,3.4955344
0.09536575,5.126401,-6.530082,2.552963,0.24516128,2.4229321,-1.6950948,3.4955344
0.09667182,5.119138,-7.105325,2.7191443,0.3261214,2.0973208,-2.2984335,3.3806129
0.09796141,5.111871,-7.105325,2.7191443,0.3261214,2.0973208,-2.2984335,3.3806129
0.09937476,5.104005,-7.6763067,2.862955,0.4187994,1.5945383,-2.8874073,3.1603463
0.10076673,5.096151,-7.6763067,2.862955,0.4187994,1.5945383,-2.8874073,3.1603463
0.10226897,5.0877213,-8.236636,2.9790688,0.5242606,1.1731589,-3.5769374,2.7964275
0.103750914,5.0792875,-8.236636,2.9790688,0.5242606,1.1731589,-3.5769374,2.7964275
0.105328284,5.0702896,-8.778855,3.0664206,0.6371786,0.90021986,-4.3478703,2.504335
0.1068825,5.061297,-8.778855,3.0664206,0.6371786,0.90021986,-4.3478703,2.504335
0.108520545,5.051752,-9.29764,3.1282058,0.7564882,0.49320555,-5.2385135,2.2170308
0.11014086,5.042178,-9.29764,3.1282058,0.7564882,0.49320555,-5.2385135,2.2170308
0.11185223,5.0320406,-9.786595,3.1708164,0.87899363,0.23942018,-6.220136,1.9297266
0.11352871,5.021936,-9.786595,3.1708164,0.87899363,0.23942018,-6.220136,1.9297266
0.11536373,5.0112524,-10.232942,3.1985133,1.0057601,-0.062249243,-6.919243,1.5275006
0.11715642,5.000599,-10.232942,3.1985133,1.0057601,-0.062249243,-6.919243,1.5275006
0.119090505,4.989585,-10.630285,3.2155576,1.1367877,-0.4165911,-7.723695,1.2018893
0.120989084,4.9785647,-10.630285,3.2155576,1.1367877,-0.4165911,-7.723695,1.2018893
0.12303243,4.967174,-10.967974,3.2198186,1.2731415,-0.8379706,-8.422802,0.7278373
0.12504977,4.9557295,-10.967974,3.2198186,1.2731415,-0.8379706,-8.422802,0.7278373
0.12718134,4.944056,-11.239616,3.2059703,1.4148216,-1.2545617,-9.193734,0.24899697
0.12928769,4.9323263,-11.239616,3.2059703,1.4148216,-1.2545617,-9.193734,0.24899697
0.13148588,4.920443,-11.439886,3.1622944,1.5586324,-1.4939818,-10.237606,-0.45010993
0.13365465,4.9085264,-11.439886,3.1622944,1.5586324,-1.4939818,-10.237606,-0.45010993
0.13593216,4.896471,-11.570913,3.0855954,1.7109652,-1.8243817,-11.180922,-1.0486604
0.13817632,4.8844056,-11.570913,3.0855954,1.7109652,-1.8243817,-11.180922,-1.0486604
0.1405269,4.872299,-11.632699,2.9726772,1.8760811,-1.9201498,-12.0332575,-1.3072342
0.14284256,4.860195,-11.632699,2.9726772,1.8760811,-1.9201498,-12.0332575,-1.3072342
0.14528395,4.8481016,-11.623112,2.8331277,2.057176,-1.9680338,-12.938266,-1.532289
0.14769629,4.8359857,-11.623112,2.8331277,2.057176,-1.9680338,-12.938266,-1.532289
0.15024899,4.8239665,-11.542151,2.6786642,2.258511,-1.7764976,-13.76666,-1.7621324
0.15276606,4.811961,-11.542151,2.6786642,2.258511,-1.7764976,-13.76666,-1.7621324
0.15543477,4.800103,-11.400472,2.5167441,2.4694335,-1.3694834,-14.403518,-1.8770541
0.15859017,4.7858963,-11.400472,2.5167441,2.4694335,-1.3694834,-14.403518,-1.8770541
0.16122526,4.7749434,-11.199137,2.3526933,2.67716,-1.484405,-14.748282,-2.0446482
0.1641253,4.762756,-11.199137,2.3526933,2.67716,-1.484405,-14.748282,-2.0446482
0.16656365,4.7533565,-10.947734,2.1875772,2.8838212,-1.8579005,-15.480908,-1.9967642
0.16947722,4.7420216,-10.947734,2.1875772,2.8838212,-1.8579005,-15.480908,-1.9967642
0.17259856,4.730963,-10.65159,2.020331,3.0904827,-2.4516625,-15.500062,-2.1883004
0.17570178,4.7198706,-10.65159,2.020331,3.0904827,-2.4516625,-15.500062,-2.1883004
0.17942935,4.707571,-10.321359,1.8466927,3.2950134,-2.0973208,-16.414646,-1.9153614
0.18221167,4.6983047,-10.321359,1.8466927,3.2950134,-2.0973208,-16.414646,-1.9153614
0.18561578,4.687952,-9.955973,1.6794462,3.50274,-3.323152,-21.44247,-1.2689269
0.1890226,4.67747,-9.955973,1.6794462,3.50274,-3.323152,-21.44247,-1.2689269
0.19280927,4.6673975,-9.493648,1.5121996,3.7115319,-5.2863975,-16.687586,-2.9831753
0.19653647,4.6574306,-9.493648,1.5121996,3.7115319,-5.2863975,-16.687586,-2.9831753
0.20034379,4.6482186,-8.985517,1.2874289,3.9064753,-4.223372,-11.559206,-3.7541082
0.20416841,4.638918,-8.985517,1.2874289,3.9064753,-4.223372,-11.559206,-3.7541082
0.20799115,4.630093,-8.612675,1.0360265,4.018328,2.4229321,-24.53099,2.552219
0.2118037,4.6212564,-8.612675,1.0360265,4.018328,2.4229321,-24.53099,2.552219
0.2158382,4.6128955,-8.15035,0.9508053,4.1940966,-3.466804,-24.329878,0.5363012
0.21985014,4.6045465,-8.15035,0.9508053,4.1940966,-3.466804,-24.329878,0.5363012
0.22403213,4.5968075,-7.5420837,0.83043045,4.3176675,-5.3486466,-26.455929,0.1436521
0.22819768,4.5890627,-7.5420837,0.83043045,4.3176675,-5.3486466,-26.455929,0.1436521
0.23237933,4.582018,-6.845401,0.62057334,4.3837137,-2.8107927,-24.191013,-0.7278373
0.23656312,4.5749483,-6.845401,0.62057334,4.3837137,-2.8107927,-24.191013,-0.7278373
0.24081163,4.5686827,-6.1071725,0.40219414,4.40928,-4.1132383,-24.942793,-0.8475474
0.24505387,4.562406,-6.1071725,0.40219414,4.40928,-4.1132383,-24.942793,-0.8475474
0.2493245,4.5568647,-5.355096,0.20192441,4.393301,-3.9121256,-22.998701,-1.6519991
0.25358698,4.551319,-5.355096,0.20192441,4.393301,-3.9121256,-22.998701,-1.6519991
0.25771567,4.5466194,-4.5987577,-0.045216937,4.3038187,-1.6424223,-20.781672,-1.6184803
0.26197904,4.541756,-4.5987577,-0.045216937,4.3038187,-1.6424223,-20.781672,-1.6184803
0.26587623,4.537942,-3.8765085,-0.2614656,4.151486,-1.6376339,-20.005949,-1.5179238
0.2698892,4.5340085,-3.8765085,-0.2614656,4.151486,-1.6376339,-20.005949,-1.5179238
0.27373108,4.530822,-3.1904783,-0.43723425,3.950151,-1.9057846,-18.89504,-1.4556746
0.27758405,4.527621,-3.1904783,-0.43723425,3.950151,-1.9057846,-18.89504,-1.4556746
0.28122413,4.525126,-2.5364058,-0.6002197,3.6976833,-1.8291701,-17.81765,-1.3359646
0.28486404,4.522629,-2.5364058,-0.6002197,3.6976833,-1.8291701,-17.81765,-1.3359646
0.28823835,4.52081,-1.9057693,-0.7418999,3.4079316,-1.8962077,-16.634912,-1.6424223
0.29161638,4.5189877,-1.9057693,-0.7418999,3.4079316,-1.8962077,-16.634912,-1.6424223
0.2946956,4.517804,-1.3028296,-0.86014426,3.087287,-1.6663644,-15.279796,-1.9488802
0.29776588,4.5166235,-1.3028296,-0.86014426,3.087287,-1.6663644,-15.279796,-1.9488802
0.3005022,4.516039,-0.73291314,-0.96134436,2.7368147,-1.4939818,-13.9151,-2.3319526
0.30323607,4.5154557,-0.73291314,-0.96134436,2.7368147,-1.4939818,-13.9151,-2.3319526
0.30561882,4.515418,-0.20773777,-1.0465655,2.358646,-1.364695,-12.689269,-2.657564
0.30799443,4.515383,-0.20773777,-1.0465655,2.358646,-1.364695,-12.689269,-2.657564
0.30999812,4.5158443,0.2663049,-1.1136771,1.9591718,-1.4221559,-11.602302,-2.8107927
0.31200144,4.516309,0.2663049,-1.1136771,1.9591718,-1.4221559,-11.602302,-2.8107927
0.31361446,4.517223,0.6860191,-1.1680057,1.5469145,-1.2641385,-10.941502,-2.9161377
0.31522995,4.5181413,0.6860191,-1.1680057,1.5469145,-1.2641385,-10.941502,-2.9161377
0.31644344,4.519462,1.0503396,-1.209551,1.130396,-1.2785037,-10.500969,-2.815581
0.31765592,4.5207844,1.0503396,-1.209551,1.130396,-1.2785037,-10.500969,-2.815581
0.31845844,4.5224624,1.3688536,-1.2351173,0.7096166,-1.388637,-10.299856,-2.6910827
0.3192597,4.5241404,1.3688536,-1.2351173,0.7096166,-1.388637,-10.299856,-2.6910827
0.31965092,4.52613,1.6426266,-1.241509,0.29735923,-1.6424223,-10.338163,-2.4612393
0.32004,4.5281177,1.6426266,-1.241509,0.29735923,-1.6424223,-10.338163,-2.4612393
0.32003418,4.5303626,1.8801806,-1.2340521,-0.10211493,-1.8195933,-10.299856,-2.408567
0.3200247,4.533053,1.8801806,-1.2340521,-0.10211493,-1.8195933,-10.299856,-2.408567
0.31971517,4.5350366,2.0825808,-1.2191384,-0.48134908,-1.9536686,-10.204087,-2.3654714
0.3193299,4.5374928,2.0825808,-1.2191384,-0.48134908,-1.9536686,-10.204087,-2.3654714
0.31790933,4.54254,2.2530231,-1.1967678,-0.83821267,-2.0494366,-10.218452,-2.3942018
0.31773794,4.543147,2.2530231,-1.1967678,-0.83821267,-2.0494366,-10.218452,-2.3942018
0.31682986,4.545509,2.3947034,-1.1701362,-1.1663141,-2.1499932,-10.247183,-2.4516625
0.3157646,4.5482717,2.3947034,-1.1701362,-1.1663141,-2.1499932,-10.247183,-2.4516625
0.3143929,4.5511646,2.506556,-1.1392435,-1.4635229,-2.1404164,-10.189722,-2.480393
0.31303182,4.5540266,2.506556,-1.1392435,-1.4635229,-2.1404164,-10.189722,-2.480393
0.3114005,4.556981,2.5917773,-1.1030245,-1.725578,-2.1978772,-10.199299,-2.4612393
0.30976772,4.5599294,2.5917773,-1.1030245,-1.725578,-2.1978772,-10.199299,-2.4612393
0.30790815,4.5629272,2.6546278,-1.064675,-1.9524792,-2.2697031,-10.0987425,-2.3702598
0.30604002,4.565931,2.6546278,-1.064675,-1.9524792,-2.2697031,-10.0987425,-2.3702598
0.30397877,4.568963,2.7014995,-1.0252602,-2.1431615,-2.2409728,-9.9790325,-2.2505496
0.30190858,4.572,2.7014995,-1.0252602,-2.1431615,-2.2409728,-9.9790325,-2.2505496
0.29967874,4.5750556,2.7355878,-0.9847802,-2.297625,-2.2505496,-9.873688,-2.1260512
0.29744872,4.5781035,2.7355878,-0.9847802,-2.297625,-2.2505496,-9.873688,-2.1260512
0.29507825,4.5811777,2.7654154,-0.9443001,-2.4169345,-2.15957,-9.739613,-1.9201498
0.29271033,4.5842404,2.7654154,-0.9443001,-2.4169345,-2.15957,-9.739613,-1.9201498
0.29023847,4.587328,2.792047,-0.9038201,-2.5021558,-2.1787236,-9.643845,-1.7812861
0.28775504,4.590421,2.792047,-0.9038201,-2.5021558,-2.1787236,-9.643845,-1.7812861
0.28524446,4.5934877,2.8186786,-0.8644053,-2.5575495,-2.255338,-9.509769,-1.7046716
0.28273052,4.5965524,2.8186786,-0.8644053,-2.5575495,-2.255338,-9.509769,-1.7046716
0.28019482,4.599634,2.8495712,-0.827121,-2.5809853,-2.2888567,-9.246407,-1.6711528
0.27766612,4.602702,2.8495712,-0.827121,-2.5809853,-2.2888567,-9.246407,-1.6711528
0.27515382,4.6057806,2.881529,-0.79409784,-2.5745938,-2.2649148,-8.99741,-1.70946
0.272635,4.608862,2.881529,-0.79409784,-2.5745938,-2.2649148,-8.99741,-1.70946
0.27015588,4.611956,2.9156177,-0.7685315,-2.5458317,-2.2936451,-8.844181,-1.6711528
0.26767504,4.6150475,2.9156177,-0.7685315,-2.5458317,-2.2936451,-8.844181,-1.6711528
0.26523152,4.618166,2.949706,-0.74722624,-2.4957643,-2.2361844,-8.863335,-1.6328455
0.2627936,4.6212726,2.949706,-0.74722624,-2.4957643,-2.2361844,-8.863335,-1.6328455
0.26042095,4.624405,2.985925,-0.72911674,-2.4233263,-2.2170308,-8.935161,-1.5945383
0.25804427,4.627538,2.985925,-0.72911674,-2.4233263,-2.2170308,-8.935161,-1.5945383
0.25575453,4.630701,3.026405,-0.7120725,-2.3317134,-2.2026656,-9.059659,-1.6807296
0.25346726,4.633857,3.026405,-0.7120725,-2.3317134,-2.2026656,-9.059659,-1.6807296
0.251295,4.63704,3.0711462,-0.6992893,-2.2241218,-2.1978772,-8.959103,-1.8866309
0.24911346,4.640232,3.0711462,-0.6992893,-2.2241218,-2.1978772,-8.959103,-1.8866309
0.24704531,4.6434526,3.118018,-0.6918325,-2.1069427,-1.9632454,-8.719683,-2.3175871
0.244976,4.6466694,3.118018,-0.6918325,-2.1069427,-1.9632454,-8.719683,-2.3175871
0.2430132,4.6499295,3.159563,-0.6875714,-1.9823067,-1.5466543,-8.259995,-2.8443117
0.24103509,4.653209,3.159563,-0.6875714,-1.9823067,-1.5466543,-8.259995,-2.8443117
0.2392155,4.656442,3.1851294,-0.6854409,-1.8576708,-1.2641385,-7.656657,-3.2321723
0.23737216,4.659711,3.1851294,-0.6854409,-1.8576708,-1.2641385,-7.656657,-3.2321723
0.23565738,4.662971,3.190456,-0.6822451,-1.7394264,-1.3694834,-7.192182,-3.4572272
0.23393911,4.6662316,3.190456,-0.6822451,-1.7394264,-1.3694834,-7.192182,-3.4572272
0.23234607,4.6694765,3.1702158,-0.6790493,-1.6233126,-1.7525556,-6.8186865,-3.4715924
0.23075107,4.6727185,3.1702158,-0.6790493,-1.6233126,-1.7525556,-6.8186865,-3.4715924
0.22929285,4.6758947,3.1297357,-0.67691875,-1.5071987,-2.030283,-6.579266,-3.265691
0.22782685,4.679081,3.1297357,-0.67691875,-1.5071987,-2.030283,-6.579266,-3.265691
0.22648203,4.6822042,3.0690157,-0.67691875,-1.3878891,-2.0494366,-6.2823853,-3.122039
0.225138,4.685319,3.0690157,-0.67691875,-1.3878891,-2.0494366,-6.2823853,-3.122039
0.2239,4.6883597,2.9869902,-0.67478824,-1.2685795,-1.7669208,-5.837064,-3.0502129
0.22266512,4.691387,2.9869902,-0.67478824,-1.2685795,-1.7669208,-5.837064,-3.0502129
0.22150758,4.6943564,2.8836596,-0.6652008,-1.153531,-1.2210429,-5.209783,-3.2944214
0.2203848,4.6972303,2.8836596,-0.6652008,-1.153531,-1.2210429,-5.209783,-3.2944214
0.21934219,4.700007,2.7526321,-0.6428303,-1.0427434,-0.7086837,-4.510676,-3.6966474
0.21829702,4.7027845,2.7526321,-0.6428303,-1.0427434,-0.7086837,-4.510676,-3.6966474
0.21733685,4.7053995,2.587516,-0.6066113,-0.9426086,-0.2825158,-3.8115692,-4.036624
0.21636966,4.708029,2.587516,-0.6066113,-0.9426086,-0.2825158,-3.8115692,-4.036624
0.21551098,4.7103806,2.3851159,-0.55973965,-0.8552569,-0.16280572,-3.241749,-4.3143516
0.21464421,4.712751,2.3851159,-0.55973965,-0.8552569,-0.16280572,-3.241749,-4.3143516
0.21385325,4.714872,2.1454315,-0.5054112,-0.77962315,-0.19153613,-2.882619,-4.4196963
0.21305971,4.716996,2.1454315,-0.5054112,-0.77962315,-0.19153613,-2.882619,-4.4196963
0.21233727,4.7188363,1.873789,-0.44575638,-0.7103809,-0.2777274,-2.7341783,-3.9600096
0.21160625,4.7206955,1.873789,-0.44575638,-0.7103809,-0.2777274,-2.7341783,-3.9600096
0.21095264,4.7222195,1.5787107,-0.3818405,-0.6432693,-0.30166942,-2.8538885,-3.3566709
0.21029592,4.7237496,1.5787107,-0.3818405,-0.6432693,-0.30166942,-2.8538885,-3.3566709
0.20969859,4.724962,1.269784,-0.31259832,-0.57402706,-0.15801731,-3.0550013,-2.8538885
0.20910212,4.7261724,1.269784,-0.31259832,-0.57402706,-0.15801731,-3.0550013,-2.8538885
0.20856082,4.727065,0.9576615,-0.23696454,-0.5015891,0.0047884034,-3.4141316,-2.2026656
0.20801827,4.7279596,0.9576615,-0.23696454,-0.5015891,0.0047884034,-3.4141316,-2.2026656
0.20754066,4.728528,0.6466043,-0.15067811,-0.42275953,0.1388637,-3.8019924,-1.7238252
0.20706172,4.7290974,0.6466043,-0.15067811,-0.42275953,0.1388637,-3.8019924,-1.7238252
0.20664439,4.7293572,0.3440692,-0.059065375,-0.33860365,0.20111294,-4.223372,-1.1923125
0.20622724,4.729617,0.3440692,-0.059065375,-0.33860365,0.20111294,-4.223372,-1.1923125
0.20588192,4.729582,0.05431728,0.03361263,-0.24805616,0.16759412,-4.6160207,-0.82360536
0.20553668,4.7295465,0.05431728,0.03361263,-0.24805616,0.16759412,-4.6160207,-0.82360536
0.20527476,4.7292314,-0.22052094,0.12416011,-0.15218236,-0.08140286,-5.094861,-0.48362875
0.20501347,4.728917,-0.22052094,0.12416011,-0.15218236,-0.08140286,-5.094861,-0.48362875
0.20482472,4.728306,-0.47938022,0.2051202,-0.049916968,-0.34476504,-5.497087,-0.17717093
0.20466308,4.7277837,-0.47938022,0.2051202,-0.049916968,-0.34476504,-5.497087,-0.17717093
0.20458743,4.7269964,-0.7190647,0.2743624,0.05980527,-0.41180268,-5.66947,0.02873042
0.20451145,4.7262106,-0.7190647,0.2743624,0.05980527,-0.41180268,-5.66947,0.02873042
0.20455426,4.7251883,-0.9438355,0.33082142,0.17804962,-0.20590134,-5.592855,0.009576807
0.20459673,4.724167,-0.9438355,0.33082142,0.17804962,-0.20590134,-5.592855,0.009576807
0.20476283,4.722909,-1.1611495,0.37449726,0.30055505,0.10534488,-5.5018754,-0.095768064
0.20492767,4.721657,-1.1611495,0.37449726,0.30055505,0.10534488,-5.5018754,-0.095768064
0.2052202,4.72017,-1.3742024,0.41391206,0.42625624,0.18195933,-5.3821654,-0.15322891
0.20551042,4.718692,-1.3742024,0.41391206,0.42625624,0.18195933,-5.3821654,-0.15322891
0.20592709,4.7169924,-1.5872552,0.45013103,0.55302274,0.0047884034,-5.33907,-0.110133275
0.2063441,4.7152886,-1.5872552,0.45013103,0.55302274,0.0047884034,-5.33907,-0.110133275
0.20688981,4.713353,-1.8003081,0.48315424,0.67872393,-0.24899697,-5.3342814,-0.20111294
0.20743406,4.7114177,-1.8003081,0.48315424,0.67872393,-0.24899697,-5.3342814,-0.20111294
0.20810077,4.7092686,-2.0144262,0.5108511,0.8044251,-0.35913026,-5.4922986,-0.15322891
0.20876378,4.7071276,-2.0144262,0.5108511,0.8044251,-0.35913026,-5.4922986,-0.15322891
0.20955582,4.7047615,-2.2285445,0.5364175,0.9322569,-0.40701428,-5.7508726,-0.11492168
0.21047936,4.701999,-2.2285445,0.5364175,0.9322569,-0.40701428,-5.7508726,-0.11492168
0.21125259,4.6998253,-2.4394667,0.55985326,1.0611539,-0.51714754,-5.9807158,-0.11971009
0.21215615,4.697282,-2.4394667,0.55985326,1.0611539,-0.51714754,-5.9807158,-0.11971009
0.21215615,4.697282,-2.4394667,0.55985326,1.0611539,-0.51714754,-5.9807158,-0.11971009
0.21457747,4.6907735,-2.645063,0.5832891,1.1889856,-0.6991069,-6.4020953,-0.18674773
0.21534815,4.688785,-2.8421369,0.6045944,1.3125563,-0.81402856,-6.7851677,-0.19153613
0.21650298,4.6858025,-2.8421369,0.6045944,1.3125563,-0.81402856,-6.7851677,-0.19153613
0.21778083,4.6826286,-3.0264275,0.6216386,1.4329312,-0.94331545,-7.2783732,-0.17238252
0.21905343,4.6794667,-3.0264275,0.6216386,1.4329312,-0.94331545,-7.2783732,-0.17238252
0.22045463,4.6761684,-3.1947393,0.6354871,1.5479797,-1.1348516,-7.8050976,-0.038307227
0.22186182,4.6728578,-3.1947393,0.6354871,1.5479797,-1.1348516,-7.8050976,-0.038307227
0.22340685,4.669393,-3.342811,0.64187866,1.657702,-1.2258313,-8.355764,0.110133275
0.22522086,4.6653223,-3.342811,0.64187866,1.657702,-1.2258313,-8.355764,0.110133275
0.22655831,4.6624117,-3.4706428,0.6429439,1.7589021,-1.1827357,-8.901642,0.2681506
0.22817616,4.6588864,-3.4706428,0.6429439,1.7589021,-1.1827357,-8.901642,0.2681506
0.22989903,4.655229,-3.571843,0.64187866,1.8515801,-1.1875241,-9.44752,0.34955344
0.23162733,4.651555,-3.571843,0.64187866,1.8515801,-1.1875241,-9.44752,0.34955344
0.23343594,4.647813,-3.6464114,0.6376176,1.9325402,-1.1587936,-9.868899,0.51714754
0.23524441,4.644064,-3.6464114,0.6376176,1.9325402,-1.1587936,-9.868899,0.51714754
0.23712756,4.640268,-3.6964788,0.631226,2.0060434,-1.1492168,-10.290278,0.7086837
0.2390141,4.636458,-3.6964788,0.631226,2.0060434,-1.1492168,-10.290278,0.7086837
0.24094819,4.6326413,-3.7188494,0.6216386,2.0667634,-1.1204864,-10.783484,0.770933
0.24289154,4.6287985,-3.7188494,0.6216386,2.0667634,-1.1204864,-10.783484,0.770933
0.24487069,4.6249676,-3.7103274,0.6077902,2.1104393,-0.6607997,-14.073117,1.6376339
0.24683957,4.6211486,-3.7103274,0.6077902,2.1104393,-0.6607997,-14.073117,1.6376339
0.2490177,4.6172185,-3.6389546,0.5918112,2.1381361,-2.4420857,-5.8226986,-1.2689269
0.25118497,4.6133003,-3.6389546,0.5918112,2.1381361,-2.4420857,-5.8226986,-1.2689269
0.25316542,4.6095905,-3.5814302,0.53748274,2.1242878,2.0494366,-14.930242,3.1364043
0.25513953,4.6058855,-3.5814302,0.53748274,2.1242878,2.0494366,-14.930242,3.1364043
0.25712,4.602251,-3.5302975,0.518308,2.089134,-1.7429788,-14.504074,2.528277
0.25909784,4.598613,-3.5302975,0.518308,2.089134,-1.7429788,-14.504074,2.528277
0.26107034,4.5951157,-3.3896828,0.51937324,2.07209,-2.9496565,-16.309301,2.4420857
0.26309112,4.591524,-3.3896828,0.51937324,2.07209,-2.9496565,-16.309301,2.4420857
0.2649929,4.588295,-3.1681077,0.42989102,2.024153,-2.6001031,-17.439365,2.432509
0.266883,4.5850782,-3.1681077,0.42989102,2.024153,-2.6001031,-17.439365,2.432509
0.26875395,4.582139,-2.8826168,0.31590772,1.9708897,-2.6001031,-15.049952,1.2545617
0.27062684,4.579191,-2.8826168,0.31590772,1.9708897,-2.6001031,-15.049952,1.2545617
0.27241752,4.576577,-2.5822122,0.18807597,1.8941907,-1.4173675,-16.816874,2.0829554
0.27421245,4.5739527,-2.5822122,0.18807597,1.8941907,-1.4173675,-16.816874,2.0829554
0.27594993,4.5716615,-2.2881992,0.071962155,1.8079042,-2.2744915,-16.400282,1.910573
0.27768308,4.5693727,-2.2881992,0.071962155,1.8079042,-2.2744915,-16.400282,1.910573
0.2793138,4.567419,-1.9824684,-0.04308641,1.7035084,-1.1971009,-16.22311,2.0111294
0.28094414,4.5654635,-1.9824684,-0.04308641,1.7035084,-1.1971009,-16.22311,2.0111294
0.28247085,4.563842,-1.6788679,-0.15067811,1.5778071,-1.1971009,-17.00841,2.2218192
0.28399596,4.5622206,-1.6788679,-0.15067811,1.5778071,-1.1971009,-17.00841,2.2218192
0.28540638,4.5609417,-1.3731371,-0.23483402,1.4499754,-1.6567876,-17.0946,2.1452048
0.28682375,4.5596566,-1.3731371,-0.23483402,1.4499754,-1.6567876,-17.0946,2.1452048
0.28810725,4.558725,-1.054623,-0.32112044,1.3082952,-1.6903064,-17.147272,1.982399
0.28939587,4.5577893,-1.054623,-0.32112044,1.3082952,-1.6903064,-17.147272,1.982399
0.29053882,4.5572176,-0.72652155,-0.41379845,1.1538318,-1.8052281,-16.687586,1.4508862
0.2916851,4.556645,-0.72652155,-0.41379845,1.1538318,-1.8052281,-16.687586,1.4508862
0.29266956,4.5564394,-0.39522433,-0.5054112,0.98552006,-1.9728222,-15.945383,0.82360536
0.2936607,4.5562334,-0.39522433,-0.5054112,0.98552006,-1.9728222,-15.945383,0.82360536
0.29447535,4.556382,-0.074579716,-0.5991545,0.8065556,-1.8770541,-15.322891,0.47884035
0.29529616,4.556533,-0.074579716,-0.5991545,0.8065556,-1.8770541,-15.322891,0.47884035
0.29594326,4.5570207,0.22795539,-0.6897019,0.6222649,-1.8339585,-14.820108,0.25857377
0.29658595,4.5575066,0.22795539,-0.6897019,0.6222649,-1.8339585,-14.820108,0.25857377
0.29705957,4.558322,0.512381,-0.7749231,0.43158257,-1.9057846,-14.432248,0.15801731
0.29759482,4.559245,0.512381,-0.7749231,0.43158257,-1.9057846,-14.432248,0.15801731
0.29783142,4.5601873,0.7776318,-0.8548179,0.22918232,-1.9632454,-14.312538,0.04309563
0.2981187,4.561336,0.7776318,-0.8548179,0.22918232,-1.9632454,-14.312538,0.04309563
0.29820043,4.56269,1.03223,-0.92938644,0.023586277,-1.9728222,-14.393941,0.08140286
0.29828784,4.564172,1.03223,-0.92938644,0.023586277,-1.9728222,-14.393941,0.08140286
0.29818133,4.565718,1.2793714,-0.99436754,-0.18307503,-2.0925324,-14.590265,-0.01436521
0.29818133,4.565718,1.2793714,-0.99436754,-0.18307503,-2.0925324,-14.590265,-0.01436521
0.29787838,4.5694113,1.5201212,-1.0508265,-0.38654053,-2.135628,-14.628572,-0.25378537
0.29761,4.571022,1.5201212,-1.0508265,-0.38654053,-2.135628,-14.628572,-0.25378537
0.29707718,4.5732274,1.7576752,-1.096633,-0.58787555,-2.2936451,-14.528016,-0.6799533
0.29655093,4.575389,1.7576752,-1.096633,-0.58787555,-2.2936451,-14.528016,-0.6799533
0.2958214,4.577804,1.9920334,-1.132852,-0.7828189,-2.4516625,-14.403518,-1.0055647
0.2950848,4.580226,1.9920334,-1.132852,-0.7828189,-2.4516625,-14.403518,-1.0055647
0.2941446,4.58288,2.2210653,-1.1658752,-0.972436,-2.542642,-14.298173,-1.3599066
0.29320252,4.585522,2.2210653,-1.1658752,-0.972436,-2.542642,-14.298173,-1.3599066
0.2920673,4.5883794,2.445836,-1.1978331,-1.1567267,-2.633622,-14.135366,-1.661576
0.2909277,4.591231,2.445836,-1.1978331,-1.1567267,-2.633622,-14.135366,-1.661576
0.28961375,4.594296,2.6684763,-1.229791,-1.3314301,-2.6001031,-13.9198885,-1.8579005
0.2882951,4.5973573,2.6684763,-1.229791,-1.3314301,-2.6001031,-13.9198885,-1.8579005
0.28681168,4.600643,2.8900514,-1.2553574,-1.4986767,-2.5139117,-13.905523,-1.8243817
0.28531867,4.603935,2.8900514,-1.2553574,-1.4986767,-2.5139117,-13.905523,-1.8243817
0.28367898,4.607434,3.1126916,-1.2724016,-1.6520747,-2.4756045,-13.594277,-1.8148049
0.28204113,4.6109133,3.1126916,-1.2724016,-1.6520747,-2.4756045,-13.594277,-1.8148049
0.2802416,4.6146474,3.3374624,-1.2809237,-1.798016,-2.6144683,-13.369223,-1.7525556
0.27844712,4.618356,3.3374624,-1.2809237,-1.798016,-2.6144683,-13.369223,-1.7525556
0.2764972,4.6223245,3.5632985,-1.281989,-1.931174,-2.60968,-13.086706,-1.6089035
0.2745764,4.626219,3.5632985,-1.281989,-1.931174,-2.60968,-13.086706,-1.6089035
0.27252263,4.6303425,3.787004,-1.2755973,-2.0536795,-2.5761611,-12.914324,-1.5035586
0.27045706,4.6344748,3.787004,-1.2755973,-2.0536795,-2.5761611,-12.914324,-1.5035586
0.2682721,4.6388226,4.0043178,-1.26601,-2.1623363,-2.6048915,-12.847286,-1.292869
0.2660727,4.6431828,4.0043178,-1.26601,-2.1623363,-2.6048915,-12.847286,-1.292869
0.26377892,4.647742,4.217371,-1.2510962,-2.2518187,-2.585738,-12.650962,-1.0821792
0.26147926,4.652294,4.217371,-1.2510962,-2.2518187,-2.585738,-12.650962,-1.0821792
0.25909355,4.6570516,4.4208364,-1.2340521,-2.3274524,-2.6240451,-12.650962,-0.8523358
0.25669536,4.66181,4.4208364,-1.2340521,-2.3274524,-2.6240451,-12.650962,-0.8523358
0.25423518,4.6667356,4.61578,-1.2106162,-2.390303,-2.6431987,-12.65575,-0.7613561
0.2517645,4.671662,4.61578,-1.2106162,-2.390303,-2.6431987,-12.65575,-0.7613561
0.24925162,4.676745,4.8000703,-1.1829194,-2.4318483,-2.6719291,-12.516887,-0.6368576
0.2467364,4.681816,4.8000703,-1.1829194,-2.4318483,-2.6719291,-12.516887,-0.6368576
0.24419127,4.687045,4.974774,-1.1562878,-2.4574146,-2.705448,-12.555194,-0.56982
0.24165931,4.6922426,4.974774,-1.1562878,-2.4574146,-2.705448,-12.555194,-0.56982
0.23911272,4.6976037,5.1388245,-1.1264603,-2.4659367,-2.7868507,-12.727576,-0.51714754
0.23657782,4.7029476,5.1388245,-1.1264603,-2.4659367,-2.7868507,-12.727576,-0.51714754
0.23410232,4.708398,5.294353,-1.0976982,-2.45848,-2.9592333,-12.837709,-0.5602432
0.23161352,4.713878,5.294353,-1.0976982,-2.45848,-2.9592333,-12.837709,-0.5602432
0.2291909,4.71949,5.446686,-1.0742624,-2.4382398,-3.2465374,-12.957419,-0.6512229
0.2267859,4.725045,5.446686,-1.0742624,-2.4382398,-3.2465374,-12.957419,-0.6512229
0.22441503,4.730773,5.595823,-1.0614792,-2.4052167,-3.5051112,-12.990938,-0.81881696
0.22203813,4.736494,5.595823,-1.0614792,-2.4052167,-3.5051112,-12.990938,-0.81881696
0.21970025,4.7423763,5.7428293,-1.0593487,-2.362606,-3.7684734,-12.966996,-1.043872
0.21736287,4.7482347,5.7428293,-1.0593487,-2.362606,-3.7684734,-12.966996,-1.043872
0.21506192,4.754247,5.8887706,-1.0700014,-2.3114734,-3.7972038,-12.923901,-1.2306197
0.2127616,4.760236,5.8887706,-1.0700014,-2.3114734,-3.7972038,-12.923901,-1.2306197
0.21050982,4.7663774,6.030451,-1.0902413,-2.252884,-3.821146,-12.837709,-1.2401965
0.20825171,4.772514,6.030451,-1.0902413,-2.252884,-3.821146,-12.837709,-1.2401965
0.20605521,4.7787914,6.16787,-1.1179383,-2.1900332,-3.9791632,-12.804191,-1.2210429
0.2038564,4.7850504,6.16787,-1.1179383,-2.1900332,-3.9791632,-12.804191,-1.2210429
0.20170812,4.791477,6.3052893,-1.1562878,-2.1261175,-4.0940847,-12.512098,-1.2976574
0.19955707,4.7978854,6.3052893,-1.1562878,-2.1261175,-4.0940847,-12.512098,-1.2976574
0.19746181,4.804435,6.4405775,-1.2010288,-2.0632668,-4.232949,-11.9853735,-1.5227122
0.19535933,4.810979,6.4405775,-1.2010288,-2.0632668,-4.232949,-11.9853735,-1.5227122
0.19328749,4.8176465,6.5652137,-1.2532269,-2.0046773,-3.7732618,-10.807426,-2.2840683
0.19120026,4.824336,6.5652137,-1.2532269,-2.0046773,-3.7732618,-10.807426,-2.2840683
0.18913294,4.831093,6.667479,-1.3096858,-1.951414,-2.4660277,-8.99741,-3.4572272
0.18706292,4.8378305,6.667479,-1.3096858,-1.951414,-2.4660277,-8.99741,-3.4572272
0.18348756,4.8495193,6.7250032,-1.3608185,-1.9119992,-0.6751649,-6.7229185,-4.6160207
0.18278095,4.8518195,6.7250032,-1.3608185,-1.9119992,-0.6751649,-6.7229185,-4.6160207
0.18069914,4.858517,6.715416,-1.3895807,-1.9013466,0.8571242,-4.4484267,-5.305551
0.17828576,4.8662477,6.715416,-1.3895807,-1.9013466,0.8571242,-4.4484267,-5.305551
0.17647047,4.87189,6.6248684,-1.3842543,-1.9141297,1.7621324,-2.3415294,-5.5401826
0.17425282,4.878757,6.6248684,-1.3842543,-1.9141297,1.7621324,-2.3415294,-5.5401826
0.17212261,4.8850527,6.4512305,-1.3373827,-1.951414,1.9919758,-0.6464345,-5.3342814
0.16994458,4.8914676,6.4512305,-1.3373827,-1.951414,1.9919758,-0.6464345,-5.3342814
0.16773218,4.897623,6.1945014,-1.250031,-1.9950899,1.8483237,0.5602432,-4.817134
0.16549435,4.9038305,6.1945014,-1.250031,-1.9950899,1.8483237,0.5602432,-4.817134
0.16323745,4.9096913,5.865335,-1.128591,-2.03557,1.7046716,1.1827357,-4.261679
0.16096948,4.915566,5.865335,-1.128591,-2.03557,1.7046716,1.1827357,-4.261679
0.15870506,4.921014,5.4722524,-0.98371494,-2.0632668,1.7956513,1.6328455,-3.6056678
0.15643519,4.926464,5.4722524,-0.98371494,-2.0632668,1.7956513,1.6328455,-3.6056678
0.15414663,4.931464,5.0216455,-0.82286,-2.07605,2.96881,1.0390835,-2.72939
0.1502354,4.939994,5.0216455,-0.82286,-2.07605,2.96881,1.0390835,-2.72939
0.14957087,4.941379,4.518841,-0.64389557,-2.0675278,-0.20590134,2.7964275,-3.5577838
0.1451897,4.9498334,3.976621,-0.49049747,-2.0568752,4.2281604,1.0869676,-1.70946
0.1451897,4.9498334,3.976621,-0.49049747,-2.0568752,4.2281604,1.0869676,-1.70946
0.14272887,4.9542193,3.976621,-0.49049747,-2.0568752,4.2281604,1.0869676,-1.70946
0.14081275,4.957157,3.3992476,-0.32644674,-2.0366352,3.5051112,-1.3742718,-0.61770403
0.13863978,4.960489,3.3992476,-0.32644674,-2.0366352,3.5051112,-1.3742718,-0.61770403
0.13659953,4.963169,2.8335922,-0.13043809,-1.9865677,2.8874073,-2.9592333,-0.17717093
0.13451011,4.9659147,2.8335922,-0.13043809,-1.9865677,2.8874073,-2.9592333,-0.17717093
0.13256364,4.968057,2.3020253,0.043200012,-1.9173256,1.4173675,-2.705448,-0.78050977
0.13061476,4.9702044,2.3020253,0.043200012,-1.9173256,1.4173675,-2.705448,-0.78050977
0.12884796,4.9717975,1.7917637,0.18168439,-1.8161254,0.6991069,-1.8818425,-1.2449849
0.1253451,4.9746904,1.2772409,0.27649292,-1.6850979,1.0773908,-1.8339585,-1.0773908
0.1253451,4.9746904,1.2772409,0.27649292,-1.6850979,1.0773908,-1.8339585,-1.0773908
0.122339524,4.976681,1.2772409,0.27649292,-1.6850979,1.0773908,-1.8339585,-1.0773908
0.12198463,4.976823,0.75845706,0.34573513,-1.5263735,1.757344,-2.4277205,-0.5363012
0.120631434,4.977362,0.75845706,0.34573513,-1.5263735,1.757344,-2.4277205,-0.5363012
0.11930599,4.977479,0.25352174,0.41391206,-1.3474091,2.0973208,-3.083732,-0.04309563
0.11798198,4.977596,0.25352174,0.41391206,-1.3474091,2.0973208,-3.083732,-0.04309563
0.11682679,4.977241,-0.22158621,0.4842195,-1.1599225,2.3511062,-3.7062242,0.29209262
0.11572207,4.976903,-0.22158621,0.4842195,-1.1599225,2.3511062,-3.7062242,0.29209262
0.114777654,4.9761124,-0.6594099,0.5566575,-0.9660444,2.5187001,-3.9360676,0.5650316
0.11385851,4.9753447,-0.6594099,0.5566575,-0.9660444,2.5187001,-3.9360676,0.5650316
0.113145754,4.974187,-1.058884,0.6333565,-0.7689705,2.5809495,-4.1802764,0.90500826
0.11242995,4.973027,-1.058884,0.6333565,-0.7689705,2.5809495,-4.1802764,0.90500826
0.11192848,4.9715123,-1.421074,0.7121861,-0.5676355,2.3080103,-4.55856,1.2210429
0.11142638,4.97,-1.421074,0.7121861,-0.5676355,2.3080103,-4.55856,1.2210429
0.111133955,4.9681463,-1.7470449,0.78568935,-0.36630052,2.054225,-4.7644615,1.4317327
0.110814765,4.966134,-1.7470449,0.78568935,-0.36630052,2.054225,-4.7644615,1.4317327
0.11074271,4.964189,-2.0357316,0.8517357,-0.16390027,1.5610195,-5.377377,1.7046716
0.11066438,4.9621143,-2.0357316,0.8517357,-0.16390027,1.5610195,-5.377377,1.7046716
0.1107895,4.9597635,-2.2881992,0.90499896,0.03530419,1.5658079,-5.7125654,1.8435353
0.11091345,4.957404,-2.2881992,0.90499896,0.03530419,1.5658079,-5.7125654,1.8435353
0.11124156,4.9548435,-2.5023174,0.94760954,0.23237811,1.5275006,-6.3111157,2.1883004
0.111567594,4.952286,-2.5023174,0.94760954,0.23237811,1.5275006,-6.3111157,2.1883004
0.11208521,4.949539,-2.6834123,0.9848938,0.41986465,1.7046716,-7.249643,2.5330653
0.11260004,4.946799,-2.6834123,0.9848938,0.41986465,1.7046716,-7.249643,2.5330653
0.11260004,4.946799,-2.6834123,0.9848938,0.41986465,1.7046716,-7.249643,2.5330653
0.11260004,4.946799,-2.6834123,0.9848938,0.41986465,1.7046716,-7.249643,2.5330653
0.11547891,4.9366407,-2.9337494,1.058397,0.7543577,1.6759412,-8.499416,2.7581203
0.11599448,4.9348154,-2.9337494,1.058397,0.7543577,1.6759412,-8.499416,2.7581203
0.11699061,4.931728,-3.0051222,1.0914203,0.90242946,1.5945383,-8.930372,2.6862943
0.117981814,4.928649,-3.0051222,1.0914203,0.90242946,1.5945383,-8.930372,2.6862943
0.11910922,4.925536,-3.0456023,1.1191171,1.0409138,1.3072342,-9.251195,2.6767175
0.120235756,4.9224195,-3.0456023,1.1191171,1.0409138,1.3072342,-9.251195,2.6767175
0.121487625,4.9192896,-3.0594506,1.1404223,1.1676803,0.866701,-9.528923,2.60968
0.12273785,4.9161587,-3.0594506,1.1404223,1.1676803,0.866701,-9.528923,2.60968
0.124105886,4.9130244,-3.0498633,1.1521403,1.2869899,0.6560113,-9.715671,2.4995465
0.12546548,4.909906,-3.0498633,1.1521403,1.2869899,0.6560113,-9.715671,2.4995465
0.1269259,4.9068184,-3.020036,1.1500098,1.3967122,0.5746084,-9.864111,2.432509
0.12838772,4.903724,-3.020036,1.1500098,1.3967122,0.5746084,-9.864111,2.432509
0.12995183,4.900674,-2.9731643,1.1414877,1.4979123,0.47405192,-10.012551,2.4851813
0.13150978,4.897632,-2.9731643,1.1414877,1.4979123,0.47405192,-10.012551,2.4851813
0.13316076,4.894665,-2.908183,1.1265739,1.5884597,0.4165911,-10.25676,2.6862943
0.13481373,4.8916893,-2.908183,1.1265739,1.5884597,0.4165911,-10.25676,2.6862943
0.13653658,4.888812,-2.8282883,1.1052687,1.6640935,0.45489833,-10.58716,2.9257145
0.13826673,4.8859196,-2.8282883,1.1052687,1.6640935,0.45489833,-10.58716,2.9257145
0.14005427,4.883152,-2.734545,1.0818329,1.7290747,0.4357447,-11.109096,3.3566709
0.14184396,4.8803773,-2.734545,1.0818329,1.7290747,0.4357447,-11.109096,3.3566709
0.1436911,4.8777137,-2.617366,1.0562665,1.7770115,0.4165911,-11.836933,3.7684734
0.14551647,4.8750772,-2.617366,1.0562665,1.7770115,0.4165911,-11.836933,3.7684734
0.1474026,4.8725567,-2.481012,1.029635,1.8132305,0.16280572,-12.583924,4.1659107
0.14927775,4.8700476,-2.481012,1.029635,1.8132305,0.16280572,-12.583924,4.1659107
0.15117721,4.867701,-2.3212225,0.9998075,1.8366663,-0.076614454,-13.402741,4.4244847
0.15307343,4.865355,-2.3212225,0.9998075,1.8366663,-0.076614454,-13.402741,4.4244847
0.15497397,4.863193,-2.1369317,0.9646538,1.843058,-0.34476504,-14.001291,4.3766007
0.15686934,4.8610334,-2.1369317,0.9646538,1.843058,-0.34476504,-14.001291,4.3766007
0.15874916,4.8590784,-1.932401,0.9220432,1.8334706,-0.5267244,-14.513651,4.247314
0.16062576,4.8571234,-1.932401,0.9220432,1.8334706,-0.5267244,-14.513651,4.247314
0.16246192,4.85539,-1.7140217,0.8677147,1.8079042,-0.61770403,-14.863204,4.027047
0.16429892,4.853654,-1.7140217,0.8677147,1.8079042,-0.61770403,-14.863204,4.027047
0.16607209,4.852156,-1.4849899,0.80379885,1.7652937,-0.6991069,-15.1696615,3.8259344
0.167848,4.850654,-1.4849899,0.80379885,1.7652937,-0.6991069,-15.1696615,3.8259344
0.16954407,4.849403,-1.2485012,0.73136085,1.702443,-0.8475474,-15.1696615,3.6966474
0.17125478,4.848139,-1.2485012,0.73136085,1.702443,-0.8475474,-15.1696615,3.6966474
0.17287691,4.8471274,-1.0066861,0.6493355,1.621483,-0.9528923,-15.131354,3.6104562
0.17475909,4.845952,-1.0066861,0.6493355,1.621483,-0.9528923,-15.131354,3.6104562
0.1759884,4.8453455,-0.7638058,0.5609185,1.5224134,-1.1444284,-15.006856,3.7205894
0.17748898,4.844604,-0.7638058,0.5609185,1.5224134,-1.1444284,-15.006856,3.7205894
0.17889178,4.844121,-0.51986027,0.46930578,1.4105606,-1.4652514,-14.824897,3.8115692
0.18029112,4.8436384,-0.51986027,0.46930578,1.4105606,-1.4652514,-14.824897,3.8115692
0.18156599,4.843412,-0.2791105,0.37449726,1.2859247,-1.5801731,-14.480132,3.8881836
0.1828389,4.8431854,-0.2791105,0.37449726,1.2859247,-1.5801731,-14.480132,3.8881836
0.18397053,4.8432093,-0.042621784,0.2839498,1.1517013,-1.6089035,-14.326903,3.9743748
0.18529165,4.843237,-0.042621784,0.2839498,1.1517013,-1.6089035,-14.326903,3.9743748
0.18612033,4.8434634,0.18960586,0.20085916,1.0121517,-1.7908629,-13.9198885,3.8019924
0.18710184,4.843731,0.18960586,0.20085916,1.0121517,-1.7908629,-13.9198885,3.8019924
0.1879303,4.8442373,0.41544193,0.11989905,0.86407995,-1.757344,-13.493721,3.6296098
0.18875967,4.844744,0.41544193,0.11989905,0.86407995,-1.757344,-13.493721,3.6296098
0.18940847,4.8454714,0.63062537,0.043200012,0.71068186,-1.4077905,-13.460202,3.4811692
0.19005658,4.8461986,0.63062537,0.043200012,0.71068186,-1.4077905,-13.460202,3.4811692
0.19052902,4.847132,0.8340909,-0.022846384,0.554088,-1.2976574,-13.057976,3.145981
0.19100061,4.8480663,0.8340909,-0.022846384,0.554088,-1.2976574,-13.057976,3.145981
0.1913002,4.8491983,1.0258385,-0.082501195,0.39642882,-1.4317327,-12.282255,2.585738
0.19159743,4.8503256,1.0258385,-0.082501195,0.39642882,-1.4317327,-12.282255,2.585738
0.19173668,4.851637,1.1962807,-0.13469915,0.24090023,-1.6663644,-11.779472,2.2649148
0.19187398,4.8529444,1.1962807,-0.13469915,0.24090023,-1.6663644,-11.779472,2.2649148
0.19189425,4.854416,1.337961,-0.18796237,0.091763206,-2.0733786,-11.420342,1.9871874
0.19180048,4.857485,1.45514,-0.24229085,-0.04778644,-2.0685902,-11.051635,1.9536686
0.19180048,4.857485,1.45514,-0.24229085,-0.04778644,-2.0685902,-11.051635,1.9536686
0.19168645,4.8590927,1.45514,-0.24229085,-0.04778644,-2.0685902,-11.051635,1.9536686
0.19145037,4.860804,1.5499486,-0.29555407,-0.17135713,-2.0398598,-10.778696,1.9728222
0.19121687,4.8624897,1.5499486,-0.29555407,-0.17135713,-2.0398598,-10.778696,1.9728222
0.19082324,4.864257,1.6213213,-0.33922994,-0.2800141,-1.6759412,-10.395624,2.0590134
0.19042844,4.8660197,1.6213213,-0.33922994,-0.2800141,-1.6759412,-10.395624,2.0590134
0.18990518,4.8678527,1.6713887,-0.37118787,-0.37375736,-1.3503298,-10.031705,2.0638018
0.1893922,4.8696413,1.6713887,-0.37118787,-0.37375736,-1.3503298,-10.031705,2.0638018
0.18878438,4.8714542,1.6958898,-0.38716683,-0.45152166,-1.1923125,-9.476251,1.9057846
0.18817204,4.873273,1.6958898,-0.38716683,-0.45152166,-1.1923125,-9.476251,1.9057846
0.1874658,4.8750296,1.6894982,-0.38716683,-0.51330703,-0.90500826,-8.676587,1.4748282
0.18675785,4.8767853,1.6894982,-0.38716683,-0.51330703,-0.90500826,-8.676587,1.4748282
0.1860101,4.878438,1.6458224,-0.3754489,-0.5644397,-0.45010993,-7.8146744,0.9720459
0.18526055,4.880094,1.6458224,-0.3754489,-0.5644397,-0.45010993,-7.8146744,0.9720459
0.18450372,4.8816223,1.5552748,-0.34775203,-0.5995934,0.21068975,-6.631939,0.1436521
0.18375105,4.8831415,1.5552748,-0.34775203,-0.5995934,0.21068975,-6.631939,0.1436521
0.18297948,4.8845134,1.4114642,-0.30514148,-0.621964,1.0199299,-5.439626,-0.59855044
0.18221186,4.8858776,1.4114642,-0.30514148,-0.621964,1.0199299,-5.439626,-0.59855044
0.18144292,4.887026,1.2101293,-0.24229085,-0.63261664,1.6519991,-4.31914,-1.2258313
0.18067491,4.888172,1.2101293,-0.24229085,-0.63261664,1.6519991,-4.31914,-1.2258313
0.17991431,4.8890424,0.9512699,-0.1602655,-0.63794297,1.8626889,-3.3423057,-1.436521
0.17914991,4.8899174,0.9512699,-0.1602655,-0.63794297,1.8626889,-3.3423057,-1.436521
0.17841578,4.890457,0.6402127,-0.06013064,-0.6304861,1.6280571,-2.7246015,-1.2401965
0.1776795,4.890999,0.6402127,-0.06013064,-0.6304861,1.6280571,-2.7246015,-1.2401965
0.1769287,4.8911943,0.29719758,0.048526336,-0.60811555,1.1971009,-2.825158,-0.90979666
0.17629275,4.8913608,0.29719758,0.048526336,-0.60811555,1.1971009,-2.825158,-0.90979666
0.17568527,4.8911533,-0.06712287,0.16570543,-0.56337446,0.6512229,-3.083732,-0.7038953
0.1750754,4.8909454,-0.06712287,0.16570543,-0.56337446,0.6512229,-3.083732,-0.7038953
0.1745408,4.89034,-0.44742227,0.2775582,-0.49945858,0.48362875,-3.4859576,-0.45489833
0.17400023,4.8897276,-0.44742227,0.2775582,-0.49945858,0.48362875,-3.4859576,-0.45489833
0.17354941,4.888755,-0.83730906,0.37236673,-0.4142374,0.82360536,-3.9121256,-0.21068975
0.17309624,4.8877788,-0.83730906,0.37236673,-0.4142374,0.82360536,-3.9121256,-0.21068975
0.17274716,4.8864036,-1.2282611,0.4597184,-0.30984148,1.1827357,-4.2760444,-0.15322891
0.17239824,4.8850327,-1.2282611,0.4597184,-0.30984148,1.1827357,-4.2760444,-0.15322891
0.17217976,4.883254,-1.6128216,0.54600483,-0.19159715,1.043872,-4.8267107,-0.08140286
0.1719604,4.8814797,-1.6128216,0.54600483,-0.19159715,1.043872,-4.8267107,-0.08140286
0.17188334,4.8793316,-1.9824684,0.6216386,-0.06376541,0.59376204,-5.5018754,0.12449849
0.17180394,4.8771715,-1.9824684,0.6216386,-0.06376541,0.59376204,-5.5018754,0.12449849
0.1718731,4.874665,-2.3308098,0.6844892,0.075784236,0.25857377,-6.1866174,0.320823
0.1719398,4.8721566,-2.3308098,0.6844892,0.075784236,0.25857377,-6.1866174,0.320823
0.1721532,4.8693357,-2.6514544,0.72816503,0.22811705,0.31124622,-6.7468605,0.50278234
0.17236382,4.866516,-2.6514544,0.72816503,0.22811705,0.31124622,-6.7468605,0.50278234
0.17272297,4.8634257,-2.93588,0.7590577,0.3825804,0.4309563,-7.3645644,0.6799533
0.17308046,4.8603272,-2.93588,0.7590577,0.3825804,0.4309563,-7.3645644,0.6799533
0.17358603,4.857007,-3.177695,0.77929777,0.5359785,0.47884035,-7.9152308,0.8475474
0.17408855,4.8536906,-3.177695,0.77929777,0.5359785,0.47884035,-7.9152308,0.8475474
0.17473775,4.8501678,-3.374769,0.79208094,0.68298495,0.3878607,-8.42759,0.8858546
0.17538409,4.846646,-3.374769,0.79208094,0.68298495,0.3878607,-8.42759,0.8858546
0.17616534,4.842975,-3.5271018,0.79421145,0.82146937,0.31124622,-8.925584,0.842759
0.17694427,4.839302,-3.5271018,0.79421145,0.82146937,0.31124622,-8.925584,0.842759
0.17784959,4.835524,-3.6357589,0.78781986,0.9524969,0.10534488,-9.270349,0.842759
0.17875265,4.831744,-3.6357589,0.78781986,0.9524969,0.10534488,-9.270349,0.842759
0.17977436,4.827889,-3.7039356,0.7686451,1.0728718,-0.07182605,-9.481039,0.7086837
0.18078226,4.824074,-3.7039356,0.7686451,1.0728718,-0.07182605,-9.481039,0.7086837
0.18190897,4.8201804,-3.7348285,0.7356219,1.1804634,-0.11492168,-9.605537,0.46926352
0.18304172,4.8162527,-3.7348285,0.7356219,1.1804634,-0.11492168,-9.605537,0.46926352
0.18425915,4.812356,-3.7380242,0.6983377,1.2763373,-0.19632454,-9.643845,0.33039984
0.18546519,4.8084836,-3.7380242,0.6983377,1.2763373,-0.19632454,-9.643845,0.33039984
0.18676618,4.804605,-3.7177842,0.65466183,1.3615584,-0.30645782,-9.667787,0.14844051
0.18807586,4.8006883,-3.7177842,0.65466183,1.3615584,-0.30645782,-9.667787,0.14844051
0.18944843,4.7968464,-3.6804998,0.6067249,1.4371922,-0.39264908,-9.634268,0.047884032
0.19081412,4.7930136,-3.6804998,0.6067249,1.4371922,-0.39264908,-9.634268,0.047884032
0.19224514,4.7892323,-3.629367,0.55559224,1.5032386,-0.34955344,-9.605537,-0.10055647
0.19224514,4.7892323,-3.629367,0.55559224,1.5032386,-0.34955344,-9.605537,-0.10055647
0.19224514,4.7892323,-3.629367,0.55559224,1.5032386,-0.34955344,-9.605537,-0.10055647
0.19224514,4.7892323,-3.629367,0.55559224,1.5032386,-0.34955344,-9.605537,-0.10055647
0.19224514,4.7892323,-3.629367,0.55559224,1.5032386,-0.34955344,-9.605537,-0.10055647
0.19224514,4.7892323,-3.629367,0.55559224,1.5032386,-0.34955344,-9.605537,-0.10055647
0.20283243,4.765233,-3.4354892,0.40538993,1.6470493,-0.5363012,-9.763555,-0.45010993
0.20370142,4.7632427,-3.4354892,0.40538993,1.6470493,-0.5363012,-9.763555,-0.45010993
0.20592465,4.758142,-3.4354892,0.40538993,1.6470493,-0.5363012,-9.763555,-0.45010993
0.20692097,4.755944,-3.3651817,0.35958356,1.6768767,-0.6655881,-10.007763,-0.4405331
0.20799871,4.753641,-3.2916784,0.32016876,1.698182,-0.7565677,-10.453085,-0.2777274
0.20959544,4.750226,-3.2916784,0.32016876,1.698182,-0.7565677,-10.453085,-0.2777274
0.21117762,4.746941,-3.2117836,0.2860803,1.7109652,-0.79966336,-10.936713,0.06703765
0.21275148,4.7436714,-3.2117836,0.2860803,1.7109652,-0.79966336,-10.936713,0.06703765
0.21433684,4.740528,-3.1191056,0.26051396,1.7130957,-0.842759,-11.51611,0.61291564
0.21592085,4.7373896,-3.1191056,0.26051396,1.7130957,-0.842759,-11.51611,0.61291564
0.21752663,4.734379,-3.008318,0.24240446,1.7067041,-0.8858546,-12.028469,1.115698
0.2191282,4.7313776,-3.008318,0.24240446,1.7067041,-0.8858546,-12.028469,1.115698
0.22072141,4.7285323,-2.8740947,0.22962129,1.6885946,-0.7613561,-12.555194,1.6089035
0.22231963,4.7256775,-2.8740947,0.22962129,1.6885946,-0.7613561,-12.555194,1.6089035
0.2238917,4.7229924,-2.7121744,0.2232297,1.6555715,-0.7374141,-13.057976,1.9776106
0.22546224,4.7203093,-2.7121744,0.2232297,1.6555715,-0.7374141,-13.057976,1.9776106
0.22698887,4.7178197,-2.520427,0.21790338,1.6086998,-0.80445176,-13.144167,2.0446482
0.22851686,4.7153263,-2.520427,0.21790338,1.6086998,-0.80445176,-13.144167,2.0446482
0.2299773,4.713055,-2.2977867,0.20298968,1.544784,-0.62728083,-13.215993,2.0590134
0.23143761,4.710784,-2.2977867,0.20298968,1.544784,-0.62728083,-13.215993,2.0590134
0.2328187,4.708762,-2.04958,0.17955387,1.464889,-0.5554548,-13.244724,2.087744
0.23419832,4.706742,-2.04958,0.17955387,1.464889,-0.5554548,-13.244724,2.087744
0.23547938,4.7049966,-1.7768723,0.14440013,1.3711458,-0.44532153,-13.263878,1.9153614
0.23676044,4.703251,-1.7768723,0.14440013,1.3711458,-0.44532153,-13.263878,1.9153614
0.237927,4.701808,-1.4860551,0.09646323,1.2624888,-0.40701428,-13.2351465,1.7812861
0.23910297,4.7003527,-1.4860551,0.09646323,1.2624888,-0.40701428,-13.2351465,1.7812861
0.24018289,4.6991935,-1.179259,0.036808424,1.1399834,-0.545878,-13.220781,1.7046716
0.24018289,4.6991935,-1.179259,0.036808424,1.1399834,-0.545878,-13.220781,1.7046716
0.24206553,4.6975813,-0.86394066,-0.032433763,1.0121517,-0.6895301,-13.153744,1.6663644
0.24297889,4.6967993,-0.86394066,-0.032433763,1.0121517,-0.6895301,-13.153744,1.6663644
0.24373524,4.696364,-0.5475571,-0.10806754,0.8779284,-0.79966336,-13.139379,1.5897499
0.24452782,4.695908,-0.5475571,-0.10806754,0.8779284,-0.79966336,-13.139379,1.5897499
0.245167,4.6957893,-0.23436938,-0.18476658,0.74370503,-0.8283938,-13.115437,1.5179238
0.24581134,4.69567,-0.23436938,-0.18476658,0.74370503,-0.8283938,-13.115437,1.5179238
0.24632202,4.695862,0.06603519,-0.25187823,0.60948175,-0.842759,-13.086706,1.436521
0.2468526,4.6960616,0.06603519,-0.25187823,0.60948175,-0.842759,-13.086706,1.436521
0.24724212,4.696556,0.3504608,-0.3040762,0.4784542,-1.0869676,-12.952631,1.340753
0.24762955,4.697048,0.3504608,-0.3040762,0.4784542,-1.0869676,-12.952631,1.340753
0.24789692,4.6978145,0.6114506,-0.34136045,0.35701406,-1.3838485,-12.928689,1.1061212
0.24816515,4.6985855,0.6114506,-0.34136045,0.35701406,-1.3838485,-12.928689,1.1061212
0.24832214,4.6995935,0.8447435,-0.36586154,0.24409603,-1.7190368,-12.947843,0.9816227
0.24847831,4.7006025,0.8447435,-0.36586154,0.24409603,-1.7190368,-12.947843,0.9816227
0.24851663,4.701812,1.0492743,-0.38077524,0.1397001,-1.8579005,-13.043611,0.6607997
0.24855365,4.703019,1.0492743,-0.38077524,0.1397001,-1.8579005,-13.043611,0.6607997
0.24848731,4.7043915,1.2229124,-0.38716683,0.04595683,-1.9919758,-12.995727,0.45010993
0.24841914,4.705768,1.2229124,-0.38716683,0.04595683,-1.9919758,-12.995727,0.45010993
0.24826428,4.707287,1.3688536,-0.38823208,-0.039264325,-2.255338,-12.77546,0.32561144
0.24810684,4.7088075,1.3688536,-0.38823208,-0.039264325,-2.255338,-12.77546,0.32561144
0.24787936,4.7104464,1.4892285,-0.38610157,-0.1148981,-2.432509,-12.440272,0.29209262
0.24764827,4.71209,1.4892285,-0.38610157,-0.1148981,-2.432509,-12.440272,0.29209262
0.24734093,4.713814,1.5840371,-0.38077524,-0.18520555,-2.2840683,-11.942278,0.2633622
0.24702908,4.7155457,1.5840371,-0.38077524,-0.18520555,-2.2840683,-11.942278,0.2633622
0.24665567,4.7173305,1.6554098,-0.37438366,-0.24805616,-1.9440918,-11.305421,0.32561144
0.24627326,4.719145,1.6554098,-0.37438366,-0.24805616,-1.9440918,-11.305421,0.32561144
0.24583122,4.7209396,1.6990856,-0.3616005,-0.30877623,-1.6376339,-10.58716,0.23942018
0.24538366,4.722748,1.6990856,-0.3616005,-0.30877623,-1.6376339,-10.58716,0.23942018
0.2448728,4.7245502,1.7161298,-0.33816466,-0.37056157,-1.388637,-9.864111,0.17717093
0.24435632,4.7263665,1.7161298,-0.33816466,-0.37056157,-1.388637,-9.864111,0.17717093
0.24377672,4.7281475,1.7033466,-0.30514148,-0.4323469,-1.2689269,-9.308656,0.090979666
0.24318106,4.729974,1.7033466,-0.30514148,-0.4323469,-1.2689269,-9.308656,0.090979666
0.24212512,4.7328334,1.6639318,-0.26679194,-0.4920017,-1.2210429,-8.714894,0.1340753
0.24192515,4.7333736,1.6639318,-0.26679194,-0.4920017,-1.2210429,-8.714894,0.1340753
0.24122249,4.7350655,1.5978855,-0.22524664,-0.5463302,-1.1204864,-8.408437,0.24420857
0.24054116,4.7367024,1.5978855,-0.22524664,-0.5463302,-1.1204864,-8.408437,0.24420857
0.23981608,4.73825,1.5105338,-0.18370132,-0.59426713,-0.9959879,-8.226477,0.320823
0.23907709,4.739823,1.5105338,-0.18370132,-0.59426713,-0.9959879,-8.226477,0.320823
0.2383178,4.741286,1.4050726,-0.14322127,-0.6304861,-0.8619126,-8.130709,0.50757074
0.23755467,4.742753,1.4050726,-0.14322127,-0.6304861,-0.8619126,-8.130709,0.50757074
0.23676883,4.744106,1.290024,-0.10380648,-0.65924823,-0.8762778,-8.169016,0.60812724
0.23598228,4.745457,1.290024,-0.10380648,-0.65924823,-0.8762778,-8.169016,0.60812724
0.23518573,4.746682,1.1664534,-0.066522226,-0.6752272,-0.90500826,-8.360553,0.6991069
0.23439021,4.747904,1.1664534,-0.066522226,-0.6752272,-0.90500826,-8.360553,0.6991069
0.23359905,4.749004,1.0386217,-0.03669482,-0.6762925,-1.0534488,-8.75799,0.80445176
0.23281054,4.7500987,1.0386217,-0.03669482,-0.6762925,-1.0534488,-8.75799,0.80445176
0.232032,4.7510653,0.91185516,-0.018585326,-0.66244406,-1.1540052,-9.174581,0.80924016
0.23128022,4.7519975,0.91185516,-0.018585326,-0.66244406,-1.1540052,-9.174581,0.80924016
0.2305263,4.752838,0.78934973,-0.008997946,-0.6358124,-1.2545617,-9.615114,0.81881696
0.2297523,4.7537003,0.78934973,-0.008997946,-0.6358124,-1.2545617,-9.615114,0.81881696
0.22903353,4.754424,0.67536646,-0.0100632105,-0.5995934,-1.3024458,-9.983821,0.8379706
0.22832085,4.7551417,0.67536646,-0.0100632105,-0.5995934,-1.3024458,-9.983821,0.8379706
0.22764638,4.7557573,0.5752316,-0.016454797,-0.5484607,-1.340753,-10.491392,0.79487497
0.22696829,4.7563753,0.5752316,-0.016454797,-0.5484607,-1.340753,-10.491392,0.79487497
0.22634937,4.7569017,0.49320623,-0.0313685,-0.48667538,-1.388637,-10.941502,0.7374141
0.22572407,4.757433,0.49320623,-0.0313685,-0.48667538,-1.388637,-10.941502,0.7374141
0.22517127,4.757888,0.4314209,-0.052673787,-0.41849846,-1.4460979,-11.329363,0.6655881
0.22461724,4.758343,0.4314209,-0.052673787,-0.41849846,-1.4460979,-11.329363,0.6655881
0.22413298,4.7587624,0.3920061,-0.080370665,-0.3428647,-1.484405,-11.674128,0.6368576
0.2236485,4.7591805,0.3920061,-0.080370665,-0.3428647,-1.484405,-11.674128,0.6368576
0.22323543,4.7595754,0.37283134,-0.111263335,-0.26829618,-1.6089035,-12.061988,0.5602432
0.2228224,4.759969,0.37283134,-0.111263335,-0.26829618,-1.6089035,-12.061988,0.5602432
0.22247458,4.760373,0.37496188,-0.1453518,-0.20118453,-1.5897499,-12.334928,0.5746084
0.22212636,4.7607775,0.37496188,-0.1453518,-0.20118453,-1.5897499,-12.334928,0.5746084
0.22183943,4.7611904,0.39520192,-0.17837499,-0.14046445,-1.6519991,-12.583924,0.4405331
0.22155283,4.7616024,0.39520192,-0.17837499,-0.14046445,-1.6519991,-12.583924,0.4405331
0.22131701,4.762056,0.43355143,-0.21033293,-0.08933175,-1.7381904,-12.899959,0.4213795
0.22108105,4.7625084,0.43355143,-0.21033293,-0.08933175,-1.7381904,-12.899959,0.4213795
0.22088662,4.763007,0.4889452,-0.24335612,-0.05417803,-1.7286136,-13.034034,0.24899697
0.22069278,4.763504,0.4889452,-0.24335612,-0.05417803,-1.7286136,-13.034034,0.24899697
0.22052272,4.764073,0.5592526,-0.27637932,-0.032872736,-1.8291701,-13.220781,0.22026655
0.22035296,4.7646413,0.5592526,-0.27637932,-0.032872736,-1.8291701,-13.220781,0.22026655
0.22019993,4.7652855,0.64340854,-0.307272,-0.02861168,-1.8866309,-13.254301,0.047884032
0.22004774,4.7659283,0.64340854,-0.307272,-0.02861168,-1.8866309,-13.254301,0.047884032
0.2198868,4.7666845,0.7392823,-0.33922994,-0.04032959,-1.934515,-13.326127,-0.04309563
0.21973342,4.767407,0.7392823,-0.33922994,-0.04032959,-1.934515,-13.326127,-0.04309563
0.21955086,4.7682533,0.84580874,-0.3733184,-0.07228752,-2.0590134,-13.354857,-0.05267244
0.21936876,4.7690997,0.84580874,-0.3733184,-0.07228752,-2.0590134,-13.354857,-0.05267244
0.21914223,4.7700686,0.96298784,-0.40740687,-0.12022442,-2.0638018,-13.43626,-0.1436521
0.21891694,4.7710342,0.96298784,-0.40740687,-0.12022442,-2.0638018,-13.43626,-0.1436521
0.21862999,4.772136,1.0929501,-0.44469112,-0.18520555,-2.1643584,-13.378799,-0.11492168
0.21834438,4.7732353,1.0929501,-0.44469112,-0.18520555,-2.1643584,-13.378799,-0.11492168
0.21799108,4.774476,1.2314345,-0.48410589,-0.2619046,-2.183512,-13.244724,-0.2681506
0.21763825,4.775717,1.2314345,-0.48410589,-0.2619046,-2.183512,-13.244724,-0.2681506
0.21719466,4.77711,1.3795062,-0.52458596,-0.35351735,-2.1930888,-13.077129,-0.25857377
0.21675108,4.7785044,1.3795062,-0.52458596,-0.35351735,-2.1930888,-13.077129,-0.25857377
0.21620487,4.780061,1.5361001,-0.5682618,-0.45791325,-2.1978772,-12.995727,-0.320823
0.21566014,4.7816133,1.5361001,-0.5682618,-0.45791325,-2.1978772,-12.995727,-0.320823
0.21499719,4.783343,1.6990856,-0.61406815,-0.57189655,-2.1883004,-12.856863,-0.31124622
0.21435858,4.7850094,1.6990856,-0.61406815,-0.57189655,-2.1883004,-12.856863,-0.31124622
0.21357739,4.7869115,1.8673974,-0.6609398,-0.68907565,-2.1547816,-12.737153,-0.35913026
0.21277064,4.788875,1.8673974,-0.6609398,-0.68907565,-2.1547816,-12.737153,-0.35913026
0.21187028,4.790952,2.038905,-0.70887667,-0.80838525,-2.1404164,-12.579136,-0.40222588
0.21097533,4.793016,2.038905,-0.70887667,-0.80838525,-2.1404164,-12.579136,-0.40222588
0.20995395,4.79527,2.2146735,-0.7600094,-0.9298254,-2.1452048,-12.5264635,-0.45010993
0.20892237,4.7975454,2.2146735,-0.7600094,-0.9298254,-2.1452048,-12.5264635,-0.45010993
0.2077758,4.799987,2.3915074,-0.81220734,-1.0502003,-2.1787236,-12.454638,-0.37828386
0.20662904,4.802426,2.3915074,-0.81220734,-1.0502003,-2.1787236,-12.454638,-0.37828386
0.20537387,4.805042,2.5694067,-0.8654706,-1.1663141,-2.2984335,-12.382812,-0.37828386
0.20411317,4.807666,2.5694067,-0.8654706,-1.1663141,-2.2984335,-12.382812,-0.37828386
0.20273559,4.8104753,2.7483711,-0.9219296,-1.2749711,-2.255338,-12.35887,-0.2681506
0.20135747,4.813282,2.7483711,-0.9219296,-1.2749711,-2.255338,-12.35887,-0.2681506
0.19986387,4.8162737,2.925205,-0.9805191,-1.3772365,-2.135628,-12.20564,-0.20111294
0.19836827,4.8192663,2.925205,-0.9805191,-1.3772365,-2.135628,-12.20564,-0.20111294
0.19677006,4.822443,3.1009736,-1.0423045,-1.4699144,-2.0638018,-12.014104,-0.18195933
0.19517255,4.8256135,3.1009736,-1.0423045,-1.4699144,-2.0638018,-12.014104,-0.18195933
0.19348367,4.8289566,3.2692854,-1.1030245,-1.5540704,-2.006341,-11.880029,-0.22505496
0.1917917,4.8323,3.2692854,-1.1030245,-1.5540704,-2.006341,-11.880029,-0.22505496
0.19002722,4.835806,3.4322708,-1.1637446,-1.6275736,-2.0925324,-11.774684,-0.12449849
0.18825392,4.8393235,3.4322708,-1.1637446,-1.6275736,-2.0925324,-11.774684,-0.12449849
0.1864175,4.842991,3.5867343,-1.2244647,-1.6904242,-2.111686,-11.568783,-0.08140286
0.18457532,4.846663,3.5867343,-1.2244647,-1.6904242,-2.111686,-11.568783,-0.08140286
0.18267488,4.850479,3.7316103,-1.2841195,-1.7426221,-2.030283,-11.118672,-0.076614454
0.18076822,4.8542986,3.7316103,-1.2841195,-1.7426221,-2.030283,-11.118672,-0.076614454
0.17878431,4.8582535,3.863703,-1.3395133,-1.7831023,-1.4460979,-10.309433,-0.06703765
0.17679818,4.8622046,3.863703,-1.3395133,-1.7831023,-1.4460979,-10.309433,-0.06703765
0.17474076,4.866274,3.9734251,-1.3853196,-1.8129296,-0.62728083,-9.217676,-0.320823
0.172256,4.871176,3.9734251,-1.3853196,-1.8129296,-0.62728083,-9.217676,-0.320823
0.17028432,4.8750362,4.049059,-1.4119512,-1.8374307,0.2681506,-8.101978,-0.61291564
0.16838862,4.8787394,4.049059,-1.4119512,-1.8374307,0.2681506,-8.101978,-0.61291564
0.16625896,4.882863,4.081017,-1.4140818,-1.8566055,0.91937345,-7.0485296,-0.90021986
0.16383214,4.8875494,4.081017,-1.4140818,-1.8566055,0.91937345,-7.0485296,-0.90021986
0.16196674,4.891098,4.0671687,-1.3917112,-1.8757802,1.2689269,-6.14831,-1.2401965
0.15959871,4.8955913,4.0671687,-1.3917112,-1.8757802,1.2689269,-6.14831,-1.2401965
0.15758583,4.899321,4.009644,-1.3469701,-1.8928245,1.4796166,-5.3582234,-1.388637
0.1552377,4.9036613,4.009644,-1.3469701,-1.8928245,1.4796166,-5.3582234,-1.388637
0.15316284,4.907372,3.9084442,-1.2851847,-1.9045424,1.7621324,-4.55856,-1.4030021
0.15094803,4.911325,3.9084442,-1.2851847,-1.9045424,1.7621324,-4.55856,-1.4030021
0.14875148,4.915102,3.766764,-1.2063552,-1.9045424,2.0638018,-3.0885203,-1.7621324
0.14655681,4.9188685,3.766764,-1.2063552,-1.9045424,2.0638018,-3.0885203,-1.7621324
0.1443476,4.922488,3.5824733,-1.1158078,-1.894955,3.3662477,-3.4284968,-1.436521
0.14217153,4.926047,3.5824733,-1.1158078,-1.894955,3.3662477,-3.4284968,-1.436521
0.1400405,4.9293823,3.3608983,-1.0071508,-1.8715192,1.8962077,-1.1875241,-2.3558946
0.13787147,4.9327717,3.3608983,-1.0071508,-1.8715192,1.8962077,-1.1875241,-2.3558946
0.13572189,4.935917,3.094582,-0.9123422,-1.8544749,4.525041,-2.7820623,-0.59376204
0.13359207,4.939028,3.094582,-0.9123422,-1.8544749,4.525041,-2.7820623,-0.59376204
0.13149917,4.941868,2.8058953,-0.770662,-1.8203865,3.8977604,-3.5625722,-0.11971009
0.12940939,4.9446993,2.8058953,-0.770662,-1.8203865,3.8977604,-3.5625722,-0.11971009
0.12742046,4.9472046,2.5363834,-0.6108724,-1.7756454,2.9113493,-3.643975,-0.095768064
0.12542526,4.9497156,2.5363834,-0.6108724,-1.7756454,2.9113493,-3.643975,-0.095768064
0.12350735,4.951963,2.284981,-0.47025746,-1.7202517,2.2649148,-2.743755,-0.29688102
0.121597126,4.9542007,2.284981,-0.47025746,-1.7202517,2.2649148,-2.743755,-0.29688102
0.1197853,4.9561768,2.0314481,-0.34988257,-1.6446179,1.8052281,-2.3702598,-0.19632454
0.117975414,4.9581504,2.0314481,-0.34988257,-1.6446179,1.8052281,-2.3702598,-0.19632454
0.11627278,4.9598765,1.7587404,-0.25507402,-1.5498093,2.1308396,-2.7389667,0.33518824
0.114571966,4.9616003,1.7587404,-0.25507402,-1.5498093,2.1308396,-2.7389667,0.33518824
0.112960786,4.9630904,1.4753801,-0.17624447,-1.4368913,2.3127987,-3.41892,0.8331822
0.111417286,4.964518,1.4753801,-0.17624447,-1.4368913,2.3127987,-3.41892,0.8331822
0.10999836,4.9656916,1.1952155,-0.10274122,-1.3133206,2.4277205,-4.3143516,1.3838485
0.10856955,4.966873,1.1952155,-0.10274122,-1.3133206,2.4277205,-4.3143516,1.3838485
0.107285045,4.9677925,0.9310299,-0.037760086,-1.1865542,2.504335,-4.6351743,1.6424223
0.10599681,4.9687138,0.9310299,-0.037760086,-1.1865542,2.504335,-4.6351743,1.6424223
0.10485703,4.9693875,0.67962754,0.022959989,-1.0502003,1.8243817,-4.697424,1.6807296
0.10371278,4.9700646,0.67962754,0.022959989,-1.0502003,1.8243817,-4.697424,1.6807296
0.10273512,4.9705095,0.44207355,0.067701094,-0.90745485,1.8531121,-4.841076,1.9967642
0.10175646,4.970956,0.44207355,0.067701094,-0.90745485,1.8531121,-4.841076,1.9967642
0.1009058,4.9711847,0.21517222,0.09646323,-0.76151365,1.8674773,-4.9464207,2.087744
0.10009175,4.971404,0.21517222,0.09646323,-0.76151365,1.8674773,-4.9464207,2.087744
0.09941476,4.971419,-0.0010764711,0.11989905,-0.6134419,2.2266076,-5.21936,2.4612393
0.09873781,4.9714336,-0.0010764711,0.11989905,-0.6134419,2.2266076,-5.21936,2.4612393
0.098214656,4.9712443,-0.20880304,0.1454654,-0.46430483,2.5091233,-5.511452,2.705448
0.09768888,4.971054,-0.20880304,0.1454654,-0.46430483,2.5091233,-5.511452,2.705448
0.097316384,4.9706736,-0.40374643,0.17635807,-0.3183636,2.4660277,-5.793968,2.896984
0.09693641,4.9702864,-0.40374643,0.17635807,-0.3183636,2.4660277,-5.793968,2.896984
0.09670865,4.9697366,-0.5816456,0.21044654,-0.17881396,2.2840683,-6.133945,2.8921957
0.096477814,4.969179,-0.5816456,0.21044654,-0.17881396,2.2840683,-6.133945,2.8921957
0.09637902,4.968458,-0.74250054,0.23920867,-0.046721175,2.2409728,-6.38773,2.8682537
0.09628029,4.9677377,-0.74250054,0.23920867,-0.046721175,2.2409728,-6.38773,2.8682537
0.09630421,4.9668717,-0.88631123,0.2626445,0.07791477,2.1068976,-6.622362,2.7581203
0.09632803,4.9660063,-0.88631123,0.2626445,0.07791477,2.1068976,-6.622362,2.7581203
0.09646619,4.9650097,-1.014143,0.27968872,0.19296333,1.8866309,-6.895301,2.719813
0.09660364,4.964018,-1.014143,0.27968872,0.19296333,1.8866309,-6.895301,2.719813
0.09705846,4.961946,-1.1249305,0.2892761,0.29948977,1.7621324,-7.1969705,2.743755
0.09710767,4.9617224,-1.1249305,0.2892761,0.29948977,1.7621324,-7.1969705,2.743755
0.0974205,4.9606113,-1.2186737,0.29353717,0.3974941,1.6950948,-7.4986396,2.7629087
0.09775532,4.9594226,-1.2186737,0.29353717,0.3974941,1.6950948,-7.4986396,2.7629087
0.09856173,4.956978,-1.2996339,0.29353717,0.48591104,1.6041151,-7.8912888,2.801216
0.098650604,4.9567084,-1.2996339,0.29353717,0.48591104,1.6041151,-7.8912888,2.801216
0.099082336,4.955546,-1.364615,0.2924719,0.5658059,1.484405,-8.149862,2.8107927
0.099582866,4.954199,-1.364615,0.2924719,0.5658059,1.484405,-8.149862,2.8107927
0.10014556,4.952815,-1.4136171,0.29034138,0.6371786,1.3359646,-8.384495,2.7724855
0.100709654,4.9514284,-1.4136171,0.29034138,0.6371786,1.3359646,-8.384495,2.7724855
0.10133524,4.9500065,-1.4487709,0.2860803,0.70215976,1.1013328,-8.528147,2.7102363
0.10196044,4.948587,-1.4487709,0.2860803,0.70215976,1.1013328,-8.528147,2.7102363
0.10263545,4.9471407,-1.473272,0.27968872,0.7564882,0.93852705,-8.686164,2.6431987
0.10331072,4.945695,-1.473272,0.27968872,0.7564882,0.93852705,-8.686164,2.6431987
0.10402839,4.9442306,-1.4881856,0.2711666,0.8054904,0.8571242,-8.762778,2.542642
0.10474632,4.942767,-1.4881856,0.2711666,0.8054904,0.8571242,-8.762778,2.542642
