Pitch,Roll,Gyro_X,Gyro_Y,Gyro_Z,Accel_X,Accel_Y,Accel_Z
6.193279,4.7530766,2.009401,-0.78868484,-0.5689599,-0.05746084,-9.911995,0.05746084
6.1928415,4.754821,2.009401,-0.78868484,-0.5689599,-0.05746084,-9.911995,0.05746084
6.1923337,4.7567277,2.041359,-0.7897501,-0.61050516,-0.019153614,-9.825804,0.1388637
6.1918187,4.7586517,2.041359,-0.7897501,-0.61050516,-0.019153614,-9.825804,0.1388637
6.1918187,4.7586517,2.041359,-0.7897501,-0.61050516,-0.019153614,-9.825804,0.1388637
6.190348,4.763748,2.0924916,-0.7897501,-0.69146526,0.090979666,-9.758766,0.34476504
6.1901255,4.764495,2.0924916,-0.7897501,-0.69146526,0.090979666,-9.758766,0.34476504
6.189495,4.766601,2.0924916,-0.7897501,-0.69146526,0.090979666,-9.758766,0.34476504
6.188889,4.768534,2.118058,-0.78868484,-0.73194534,0.1436521,-9.868899,0.4261679
6.1882586,4.7705326,2.118058,-0.78868484,-0.73194534,0.1436521,-9.868899,0.4261679
6.187575,4.772627,2.1414938,-0.7865543,-0.77029485,0.29688102,-9.921572,0.56982
6.1869082,4.77466,2.1414938,-0.7865543,-0.77029485,0.29688102,-9.921572,0.56982
6.1861844,4.77679,2.165995,-0.78442377,-0.80438334,0.1436521,-10.103531,0.8714894
6.1854606,4.778917,2.165995,-0.78442377,-0.80438334,0.1436521,-10.103531,0.8714894
6.184704,4.7810683,2.1936917,-0.7780322,-0.83634126,0.17717093,-10.223241,0.93852705
6.183942,4.783234,2.1936917,-0.7780322,-0.83634126,0.17717093,-10.223241,0.93852705
6.183128,4.7854586,2.2267148,-0.76951003,-0.86297286,0.15322891,-10.462662,1.2880806
6.1823187,4.787669,2.2267148,-0.76951003,-0.86297286,0.15322891,-10.462662,1.2880806
6.181464,4.789944,2.2661297,-0.7577922,-0.8864087,0.2633622,-10.783484,1.5035586
6.180614,4.7922077,2.2661297,-0.7577922,-0.8864087,0.2633622,-10.783484,1.5035586
6.17975,4.7945147,2.3119361,-0.7471395,-0.9066487,0.10055647,-10.812215,1.5466543
6.1788855,4.7968225,2.3119361,-0.7471395,-0.9066487,0.10055647,-10.812215,1.5466543
6.1780076,4.7991757,2.359873,-0.73861736,-0.9226277,0.11492168,-10.70687,1.508347
6.17713,4.801529,2.359873,-0.73861736,-0.9226277,0.11492168,-10.70687,1.508347
6.1762424,4.8039284,2.40781,-0.73435634,-0.9300845,0.17238252,-10.6877165,1.541866
6.175355,4.806328,2.40781,-0.73435634,-0.9300845,0.17238252,-10.6877165,1.541866
6.1744623,4.808779,2.4578774,-0.73435634,-0.93221503,0.1436521,-10.548853,1.5897499
6.17357,4.811227,2.4578774,-0.73435634,-0.93221503,0.1436521,-10.548853,1.5897499
6.1726646,4.813733,2.5100753,-0.74287844,-0.9343456,0.272939,-10.510546,1.6519991
6.1717625,4.816232,2.5100753,-0.74287844,-0.9343456,0.272939,-10.510546,1.6519991
6.1708555,4.8187885,2.5665343,-0.75459635,-0.9364761,0.17238252,-10.539276,1.7142484
6.16995,4.821343,2.5665343,-0.75459635,-0.9364761,0.17238252,-10.539276,1.7142484
6.169022,4.824007,2.6272542,-0.77057534,-0.9364761,0.22505496,-10.572795,1.7429788
6.1681275,4.8265743,2.6272542,-0.77057534,-0.9364761,0.22505496,-10.572795,1.7429788
6.1672144,4.8292475,2.6922355,-0.78761953,-0.93541086,0.2873042,-10.6398325,1.7764976
6.1663013,4.8319206,2.6922355,-0.78761953,-0.93541086,0.2873042,-10.6398325,1.7764976
6.165375,4.834672,2.7636082,-0.80572903,-0.9364761,0.5506664,-10.534488,1.7142484
6.164456,4.837406,2.7636082,-0.80572903,-0.9364761,0.5506664,-10.534488,1.7142484
6.1635413,4.840216,2.8371115,-0.8195775,-0.9343456,0.4261679,-10.414778,1.6663644
6.16263,4.8430176,2.8371115,-0.8195775,-0.9343456,0.4261679,-10.414778,1.6663644
6.1617317,4.84587,2.9106147,-0.8344912,-0.9290193,0.17238252,-10.0987425,1.5466543
6.1608334,4.8487186,2.9106147,-0.8344912,-0.9290193,0.17238252,-10.0987425,1.5466543
6.1599283,4.851643,2.979857,-0.85686177,-0.9268887,0.59855044,-10.295067,1.5705963
6.159024,4.8545613,2.979857,-0.85686177,-0.9268887,0.59855044,-10.295067,1.5705963
6.157857,4.857473,3.0469685,-0.88029754,-0.9226277,1.484405,-9.390059,1.2593501
6.1566925,4.8603787,3.0469685,-0.88029754,-0.9226277,1.484405,-9.390059,1.2593501
6.1557856,4.863347,3.1012971,-0.8909502,-0.9130403,0.7757214,-9.174581,1.2401965
6.1539426,4.8692966,3.1364508,-0.8749712,-0.89066976,0.7278373,-9.308656,1.0486604
6.1539426,4.8692966,3.1364508,-0.8749712,-0.89066976,0.7278373,-9.308656,1.0486604
6.1530156,4.872259,3.1364508,-0.8749712,-0.89066976,0.7278373,-9.308656,1.0486604
6.1520443,4.8752327,3.169474,-0.8771018,-0.8736255,0.8619126,-9.002198,0.46926352
6.1510806,4.8781757,3.169474,-0.8771018,-0.8736255,0.8619126,-9.002198,0.46926352
6.1500525,4.8811746,3.1961055,-0.8930807,-0.86084235,1.4987702,-8.274361,-0.062249243
6.149026,4.8841667,3.1961055,-0.8930807,-0.86084235,1.4987702,-8.274361,-0.062249243
6.1479836,4.8871684,3.201432,-0.8994723,-0.8501897,1.8579005,-7.321469,-0.50278234
6.1469393,4.8901696,3.201432,-0.8994723,-0.8501897,1.8579005,-7.321469,-0.50278234
6.1458964,4.8931446,3.1737351,-0.8952113,-0.8374065,2.030283,-6.6079965,-0.7134721
6.144852,4.896119,3.1737351,-0.8952113,-0.8374065,2.030283,-6.6079965,-0.7134721
6.143824,4.8990316,3.1098192,-0.87390596,-0.82036227,1.9536686,-6.05733,-0.7134721
6.142797,4.9019384,3.1098192,-0.87390596,-0.82036227,1.9536686,-6.05733,-0.7134721
6.141775,4.904766,3.0118148,-0.84407854,-0.80225277,2.0590134,-5.650316,-0.59855044
6.140754,4.907587,3.0118148,-0.84407854,-0.80225277,2.0590134,-5.650316,-0.59855044
6.139746,4.9102936,2.887179,-0.81105536,-0.78201276,2.0925324,-5.353435,-0.38307226
6.138738,4.9129963,2.887179,-0.81105536,-0.78201276,2.0925324,-5.353435,-0.38307226
6.1377378,4.915572,2.7391071,-0.7759016,-0.7575117,2.2840683,-5.0996494,-0.1436521
6.136738,4.9181447,2.7391071,-0.7759016,-0.7575117,2.2840683,-5.0996494,-0.1436521
6.135757,4.9205666,2.5729258,-0.7354216,-0.7308801,2.2840683,-4.975151,0.17238252
6.1347737,4.9229927,2.5729258,-0.7354216,-0.7308801,2.2840683,-4.975151,0.17238252
6.1338105,4.9252663,2.3939614,-0.69174576,-0.7021179,2.384625,-4.841076,0.51714754
6.132847,4.927539,2.3939614,-0.69174576,-0.7021179,2.384625,-4.841076,0.51714754
6.1319146,4.9296427,2.2075403,-0.6459394,-0.67335576,2.4037786,-4.8602295,0.6943185
6.1309824,4.931743,2.2075403,-0.6459394,-0.67335576,2.4037786,-4.8602295,0.6943185
6.130089,4.9336724,2.0168579,-0.5958719,-0.64139783,2.5330653,-4.8698063,0.8571242
6.1291795,4.9356313,2.0168579,-0.5958719,-0.64139783,2.5330653,-4.8698063,0.8571242
6.1283355,4.937365,1.8229797,-0.54260874,-0.60624415,2.6144683,-4.8841715,0.92416185
6.127487,4.939105,1.8229797,-0.54260874,-0.60624415,2.6144683,-4.8841715,0.92416185
6.126686,4.940679,1.6301668,-0.4840192,-0.56576407,2.657564,-4.9320555,1.091756
6.125886,4.942251,1.6301668,-0.4840192,-0.56576407,2.657564,-4.9320555,1.091756
6.125143,4.943632,1.4394845,-0.4232991,-0.521023,2.6240451,-5.12838,1.0630256
6.124398,4.945015,1.4394845,-0.4232991,-0.521023,2.6240451,-5.12838,1.0630256
6.1236973,4.946242,1.2530632,-0.36257905,-0.47415134,2.6001031,-5.1810527,1.0151415
6.1230288,4.9474115,1.2530632,-0.36257905,-0.47415134,2.6001031,-5.1810527,1.0151415
6.122408,4.948428,1.0751641,-0.3039895,-0.42514917,2.6048915,-5.0996494,0.90979666
6.121786,4.949447,1.0751641,-0.3039895,-0.42514917,2.6048915,-5.0996494,0.90979666
6.121231,4.9502916,0.8993954,-0.24326941,-0.3729512,2.6910827,-4.9559975,0.79008657
6.1206756,4.9511366,0.8993954,-0.24326941,-0.3729512,2.6910827,-4.9559975,0.79008657
6.1201878,4.951824,0.72469205,-0.17828828,-0.3164922,2.8921957,-4.9416323,0.89064306
6.1196995,4.952512,0.72469205,-0.17828828,-0.3164922,2.8921957,-4.9416323,0.89064306
6.1192827,4.9530344,0.5457276,-0.1058503,-0.2600332,2.8491,-4.9799395,0.9864111
6.118866,4.9535575,0.5457276,-0.1058503,-0.2600332,2.8491,-4.9799395,0.9864111
6.118521,4.9539204,0.36569792,-0.030216524,-0.20357417,2.7389667,-5.0661306,1.163582
6.1181765,4.9542828,0.36569792,-0.030216524,-0.20357417,2.7389667,-5.0661306,1.163582
6.117905,4.9544854,0.18460296,0.046482515,-0.14818041,2.791639,-5.0182467,1.3072342
6.1176333,4.9546885,0.18460296,0.046482515,-0.14818041,2.791639,-5.0182467,1.3072342
6.1174355,4.9547157,0.0013774727,0.12211629,-0.09065613,2.8060043,-4.7405195,1.2066777
6.1172376,4.9547434,0.0013774727,0.12211629,-0.09065613,2.8060043,-4.7405195,1.2066777
6.117111,4.9545903,-0.19356592,0.1998806,-0.037392907,2.96881,-4.4963107,1.2162545
6.116985,4.9544373,-0.19356592,0.1998806,-0.037392907,2.96881,-4.4963107,1.2162545
6.1169257,4.9540796,-0.4044883,0.2808407,0.0126745235,2.8682537,-4.4915223,1.1348516
6.116866,4.9537215,-0.4044883,0.2808407,0.0126745235,2.8682537,-4.4915223,1.1348516
6.1168737,4.953152,-0.6292591,0.36393133,0.06167669,2.6431987,-4.5058875,1.13964
6.116881,4.952582,-0.6292591,0.36393133,0.06167669,2.6431987,-4.5058875,1.13964
6.1169553,4.951789,-0.8678783,0.44808722,0.10961359,2.542642,-4.4675803,1.1683705
6.117029,4.9509954,-0.8678783,0.44808722,0.10961359,2.542642,-4.4675803,1.1683705
6.117164,4.949949,-1.1192807,0.53224313,0.15328944,2.4468741,-4.4580035,0.9864111
6.117298,4.9489036,-1.1192807,0.53224313,0.15328944,2.4468741,-4.4580035,0.9864111
6.117494,4.9475927,-1.3813357,0.6142685,0.19590001,2.360683,-4.453215,0.82360536
6.1179724,4.944553,-1.6519129,0.6973591,0.2385106,2.135628,-4.55856,0.7565677
6.1179724,4.944553,-1.6519129,0.6973591,0.2385106,2.135628,-4.55856,0.7565677
6.11845,4.9417777,-1.929947,0.7772539,0.27899063,1.8818425,-4.7788267,0.78529817
6.11845,4.9417777,-1.929947,0.7772539,0.27899063,1.8818425,-4.7788267,0.78529817
6.11845,4.9417777,-1.929947,0.7772539,0.27899063,1.8818425,-4.7788267,0.78529817
6.119414,4.936157,-2.2069159,0.85182244,0.31734017,1.532289,-5.195418,0.78050977
6.1196485,4.9348655,-2.2069159,0.85182244,0.31734017,1.532289,-5.195418,0.78050977
6.1196485,4.9348655,-2.2069159,0.85182244,0.31734017,1.532289,-5.195418,0.78050977
6.1196485,4.9348655,-2.2069159,0.85182244,0.31734017,1.532289,-5.195418,0.78050977
6.1213837,4.9255652,-2.74807,0.97858894,0.39297393,1.4413095,-5.7748146,0.92895025
6.1213837,4.9255652,-2.74807,0.97858894,0.39297393,1.4413095,-5.7748146,0.92895025
6.12194,4.9225035,-2.74807,0.97858894,0.39297393,1.4413095,-5.7748146,0.92895025
6.122863,4.917127,-3.2412875,1.0861806,0.44836769,1.7286136,-6.291962,1.2018893
6.122863,4.917127,-3.2412875,1.0861806,0.44836769,1.7286136,-6.291962,1.2018893
6.122863,4.917127,-3.2412875,1.0861806,0.44836769,1.7286136,-6.291962,1.2018893
6.1248436,4.9071207,-3.4532752,1.1330522,0.4387803,1.0342951,-6.943185,0.8571242
6.125329,4.9046416,-3.4532752,1.1330522,0.4387803,1.0342951,-6.943185,0.8571242
6.125996,4.9012194,-3.4532752,1.1330522,0.4387803,1.0342951,-6.943185,0.8571242
6.126892,4.8965793,-3.7962904,1.1980335,0.39190868,0.4261679,-8.169016,0.79966336
6.127513,4.8932853,-3.7962904,1.1980335,0.39190868,0.4261679,-8.169016,0.79966336
6.1278505,4.8914905,-3.7962904,1.1980335,0.39190868,0.4261679,-8.169016,0.79966336
6.1285377,4.887691,-3.9369051,1.2150776,0.381256,0.12928689,-8.643068,0.7086837
6.1293087,4.88341,-3.9369051,1.2150776,0.381256,0.12928689,-8.643068,0.7086837
6.1299386,4.8797936,-4.05728,1.2214692,0.381256,-0.047884032,-9.030929,0.59855044
6.130617,4.8758817,-4.05728,1.2214692,0.381256,-0.047884032,-9.030929,0.59855044
6.131332,4.8716035,-4.1648717,1.2172081,0.38977814,0.05746084,-9.308656,0.48841715
6.1320076,4.8675413,-4.1648717,1.2172081,0.38977814,0.05746084,-9.308656,0.48841715
6.1326847,4.863368,-4.2639413,1.2076207,0.4057571,0.19632454,-9.414001,0.3878607
6.133771,4.856673,-4.35875,1.2012292,0.43451926,0.33039984,-9.548077,0.39264908
6.133771,4.856673,-4.35875,1.2012292,0.43451926,0.33039984,-9.548077,0.39264908
6.133771,4.856673,-4.35875,1.2012292,0.43451926,0.33039984,-9.548077,0.39264908
6.135666,4.8448715,-4.452493,1.2012292,0.47073823,0.44532153,-9.600749,0.34476504
6.1363792,4.8404813,-4.452493,1.2012292,0.47073823,0.44532153,-9.600749,0.34476504
6.1368647,4.83759,-4.539845,1.2022945,0.510153,0.35913026,-9.591172,0.29688102
6.1376314,4.8330073,-4.539845,1.2022945,0.510153,0.35913026,-9.591172,0.29688102
6.138429,4.8284626,-4.617609,1.2054902,0.55489415,0.11492168,-9.662998,0.22984336
6.1392026,4.8240414,-4.617609,1.2054902,0.55489415,0.11492168,-9.662998,0.22984336
6.1400533,4.819392,-4.6879168,1.2054902,0.6049616,-0.019153614,-9.80665,0.18674773
6.140867,4.814929,-4.6879168,1.2054902,0.6049616,-0.019153614,-9.80665,0.18674773
6.141749,4.8103113,-4.746506,1.1980335,0.65822476,0.033518825,-9.80665,0.23942018
6.1426344,4.8056583,-4.746506,1.1980335,0.65822476,0.033518825,-9.80665,0.23942018
6.144477,4.796246,-4.7923126,1.1831197,0.7136185,0.07182605,-9.706094,0.033518825
6.144477,4.796246,-4.7923126,1.1831197,0.7136185,0.07182605,-9.706094,0.033518825
6.145427,4.791594,-4.8210745,1.1671407,0.7690123,0.19632454,-9.739613,0.07182605
6.1464024,4.786811,-4.8210745,1.1671407,0.7690123,0.19632454,-9.739613,0.07182605
6.147422,4.782002,-4.8306623,1.152227,0.8222755,0.25857377,-9.911995,0.0047884034
6.148413,4.7773185,-4.8306623,1.152227,0.8222755,0.25857377,-9.911995,0.0047884034
6.149461,4.772595,-4.82214,1.1373134,0.8734082,0.21547815,-10.0748005,-0.033518825
6.150502,4.767892,-4.82214,1.1373134,0.8734082,0.21547815,-10.0748005,-0.033518825
6.151601,4.763176,-4.793378,1.1213343,0.9234756,0.19153613,-10.290278,-0.033518825
6.151601,4.763176,-4.793378,1.1213343,0.9234756,0.19153613,-10.290278,-0.033518825
6.151601,4.763176,-4.793378,1.1213343,0.9234756,0.19153613,-10.290278,-0.033518825
6.151601,4.763176,-4.793378,1.1213343,0.9234756,0.19153613,-10.290278,-0.033518825
6.151601,4.763176,-4.793378,1.1213343,0.9234756,0.19153613,-10.290278,-0.033518825
6.151601,4.763176,-4.793378,1.1213343,0.9234756,0.19153613,-10.290278,-0.033518825
6.158537,4.732966,-4.793378,1.1213343,0.9234756,0.19153613,-10.290278,-0.033518825
6.1598167,4.728154,-4.624001,1.0765933,1.0513073,0.20111294,-10.821792,-0.090979666
6.160899,4.7242603,-4.547302,1.0616796,1.0917875,0.090979666,-10.955867,-0.18674773
6.1616726,4.7214727,-4.547302,1.0616796,1.0917875,0.090979666,-10.955867,-0.18674773
6.1616726,4.7214727,-4.547302,1.0616796,1.0917875,0.090979666,-10.955867,-0.18674773
6.165009,4.7105103,-4.3811207,1.0243952,1.170617,-0.04309563,-11.180922,-0.2777274
6.1668963,4.704302,-4.3811207,1.0243952,1.170617,-0.04309563,-11.180922,-0.2777274
6.1668963,4.704302,-4.3811207,1.0243952,1.170617,-0.04309563,-11.180922,-0.2777274
6.1682277,4.7001195,-4.2969646,1.00309,1.2089665,-0.12928689,-11.267113,-0.30645782
6.1695595,4.695927,-4.2969646,1.00309,1.2089665,-0.12928689,-11.267113,-0.30645782
6.1709266,4.6918125,-4.209613,0.98284996,1.247316,-0.1388637,-11.343728,-0.38307226
6.1722894,4.687705,-4.209613,0.98284996,1.247316,-0.1388637,-11.343728,-0.38307226
6.173687,4.683679,-4.1243916,0.9594142,1.2846003,-0.1388637,-11.415554,-0.39743748
6.1750813,4.679657,-4.1243916,0.9594142,1.2846003,-0.1388637,-11.415554,-0.39743748
6.176508,4.675716,-4.035975,0.93597835,1.3186888,-0.22984336,-11.506534,-0.45010993
6.1779294,4.6717815,-4.035975,0.93597835,1.3186888,-0.22984336,-11.506534,-0.45010993
6.179382,4.6679287,-3.943297,0.9136078,1.3495814,-0.33997664,-11.563994,-0.51714754
6.1808243,4.6640935,-3.943297,0.9136078,1.3495814,-0.33997664,-11.563994,-0.51714754
6.182291,4.6603465,-3.8484883,0.8923025,1.3751478,-0.35434186,-11.583148,-0.5602432
6.1837554,4.656599,-3.8484883,0.8923025,1.3751478,-0.35434186,-11.583148,-0.5602432
6.1852355,4.6529536,-3.7526145,0.8709972,1.396453,-0.4165911,-11.626244,-0.58418524
6.1867175,4.6492963,-3.7526145,0.8709972,1.396453,-0.4165911,-11.626244,-0.58418524
6.1882095,4.6457496,-3.6546102,0.8507572,1.4145626,-0.4357447,-11.674128,-0.62249243
6.1897025,4.642191,-3.6546102,0.8507572,1.4145626,-0.4357447,-11.674128,-0.62249243
6.1911955,4.6387563,-3.5523448,0.8294519,1.4252152,-0.46447513,-11.894394,-0.5506664
6.1926894,4.63531,-3.5523448,0.8294519,1.4252152,-0.46447513,-11.894394,-0.5506664
6.19418,4.6319776,-3.4490142,0.8060161,1.4294763,-0.59855044,-12.061988,-0.48841715
6.1956625,4.6286535,-3.4490142,0.8060161,1.4294763,-0.59855044,-12.061988,-0.48841715
6.197141,4.6254287,-3.3414223,0.78044975,1.4262805,-0.6560113,-12.239159,-0.3878607
6.1986117,4.622212,-3.3414223,0.78044975,1.4262805,-0.6560113,-12.239159,-0.3878607
6.200073,4.619113,-3.2274392,0.7548834,1.4209541,-0.8571242,-12.454638,-0.34476504
6.2015343,4.6160026,-3.2274392,0.7548834,1.4209541,-0.8571242,-12.454638,-0.34476504
6.202984,4.6130137,-3.1081295,0.72612125,1.4134973,-0.91458505,-12.799402,-0.25857377
6.2044244,4.6100345,-3.1081295,0.72612125,1.4134973,-0.91458505,-12.799402,-0.25857377
6.20586,4.6071734,-2.9824283,0.6952286,1.4060404,-1.1587936,-12.952631,-0.21547815
6.2072916,4.604313,-2.9824283,0.6952286,1.4060404,-1.1587936,-12.952631,-0.21547815
6.208718,4.6015773,-2.8503354,0.65687907,1.3975183,-1.091756,-13.13459,-0.25378537
6.210134,4.5988526,-2.8503354,0.65687907,1.3975183,-1.091756,-13.13459,-0.25378537
6.211536,4.5962605,-2.7129164,0.6142685,1.3826046,-1.0247183,-13.417107,-0.20590134
6.2129364,4.593663,-2.7129164,0.6142685,1.3826046,-1.0247183,-13.417107,-0.20590134
6.2143197,4.591218,-2.5648446,0.5695274,1.3644952,-1.2545617,-13.584701,-0.19632454
6.215705,4.588763,-2.5648446,0.5695274,1.3644952,-1.2545617,-13.584701,-0.19632454
6.2170644,4.5864706,-2.409316,0.51626414,1.3431898,-1.1683705,-13.713987,-0.1340753
6.218438,4.5841484,-2.409316,0.51626414,1.3431898,-1.1683705,-13.713987,-0.1340753
6.219762,4.582035,-2.2442,0.45341355,1.3176235,-1.13964,-13.776237,-0.10055647
6.221091,4.579909,-2.2442,0.45341355,1.3176235,-1.13964,-13.776237,-0.10055647
6.2223997,4.5779467,-2.0716271,0.3937587,1.2899266,-1.3024458,-13.9917145,0.019153614
6.223712,4.575977,-2.0716271,0.3937587,1.2899266,-1.3024458,-13.9917145,0.019153614
6.2249928,4.5741973,-1.8862711,0.33090812,1.2579687,-1.436521,-14.077906,0.10534488
6.226273,4.572416,-1.8862711,0.33090812,1.2579687,-1.436521,-14.077906,0.10534488
6.2275243,4.570824,-1.6913277,0.2595354,1.2206844,-1.3599066,-14.207192,0.07182605
6.2287707,4.569237,-1.6913277,0.2595354,1.2206844,-1.3599066,-14.207192,0.07182605
6.2299867,4.567843,-1.486797,0.18496689,1.1780739,-1.2210429,-14.269443,0.14844051
6.2311954,4.566456,-1.486797,0.18496689,1.1780739,-1.2210429,-14.269443,0.14844051
6.2323685,4.5652776,-1.2726789,0.10933312,1.1312022,-1.1587936,-14.389153,0.10055647
6.2335434,4.5640955,-1.2726789,0.10933312,1.1312022,-1.1587936,-14.389153,0.10055647
6.2346735,4.5631366,-1.0511038,0.03369934,1.0811348,-1.1971009,-14.4130945,0.11492168
6.2358007,4.5621796,-1.0511038,0.03369934,1.0811348,-1.1971009,-14.4130945,0.11492168
6.236893,4.5614405,-0.8242025,-0.041934434,1.0268062,-1.2258313,-14.317327,0.02873042
6.237986,4.5607004,-0.8242025,-0.041934434,1.0268062,-1.2258313,-14.317327,0.02873042
6.239033,4.56019,-0.59197485,-0.11650295,0.97141254,-1.2162545,-14.221559,-0.02873042
6.2400804,4.55968,-0.59197485,-0.11650295,0.97141254,-1.2162545,-14.221559,-0.02873042
6.241079,4.5594,-0.35868192,-0.19213672,0.91069245,-1.2258313,-14.192827,-0.01436521
6.2420745,4.5591207,-0.35868192,-0.19213672,0.91069245,-1.2258313,-14.192827,-0.01436521
6.243024,4.5590734,-0.1221932,-0.26670524,0.84784186,-1.2880806,-14.178462,0.0047884034
6.2439713,4.5590267,-0.1221932,-0.26670524,0.84784186,-1.2880806,-14.178462,0.0047884034
6.2448664,4.559215,0.116426036,-0.34127375,0.7828607,-1.3263878,-14.173674,-0.0047884034
6.245762,4.5594034,0.116426036,-0.34127375,0.7828607,-1.3263878,-14.173674,-0.0047884034
6.246601,4.5598288,0.35611054,-0.41584226,0.7157491,-1.3742718,-14.221559,0.062249243
6.2474403,4.5602546,0.35611054,-0.41584226,0.7157491,-1.3742718,-14.221559,0.062249243
6.2482257,4.5609207,0.6000561,-0.4925413,0.64970267,-1.4269443,-14.168885,0.06703765
6.249011,4.5615864,0.6000561,-0.4925413,0.64970267,-1.4269443,-14.168885,0.06703765
6.2497425,4.5624948,0.84613216,-0.5681751,0.58152574,-1.4748282,-14.092271,0.019153614
6.250476,4.563406,0.84613216,-0.5681751,0.58152574,-1.4748282,-14.092271,0.019153614
6.2511525,4.564562,1.095404,-0.64380884,0.5144141,-1.436521,-14.097059,-0.047884032
6.251829,4.5657187,1.095404,-0.64380884,0.5144141,-1.436521,-14.097059,-0.047884032
6.2524524,4.5671215,1.3446759,-0.7194426,0.44623715,-1.460463,-14.073117,-0.15322891
6.253073,4.5685196,1.3446759,-0.7194426,0.44623715,-1.460463,-14.073117,-0.15322891
6.253642,4.5701694,1.5939479,-0.79507643,0.37486443,-1.4700398,-14.020445,-0.33039984
6.2542095,4.5718174,1.5939479,-0.79507643,0.37486443,-1.4700398,-14.020445,-0.33039984
6.2547255,4.573703,1.8410891,-0.8707102,0.3077528,-1.5227122,-13.833697,-0.46447513
6.255242,4.5755906,1.8410891,-0.8707102,0.3077528,-1.5227122,-13.833697,-0.46447513
6.25572,4.577772,2.0871654,-0.94421345,0.24170639,-1.6424223,-13.64695,-0.5602432
6.256174,4.5798454,2.0871654,-0.94421345,0.24170639,-1.6424223,-13.64695,-0.5602432
6.256587,4.582203,2.3268497,-1.0187819,0.17352946,-1.7764976,-13.464991,-0.641646
6.2569995,4.5845633,2.3268497,-1.0187819,0.17352946,-1.7764976,-13.464991,-0.641646
6.2577195,4.5897694,2.5622733,-1.0944157,0.10854833,-1.8818425,-13.326127,-0.6703765
6.2577195,4.5897694,2.5622733,-1.0944157,0.10854833,-1.8818425,-13.326127,-0.6703765
6.2580185,4.5925694,2.7923703,-1.1732453,0.044632457,-1.8866309,-13.211205,-0.62728083
6.258317,4.5953856,2.7923703,-1.1732453,0.044632457,-1.8866309,-13.211205,-0.62728083
6.2585554,4.598403,3.0182064,-1.2552706,-0.02141394,-1.910573,-13.096283,-0.60333884
6.2587924,4.601432,3.0182064,-1.2552706,-0.02141394,-1.910573,-13.096283,-0.60333884
6.2589726,4.6046767,3.2397814,-1.3351655,-0.08532981,-1.8914193,-12.842498,-0.61291564
6.259151,4.607927,3.2397814,-1.3351655,-0.08532981,-1.8914193,-12.842498,-0.61291564
6.25928,4.6113844,3.4538996,-1.4118645,-0.14391935,-1.8818425,-12.641385,-0.7422025
6.259406,4.614833,3.4538996,-1.4118645,-0.14391935,-1.8818425,-12.641385,-0.7422025
6.259406,4.614833,3.4538996,-1.4118645,-0.14391935,-1.8818425,-12.641385,-0.7422025
6.259406,4.614833,3.4538996,-1.4118645,-0.14391935,-1.8818425,-12.641385,-0.7422025
6.259406,4.614833,3.850178,-1.5514141,-0.26642478,-1.9488802,-12.363658,-0.7661445
6.259429,4.631859,3.850178,-1.5514141,-0.26642478,-1.9488802,-12.363658,-0.7661445
6.259429,4.631859,3.850178,-1.5514141,-0.26642478,-1.958457,-12.162544,-0.8523358
6.259333,4.638177,4.035534,-1.6163954,-0.32501432,-1.958457,-12.162544,-0.8523358
6.259333,4.638177,4.035534,-1.6163954,-0.32501432,-1.958457,-12.162544,-0.8523358
6.259333,4.638177,4.035534,-1.6163954,-0.32501432,-1.958457,-12.162544,-0.8523358
6.259333,4.638177,4.035534,-1.6163954,-0.32501432,-1.958457,-12.162544,-0.8523358
6.259333,4.638177,4.035534,-1.6163954,-0.32501432,-1.958457,-12.162544,-0.8523358
6.2579665,4.6632743,4.5287514,-1.7857723,-0.49439135,-2.0207062,-11.803414,-0.9959879
6.2577696,4.6665015,4.5287514,-1.7857723,-0.49439135,-2.0207062,-11.803414,-0.9959879
6.2577696,4.6665015,4.5287514,-1.7857723,-0.49439135,-2.0207062,-11.803414,-0.9959879
6.2577696,4.6665015,4.5287514,-1.7857723,-0.49439135,-2.0207062,-11.803414,-0.9959879
6.2577696,4.6665015,4.5287514,-1.7857723,-0.49439135,-2.0207062,-11.803414,-0.9959879
6.2577696,4.6665015,4.5287514,-1.7857723,-0.49439135,-2.0207062,-11.803414,-0.9959879
6.256283,4.68893,4.917573,-1.9295831,-0.64885473,-1.7717092,-11.382035,-0.90021986
6.2556853,4.6949544,4.917573,-1.9295831,-0.64885473,-1.7717092,-11.382035,-0.90021986
6.25486,4.7024546,5.027295,-1.9636716,-0.69785684,-1.5562311,-11.310209,-0.80924016
6.25466,4.704232,5.027295,-1.9636716,-0.69785684,-1.5562311,-11.310209,-0.80924016
6.254235,4.7077217,5.12743,-1.9977599,-0.7511201,-1.4221559,-11.152191,-0.7517793
6.254235,4.7077217,5.12743,-1.9977599,-0.7511201,-1.4221559,-11.152191,-0.7517793
6.254235,4.7077217,5.12743,-1.9977599,-0.7511201,-1.4221559,-11.152191,-0.7517793
6.254235,4.7077217,5.12743,-1.9977599,-0.7511201,-1.4221559,-11.152191,-0.7517793
6.2508783,4.7307386,5.294677,-2.0595453,-0.86084235,-1.4317327,-10.783484,-0.866701
6.2506723,4.732086,5.294677,-2.0595453,-0.86084235,-1.4317327,-10.783484,-0.866701
6.2506723,4.732086,5.294677,-2.0595453,-0.86084235,-1.4317327,-10.783484,-0.866701
6.248427,4.7462854,5.4118557,-2.1053517,-0.9609772,-1.2354081,-10.13705,-1.0726024
6.248427,4.7462854,5.4118557,-2.1053517,-0.9609772,-1.2354081,-10.13705,-1.0726024
6.248427,4.7462854,5.4118557,-2.1053517,-0.9609772,-1.2354081,-10.13705,-1.0726024
6.2455735,4.761875,5.4502053,-2.122396,-1.0099794,-1.1300632,-9.821015,-1.2737153
6.2445765,4.7669244,5.4502053,-2.122396,-1.0099794,-1.1300632,-9.821015,-1.2737153
6.24351,4.772024,5.474706,-2.1362443,-1.0579163,-0.9864111,-9.653421,-1.2737153
6.24299,4.774488,5.474706,-2.1362443,-1.0579163,-0.9864111,-9.653421,-1.2737153
6.24299,4.774488,5.474706,-2.1362443,-1.0579163,-0.9864111,-9.653421,-1.2737153
6.24299,4.774488,5.474706,-2.1362443,-1.0579163,-0.9864111,-9.653421,-1.2737153
6.24299,4.774488,5.474706,-2.1362443,-1.0579163,-0.9864111,-9.653421,-1.2737153
6.23734,4.798134,5.4715104,-2.1692677,-1.1569859,-0.45489833,-9.241618,-0.9720459
6.236446,4.80163,5.4512706,-2.1841812,-1.2091838,-0.50278234,-9.069236,-0.9624691
6.2352543,4.80626,5.4512706,-2.1841812,-1.2091838,-0.50278234,-9.069236,-0.9624691
6.2338414,4.811492,5.4203777,-2.1937687,-1.2571207,-0.545878,-8.901642,-0.9576807
6.232432,4.81667,5.4203777,-2.1937687,-1.2571207,-0.545878,-8.901642,-0.9576807
6.228578,4.830048,5.377767,-2.199095,-1.3050576,-0.49799395,-8.6574335,-0.8858546
6.228578,4.830048,5.377767,-2.199095,-1.3050576,-0.49799395,-8.6574335,-0.8858546
6.2247934,4.8423166,5.264849,-2.1884422,-1.3785609,-0.2681506,-8.408437,-0.59855044
6.2247934,4.8423166,5.264849,-2.1884422,-1.3785609,-0.2681506,-8.408437,-0.59855044
6.2247934,4.8423166,5.264849,-2.1884422,-1.3785609,-0.2681506,-8.408437,-0.59855044
6.2247934,4.8423166,5.264849,-2.1884422,-1.3785609,-0.2681506,-8.408437,-0.59855044
6.2247934,4.8423166,5.264849,-2.1884422,-1.3785609,-0.2681506,-8.408437,-0.59855044
6.2189755,4.860339,5.199868,-2.1767244,-1.4094535,-0.06703765,-8.432379,-0.48362875
6.218048,4.8630137,5.132756,-2.1596801,-1.4339546,-0.038307227,-8.465898,-0.29209262
6.2165875,4.867208,5.132756,-2.1596801,-1.4339546,-0.038307227,-8.465898,-0.29209262
6.214858,4.8720417,5.0656447,-2.13944,-1.4573904,-0.090979666,-8.523358,-0.18674773
6.213119,4.8768725,5.0656447,-2.13944,-1.4573904,-0.090979666,-8.523358,-0.18674773
6.2113447,4.8816442,4.9995985,-2.1192002,-1.4776305,0.0047884034,-8.322245,-0.22026655
6.2095504,4.886442,4.9995985,-2.1192002,-1.4776305,0.0047884034,-8.322245,-0.22026655
6.2077646,4.891117,4.926095,-2.0968297,-1.488283,-0.24899697,-7.675811,-0.61770403
6.2059703,4.89579,4.926095,-2.0968297,-1.488283,-0.24899697,-7.675811,-0.61770403
6.204077,4.9003887,4.843004,-2.0755243,-1.4925442,1.364695,-6.861782,-0.641646
6.202174,4.9049897,4.843004,-2.0755243,-1.4925442,1.364695,-6.861782,-0.641646
6.2002215,4.909506,4.7354126,-2.045697,-1.488283,1.8866309,-6.981492,0.2873042
6.1982627,4.9140186,4.7354126,-2.045697,-1.488283,1.8866309,-6.981492,0.2873042
6.196513,4.9183903,4.6086464,-1.9530189,-1.4584557,-0.80445176,-7.714118,-0.31124622
6.1947565,4.922759,4.6086464,-1.9530189,-1.4584557,-0.80445176,-7.714118,-0.31124622
6.1929674,4.9270144,4.4935975,-1.9199957,-1.4403462,-0.0047884034,-7.153875,-0.8571242
6.19117,4.9312716,4.4935975,-1.9199957,-1.4403462,-0.0047884034,-7.153875,-0.8571242
6.1892977,4.935394,4.378549,-1.9231914,-1.4286283,1.8722657,-6.1387334,-0.7374141
6.187414,4.939526,4.378549,-1.9231914,-1.4286283,1.8722657,-6.1387334,-0.7374141
6.1855254,4.94353,4.2358036,-1.8720587,-1.4019967,2.801216,-5.2624555,-0.7182605
6.183628,4.9475393,4.2358036,-1.8720587,-1.4019967,2.801216,-5.2624555,-0.7182605
6.1817784,4.951377,4.063231,-1.7729892,-1.366843,3.0933087,-4.189853,-1.0773908
6.179922,4.9552164,4.063231,-1.7729892,-1.366843,3.0933087,-4.189853,-1.0773908
6.1781244,4.9588647,3.8576348,-1.6419617,-1.3242323,3.4380736,-3.0693667,-1.3694834
6.176323,4.9625115,3.8576348,-1.6419617,-1.3242323,3.4380736,-3.0693667,-1.3694834
6.174598,4.965923,3.6104934,-1.490694,-1.2773607,3.4093432,-2.135628,-1.6567876
6.1728406,4.969391,3.6104934,-1.490694,-1.2773607,3.4093432,-2.135628,-1.6567876
6.171193,4.972531,3.3207414,-1.3287739,-1.2283586,3.5913026,-1.4077905,-1.7621324
6.1695423,4.9756703,3.3207414,-1.3287739,-1.2283586,3.5913026,-1.4077905,-1.7621324
6.167981,4.978506,2.9915748,-1.1583316,-1.1750953,3.4045548,-0.7469909,-1.7525556
6.1664157,4.9813433,2.9915748,-1.1583316,-1.1750953,3.4045548,-0.7469909,-1.7525556
6.1649613,4.983823,2.6240585,-0.9804324,-1.1143752,3.2321723,-0.30166942,-1.6519991
6.163504,4.986304,2.6240585,-0.9804324,-1.1143752,3.2321723,-0.30166942,-1.6519991
6.162156,4.988419,2.2267148,-0.8046638,-1.0472636,3.2848446,0.110133275,-1.508347
6.160807,4.990534,2.2267148,-0.8046638,-1.0472636,3.2848446,0.110133275,-1.508347
6.159575,4.9922585,1.8038049,-0.62889516,-0.9769561,3.394978,0.50757074,-1.2737153
6.1583424,4.9939833,1.8038049,-0.62889516,-0.9769561,3.394978,0.50757074,-1.2737153
6.1572323,4.9952965,1.3627855,-0.45206124,-0.9023876,3.5529952,0.7230489,-1.0486604
6.156124,4.996608,1.3627855,-0.45206124,-0.9023876,3.5529952,0.7230489,-1.0486604
6.1551414,4.9974933,0.905787,-0.26990104,-0.8214275,3.6248214,0.8762778,-0.90021986
6.154164,4.9983745,0.905787,-0.26990104,-0.8214275,3.6248214,0.8762778,-0.90021986
6.153319,4.9988103,0.43707064,-0.082414486,-0.73407584,3.7445314,0.81402856,-0.8714894
6.15247,4.999248,0.43707064,-0.082414486,-0.73407584,3.7445314,0.81402856,-0.8714894
6.1517634,4.9992275,-0.043363634,0.10826785,-0.6424631,3.7445314,0.63206923,-0.6799533
6.1510572,4.9992075,-0.043363634,0.10826785,-0.6424631,3.7445314,0.63206923,-0.6799533
6.1505,4.9987264,-0.5301895,0.29681966,-0.54765457,3.596091,0.24420857,-0.50757074
6.149938,4.9982424,-0.5301895,0.29681966,-0.54765457,3.596091,0.24420857,-0.50757074
6.149515,4.9973035,-1.0116891,0.48111042,-0.45284605,3.5290532,-0.17717093,-0.1388637
6.1490927,4.9963665,-1.0116891,0.48111042,-0.45284605,3.5290532,-0.17717093,-0.1388637
6.148807,4.9949737,-1.4878622,0.6579443,-0.35697225,3.4045548,-0.59855044,0.1388637
6.1485205,4.993583,-1.4878622,0.6579443,-0.35697225,3.4045548,-0.59855044,0.1388637
6.1483774,4.9917545,-1.9544481,0.8305172,-0.25790265,3.596091,-0.9624691,0.49799395
6.1482325,4.989926,-1.9544481,0.8305172,-0.25790265,3.596091,-0.9624691,0.49799395
6.148223,4.987664,-2.4082508,0.99882895,-0.16096358,3.4811692,-1.3455414,0.6560113
6.1482115,4.9854,-2.4082508,0.99882895,-0.16096358,3.4811692,-1.3455414,0.6560113
6.148332,4.9827194,-2.84927,1.1628797,-0.065089785,3.2034419,-1.8387469,0.8331822
6.1484494,4.9800463,-2.84927,1.1628797,-0.065089785,3.2034419,-1.8387469,0.8331822
6.1486897,4.976951,-3.2743108,1.3141472,0.02652296,2.791639,-2.2601264,0.90021986
6.148926,4.973862,-3.2743108,1.3141472,0.02652296,2.791639,-2.2601264,0.90021986
6.1492753,4.970392,-3.6801765,1.4494358,0.11067885,2.303222,-2.9592333,1.163582
6.14962,4.966923,-3.6801765,1.4494358,0.11067885,2.303222,-2.9592333,1.163582
6.1500874,4.9631047,-4.0668674,1.5687454,0.19696528,1.8579005,-3.8307228,1.5897499
6.1505504,4.9592867,-4.0668674,1.5687454,0.19696528,1.8579005,-3.8307228,1.5897499
6.1511574,4.9551406,-4.4290576,1.6731414,0.2896433,2.1499932,-4.3766007,2.5617957
6.1517572,4.9510026,-4.4290576,1.6731414,0.2896433,2.1499932,-4.3766007,2.5617957
6.152471,4.9465475,-4.749702,1.7594278,0.36527705,1.508347,-5.401319,2.528277
6.1531773,4.9421,-4.749702,1.7594278,0.36527705,1.508347,-5.401319,2.528277
6.153968,4.937391,-5.0202794,1.8254741,0.41534448,1.2497733,-6.3111157,2.8203697
6.1547503,4.932685,-5.0202794,1.8254741,0.41534448,1.2497733,-6.3111157,2.8203697
6.1556745,4.9277506,-5.246115,1.8787373,0.46221614,0.22505496,-7.666234,2.743755
6.156588,4.9228115,-5.246115,1.8787373,0.46221614,0.22505496,-7.666234,2.743755
6.157593,4.9176617,-5.4367976,1.9224132,0.5154793,-0.1388637,-8.6334915,2.6192567
6.158584,4.912518,-5.4367976,1.9224132,0.5154793,-0.1388637,-8.6334915,2.6192567
6.1596756,4.9071527,-5.600848,1.9479796,0.5868521,-0.90021986,-9.758766,2.4372973
6.160753,4.901805,-5.600848,1.9479796,0.5868521,-0.90021986,-9.758766,2.4372973
6.161913,4.8963056,-5.745724,1.9501101,0.67633426,-0.9768343,-10.649409,2.3175871
6.163064,4.8907976,-5.745724,1.9501101,0.67633426,-0.9768343,-10.649409,2.3175871
6.1643095,4.885146,-5.8746214,1.9277395,0.783926,-0.92416185,-11.219229,2.2266076
6.1655416,4.879509,-5.8746214,1.9277395,0.783926,-0.92416185,-11.219229,2.2266076
6.1668816,4.8737245,-5.9843435,1.8883247,0.9032356,-0.6991069,-11.841722,2.1499932
6.1682096,4.867949,-5.9843435,1.8883247,0.9032356,-0.6991069,-11.841722,2.1499932
6.1696377,4.8620863,-6.078087,1.8425183,1.025741,-0.6512229,-12.349293,2.2266076
6.1710553,4.856221,-6.078087,1.8425183,1.025741,-0.6512229,-12.349293,2.2266076
6.172571,4.8502836,-6.147329,1.796712,1.1439854,-0.5746084,-12.665327,2.2840683
6.174073,4.8443556,-6.147329,1.796712,1.1439854,-0.5746084,-12.665327,2.2840683
6.1756716,4.8383675,-6.1888742,1.7519709,1.2547729,-0.7565677,-12.89517,2.3223755
6.1772566,4.832388,-6.1888742,1.7519709,1.2547729,-0.7565677,-12.89517,2.3223755
6.178933,4.826384,-6.203788,1.7082951,1.3591688,-0.8619126,-13.029245,2.1212628
6.180602,4.8203707,-6.203788,1.7082951,1.3591688,-0.8619126,-13.029245,2.1212628
6.182353,4.8143682,-6.1888742,1.6646192,1.4561079,-0.91937345,-13.053187,2.006341
6.184092,4.8083687,-6.1888742,1.6646192,1.4561079,-0.91937345,-13.053187,2.006341
6.1859035,4.8024044,-6.143068,1.615617,1.5402638,-0.9768343,-13.043611,1.8626889
6.1877036,4.796442,-6.143068,1.615617,1.5402638,-0.9768343,-13.043611,1.8626889
6.1895633,4.7905455,-6.065304,1.5580928,1.6105713,-1.115698,-13.187263,1.7429788
6.1914115,4.7846513,-6.065304,1.5580928,1.6105713,-1.115698,-13.187263,1.7429788
6.193303,4.7788587,-5.95132,1.4973727,1.6638345,-1.2210429,-13.321339,1.6041151
6.195183,4.773074,-5.95132,1.4973727,1.6638345,-1.2210429,-13.321339,1.6041151
6.1970987,4.7674074,-5.80964,1.4334568,1.7053797,-1.2880806,-13.517663,1.436521
6.199003,4.7617483,-5.80964,1.4334568,1.7053797,-1.2880806,-13.517663,1.436521
6.200926,4.7562523,-5.6423936,1.3695409,1.7362725,-1.1444284,-13.718776,1.4077905
6.2105637,4.7298207,-5.237593,1.2417092,1.7756872,-0.9672575,-13.9917145,1.1779473
6.2105637,4.7298207,-5.237593,1.2417092,1.7756872,-0.9672575,-13.9917145,1.1779473
6.2105637,4.7298207,-5.237593,1.2417092,1.7756872,-0.9672575,-13.9917145,1.1779473
6.2105637,4.7298207,-5.237593,1.2417092,1.7756872,-0.9672575,-13.9917145,1.1779473
6.2105637,4.7298207,-5.237593,1.2417092,1.7756872,-0.9672575,-13.9917145,1.1779473
6.2105637,4.7298207,-5.237593,1.2417092,1.7756872,-0.9672575,-13.9917145,1.1779473
6.2154546,4.7174015,-5.0064306,1.1820544,1.7874051,-1.1252748,-14.18325,1.0103531
6.216399,4.7151165,-4.7635503,1.1192038,1.7948619,-1.2593501,-14.302961,0.866701
6.2184334,4.7101836,-4.7635503,1.1192038,1.7948619,-1.2593501,-14.302961,0.866701
6.220215,4.706095,-4.5110826,1.0510269,1.7980578,-1.283292,-14.42746,0.6368576
6.222324,4.7012377,-4.5110826,1.0510269,1.7980578,-1.283292,-14.42746,0.6368576
6.224043,4.697502,-4.2522235,0.9796542,1.7980578,-1.4269443,-14.470555,0.49799395
6.224043,4.697502,-4.2522235,0.9796542,1.7980578,-1.4269443,-14.470555,0.49799395
6.228952,4.6874547,-3.9901683,0.90615094,1.7969925,-1.5131354,-14.504074,0.33997664
6.229988,4.6853256,-3.9901683,0.90615094,1.7969925,-1.5131354,-14.504074,0.33997664
6.231683,4.6820726,-3.725983,0.8315824,1.7959272,-1.484405,-14.513651,0.272939
6.233558,4.678464,-3.725983,0.8315824,1.7959272,-1.484405,-14.513651,0.272939
6.2354198,4.6751337,-3.4639277,0.7591444,1.7948619,-1.7142484,-14.5088625,0.19632454
6.237299,4.6717634,-3.4639277,0.7591444,1.7948619,-1.7142484,-14.5088625,0.19632454
6.2391605,4.6686788,-3.202938,0.68990225,1.7937967,-1.6950948,-14.518439,0.090979666
6.241039,4.6655602,-3.202938,0.68990225,1.7937967,-1.6950948,-14.518439,0.090979666
6.2429214,4.66269,-2.945144,0.6227906,1.7948619,-1.7238252,-14.446613,-0.04309563
6.2448025,4.6598186,-2.945144,0.6227906,1.7948619,-1.7238252,-14.446613,-0.04309563
6.246675,4.6572013,-2.6926763,0.5578095,1.7884704,-1.5849615,-14.255077,-0.17238252
6.2487025,4.6543636,-2.6926763,0.5578095,1.7884704,-1.5849615,-14.255077,-0.17238252
6.250867,4.651601,-2.445535,0.4938936,1.7767525,-1.5705963,-14.317327,-0.17717093
6.250867,4.651601,-2.445535,0.4938936,1.7767525,-1.5705963,-14.317327,-0.17717093
6.250867,4.651601,-2.445535,0.4938936,1.7767525,-1.5705963,-14.317327,-0.17717093
6.257116,4.6436024,-2.445535,0.4938936,1.7767525,-1.5705963,-14.317327,-0.17717093
6.2581134,4.6425624,-1.9651008,0.3767145,1.738403,-1.7429788,-14.393941,-0.15801731
6.2581134,4.6425624,-1.9651008,0.3767145,1.738403,-1.7429788,-14.393941,-0.15801731
6.262572,4.6379056,-1.9651008,0.3767145,1.738403,-1.7429788,-14.393941,-0.15801731
6.264382,4.636217,-1.7307426,0.3159944,1.7043145,-1.6903064,-14.408306,-0.22984336
6.265164,4.635574,-1.4995801,0.2563396,1.6606387,-1.6232687,-14.489709,-0.12449849
6.266977,4.634082,-1.4995801,0.2563396,1.6606387,-1.6232687,-14.489709,-0.12449849
6.268642,4.6328983,-1.2705483,0.19881533,1.6105713,-1.6089035,-14.638149,-0.0047884034
6.2703543,4.6316805,-1.2705483,0.19881533,1.6105713,-1.6089035,-14.638149,-0.0047884034
6.2719765,4.6307106,-1.0436469,0.14981318,1.5509164,-1.9440918,-14.839262,0.07182605
6.2736626,4.6297016,-1.0436469,0.14981318,1.5509164,-1.9440918,-14.839262,0.07182605
6.275182,4.6289744,-0.8156804,0.09761521,1.4838047,-2.1212628,-14.973337,0.047884032
6.2767677,4.628216,-0.8156804,0.09761521,1.4838047,-2.1212628,-14.973337,0.047884032
6.278223,4.627706,-0.5866485,0.04009093,1.4049752,-2.1260512,-15.035586,0.02873042
6.279707,4.627187,-0.5866485,0.04009093,1.4049752,-2.1260512,-15.035586,0.02873042
6.281122,4.626895,-0.35655138,-0.01743335,1.3165582,-1.9871874,-15.136143,0.033518825
6.2825246,4.626605,-0.35655138,-0.01743335,1.3165582,-1.9871874,-15.136143,0.033518825
0.000621405,4.6265464,-0.12645426,-0.07176184,1.2196192,-1.9728222,-15.222335,0.02873042
0.000621405,4.6265464,-0.12645426,-0.07176184,1.2196192,-1.9728222,-15.222335,0.02873042
0.003984248,4.626392,-0.12645426,-0.07176184,1.2196192,-1.9728222,-15.222335,0.02873042
0.0045876484,4.626477,0.10364286,-0.120764,1.1141579,-2.087744,-15.227123,0.095768064
0.0056920806,4.6268654,0.33160946,-0.1687009,1.0012399,-2.3319526,-15.155296,0.02873042
0.0067975298,4.6272554,0.33160946,-0.1687009,1.0012399,-2.3319526,-15.155296,0.02873042
0.008787149,4.6284733,0.5574455,-0.2198336,0.88406086,-2.4133554,-14.978126,-0.033518825
0.008787149,4.6284733,0.5574455,-0.2198336,0.88406086,-2.4133554,-14.978126,-0.033518825
0.011358596,4.631201,1.0037913,-0.3306211,0.6337237,-2.5187001,-14.647726,0.07182605
0.011358596,4.631201,1.0037913,-0.3306211,0.6337237,-2.5187001,-14.647726,0.07182605
0.011358596,4.631201,1.0037913,-0.3306211,0.6337237,-2.5187001,-14.647726,0.07182605
0.012602605,4.6329308,1.0037913,-0.3306211,0.6337237,-2.5187001,-14.647726,0.07182605
0.013179296,4.634078,1.2189747,-0.3849496,0.50695723,-2.4947581,-14.393941,0.076614454
0.013521792,4.634759,1.2189747,-0.3849496,0.50695723,-2.4947581,-14.393941,0.076614454
0.014034573,4.6362314,1.4298971,-0.4382128,0.381256,-2.5761611,-14.384364,0.18674773
0.014522427,4.6376324,1.4298971,-0.4382128,0.381256,-2.5761611,-14.384364,0.18674773
0.014522427,4.6376324,1.4298971,-0.4382128,0.381256,-2.5761611,-14.384364,0.18674773
0.015511118,4.6418595,1.6365584,-0.49041077,0.25448954,-2.528277,-14.312538,0.1436521
0.01563849,4.6427417,1.8368281,-0.54260874,0.12772308,-2.3942018,-14.15452,0.12449849
0.015927907,4.6447496,1.8368281,-0.54260874,0.12772308,-2.3942018,-14.15452,0.12449849
0.016079796,4.646838,2.029641,-0.59693724,0.0009566145,-2.4133554,-13.910312,0.11971009
0.01623087,4.648918,2.029641,-0.59693724,0.0009566145,-2.4133554,-13.910312,0.11971009
0.016263235,4.6511955,2.219258,-0.6544615,-0.12580985,-2.6671407,-13.699622,0.11971009
0.0162951,4.653472,2.219258,-0.6544615,-0.12580985,-2.6671407,-13.699622,0.11971009
0.016207594,4.6559215,2.400353,-0.7173121,-0.25257632,-2.8299465,-13.522451,0.04309563
0.016118972,4.6583767,2.400353,-0.7173121,-0.25257632,-2.8299465,-13.522451,0.04309563
0.015914759,4.660992,2.5729258,-0.785489,-0.3729512,-2.9400797,-13.40753,0.023942016
0.015708726,4.663614,2.5729258,-0.785489,-0.3729512,-2.9400797,-13.40753,0.023942016
0.0153931,4.6663985,2.7412376,-0.85579646,-0.48480397,-2.858677,-13.244724,0.033518825
0.015075343,4.6691875,2.7412376,-0.85579646,-0.48480397,-2.858677,-13.244724,0.033518825
0.014656035,4.672132,2.9052885,-0.9250387,-0.58813465,-2.7868507,-13.096283,0.05746084
0.014233261,4.675086,2.9052885,-0.9250387,-0.58813465,-2.7868507,-13.096283,0.05746084
0.013718324,4.6781893,3.0661433,-0.9942809,-0.6840084,-2.8203697,-12.919112,-0.033518825
0.01320111,4.6812897,3.0661433,-0.9942809,-0.6840084,-2.8203697,-12.919112,-0.033518825
0.012596315,4.6845427,3.2238026,-1.063523,-0.77242535,-2.8874073,-12.804191,-0.10055647
0.011988071,4.6877956,3.2238026,-1.063523,-0.77242535,-2.8874073,-12.804191,-0.10055647
0.011293179,4.691192,3.3803964,-1.1316999,-0.8597771,-2.9113493,-12.617443,-0.11492168
0.010592708,4.6945963,3.3803964,-1.1316999,-0.8597771,-2.9113493,-12.617443,-0.11492168
0.009806843,4.6981535,3.535925,-1.2041379,-0.9428677,-2.8107927,-12.430696,-0.11492168
0.009017034,4.701708,3.535925,-1.2041379,-0.9428677,-2.8107927,-12.430696,-0.11492168
0.008147541,4.705407,3.6903882,-1.2776412,-1.020632,-2.791639,-12.253524,-0.10055647
0.00727276,4.709107,3.6903882,-1.2776412,-1.020632,-2.791639,-12.253524,-0.10055647
0.0063210833,4.712955,3.8437865,-1.3490139,-1.09307,-2.6288335,-12.076353,-0.12928689
0.005365194,4.716795,3.8437865,-1.3490139,-1.09307,-2.6288335,-12.076353,-0.12928689
0.0043333485,4.720788,3.9971845,-1.4203867,-1.1623122,-2.6479871,-11.827356,-0.15801731
0.0032945797,4.7247806,3.9971845,-1.4203867,-1.1623122,-2.6479871,-11.827356,-0.15801731
0.0021825104,4.728917,4.1463213,-1.4874983,-1.2283586,-2.4037786,-11.645397,-0.16280572
0.0010650898,4.7330456,4.1463213,-1.4874983,-1.2283586,-2.4037786,-11.645397,-0.16280572
6.2830563,4.7373137,4.2965236,-1.5524794,-1.2954702,-2.3175871,-11.51611,-0.24899697
6.281851,4.7415905,4.2965236,-1.5524794,-1.2954702,-2.3175871,-11.51611,-0.24899697
6.280579,4.74599,4.44353,-1.6142647,-1.3593861,-2.0111294,-11.358093,-0.15801731
6.2792974,4.750388,4.44353,-1.6142647,-1.3593861,-2.0111294,-11.358093,-0.15801731
6.277931,4.754921,4.584145,-1.6739196,-1.4286283,-1.7669208,-11.085154,-0.19632454
6.2765565,4.759449,4.584145,-1.6739196,-1.4286283,-1.7669208,-11.085154,-0.19632454
6.275095,4.764097,4.716238,-1.7261175,-1.4989357,-1.6903064,-10.764331,-0.30645782
6.273624,4.768741,4.716238,-1.7261175,-1.4989357,-1.6903064,-10.764331,-0.30645782
6.272063,4.773504,4.833417,-1.7676629,-1.5649822,-1.5658079,-10.386047,-0.4405331
6.2704997,4.7782393,4.833417,-1.7676629,-1.5649822,-1.5658079,-10.386047,-0.4405331
6.2688413,4.7830687,4.9324865,-1.800686,-1.6310285,-1.2976574,-10.036493,-0.5793968
6.2671757,4.78789,4.9324865,-1.800686,-1.6310285,-1.2976574,-10.036493,-0.5793968
6.265407,4.792787,5.013447,-1.8251871,-1.6960096,-0.94331545,-9.629479,-0.79966336
6.263639,4.797657,5.013447,-1.8251871,-1.6960096,-0.94331545,-9.629479,-0.79966336
6.2617497,4.8026114,5.070971,-1.8422314,-1.7599255,-0.39264908,-9.193734,-0.9624691
6.2598624,4.807539,5.070971,-1.8422314,-1.7599255,-0.39264908,-9.193734,-0.9624691
6.25787,4.8124833,5.1050596,-1.8486229,-1.8281025,0.17238252,-8.676587,-1.283292
6.2558584,4.8174543,5.1050596,-1.8486229,-1.8281025,0.17238252,-8.676587,-1.283292
6.25374,4.8224144,5.110386,-1.8443619,-1.9005405,0.91458505,-8.082825,-1.5035586
6.2516146,4.827371,5.110386,-1.8443619,-1.9005405,0.91458505,-8.082825,-1.5035586
6.249392,4.83229,5.082689,-1.8241218,-1.9783047,1.4269443,-7.5082164,-1.6472107
6.2471538,4.837226,5.082689,-1.8241218,-1.9783047,1.4269443,-7.5082164,-1.6472107
6.2448277,4.8420916,5.023034,-1.7857723,-2.059265,1.733402,-7.0006456,-1.7860745
6.2424955,4.8469534,5.023034,-1.7857723,-2.059265,1.733402,-7.0006456,-1.7860745
6.240071,4.8517275,4.9324865,-1.7314439,-2.1434207,1.9393034,-6.4308257,-1.7238252
6.237638,4.856502,4.9324865,-1.7314439,-2.1434207,1.9393034,-6.4308257,-1.7238252
6.2351294,4.861154,4.813177,-1.6590059,-2.2243807,1.9297266,-5.9184666,-1.6807296
6.2326183,4.865798,4.813177,-1.6590059,-2.2243807,1.9297266,-5.9184666,-1.6807296
6.230046,4.8702917,4.6661706,-1.5759152,-2.3000145,1.70946,-5.391742,-1.5945383
6.2274637,4.874791,4.6661706,-1.5759152,-2.3000145,1.70946,-5.391742,-1.5945383
6.2248344,4.8791223,4.4978585,-1.486433,-2.3681915,1.3742718,-4.8267107,-1.6184803
6.2221966,4.883459,4.4978585,-1.486433,-2.3681915,1.3742718,-4.8267107,-1.6184803
6.219542,4.8875875,4.3103724,-1.3958856,-2.4278464,0.80924016,-3.4284968,-1.9919758
6.2168736,4.8917303,4.3103724,-1.3958856,-2.4278464,0.80924016,-3.4284968,-1.9919758
6.2141757,4.8956633,4.100515,-1.3095992,-2.4757833,0.7757214,-3.7205894,-2.0590134
6.211481,4.899587,4.100515,-1.3095992,-2.4757833,0.7757214,-3.7205894,-2.0590134
6.208693,4.9033103,3.8682876,-1.2222475,-2.502415,3.1124623,-3.3997664,-1.8483237
6.2058945,4.9070435,3.8682876,-1.2222475,-2.502415,3.1124623,-3.3997664,-1.8483237
6.2031474,4.9104915,3.6019714,-1.1338305,-2.5056107,1.6424223,-2.9783869,-1.6472107
6.2004013,4.9139347,3.6019714,-1.1338305,-2.5056107,1.6424223,-2.9783869,-1.6472107
6.197704,4.917107,3.3090236,-0.98469347,-2.474718,1.8674773,-3.4380736,-1.733402
6.1950164,4.9202657,3.3090236,-0.98469347,-2.474718,1.8674773,-3.4380736,-1.733402
6.1923556,4.9231577,3.0203369,-0.8824281,-2.4459558,2.3989902,-3.4763808,-1.8866309
6.1896973,4.9260464,3.0203369,-0.8824281,-2.4459558,2.3989902,-3.4763808,-1.8866309
6.1870403,4.928688,2.7295198,-0.801468,-2.4161284,4.6495395,-2.566584,-1.685518
6.184377,4.9313345,2.7295198,-0.801468,-2.4161284,4.6495395,-2.566584,-1.685518
6.1817846,4.933694,2.4237888,-0.68215835,-2.374583,5.3965306,-1.8722657,-1.5514427
6.179197,4.936048,2.4237888,-0.68215835,-2.374583,5.3965306,-1.8722657,-1.5514427
6.176681,4.9381046,2.0999484,-0.51491183,-2.3266463,5.161899,-1.3215994,-1.6663644
6.174168,4.9401603,2.0999484,-0.51491183,-2.3266463,5.161899,-1.3215994,-1.6663644
6.171742,4.9418945,1.7558681,-0.31677267,-2.261665,3.98874,-1.0965444,-1.8387469
6.1693473,4.9436073,1.7558681,-0.31677267,-2.261665,3.98874,-1.0965444,-1.8387469
6.1670837,4.944971,1.3862213,-0.11863347,-2.1679218,3.466804,-0.7469909,-1.8914193
6.1648545,4.9463153,1.3862213,-0.11863347,-2.1679218,3.466804,-0.7469909,-1.8914193
6.1627626,4.947313,0.99739975,0.06139622,-2.044351,3.6583402,-0.45010993,-1.7860745
6.160665,4.9483147,0.99739975,0.06139622,-2.044351,3.6583402,-0.45010993,-1.7860745
6.1587486,4.948935,0.59792554,0.22651221,-1.9048015,3.5625722,-0.39264908,-1.6041151
6.156825,4.9495597,0.59792554,0.22651221,-1.9048015,3.5625722,-0.39264908,-1.6041151
6.155021,4.9497967,0.19419034,0.37884504,-1.7567297,2.9735985,-0.4309563,-1.5275006
6.153313,4.950022,0.19419034,0.37884504,-1.7567297,2.9735985,-0.4309563,-1.5275006
6.153313,4.950022,-0.21593648,0.5226557,-1.592679,2.5474305,-0.6751649,-1.1923125
6.1500473,4.9496737,-0.21593648,0.5226557,-1.592679,2.5474305,-0.6751649,-1.1923125
6.1486325,4.949098,-0.62499803,0.6590096,-1.407323,2.6384103,-0.9528923,-0.80445176
6.1486325,4.949098,-0.62499803,0.6590096,-1.407323,2.6384103,-0.9528923,-0.80445176
6.1453815,4.9476547,-1.0287333,0.78897184,-1.2038575,3.0071173,-1.283292,-0.37349546
6.1449275,4.9472837,-1.0287333,0.78897184,-1.2038575,3.0071173,-1.283292,-0.37349546
6.143155,4.9446955,-1.4250116,0.9157383,-0.9940004,2.8443117,-1.7046716,-0.22026655
6.143155,4.9446955,-1.4250116,0.9157383,-0.9940004,2.8443117,-1.7046716,-0.22026655
6.142508,4.943057,-1.8127679,1.0446353,-0.77881694,2.585738,-2.1643584,0.24420857
6.141864,4.941433,-1.8127679,1.0446353,-0.77881694,2.585738,-2.1643584,0.24420857
6.141448,4.939453,-2.187741,1.1703365,-0.56363356,2.231396,-2.72939,0.79487497
6.141448,4.939453,-2.187741,1.1703365,-0.56363356,2.231396,-2.72939,0.79487497
6.1404614,4.9348083,-2.5478003,1.281124,-0.35271117,2.1164744,-3.2944214,1.3311762
6.1402907,4.93264,-2.5478003,1.281124,-0.35271117,2.1164744,-3.2944214,1.3311762
6.1403565,4.9297013,-2.8876197,1.3780631,-0.14711514,2.0590134,-3.8881836,1.8579005
6.1403565,4.9297013,-2.8876197,1.3780631,-0.14711514,2.0590134,-3.8881836,1.8579005
6.140993,4.923292,-3.202938,1.4654148,0.052089307,1.8483237,-4.548983,2.27928
6.1411514,4.921669,-3.202938,1.4654148,0.052089307,1.8483237,-4.548983,2.27928
6.1416483,4.9184923,-3.4916246,1.543179,0.24277164,1.70946,-5.0757074,2.5234885
6.142135,4.9153533,-3.4916246,1.543179,0.24277164,1.70946,-5.0757074,2.5234885
6.1428094,4.9120293,-3.7526145,1.6134865,0.42173606,1.4317327,-5.559336,2.6431987
6.1428094,4.9120293,-3.7526145,1.6134865,0.42173606,1.4317327,-5.559336,2.6431987
6.144408,4.9040546,-3.9869726,1.6731414,0.5889826,1.2114661,-6.090849,2.7389667
6.144666,4.902973,-3.9869726,1.6731414,0.5889826,1.2114661,-6.090849,2.7389667
6.144666,4.902973,-3.9869726,1.6731414,0.5889826,1.2114661,-6.090849,2.7389667
6.148105,4.8902507,-4.3800554,1.7509056,0.8829956,0.90021986,-7.3645644,2.6431987
6.1488533,4.887686,-4.3800554,1.7509056,0.8829956,0.90021986,-7.3645644,2.6431987
6.1494308,4.8856993,-4.3800554,1.7509056,0.8829956,0.90021986,-7.3645644,2.6431987
6.1507983,4.881329,-4.5409102,1.7711457,1.0140231,0.8283938,-7.9726915,2.5474305
6.1521053,4.877123,-4.5409102,1.7711457,1.0140231,0.8283938,-7.9726915,2.5474305
6.153545,4.872755,-4.68046,1.7796677,1.1322675,0.7422025,-8.513782,2.4181437
6.1549726,4.868395,-4.68046,1.7796677,1.1322675,0.7422025,-8.513782,2.4181437
6.1579933,4.8596244,-4.797639,1.7807331,1.2409245,0.5793968,-8.935161,2.303222
6.1579933,4.8596244,-4.797639,1.7807331,1.2409245,0.5793968,-8.935161,2.303222
6.159658,4.854971,-4.8977737,1.7711457,1.3378636,0.49320555,-9.26556,2.1499932
6.1612983,4.8503547,-4.8977737,1.7711457,1.3378636,0.49320555,-9.26556,2.1499932
6.1629863,4.8457537,-4.982995,1.756232,1.4220194,0.34476504,-9.519346,2.0733786
6.1646996,4.841054,-4.982995,1.756232,1.4220194,0.34476504,-9.519346,2.0733786
6.166512,4.836244,-5.0543675,1.7370572,1.4955226,-0.15322891,-9.835381,1.9009962
6.166512,4.836244,-5.0543675,1.7370572,1.4955226,-0.15322891,-9.835381,1.9009962
6.1711416,4.82387,-5.1118917,1.7146866,1.5626343,-0.5506664,-10.175357,1.9153614
6.1719418,4.821763,-5.1118917,1.7146866,1.5626343,-0.5506664,-10.175357,1.9153614
6.173872,4.816788,-5.153437,1.6901855,1.6233544,-0.78529817,-10.477027,1.70946
6.175789,4.811824,-5.153437,1.6901855,1.6233544,-0.78529817,-10.477027,1.70946
6.177731,4.806871,-5.1779385,1.6624887,1.6755524,-0.866701,-10.931925,1.7717092
6.180604,4.7995,-5.1779385,1.6624887,1.6755524,-0.866701,-10.931925,1.7717092
6.180604,4.7995,-5.1779385,1.6624887,1.6755524,-0.866701,-10.931925,1.7717092
6.180604,4.7995,-5.1779385,1.6624887,1.6755524,-0.866701,-10.931925,1.7717092
6.1868,4.783778,-5.1779385,1.5953771,1.7575777,-1.067814,-11.980585,1.5849615
6.1878757,4.7810755,-5.1779385,1.5953771,1.7575777,-1.067814,-11.980585,1.5849615
6.189552,4.7769265,-5.152372,1.554897,1.7863399,-0.9816227,-12.349293,1.4700398
6.1918654,4.7711754,-5.152372,1.554897,1.7863399,-0.9816227,-12.349293,1.4700398
6.1935816,4.7669544,-5.109761,1.5112212,1.8023188,-0.89064306,-12.722788,1.4077905
6.195558,4.7620726,-5.109761,1.5112212,1.8023188,-0.89064306,-12.722788,1.4077905
6.1975837,4.7571273,-5.0501065,1.4643495,1.8097757,-0.89064306,-12.923901,1.1779473
6.1995654,4.752267,-5.0501065,1.4643495,1.8097757,-0.89064306,-12.923901,1.1779473
6.201552,4.7474394,-4.9755383,1.4196084,1.8076451,-0.94331545,-13.10586,1.1013328
6.2035255,4.7426233,-4.9755383,1.4196084,1.8076451,-0.94331545,-13.10586,1.1013328
6.2054915,4.737873,-4.887121,1.3769978,1.799123,-1.091756,-13.215993,0.94331545
6.20747,4.733073,-4.887121,1.3769978,1.799123,-1.091756,-13.215993,0.94331545
6.2094054,4.728423,-4.784856,1.3311914,1.7842094,-1.2785037,-13.187263,0.7661445
6.2113986,4.7236166,-4.784856,1.3311914,1.7842094,-1.2785037,-13.187263,0.7661445
6.2132425,4.719227,-4.670872,1.281124,1.7692956,-1.316811,-13.263878,0.61770403
6.215136,4.7147017,-4.670872,1.281124,1.7692956,-1.316811,-13.263878,0.61770403
6.217017,4.710266,-4.547302,1.2278608,1.7501209,-1.4556746,-13.321339,0.5554548
6.2188907,4.7058315,-4.547302,1.2278608,1.7501209,-1.4556746,-13.321339,0.5554548
6.2207384,4.701529,-4.412013,1.1703365,1.7298808,-1.5370775,-13.350069,0.46926352
6.222583,4.69722,-4.412013,1.1703365,1.7298808,-1.5370775,-13.350069,0.46926352
6.2244024,4.6930547,-4.2650065,1.1096164,1.7096409,-1.6089035,-13.445837,0.39264908
6.2262115,4.688899,-4.2650065,1.1096164,1.7096409,-1.6089035,-13.445837,0.39264908
6.228006,4.684884,-4.105217,1.0446353,1.6915313,-1.5993267,-13.627796,0.29209262
6.229801,4.680854,-4.105217,1.0446353,1.6915313,-1.5993267,-13.627796,0.29209262
6.231564,4.677018,-3.9347746,0.9796542,1.6734219,-1.6472107,-13.728353,0.25378537
6.233324,4.673175,-3.9347746,0.9796542,1.6734219,-1.6472107,-13.728353,0.25378537
6.23507,4.669501,-3.7558103,0.9136078,1.6574428,-1.6472107,-13.9151,0.14844051
6.2368073,4.6658354,-3.7558103,0.9136078,1.6574428,-1.6472107,-13.9151,0.14844051
6.2385244,4.6623573,-3.5629973,0.85182244,1.6382681,-1.5370775,-13.9438305,0.11492168
6.240264,4.658825,-3.5629973,0.85182244,1.6382681,-1.5370775,-13.9438305,0.11492168
6.24196,4.6555443,-3.3616624,0.7900371,1.6212238,-1.4413095,-14.073117,0
6.2436666,4.6522365,-3.3616624,0.7900371,1.6212238,-1.4413095,-14.073117,0
6.245336,4.6491756,-3.153936,0.7335781,1.6052449,-1.7046716,-13.9151,-0.11971009
6.247011,4.646097,-3.153936,0.7335781,1.6052449,-1.7046716,-13.9151,-0.11971009
6.248671,4.6432276,-2.9387524,0.67392325,1.5850048,-1.6089035,-13.929465,-0.2777274
6.25033,4.6403527,-2.9387524,0.67392325,1.5850048,-1.6089035,-13.929465,-0.2777274
6.2519655,4.6376987,-2.7171774,0.61746424,1.5605037,-1.7142484,-13.986926,-0.37349546
6.2535996,4.6350427,-2.7171774,0.61746424,1.5605037,-1.7142484,-13.986926,-0.37349546
6.255215,4.6326,-2.490276,0.5588747,1.5328069,-1.934515,-13.8959465,-0.5746084
6.256828,4.6301584,-2.490276,0.5588747,1.5328069,-1.934515,-13.8959465,-0.5746084
6.2584147,4.6279397,-2.2580485,0.49176306,1.500849,-2.030283,-13.8720045,-0.7517793
6.2600093,4.625709,-2.2580485,0.49176306,1.500849,-2.030283,-13.8720045,-0.7517793
6.2615614,4.623726,-2.0215597,0.4182598,1.4624995,-1.8435353,-13.900735,-0.81402856
6.2662115,4.6181,-1.7829405,0.34262604,1.4177583,-1.6903064,-13.986926,-0.6751649
6.2662115,4.6181,-1.7829405,0.34262604,1.4177583,-1.6903064,-13.986926,-0.6751649
6.2662115,4.6181,-1.7829405,0.34262604,1.4177583,-1.6903064,-13.986926,-0.6751649
6.267999,4.616271,-1.5389949,0.27231857,1.3666257,-1.8339585,-14.077906,-0.6464345
6.2691355,4.615108,-1.5389949,0.27231857,1.3666257,-1.8339585,-14.077906,-0.6464345
6.2705054,4.613895,-1.2929188,0.20520692,1.3133625,-2.1404164,-14.135366,-0.6751649
6.2718816,4.6126757,-1.2929188,0.20520692,1.3133625,-2.1404164,-14.135366,-0.6751649
6.2732334,4.611677,-1.0436469,0.1338342,1.2526424,-2.2218192,-14.231135,-0.7134721
6.274591,4.610674,-1.0436469,0.1338342,1.2526424,-2.2218192,-14.231135,-0.7134721
6.2758837,4.60993,-0.7911793,0.058200426,1.1865959,-2.2026656,-14.422671,-0.61770403
6.277182,4.6091824,-0.7911793,0.058200426,1.1865959,-2.2026656,-14.422671,-0.61770403
6.278411,4.608696,-0.53764635,-0.015302822,1.1152233,-2.1691468,-14.623784,-0.46447513
6.279629,4.6082134,-0.53764635,-0.015302822,1.1152233,-2.1691468,-14.623784,-0.46447513
6.2807875,4.6079855,-0.27878708,-0.082414486,1.0374589,-2.3223755,-14.810532,-0.45010993
6.2819386,4.60776,-0.27878708,-0.082414486,1.0374589,-2.3223755,-14.810532,-0.45010993
6.2830176,4.6077957,-0.017797288,-0.14739561,0.95649886,-2.432509,-14.9063,-0.38307226
0.00091037527,4.6078315,-0.017797288,-0.14739561,0.95649886,-2.432509,-14.9063,-0.38307226
0.0019158906,4.60813,0.24745356,-0.20918095,0.8755387,-2.5330653,-14.777013,-0.4165911
0.0029223308,4.6084285,0.24745356,-0.20918095,0.8755387,-2.5330653,-14.777013,-0.4165911
0.0038562117,4.608985,0.5095086,-0.26883575,0.7903176,-2.432509,-14.738706,-0.61291564
0.0047892104,4.6095414,0.5095086,-0.26883575,0.7903176,-2.432509,-14.738706,-0.61291564
0.005638729,4.6103587,0.7704984,-0.3274253,0.7019006,-2.3654714,-14.657303,-0.60812724
0.006489961,4.6111784,0.7704984,-0.3274253,0.7019006,-2.3654714,-14.657303,-0.60812724
0.0072596977,4.612265,1.0293577,-0.3838843,0.60815734,-2.3942018,-14.614207,-0.59376204
0.008015667,4.6133327,1.0293577,-0.3838843,0.60815734,-2.3942018,-14.614207,-0.59376204
0.008685705,4.614665,1.2828906,-0.43927807,0.510153,-2.3894134,-14.422671,-0.5554548
0.009355118,4.615995,1.2828906,-0.43927807,0.510153,-2.3894134,-14.422671,-0.5554548
0.009930895,4.6175747,1.5310972,-0.4957371,0.41001818,-2.4708161,-14.235924,-0.51235914
0.010507735,4.6191573,1.5310972,-0.4957371,0.41001818,-2.4708161,-14.235924,-0.51235914
0.010987616,4.6209707,1.7729123,-0.5521961,0.3034917,-2.6144683,-14.03481,-0.62728083
0.0114662945,4.62278,1.7729123,-0.5521961,0.3034917,-2.6144683,-14.03481,-0.62728083
0.011847405,4.624818,2.006205,-0.6097204,0.19590001,-2.7724855,-13.857639,-0.7469909
0.012228391,4.6268573,2.006205,-0.6097204,0.19590001,-2.7724855,-13.857639,-0.7469909
0.012505198,4.629119,2.2299106,-0.67150575,0.089373566,-2.906561,-13.656527,-0.62728083
0.012782041,4.6313868,2.2299106,-0.67150575,0.089373566,-2.906561,-13.656527,-0.62728083
0.012957354,4.6338644,2.445094,-0.73435634,-0.017152881,-2.9352913,-13.40753,-0.6607997
0.013130998,4.6363335,2.445094,-0.73435634,-0.017152881,-2.9352913,-13.40753,-0.6607997
0.013208537,4.639007,2.6474943,-0.79933745,-0.118353,-2.825158,-13.220781,-0.7038953
0.013284438,4.641679,2.6474943,-0.79933745,-0.118353,-2.825158,-13.220781,-0.7038953
0.013262906,4.6445374,2.8381767,-0.8643186,-0.21955313,-2.8491,-12.957419,-0.7469909
0.0132393185,4.647394,2.8381767,-0.8643186,-0.21955313,-2.8491,-12.957419,-0.7469909
0.013111948,4.650532,3.0192716,-0.93249553,-0.32181853,-2.8060043,-12.708423,-0.78050977
0.012987854,4.6535215,3.0192716,-0.93249553,-0.32181853,-2.8060043,-12.708423,-0.78050977
0.012762082,4.6567054,3.1875834,-1.0006725,-0.4240839,-2.8107927,-12.545617,-0.7517793
0.012533327,4.6598873,3.1875834,-1.0006725,-0.4240839,-2.8107927,-12.545617,-0.7517793
0.012201734,4.6632805,3.3441772,-1.0688493,-0.5220882,-2.801216,-12.425907,-0.7422025
0.01186878,4.6666474,3.3441772,-1.0688493,-0.5220882,-2.801216,-12.425907,-0.7422025
0.011443483,4.670121,3.492249,-1.1370263,-0.61796206,-2.753332,-12.301409,-0.78050977
0.011011402,4.673612,3.492249,-1.1370263,-0.61796206,-2.753332,-12.301409,-0.78050977
0.010481984,4.6772456,3.632864,-1.2052032,-0.71383584,-2.5713725,-12.124237,-0.6895301
0.009944657,4.6808977,3.632864,-1.2052032,-0.71383584,-2.5713725,-12.124237,-0.6895301
0.009321,4.6846194,3.766022,-1.2723149,-0.80651385,-2.4612393,-11.980585,-0.7038953
0.008687686,4.688364,3.766022,-1.2723149,-0.80651385,-2.4612393,-11.980585,-0.7038953
0.007960064,4.6922064,3.8917232,-1.3341002,-0.89919186,-2.3463178,-11.707646,-0.7661445
0.0071975524,4.6961966,3.8917232,-1.3341002,-0.89919186,-2.3463178,-11.707646,-0.7661445
0.006373389,4.70014,4.015294,-1.3905592,-0.9908046,-2.2457612,-11.592725,-0.6560113
0.005534528,4.7041197,4.015294,-1.3905592,-0.9908046,-2.2457612,-11.592725,-0.6560113
0.003999166,4.710847,4.1346035,-1.4448878,-1.0813521,-2.0638018,-11.410766,-0.5315128
0.0036461991,4.712378,4.1346035,-1.4448878,-1.0813521,-2.0638018,-11.410766,-0.5315128
0.0026012384,4.716582,4.2475214,-1.4970857,-1.1750953,-1.8387469,-11.137826,-0.545878
0.001490484,4.721013,4.2475214,-1.4970857,-1.1750953,-1.8387469,-11.137826,-0.545878
0.0002665818,4.7255597,4.350852,-1.5450226,-1.2656429,-1.685518,-10.845734,-0.58418524
6.2824225,4.7293544,4.350852,-1.5450226,-1.2656429,-1.685518,-10.845734,-0.58418524
6.280362,4.736454,4.4413996,-1.5855026,-1.3529946,-1.5035586,-10.472239,-0.62728083
6.2798347,4.738255,4.4413996,-1.5855026,-1.3529946,-1.5035586,-10.472239,-0.62728083
6.2784,4.742858,4.519164,-1.6195911,-1.439281,-1.3455414,-10.132261,-0.7517793
6.2784,4.742858,4.519164,-1.6195911,-1.439281,-1.3455414,-10.132261,-0.7517793
6.274071,4.756408,4.58308,-1.647288,-1.524502,-1.067814,-9.758766,-0.8283938
6.274071,4.756408,4.58308,-1.647288,-1.524502,-1.067814,-9.758766,-0.8283938
6.272608,4.760496,4.6299515,-1.6664628,-1.6075927,-0.78050977,-9.351752,-0.8523358
6.27102,4.7649064,4.6299515,-1.6664628,-1.6075927,-0.78050977,-9.351752,-0.8523358
6.26929,4.7694154,4.6565833,-1.6739196,-1.6906834,-0.4405331,-9.002198,-0.92416185
6.267523,4.773999,4.6565833,-1.6739196,-1.6906834,-0.4405331,-9.002198,-0.92416185
6.2657013,4.7784495,4.6651053,-1.671789,-1.7727087,-0.1388637,-8.595184,-0.9576807
6.263819,4.7830286,4.6651053,-1.671789,-1.7727087,-0.1388637,-8.595184,-0.9576807
6.2618904,4.787487,4.651257,-1.6558101,-1.8494078,0.0047884034,-8.322245,-0.89543146
6.2618904,4.787487,4.651257,-1.6558101,-1.8494078,0.0047884034,-8.322245,-0.89543146
6.2618904,4.787487,4.651257,-1.6558101,-1.8494078,0.0047884034,-8.322245,-0.89543146
6.2553806,4.8022947,4.6171684,-1.6291785,-1.9207804,0.090979666,-8.001422,-0.9720459
6.2553806,4.8022947,4.6171684,-1.6291785,-1.9207804,0.090979666,-8.001422,-0.9720459
6.2553806,4.8022947,4.6171684,-1.6291785,-1.9207804,0.090979666,-8.001422,-0.9720459
6.248762,4.8159275,4.498924,-1.5492836,-2.0528734,0.7038953,-7.120356,-0.94810385
6.246775,4.819798,4.498924,-1.5492836,-2.0528734,0.7038953,-7.120356,-0.94810385
6.246775,4.819798,4.498924,-1.5492836,-2.0528734,0.7038953,-7.120356,-0.94810385
6.2414308,4.8296776,4.4083767,-1.4928247,-2.112528,0.8714894,-6.5840545,-1.1061212
6.2398443,4.832518,4.2965236,-1.4289087,-2.168987,0.9959879,-6.1243677,-1.1587936
6.237783,4.8361263,4.2965236,-1.4289087,-2.168987,0.9959879,-6.1243677,-1.1587936
6.237783,4.8361263,4.2965236,-1.4289087,-2.168987,0.9959879,-6.1243677,-1.1587936
6.237783,4.8361263,4.1612353,-1.3575361,-2.2179892,1.1827357,-5.7029886,-1.2066777
6.2299724,4.8488846,4.005707,-1.2797717,-2.2605999,1.5227122,-5.2049947,-1.364695
6.228115,4.8517747,4.005707,-1.2797717,-2.2605999,1.5227122,-5.2049947,-1.364695
6.2230783,4.859143,3.825677,-1.1966811,-2.297884,1.6950948,-4.9176903,-1.316811
6.2230783,4.859143,3.825677,-1.1966811,-2.297884,1.6950948,-4.9176903,-1.316811
6.2205534,4.862605,3.624342,-1.1061336,-2.3234503,1.8914193,-4.534618,-1.3215994
6.218057,4.866023,3.624342,-1.1061336,-2.3234503,1.8914193,-4.534618,-1.3215994
6.215569,4.869195,3.4006364,-1.0091946,-2.3372989,2.858677,-4.7309427,-1.0247183
6.215569,4.869195,3.4006364,-1.0091946,-2.3372989,2.858677,-4.7309427,-1.0247183
6.2091894,4.8773108,3.4006364,-1.0091946,-2.3372989,2.858677,-4.7309427,-1.0247183
6.20037,4.8868823,2.5441637,-0.62356883,-2.2787094,2.954445,-2.834735,-1.3120226
6.20037,4.8868823,2.5441637,-0.62356883,-2.2787094,2.954445,-2.834735,-1.3120226
6.20037,4.8868823,2.5441637,-0.62356883,-2.2787094,2.954445,-2.834735,-1.3120226
6.20037,4.8868823,2.5441637,-0.62356883,-2.2787094,2.954445,-2.834735,-1.3120226
6.1965365,4.8906875,2.5441637,-0.62356883,-2.2787094,2.954445,-2.834735,-1.3120226
6.1955113,4.891601,2.2064748,-0.44993073,-2.2318377,2.0925324,-3.0071173,-1.5610195
6.1931844,4.8936753,2.2064748,-0.44993073,-2.2318377,2.0925324,-3.0071173,-1.5610195
6.1908884,4.895456,1.8677208,-0.3242295,-2.1785746,2.15957,-2.480393,-1.6950948
6.18862,4.8972154,1.8677208,-0.3242295,-2.1785746,2.15957,-2.480393,-1.6950948
6.1863675,4.8986998,1.5215099,-0.21024622,-2.1029408,3.098097,-1.7621324,-1.4556746
6.184133,4.900173,1.5215099,-0.21024622,-2.1029408,3.098097,-1.7621324,-1.4556746
6.184133,4.900173,1.5215099,-0.21024622,-2.1029408,3.098097,-1.7621324,-1.4556746
6.184133,4.900173,1.5215099,-0.21024622,-2.1029408,3.098097,-1.7621324,-1.4556746
6.184133,4.900173,1.5215099,-0.21024622,-2.1029408,3.098097,-1.7621324,-1.4556746
6.184133,4.900173,1.5215099,-0.21024622,-2.1029408,3.098097,-1.7621324,-1.4556746
6.174029,4.902467,0.3965906,0.23823012,-1.7205107,3.1172507,-0.9576807,-1.091756
6.172679,4.9027753,0.3965906,0.23823012,-1.7205107,3.1172507,-0.9576807,-1.091756
6.1721244,4.9029026,0.3965906,0.23823012,-1.7205107,3.1172507,-0.9576807,-1.091756
6.169237,4.9029427,0.0056385305,0.3937587,-1.5681779,2.7246015,-1.1492168,-1.0534488
6.168799,4.902831,-0.3853135,0.5333084,-1.4009314,2.6144683,-1.4413095,-0.9624691
6.1666594,4.902286,-0.3853135,0.5333084,-1.4009314,2.6144683,-1.4413095,-0.9624691
6.1659565,4.901982,-0.769874,0.65687907,-1.2230322,2.825158,-1.6472107,-0.7757214
6.164742,4.901258,-0.769874,0.65687907,-1.2230322,2.825158,-1.6472107,-0.7757214
6.1634507,4.899894,-1.1416513,0.7697971,-1.040872,2.9783869,-1.958457,-0.47405192
6.1627235,4.8991275,-1.1416513,0.7697971,-1.040872,2.9783869,-1.958457,-0.47405192
6.161904,4.897727,-1.4953191,0.87951934,-0.8619076,2.719813,-2.480393,-0.08619126
6.161079,4.8963203,-1.4953191,0.87951934,-0.8619076,2.719813,-2.480393,-0.08619126
6.160454,4.8946466,-1.8276815,0.9849805,-0.68720424,3.1172507,-2.896984,0.80445176
6.159817,4.8929462,-1.8276815,0.9849805,-0.68720424,3.1172507,-2.896984,0.80445176
6.159369,4.890998,-2.1291513,1.0829848,-0.5263493,2.8921957,-3.643975,1.2210429
6.158919,4.8890524,-2.1291513,1.0829848,-0.5263493,2.8921957,-3.643975,1.2210429
6.158595,4.8868484,-2.3858802,1.1650102,-0.40171334,2.1260512,-4.7070007,1.1300632
6.158268,4.884639,-2.3858802,1.1650102,-0.40171334,2.1260512,-4.7070007,1.1300632
6.1580763,4.88225,-2.6010635,1.2299913,-0.29625216,1.9488802,-5.506664,1.6136919
6.1578827,4.879866,-2.6010635,1.2299913,-0.29625216,1.9488802,-5.506664,1.6136919
6.1578293,4.877339,-2.7842891,1.2896461,-0.19398677,1.3311762,-6.2345014,1.6280571
6.1577744,4.874802,-2.7842891,1.2896461,-0.19398677,1.3311762,-6.2345014,1.6280571
6.1580205,4.872073,-2.9472744,1.3375831,-0.07680769,0.30166942,-7.16824,1.532289
6.158259,4.869368,-2.9472744,1.3375831,-0.07680769,0.30166942,-7.16824,1.532289
6.158662,4.866445,-3.1006727,1.3684757,0.055285104,-0.076614454,-7.8625584,1.412579
6.159058,4.8635364,-3.1006727,1.3684757,0.055285104,-0.076614454,-7.8625584,1.412579
6.159601,4.8604717,-3.2476792,1.3748673,0.20548739,0.18195933,-8.39886,1.4556746
6.16014,4.857398,-3.2476792,1.3748673,0.20548739,0.18195933,-8.39886,1.4556746
6.160814,4.8542366,-3.3872287,1.3684757,0.36634234,0.45968673,-8.901642,1.5705963
6.161481,4.851075,-3.3872287,1.3684757,0.36634234,0.45968673,-8.901642,1.5705963
6.1622686,4.8477964,-3.5161257,1.3642147,0.53039306,0.6607997,-9.299079,1.8291701
6.163053,4.844499,-3.5161257,1.3642147,0.53039306,0.6607997,-9.299079,1.8291701
6.164039,4.840966,-3.630109,1.3706062,0.68911743,0.48362875,-9.586384,1.8531121
6.164943,4.837701,-3.630109,1.3706062,0.68911743,0.48362875,-9.586384,1.8531121
6.166059,4.834181,-3.7270482,1.3833894,0.840385,0.16759412,-9.739613,1.7381904
6.167159,4.8306866,-3.7270482,1.3833894,0.840385,0.16759412,-9.739613,1.7381904
6.168414,4.8270807,-3.806943,1.3961725,0.97993463,-0.05746084,-9.854534,1.5945383
6.169693,4.823387,-3.806943,1.3961725,0.97993463,-0.05746084,-9.854534,1.5945383
6.171056,4.8197517,-3.870859,1.4046947,1.1109622,-0.18195933,-9.9550905,1.532289
6.172433,4.816064,-3.870859,1.4046947,1.1109622,-0.18195933,-9.9550905,1.532289
6.173991,4.8121614,-3.9187958,1.4078904,1.2292066,-0.2633622,-10.01734,1.3503298
6.175431,4.8085427,-3.9187958,1.4078904,1.2292066,-0.2633622,-10.01734,1.3503298
6.177038,4.8046994,-3.9486232,1.4014989,1.3250803,-0.30166942,-10.151415,1.1300632
6.178631,4.800878,-3.9486232,1.4014989,1.3250803,-0.30166942,-10.151415,1.1300632
6.1802745,4.797084,-3.9614062,1.3876505,1.4028447,-0.35913026,-10.0987425,0.9528923
6.1819105,4.7932963,-3.9614062,1.3876505,1.4028447,-0.35913026,-10.0987425,0.9528923
6.1836195,4.7894335,-3.9582105,1.3695409,1.4593036,-0.20590134,-10.127473,0.6847417
6.1853356,4.7855463,-3.9582105,1.3695409,1.4593036,-0.20590134,-10.127473,0.6847417
6.1870475,4.781722,-3.9390357,1.3524967,1.4944574,-0.12449849,-10.127473,0.50278234
6.1887183,4.7779846,-3.9390357,1.3524967,1.4944574,-0.12449849,-10.127473,0.50278234
6.1904325,4.7742095,-3.9092083,1.3407788,1.5115017,-0.16759412,-10.299856,0.50278234
6.1921415,4.77044,-3.9092083,1.3407788,1.5115017,-0.16759412,-10.299856,0.50278234
6.193916,4.766552,-3.8676631,1.3311914,1.5125669,-0.30166942,-10.534488,0.4309563
6.1956296,4.7627907,-3.8676631,1.3311914,1.5125669,-0.30166942,-10.534488,0.4309563
6.197334,4.759066,-3.8165302,1.321604,1.5029795,-0.47405192,-10.773908,0.37349546
6.1990337,4.7553434,-3.8165302,1.321604,1.5029795,-0.47405192,-10.773908,0.37349546
6.2007284,4.7516494,-3.759006,1.3098862,1.4870006,-0.40701428,-10.984597,0.41180268
6.2023864,4.748027,-3.759006,1.3098862,1.4870006,-0.40701428,-10.984597,0.41180268
6.2040353,4.744441,-3.6929595,1.2992336,1.4678258,-0.47884035,-11.243171,0.4309563
6.2056823,4.74085,-3.6929595,1.2992336,1.4678258,-0.47884035,-11.243171,0.4309563
6.2073016,4.737334,-3.6237175,1.2875156,1.4475857,-0.58897364,-11.525687,0.45010993
6.2089176,4.733816,-3.6237175,1.2875156,1.4475857,-0.58897364,-11.525687,0.45010993
6.210501,4.7303724,-3.5523448,1.2736672,1.4230846,-0.79008657,-11.765107,0.4213795
6.212076,4.7269382,-3.5523448,1.2736672,1.4230846,-0.79008657,-11.765107,0.4213795
6.2136354,4.7235446,-3.4756458,1.2555577,1.396453,-0.9528923,-12.042834,0.4213795
6.215178,4.720176,-3.4756458,1.2555577,1.396453,-0.9528923,-12.042834,0.4213795
6.216687,4.7168884,-3.3936203,1.2310566,1.3676909,-1.1348516,-12.330139,0.4405331
6.21818,4.7136245,-3.3936203,1.2310566,1.3676909,-1.1348516,-12.330139,0.4405331
6.219648,4.7104373,-3.3041382,1.200164,1.3421246,-1.2114661,-12.5982895,0.5363012
6.2211113,4.7072477,-3.3041382,1.200164,1.3421246,-1.2114661,-12.5982895,0.5363012
6.222546,4.704149,-3.2050686,1.163945,1.3144277,-1.316811,-12.947843,0.49799395
6.2239757,4.7010508,-3.2050686,1.163945,1.3144277,-1.316811,-12.947843,0.49799395
6.2253776,4.698051,-3.094281,1.1234648,1.2867308,-1.4077905,-13.249513,0.545878
6.2267666,4.6950693,-3.094281,1.1234648,1.2867308,-1.4077905,-13.249513,0.545878
6.2281337,4.692193,-2.969645,1.0787238,1.2600992,-1.4891934,-13.474567,0.49799395
6.2294884,4.6893344,-2.969645,1.0787238,1.2600992,-1.4891934,-13.474567,0.49799395
6.230815,4.686604,-2.832226,1.0286564,1.2313371,-1.4796166,-13.623008,0.46447513
6.2321553,4.683836,-2.832226,1.0286564,1.2313371,-1.4796166,-13.623008,0.46447513
6.2334504,4.6812477,-2.6841543,0.9764584,1.2036402,-1.5753847,-13.757083,0.3878607
6.2347393,4.678665,-2.6841543,0.9764584,1.2036402,-1.5753847,-13.757083,0.3878607
6.2360096,4.6762223,-2.5232992,0.91786885,1.1770086,-1.5466543,-13.737929,0.29688102
6.2372723,4.6737876,-2.5232992,0.91786885,1.1770086,-1.5466543,-13.737929,0.29688102
6.2385025,4.671521,-2.3528569,0.8560835,1.1450506,-1.4939818,-13.776237,0.2777274
6.239729,4.6692553,-2.3528569,0.8560835,1.1450506,-1.4939818,-13.776237,0.2777274
6.24092,4.667166,-2.1738925,0.79216766,1.1098969,-1.4748282,-13.761871,0.25857377
6.24211,4.6650743,-2.1738925,0.79216766,1.1098969,-1.4748282,-13.761871,0.25857377
6.24328,4.663147,-1.986406,0.72825176,1.0747432,-1.5658079,-13.627796,0.05267244
6.2444835,4.661161,-1.986406,0.72825176,1.0747432,-1.5658079,-13.627796,0.05267244
6.2455697,4.6594877,-1.7935932,0.6622054,1.0342631,-1.4269443,-13.560759,0.15322891
6.2466607,4.657805,-1.7935932,0.6622054,1.0342631,-1.4269443,-13.560759,0.15322891
6.24773,4.6562862,-1.595454,0.5940285,0.9905873,-1.3263878,-13.584701,0.12449849
6.2487955,4.65477,-1.595454,0.5940285,0.9905873,-1.3263878,-13.584701,0.12449849
6.2498245,4.653449,-1.3898579,0.52798206,0.94478095,-1.5514427,-13.579912,0.07182605
6.250854,4.6521263,-1.3898579,0.52798206,0.94478095,-1.5514427,-13.579912,0.07182605
6.252505,4.6502557,-1.181066,0.4608704,0.8979093,-1.6424223,-13.627796,0.01436521
6.2528644,4.649848,-1.181066,0.4608704,0.8979093,-1.6424223,-13.627796,0.01436521
6.253797,4.648946,-0.96801317,0.3916282,0.84571135,-1.5610195,-13.733141,0.038307227
6.255049,4.6477337,-0.96801317,0.3916282,0.84571135,-1.5610195,-13.733141,0.038307227
6.2561746,4.646856,-0.7517645,0.3202555,0.79138285,-1.5801731,-14.049175,0.12449849
6.2566667,4.646472,-0.7517645,0.3202555,0.79138285,-1.5801731,-14.049175,0.12449849
6.257363,4.646077,-0.53125477,0.25207856,0.73492384,-1.9488802,-14.302961,0.18674773
6.257363,4.646077,-0.53125477,0.25207856,0.73492384,-1.9488802,-14.302961,0.18674773
6.2591004,4.645523,-0.30328816,0.1817711,0.67846483,-2.2266076,-14.5328045,0.11492168
6.259704,4.6453304,-0.30328816,0.1817711,0.67846483,-2.2266076,-14.5328045,0.11492168
6.259704,4.6453304,-0.30328816,0.1817711,0.67846483,-2.2266076,-14.5328045,0.11492168
6.261163,4.645289,-0.06999525,0.10507206,0.6230711,-2.336741,-14.753071,0.04309563
6.261163,4.645289,-0.06999525,0.10507206,0.6230711,-2.336741,-14.753071,0.04309563
6.262569,4.64573,0.16755873,0.023046698,0.562351,-2.2601264,-14.930242,-0.038307227
6.262569,4.64573,0.16755873,0.023046698,0.562351,-2.2601264,-14.930242,-0.038307227
6.2638445,4.646676,0.410439,-0.056848135,0.50056565,-2.207454,-15.045163,0.06703765
6.2643056,4.647253,0.65544987,-0.13461244,0.43771505,-2.1978772,-15.073894,0.062249243
6.2648687,4.647957,0.65544987,-0.13461244,0.43771505,-2.1978772,-15.073894,0.062249243
6.2653728,4.6489,0.90472174,-0.21131149,0.37166864,-2.3127987,-14.992491,-0.02873042
6.2653728,4.6489,0.90472174,-0.21131149,0.37166864,-2.3127987,-14.992491,-0.02873042
6.2664413,4.651046,1.1561241,-0.28801054,0.3013612,-2.3989902,-14.777013,-0.15322891
6.2670083,4.65256,1.1561241,-0.28801054,0.3013612,-2.3989902,-14.777013,-0.15322891
6.2672296,4.653382,1.4064612,-0.36897063,0.23105374,-2.4660277,-14.528016,-0.33518824
6.2677555,4.655335,1.4064612,-0.36897063,0.23105374,-2.4660277,-14.528016,-0.33518824
6.267979,4.6565275,1.6514721,-0.45419177,0.15755048,-2.3894134,-14.355634,-0.24899697
6.267979,4.6565275,1.6514721,-0.45419177,0.15755048,-2.3894134,-14.355634,-0.24899697
6.2685204,4.660787,1.8922219,-0.53621715,0.082981974,-2.3942018,-14.240712,-0.24420857
6.268705,4.6622405,1.8922219,-0.53621715,0.082981974,-2.3942018,-14.240712,-0.24420857
6.268876,4.664352,2.1255147,-0.61717725,0.008413466,-2.3127987,-14.015656,-0.320823
6.268876,4.664352,2.1255147,-0.61717725,0.008413466,-2.3127987,-14.015656,-0.320823
6.2690973,4.6695776,2.3534813,-0.6970721,-0.06828558,-2.3127987,-13.76666,-0.38307226
6.269173,4.671396,2.3534813,-0.6970721,-0.06828558,-2.3127987,-13.76666,-0.38307226
6.2691965,4.673977,2.5750563,-0.77483636,-0.14604989,-2.4181437,-13.512875,-0.4309563
6.2692294,4.6780124,2.5750563,-0.77483636,-0.14604989,-2.4181437,-13.512875,-0.4309563
6.269205,4.679215,2.7881093,-0.85366595,-0.22487944,-2.5474305,-13.244724,-0.4357447
6.269205,4.679215,2.7881093,-0.85366595,-0.22487944,-2.5474305,-13.244724,-0.4357447
6.269065,4.6847997,2.9894443,-0.9335608,-0.30264375,-2.5761611,-13.010092,-0.51235914
6.2689266,4.6877594,2.9894443,-0.9335608,-0.30264375,-2.5761611,-13.010092,-0.51235914
6.2689266,4.6877594,2.9894443,-0.9335608,-0.30264375,-2.5761611,-13.010092,-0.51235914
6.26845,4.694725,3.1801267,-1.0134556,-0.37721226,-2.552219,-12.823344,-0.51235914
6.2682214,4.6973333,3.3644173,-1.0901546,-0.44751972,-2.504335,-12.593501,-0.62728083
6.267929,4.7006254,3.3644173,-1.0901546,-0.44751972,-2.504335,-12.593501,-0.62728083
6.2675614,4.7040777,3.5369902,-1.1657884,-0.5199577,-2.4708161,-12.330139,-0.7038953
6.26719,4.7075195,3.5369902,-1.1657884,-0.5199577,-2.4708161,-12.330139,-0.7038953
6.266735,4.7111654,3.6989105,-1.2414222,-0.593461,-2.542642,-11.980585,-0.7278373
6.2662783,4.714783,3.6989105,-1.2414222,-0.593461,-2.542642,-11.980585,-0.7278373
6.2657404,4.718566,3.8491127,-1.3159907,-0.66483366,-2.4995465,-11.688493,-0.79008657
6.2657404,4.718566,3.8491127,-1.3159907,-0.66483366,-2.4995465,-11.688493,-0.79008657
6.2645507,4.7267046,3.9865317,-1.3905592,-0.7330106,-2.3223755,-11.358093,-0.8571242
6.264019,4.7300086,3.9865317,-1.3905592,-0.7330106,-2.3223755,-11.358093,-0.8571242
6.263311,4.734056,4.1132984,-1.4640625,-0.80012226,-2.2649148,-11.046846,-0.8762778
6.2625976,4.738093,4.1132984,-1.4640625,-0.80012226,-2.2649148,-11.046846,-0.8762778
6.261812,4.7422233,4.2315426,-1.53437,-0.8704297,-2.1404164,-10.869676,-0.7230489
6.261016,4.7463717,4.2315426,-1.53437,-0.8704297,-2.1404164,-10.869676,-0.7230489
6.259846,4.752022,4.343395,-1.6014816,-0.9396719,-1.7860745,-10.67814,-0.6464345
6.2592573,4.754837,4.343395,-1.6014816,-0.9396719,-1.7860745,-10.67814,-0.6464345
6.2582784,4.759209,4.447791,-1.6664628,-1.0099794,-1.5753847,-10.381259,-0.641646
6.256756,4.765934,4.447791,-1.6664628,-1.0099794,-1.5753847,-10.381259,-0.641646
6.2562814,4.767905,4.5415344,-1.723987,-1.0834826,-1.3838485,-10.184934,-0.46926352
6.2547174,4.7743516,4.5415344,-1.723987,-1.0834826,-1.3838485,-10.184934,-0.46926352
6.2540107,4.7770796,4.624625,-1.7740544,-1.1580511,-1.2689269,-9.868899,-0.51235914
6.252636,4.7823486,4.624625,-1.7740544,-1.1580511,-1.2689269,-9.868899,-0.51235914
6.252636,4.7823486,4.624625,-1.7740544,-1.1580511,-1.2689269,-9.868899,-0.51235914
6.2501206,4.7914042,4.693867,-1.8187956,-1.2283586,-1.1013328,-9.701305,-0.48841715
6.249014,4.795192,4.748196,-1.8582103,-1.2997313,-1.0726024,-9.543288,-0.32561144
6.247704,4.7996454,4.748196,-1.8582103,-1.2997313,-1.0726024,-9.543288,-0.32561144
6.2462654,4.804265,4.7918715,-1.8912336,-1.3647125,-0.866701,-9.308656,-0.4213795
6.2448087,4.8089094,4.7918715,-1.8912336,-1.3647125,-0.866701,-9.308656,-0.4213795
6.243277,4.813553,4.8227644,-1.9221262,-1.4243672,-0.6368576,-9.021352,-0.4165911
6.2417226,4.8182354,4.8227644,-1.9221262,-1.4243672,-0.6368576,-9.021352,-0.4165911
6.24008,4.822889,4.837678,-1.945562,-1.4829568,-0.18195933,-8.686164,-0.48362875
6.238424,4.8275537,4.837678,-1.945562,-1.4829568,-0.18195933,-8.686164,-0.48362875
6.2366786,4.8321953,4.834482,-1.9583452,-1.5415463,0.21547815,-8.360553,-0.4165911
6.2349186,4.836852,4.834482,-1.9583452,-1.5415463,0.21547815,-8.360553,-0.4165911
6.2330494,4.8414793,4.813177,-1.9604757,-1.5990705,0.866701,-8.034941,-0.39264908
6.2311726,4.8461075,4.813177,-1.9604757,-1.5990705,0.866701,-8.034941,-0.39264908
6.2292128,4.85068,4.772697,-1.9487578,-1.6576601,1.3311762,-7.7667904,-0.47405192
6.2272334,4.8552814,4.772697,-1.9487578,-1.6576601,1.3311762,-7.7667904,-0.47405192
6.2251797,4.8597946,4.7109118,-1.9199957,-1.717315,1.8339585,-7.455544,-0.36391866
6.2231097,4.8643265,4.7109118,-1.9199957,-1.717315,1.8339585,-7.455544,-0.36391866
6.220965,4.8687825,4.6299515,-1.8741893,-1.778035,2.1787236,-7.1395097,-0.2633622
6.218815,4.873235,4.6299515,-1.8741893,-1.778035,2.1787236,-7.1395097,-0.2633622
6.216592,4.877601,4.5298166,-1.8177303,-1.8387551,2.4133554,-7.1107793,0.0047884034
6.2143598,4.8819714,4.5298166,-1.8177303,-1.8387551,2.4133554,-7.1107793,0.0047884034
6.2120605,4.8862286,4.4115725,-1.7527492,-1.902671,3.0885203,-6.181829,0.06703765
6.209784,4.8904305,4.4115725,-1.7527492,-1.902671,3.0885203,-6.181829,0.06703765
6.2074246,4.8945637,4.2752185,-1.6728543,-1.9601953,3.4715924,-6.2632318,0.076614454
6.205061,4.898694,4.2752185,-1.6728543,-1.9601953,3.4715924,-6.2632318,0.076614454
6.2027097,4.9026294,4.115429,-1.5663279,-1.9985448,2.3558946,-4.927267,-0.79008657
6.20035,4.9065704,4.115429,-1.5663279,-1.9985448,2.3558946,-4.927267,-0.79008657
6.1977115,4.9107475,3.9247465,-1.4651277,-2.0187848,2.2026656,-4.2521024,-0.32561144
6.1955442,4.914173,3.9247465,-1.4651277,-2.0187848,2.2026656,-4.2521024,-0.32561144
6.193169,4.9177628,3.705302,-1.3351655,-2.0081322,3.0358477,-4.8602295,-0.023942016
6.1908054,4.921329,3.705302,-1.3351655,-2.0081322,3.0358477,-4.8602295,-0.023942016
6.188517,4.924623,3.4901185,-1.2403569,-1.9921532,3.1651347,-4.7548847,-0.25857377
6.1861897,4.92797,3.4901185,-1.2403569,-1.9921532,3.1651347,-4.7548847,-0.25857377
6.1838927,4.931134,3.2749352,-1.1338305,-1.9655216,4.19943,-4.2281604,-0.31603462
6.181594,4.9342976,3.2749352,-1.1338305,-1.9655216,4.19943,-4.2281604,-0.31603462
6.179364,4.9372425,3.052295,-0.99747664,-1.9261068,3.9791632,-3.572149,-0.641646
6.177133,4.9401865,3.052295,-0.99747664,-1.9261068,3.9791632,-3.572149,-0.641646
6.174753,4.94318,2.819002,-0.857927,-1.886692,3.8067808,-3.2704794,-0.9768343
6.172772,4.9456706,2.819002,-0.857927,-1.886692,3.8067808,-3.2704794,-0.9768343
6.17073,4.948104,2.5665343,-0.7173121,-1.8334287,3.371036,-3.016694,-1.1444284
6.1686754,4.9505515,2.5665343,-0.7173121,-1.8334287,3.371036,-3.016694,-1.1444284
6.166725,4.9527473,2.2885003,-0.5703056,-1.7503382,3.1890767,-2.7724855,-1.2210429
6.1647735,4.954945,2.2885003,-0.5703056,-1.7503382,3.1890767,-2.7724855,-1.2210429
6.162957,4.956865,1.9891609,-0.42756018,-1.6384854,3.122039,-2.5953147,-1.0726024
6.161134,4.9587927,1.9891609,-0.42756018,-1.6384854,3.122039,-2.5953147,-1.0726024
6.1594796,4.960412,1.6749079,-0.29120633,-1.5063926,2.7964275,-2.7006595,-0.7517793
6.157838,4.9620204,1.6749079,-0.29120633,-1.5063926,2.7964275,-2.7006595,-0.7517793
6.1563478,4.9633465,1.3595897,-0.16763563,-1.3647125,2.8491,-2.9400797,-0.32561144
6.154849,4.964681,1.3595897,-0.16763563,-1.3647125,2.8491,-2.9400797,-0.32561144
6.1535316,4.965721,1.0485325,-0.051521815,-1.2145101,2.992752,-3.241749,0.12449849
6.1522093,4.9667645,1.0485325,-0.051521815,-1.2145101,2.992752,-3.241749,0.12449849
6.1510625,4.967533,0.7481279,0.059265688,-1.056851,3.289633,-3.4045548,0.39264908
6.149917,4.968301,0.7481279,0.059265688,-1.056851,3.289633,-3.4045548,0.39264908
6.148957,4.9687986,0.45837593,0.1700532,-0.89599603,3.3183637,-3.5577838,0.6751649
6.1479926,4.9692984,0.45837593,0.1700532,-0.89599603,3.3183637,-3.5577838,0.6751649
6.147219,4.969537,0.18140717,0.28616703,-0.7330106,3.3806129,-3.6391866,0.82360536
6.146445,4.969775,0.18140717,0.28616703,-0.7330106,3.3806129,-3.6391866,0.82360536
6.1458554,4.96976,-0.08703948,0.40441138,-0.5732209,3.3901896,-3.8115692,0.9624691
6.145266,4.9697456,-0.08703948,0.40441138,-0.5732209,3.3901896,-3.8115692,0.9624691
6.1448574,4.9694715,-0.35122505,0.52478623,-0.4176923,3.2130187,-3.98874,0.8810662
6.1444473,4.969197,-0.35122505,0.52478623,-0.4176923,3.2130187,-3.98874,0.8810662
6.1442137,4.9686728,-0.60901904,0.6440959,-0.26642478,3.0262709,-4.357447,0.94810385
6.1439795,4.968149,-0.60901904,0.6440959,-0.26642478,3.0262709,-4.357447,0.94810385
6.143913,4.967381,-0.858291,0.75594866,-0.12261406,2.5330653,-4.5537715,0.9720459
6.143845,4.966613,-0.858291,0.75594866,-0.12261406,2.5330653,-4.5537715,0.9720459
6.1439323,4.965621,-1.0979755,0.85182244,0.013739788,2.135628,-4.8458643,1.1252748
6.1440196,4.964625,-1.0979755,0.85182244,0.013739788,2.135628,-4.8458643,1.1252748
6.144247,4.963423,-1.325942,0.93278253,0.139441,2.0350714,-4.9320555,1.292869
6.1444736,4.962222,-1.325942,0.93278253,0.139441,2.0350714,-4.9320555,1.292869
6.144831,4.9608197,-1.5443213,1.0041553,0.25448954,2.327164,-4.9703627,1.4460979
6.145187,4.9594173,-1.5443213,1.0041553,0.25448954,2.327164,-4.9703627,1.4460979
6.145657,4.9578156,-1.7584394,1.0733974,0.35249388,2.6240451,-5.070919,1.6232687
6.1461263,4.956214,-1.7584394,1.0733974,0.35249388,2.6240451,-5.070919,1.6232687
6.1466956,4.954421,-1.9682965,1.1437049,0.43238872,2.5139117,-5.3247046,1.8626889
6.1472626,4.9526315,-1.9682965,1.1437049,0.43238872,2.5139117,-5.3247046,1.8626889
6.1479216,4.950662,-2.1738925,1.2140124,0.49523932,1.934515,-5.650316,2.0015526
6.1485796,4.9486933,-2.1738925,1.2140124,0.49523932,1.934515,-5.650316,2.0015526
6.149338,4.9465556,-2.3741622,1.2800587,0.5442415,1.484405,-5.9184666,2.2170308
6.150094,4.9444175,-2.3741622,1.2800587,0.5442415,1.484405,-5.9184666,2.2170308
6.1509337,4.9421005,-2.5680404,1.3354526,0.5857868,1.2210429,-6.133945,2.3798366
6.1517715,4.93978,-2.5680404,1.3354526,0.5857868,1.2210429,-6.133945,2.3798366
6.1527376,4.9371395,-2.755527,1.3801936,0.6230711,0.94331545,-6.555324,2.4516625
6.153628,4.9346952,-2.755527,1.3801936,0.6230711,0.94331545,-6.555324,2.4516625
6.1546,4.9320602,-2.9344914,1.4142821,0.65609425,0.5554548,-6.9623384,2.552219
6.155604,4.929325,-2.9344914,1.4142821,0.65609425,0.5554548,-6.9623384,2.552219
6.1566486,4.926457,-3.101738,1.4366527,0.6816606,0.20590134,-7.4986396,2.6623523
6.1576595,4.923668,-3.101738,1.4366527,0.6816606,0.20590134,-7.4986396,2.6623523
6.159447,4.9186134,-3.2583318,1.4451747,0.6997701,0,-7.9343843,2.6240451
6.1598315,4.9175186,-3.2583318,1.4451747,0.6997701,0,-7.9343843,2.6240451
6.16129,4.913238,-3.4021425,1.4451747,0.7178796,0.009576807,-8.360553,2.6767175
6.1619515,4.911285,-3.4021425,1.4451747,0.7178796,0.009576807,-8.360553,2.6767175
6.1634464,4.9067407,-3.5321047,1.4398484,0.731728,0.05746084,-8.738836,2.6431987
6.1641355,4.9046326,-3.5321047,1.4398484,0.731728,0.05746084,-8.738836,2.6431987
6.1651964,4.9012804,-3.6514144,1.4334568,0.73705435,0.062249243,-9.054871,2.6240451
6.16673,4.8964024,-3.6514144,1.4334568,0.73705435,0.062249243,-9.054871,2.6240451
6.167411,4.894174,-3.7600713,1.430261,0.73918486,0.05746084,-9.303867,2.504335
6.1688294,4.889505,-3.7600713,1.430261,0.73918486,0.05746084,-9.303867,2.504335
6.169572,4.887002,-3.8580756,1.4249347,0.7381196,-0.18674773,-9.428367,2.3989902
6.1706643,4.8833017,-3.8580756,1.4249347,0.7381196,-0.18674773,-9.428367,2.3989902
6.171738,4.8795886,-3.9464927,1.4164126,0.7381196,-0.32561144,-9.576807,2.1883004
6.17341,4.873765,-3.9464927,1.4164126,0.7381196,-0.32561144,-9.576807,2.1883004
6.1738443,4.8722143,-4.0242567,1.4068252,0.7402502,-0.31603462,-9.734824,2.135628
6.1749153,4.8683767,-4.0242567,1.4068252,0.7402502,-0.31603462,-9.734824,2.135628
6.175978,4.8644953,-4.088173,1.394042,0.7423807,-0.32561144,-9.797073,2.0350714
6.177519,4.8588266,-4.088173,1.394042,0.7423807,-0.32561144,-9.797073,2.0350714
6.1784863,4.855216,-4.1382403,1.3801936,0.7445112,-0.4213795,-10.065224,1.8818425
6.179624,4.850945,-4.1382403,1.3801936,0.7445112,-0.4213795,-10.065224,1.8818425
6.1802354,4.8486233,-4.1797857,1.3684757,0.74664176,-0.521936,-10.333375,1.7621324
6.181271,4.844673,-4.1797857,1.3684757,0.74664176,-0.521936,-10.333375,1.7621324
6.1827207,4.8390956,-4.2085476,1.353562,0.751968,-0.5315128,-10.500969,1.5945383
6.1834817,4.836151,-4.2085476,1.353562,0.751968,-0.5315128,-10.500969,1.5945383
6.184819,4.830944,-4.2277226,1.3322567,0.7583597,-0.5410896,-10.692505,1.4700398
6.185602,4.827881,-4.2277226,1.3322567,0.7583597,-0.5410896,-10.692505,1.4700398
6.185602,4.827881,-4.2277226,1.3322567,0.7583597,-0.5410896,-10.692505,1.4700398
6.1878,4.819255,-4.2351794,1.3098862,0.767947,-0.58897364,-10.907983,1.4700398
6.1887136,4.815675,-4.2309184,1.2843198,0.77966493,-0.59855044,-11.15698,1.3934253
6.18975,4.8115926,-4.2309184,1.2843198,0.77966493,-0.59855044,-11.15698,1.3934253
6.190782,4.807563,-4.2128086,1.2555577,0.7924481,-0.7278373,-11.243171,1.1731589
6.192352,4.8013973,-4.2128086,1.2555577,0.7924481,-0.7278373,-11.243171,1.1731589
6.1928887,4.7993145,-4.1829815,1.224665,0.8062965,-0.8714894,-11.506534,1.0582372
6.194244,4.7940326,-4.1829815,1.224665,0.8062965,-0.8714894,-11.506534,1.0582372
6.194982,4.7912045,-4.141436,1.1905766,0.8222755,-1.0726024,-11.803414,1.0869676
6.1967087,4.784559,-4.141436,1.1905766,0.8222755,-1.0726024,-11.803414,1.0869676
6.197019,4.783358,-4.141436,1.1905766,0.8222755,-1.0726024,-11.803414,1.0869676
6.1980886,4.7793374,-4.088173,1.1532923,0.84464604,-1.0582372,-12.191275,1.0773908
6.1980886,4.7793374,-4.088173,1.1532923,0.84464604,-1.0582372,-12.191275,1.0773908
6.2004,4.77089,-4.0242567,1.111747,0.86808187,-1.0103531,-12.401965,1.0821792
6.2013474,4.7675476,-3.9454274,1.0659406,0.8947135,-1.0773908,-12.545617,0.9720459
6.2024775,4.763545,-3.9454274,1.0659406,0.8947135,-1.0773908,-12.545617,0.9720459
6.2024775,4.763545,-3.9454274,1.0659406,0.8947135,-1.0773908,-12.545617,0.9720459
6.2048674,4.755416,-3.851684,1.0201342,0.9213451,-1.091756,-12.674904,0.93373865
6.205746,4.752549,-3.750484,0.97432786,0.94691145,-1.1923125,-12.794614,0.7469909
6.2069526,4.748604,-3.750484,0.97432786,0.94691145,-1.1923125,-12.794614,0.7469909
6.2080398,4.745206,-3.6375659,0.92639095,0.97141254,-1.3072342,-13.010092,0.48841715
6.2080398,4.745206,-3.6375659,0.92639095,0.97141254,-1.3072342,-13.010092,0.48841715
6.211748,4.733737,-3.5150604,0.878454,0.9959136,-1.4317327,-13.115437,0.39743748
6.2121053,4.7326684,-3.5150604,0.878454,0.9959136,-1.4317327,-13.115437,0.39743748
6.212531,4.731465,-3.384033,0.8262561,1.0204147,-1.4796166,-13.230358,0.31124622
6.2137046,4.7281413,-3.384033,0.8262561,1.0204147,-1.4796166,-13.230358,0.31124622
6.2148705,4.7248325,-3.384033,0.8262561,1.0204147,-1.4796166,-13.230358,0.31124622
6.2148705,4.7248325,-3.243418,0.77299285,1.0449158,-1.508347,-13.402741,0.36870706
6.2178717,4.716972,-3.0921504,0.7154686,1.0683516,-1.5179238,-13.565547,0.34476504
6.2187634,4.7147326,-3.0921504,0.7154686,1.0683516,-1.5179238,-13.565547,0.34476504
6.2204895,4.7106743,-2.9344914,0.6579443,1.0875263,-1.6041151,-13.690045,0.29688102
6.220904,4.7097,-2.9344914,0.6579443,1.0875263,-1.6041151,-13.690045,0.29688102
6.222129,4.7068133,-2.9344914,0.6579443,1.0875263,-1.6041151,-13.690045,0.29688102
6.223302,4.7042418,-2.7672448,0.60255057,1.1056359,-1.6232687,-13.781025,0.30166942
6.224534,4.701536,-2.7672448,0.60255057,1.1056359,-1.6232687,-13.781025,0.30166942
6.225779,4.6990137,-2.590411,0.5471568,1.1237453,-1.5370775,-14.030022,0.29209262
6.225779,4.6990137,-2.590411,0.5471568,1.1237453,-1.5370775,-14.030022,0.29209262
6.2285495,4.6934357,-2.4071856,0.49176306,1.138659,-1.7046716,-14.025233,0.14844051
6.2295985,4.691477,-2.4071856,0.49176306,1.138659,-1.7046716,-14.025233,0.14844051
6.2308683,4.6893177,-2.2165031,0.4363693,1.1514422,-1.5035586,-14.101848,0.14844051
6.2321405,4.687153,-2.2165031,0.4363693,1.1514422,-1.5035586,-14.101848,0.14844051
6.233425,4.685176,-2.022625,0.38310608,1.1610296,-1.4748282,-14.159308,0.12449849
6.23471,4.6831965,-2.022625,0.38310608,1.1610296,-1.4748282,-14.159308,0.12449849
6.2360005,4.681416,-1.8223553,0.33623445,1.1674212,-1.757344,-14.164097,0.023942016
6.23728,4.6796484,-1.8223553,0.33623445,1.1674212,-1.757344,-14.164097,0.023942016
6.2385755,4.678064,-1.6188898,0.28616703,1.1674212,-1.6041151,-14.111424,0
6.2398586,4.676494,-1.6188898,0.28616703,1.1674212,-1.6041151,-14.111424,0
6.2411456,4.675119,-1.414359,0.23609959,1.1642255,-1.5275006,-14.092271,-0.06703765
6.2424326,4.6737432,-1.414359,0.23609959,1.1642255,-1.5275006,-14.092271,-0.06703765
6.2437115,4.6725717,-1.2055671,0.18922795,1.1535728,-1.7190368,-14.135366,-0.095768064
6.244987,4.6714034,-1.2055671,0.18922795,1.1535728,-1.7190368,-14.135366,-0.095768064
6.2462506,4.67044,-0.9946448,0.13809526,1.1365285,-1.8914193,-14.15452,-0.11492168
6.247519,4.6694736,-0.9946448,0.13809526,1.1365285,-1.8914193,-14.15452,-0.11492168
6.248755,4.6687226,-0.78052664,0.082701504,1.1098969,-1.9057846,-14.197616,-0.18195933
6.2500057,4.6679635,-0.78052664,0.082701504,1.1098969,-1.9057846,-14.197616,-0.18195933
6.251196,4.6674323,-0.56640846,0.023046698,1.0747432,-1.7477672,-14.312538,-0.19153613
6.2524114,4.6668906,-0.56640846,0.023046698,1.0747432,-1.7477672,-14.312538,-0.19153613
6.253562,4.666575,-0.35122505,-0.032347053,1.0321326,-1.7812861,-14.5328045,-0.110133275
6.254725,4.6662564,-0.35122505,-0.032347053,1.0321326,-1.7812861,-14.5328045,-0.110133275
6.2558427,4.6661544,-0.13391112,-0.082414486,0.9863262,-1.910573,-14.719552,-0.08140286
6.256959,4.666053,-0.13391112,-0.082414486,0.9863262,-1.910573,-14.719552,-0.08140286
6.258029,4.666164,0.085533366,-0.13354717,0.9319978,-2.030283,-14.834474,-0.18195933
6.2591,4.666275,0.085533366,-0.13354717,0.9319978,-2.030283,-14.834474,-0.18195933
6.2601113,4.666605,0.30817363,-0.18361461,0.8734082,-2.1691468,-14.867992,-0.19153613
6.2611256,4.666936,0.30817363,-0.18361461,0.8734082,-2.1691468,-14.867992,-0.19153613
6.262078,4.6674914,0.53507495,-0.2347473,0.8073618,-2.078167,-14.877569,-0.24899697
6.2630305,4.668047,0.53507495,-0.2347473,0.8073618,-2.078167,-14.877569,-0.24899697
6.263911,4.6688223,0.76091105,-0.28694525,0.7359891,-2.0973208,-14.805743,-0.2777274
6.2647953,4.669601,0.76091105,-0.28694525,0.7359891,-2.0973208,-14.805743,-0.2777274
6.2656016,4.6706147,0.98781234,-0.33701268,0.6592901,-2.1883004,-14.733917,-0.10055647
6.2663646,4.671573,0.98781234,-0.33701268,0.6592901,-2.1883004,-14.733917,-0.10055647
6.2670894,4.672805,1.2115179,-0.38921064,0.57726467,-2.207454,-14.551958,-0.10534488
6.267848,4.674094,1.2115179,-0.38921064,0.57726467,-2.207454,-14.551958,-0.10534488
6.2684855,4.675546,1.433093,-0.44353914,0.489913,-2.2936451,-14.293385,-0.04309563
6.2691298,4.6770134,1.433093,-0.44353914,0.489913,-2.2936451,-14.293385,-0.04309563
6.2696724,4.6786675,1.6525373,-0.4957371,0.4004308,-2.3989902,-14.06354,0.02873042
6.2702217,4.680341,1.6525373,-0.4957371,0.4004308,-2.3989902,-14.06354,0.02873042
6.270683,4.682233,1.8687861,-0.55113083,0.3098833,-2.528277,-13.8480625,0.047884032
6.2711396,4.68411,1.8687861,-0.55113083,0.3098833,-2.528277,-13.8480625,0.047884032
6.271508,4.6862116,2.0807736,-0.6129162,0.21933582,-2.542642,-13.618219,0.1340753
6.2718763,4.6883154,2.0807736,-0.6129162,0.21933582,-2.542642,-13.618219,0.1340753
6.272153,4.690617,2.2863698,-0.6747015,0.12772308,-2.5570073,-13.417107,0.1388637
6.272428,4.692915,2.2863698,-0.6747015,0.12772308,-2.5570073,-13.417107,0.1388637
6.2726097,4.6954184,2.4855742,-0.73861736,0.031849284,-2.657564,-13.168109,0.06703765
6.272788,4.6978908,2.4855742,-0.73861736,0.031849284,-2.657564,-13.168109,0.06703765
6.272871,4.7005873,2.6773217,-0.8067943,-0.065089785,-2.791639,-12.938266,0.062249243
6.2729516,4.703277,2.6773217,-0.8067943,-0.065089785,-2.791639,-12.938266,0.062249243
6.2729383,4.7061763,2.863743,-0.87816703,-0.15883306,-2.7724855,-12.708423,-0.08619126
6.272923,4.708982,2.863743,-0.87816703,-0.15883306,-2.7724855,-12.708423,-0.08619126
6.2728105,4.7119856,3.040577,-0.95273554,-0.25470686,-2.705448,-12.406754,-0.16759412
6.2726946,4.715005,3.040577,-0.95273554,-0.25470686,-2.705448,-12.406754,-0.16759412
6.272482,4.7181864,3.205693,-1.0262388,-0.34738487,-2.6431987,-12.229582,-0.23463176
6.272266,4.721369,3.205693,-1.0262388,-0.34738487,-2.6431987,-12.229582,-0.23463176
6.271953,4.7247005,3.3622868,-1.1040031,-0.44006288,-2.5091233,-11.990162,-0.24899697
6.271636,4.7280293,3.3622868,-1.1040031,-0.44006288,-2.5091233,-11.990162,-0.24899697
6.27122,4.7314963,3.5103586,-1.183898,-0.5327409,-2.4612393,-11.664551,-0.31124622
6.2707996,4.7349644,3.5103586,-1.183898,-0.5327409,-2.4612393,-11.664551,-0.31124622
6.270279,4.7385683,3.648843,-1.2627275,-0.62435365,-2.3942018,-11.420342,-0.35434186
6.2697544,4.7421627,3.648843,-1.2627275,-0.62435365,-2.3942018,-11.420342,-0.35434186
6.2691298,4.745891,3.7788053,-1.3426223,-0.71596634,-2.3511062,-11.147403,-0.34476504
6.268501,4.749605,3.7788053,-1.3426223,-0.71596634,-2.3511062,-11.147403,-0.34476504
6.2677755,4.753457,3.902376,-1.4182562,-0.80438334,-2.15957,-11.022904,-0.16280572
6.2670445,4.7573023,3.902376,-1.4182562,-0.80438334,-2.15957,-11.022904,-0.16280572
6.266216,4.7612567,4.019555,-1.4896288,-0.89066976,-1.9393034,-10.82658,-0.17717093
6.2653813,4.765204,4.019555,-1.4896288,-0.89066976,-1.9393034,-10.82658,-0.17717093
6.264446,4.7692633,4.128212,-1.5610015,-0.9790867,-1.8818425,-10.529699,-0.17717093
6.263505,4.7733107,4.128212,-1.5610015,-0.9790867,-1.8818425,-10.529699,-0.17717093
6.262463,4.777462,4.2272816,-1.6270479,-1.0664383,-1.685518,-10.299856,-0.10055647
6.261416,4.781602,4.2272816,-1.6270479,-1.0664383,-1.685518,-10.299856,-0.10055647
6.2602673,4.785833,4.313568,-1.687768,-1.1548554,-1.5131354,-10.0748005,-0.009576807
6.2591624,4.7898703,4.313568,-1.687768,-1.1548554,-1.5131354,-10.0748005,-0.009576807
6.2579103,4.79416,4.386006,-1.744227,-1.2379459,-1.3694834,-9.921572,0.023942016
6.256596,4.7986255,4.386006,-1.744227,-1.2379459,-1.3694834,-9.921572,0.023942016
6.255243,4.802973,4.4456606,-1.7953597,-1.3178408,-1.2306197,-9.749189,0.12928689
6.2538886,4.80729,4.4456606,-1.7953597,-1.3178408,-1.2306197,-9.749189,0.12928689
6.252432,4.8116674,4.4935975,-1.8401009,-1.3956051,-0.92416185,-9.548077,0.19632454
6.2509465,4.8160973,4.4935975,-1.8401009,-1.3956051,-0.92416185,-9.548077,0.19632454
6.2493815,4.8205214,4.527686,-1.8773851,-1.4723041,-0.6703765,-9.471462,0.34476504
6.2477975,4.8249674,4.527686,-1.8773851,-1.4723041,-0.6703765,-9.471462,0.34476504
6.246161,4.829301,4.548991,-1.9072125,-1.5479379,-0.46926352,-9.390059,0.36870706
6.244497,4.8336787,4.548991,-1.9072125,-1.5479379,-0.46926352,-9.390059,0.36870706
6.24272,4.838075,4.558579,-1.9285178,-1.6203759,-0.18195933,-9.078813,0.39264908
6.2409315,4.8424773,4.558579,-1.9285178,-1.6203759,-0.18195933,-9.078813,0.39264908
6.2370796,4.851365,4.558579,-1.941301,-1.6874876,0.16759412,-9.002198,0.51714754
6.2370796,4.851365,4.558579,-1.941301,-1.6874876,0.16759412,-9.002198,0.51714754
6.234331,4.857256,4.5457954,-1.941301,-1.7524687,0.58897364,-8.7771435,0.5746084
6.2326927,4.8607593,4.5457954,-1.941301,-1.7524687,0.58897364,-8.7771435,0.5746084
6.230705,4.864721,4.5202293,-1.9274526,-1.8174498,1.4891934,-8.379706,0.5650316
6.227855,4.870378,4.5202293,-1.9274526,-1.8174498,1.4891934,-8.379706,0.5650316
6.226255,4.8734426,4.4765534,-1.889103,-1.8749741,1.6711528,-7.967903,0.39264908
6.223373,4.8789444,4.4765534,-1.889103,-1.8749741,1.6711528,-7.967903,0.39264908
6.2217526,4.881927,4.4126377,-1.828383,-1.9261068,2.054225,-7.489063,0.10534488
6.2217526,4.881927,4.4126377,-1.828383,-1.9261068,2.054225,-7.489063,0.10534488
6.217104,4.8901186,4.325286,-1.7570102,-1.9772395,2.9735985,-6.8091097,-0.29209262
6.214747,4.8942547,4.325286,-1.7570102,-1.9772395,2.9735985,-6.8091097,-0.29209262
6.2123613,4.8982544,4.204911,-1.6653974,-2.0273068,3.572149,-6.0046577,-0.62249243
6.209971,4.902251,4.204911,-1.6653974,-2.0273068,3.572149,-6.0046577,-0.62249243
6.209971,4.902251,4.204911,-1.6653974,-2.0273068,3.572149,-6.0046577,-0.62249243
6.204815,4.910431,3.850178,-1.4107993,-2.0869617,4.1611223,-5.056554,-0.6512229
6.20191,4.914832,3.850178,-1.4107993,-2.0869617,4.1611223,-5.056554,-0.6512229
6.199778,4.9180565,3.850178,-1.4107993,-2.0869617,4.1611223,-5.056554,-0.6512229
6.199778,4.9180565,3.850178,-1.4107993,-2.0869617,4.1611223,-5.056554,-0.6512229
6.195054,4.9248533,3.6190155,-1.2669885,-2.0869617,2.815581,-3.2034419,-1.6328455
6.1926603,4.928088,3.3484385,-1.1295694,-2.0699174,3.3806129,-2.5617957,-1.0007763
6.1903605,4.931193,3.3484385,-1.1295694,-2.0699174,3.3806129,-2.5617957,-1.0007763
6.1903605,4.931193,3.3484385,-1.1295694,-2.0699174,3.3806129,-2.5617957,-1.0007763
6.185591,4.9372225,2.7391071,-0.8185122,-1.9697826,2.695871,-4.261679,-0.4261679
6.183597,4.939591,2.7391071,-0.8185122,-1.9697826,2.695871,-4.261679,-0.4261679
6.181387,4.9422145,2.7391071,-0.8185122,-1.9697826,2.695871,-4.261679,-0.4261679
6.181387,4.9422145,2.7391071,-0.8185122,-1.9697826,2.695871,-4.261679,-0.4261679
6.1764264,4.947677,2.174517,-0.5681751,-1.8185151,2.705448,-3.7493198,-0.37828386
6.175123,4.949029,2.174517,-0.5681751,-1.8185151,2.705448,-3.7493198,-0.37828386
6.175123,4.949029,2.174517,-0.5681751,-1.8185151,2.705448,-3.7493198,-0.37828386
6.170686,4.953594,1.9028745,-0.4446044,-1.7194455,2.6671407,-3.5625722,-0.16759412
6.1691914,4.955044,1.9028745,-0.4446044,-1.7194455,2.6671407,-3.5625722,-0.16759412
6.1691914,4.955044,1.9028745,-0.4446044,-1.7194455,2.6671407,-3.5625722,-0.16759412
6.1653214,4.9585133,1.3787644,-0.19533251,-1.4733694,2.231396,-4.0174704,0.19632454
6.164168,4.9594817,1.3787644,-0.19533251,-1.4733694,2.231396,-4.0174704,0.19632454
6.162581,4.9608135,1.3787644,-0.19533251,-1.4733694,2.231396,-4.0174704,0.19632454
6.1611524,4.961929,1.1337535,-0.08561028,-1.3221018,2.2984335,-4.4340615,0.48362875
6.15967,4.963086,1.1337535,-0.08561028,-1.3221018,2.2984335,-4.4340615,0.48362875
6.1584888,4.9639387,0.9089828,0.012394054,-1.1623122,2.360683,-5.080496,0.7469909
6.1568227,4.965142,0.9089828,0.012394054,-1.1623122,2.360683,-5.080496,0.7469909
6.156102,4.965623,0.7097783,0.099745736,-1.000392,2.2936451,-5.592855,1.0247183
6.1550236,4.9663434,0.7097783,0.099745736,-1.000392,2.2936451,-5.592855,1.0247183
6.154122,4.9668927,0.5425318,0.17644478,-0.84273285,2.1499932,-6.019023,1.091756
6.1532207,4.9674425,0.5425318,0.17644478,-0.84273285,2.1499932,-6.019023,1.091756
6.1524825,4.9678555,0.40191692,0.24249117,-0.6946611,2.0111294,-6.3350577,1.2785037
6.1517425,4.9682703,0.40191692,0.24249117,-0.6946611,2.0111294,-6.3350577,1.2785037
6.1517425,4.9682703,0.40191692,0.24249117,-0.6946611,2.0111294,-6.3350577,1.2785037
6.150338,4.968994,0.19099455,0.36073554,-0.4155618,1.4939818,-6.8905125,1.6759412
6.1500916,4.969117,0.19099455,0.36073554,-0.4155618,1.4939818,-6.8905125,1.6759412
6.1493616,4.9694796,0.19099455,0.36073554,-0.4155618,1.4939818,-6.8905125,1.6759412
6.1489215,4.969718,0.11003445,0.4118682,-0.2802732,1.3311762,-7.1395097,1.8579005
6.1489215,4.969718,0.11003445,0.4118682,-0.2802732,1.3311762,-7.1395097,1.8579005
6.14873,4.9699116,0.03866173,0.451283,-0.154572,1.2689269,-7.3645644,2.0446482
6.148623,4.970019,0.03866173,0.451283,-0.154572,1.2689269,-7.3645644,2.0446482
6.1486073,4.9701347,-0.018862553,0.47684935,-0.039523434,1.2785037,-7.489063,2.1404164
6.1485915,4.970252,-0.018862553,0.47684935,-0.039523434,1.2785037,-7.489063,2.1404164
6.1486406,4.970269,-0.068929985,0.4938936,0.06167669,1.4652514,-7.5704656,2.0685902
6.1486897,4.970287,-0.068929985,0.4938936,0.06167669,1.4652514,-7.5704656,2.0685902
6.1488256,4.9702415,-0.12112794,0.5109378,0.1479631,1.5370775,-7.4842744,2.0254946
6.148959,4.9701967,-0.12112794,0.5109378,0.1479631,1.5370775,-7.4842744,2.0254946
6.1491737,4.9700594,-0.18078275,0.53011256,0.2172053,1.8483237,-7.2209125,1.8243817
6.149372,4.9699326,-0.18078275,0.53011256,0.2172053,1.8483237,-7.2209125,1.8243817
6.149635,4.969722,-0.25215548,0.55248314,0.268338,2.111686,-6.9383965,1.6472107
6.1498976,4.9695115,-0.25215548,0.55248314,0.268338,2.111686,-6.9383965,1.6472107
6.150205,4.9691935,-0.34163767,0.58124524,0.29923066,2.030283,-6.579266,1.3503298
6.150513,4.968875,-0.34163767,0.58124524,0.29923066,2.030283,-6.579266,1.3503298
6.1508555,4.9684362,-0.4492294,0.6132032,0.31414437,1.8148049,-6.349423,1.1923125
6.1511965,4.967999,-0.4492294,0.6132032,0.31414437,1.8148049,-6.349423,1.1923125
6.15159,4.9674,-0.5781264,0.64516115,0.31840542,1.436521,-6.196194,1.0199299
6.1519694,4.9668207,-0.5781264,0.64516115,0.31840542,1.436521,-6.196194,1.0199299
6.152387,4.9660783,-0.7240676,0.6771191,0.31414437,1.1731589,-6.14831,1.0007763
6.1528034,4.9653373,-0.7240676,0.6771191,0.31414437,1.1731589,-6.14831,1.0007763
6.153246,4.9644346,-0.8806615,0.70588124,0.3034917,0.9720459,-6.1770406,1.0390835
6.153685,4.9635353,-0.8806615,0.70588124,0.3034917,0.9720459,-6.1770406,1.0390835
6.1541777,4.962469,-1.0447122,0.7314476,0.2917738,0.6991069,-6.2967505,1.1109096
6.154671,4.9613967,-1.0447122,0.7314476,0.2917738,0.6991069,-6.2967505,1.1109096
6.15516,4.960164,-1.2108935,0.75062233,0.27686012,0.6464345,-6.4404025,1.043872
6.1556435,4.9589424,-1.2108935,0.75062233,0.27686012,0.6464345,-6.4404025,1.043872
6.1560574,4.9575634,-1.3749442,0.76447076,0.25981587,0.9672575,-6.4643445,0.9576807
6.156472,4.9561777,-1.3749442,0.76447076,0.25981587,0.9672575,-6.4643445,0.9576807
6.156845,4.954632,-1.5368644,0.78044975,0.23638006,1.1971009,-6.469133,0.7613561
6.1572165,4.953086,-1.5368644,0.78044975,0.23638006,1.1971009,-6.469133,0.7613561
6.1575546,4.951358,-1.6998498,0.7996245,0.20655265,1.3455414,-6.4882865,0.7230489
6.1578803,4.94968,-1.6998498,0.7996245,0.20655265,1.3455414,-6.4882865,0.7230489
6.158193,4.947789,-1.8639005,0.82519084,0.17246419,1.3503298,-6.540959,0.59855044
6.1584954,4.9459457,-1.8639005,0.82519084,0.17246419,1.3503298,-6.540959,0.59855044
6.158763,4.943929,-2.022625,0.85501826,0.13198414,1.3790601,-6.6846113,0.6943185
6.159027,4.941921,-2.022625,0.85501826,0.13198414,1.3790601,-6.6846113,0.6943185
6.159265,4.9397545,-2.1728272,0.8869762,0.089373566,1.2976574,-6.8665705,0.7422025
6.159504,4.9375563,-2.1728272,0.8869762,0.089373566,1.2976574,-6.8665705,0.7422025
6.159719,4.9352818,-2.316638,0.9210646,0.042501926,1.0869676,-7.0245876,0.8379706
6.1599355,4.932961,-2.316638,0.9210646,0.042501926,1.0869676,-7.0245876,0.8379706
6.1601467,4.9305334,-2.449796,0.95408785,-0.0022391789,0.8523358,-7.2831616,0.8331822
6.160361,4.928045,-2.449796,0.95408785,-0.0022391789,0.8523358,-7.2831616,0.8331822
6.160553,4.92535,-2.574432,0.9839152,-0.04378449,0.842759,-7.455544,1.0821792
6.1607804,4.9221187,-2.574432,0.9839152,-0.04378449,0.842759,-7.455544,1.0821792
6.1609097,4.920211,-2.6841543,1.0084163,-0.08106875,0.7086837,-7.603985,1.1683705
6.1610866,4.917595,-2.6841543,1.0084163,-0.08106875,0.7086837,-7.603985,1.1683705
6.1612544,4.914934,-2.7821586,1.0318521,-0.11515721,0.50757074,-7.800309,1.1013328
6.161426,4.912201,-2.7821586,1.0318521,-0.11515721,0.50757074,-7.800309,1.1013328
6.1615863,4.9093904,-2.868445,1.0584837,-0.13965829,0.49320555,-8.073248,1.1731589
6.161748,4.906545,-2.868445,1.0584837,-0.13965829,0.49320555,-8.073248,1.1731589
6.161887,4.903679,-2.9419482,1.0808543,-0.15244147,0.62728083,-8.317456,1.2354081
6.1620283,4.900782,-2.9419482,1.0808543,-0.15244147,0.62728083,-8.317456,1.2354081
6.1621666,4.8978543,-3.0026684,1.0989639,-0.16096358,0.5506664,-8.528147,1.2066777
6.162305,4.894925,-3.0026684,1.0989639,-0.16096358,0.5506664,-8.528147,1.2066777
6.162449,4.89194,-3.0516706,1.1138775,-0.16415937,0.37349546,-8.805874,1.1540052
6.162592,4.888957,-3.0516706,1.1138775,-0.16415937,0.37349546,-8.805874,1.1540052
6.1627407,4.8859396,-3.0932157,1.1245302,-0.15989831,0.31124622,-9.083601,1.1492168
6.1628885,4.882923,-3.0932157,1.1245302,-0.15989831,0.31124622,-9.083601,1.1492168
6.1630373,4.879868,-3.1241086,1.1309217,-0.14498462,0.50278234,-9.23683,1.1492168
6.163186,4.876809,-3.1241086,1.1309217,-0.14498462,0.50278234,-9.23683,1.1492168
6.16338,4.8737717,-3.1475441,1.1341175,-0.12580985,0.8571242,-9.390059,1.4939818
6.1635756,4.8707356,-3.1475441,1.1341175,-0.12580985,0.8571242,-9.390059,1.4939818
6.1637716,4.8676844,-3.1550012,1.1351827,-0.11515721,0.35913026,-9.586384,1.3120226
6.1639657,4.86464,-3.1550012,1.1351827,-0.11515721,0.35913026,-9.586384,1.3120226
6.1641536,4.86159,-3.1422179,1.1298565,-0.11515721,-0.076614454,-10.036493,1.1683705
6.1643395,4.858545,-3.1422179,1.1298565,-0.11515721,-0.076614454,-10.036493,1.1683705
6.164518,4.855529,-3.1113253,1.1181386,-0.11622248,-0.39264908,-10.429143,1.0582372
6.1646934,4.8525214,-3.1113253,1.1181386,-0.11622248,-0.39264908,-10.429143,1.0582372
6.164871,4.849529,-3.0655189,1.095768,-0.108765624,-0.39264908,-10.5919485,1.0295067
6.1650443,4.846571,-3.0655189,1.095768,-0.108765624,-0.39264908,-10.5919485,1.0295067
6.1652226,4.84365,-3.0111904,1.0680711,-0.093851924,-0.4405331,-10.658986,0.8810662
6.1653986,4.8407307,-3.0111904,1.0680711,-0.093851924,-0.4405331,-10.658986,0.8810662
6.1655874,4.8378477,-2.9547315,1.0414395,-0.07041611,-0.8571242,-10.79785,0.5793968
6.1657743,4.834969,-2.9547315,1.0414395,-0.07041611,-0.8571242,-10.79785,0.5793968
6.1659846,4.8321176,-2.9014683,1.0105468,-0.03632764,-1.0295067,-10.936713,0.32561144
6.1661916,4.82929,-2.9014683,1.0105468,-0.03632764,-1.0295067,-10.936713,0.32561144
6.166443,4.826482,-2.8588576,0.9732626,0.0126745235,-0.89064306,-11.15698,0.4213795
6.16669,4.823704,-2.8588576,0.9732626,0.0126745235,-0.89064306,-11.15698,0.4213795
6.166996,4.820944,-2.8226385,0.93597835,0.0733946,-0.7469909,-11.262324,0.59855044
6.1673,4.818191,-2.8226385,0.93597835,0.0733946,-0.7469909,-11.262324,0.59855044
6.1676774,4.8154674,-2.7906806,0.90615094,0.14689785,-0.61770403,-11.314998,0.7661445
6.168051,4.8127565,-2.7906806,0.90615094,0.14689785,-0.61770403,-11.314998,0.7661445
6.1685038,4.8100705,-2.7619185,0.8827151,0.22785795,-0.60333884,-11.305421,0.866701
6.1689534,4.807395,-2.7619185,0.8827151,0.22785795,-0.60333884,-11.305421,0.866701
6.1694837,4.804732,-2.7384827,0.86140984,0.31094858,-0.7038953,-11.27669,0.8714894
6.17001,4.802081,-2.7384827,0.86140984,0.31094858,-0.7038953,-11.27669,0.8714894
6.1706157,4.7994437,-2.7171774,0.8422351,0.39190868,-0.90021986,-11.377247,0.92895025
6.1712184,4.7968106,-2.7171774,0.8422351,0.39190868,-0.90021986,-11.377247,0.92895025
6.1718993,4.7942047,-2.6926763,0.8241256,0.47393402,-1.0390835,-11.463438,0.9959879
6.1725745,4.7916102,-2.6926763,0.8241256,0.47393402,-1.0390835,-11.463438,0.9959879
6.173328,4.789044,-2.662849,0.80495083,0.55489415,-0.93852705,-11.654974,1.1683705
6.1740766,4.786484,-2.662849,0.80495083,0.55489415,-0.93852705,-11.654974,1.1683705
6.174901,4.783955,-2.6266298,0.78044975,0.6337237,-0.8810662,-11.784261,1.115698
6.175728,4.781412,-2.6266298,0.78044975,0.6337237,-0.8810662,-11.784261,1.115698
6.1766157,4.778918,-2.581889,0.7548834,0.70083535,-0.91937345,-11.980585,1.0965444
6.1774945,4.7764444,-2.581889,0.7548834,0.70083535,-0.91937345,-11.980585,1.0965444
6.1784363,4.774003,-2.526495,0.7271865,0.7604902,-0.79487497,-12.066776,1.0534488
6.1793723,4.771573,-2.526495,0.7271865,0.7604902,-0.79487497,-12.066776,1.0534488
6.181365,4.766772,-2.3858802,0.6547485,0.8531682,-0.6464345,-12.248735,0.90500826
6.182717,4.763722,-2.3858802,0.6547485,0.8531682,-0.6464345,-12.248735,0.90500826
6.182717,4.763722,-2.3858802,0.6547485,0.8531682,-0.6464345,-12.248735,0.90500826
6.1834946,4.761966,-2.3858802,0.6547485,0.8531682,-0.6464345,-12.248735,0.90500826
6.1849833,4.758797,-2.3038547,0.61533374,0.8829956,-0.6799533,-12.263102,0.8475474
6.1857524,4.757158,-2.3038547,0.61533374,0.8829956,-0.6799533,-12.263102,0.8475474
6.186546,4.7555623,-2.2133074,0.5737884,0.9053661,-0.6943185,-12.320562,0.8762778
6.187865,4.7529078,-2.2133074,0.5737884,0.9053661,-0.6943185,-12.320562,0.8762778
6.188759,4.7512035,-2.1163683,0.5311778,0.91921455,-0.8714894,-12.401965,0.90021986
6.189837,4.7491465,-2.1163683,0.5311778,0.91921455,-0.8714894,-12.401965,0.90021986
6.190891,4.747248,-2.0130377,0.49176306,0.9298672,-1.0582372,-12.492945,0.9864111
6.190891,4.747248,-2.0130377,0.49176306,0.9298672,-1.0582372,-12.492945,0.9864111
6.193631,4.7423315,-1.9065112,0.45021775,0.94051987,-1.1252748,-12.603078,1.2210429
6.19405,4.7416205,-1.9065112,0.45021775,0.94051987,-1.1252748,-12.603078,1.2210429
6.1951337,4.7398973,-1.7935932,0.40760717,0.94904196,-1.1013328,-12.74673,1.3455414
6.1963267,4.737999,-1.7935932,0.40760717,0.94904196,-1.1013328,-12.74673,1.3455414
6.1977377,4.73592,-1.672153,0.36499658,0.9575641,-1.163582,-12.808979,1.3742718
6.198382,4.734969,-1.672153,0.36499658,0.9575641,-1.163582,-12.808979,1.3742718
6.199431,4.7335463,-1.5453866,0.3202555,0.96289045,-1.13964,-12.952631,1.388637
6.200509,4.7320824,-1.5453866,0.3202555,0.96289045,-1.13964,-12.952631,1.388637
6.201777,4.7305117,-1.4154242,0.27657965,0.96502095,-1.067814,-13.096283,1.2641385
6.2029643,4.72904,-1.4154242,0.27657965,0.96502095,-1.067814,-13.096283,1.2641385
6.203853,4.7280426,-1.2822661,0.23077327,0.96289045,-1.0582372,-13.211205,1.1587936
6.2049217,4.7268424,-1.2822661,0.23077327,0.96289045,-1.0582372,-13.211205,1.1587936
6.205974,4.7257795,-1.1469777,0.18390164,0.9543683,-1.0534488,-13.335704,1.0726024
6.207054,4.724688,-1.1469777,0.18390164,0.9543683,-1.0534488,-13.335704,1.0726024
6.2081203,4.7237287,-1.0095584,0.13596474,0.93838936,-1.0486604,-13.522451,1.115698
6.2091727,4.722782,-1.0095584,0.13596474,0.93838936,-1.0486604,-13.522451,1.115698
6.210216,4.721964,-0.8689436,0.085897304,0.92027986,-1.2449849,-13.690045,1.1013328
6.211744,4.720765,-0.8689436,0.085897304,0.92027986,-1.2449849,-13.690045,1.1013328
6.2122407,4.7204356,-0.7251329,0.031568814,0.89897454,-1.3694834,-13.9151,1.2066777
6.21327,4.7197533,-0.7251329,0.031568814,0.89897454,-1.3694834,-13.9151,1.2066777
6.2143035,4.719203,-0.5749306,-0.027020732,0.8712777,-1.5227122,-14.068329,1.3215994
6.2152357,4.7187066,-0.5749306,-0.027020732,0.8712777,-1.5227122,-14.068329,1.3215994
6.217129,4.7179794,-0.41407567,-0.08987133,0.840385,-1.5562311,-14.326903,1.3838485
6.217129,4.7179794,-0.41407567,-0.08987133,0.840385,-1.5562311,-14.326903,1.3838485
6.217129,4.7179794,-0.41407567,-0.08987133,0.840385,-1.5562311,-14.326903,1.3838485
6.2193537,4.717892,-0.07319104,-0.22302939,0.7690123,-1.8626889,-14.796166,1.4460979
6.2214346,4.717989,0.11003445,-0.29759791,0.7327933,-1.8818425,-14.992491,1.436521
6.2214346,4.717989,0.11003445,-0.29759791,0.7327933,-1.8818425,-14.992491,1.436521
6.2214346,4.717989,0.11003445,-0.29759791,0.7327933,-1.8818425,-14.992491,1.436521
6.222597,4.7181892,0.11003445,-0.29759791,0.7327933,-1.8818425,-14.992491,1.436521
6.223426,4.7185287,0.30284733,-0.37323168,0.69231325,-2.0350714,-15.188815,1.364695
6.2239313,4.7187366,0.30284733,-0.37323168,0.69231325,-2.0350714,-15.188815,1.364695
6.2239313,4.7187366,0.30284733,-0.37323168,0.69231325,-2.0350714,-15.188815,1.364695
6.2257533,4.71998,0.50524753,-0.45312652,0.6070921,-2.2888567,-15.136143,1.1204864
6.226963,4.7211847,0.71510464,-0.5394129,0.6070921,-2.2888567,-15.136143,1.1204864
6.226963,4.7211847,0.71510464,-0.5394129,0.6070921,-2.2888567,-15.136143,1.1204864
6.227631,4.7220984,0.92815757,-0.6320909,0.5602205,-2.2744915,-15.131354,1.0486604
6.228298,4.723011,0.92815757,-0.6320909,0.5602205,-2.2744915,-15.131354,1.0486604
6.2289305,4.7241626,1.1476021,-0.73009527,0.50908774,-2.2266076,-15.030798,1.0055647
6.2295547,4.725301,1.1476021,-0.73009527,0.50908774,-2.2266076,-15.030798,1.0055647
6.2301197,4.7266426,1.3713076,-0.82916486,0.45582452,-2.207454,-14.9063,0.9720459
6.2306757,4.727966,1.3713076,-0.82916486,0.45582452,-2.207454,-14.9063,0.9720459
6.2311993,4.7295737,1.5971437,-0.92610395,0.3993655,-2.3989902,-14.623784,0.9528923
6.2317023,4.731123,1.5971437,-0.92610395,0.3993655,-2.3989902,-14.623784,0.9528923
6.232163,4.7329383,1.8229797,-1.0241083,0.34397176,-2.408567,-14.408306,0.8714894
6.2326126,4.734715,1.8229797,-1.0241083,0.34397176,-2.408567,-14.408306,0.8714894
6.2330112,4.7367215,2.049881,-1.1242431,0.2896433,-2.456451,-14.149732,0.6799533
6.2334104,4.7387395,2.049881,-1.1242431,0.2896433,-2.456451,-14.149732,0.6799533
6.233748,4.740951,2.2789128,-1.2265085,0.2353148,-2.4947581,-13.9438305,0.5315128
6.234085,4.743175,2.2789128,-1.2265085,0.2353148,-2.4947581,-13.9438305,0.5315128
6.234359,4.74561,2.5058143,-1.3309045,0.17672525,-2.480393,-13.627796,0.30166942
6.234629,4.748044,2.5058143,-1.3309045,0.17672525,-2.480393,-13.627796,0.30166942
6.2348323,4.750697,2.730585,-1.4384961,0.11707044,-2.4756045,-13.369223,0.25378537
6.2350316,4.753344,2.730585,-1.4384961,0.11707044,-2.4756045,-13.369223,0.25378537
6.2351613,4.7562017,2.9521601,-1.5482184,0.056350365,-2.4372973,-13.177686,0.22984336
6.2352867,4.759061,2.9521601,-1.5482184,0.056350365,-2.4372973,-13.177686,0.22984336
6.2353406,4.762137,3.1684086,-1.6611364,-0.004369708,-2.3894134,-12.861651,0.12449849
6.2353888,4.7652025,3.1684086,-1.6611364,-0.004369708,-2.3894134,-12.861651,0.12449849
6.2353597,4.7684646,3.3814616,-1.7708586,-0.06828558,-2.327164,-12.492945,-0.01436521
6.2353244,4.7717285,3.3814616,-1.7708586,-0.06828558,-2.327164,-12.492945,-0.01436521
6.2352104,4.775192,3.5913186,-1.8784504,-0.13220145,-2.2744915,-12.186486,-0.10534488
6.235084,4.778802,3.5913186,-1.8784504,-0.13220145,-2.2744915,-12.186486,-0.10534488
6.234887,4.7823334,3.7969148,-1.9839115,-0.19824784,-2.1404164,-11.812991,-0.18195933
6.2346716,4.786042,3.7969148,-1.9839115,-0.19824784,-2.1404164,-11.812991,-0.18195933
6.234378,4.7898097,3.9961193,-2.0861769,-0.2653595,-2.0829554,-11.48738,-0.34476504
6.2340508,4.7938747,3.9961193,-2.0861769,-0.2653595,-2.0829554,-11.48738,-0.34476504
6.2336764,4.797677,4.1878667,-2.187377,-0.33247116,-2.1068976,-11.075577,-0.48841715
6.233266,4.8017435,4.1878667,-2.187377,-0.33247116,-2.1068976,-11.075577,-0.48841715
6.232771,4.805922,4.370027,-2.284316,-0.40277863,-1.9967642,-10.6398325,-0.5267244
6.23227,4.8100605,4.370027,-2.284316,-0.40277863,-1.9967642,-10.6398325,-0.5267244
6.231673,4.8144016,4.5415344,-2.3791246,-0.4752166,-1.910573,-10.261548,-0.48841715
6.2310653,4.8187366,4.5415344,-2.3791246,-0.4752166,-1.910573,-10.261548,-0.48841715
6.230354,4.823257,4.7013245,-2.472868,-0.54978514,-1.70946,-9.888053,-0.46926352
6.2296352,4.8277435,4.7013245,-2.472868,-0.54978514,-1.70946,-9.888053,-0.46926352
6.2288156,4.832378,4.848331,-2.5634153,-0.6254189,-1.4508862,-9.533711,-0.35434186
6.227982,4.837019,4.848331,-2.5634153,-0.6254189,-1.4508862,-9.533711,-0.35434186
6.227044,4.8417745,4.979358,-2.646506,-0.69892216,-1.067814,-9.208099,-0.2777274
6.2260685,4.8466463,4.979358,-2.646506,-0.69892216,-1.067814,-9.208099,-0.2777274
6.2250147,4.8513846,5.0944066,-2.718944,-0.77668643,-0.4405331,-8.7053175,-0.2825158
6.223923,4.856227,5.0944066,-2.718944,-0.77668643,-0.4405331,-8.7053175,-0.2825158
6.2226915,4.8611507,5.189215,-2.779664,-0.855516,0.21547815,-8.1163435,-0.2633622
6.221446,4.8660765,5.189215,-2.779664,-0.855516,0.21547815,-8.1163435,-0.2633622
6.2200146,4.871075,5.2584577,-2.82334,-0.9396719,1.4987702,-7.417237,-0.41180268
6.218573,4.8760653,5.2584577,-2.82334,-0.9396719,1.4987702,-7.417237,-0.41180268
6.216972,4.881126,5.2968073,-2.8403842,-1.0302194,2.9831753,-6.588843,-0.46926352
6.215365,4.886162,5.2968073,-2.8403842,-1.0302194,2.9831753,-6.588843,-0.46926352
6.213626,4.891223,5.2978725,-2.8212094,-1.1346153,4.5394063,-5.683835,-0.59855044
6.211866,4.896304,5.2978725,-2.8212094,-1.1346153,4.5394063,-5.683835,-0.59855044
6.209986,4.901346,5.2584577,-2.76262,-1.2549902,5.837064,-4.783615,-0.63206923
6.2080936,4.9063835,5.2584577,-2.76262,-1.2549902,5.837064,-4.783615,-0.63206923
6.2060723,4.9113503,5.1743016,-2.6646156,-1.3945398,6.373365,-3.8498764,-0.60812724
6.2040405,4.916307,5.1743016,-2.6646156,-1.3945398,6.373365,-3.8498764,-0.60812724
6.201876,4.92115,5.0422087,-2.533588,-1.5458074,6.2871737,-2.9113493,-0.5554548
6.199699,4.925995,5.0422087,-2.533588,-1.5458074,6.2871737,-2.9113493,-0.5554548
6.197402,4.9306655,4.860049,-2.38019,-1.6992054,6.0525417,-2.0350714,-0.40222588
6.193545,4.937809,4.632082,-2.2129433,-1.8483425,5.4539914,-0.61291564,-0.34476504
6.192567,4.9396124,4.632082,-2.2129433,-1.8483425,5.4539914,-0.61291564,-0.34476504
6.1901264,4.944101,4.632082,-2.2129433,-1.8483425,5.4539914,-0.61291564,-0.34476504
6.18761,4.948306,4.3593745,-2.0393052,-1.9815005,5.353435,-0.6464345,0.06703765
6.185093,4.9525,4.3593745,-2.0393052,-1.9815005,5.353435,-0.6464345,0.06703765
6.1825094,4.9564114,4.0504475,-1.8614061,-2.0933533,6.421249,-0.23463176,0.4405331
6.179913,4.960332,4.0504475,-1.8614061,-2.0933533,6.421249,-0.23463176,0.4405331
6.177286,4.9639416,3.6957147,-1.679246,-2.1764438,3.169923,-0.5410896,1.0773908
6.1746526,4.9675527,3.6957147,-1.679246,-2.1764438,3.169923,-0.5410896,1.0773908
6.172013,4.970852,3.3196762,-1.4640625,-2.216924,2.327164,-2.1643584,1.5705963
6.169401,4.97411,3.3196762,-1.4640625,-2.216924,2.327164,-2.1643584,1.5705963
6.1667786,4.9770355,2.9670737,-1.3245128,-2.2382293,3.217807,-2.920926,1.7477672
6.164156,4.9799576,2.9670737,-1.3245128,-2.2382293,3.217807,-2.920926,1.7477672
6.1615567,4.9825516,2.637907,-1.2190516,-2.237164,5.1140146,-2.207454,1.6950948
6.158956,4.9851446,2.637907,-1.2190516,-2.237164,5.1140146,-2.207454,1.6950948
6.1564217,4.987419,2.3066099,-1.079502,-2.2052062,5.3007627,-1.9488802,1.5514427
6.1538863,4.9896927,2.3066099,-1.079502,-2.2052062,5.3007627,-1.9488802,1.5514427
6.1514626,4.9916477,1.9635946,-0.9037334,-2.1434207,4.7022123,-2.135628,1.7717092
6.149026,4.993613,1.9635946,-0.9037334,-2.1434207,4.7022123,-2.135628,1.7717092
6.1467505,4.9952483,1.6173836,-0.7226384,-2.048612,3.3854012,-2.791639,1.8914193
6.1444635,4.996892,1.6173836,-0.7226384,-2.048612,3.3854012,-2.791639,1.8914193
6.1423464,4.9982243,1.2786295,-0.5532614,-1.9218457,3.0693667,-2.8634653,1.982399
6.140237,4.999551,1.2786295,-0.5532614,-1.9218457,3.0693667,-2.8634653,1.982399
6.138328,5.000571,0.9558544,-0.4062549,-1.7567297,3.0071173,-2.9113493,1.9967642
6.1364193,5.0015907,0.9558544,-0.4062549,-1.7567297,3.0071173,-2.9113493,1.9967642
6.134725,5.0023127,0.6447972,-0.27522734,-1.5692432,3.1507695,-3.3375173,2.1739352
6.1330314,5.0030355,0.6447972,-0.27522734,-1.5692432,3.1507695,-3.3375173,2.1739352
6.131571,5.0034776,0.34758842,-0.14846088,-1.366843,2.7485435,-3.8642416,2.2697031
6.1301107,5.00392,0.34758842,-0.14846088,-1.366843,2.7485435,-3.8642416,2.2697031
6.1288943,5.0040903,0.06422807,-0.031281788,-1.1527247,2.6671407,-4.2664676,2.3894134
6.127674,5.004262,0.06422807,-0.031281788,-1.1527247,2.6671407,-4.2664676,2.3894134
