Pitch,Roll,Gyro_X,Gyro_Y,Gyro_Z,Accel_X,Accel_Y,Accel_Z
5.4102426,4.2193947,-2.7675934,0.029911729,-4.160345,-4.3505626,-4.1313114,5.5254917
5.406566,4.2143564,-2.7675934,0.029911729,-4.160345,-4.3737555,-4.170847,5.5402584
5.40299,4.2093773,-2.7505493,0.0011495883,-4.1667366,-4.3052382,-4.3245406,5.693563
5.399384,4.204303,-2.7505493,0.0011495883,-4.1667366,-4.3277926,-4.363875,5.7080603
5.3957987,4.1991844,-2.7260482,-0.025482023,-4.167802,-4.273503,-4.4799,5.8470163
5.39222,4.19402,-2.7260482,-0.025482023,-4.167802,-4.295689,-4.5194783,5.8613844
5.388671,4.1888275,-2.6951554,-0.05104837,-4.167802,-4.217038,-4.616481,5.976198
5.385129,4.1835885,-2.6951554,-0.05104837,-4.167802,-4.2388034,-4.656188,5.9903674
5.3816094,4.178321,-2.6578712,-0.07235366,-4.167802,-4.2603364,-4.772517,5.975674
5.378102,4.173011,-2.6578712,-0.07235366,-4.167802,-4.281704,-4.8123536,5.98961
5.374616,4.1676826,-2.6141953,-0.090463154,-4.164606,-4.2070704,-4.833006,6.041659
5.371143,4.162311,-2.6141953,-0.090463154,-4.164606,-4.2280416,-4.8729315,6.0553036
5.3676915,4.1569247,-2.564128,-0.109637916,-4.163541,-4.1673822,-4.845778,6.03043
5.3642383,4.1514716,-2.564128,-0.109637916,-4.163541,-4.1880393,-4.885937,6.0438128
5.3608203,4.1460285,-2.5097995,-0.12561688,-4.15928,-4.2275496,-4.7918124,5.9755096
5.3574185,4.1405454,-2.5097995,-0.12561688,-4.15928,-4.2477207,-4.8318353,5.9885025
5.354057,4.1350884,-2.455471,-0.13946532,-4.152888,-3.9563189,-4.622562,5.9436965
5.350691,4.1295576,-2.455471,-0.13946532,-4.152888,-3.9760985,-4.662597,5.9563236
5.347355,4.1240244,-2.4043384,-0.1490527,-4.144366,-4.560642,-4.453485,5.6718273
5.344033,4.1184435,-2.4043384,-0.1490527,-4.144366,-4.5799904,-4.493478,5.6841245
5.340738,4.112853,-2.3574667,-0.16503167,-4.1337132,-4.0771556,-4.6339154,5.806343
5.3374567,4.107215,-2.3574667,-0.16503167,-4.1337132,-4.0960894,-4.6738997,5.81834
5.334209,4.1015663,-2.310595,-0.18101063,-4.119865,-4.153055,-4.8095007,5.983382
5.3309755,4.095869,-2.310595,-0.18101063,-4.119865,-4.1715493,-4.849431,5.9951096
5.32778,4.090175,-2.2594624,-0.19166328,-4.10069,-4.553659,-4.822093,5.9012704
5.3245993,4.0844316,-2.2594624,-0.19166328,-4.10069,-4.571687,-4.8618894,5.912696
5.3214626,4.078688,-2.2040687,-0.2119033,-4.079385,-4.675578,-4.8631196,5.904799
5.31834,4.072894,-2.2040687,-0.2119033,-4.079385,-4.693115,-4.9027524,5.915972
5.315269,4.0670905,-2.1433485,-0.24705704,-4.0570145,-4.332006,-4.8415446,5.941425
5.312213,4.0612364,-2.1433485,-0.24705704,-4.0570145,-4.349019,-4.8809886,5.9524307
5.309214,4.055372,-2.0826285,-0.28540656,-4.031448,-4.0017185,-4.829132,5.858043
5.306231,4.0494576,-2.0826285,-0.28540656,-4.031448,-4.0181794,-4.8683424,5.868929
5.3033,4.043539,-2.0240388,-0.31523395,-4.006947,-3.823594,-4.801902,5.8653526
5.300385,4.037569,-2.0240388,-0.31523395,-4.006947,-3.8395395,-4.840888,5.87607
5.297519,4.0316024,-1.9686451,-0.33653924,-3.9824457,-3.7402272,-4.9561763,5.747793
5.2946696,4.025584,-1.9686451,-0.33653924,-3.9824457,-3.755681,-4.994931,5.758314
5.2918644,4.019574,-1.9153819,-0.3503877,-3.95901,-3.866593,-5.0094385,5.711197
5.289076,4.013513,-1.9153819,-0.3503877,-3.95901,-3.8815875,-5.0479684,5.721479
5.286334,4.0074644,-1.863184,-0.36317086,-3.9334435,-3.915421,-5.033493,5.487385
5.283609,4.0013638,-1.863184,-0.36317086,-3.9334435,-3.9299512,-5.071766,5.4974365
5.2809315,3.9952807,-1.8088554,-0.37595403,-3.9057467,-3.881919,-5.0091248,5.330144
5.2782707,3.9891462,-1.8088554,-0.37595403,-3.9057467,-3.8959832,-5.0471106,5.339957
5.2756586,3.9830317,-1.7555922,-0.3887372,-3.8759193,-3.7852397,-4.9650154,5.1484957
5.2730637,3.9768658,-1.7555922,-0.3887372,-3.8759193,-3.7988424,-5.002697,5.158085
5.2705226,3.9707205,-1.702329,-0.40471616,-3.8439615,-3.654097,-4.800556,4.8467226
5.2679987,3.9645243,-1.702329,-0.40471616,-3.8439615,-3.667222,-4.837898,4.856123
5.265525,3.9583478,-1.6533269,-0.41856462,-3.8120034,-3.4406147,-4.659379,4.6547003
5.263069,3.9521215,-1.6533269,-0.41856462,-3.8120034,-3.453288,-4.6964006,4.6639147
5.260663,3.945914,-1.6075205,-0.4302825,-3.7811108,-3.2789044,-4.6133313,4.390487
5.258274,3.939657,-1.6075205,-0.4302825,-3.7811108,-3.2911277,-4.650031,4.3995204
5.255932,3.9334025,-1.5659752,-0.44200042,-3.7512834,-3.173787,-4.5619407,4.097231
5.2536163,3.9271235,-1.5659752,-0.44200042,-3.7512834,-3.1855488,-4.598263,4.1061034
5.2513437,3.9208465,-1.5276256,-0.45265308,-3.7203908,-3.1587372,-4.457135,3.990394
5.24909,3.9145207,-1.5276256,-0.45265308,-3.7203908,-3.1700969,-4.493232,3.9991379
5.2468863,3.908207,-1.4903413,-0.46543625,-3.6905632,-3.0662484,-4.394908,3.8306434
5.2447,3.9018445,-1.4903413,-0.46543625,-3.6905632,-3.0771828,-4.430712,3.8392684
5.2425637,3.8954928,-1.4541224,-0.47821942,-3.6628664,-2.9824898,-4.3129473,3.5701156
5.240446,3.8890934,-1.4541224,-0.47821942,-3.6628664,-2.9930096,-4.348461,3.5786443
5.238376,3.8826985,-1.4200339,-0.49206784,-3.6373,-2.8787534,-4.3022614,3.3812377
5.236309,3.8762052,-1.4200339,-0.49206784,-3.6373,-2.888946,-4.3377957,3.3897533
5.2343116,3.8697915,-1.3870107,-0.50698155,-3.612799,-2.6545548,-4.2385507,3.3263054
5.232325,3.863306,-1.3870107,-0.50698155,-3.612799,-2.664283,-4.2735662,3.3346748
5.230382,3.856815,-1.3582486,-0.52083,-3.5925589,-2.6498232,-4.1790547,3.2376873
5.228459,3.8502786,-1.3582486,-0.52083,-3.5925589,-2.6591759,-4.213872,3.2460003
5.226576,3.8437343,-1.331617,-0.53361315,-3.5744495,-2.5677469,-4.114403,3.1920464
5.2247133,3.8371449,-1.331617,-0.53361315,-3.5744495,-2.5767496,-4.1490517,3.2003028
5.222891,3.8305588,-1.3071159,-0.54320055,-3.5542095,-2.4945447,-4.1403522,3.203723
5.2210855,3.823915,-1.3071159,-0.54320055,-3.5542095,-2.5032134,-4.1748567,3.211909
5.2193213,3.817273,-1.2815496,-0.55491847,-3.5361,-2.4302514,-4.094194,3.1673946
5.2175775,3.810587,-1.2815496,-0.55491847,-3.5361,-2.438567,-4.128491,3.1755118
5.215871,3.8039002,-1.2549179,-0.56344056,-3.5179904,-2.3988,-4.1482134,3.2266812
5.2141848,3.7971706,-1.2549179,-0.56344056,-3.5179904,-2.4067922,-4.1823378,3.2347167
5.212537,3.7904484,-1.227221,-0.5719627,-3.4956198,-2.4050026,-4.11566,3.3288875
5.21091,3.7836843,-1.227221,-0.5719627,-3.4956198,-2.4126668,-4.149573,3.3368325
5.209323,3.776928,-1.1984589,-0.58155006,-3.4743147,-2.420124,-4.0826836,3.387834
5.207758,3.770137,-1.1984589,-0.58155006,-3.4743147,-2.4274535,-4.116347,3.395698
5.2062297,3.7633452,-1.1654357,-0.5922027,-3.451944,-2.4202263,-4.1354523,3.561551
5.2047243,3.75652,-1.1654357,-0.5922027,-3.451944,-2.427238,-4.1689196,3.5693438
5.2032623,3.749717,-1.1270862,-0.60392064,-3.427443,-2.481916,-4.2308064,3.7303302
5.2018204,3.7428749,-1.1270862,-0.60392064,-3.427443,-2.488591,-4.263994,3.7380521
5.200421,3.7360618,-1.0844756,-0.61563855,-3.4018767,-2.4232316,-4.2824893,3.937255
5.1990423,3.7292113,-1.0844756,-0.61563855,-3.4018767,-2.4295812,-4.315377,3.9448924
5.1977096,3.7223942,-1.037604,-0.63055223,-3.375245,-2.4309206,-4.3431206,4.1679792
5.196397,3.7155347,-1.037604,-0.63055223,-3.375245,-2.4369411,-4.3757133,4.1755686
5.1951346,3.7087297,-0.9832755,-0.6475965,-3.3486135,-2.3948298,-4.5036116,4.365081
5.1938925,3.7018836,-0.9832755,-0.6475965,-3.3486135,-2.400497,-4.5358,4.372616
5.1927,3.695086,-0.92149013,-0.6678365,-3.3209164,-2.3724055,-4.5915065,4.662654
5.1914163,3.6875916,-0.92149013,-0.6678365,-3.3209164,-2.3782363,-4.626381,4.6708827
5.1903324,3.6810098,-0.8533132,-0.69020706,-3.291089,-2.4118733,-4.580188,4.7595773
5.1903324,3.6810098,-0.8533132,-0.69020706,-3.291089,-2.4118733,-4.580188,4.7595773
5.1877384,3.6645546,-0.77767944,-0.71470815,-3.2591312,-2.4810457,-4.5743246,4.8303246
5.1877384,3.6645546,-0.77767944,-0.71470815,-3.2591312,-2.485609,-4.6053767,4.837861
5.1861396,3.6536164,-0.6977846,-0.742405,-3.2250428,-2.6031594,-4.398935,4.8712263
5.1852217,3.6470218,-0.6977846,-0.742405,-3.2250428,-2.607273,-4.4286823,4.8786097
5.1843743,3.6405678,-0.61256343,-0.7743629,-3.1909542,-2.7020469,-4.2516847,4.8046093
5.1835127,3.6338184,-0.61256343,-0.7743629,-3.1909542,-2.7059002,-4.281817,4.8123093
5.182726,3.6272357,-0.522016,-0.8084514,-3.1547353,-2.7572937,-3.9949567,4.6955233
5.181962,3.620644,-0.522016,-0.8084514,-3.1547353,-2.7606974,-4.024087,4.703211
5.1812773,3.6142375,-0.42933798,-0.84573567,-3.1163857,-2.7972684,-3.798398,4.6055813
5.1812773,3.6142375,-0.42933798,-0.84573567,-3.1163857,-2.7972684,-3.798398,4.6055813
5.1799774,3.601388,-0.33559468,-0.88515043,-3.0748405,-2.8652883,-3.5863507,4.60667
5.179322,3.5941515,-0.33559468,-0.88515043,-3.0748405,-2.8681903,-3.6176808,4.6156282
5.1789136,3.589085,-0.23865563,-0.92669576,-3.0343604,-2.817326,-3.4287496,4.4497766
5.1784387,3.5829625,-0.23865563,-0.92669576,-3.0343604,-2.8194308,-3.455001,4.4576526
5.1780233,3.5768225,-0.1406513,-0.96930635,-2.992815,-2.7111273,-3.2704298,4.50896
5.1776276,3.5706594,-0.1406513,-0.96930635,-2.992815,-2.7128797,-3.2966073,4.5171976
5.1773024,3.5646377,-0.0415817,-1.0097864,-2.9523351,-2.556294,-3.235795,4.4345984
5.1769958,3.5586019,-0.0415817,-1.0097864,-2.9523351,-2.5576463,-3.261201,4.4429893
5.1767545,3.5526733,0.060683686,-1.0460054,-2.9182465,-2.4581547,-3.3147097,4.298331
5.1765337,3.5467918,0.060683686,-1.0460054,-2.9182465,-2.4591317,-3.3392682,4.306831
5.17637,3.5410147,0.16614486,-1.0758327,-2.8820276,-2.3832347,-3.334512,4.1957607
5.176225,3.5352566,0.16614486,-1.0758327,-2.8820276,-2.3838732,-3.3583884,4.2043743
5.1761355,3.5296562,0.27373657,-1.1003338,-2.8415475,-2.2693434,-3.4102113,4.0789633
5.1760635,3.524048,0.27373657,-1.1003338,-2.8415475,-2.269666,-3.4333253,4.0876513
5.1760426,3.5185947,0.38132828,-1.1227044,-2.8010674,-2.1117377,-3.4413164,4.0101814
5.176038,3.513163,0.38132828,-1.1227044,-2.8010674,-2.1117604,-3.4635816,4.018883
5.176089,3.5079036,0.48785472,-1.145075,-2.7552612,-2.0157638,-3.518524,3.735557
5.176156,3.502646,0.48785472,-1.145075,-2.7552612,-2.0154698,-3.5399418,3.7443402
5.176278,3.497552,0.59225065,-1.1674455,-2.7041285,-1.8186092,-3.651545,3.6382937
5.176413,3.492511,0.59225065,-1.1674455,-2.7041285,-1.8180118,-3.6719563,3.647092
5.176605,3.487646,0.69451606,-1.1898161,-2.646604,-1.7022483,-3.7633476,3.5745966
5.1768103,3.4827852,0.69451606,-1.1898161,-2.646604,-1.7013409,-3.7829056,3.5835123
5.17707,3.4781394,0.79571617,-1.2100561,-2.5826883,-1.523026,-3.8972313,3.5206494
5.1773424,3.4734993,0.79571617,-1.2100561,-2.5826883,-1.5218244,-3.9157796,3.5296264
5.1776667,3.4690886,0.8969163,-1.2281656,-2.5123808,-1.3288591,-3.923698,3.4572234
5.1780024,3.4646847,0.8969163,-1.2281656,-2.5123808,-1.3273747,-3.941183,3.4662359
5.1783915,3.4605212,0.99598587,-1.2473403,-2.4346166,-1.1293275,-4.082063,3.5088072
5.1787925,3.456366,0.99598587,-1.2473403,-2.4346166,-1.1275582,-4.0984297,3.517881
5.179243,3.4524627,1.0961207,-1.2633194,-2.3536563,-1.053735,-4.1519575,3.5030282
5.1797047,3.448565,1.0961207,-1.2633194,-2.3536563,-1.0516903,-4.1671762,3.5121396
5.180214,3.4449375,1.1962556,-1.2771678,-2.2684352,-0.91535544,-4.3056765,3.4972963
5.1807327,3.4413166,1.1962556,-1.2771678,-2.2684352,-0.91305494,-4.3196745,3.506423
5.1812983,3.4379609,1.2963904,-1.289951,-2.178953,-0.76688814,-4.538374,3.644837
5.181871,3.4346223,1.2963904,-1.289951,-2.178953,-0.7643409,-4.5511274,3.6539576
5.1824846,3.4315581,1.3975906,-1.2974077,-2.0873404,-0.77596855,-4.7924957,3.8450003
5.1831064,3.4285045,1.3975906,-1.2974077,-2.0873404,-0.7731967,-4.8040023,3.8540988
5.183766,3.4257424,1.504117,-1.3016689,-1.9925318,-0.6792755,-5.1493983,4.021141
5.184431,3.4229908,1.504117,-1.3016689,-1.9925318,-0.6762996,-5.1595855,4.030174
5.185131,3.420543,1.6181003,-1.3037994,-1.8934622,-0.567822,-5.6041656,4.4269557
5.185837,3.4181032,1.6181003,-1.3037994,-1.8934622,-0.5646596,-5.6129923,4.4359
5.1865726,3.4160051,1.7448668,-1.3016689,-1.7858704,-0.4464283,-6.1182966,4.7319684
5.187314,3.4139147,1.7448668,-1.3016689,-1.7858704,-0.44309473,-6.125594,4.740755
5.1880827,3.412188,1.886547,-1.2931467,-1.6740177,-0.39175415,-6.643643,4.998317
5.188854,3.4104688,1.886547,-1.2931467,-1.6740177,-0.38826847,-6.649316,5.0068855
5.1896477,3.4091444,2.0484672,-1.2803636,-1.5579039,-0.36553764,-7.2182794,5.3503447
5.1904435,3.4078271,2.0484672,-1.2803636,-1.5579039,-0.36193848,-7.2221923,5.358626
5.191258,3.4069452,2.2348886,-1.2633194,-1.4322027,-0.20980263,-7.7604785,5.6107473
5.192074,3.4060707,2.2348886,-1.2633194,-1.4322027,-0.20610046,-7.762443,5.6186666
5.1929092,3.405667,2.446876,-1.2441446,-1.3011751,-0.07301903,-8.255516,5.8033485
5.1937437,3.40527,2.446876,-1.2441446,-1.3011751,-0.06922293,-8.255362,5.810849
5.1945906,3.4053724,2.6865606,-1.221774,-1.1690823,0.011255264,-8.679153,6.004605
5.1954384,3.4054804,2.6865606,-1.221774,-1.1690823,0.015126705,-8.67675,6.011613
5.196293,3.406112,2.953942,-1.1930119,-1.0401853,0.09085798,-9.007209,6.061137
5.1971455,3.4067473,2.953942,-1.1930119,-1.0401853,0.09476757,-9.002454,6.0675454
5.1979985,3.4079232,3.2415633,-1.1589234,-0.9134188,0.16092968,-9.081488,6.0493474
5.1988497,3.4091012,3.2415633,-1.1589234,-0.9134188,0.16484404,-9.074308,6.0550623
5.199692,3.4108286,3.5472941,-1.1173781,-0.793044,0.1830864,-9.131739,5.959458
5.200533,3.412557,3.5472941,-1.1173781,-0.793044,0.18695974,-9.122109,5.9643764
5.201352,3.4148293,3.864743,-1.0673107,-0.6833217,0.20511389,-8.95207,5.743361
5.2021704,3.4171014,3.864743,-1.0673107,-0.6833217,0.20889854,-8.9400215,5.747352
5.202958,3.4199076,4.186453,-1.0097864,-0.5821216,0.23170376,-8.734117,5.6019344
5.203744,3.4227126,4.186453,-1.0097864,-0.5821216,0.23534822,-8.7197275,5.6048975
5.204491,3.4260416,4.508163,-0.94480526,-0.48837832,0.29627943,-8.458857,5.3338675
5.2052364,3.4293683,4.508163,-0.94480526,-0.48837832,0.2997465,-8.4421835,5.3356967
5.205929,3.433193,4.8213506,-0.8691715,-0.40635297,0.36043596,-8.145668,5.1591907
5.206621,3.4370184,4.8213506,-0.8691715,-0.40635297,0.3636613,-8.12685,5.159765
5.20725,3.4413176,5.124951,-0.7850156,-0.3307192,0.44321108,-7.770869,4.919669
5.207877,3.445617,5.124951,-0.7850156,-0.3307192,0.4461484,-7.75006,4.9188776
5.208432,3.4503741,5.415768,-0.6912723,-0.26360753,0.6307049,-7.540633,4.8161845
5.2089853,3.4551227,5.415768,-0.6912723,-0.26360753,0.6332946,-7.5179863,4.813926
5.2094536,3.4603195,5.6916714,-0.5847459,-0.20395271,0.76956844,-7.3546963,4.6665454
5.20992,3.4655075,5.6916714,-0.5847459,-0.20395271,0.7717562,-7.3303175,4.6626835
5.2102904,3.4711592,5.9526615,-0.4633057,-0.14642844,0.7399812,-7.2227397,4.5183306
5.210656,3.4767408,5.9526615,-0.4633057,-0.14642844,0.7416973,-7.1969037,4.5127544
5.2109137,3.4827704,6.1976724,-0.3290824,-0.08996943,0.80036783,-7.1742005,4.515025
5.2111707,3.4888093,6.1976724,-0.3290824,-0.08996943,0.8015804,-7.146698,4.507527
5.2113104,3.4952621,6.430965,-0.18420643,-0.03351041,0.87885046,-7.132118,4.455137
5.2114496,3.5017064,6.430965,-0.18420643,-0.03351041,0.8795066,-7.1032667,4.4456625
5.2114677,3.5085843,6.651475,-0.03187361,0.026144402,1.0232399,-7.1303983,4.448653
5.2114854,3.515455,6.651475,-0.03187361,0.026144402,1.0233276,-7.1001773,4.4370832
5.2113795,3.522744,6.861332,0.1268508,0.09006027,1.0755012,-7.087759,4.4618864
5.211275,3.5300562,6.861332,0.1268508,0.09006027,1.0750096,-7.0561857,4.448126
5.211045,3.5377734,7.0616016,0.2909015,0.1550414,1.1888492,-7.0138063,4.4180355
5.2108173,3.5455096,7.0616016,0.2909015,0.1550414,1.1877775,-6.9810476,4.4020486
5.210466,3.5536618,7.2501535,0.45708278,0.22002253,1.0903561,-6.899181,4.388838
5.210118,3.5618196,7.2501535,0.45708278,0.22002253,1.0887218,-6.865332,4.37059
5.2096486,3.5703983,7.4280524,0.62432927,0.28500366,1.0338407,-6.691432,4.3024163
5.2091837,3.5789852,7.4280524,0.62432927,0.28500366,1.0316632,-6.6565495,4.281857
5.208602,3.5879872,7.5974298,0.7894453,0.34891954,0.7990937,-6.4050813,4.3071465
5.2080274,3.597001,7.5974298,0.7894453,0.34891954,0.79640055,-6.3692636,4.284278
5.2071714,3.608773,7.755089,0.9503002,0.4096396,0.54340124,-6.1460986,4.315389
5.2066493,3.6160548,7.755089,0.9503002,0.4096396,0.54096293,-6.117841,4.295933
5.2058864,3.6256535,7.899965,1.1036983,0.4671639,0.29319692,-5.8034296,4.3795543
5.205119,3.6354468,7.899965,1.1036983,0.4671639,0.28962445,-5.7662816,4.352259
5.2042556,3.6456532,8.032058,1.2485743,0.5204271,-0.030425549,-5.5558014,4.5432343
5.2034082,3.6558301,8.032058,1.2485743,0.5204271,-0.034363747,-5.5181255,4.5137815
5.2024717,3.6664126,8.154563,1.3870586,0.57262504,-0.27333426,-5.230576,4.654753
5.2015495,3.6770194,8.154563,1.3870586,0.57262504,-0.27760482,-5.1922817,4.6230245
5.200554,3.6879506,8.26322,1.517021,0.6226925,-0.5599303,-5.0241604,4.891277
5.1995754,3.6988873,8.26322,1.517021,0.6226925,-0.5644398,-4.985675,4.857602
5.198532,3.7101853,8.359094,1.6405916,0.67489046,-0.9140053,-4.740645,5.0328703
5.197509,3.7214904,8.359094,1.6405916,0.67489046,-0.9187095,-4.701892,4.9971857
5.1964326,3.733123,8.442184,1.7567054,0.72921896,-1.2157338,-4.4854665,5.2807264
5.195376,3.7447877,8.442184,1.7567054,0.72921896,-1.2205663,-4.446523,5.2431006
5.1942744,3.756791,8.514623,1.8664277,0.7814169,-1.4937463,-4.2682157,5.462445
5.1931987,3.768781,8.514623,1.8664277,0.7814169,-1.4986463,-4.2292566,5.423024
5.1920896,3.7810678,8.574277,1.968693,0.8336149,-1.80057,-4.0175796,5.7987547
5.191004,3.7933908,8.574277,1.968693,0.8336149,-1.8054948,-3.9786305,5.7575474
5.1898985,3.8059766,8.617953,2.061371,0.8858128,-2.174417,-3.6856756,6.1220746
5.1888194,3.8186,8.617953,2.061371,0.8858128,-2.1792953,-3.6468682,6.0792403
5.1877375,3.831458,8.644585,2.1402006,0.9369455,-2.7013211,-3.3397489,6.126278
5.1866894,3.844264,8.644585,2.1402006,0.9369455,-2.7060313,-3.3014274,6.082296
5.1856365,3.85735,8.652041,2.2083776,0.9816866,-3.285366,-2.7265453,6.448844
5.184605,3.8705795,8.652041,2.2083776,0.9816866,-3.2899885,-2.6880531,6.402877
5.183597,3.8838506,8.637128,2.262706,1.0242972,-4.041488,-1.9413052,6.686904
5.1826262,3.8970659,8.637128,2.262706,1.0242972,-4.04582,-1.903903,6.6405168
5.1816807,3.9104326,8.585995,2.2872071,1.0615815,-4.5911202,-0.9184575,6.942959
5.180762,3.9239292,8.585995,2.2872071,1.0615815,-4.595208,-0.8812609,6.8951864
5.1798987,3.9372952,8.494383,2.282946,1.0924741,-5.1640716,0.2516966,7.1206865
5.1790686,3.9506803,8.494383,2.282946,1.0924741,-5.1677446,0.28767395,7.07297
5.1783023,3.963927,8.353767,2.2477922,1.1127142,-5.688284,1.3907456,7.3656583
5.1775675,3.977216,8.353767,2.2477922,1.1127142,-5.6915298,1.4256425,7.318016
5.176914,3.9902108,8.156693,2.181746,1.1244321,-6.0535417,2.278343,7.4294424
5.176292,4.0032434,8.156693,2.181746,1.1244321,-6.0562844,2.3118808,7.3825207
5.175747,4.0162086,7.905291,2.0922637,1.1297584,-6.441756,3.015468,7.3789845
5.175241,4.0289907,7.905291,2.0922637,1.1297584,-6.4439783,3.04779,7.3328066
5.1748447,4.040885,7.601691,1.9814762,1.1265626,-6.6276755,3.3938458,7.203722
5.1744666,4.0530734,7.601691,1.9814762,1.1265626,-6.629338,3.4242473,7.159589
5.17418,4.064707,7.2576103,1.8525792,1.1137794,-6.573132,3.6783185,6.90207
5.173918,4.076421,7.2576103,1.8525792,1.1137794,-6.574283,3.7072024,6.859564
5.1737423,4.0874414,6.8751802,1.7172906,1.0892783,-6.9629145,3.767935,6.393482
5.173588,4.098522,6.8751802,1.7172906,1.0892783,-6.963586,3.7950082,6.353177
5.17351,4.1088715,6.461858,1.5713494,1.0551898,-7.050119,3.8347197,5.693116
5.173452,4.119274,6.461858,1.5713494,1.0551898,-7.050374,3.8599463,5.6551924
5.17346,4.128891,6.022969,1.4104944,1.0125793,-6.9497843,3.8546405,4.7918224
5.1734853,4.138526,6.022969,1.4104944,1.0125793,-6.9496717,3.8778963,4.756626
5.173563,4.1472926,5.560644,1.2368563,0.96251184,-6.700335,3.9231129,3.8196602
5.173563,4.1472926,5.560644,1.2368563,0.96251184,-6.700335,3.9231129,3.8196602
5.1737833,4.166107,5.0791445,1.0589572,0.90285707,-6.512623,3.99696,2.6541357
5.173889,4.172657,5.0791445,1.0589572,0.90285707,-6.5121584,4.0125847,2.6300488
5.1740522,4.179383,4.5806007,0.87147063,0.8357454,-6.16189,4.067192,1.4418669
5.1740522,4.179383,4.5806007,0.87147063,0.8357454,-6.16189,4.067192,1.4418669
5.1743727,4.1917505,4.0639477,0.67333144,0.76011163,-6.1604843,4.096896,1.3964105
5.1747193,4.19909,4.0639477,0.67333144,0.76011163,-5.708856,4.244752,0.26380682
5.175046,4.20377,3.53025,0.4688007,0.6759557,-5.2668915,4.3626494,-0.83967733
5.175376,4.20846,3.53025,0.4688007,0.6759557,-5.2654405,4.375182,-0.8562875
5.1757407,4.212232,2.9773777,0.26107413,0.5811472,-4.765839,4.5392113,-1.6880956
5.1760836,4.2157497,2.9773777,0.26107413,0.5811472,-4.7643347,4.549257,-1.7002454
5.1764693,4.2185035,2.4085267,0.057608604,0.4810123,-4.331675,4.7351794,-2.5185428
5.176857,4.2212586,1.8236964,-0.134139,0.38087747,-4.3299723,4.743922,-2.5276232
5.176857,4.2212586,1.8236964,-0.134139,0.38087747,-4.3299723,4.743922,-2.5276232
5.176857,4.2212586,1.8236964,-0.134139,0.38087747,-4.3299723,4.743922,-2.5276232
5.1781077,4.2264867,1.2239524,-0.3141687,0.27648154,-3.4529605,4.7692547,-3.452632
5.178313,4.2268367,1.2239524,-0.3141687,0.27648154,-3.4520555,4.77157,-3.4531584
5.178668,4.2264814,0.6156865,-0.47502363,0.1699551,-2.9524899,4.6682544,-3.7280393
5.1790185,4.226133,0.6156865,-0.47502363,0.1699551,-2.950942,4.6702557,-3.725235
5.179343,4.224838,0.008485727,-0.61457324,0.063428655,-2.5712154,4.339693,-3.6709504
5.17967,4.223542,0.008485727,-0.61457324,0.063428655,-2.5697691,4.3395367,-3.6645336
5.179962,4.2213445,-0.5933887,-0.73281765,-0.04629358,-2.271595,3.7242992,-3.4679763
5.180256,4.219146,-0.5933887,-0.73281765,-0.04629358,-2.2702878,3.7219648,-3.4581645
5.1805096,4.216103,-1.18248,-0.8329525,-0.15708108,-2.135088,3.0327713,-3.1052423
5.180766,4.213056,-1.18248,-0.8329525,-0.15708108,-2.133946,3.0282905,-3.092278
5.1809907,4.2092023,-1.7502658,-0.9181736,-0.2646728,-2.381947,2.2604337,-2.6309943
5.181218,4.205359,-1.7502658,-0.9181736,-0.2646728,-2.3809342,2.2539155,-2.6150765
5.181411,4.2007623,-2.2914202,-0.99380744,-0.3690687,-2.1454449,1.4840708,-2.117563
5.1816096,4.1961684,-2.2914202,-0.99380744,-0.3690687,-2.1445634,1.4755402,-2.09891
5.1817894,4.1908817,-2.8038125,-1.0651802,-0.47026885,-1.8947678,0.5745984,-1.5797029
5.181976,4.1855984,-2.8038125,-1.0651802,-0.47026885,-1.8939366,0.56424564,-1.5585198
5.1821585,4.179726,-3.285312,-1.1237696,-0.56933844,-1.9027011,-0.3286521,-1.0227791
5.182349,4.1738586,-3.285312,-1.1237696,-0.56933844,-1.9018471,-0.34055156,-0.9994465
5.182518,4.167488,-3.7348535,-1.1727718,-0.6673428,-1.8580035,-1.2637225,-0.5721308
5.182695,4.161124,-3.7348535,-1.1727718,-0.6673428,-1.8572146,-1.2771814,-0.54710734
5.182822,4.154253,-4.1460457,-1.2239045,-0.7621513,-1.7034172,-2.0968235,-0.16134086
5.182958,4.1473875,-4.1460457,-1.2239045,-0.7621513,-1.7028089,-2.1121209,-0.13478321
5.1830416,4.140006,-4.522084,-1.2750373,-0.85376406,-1.5731487,-2.8810194,0.20939535
5.183135,4.1326284,-4.522084,-1.2750373,-0.85376406,-1.572732,-2.8982644,0.2374512
5.183185,4.1247635,-4.861903,-1.3219088,-0.93685466,-1.6060305,-3.6307168,0.6021722
5.1832457,4.1169243,-4.861903,-1.3219088,-0.93685466,-1.6057589,-3.6497893,0.6315163
5.183275,4.1086164,-5.166569,-1.3645195,-1.0082273,-1.7444925,-4.388766,1.0214095
5.183317,4.100276,-5.166569,-1.3645195,-1.0082273,-1.7443022,-4.4097276,1.0521812
5.183341,4.0915756,-5.436081,-1.4039342,-1.0668169,-1.6532186,-4.9922643,1.3952425
5.1833777,4.082937,-5.436081,-1.4039342,-1.0668169,-1.6530536,-5.0145736,1.4267082
5.183402,4.0738926,-5.673635,-1.4358921,-1.1115581,-1.4183122,-5.6464477,1.9621521
5.183442,4.064796,-5.673635,-1.4358921,-1.1115581,-1.4181354,-5.670526,1.9948721
5.1834764,4.0553455,-5.880296,-1.4561322,-1.1456465,-1.1833482,-6.2082644,2.4116647
5.183526,4.0461755,-5.880296,-1.4561322,-1.1456465,-1.1831292,-6.2330856,2.4442446
5.1835785,4.036664,-6.0549994,-1.4646543,-1.1648213,-1.1110672,-6.7379785,2.81778
5.183647,4.027135,-6.0549994,-1.4646543,-1.1648213,-1.1107583,-6.7642894,2.8512466
5.183721,4.0174093,-6.2009406,-1.4582627,-1.168017,-0.894951,-7.1649494,3.3640087
5.183811,4.007782,-6.2009406,-1.4582627,-1.168017,-0.89454955,-7.1920543,3.3974254
5.1839104,3.9978957,-6.3159895,-1.439088,-1.159495,-0.7983382,-7.488328,3.7858546
5.184026,3.9881287,-6.3159895,-1.439088,-1.159495,-0.7978245,-7.516342,3.8193636
5.184148,3.9785297,-6.400145,-1.4113911,-1.1403202,-0.65841323,-7.793127,4.1681213
5.184288,3.9688365,-6.400145,-1.4113911,-1.1403202,-0.6577882,-7.821414,4.2009983
5.1844306,3.9591548,-6.455539,-1.3698457,-1.1147538,-0.42251492,-7.9984083,4.6166606
5.1845903,3.949438,-6.455539,-1.3698457,-1.1147538,-0.42180133,-8.027288,4.6491985
5.1847467,3.939839,-6.483236,-1.3165826,-1.0859917,-0.3684286,-8.19022,5.0306177
5.1849184,3.930234,-6.483236,-1.3165826,-1.0859917,-0.36766052,-8.2193165,5.0623283
5.185084,3.92075,-6.4821706,-1.2569277,-1.0540338,-0.35734248,-8.286681,5.337558
5.1852636,3.9112892,-6.4821706,-1.2569277,-1.0540338,-0.35653675,-8.315881,5.3683276
5.185432,3.9020176,-6.455539,-1.1898161,-1.01888,-0.33184063,-8.306532,5.551403
5.185615,3.892685,-6.455539,-1.1898161,-1.01888,-0.3310206,-8.335886,5.5812693
5.1857824,3.8836005,-6.4022756,-1.1195086,-0.982661,-0.3877269,-8.269031,5.6818476
5.1859636,3.8745017,-6.4022756,-1.1195086,-0.982661,-0.38691533,-8.298183,5.7104716
5.1861277,3.8656461,-6.3245115,-1.0502664,-0.94537675,-0.2712586,-8.197601,5.9199643
5.186303,3.8567848,-6.3245115,-1.0502664,-0.94537675,-0.27047086,-8.226508,5.9473424
5.1864576,3.8481922,-6.222246,-0.97782844,-0.9091578,-0.34160042,-8.092062,5.9974937
5.1866245,3.8395605,-6.222246,-0.97782844,-0.9091578,-0.3408532,-8.120728,6.023658
5.1867647,3.8312426,-6.101871,-0.9021947,-0.87187356,-0.38810706,-8.033758,6.196945
5.1869154,3.8228953,-6.101871,-0.9021947,-0.87187356,-0.38742948,-8.061973,6.2217216
5.187038,3.8148832,-5.9601912,-0.8254956,-0.8345893,-0.3629377,-7.9457245,6.2259827
5.18717,3.8068252,-5.9601912,-0.8254956,-0.8345893,-0.36234307,-7.9734287,6.2493706
5.1872697,3.7991,-5.799336,-0.7487966,-0.79943556,-0.23260808,-7.866246,6.2905617
5.1873775,3.7913764,-5.799336,-0.7487966,-0.79943556,-0.23212242,-7.893263,6.312441
5.1874475,3.7840056,-5.6225023,-0.66677123,-0.76321656,-0.07379055,-7.8044577,6.332903
5.187525,3.7765918,-5.6225023,-0.66677123,-0.76321656,-0.07344198,-7.830843,6.353339
5.187562,3.7695599,-5.43182,-0.5804848,-0.7238018,-0.020602942,-7.841834,6.4058075
5.187605,3.7624788,-5.43182,-0.5804848,-0.7238018,-0.020406961,-7.8674774,6.4247503
5.187606,3.7558625,-5.2283545,-0.49206784,-0.68225646,-0.058708668,-8.00668,6.4946804
5.187613,3.749253,-5.2283545,-0.49206784,-0.68225646,-0.05868244,-8.03102,6.5117974
5.1875725,3.742991,-5.009975,-0.39832458,-0.6353848,-0.006186962,-8.1597595,6.6855507
5.1875362,3.7366219,-5.009975,-0.39832458,-0.6353848,-0.0063490868,-8.18363,6.7014365
5.1874533,3.7307858,-4.7777476,-0.30032027,-0.58318686,0.050735474,-8.387793,6.844779
5.187373,3.7249546,-4.7777476,-0.30032027,-0.58318686,0.050374508,-8.410042,6.8587165
5.1872454,3.7195456,-4.5306063,-0.19912013,-0.5224668,-0.036396027,-8.574661,7.053088
5.1871185,3.7141078,-4.5306063,-0.19912013,-0.5224668,-0.03696394,-8.595786,7.065466
5.186946,3.709202,-4.2664204,-0.09578948,-0.45215935,-0.047314644,-8.706153,7.2580595
5.1867743,3.7042646,-4.2664204,-0.09578948,-0.45215935,-0.048086166,-8.725701,7.2686777
5.186554,3.6998553,-3.9819949,0.010736968,-0.37759084,-0.04428816,-9.064333,7.6845913
5.1863346,3.6954436,-3.9819949,0.010736968,-0.37759084,-0.04527378,-9.082176,7.693419
5.1860642,3.6915894,-3.6794598,0.12258974,-0.29663074,-0.3146391,-9.347151,8.160163
5.185792,3.6877098,-3.6794598,0.12258974,-0.29663074,-0.3158579,-9.363252,8.167203
5.185471,3.684421,-3.3545542,0.2344425,-0.21140957,-0.609395,-9.607173,8.603392
5.1851482,3.6811228,-3.3545542,0.2344425,-0.21140957,-0.6108389,-9.621298,8.608585
5.184786,3.6784317,-3.0040822,0.33564264,-0.12192736,-0.7656927,-9.781718,8.96638
5.184422,3.6757305,-3.0040822,0.33564264,-0.12192736,-0.7673211,-9.79374,8.969806
5.1840224,3.6736472,-2.6312397,0.4293859,-0.03137988,-0.86966324,-9.913677,9.325867
5.183623,3.671563,-2.6312397,0.4293859,-0.03137988,-0.8714504,-9.923484,9.327562
5.1831913,3.670113,-2.238157,0.5188681,0.0591676,-0.98350906,-9.99323,9.710634
5.1827574,3.668657,-2.238157,0.5188681,0.0591676,-0.9854474,-10.000761,9.710621
5.1822953,3.667854,-1.8290955,0.6051545,0.1518456,-1.0880632,-10.044199,9.962701
5.181833,3.6670518,-1.8290955,0.6051545,0.1518456,-1.0901203,-10.049326,9.960983
5.181345,3.666909,-1.4029896,0.6861146,0.24239309,-0.80977917,-9.898799,10.216172
5.180855,3.6667671,-1.4029896,0.6861146,0.24239309,-0.8119588,-9.901503,10.212768
5.180339,3.6672935,-0.96942705,0.7692053,0.33081004,-1.384068,-9.600077,10.116693
5.179823,3.6678226,-0.96942705,0.7692053,0.33081004,-1.386354,-9.600325,10.111599
5.179285,3.669005,-0.53692967,0.84696954,0.41496593,-1.8053312,-9.516769,10.238956
5.1787453,3.670195,-0.53692967,0.84696954,0.41496593,-1.8077164,-9.514604,10.232203
5.178196,3.672007,-0.10443231,0.90449387,0.4905997,-1.4079232,-9.471824,10.319755
5.177647,3.6738253,-0.10443231,0.90449387,0.4905997,-1.4103479,-9.467346,10.311526
5.1770926,3.6762383,0.32486928,0.95562655,0.5587766,-1.2212591,-9.154201,10.119949
5.176537,3.6786687,0.32486928,0.95562655,0.5587766,-1.2237062,-9.147482,10.110278
5.175974,3.6816816,0.7445835,1.0110203,0.6226925,-1.7193933,-8.880068,9.792764
5.175411,3.684713,0.7445835,1.0110203,0.6226925,-1.7218647,-8.871195,9.781649
5.174842,3.6883006,1.1525798,1.0600225,0.6780862,-2.1026492,-8.601746,9.448369
5.1742773,3.6918921,1.1525798,1.0600225,0.6780862,-2.1051273,-8.590891,9.435913
5.173716,3.696001,1.5435318,1.0909151,0.7281537,-1.8825278,-8.262117,9.230716
5.1731586,3.700131,1.5435318,1.0909151,0.7281537,-1.8849711,-8.249364,9.216998
5.172613,3.704731,1.9131786,1.1143509,0.77396005,-1.8490539,-7.9523764,8.905344
5.1720934,3.7091594,1.9131786,1.1143509,0.77396005,-1.8513184,-7.93849,8.891113
5.1715603,3.7137718,1.9131786,1.1143509,0.77396005,-1.8536453,-7.9240828,8.876292
5.17101,3.7190711,2.2615201,1.1399173,0.8133748,-2.0715232,-7.6583405,8.553202
5.170493,3.724566,2.5842953,1.1612226,0.8495938,-2.3850174,-7.468446,8.272911
5.169985,3.7300704,2.5842953,1.1612226,0.8495938,-2.3872323,-7.450981,8.2559395
5.1694975,3.7359097,2.8804388,1.1761363,0.88474756,-2.7101736,-7.604699,8.247797
5.16901,3.7418525,2.8804388,1.1761363,0.88474756,-2.712285,-7.585784,8.229731
5.168549,3.748097,3.1584728,1.1803974,0.918836,-2.0678506,-7.7094517,8.584507
5.168097,3.7543507,3.1584728,1.1803974,0.918836,-2.0698094,-7.6895237,8.5657215
5.1676655,3.760932,3.4226582,1.1899847,0.9529245,-1.7795863,-7.4577875,8.6562805
5.167242,3.7675486,3.4226582,1.1899847,0.9529245,-1.7814178,-7.4367256,8.636551
5.1668267,3.7745082,3.67193,1.2240732,0.9870129,-3.138329,-7.0075607,8.228018
5.166423,3.7814775,3.67193,1.2240732,0.9870129,-3.1400738,-6.985486,8.207262
5.16603,3.7887373,3.900962,1.243248,1.0136446,-3.1082487,-6.565077,8.075555
5.1656475,3.7960362,3.900962,1.243248,1.0136446,-3.109898,-6.542095,8.053807
5.16529,3.8035564,4.1044273,1.2400521,1.0306888,-2.9677877,-6.413061,8.012339
5.164945,3.811078,4.1044273,1.2400521,1.0306888,-2.9692707,-6.3894815,7.989941
5.164628,3.8187795,4.280196,1.2304648,1.0413414,-3.2339935,-6.561657,8.067649
5.164323,3.8265278,4.280196,1.2304648,1.0413414,-3.2353053,-6.5374804,8.044579
5.16405,3.834376,4.4378552,1.2144858,1.0434719,-3.8685493,-6.8577557,8.107468
5.163788,3.8422706,4.4378552,1.2144858,1.0434719,-3.8696756,-6.83325,8.0839405
5.1635575,3.8502417,4.581666,1.1825279,1.0338845,-3.4828057,-7.3927,8.38105
5.1633396,3.858219,4.581666,1.1825279,1.0338845,-3.483737,-7.368067,8.357216
5.1631556,3.8662474,4.7201505,1.1431131,1.0200361,-3.5563526,-7.549179,8.56791
5.162984,3.8743129,4.7201505,1.1431131,1.0200361,-3.557088,-7.5244026,8.5437565
5.162833,3.8824167,4.8533087,1.1111552,0.9955351,-3.9264412,-7.2362185,8.39973
5.1626954,3.8905246,4.8533087,1.1111552,0.9955351,-3.927031,-7.2115145,8.375288
5.162572,3.8986545,5.069557,1.0365866,0.92735815,-4.2063727,-5.750326,7.851754
5.162314,3.919794,5.069557,1.0365866,0.92735815,-4.2063923,-5.7490664,7.850457
5.162314,3.919794,5.069557,1.0365866,0.92735815,-4.2063923,-5.7490664,7.850457
5.162277,3.9234514,5.069557,1.0365866,0.92735815,-4.206548,-5.738167,7.8392196
5.162202,3.9321172,5.133473,0.9875845,0.8858128,-4.3409433,-4.544071,7.362398
5.162202,3.9321172,5.133473,0.9875845,0.8858128,-4.3409433,-4.544071,7.362398
5.162202,3.9321172,5.133473,0.9875845,0.8858128,-4.3409433,-4.544071,7.362398
5.1620502,3.9571571,5.1558437,0.9481697,0.842137,-5.294488,-4.0444813,7.1646905
5.162027,3.9636188,5.1398644,0.8917107,0.78993905,-5.4909153,-3.872528,7.369421
5.162027,3.9636188,5.1398644,0.8917107,0.78993905,-5.4909153,-3.872528,7.369421
5.162027,3.9636188,5.1398644,0.8917107,0.78993905,-5.4909153,-3.872528,7.369421
5.162027,3.9636188,5.1398644,0.8917107,0.78993905,-5.4909153,-3.872528,7.369421
5.1621346,3.9946163,5.0216203,0.72126836,0.6780862,-5.8735247,-3.5580263,7.4535136
5.162178,4.0015936,5.0216203,0.72126836,0.6780862,-5.8733363,-3.5381784,7.4312105
5.1622286,4.006274,4.936399,0.6179377,0.61843145,-6.3998494,-3.2662401,7.4067225
5.1622286,4.006274,4.936399,0.6179377,0.61843145,-6.3994427,-3.243001,7.3805466
5.162431,4.020689,4.836264,0.49649757,0.5545156,-6.2696943,-2.9235096,7.4947195
5.162531,4.026311,4.836264,0.49649757,0.5545156,-6.2692633,-2.9075212,7.476708
5.1626816,4.0323277,4.722281,0.36440477,0.49166498,-6.057931,-2.2964668,7.237298
5.162838,4.0384398,4.722281,0.36440477,0.49166498,-6.0572624,-2.278986,7.217762
5.163029,4.0441427,4.589123,0.23976883,0.43201017,-6.4203615,-1.8315067,6.9458966
5.1632237,4.0498424,4.589123,0.23976883,0.43201017,-6.419526,-1.8150663,6.9277363
5.163448,4.0551066,4.432529,0.117263414,0.3712901,-6.552639,-1.478836,6.6860614
5.1636753,4.060399,4.432529,0.117263414,0.3712901,-6.5516634,-1.4634113,6.669274
5.1639314,4.0651865,4.2556953,-0.009503056,0.31483108,-6.224955,-1.0230103,6.29994
5.1641884,4.069985,4.2556953,-0.009503056,0.31483108,-6.223846,-1.0087996,6.2848377
5.1644754,4.0743265,4.055425,-0.12987794,0.26156786,-5.9784064,-0.48804808,5.5962243
5.1647625,4.078662,4.055425,-0.12987794,0.26156786,-5.9771743,-0.47493458,5.582739
5.165076,4.082535,3.8295894,-0.24066544,0.21043515,-5.9614635,-0.027113914,4.8430953
5.165389,4.0864086,3.8295894,-0.24066544,0.21043515,-5.960113,-0.015071869,4.831227
5.1657295,4.0897903,3.578187,-0.3493224,0.16143298,-5.934705,0.20657635,4.256134
5.1660695,4.093173,3.578187,-0.3493224,0.16143298,-5.933237,0.2175088,4.246022
5.166436,4.096029,3.3033488,-0.46863204,0.112430826,-5.4815445,0.3661542,3.8643613
5.166803,4.098886,3.3033488,-0.46863204,0.112430826,-5.4799614,0.37591743,3.856154
5.167187,4.101185,3.010401,-0.5922027,0.062363394,-4.726522,0.6860764,3.4142365
5.1675706,4.1034822,3.010401,-0.5922027,0.062363394,-4.7248635,0.69454575,3.4080338
5.167968,4.1052322,2.7014742,-0.701925,0.012295964,-4.5651293,1.1183438,2.8100624
5.1683636,4.106982,2.7014742,-0.701925,0.012295964,-4.563413,1.1255367,2.8058286
5.168753,4.108176,2.3755033,-0.798864,-0.037771463,-4.2744236,1.5239583,2.1953993
5.169141,4.1093698,2.3755033,-0.798864,-0.037771463,-4.2727394,1.5297166,2.193081
5.169475,4.1098986,2.0335534,-0.891542,-0.09103469,-3.7110467,1.9644072,1.7044454
5.1698084,4.1104283,2.0335534,-0.891542,-0.09103469,-3.7095976,1.9681337,1.7042165
5.170122,4.1101418,1.6745594,-0.9746327,-0.14429791,-3.392199,2.2282867,1.0364356
5.1704364,4.1098576,1.6745594,-0.9746327,-0.14429791,-3.3908327,2.2298706,1.0390248
5.1707773,4.1089334,1.298521,-1.0502664,-0.20075692,-3.0589447,2.4263954,0.6035123
5.1711197,4.108012,1.298521,-1.0502664,-0.20075692,-3.0574539,2.426602,0.60852957
5.171467,4.10651,0.90969944,-1.1184434,-0.2593465,-2.6202002,2.4253943,0.29483294
5.171815,4.1050086,0.90969944,-1.1184434,-0.2593465,-2.618678,2.4241858,0.30196476
5.172165,4.103512,0.90969944,-1.1184434,-0.2593465,-2.617151,2.422984,0.30908704
5.172511,4.1014476,0.5123558,-1.181294,-0.31687075,-2.2469313,2.1665363,0.17936468
5.1728597,4.099387,0.5123558,-1.181294,-0.31687075,-2.2454085,2.163879,0.1885047
5.1732016,4.096773,0.11181638,-1.2345572,-0.37439504,-1.918305,1.8485013,0.108603716
5.1735454,4.094164,0.11181638,-1.2345572,-0.37439504,-1.9167987,1.8443656,0.11967325
5.17389,4.091036,-0.28339672,-1.2739719,-0.42552772,-1.8195195,1.4414434,0.13737774
5.1742377,4.087916,-0.28339672,-1.2739719,-0.42552772,-1.8179948,1.4359541,0.15027142
5.174554,4.0843277,-0.6679572,-1.3006036,-0.47239935,-1.7064759,1.0076047,0.3801341
5.174872,4.0807447,-0.6679572,-1.3006036,-0.47239935,-1.7050804,1.0006051,0.39448953
5.1751876,4.0771656,-1.0386692,-1.3155173,-0.5118142,-1.5887731,0.6200471,0.720052
5.175509,4.0735927,-1.0386692,-1.3155173,-0.5118142,-1.5873572,0.61298364,0.7343564
5.1758475,4.0696707,-1.3870107,-1.3155173,-0.5405763,-1.4326401,0.217201,1.1186703
5.176191,4.0657616,-1.3870107,-1.3155173,-0.5405763,-1.4311339,0.2092768,1.1342373
5.176523,4.0615277,-1.7119163,-1.3006036,-0.56294686,-1.4536097,-0.21624506,1.6057584
5.176862,4.0572987,-1.7119163,-1.3006036,-0.56294686,-1.4521205,-0.22520351,1.6223662
5.1771774,4.0527887,-2.0133862,-1.2729067,-0.5789258,-1.225672,-0.7379391,2.1234329
5.1774983,4.048288,-2.0133862,-1.2729067,-0.5789258,-1.2242559,-0.74791527,2.1408353
5.1778107,4.043573,-2.2892897,-1.2356224,-0.5853174,-1.8214266,-1.175214,2.546753
5.178129,4.0388584,-2.2892897,-1.2356224,-0.5853174,-1.8200198,-1.1859741,2.564804
5.1784205,4.033942,-2.536431,-1.2025993,-0.58744794,-1.0908942,-1.5327597,2.9472795
5.178718,4.02903,-2.536431,-1.2025993,-0.58744794,-1.0895784,-1.5444038,2.965806
5.1790047,4.023966,-2.7516146,-1.1663803,-0.5821216,-0.93029404,-2.1647763,3.5354087
5.1792965,4.018906,-2.7516146,-1.1663803,-0.5821216,-0.9289987,-2.1770763,3.5543108
5.1795845,4.013751,-2.9380357,-1.1195086,-0.5704037,-1.6747165,-2.721293,3.9325912
5.179878,4.0085945,-2.9380357,-1.1195086,-0.5704037,-1.6734135,-2.7340717,3.9517198
5.180165,4.0033646,-3.0946295,-1.0832896,-0.5576205,-1.7679104,-3.1973214,4.33492
5.1804576,3.9981337,-3.0946295,-1.0832896,-0.5576205,-1.7666107,-3.2105365,4.3541803
5.1807537,3.992835,-3.2160697,-1.0630496,-0.5405763,-1.4157411,-3.702876,4.7662745
5.181056,3.9875412,-3.2160697,-1.0630496,-0.5405763,-1.414401,-3.7164369,4.785679
5.181364,3.9822161,-3.3087478,-1.0406791,-0.519271,-1.4944335,-4.146753,5.3031535
5.181678,3.9768958,-3.3087478,-1.0406791,-0.519271,-1.4930375,-4.160538,5.3225894
5.182002,3.9715881,-3.3726637,-1.0119169,-0.49050885,-1.778902,-4.686696,5.7585716
5.18233,3.9662957,-3.3726637,-1.0119169,-0.49050885,-1.7774382,-4.700529,5.7778745
5.1826687,3.9610453,-3.4078174,-0.98635054,-0.45855093,-1.6179063,-5.1260843,6.160961
5.183014,3.9557998,-3.4078174,-0.98635054,-0.45855093,-1.6163721,-5.1398983,6.180086
5.1833696,3.9506278,-3.4131436,-0.96398,-0.42552772,-1.4567652,-5.450405,6.6347265
5.18373,3.9454606,-3.4131436,-0.96398,-0.42552772,-1.455154,-5.464093,6.653575
5.184103,3.9404087,-3.3929036,-0.93521786,-0.38824347,-1.4247599,-5.8318014,6.988101
5.1844797,3.9353619,-3.3929036,-0.93521786,-0.38824347,-1.4230757,-5.845232,7.006548
5.184864,3.930464,-3.3481627,-0.9011294,-0.34882867,-1.3830466,-6.1982203,7.393216
5.185253,3.925572,-3.3481627,-0.9011294,-0.34882867,-1.3813055,-6.2112913,7.411134
5.1856446,3.9208603,-3.2799857,-0.8617146,-0.3094139,-1.2263179,-6.5351086,7.6726584
5.1860404,3.916154,-3.2799857,-0.8617146,-0.3094139,-1.2245417,-6.547736,7.689933
5.1864347,3.911653,-3.1905034,-0.81803876,-0.27212965,-1.0791221,-6.8949966,7.9315624
5.1868315,3.9071567,-3.1905034,-0.81803876,-0.27212965,-1.0773373,-6.907117,7.9480934
5.187221,3.9028912,-3.0786507,-0.7690366,-0.23804118,-1.0995264,-7.3064775,8.0021305
5.187614,3.89863,-3.0786507,-0.7690366,-0.23804118,-1.0977602,-7.3180265,8.017824
5.187995,3.894622,-2.9465578,-0.71683866,-0.20395271,-1.1678689,-7.640131,8.209795
5.1883793,3.8906183,-2.9465578,-0.71683866,-0.20395271,-1.1661391,-7.6510315,8.224562
5.188752,3.8868828,-2.7963555,-0.66677123,-0.16986425,-1.2123365,-8.001146,8.257561
5.189128,3.883151,-2.7963555,-0.66677123,-0.16986425,-1.2106409,-8.011324,8.2713785
5.189492,3.8797038,-2.628044,-0.6167038,-0.13684106,-1.2616701,-8.346291,8.389572
5.189857,3.876259,-2.628044,-0.6167038,-0.13684106,-1.2600198,-8.355685,8.402394
5.1902094,3.8731115,-2.439492,-0.5687669,-0.10701366,-1.2967339,-8.670664,8.466884
5.1905627,3.8699658,-2.439492,-0.5687669,-0.10701366,-1.2951341,-8.679213,8.478677
5.1909065,3.8671312,-2.233896,-0.5240258,-0.07612099,-1.3271008,-9.036371,8.4703
5.1913404,3.8638828,-2.0069947,-0.4814152,-0.044163052,-1.353863,-9.360928,8.492468
5.1915913,3.862006,-2.0069947,-0.4814152,-0.044163052,-1.3527203,-9.365867,8.499737
5.191924,3.8595302,-2.0069947,-0.4814152,-0.044163052,-1.3512113,-9.37241,8.509327
5.1922398,3.8574386,-1.7598532,-0.44093516,-0.015400912,-1.3066838,-9.679432,8.575105
5.1925635,3.8552961,-1.7598532,-0.44093516,-0.015400912,-1.305213,-9.684933,8.58362
5.1928797,3.8534946,-1.4935372,-0.40258563,0.012295964,-1.3564475,-9.943108,8.715561
5.193196,3.851694,-1.4935372,-0.40258563,0.012295964,-1.3550072,-9.947513,8.722996
5.1935015,3.8502672,-1.2091116,-0.36423612,0.03999284,-1.430228,-10.161393,8.848963
5.193808,3.848841,-1.2091116,-0.36423612,0.03999284,-1.4288344,-10.164591,8.855217
5.194103,3.8477955,-0.90870696,-0.32801712,0.063428655,-1.4705899,-10.319778,8.922514
5.194397,3.84675,-0.90870696,-0.32801712,0.063428655,-1.4692473,-10.321745,8.927562
5.1946764,3.8460884,-0.59125817,-0.29392865,0.08047289,-1.5972555,-10.461322,9.065445
5.194957,3.8454285,-0.59125817,-0.29392865,0.08047289,-1.5959797,-10.462042,9.069258
5.1952214,3.8451529,-0.2631567,-0.26303598,0.093256064,-1.6665957,-10.562065,9.119718
5.195488,3.8448749,-0.2631567,-0.26303598,0.093256064,-1.6653779,-10.561529,9.12231
5.1957383,3.8449876,0.07666265,-0.23533912,0.10284344,-1.6977537,-10.598038,9.070968
5.1959887,3.8451002,0.07666265,-0.23533912,0.10284344,-1.6966078,-10.596235,9.072299
5.1962237,3.8456008,0.42074308,-0.20870751,0.11136556,-1.7482018,-10.502179,9.000552
5.19646,3.8461025,0.42074308,-0.20870751,0.11136556,-1.7471235,-10.499101,9.000628
5.19668,3.8469858,0.766954,-0.18420643,0.11669188,-1.841882,-10.379848,8.836662
5.1969013,3.8478723,0.766954,-0.18420643,0.11669188,-1.8408692,-10.375512,8.835495
5.1971083,3.8491373,1.1099691,-0.16183588,0.12095294,-1.854281,-10.096986,8.622409
5.197315,3.850397,1.1099691,-0.16183588,0.12095294,-1.8533342,-10.091431,8.62002
5.1975093,3.8520195,1.4433969,-0.14266111,0.1220182,-1.9673662,-9.778226,8.405761
5.1977024,3.8536377,1.4433969,-0.14266111,0.1220182,-1.9664783,-9.771498,8.402187
5.1978836,3.855603,1.7651068,-0.12668215,0.11988767,-2.0087416,-9.390146,8.091021
5.1980643,3.85756,1.7651068,-0.12668215,0.11988767,-2.0079114,-9.382328,8.086315
5.1982307,3.8598232,2.0708377,-0.11496424,0.112430826,-2.0837615,-9.038351,7.9752293
5.1983986,3.8620903,2.0708377,-0.11496424,0.112430826,-2.0829945,-9.029558,7.9694605
5.1985545,3.8646412,2.3584592,-0.10857265,0.10390871,-2.058331,-8.574535,7.6514883
5.198712,3.8671918,2.3584592,-0.10857265,0.10390871,-2.0576108,-8.564846,7.64474
5.19886,3.870008,2.6269057,-0.10431159,0.094321325,-2.2867718,-8.1760235,7.4551325
5.1990075,3.872809,2.6269057,-0.10431159,0.094321325,-2.2860928,-8.165564,7.4474974
5.1991434,3.8758574,2.874047,-0.10005054,0.07834236,-2.6302333,-7.7856417,7.218727
5.199279,3.8788896,2.874047,-0.10005054,0.07834236,-2.6296096,-7.774499,7.210229
5.1994023,3.8821235,3.0966873,-0.105376855,0.0591676,-2.1214688,-7.465888,7.2536683
5.199526,3.8853438,3.0966873,-0.105376855,0.0591676,-2.120902,-7.454235,7.2444363
5.199657,3.8893225,3.2980223,-0.10857265,0.038927577,-2.187333,-7.1957846,7.151435
5.19975,3.8921366,3.2980223,-0.10857265,0.038927577,-2.1869059,-7.1857395,7.143196
5.1998444,3.8956947,3.4780521,-0.1011158,0.017622286,-2.7323472,-6.723097,6.792615
5.1999454,3.8994982,3.4780521,-0.1011158,0.017622286,-2.7318819,-6.709738,6.781229
5.2000184,3.9029512,3.6367764,-0.10005054,-0.004748267,-2.654932,-6.127942,6.435535
5.2000957,3.9066105,3.6367764,-0.10005054,-0.004748267,-2.6545773,-6.115285,6.4243593
5.2001586,3.9103713,3.7688692,-0.10644212,-0.02924935,-2.4819021,-5.7241297,6.245125
5.200222,3.9141512,3.7688692,-0.10644212,-0.02924935,-2.4816084,-5.71124,6.2333784
5.200269,3.9180048,3.8743305,-0.10857265,-0.053750433,-2.4909685,-5.3439093,6.0727997
5.200316,3.921843,3.8743305,-0.10857265,-0.053750433,-2.4907534,-5.3310165,6.060658
5.200316,3.921843,3.8743305,-0.10857265,-0.053750433,-2.4907534,-5.3310165,6.060658
5.200346,3.9353771,4.0192065,-0.10431159,-0.102752596,-2.7108803,-4.783971,5.7580504
5.200346,3.9353771,4.0192065,-0.10431159,-0.102752596,-2.7108803,-4.783971,5.7580504
5.2003517,3.938216,4.0192065,-0.10431159,-0.102752596,-2.7108524,-4.774764,5.7487326
5.200342,3.941928,4.065013,-0.10218106,-0.12725368,-2.9311652,-4.5474014,5.6597958
5.2003317,3.9457858,4.065013,-0.10218106,-0.12725368,-2.9312146,-4.535097,5.6469383
5.200303,3.9498286,4.09484,-0.10324633,-0.14962423,-3.0223236,-4.239846,5.5710583
5.200276,3.953706,4.09484,-0.10324633,-0.14962423,-3.0224502,-4.2276907,5.5579395
5.2002325,3.9577317,4.1118846,-0.109637916,-0.17199479,-3.0465927,-3.8704543,5.553755
5.2002325,3.9577317,4.1118846,-0.109637916,-0.17199479,-3.0465927,-3.8704543,5.553755
5.2002325,3.9577317,4.1118846,-0.109637916,-0.17199479,-3.0465927,-3.8704543,5.553755
5.2002325,3.9577317,4.1118846,-0.109637916,-0.17199479,-3.0465927,-3.8704543,5.553755
5.2000246,3.974832,4.1118846,-0.12455162,-0.21886642,-3.3013368,-2.9994383,5.47547
5.199983,3.9769478,4.1118846,-0.12455162,-0.21886642,-3.3015268,-2.9931521,5.468002
5.1998973,3.980646,4.0916443,-0.13200846,-0.24017172,-3.4407897,-2.6183786,5.4883585
5.199808,3.9844275,4.0916443,-0.13200846,-0.24017172,-3.4412026,-2.607336,5.474852
5.199704,3.9881372,4.060752,-0.14266111,-0.261477,-3.5422335,-2.180067,5.590754
5.1996,3.9918523,4.060752,-0.14266111,-0.261477,-3.542715,-2.1694298,5.5773163
5.199484,3.9954834,4.017076,-0.15331376,-0.27852124,-3.6055012,-1.718647,5.7460213
5.199366,3.9991221,4.017076,-0.15331376,-0.27852124,-3.6060438,-1.7084317,5.7326994
5.199238,4.0026608,3.9627473,-0.1639664,-0.2945002,-3.6832461,-1.3203535,5.8968015
5.199109,4.006196,3.9627473,-0.1639664,-0.2945002,-3.6838403,-1.3106232,5.8837132
5.1989737,4.009634,3.896701,-0.17568432,-0.30515283,-3.7515006,-0.88468313,6.067215
5.1988363,4.0130796,3.896701,-0.17568432,-0.30515283,-3.7521296,-0.87536764,6.0543327
5.198695,4.0164065,3.8189366,-0.1852717,-0.3126097,-3.7767267,-0.46904755,6.1950464
5.1985517,4.01974,3.8189366,-0.1852717,-0.3126097,-3.7773821,-0.46019363,6.1824656
5.1984053,4.0229564,3.7305198,-0.19805487,-0.32006654,-3.8355162,-0.09740925,6.328285
5.1982594,4.0261636,3.7305198,-0.19805487,-0.32006654,-3.8361878,-0.08903456,6.316085
5.1981125,4.029251,3.6335807,-0.21083803,-0.32432762,-3.923053,0.25892258,6.5485015
5.1979647,4.032338,3.6335807,-0.21083803,-0.32432762,-3.9237292,0.26685905,6.536676
5.197823,4.0352974,3.5291848,-0.22575174,-0.32432762,-4.0728216,0.5330024,6.7743216
5.1976805,4.0382605,3.5291848,-0.22575174,-0.32432762,-4.0734777,0.5405402,6.7629333
5.197546,4.0411034,3.4183972,-0.23960018,-0.32006654,-4.236897,0.8063321,6.9483204
5.197413,4.043914,3.4183972,-0.23960018,-0.32006654,-4.2375107,0.813427,6.9374943
5.197295,4.046609,3.3033488,-0.2566444,-0.31047916,-4.3864956,1.0309553,7.0420723
5.197176,4.049298,3.3033488,-0.2566444,-0.31047916,-4.387038,1.037746,7.0317183
5.197075,4.051856,3.1829739,-0.27581918,-0.297696,-4.425812,1.3602939,7.136848
5.196973,4.054407,3.1829739,-0.27581918,-0.297696,-4.426275,1.3667569,7.1270576
5.1968946,4.05682,3.0594032,-0.29925498,-0.28171703,-4.5654974,1.660274,7.0556374
5.1968155,4.059232,3.0594032,-0.29925498,-0.28171703,-4.565858,1.6664591,7.046444
5.196766,4.061496,2.9305062,-0.32801712,-0.261477,-4.4990506,1.983655,6.927804
5.1967154,4.063756,2.9305062,-0.32801712,-0.261477,-4.499282,1.9895673,6.919292
5.1966968,4.065849,2.797348,-0.36104032,-0.24123697,-4.4275436,2.2729483,6.796626
5.1966767,4.067946,2.797348,-0.36104032,-0.24123697,-4.427633,2.2785912,6.7888455
5.196691,4.0698633,2.6567333,-0.39832458,-0.22206222,-4.336587,2.4371917,6.5999346
5.1967053,4.0717864,2.6567333,-0.39832458,-0.22206222,-4.336525,2.4425623,6.5929513
5.1967535,4.0735083,2.5097268,-0.43773937,-0.20395271,-4.2788444,2.639144,6.3953357
5.1968007,4.0752354,2.5097268,-0.43773937,-0.20395271,-4.278625,2.6441877,6.3892207
5.1968803,4.0767584,2.3531327,-0.47821942,-0.18690848,-4.0915127,2.8500082,6.0536227
5.1969595,4.078282,2.3531327,-0.47821942,-0.18690848,-4.09115,2.8547022,6.048407
5.19707,4.0795975,2.1858864,-0.51656896,-0.16986425,-3.7937627,2.926085,5.6754074
5.1971793,4.0809083,2.1858864,-0.51656896,-0.16986425,-3.7932634,2.930404,5.671126
5.1973133,4.081999,2.0047913,-0.55172265,-0.15708108,-3.5723789,3.178506,5.289488
5.197446,4.083084,2.0047913,-0.55172265,-0.15708108,-3.571768,3.182375,5.286147
5.1975937,4.0839243,1.8077174,-0.58155006,-0.15175477,-3.4753265,3.3580623,4.7091775
5.19774,4.084763,1.8077174,-0.58155006,-0.15175477,-3.4746518,3.361355,4.706809
5.197896,4.085333,1.5946645,-0.6071164,-0.14642844,-3.4356287,3.5411625,4.3032646
5.1980534,4.085908,1.5946645,-0.6071164,-0.14642844,-3.4349055,3.543821,4.301928
5.1982203,4.086212,1.3645674,-0.62735647,-0.14003685,-3.3623168,3.6846752,3.846747
5.198386,4.0865164,1.3645674,-0.62735647,-0.14003685,-3.3615541,3.686666,3.8464608
5.198556,4.086534,1.1184913,-0.6412049,-0.13364527,-3.1692357,3.898603,3.3779998
5.1987267,4.086552,1.1184913,-0.6412049,-0.13364527,-3.1684506,3.8998542,3.3788013
5.1988955,4.086274,0.8543057,-0.6475965,-0.13044947,-2.956985,3.9721215,2.944951
5.1990647,4.0859966,0.8543057,-0.6475965,-0.13044947,-2.9562047,3.972566,2.9468484
5.1992292,4.0854187,0.57627165,-0.6454659,-0.12725368,-2.7447548,4.0727234,2.5524054
5.199395,4.0848403,0.57627165,-0.6454659,-0.12725368,-2.743992,4.0723267,2.5554066
5.1995525,4.0839605,0.2822587,-0.63374805,-0.12405789,-2.4607525,4.0902085,2.1572647
5.1997104,4.083082,0.2822587,-0.63374805,-0.12405789,-2.460024,4.0889363,2.1613445
5.199853,4.0818796,-0.026668001,-0.61457324,-0.12725368,-2.3013523,4.057944,1.697289
5.1999955,4.080683,-0.026668001,-0.61457324,-0.12725368,-2.3006945,4.055691,1.7024722
5.20012,4.079155,-0.3473126,-0.59007215,-0.13471054,-2.2761798,4.0236673,1.2922072
5.200245,4.077627,-0.3473126,-0.59007215,-0.13471054,-2.2756002,4.0203686,1.2985268
5.200351,4.075766,-0.6818056,-0.5602448,-0.14323264,-2.3229952,3.8244786,0.94685173
5.2004585,4.073907,-0.6818056,-0.5602448,-0.14323264,-2.3225021,3.820122,0.9543023
5.2005477,4.0717154,-1.0248208,-0.5282869,-0.15175477,-2.2454748,3.5034628,0.6564164
5.200638,4.0695257,-1.0248208,-0.5282869,-0.15175477,-2.2450573,3.4980407,0.6649809
5.2007113,4.066994,-1.376358,-0.49419838,-0.16240741,-2.0723403,3.1228254,0.38261938
5.200785,4.064473,-1.376358,-0.49419838,-0.16240741,-2.0719976,3.1163232,0.39229393
5.200852,4.061617,-1.7332217,-0.45584887,-0.17199479,-2.081269,2.7065845,0.09669185
5.2009196,4.0587554,-1.7332217,-0.45584887,-0.17199479,-2.0809546,2.6990309,0.10754895
5.2009764,4.055586,-2.0922158,-0.41536883,-0.18264744,-1.9945035,2.1254702,0.014112234
5.201034,4.052413,-2.0922158,-0.41536883,-0.18264744,-1.994235,2.116902,0.026010513
5.2010965,4.048935,-2.4501445,-0.371693,-0.19330007,-2.1136537,1.5520066,0.029442549
5.2011614,4.0454545,-2.4501445,-0.371693,-0.19330007,-2.1133552,1.5425234,0.042443037
5.201252,4.0417423,-2.8038125,-0.32695186,-0.1986264,-2.1416678,0.996202,0.13778996
5.2013435,4.0380955,-2.8038125,-0.32695186,-0.1986264,-2.141248,0.98632395,0.1514709
5.20148,4.0342617,-3.147893,-0.28114548,-0.20395271,-2.1885018,0.48773986,0.33362865
5.201621,4.030355,-3.147893,-0.28114548,-0.20395271,-2.1878445,0.47733897,0.34844613
5.2017326,4.026437,-3.4823859,-0.23214333,-0.20501798,-2.2400017,0.050047517,0.5450587
5.2018433,4.022544,-3.4823859,-0.23214333,-0.20501798,-2.2394886,0.03935659,0.559582
5.2018642,4.0184636,-3.8030305,-0.1820759,-0.20501798,-1.985608,-0.52321506,1.1009597
5.201885,4.0143585,-3.8030305,-0.1820759,-0.20501798,-1.9855107,-0.5352516,1.1156495
5.2018657,4.010044,-4.1087613,-0.12881267,-0.20288746,-2.0957348,-1.1084852,1.4755712
5.201846,4.0057297,-4.1087613,-0.12881267,-0.20288746,-2.0958233,-1.1215394,1.4906707
5.2017827,4.001216,-4.392122,-0.07554945,-0.20288746,-2.0721736,-1.7005832,1.9419048
5.2017193,3.9966931,-4.392122,-0.07554945,-0.20288746,-2.072467,-1.7146902,1.957363
5.2016163,3.9919665,-4.650981,-0.028677817,-0.20288746,-1.8766196,-2.337872,2.4616537
5.2015133,3.9872246,-4.650981,-0.028677817,-0.20288746,-1.8770987,-2.3530502,2.4775052
5.20138,3.9823492,-4.8821435,0.013932762,-0.20182219,-1.805887,-2.9674516,2.9436748
5.2012463,3.9774475,-4.8821435,0.013932762,-0.20182219,-1.8065048,-2.9834647,2.9597402
5.201082,3.9723964,-5.0834785,0.05654334,-0.20395271,-1.8407832,-3.5939755,3.3495545
5.2009177,3.9673424,-5.0834785,0.05654334,-0.20395271,-1.84154,-3.6108103,3.3657846
5.200719,3.9621527,-5.256051,0.10021918,-0.20927905,-1.9669589,-4.2029796,3.8466551
5.2005205,3.956987,-5.256051,0.10021918,-0.20927905,-1.9678749,-4.220541,3.862879
5.2002926,3.9517002,-5.3987966,0.13750345,-0.21567063,-2.103002,-4.7942033,4.152169
5.2000637,3.9464002,-5.3987966,0.13750345,-0.21567063,-2.104056,-4.8125343,4.168454
5.199809,3.9410362,-5.510649,0.16839612,-0.22312748,-2.1531157,-5.3197365,4.5198765
5.199553,3.935659,-5.510649,0.16839612,-0.22312748,-2.1542957,-5.3386474,4.5360374
5.1992702,3.9302118,-5.59374,0.19396245,-0.23484538,-2.2226312,-5.8368645,4.8155155
5.1989875,3.9247456,-5.59374,0.19396245,-0.23484538,-2.223937,-5.856388,4.8315744
5.1986833,3.9192667,-5.650199,0.216333,-0.24549803,-2.239703,-6.254445,4.9671354
5.198377,3.9137678,-5.650199,0.216333,-0.24549803,-2.2411065,-6.2743664,4.9829197
5.1980476,3.9082384,-5.6832223,0.23657304,-0.26041174,-2.328815,-6.6298037,5.1134577
5.197716,3.9026942,-5.6832223,0.23657304,-0.26041174,-2.3303342,-6.650182,5.1289864
5.1973624,3.89715,-5.6917443,0.252552,-0.27745596,-2.2984402,-6.9820156,5.3405676
5.197007,3.8915913,-5.6917443,0.252552,-0.27745596,-2.3000693,-7.002734,5.3557396
5.1966333,3.886049,-5.6800265,0.26426992,-0.29343495,-2.292205,-7.229479,5.475957
5.1962585,3.8804917,-5.6800265,0.26426992,-0.29343495,-2.293921,-7.2504473,5.49074
5.1958613,3.8749433,-5.6491337,0.27811834,-0.31047916,-2.3484101,-7.5110044,5.591414
5.195466,3.8694122,-5.6491337,0.27811834,-0.31047916,-2.3502207,-7.5321436,5.6057253
5.1950464,3.8639073,-5.6001315,0.2919668,-0.3275234,-2.2707334,-7.66831,5.748957
5.1946263,3.858387,-5.6001315,0.2919668,-0.3275234,-2.2726524,-7.68968,5.7628098
5.194186,3.8529458,-5.536216,0.30581522,-0.34456763,-2.2794456,-7.9072704,5.8336287
5.1937456,3.8474836,-5.536216,0.30581522,-0.34456763,-2.281455,-7.9286785,5.846912
5.193285,3.8420863,-5.4584513,0.3185984,-0.3605466,-2.3218608,-8.079309,5.907622
5.1928453,3.8369327,-5.4584513,0.3185984,-0.3605466,-2.3238618,-8.099741,5.9197516
5.1923633,3.831595,-5.366839,0.33138156,-0.3754603,-2.2638001,-8.288691,5.960742
5.1918616,3.826028,-5.366839,0.33138156,-0.3754603,-2.266079,-8.31101,5.9733934
5.1913567,3.8207867,-5.2624426,0.34736055,-0.3935698,-2.2683716,-8.380137,6.104668
5.190855,3.8155718,-5.2624426,0.34736055,-0.3935698,-2.270648,-8.401318,6.1160526
5.190329,3.810442,-5.1484594,0.3633395,-0.40741822,-2.205988,-8.403203,6.136481
5.1897993,3.8052616,-5.1484594,0.3633395,-0.40741822,-2.208387,-8.424489,6.1473255
5.1892533,3.8002594,-5.0227585,0.38251427,-0.4170056,-2.2874691,-8.545818,6.2819366
5.1887064,3.7952464,-5.0227585,0.38251427,-0.4170056,-2.289935,-8.566662,6.2919555
5.188136,3.790356,-4.88747,0.40275428,-0.426593,-2.4217954,-8.568073,6.473736
5.1875677,3.7854795,-4.88747,0.40275428,-0.426593,-2.4243548,-8.588603,6.4829946
5.186976,3.7807386,-4.7415285,0.42405957,-0.4319193,-2.5754583,-8.656675,6.750185
5.186387,3.7760112,-4.7415285,0.42405957,-0.4319193,-2.5781069,-8.676824,6.758671
5.185774,3.7714176,-4.582804,0.44536486,-0.4319193,-2.681416,-8.715786,7.0394616
5.185169,3.7668824,-4.582804,0.44536486,-0.4319193,-2.6841254,-8.7353525,7.0471153
5.1845427,3.762503,-4.413427,0.46667016,-0.43085405,-2.7108724,-8.816729,7.327038
5.1839147,3.7581093,-4.413427,0.46667016,-0.43085405,-2.7136815,-8.83593,7.333951
5.1832743,3.7539296,-4.2333975,0.48477966,-0.42765826,-2.6830235,-8.983712,7.8381214
5.1826315,3.749728,-4.2333975,0.48477966,-0.42765826,-2.6858916,-9.002303,7.8442407
5.1819763,3.7457523,-4.04165,0.50288916,-0.42446247,-2.6744456,-9.068022,8.165646
5.1813183,3.7417552,-4.04165,0.50288916,-0.42446247,-2.6773715,-9.085946,8.170962
5.1806545,3.737998,-3.838184,0.5167376,-0.41913614,-2.6659584,-9.213163,8.539471
5.179986,3.7342129,-3.838184,0.5167376,-0.41913614,-2.6689234,-9.230365,8.544017
5.179315,3.7306714,-3.6230009,0.5252597,-0.4170056,-2.6431684,-9.256265,8.772922
5.1772747,3.7203763,-3.3960996,0.52952075,-0.41274455,-2.7623186,-9.428616,9.108657
5.1772747,3.7203763,-3.3960996,0.52952075,-0.41274455,-2.7623186,-9.428616,9.108657
5.1772747,3.7203763,-3.3960996,0.52952075,-0.41274455,-2.7623186,-9.428616,9.108657
5.1765833,3.717197,-3.1574802,0.52952075,-0.4084835,-2.9856367,-9.601699,9.317107
5.1759233,3.7141614,-3.1574802,0.52952075,-0.4084835,-2.9885387,-9.616074,9.319487
5.1759233,3.7141614,-3.1574802,0.52952075,-0.4084835,-2.9885387,-9.616074,9.319487
5.174568,3.7083347,-2.907143,0.51780283,-0.39996138,-1.888372,-9.62491,9.763781
5.1738944,3.7056656,-2.6461532,0.5167376,-0.38185188,-3.0932178,-9.738537,9.477737
5.1732645,3.7031677,-2.6461532,0.5167376,-0.38185188,-3.0959744,-9.750745,9.478874
5.1732645,3.7031677,-2.6461532,0.5167376,-0.38185188,-3.0959744,-9.750745,9.478874
5.1719723,3.698572,-2.3745108,0.5188681,-0.36267713,-3.7863674,-9.864796,9.585222
5.1713743,3.6966157,-2.0922158,0.49117124,-0.34456763,-2.8791757,-9.980171,9.690589
5.1713743,3.6966157,-2.0922158,0.49117124,-0.34456763,-2.8791757,-9.980171,9.690589
5.1702213,3.692918,-1.7960722,0.45495224,-0.32113183,-2.1419935,-10.023161,9.676033
5.169654,3.6912184,-1.7960722,0.45495224,-0.32113183,-2.144463,-10.032078,9.675622
5.169654,3.6912184,-1.7960722,0.45495224,-0.32113183,-2.144463,-10.032078,9.675622
5.168454,3.6882882,-1.1718273,0.44216907,-0.26680332,-3.4712648,-10.493771,9.428999
5.168075,3.6875665,-1.1718273,0.44216907,-0.26680332,-3.4729085,-10.498184,9.427761
5.167555,3.6865761,-1.1718273,0.44216907,-0.26680332,-3.4751577,-10.5042305,9.426055
5.1670833,3.6859457,-0.8373343,0.41021115,-0.24549803,-1.4756451,-10.384225,9.6872635
5.166596,3.6852944,-0.8373343,0.41021115,-0.24549803,-1.4777503,-10.388863,9.685036
5.166133,3.6850276,-0.49325383,0.40275428,-0.2167359,-2.7678304,-10.305774,9.203285
5.1656504,3.6847496,-0.49325383,0.40275428,-0.2167359,-2.7699122,-10.309009,9.20025
5.165201,3.6848855,-0.14171655,0.40488482,-0.18903902,-3.2985687,-10.233945,9.043316
5.164759,3.6850195,-0.14171655,0.40488482,-0.18903902,-3.3004675,-10.235473,9.039671
5.1643453,3.6855204,0.21195124,0.37718794,-0.16666846,-3.1681724,-10.111024,8.992326
5.163926,3.6860287,0.21195124,0.37718794,-0.16666846,-3.1699748,-10.111082,8.988022
5.163567,3.6868827,0.5688148,0.3303163,-0.14110212,-3.3391094,-10.152686,8.863691
5.163207,3.6877403,0.5688148,0.3303163,-0.14110212,-3.3406553,-10.151202,8.859059
5.162912,3.6889334,0.9299395,0.2706615,-0.1176663,-3.499938,-10.291843,8.973876
5.162616,3.6901288,0.9299395,0.2706615,-0.1176663,-3.5012035,-10.2888365,8.968972
5.1623964,3.6916494,1.2963904,0.19502772,-0.09529574,-3.2723026,-10.427955,9.069258
5.1621766,3.6931713,1.2963904,0.19502772,-0.09529574,-3.2732396,-10.423422,9.064188
5.1620398,3.6950288,1.6660372,0.11193709,-0.0697294,-3.1732697,-10.340681,9.130813
5.161905,3.6968648,1.6660372,0.11193709,-0.0697294,-3.1738496,-10.334638,9.125663
5.161851,3.699045,2.0388799,0.029911729,-0.045228317,-3.2075949,-10.255146,9.153852
5.1617975,3.7012167,2.0388799,0.029911729,-0.045228317,-3.2078242,-10.24752,9.148531
5.1618223,3.7037127,2.4117224,-0.049983107,-0.023923028,-3.0975862,-10.156968,9.171774
5.161847,3.7062216,2.4117224,-0.049983107,-0.023923028,-3.0974765,-10.147781,9.166234
5.161948,3.7090745,2.7834997,-0.12668215,-0.0015524738,-2.6277838,-9.816183,9.174813
5.1620474,3.7118845,2.7834997,-0.12668215,-0.0015524738,-2.6273575,-9.805585,9.169077
5.1622086,3.715009,3.14782,-0.18740222,0.022948608,-2.698494,-9.400921,9.0864315
5.1623716,3.7181582,3.14782,-0.18740222,0.022948608,-2.6978016,-9.388834,9.080316
5.16258,3.7216744,3.4972267,-0.22681701,0.047449693,-2.4622746,-8.853277,8.78154
5.1627874,3.7251685,3.4972267,-0.22681701,0.047449693,-2.4613853,-8.8397665,8.774852
5.1630325,3.7290154,3.8274589,-0.2534486,0.07301604,-2.9535441,-8.192764,8.470672
5.1632767,3.73286,3.8274589,-0.2534486,0.07301604,-2.9524937,-8.1778555,8.463308
5.163549,3.7370603,4.1321244,-0.26410127,0.10284344,-3.2865157,-7.7306175,8.086527
5.16382,3.7412336,4.1321244,-0.26410127,0.10284344,-3.285355,-7.714463,8.07843
5.1641254,3.7457187,4.4090934,-0.2864718,0.13267085,-2.7860475,-8.329126,8.347488
5.164432,3.750201,4.4090934,-0.2864718,0.13267085,-2.784731,-8.311753,8.338741
5.1647696,3.7549767,4.6711483,-0.30671185,0.16143298,-2.0937457,-8.575735,8.549677
5.165107,3.75973,4.6711483,-0.30671185,0.16143298,-2.092297,-8.557316,8.5402975
5.1654625,3.7648041,4.9310727,-0.30351606,0.1912604,-2.751565,-8.652634,8.35298
5.165818,3.7698793,4.9310727,-0.30351606,0.1912604,-2.750032,-8.633064,8.342725
5.1661806,3.7752724,5.186736,-0.29073286,0.217892,-2.8250828,-8.372977,8.159212
5.1665416,3.7806292,5.186736,-0.29073286,0.217892,-2.8235283,-8.352491,8.148041
5.16691,3.786296,5.436008,-0.28540656,0.2391973,-2.5729387,-7.435508,7.719408
5.1672797,3.7919643,5.436008,-0.28540656,0.2391973,-2.5713418,-7.4139977,7.7072363
5.16765,3.7979143,5.660779,-0.27368864,0.25943732,-2.2872229,-6.5488167,7.2823944
5.1680193,3.8038235,5.660779,-0.27368864,0.25943732,-2.2856233,-6.5266,7.2693043
5.168379,3.8099964,5.850396,-0.24812229,0.27648154,-2.336738,-5.804495,6.948842
5.168739,3.816152,5.850396,-0.24812229,0.27648154,-2.3351798,-5.7816277,6.93473
5.169077,3.822515,6.0016637,-0.21083803,0.28819945,-2.5108805,-5.3799686,6.689908
5.16942,3.8289304,6.0016637,-0.21083803,0.28819945,-2.5093937,-5.356475,6.6746526
5.169736,3.8355079,6.1135163,-0.16609693,0.29778683,-2.75702,-5.3614063,6.605932
5.1700497,3.842022,6.1135163,-0.16609693,0.29778683,-2.7556546,-5.33792,6.58988
5.1703377,3.8487713,6.1976724,-0.11816003,0.3020479,-3.1087446,-5.361781,6.5440893
5.170626,3.855497,6.1976724,-0.11816003,0.3020479,-3.1074903,-5.3379383,6.526932
5.1708827,3.8623002,6.260523,-0.074484184,0.30311316,-3.3026962,-5.242298,6.4612813
5.1711407,3.869073,6.260523,-0.074484184,0.30311316,-3.3015752,-5.218693,6.44344
5.1713696,3.875967,6.3031335,-0.0382652,0.29885212,-3.2766333,-4.8980904,6.424883
5.1716003,3.8828583,6.3031335,-0.0382652,0.29885212,-3.2756276,-4.874487,6.4061785
5.1718006,3.8898091,6.3244386,-0.006307263,0.28819945,-3.2125034,-4.4822836,6.2528505
5.172003,3.8967228,6.3244386,-0.006307263,0.28819945,-3.2116244,-4.45903,6.2335486
5.1721673,3.9036741,6.322308,0.0277812,0.2722205,-3.2348452,-3.9284306,6.1897836
5.172335,3.9106312,6.322308,0.0277812,0.2722205,-3.2341146,-3.9055023,6.169796
5.1724606,3.917581,6.292481,0.06400019,0.25198045,-3.2335668,-3.5238562,6.2738976
5.1725874,3.9244947,6.292481,0.06400019,0.25198045,-3.2330103,-3.5015793,6.253458
5.17267,3.9313915,6.2317605,0.10661077,0.22747938,-3.6923385,-3.1110682,6.146446
5.1727543,3.9382935,6.2317605,0.10661077,0.22747938,-3.6919692,-3.0893698,6.1254654
5.1727905,3.9451337,6.1422787,0.14922135,0.1997825,-4.0844574,-2.6660814,5.998889
5.172829,3.9519393,6.1422787,0.14922135,0.1997825,-4.084291,-2.645255,5.97764
5.1728225,3.958679,6.0250993,0.18544033,0.1699551,-4.3716226,-2.213255,5.8221006
5.172818,3.9653854,6.0250993,0.18544033,0.1699551,-4.3716426,-2.1932898,5.8006277
5.172772,3.9719725,5.882354,0.21313721,0.13906243,-4.678303,-1.7431345,5.7408543
5.1727285,3.9785275,5.882354,0.21313721,0.13906243,-4.678494,-1.7241578,5.719378
5.1726475,3.9849207,5.709781,0.23231198,0.1071045,-4.9805136,-1.217619,5.573593
5.1725698,3.9913216,5.709781,0.23231198,0.1071045,-4.9808574,-1.1996012,5.552184
5.1724586,3.9974551,5.507381,0.23976883,0.07301604,-5.1728754,-0.57936525,5.28715
5.1723495,4.0036516,5.507381,0.23976883,0.07301604,-5.173354,-0.5624132,5.266022
5.1722126,4.0094748,5.2762184,0.23337723,0.034666516,-5.188318,0.099598885,4.843654
5.1720757,4.015359,5.2762184,0.23337723,0.034666516,-5.1889167,0.11522579,4.8232307
5.171915,4.020871,5.012033,0.21100669,-0.0079440605,-5.203984,0.69935036,4.4542785
5.1717553,4.0263853,5.012033,0.21100669,-0.0079440605,-5.20468,0.7135563,4.434807
5.1715717,4.031482,4.7126937,0.17585295,-0.05588096,-5.205481,1.286582,3.9999537
5.1713886,4.03658,4.7126937,0.17585295,-0.05588096,-5.2062793,1.2992764,3.9816332
5.171184,4.041185,4.3771353,0.12791605,-0.10701366,-5.1353416,1.7413428,3.4141512
5.17098,4.045801,4.3771353,0.12791605,-0.10701366,-5.1362314,1.7524009,3.397254
5.1707473,4.0498734,4.008554,0.070391774,-0.16240741,-4.931344,2.1256413,3.0085354
5.1705146,4.0539517,4.008554,0.070391774,-0.16240741,-4.932358,2.1349077,2.9932542
5.170242,4.0573616,3.6090796,0.0043453816,-0.21780115,-4.7467985,2.544284,2.3431807
5.169967,4.0607853,3.6090796,0.0043453816,-0.21780115,-4.747993,2.5514088,2.329885
5.169665,4.0634136,3.1819086,-0.06489681,-0.2763907,-4.4955196,2.9249077,1.7254148
5.169359,4.066063,3.1819086,-0.06489681,-0.2763907,-4.4968443,2.929699,1.7146106
5.1690845,4.067893,2.7259753,-0.13626952,-0.3360455,-4.282563,3.238993,1.0316386
5.1688,4.0697746,2.7259753,-0.13626952,-0.3360455,-4.2837925,3.2418866,1.023602
5.16854,4.070923,2.245541,-0.20977278,-0.39463505,-3.9257932,3.559059,0.43884325
5.168279,4.0720687,2.245541,-0.20977278,-0.39463505,-3.9269216,3.5601819,0.43348837
5.168036,4.072519,1.7469974,-0.28008023,-0.45215935,-3.9183984,3.784676,-0.18706656
5.1677923,4.07297,1.7469974,-0.28008023,-0.45215935,-3.919457,3.784112,-0.18991661
5.1675406,4.0727324,1.2324746,-0.34506136,-0.50542253,-3.42734,3.9493084,-0.43941736
5.16729,4.0724955,1.2324746,-0.34506136,-0.50542253,-3.4284194,3.9469218,-0.4399166
5.1670246,4.071579,0.71156025,-0.40791196,-0.55549,-2.9219956,3.8229628,-0.29449558
5.1667595,4.0706615,0.71156025,-0.40791196,-0.55549,-2.923142,3.8187132,-0.29271936
5.1664963,4.069096,0.18958068,-0.4515878,-0.59810054,-3.417483,3.6691499,-0.1881442
5.1662345,4.067527,0.18958068,-0.4515878,-0.59810054,-3.4186122,3.6632316,-0.18412018
5.1659675,4.0653315,-0.32494205,-0.48674154,-0.6364501,-3.697494,3.5838203,-0.067845345
5.1657004,4.06312,-0.32494205,-0.48674154,-0.6364501,-3.6986437,3.5761824,-0.06167364
5.1654215,4.060332,-0.8245511,-0.5304174,-0.6758649,-3.3407152,3.3610413,0.15229082
5.165142,4.057515,-0.8245511,-0.5304174,-0.6758649,-3.3419163,3.351709,0.16041756
5.164838,4.0541496,-1.3092464,-0.5740932,-0.7110186,-2.7590437,3.1013124,0.5485301
5.164535,4.05077,-1.3092464,-0.5740932,-0.7110186,-2.7603438,3.0902858,0.5583687
5.164207,4.0468764,-1.7737017,-0.60392064,-0.7440418,-2.7665439,2.5796986,0.981565
5.163884,4.0429997,-1.7737017,-0.60392064,-0.7440418,-2.76793,2.5671463,0.99287033
5.1635413,4.0387383,-2.2157865,-0.6198996,-0.7738692,-2.8843236,2.045821,1.4506235
5.163204,4.0344915,-2.2157865,-0.6198996,-0.7738692,-2.8857665,2.0321012,1.4629638
5.162897,4.02991,-2.6344354,-0.63374805,-0.7983703,-2.9684856,1.5531601,2.0080318
5.162596,4.0253444,-2.6344354,-0.63374805,-0.7983703,-2.9697764,1.5387264,2.0214953
5.162323,4.020388,-3.023257,-0.64227015,-0.81754506,-3.028405,1.0014257,2.6444511
5.162056,4.0154533,-3.023257,-0.64227015,-0.81754506,-3.0295477,0.9860978,2.6591647
5.1618004,4.010125,-3.3801205,-0.64227015,-0.8281977,-3.0881004,0.49085426,3.3024125
5.1615515,4.0048265,-3.3801205,-0.64227015,-0.8281977,-3.0891666,0.47449923,3.3182344
5.161306,3.999168,-3.7050261,-0.6380091,-0.83245873,-2.8651576,0.00219059,3.8091893
5.161068,3.9935231,-3.7050261,-0.6380091,-0.83245873,-2.86618,-0.01522541,3.825986
5.160832,3.9876144,-3.9990392,-0.62735647,-0.83245873,-2.6564963,-0.4213171,4.2026587
5.1606007,3.9816842,-3.9990392,-0.62735647,-0.83245873,-2.6574795,-0.43967104,4.22018
5.1603727,3.9755185,-4.26429,-0.6113775,-0.8271324,-2.4525483,-0.92803764,4.5495944
5.1601515,3.969349,-4.26429,-0.6113775,-0.8271324,-2.453494,-0.9472146,4.567687
5.1599298,3.962963,-4.5007787,-0.59007215,-0.81967556,-2.29642,-1.4603286,4.9454517
5.1597157,3.9566119,-4.5007787,-0.59007215,-0.81967556,-2.2973323,-1.4801979,4.9638877
5.159498,3.9500668,-4.708505,-0.5645058,-0.813284,-2.23601,-2.0610104,5.2557077
5.1592875,3.9435434,-4.708505,-0.5645058,-0.813284,-2.2369046,-2.081585,5.274415
5.159072,3.9368646,-4.88747,-0.53680897,-0.80369663,-2.247396,-2.6725845,5.7770543
5.1588635,3.9301953,-4.88747,-0.53680897,-0.80369663,-2.2482824,-2.6938095,5.795925
5.158654,3.9234543,-5.037672,-0.5059163,-0.7887829,-2.3688807,-3.2899837,6.0447025
5.158452,3.9167297,-5.037672,-0.5059163,-0.7887829,-2.369742,-3.311575,6.0634727
5.1582437,3.9099102,-5.1569815,-0.47395837,-0.77280396,-2.35147,-3.8699083,6.4797697
5.1580405,3.9030461,-5.1569815,-0.47395837,-0.77280396,-2.3523357,-3.89217,6.4986315
5.157835,3.896233,-5.247529,-0.43773937,-0.75149864,-2.372358,-4.45549,6.7326465
5.1576357,3.8894305,-5.247529,-0.43773937,-0.75149864,-2.3732035,-4.4777737,6.7510347
5.1573143,3.8786547,-5.3103795,-0.39832458,-0.7259323,-2.4607565,-5.006545,7.0096416
5.1571903,3.8743863,-5.3103795,-0.39832458,-0.7259323,-2.461278,-5.020689,7.0209427
5.1568947,3.8647323,-5.3465986,-0.35464874,-0.70036596,-2.4290133,-5.397709,7.2233424
5.1567917,3.8612897,-5.3465986,-0.35464874,-0.70036596,-2.4294496,-5.4092503,7.232275
5.1565742,3.8545737,-5.356186,-0.3077771,-0.67266905,-2.439944,-5.87726,7.599022
5.1563606,3.8478076,-5.356186,-0.3077771,-0.67266905,-2.4408514,-5.900202,7.6162157
5.1561527,3.841795,-5.3423376,-0.2598402,-0.64603746,-2.3842669,-6.2655373,7.8993893
5.1559,3.8343377,-5.3423376,-0.2598402,-0.64603746,-2.3853347,-6.2911415,7.9178734
5.1556244,3.826917,-5.305053,-0.20977278,-0.6183406,-2.3003078,-6.6807985,8.184892
5.155445,3.8220348,-5.305053,-0.20977278,-0.6183406,-2.3010628,-6.6977825,8.196659
5.1552153,3.8164363,-5.246464,-0.15757482,-0.5927743,-2.153591,-7.105315,8.45886
5.1549582,3.810098,-5.246464,-0.15757482,-0.5927743,-2.1546764,-7.127657,8.4737015
5.1549582,3.810098,-5.1644382,-0.105376855,-0.5725342,-2.1546764,-7.127657,8.4737015
5.1545095,3.8003094,-5.1644382,-0.105376855,-0.5725342,-2.070374,-7.5265102,8.831141
5.1540756,3.7910585,-5.062173,-0.0531789,-0.55335945,-2.0578332,-7.9811306,9.105551
5.1538405,3.786449,-5.062173,-0.0531789,-0.55335945,-2.0588236,-7.997859,9.115571
5.153514,3.780784,-4.9354067,-0.0052419985,-0.5373805,-1.9883714,-8.444836,9.591974
5.1531887,3.7751024,-4.9354067,-0.0052419985,-0.5373805,-1.9897358,-8.465744,9.603822
5.152838,3.7696557,-4.784139,0.040564373,-0.5224668,-1.9959967,-9.031923,9.9451885
5.152489,3.7642038,-4.784139,0.040564373,-0.5224668,-1.9974577,-9.0522785,9.956055
5.152118,3.7589962,-4.607305,0.08210969,-0.50648785,-2.0899925,-9.62262,10.420943
5.151749,3.7537894,-4.607305,0.08210969,-0.50648785,-2.091537,-9.642326,10.430833
5.151362,3.7488549,-4.401709,0.117263414,-0.4926394,-2.074006,-10.187956,10.717559
5.150975,3.7439106,-4.401709,0.117263414,-0.4926394,-2.0756192,-10.206911,10.726478
5.1505737,3.739249,-4.168416,0.14602555,-0.48198673,-2.1299667,-10.617649,10.801554
5.1501737,3.734583,-4.168416,0.14602555,-0.48198673,-2.1316404,-10.6357765,10.809521
5.149762,3.7302213,-3.9074264,0.16946137,-0.4713341,-2.1429343,-11.074305,10.80224
5.149352,3.7258594,-3.9074264,0.16946137,-0.4713341,-2.1446414,-11.091459,10.80925
5.148929,3.7218118,-3.6251314,0.19183193,-0.46387726,-2.2948408,-11.399695,10.700445
5.148507,3.717756,-3.6251314,0.19183193,-0.46387726,-2.2965965,-11.415878,10.7065115
5.148075,3.7140393,-3.321531,0.21100669,-0.45748568,-2.4564075,-11.574584,10.457878
5.1476445,3.7103224,-3.321531,0.21100669,-0.45748568,-2.4581976,-11.58965,10.462982
5.1472077,3.706942,-3.003017,0.22378986,-0.45109406,-2.4408522,-11.785524,10.108092
5.146773,3.7035646,-3.003017,0.22378986,-0.45109406,-2.4426548,-11.799424,10.112286
5.1463304,3.7005284,-2.6706543,0.23550777,-0.45109406,-2.4827964,-12.027655,9.847471
5.1458874,3.6974852,-2.6706543,0.23550777,-0.45109406,-2.484627,-12.040422,9.85077
5.145439,3.6947951,-2.3287046,0.24509515,-0.45215935,-2.7354746,-12.305763,9.5228195
5.144992,3.692102,-2.3287046,0.24509515,-0.45215935,-2.7373235,-12.317329,9.525246
5.144541,3.689754,-1.9782325,0.24829094,-0.4564204,-2.571586,-12.696392,9.320962
5.14409,3.6874032,-1.9782325,0.24829094,-0.4564204,-2.5734417,-12.706757,9.322562
5.1436415,3.6854005,-1.6192384,0.24509515,-0.46068147,-2.0294113,-12.849958,9.05525
5.143193,3.6833954,-1.6192384,0.24509515,-0.46068147,-2.0312552,-12.859089,9.056071
5.1427364,3.6817577,-1.2538526,0.25148675,-0.4649425,-1.49683,-12.052932,8.304261
5.1422806,3.6801178,-1.2538526,0.25148675,-0.4649425,-1.4986994,-12.060793,8.304216
5.1418056,3.678861,-0.89485854,0.28024888,-0.46920356,-3.162223,-12.024304,7.5083365
5.1413317,3.6776018,-0.89485854,0.28024888,-0.46920356,-3.1641636,-12.030899,7.5073214
5.1408505,3.6766684,-0.54545176,0.28024888,-0.48305202,-2.692079,-11.907095,7.084191
5.140371,3.675735,-0.54545176,0.28024888,-0.48305202,-2.6940389,-11.91256,7.0824375
5.1399045,3.6750958,-0.2035019,0.25468254,-0.49476993,-1.5610908,-11.605688,6.6252756
5.1394396,3.6744564,-0.2035019,0.25468254,-0.49476993,-1.5629885,-11.610048,6.6230116
5.1389775,3.6741297,0.12459955,0.24935621,-0.5011615,-1.5169858,-11.263747,6.0886126
5.138516,3.6738021,0.12459955,0.24935621,-0.5011615,-1.5188645,-11.2669935,6.0857234
5.1380396,3.6737995,0.43885258,0.2674657,-0.5075531,-1.9517583,-11.139881,5.5553293
5.137561,3.673796,0.43885258,0.2674657,-0.5075531,-1.9537004,-11.142069,5.5516386
5.1370573,3.674107,0.7381919,0.28983626,-0.5160752,-1.9557447,-10.80809,5.192767
5.136563,3.6744113,0.7381919,0.28983626,-0.5160752,-1.9577456,-10.809275,5.18832
5.136044,3.6750174,1.0226175,0.3154026,-0.5224668,-1.7156397,-10.560534,4.9436464
5.1355205,3.6756282,1.0226175,0.3154026,-0.5224668,-1.717753,-10.560793,4.938345
5.1349688,3.6765404,1.2921294,0.34629527,-0.5256626,-1.5523899,-10.124402,4.7454615
5.1344166,3.6774528,1.2921294,0.34629527,-0.5256626,-1.5546149,-10.123768,4.7393208
5.133828,3.6786647,1.544597,0.3910364,-0.52885836,-2.1699028,-9.796661,4.4210396
5.1332397,3.6798773,1.544597,0.3910364,-0.52885836,-2.1722703,-9.7951765,4.4139996
5.1326146,3.68137,1.7821511,0.43045115,-0.53098893,-1.9018406,-9.558277,4.396528
5.1319895,3.6828656,1.7821511,0.43045115,-0.53098893,-1.9043506,-9.556029,4.388623
5.13133,3.6846335,2.0058565,0.4688007,-0.5299236,-1.8782603,-9.28487,4.4134135
5.13067,3.6864052,2.0058565,0.4688007,-0.5299236,-1.8808992,-9.281873,4.404668
5.1299744,3.6884406,2.2135832,0.5124765,-0.5277931,-2.1518283,-8.8472185,4.352006
5.129279,3.6904788,2.2135832,0.5124765,-0.5277931,-2.1546025,-8.843539,4.342431
5.12855,3.6927733,2.4074612,0.5550871,-0.5224668,-2.3777707,-8.374707,4.284183
5.1278205,3.6950731,2.4074612,0.5550871,-0.5224668,-2.380671,-8.370372,4.273794
5.127059,3.6975992,2.58323,0.59024084,-0.5203363,-2.3501692,-7.829155,4.281843
5.126299,3.70013,2.58323,0.59024084,-0.5203363,-2.3531835,-7.824273,4.2707267
5.12551,3.702868,2.7398238,0.6211335,-0.51714045,-2.250959,-7.3927097,4.335569
5.1247225,3.7056053,2.7398238,0.6211335,-0.51714045,-2.2540648,-7.387355,4.3238006
5.1239076,3.7085419,2.8793736,0.65522194,-0.5118142,-2.4919095,-7.046336,4.36886
5.1230917,3.7114866,2.8793736,0.65522194,-0.5118142,-2.4951162,-7.040537,4.3564243
5.1222506,3.7146018,3.0029442,0.6861146,-0.50648785,-2.5271482,-7.1349154,4.7360783
5.1214094,3.7177236,3.0029442,0.6861146,-0.50648785,-2.5304432,-7.1287766,4.723059
5.1205425,3.7210011,3.1158621,0.7106157,-0.50222677,-1.7724748,-6.8158607,5.044689
5.119676,3.7242863,3.1158621,0.7106157,-0.50222677,-1.7758584,-6.8094444,5.031111
5.118781,3.7277482,3.2191927,0.7500305,-0.49476993,-2.4114108,-5.864134,4.7152615
5.117887,3.7312186,3.2191927,0.7500305,-0.49476993,-2.414884,-5.857396,4.7010527
5.116832,3.7353942,3.3054793,0.8054243,-0.48411727,-3.8411326,-4.762316,4.0903397
5.116036,3.7385519,3.3054793,0.8054243,-0.48411727,-3.8442109,-4.756241,4.077532
5.115087,3.7423358,3.3640687,0.82992536,-0.47239935,-3.244534,-3.9110446,4.239373
5.114137,3.746137,3.3640687,0.82992536,-0.47239935,-3.248192,-3.9038568,4.223988
5.1131973,3.7500129,3.3917656,0.8373822,-0.45855093,-4.424965,-3.5086093,4.0456924
5.112258,3.7538993,3.3917656,0.8373822,-0.45855093,-4.428568,-3.501275,4.0301766
5.111327,3.7577963,3.3960266,0.824599,-0.44576776,-3.761754,-3.9632177,4.7281623
5.1103954,3.761711,3.3960266,0.824599,-0.44576776,-3.7653098,-3.955935,4.7126107
5.1094966,3.7655895,3.3917656,0.7862495,-0.43404984,-3.1989121,-3.6853118,4.8458133
5.1085987,3.769478,3.3917656,0.7862495,-0.43404984,-3.2023253,-3.6781073,4.8305507
5.107729,3.7733667,3.3821783,0.7649442,-0.4202014,-3.7227764,-3.04356,4.485078
5.1068587,3.7772646,3.3821783,0.7649442,-0.4202014,-3.726068,-3.036346,4.4699736
5.1060123,3.7811458,3.360873,0.7447042,-0.4084835,-4.2703524,-2.3108788,4.196493
5.1051674,3.7850366,3.360873,0.7447042,-0.4084835,-4.2735395,-2.3037229,4.1815615
5.104347,3.7888412,3.3225234,0.70528936,-0.40422243,-4.061151,-1.7365322,4.2340283
5.1035266,3.7926545,3.3225234,0.70528936,-0.40422243,-4.064228,-1.7296333,4.219428
5.1027355,3.796321,3.2628686,0.6509609,-0.40422243,-3.267531,-1.2681937,4.33465
5.101945,3.799995,3.2628686,0.6509609,-0.40422243,-3.2704902,-1.2617006,4.3205605
5.101182,3.803526,3.1787128,0.61048084,-0.40422243,-3.3403788,-0.8820567,4.2447405
5.100418,3.8070636,3.1787128,0.61048084,-0.40422243,-3.3432207,-0.87595177,4.231142
5.099668,3.8104544,3.071121,0.5881103,-0.40954876,-3.8966777,-0.4584694,4.055162
5.0989184,3.8138525,3.071121,0.5881103,-0.40954876,-3.8994608,-0.45282936,4.0419703
5.0981793,3.8170645,2.9411588,0.5625439,-0.4170056,-4.0410686,-0.1173358,4.0101247
5.09744,3.8202825,2.9411588,0.5625439,-0.4170056,-4.0438004,-0.11227989,3.997408
5.096717,3.8232787,2.788826,0.52952075,-0.42126667,-3.9076061,0.11722922,4.191224
5.0959945,3.8262773,2.788826,0.52952075,-0.42126667,-3.9102676,0.12164402,4.1791368
5.09529,3.8290339,2.6173184,0.49436703,-0.426593,-4.0517244,0.44624114,4.2587204
5.0945854,3.8317974,2.6173184,0.49436703,-0.426593,-4.0543146,0.44998693,4.247299
5.0939007,3.8342865,2.4277012,0.45814803,-0.43618038,-4.3920097,0.68287826,4.298913
5.093216,3.8367858,2.4277012,0.45814803,-0.43618038,-4.39452,0.68590665,4.288252
5.092552,3.8389583,2.2189095,0.4112764,-0.4500288,-4.4256744,1.0089326,4.130066
5.0918875,3.8411365,2.2189095,0.4112764,-0.4500288,-4.428097,1.0111153,4.1203055
5.0912533,3.84296,1.9920081,0.35268685,-0.4649425,-4.3442216,1.1944112,4.0684958
5.090617,3.8447871,1.9920081,0.35268685,-0.4649425,-4.346532,1.1957282,4.0597634
5.09002,3.8462136,1.7427362,0.28983626,-0.47985622,-4.315181,1.3637373,4.0187283
5.08942,3.8476477,1.7427362,0.28983626,-0.47985622,-4.3173537,1.3641388,4.0111794
5.088854,3.8486516,1.4721591,0.2227246,-0.5011615,-4.4869995,1.5311328,3.8133435
5.0882874,3.8496563,1.4721591,0.2227246,-0.5011615,-4.489049,1.5305216,3.807044
5.087762,3.8502176,1.1834724,0.15135187,-0.5203363,-4.5723457,1.5433013,3.8355951
5.0872374,3.8507793,1.1834724,0.15135187,-0.5203363,-4.574239,1.5417103,3.8306322
5.0867596,3.8508656,0.88093734,0.072522305,-0.54164153,-4.671731,1.5678211,3.8654122
5.08628,3.8509498,0.88093734,0.072522305,-0.54164153,-4.6734505,1.5651958,3.8618808
5.0858474,3.8505487,0.56988007,-0.006307263,-0.5640121,-4.7037373,1.571096,3.9316392
5.085415,3.8501458,0.56988007,-0.006307263,-0.5640121,-4.705287,1.5674206,3.9295712
5.0850286,3.8492627,0.25136602,-0.08087578,-0.58318686,-4.7018843,1.5339804,4.1348405
5.084643,3.848378,0.25136602,-0.08087578,-0.58318686,-4.703267,1.5292755,4.134213
5.084304,3.8470376,-0.068213314,-0.1490527,-0.5949048,-4.5656137,1.4565746,4.431841
5.083966,3.8456943,-0.068213314,-0.1490527,-0.5949048,-4.566821,1.4509108,4.432591
5.0836725,3.8439183,-0.38459685,-0.21083803,-0.6034269,-4.3428116,1.3294144,4.7411017
5.0833807,3.8421364,-0.38459685,-0.21083803,-0.6034269,-4.343857,1.3228257,4.743158
5.0831256,3.839956,-0.6935235,-0.25877494,-0.60981846,-4.19154,1.1717157,5.1677523
5.0828714,3.8377733,-0.6935235,-0.25877494,-0.60981846,-4.1924458,1.1642563,5.1709633
5.0826488,3.8352244,-0.9928629,-0.29712445,-0.61407954,-4.0926824,0.91655517,5.452936
5.0824275,3.8326728,-0.9928629,-0.29712445,-0.61407954,-4.093466,0.9082701,5.4571686
5.0822315,3.8297925,-1.2783537,-0.32375607,-0.61621004,-3.9840314,0.6071267,5.7687573
5.0820365,3.82691,-1.2783537,-0.32375607,-0.61621004,-3.9847233,0.5980692,5.773877
5.0818615,3.8237343,-1.5446699,-0.34186557,-0.61621004,-3.9518292,0.36324453,6.0479107
5.081688,3.8205585,-1.5446699,-0.34186557,-0.61621004,-3.9524446,0.35347414,6.05377
5.0815296,3.8171213,-1.790746,-0.35358348,-0.6130143,-3.8668156,0.08447933,6.227886
5.081374,3.8136883,-1.790746,-0.35358348,-0.6130143,-3.8673654,0.07406807,6.234371
5.0812383,3.8100364,-2.0176473,-0.36210558,-0.6044921,-4.2413473,-0.25289917,6.298907
5.0811043,3.8063784,-2.0176473,-0.36210558,-0.6044921,-4.2418222,-0.2638564,6.3059635
5.080987,3.8025227,-2.2232432,-0.371693,-0.5938395,-3.8639543,-0.40937424,6.5242133
5.0808716,3.798665,-2.2232432,-0.371693,-0.5938395,-3.864363,-0.4208331,6.5317516
5.080777,3.7946503,-2.4064689,-0.37914982,-0.57786053,-3.7114673,-0.8252907,6.7073298
5.0806856,3.790638,-2.4064689,-0.37914982,-0.57786053,-3.7117898,-0.8371067,6.715278
5.0806174,3.7865117,-2.5694542,-0.38128036,-0.55335945,-3.946664,-1.1364527,6.714008
5.0805516,3.7823842,-2.5694542,-0.38128036,-0.55335945,-3.9468987,-1.1485171,6.72229
5.0805054,3.777678,-2.7100692,-0.38447616,-0.5277931,-4.023677,-1.550015,6.751034
5.080467,3.7735565,-2.7100692,-0.38447616,-0.5277931,-4.0238113,-1.5619769,6.759396
5.080459,3.769341,-2.8283136,-0.39725932,-0.5011615,-3.9424362,-1.8805399,6.849529
5.0804534,3.7651515,-2.8283136,-0.39725932,-0.5011615,-3.9424562,-1.8925939,6.8581753
5.0804534,3.7651515,-2.8283136,-0.39725932,-0.5011615,-3.9424562,-1.8925939,6.8581753
5.080513,3.7562122,-2.9273832,-0.41430354,-0.47559515,-3.7650795,-2.2724009,7.0493684
5.0805774,3.751612,-3.0083432,-0.42602146,-0.44576776,-3.6930208,-2.658883,7.0687923
5.08064,3.747399,-3.0083432,-0.42602146,-0.44576776,-3.6928048,-2.6708097,7.0777864
5.080728,3.7430875,-3.0733244,-0.4334783,-0.4170056,-3.539258,-2.989377,7.15895
5.080728,3.7430875,-3.0733244,-0.4334783,-0.4170056,-3.539258,-2.989377,7.15895
5.080943,3.7350066,-3.1223266,-0.43454358,-0.38398242,-3.4906156,-3.4045963,7.214999
5.0810804,3.7299457,-3.1223266,-0.43454358,-0.38398242,-3.4901233,-3.4187899,7.2260475
5.0812197,3.7257462,-3.156415,-0.43241304,-0.34669816,-3.3938642,-3.8039913,7.340692
5.081356,3.7216606,-3.156415,-0.43241304,-0.34669816,-3.3933778,-3.8154087,7.349708
5.081566,3.7162447,-3.1777203,-0.42921725,-0.31154442,-3.0766015,-4.12735,7.266049
5.08169,3.713086,-3.1777203,-0.42921725,-0.31154442,-3.0761633,-4.136161,7.273085
5.0818644,3.709063,-3.189438,-0.41856462,-0.27426016,-2.9701958,-4.4825172,7.2677755
5.0820465,3.704918,-3.189438,-0.41856462,-0.27426016,-2.9695473,-4.4940653,7.2770796
5.082239,3.700869,-3.1915686,-0.40258563,-0.23804118,-3.0359023,-4.926694,7.310184
5.0824327,3.6968267,-3.1915686,-0.40258563,-0.23804118,-3.0352118,-4.937958,7.319298
5.082635,3.692895,-3.180916,-0.38660666,-0.20395271,-3.0201268,-5.3175993,7.189369
5.082839,3.6889534,-3.180916,-0.38660666,-0.20395271,-3.0193968,-5.3285904,7.1982937
5.083051,3.6851418,-3.1628065,-0.3738235,-0.17092952,-3.0186415,-5.746209,7.408117
5.0832653,3.6813254,-3.1628065,-0.3738235,-0.17092952,-3.0178819,-5.756857,7.4168105
5.0834875,3.6776295,-3.1308486,-0.36210558,-0.13897158,-3.031453,-6.178938,7.583332
5.0837097,3.6739433,-3.1308486,-0.36210558,-0.13897158,-3.0306578,-6.1892233,7.5917897
5.0839396,3.6703835,-3.0861075,-0.3503877,-0.11020945,-2.9963202,-6.6252937,7.786783
5.08417,3.6668184,-3.0861075,-0.3503877,-0.11020945,-2.9954987,-6.6352434,7.795017
5.084406,3.6633868,-3.027518,-0.33866978,-0.083577834,-2.961135,-7.0996895,7.884431
5.0846424,3.6599605,-3.027518,-0.33866978,-0.083577834,-2.960288,-7.1092443,7.8924
5.0848856,3.65668,-2.9529495,-0.33014765,-0.05801149,-2.8684392,-7.5253716,8.000702
5.0851293,3.653405,-2.9529495,-0.33014765,-0.05801149,-2.8675656,-7.5344925,8.008408
5.0853796,3.6502726,-2.8613367,-0.32482132,-0.037771463,-2.8331487,-7.96455,8.145181
5.0856304,3.6471424,-2.8613367,-0.32482132,-0.037771463,-2.8322463,-7.9732437,8.152643
5.0858874,3.64416,-2.7516146,-0.32162553,-0.023923028,-2.8600562,-8.383706,8.226911
5.0861444,3.6411793,-2.7516146,-0.32162553,-0.023923028,-2.859134,-8.391966,8.2341175
5.086405,3.6383536,-2.6259134,-0.31842974,-0.014335647,-2.9252338,-8.830704,8.2602215
5.0866666,3.6355295,-2.6259134,-0.31842974,-0.014335647,-2.9242973,-8.838505,8.2671585
5.08693,3.6328626,-2.4821026,-0.31629923,-0.009009325,-3.1005163,-9.204946,8.355223
5.0871935,3.6302006,-2.4821026,-0.31629923,-0.009009325,-3.0995674,-9.21227,8.361864
5.0874605,3.6277237,-2.3212476,-0.3141687,-0.0004872093,-3.1129704,-9.707428,8.454399
5.087729,3.6252487,-2.3212476,-0.3141687,-0.0004872093,-3.1120071,-9.714184,8.460728
5.0879965,3.6229777,-2.1444137,-0.30990764,0.008034906,-3.192442,-10.175202,8.648665
5.088266,3.6207037,-2.1444137,-0.30990764,0.008034906,-3.1914706,-10.181347,8.654642
5.0885334,3.6186416,-1.9547967,-0.3045813,0.013361229,-3.1426194,-10.603424,8.779952
5.0888004,3.616581,-1.9547967,-0.3045813,0.013361229,-3.1416519,-10.608927,8.78554
5.089065,3.6147435,-1.7492006,-0.29818973,0.016557023,-3.0832357,-10.987236,8.747637
5.0893297,3.612909,-1.7492006,-0.29818973,0.016557023,-3.0822783,-10.992052,8.7528105
5.089588,3.6113095,-1.5308214,-0.2896676,0.019752815,-2.918533,-11.355266,8.848525
5.089847,3.6097114,-1.5308214,-0.2896676,0.019752815,-2.9175959,-11.35937,8.853258
5.0900993,3.6083698,-1.2985938,-0.27901497,0.024013873,-2.7778158,-11.731379,8.771319
5.090352,3.607028,-1.2985938,-0.27901497,0.024013873,-2.7768993,-11.7346945,8.775577
5.0905943,3.6059444,-1.0557134,-0.26729706,0.022948608,-2.756865,-12.010155,8.697916
5.090837,3.6048605,-1.0557134,-0.26729706,0.022948608,-2.7559843,-12.012692,8.701664
5.091068,3.6040392,-0.8032458,-0.2545139,0.02081808,-2.6737404,-12.3112955,8.652214
5.0912995,3.60322,-0.8032458,-0.2545139,0.02081808,-2.6728997,-12.313025,8.655437
5.091519,3.6026707,-0.5390602,-0.2417307,0.016557023,-2.854062,-12.692211,8.591084
5.0917377,3.602121,-0.5390602,-0.2417307,0.016557023,-2.853261,-12.6931095,8.593767
5.091945,3.6018357,-0.26422197,-0.2332086,0.006969642,-2.5939298,-13.076267,8.639025
5.092153,3.6015508,-0.26422197,-0.2332086,0.006969642,-2.5931733,-13.076357,8.641188
5.0923514,3.6015346,0.02339943,-0.22788227,-0.004748267,-2.3769736,-13.37249,8.60932
5.0925493,3.601518,0.02339943,-0.22788227,-0.004748267,-2.3762498,-13.371742,8.610969
5.0927296,3.601798,0.32380402,-0.21083803,-0.015400912,-2.9166775,-13.480221,8.286381
5.092911,3.602078,0.32380402,-0.21083803,-0.015400912,-2.9160185,-13.478571,8.287407
5.09307,3.6026578,0.6295349,-0.18953276,-0.02924935,-3.6672182,-13.413782,7.8520217
5.0932283,3.6032362,0.6295349,-0.18953276,-0.02924935,-3.6666386,-13.411242,7.8523765
5.093373,3.60409,0.93739635,-0.18740222,-0.047358844,-2.0380497,-13.063088,7.866531
5.0935173,3.604942,0.93739635,-0.18740222,-0.047358844,-2.037522,-13.059713,7.8663197
5.093641,3.6060839,1.2388662,-0.16609693,-0.06333781,-3.5166874,-13.194337,7.50633
5.0937643,3.6072228,1.2388662,-0.16609693,-0.06333781,-3.5162349,-13.190095,7.5054617
5.0938563,3.6086519,1.5328791,-0.13626952,-0.08038204,-4.2964067,-13.208984,7.197401
5.0939484,3.6100805,1.5328791,-0.13626952,-0.08038204,-4.29607,-13.203936,7.195791
5.094037,3.6117406,1.8226311,-0.1458569,-0.103817865,-3.5248125,-13.054495,6.9878654
5.0941257,3.6133997,1.8226311,-0.1458569,-0.103817865,-3.5244853,-13.048705,6.9858265
5.094225,3.615275,2.1081219,-0.16822746,-0.12512314,-3.0069773,-12.893731,6.801539
5.0943227,3.6171498,2.1081219,-0.16822746,-0.12512314,-3.0066168,-12.887206,6.7991953
5.0944176,3.6192484,2.3872213,-0.17461905,-0.1474937,-3.097247,-12.779407,6.542647
5.094512,3.6213467,2.3872213,-0.17461905,-0.1474937,-3.0969007,-12.772183,6.5398684
5.0945954,3.623659,2.6588638,-0.17568432,-0.17412531,-2.9577315,-12.376448,6.2732563
5.0946784,3.625973,2.6588638,-0.17568432,-0.17412531,-2.957426,-12.368573,6.2699795
5.094751,3.6284907,2.917723,-0.17674957,-0.1986264,-2.8757572,-11.914771,5.9741583
5.0948234,3.6310089,2.917723,-0.17674957,-0.1986264,-2.8754926,-11.906295,5.9704056
5.09488,3.63372,3.159538,-0.17142326,-0.22419274,-3.0811887,-11.514201,5.6836553
5.0949354,3.6364303,3.159538,-0.17142326,-0.22419274,-3.080981,-11.505191,5.679385
5.0949726,3.6393206,3.3864393,-0.1639664,-0.25082436,-3.032964,-11.1413555,5.4830875
5.095008,3.6422105,3.3864393,-0.1639664,-0.25082436,-3.032832,-11.131878,5.4782925
5.095028,3.645258,3.595231,-0.16077061,-0.27745596,-2.874741,-10.623981,5.21449
5.095047,3.6483054,3.595231,-0.16077061,-0.27745596,-2.87467,-10.6140995,5.209222
5.0950484,3.6514995,3.7848482,-0.15437903,-0.30195704,-2.9512792,-10.139362,4.964103
5.09505,3.6546934,3.7848482,-0.15437903,-0.30195704,-2.9512765,-10.129125,4.9583664
5.095029,3.6580215,3.9542253,-0.14372638,-0.32645813,-2.6927803,-9.606223,4.6600885
5.095007,3.6613462,3.9542253,-0.14372638,-0.32645813,-2.6928604,-9.595708,4.653866
5.094962,3.6647878,4.1012316,-0.13094321,-0.34989396,-2.9803271,-9.110893,4.479619
5.0949163,3.6682298,4.1012316,-0.13094321,-0.34989396,-2.9804943,-9.1001625,4.4729233
5.0948443,3.6717796,4.2258677,-0.11389897,-0.3722645,-2.43967,-8.098034,3.924693
5.0947714,3.675334,4.2258677,-0.11389897,-0.3722645,-2.4399407,-8.08713,3.9174995
5.094674,3.6789656,4.3217416,-0.08939789,-0.39463505,-3.685279,-7.4248905,3.3065934
5.094577,3.682595,4.3217416,-0.08939789,-0.39463505,-3.685638,-7.4139137,3.2989898
5.0944552,3.6862583,4.388853,-0.08194104,-0.41807088,-3.0109186,-7.2880583,3.3772886
5.094333,3.689923,4.388853,-0.08194104,-0.41807088,-3.0113685,-7.277155,3.369348
5.0941906,3.6935802,4.4357247,-0.0862021,-0.44363722,-1.8722504,-7.2089396,3.6772604
5.0940466,3.697231,4.4357247,-0.0862021,-0.44363722,-1.8727752,-7.198251,3.6691077
5.0938725,3.7009509,4.4698133,-0.057439957,-0.46281198,-2.620408,-6.6799555,3.2918382
5.0936956,3.7046938,4.4698133,-0.057439957,-0.46281198,-2.6210542,-6.6692076,3.2831733
5.09348,3.7084117,4.4911184,-0.011633585,-0.48092148,-3.1102602,-5.7633348,2.7379262
5.0932627,3.7121534,4.4911184,-0.011633585,-0.48092148,-3.1110556,-5.752868,2.728878
5.093005,3.71587,4.4921837,0.02565067,-0.49903098,-2.8773665,-4.7371564,2.4849062
5.092743,3.7196374,4.4921837,0.02565067,-0.49903098,-2.8783252,-4.7269163,2.475397
5.0924397,3.7234116,4.4655523,0.061869662,-0.51287943,-2.6831057,-3.9699135,2.2787812
5.092136,3.7271922,4.4655523,0.061869662,-0.51287943,-2.6842165,-3.9599338,2.2688603
5.0917826,3.7309682,4.412289,0.1087413,-0.5224668,-2.450872,-3.2942548,2.1484082
5.0914283,3.734743,4.412289,0.1087413,-0.5224668,-2.4521606,-3.2846403,2.1380544
5.0910177,3.7385113,4.3302636,0.16306978,-0.53098893,-2.1807172,-2.5619159,1.9548768
5.0906067,3.7422793,4.3302636,0.16306978,-0.53098893,-2.1822124,-2.5527208,1.9440529
5.0901375,3.7460313,4.2205415,0.23018144,-0.5384458,-2.3754532,-1.9405899,1.7221042
5.0896683,3.7497833,4.2205415,0.23018144,-0.5384458,-2.3771555,-1.9318519,1.7108226
5.0891356,3.7535012,4.086318,0.30155417,-0.5437721,-2.4940033,-1.4399734,1.5889804
5.0886035,3.757224,4.086318,0.30155417,-0.5437721,-2.4959307,-1.4317694,1.5772396
5.0879955,3.7608728,3.9297242,0.3665353,-0.5501637,-2.3688395,-0.87357736,1.5794401
5.0873876,3.7645266,3.9297242,0.3665353,-0.5501637,-2.3710306,-0.86609817,1.5672442
5.0867043,3.7680545,3.7539556,0.42192906,-0.5576205,-2.3543386,-0.35188222,1.6169882
5.0860214,3.7715888,3.7539556,0.42192906,-0.5576205,-2.3567972,-0.345284,1.604456
5.0852613,3.7749448,3.5600774,0.4719965,-0.5618816,-2.4648654,0.21577954,1.5677848
5.0845003,3.7783108,3.5600774,0.4719965,-0.5618816,-2.4675887,0.22134721,1.555021
5.0836625,3.7814276,3.349155,0.51780283,-0.5661426,-2.710006,0.7284975,1.585309
5.0828257,3.7845433,3.349155,0.51780283,-0.5661426,-2.7129931,0.7328068,1.5725121
5.0819335,3.7873895,3.1201231,0.55721766,-0.56933844,-2.8789692,1.1669459,1.7179034
5.0810423,3.7902374,3.1201231,0.55721766,-0.56933844,-2.8821344,1.1700794,1.7052834
5.0801234,3.792867,2.8793736,0.5913061,-0.5672079,-2.9524243,1.5602502,2.0089657
5.0792027,3.7955062,2.8793736,0.5913061,-0.5672079,-2.955678,1.562523,1.9965835
5.078259,3.7979414,2.6247752,0.6253946,-0.56507736,-3.0547724,1.860929,2.2957244
5.0773125,3.8003862,2.6247752,0.6253946,-0.56507736,-3.0580976,1.8624192,2.2835903
5.0763545,3.8026514,2.3595245,0.65522194,-0.55549,-3.1715937,2.0883482,2.7170796
5.0753956,3.8049216,2.3595245,0.65522194,-0.55549,-3.1749492,2.0891902,2.7052436
5.07443,3.8070078,2.0857515,0.68078834,-0.5437721,-3.2597225,2.18521,3.1342921
5.0734625,3.8091006,2.0857515,0.68078834,-0.5437721,-3.263088,2.1854331,3.1227899
5.072488,3.8109984,1.8077174,0.70528936,-0.53098893,-3.3478754,2.271233,3.4660044
5.071513,3.8129017,1.8077174,0.70528936,-0.53098893,-3.3512535,2.2708197,3.4548788
5.0705366,3.814613,1.5296834,0.72552943,-0.5139447,-3.469547,2.2937834,3.7793465
5.0695596,3.8163288,1.5296834,0.72552943,-0.5139447,-3.4729087,2.2927852,3.768619
5.0685854,3.8178325,1.2505841,0.73937786,-0.49690044,-3.6534274,2.4013336,4.0504713
5.0676126,3.8193393,1.2505841,0.73937786,-0.49690044,-3.6567621,2.3997352,4.040241
5.066645,3.8206196,0.9704195,0.7468347,-0.47879094,-3.8516045,2.531615,4.1981387
5.065677,3.8219054,0.9704195,0.7468347,-0.47879094,-3.854907,2.529407,4.188434
5.0647254,3.8229473,0.6881245,0.7447042,-0.4564204,-4.0688295,2.694222,4.2464113
5.063774,3.8239927,0.6881245,0.7447042,-0.4564204,-4.0720587,2.6914363,4.237356
5.0628476,3.8247707,0.40156832,0.73085576,-0.4329846,-4.285883,2.8604593,4.2290564
5.06192,3.8255522,0.40156832,0.73085576,-0.4329846,-4.2890096,2.8570898,4.2207403
5.0610275,3.8260248,0.108620584,0.7042241,-0.4116793,-4.5362225,3.0877366,4.146301
5.060133,3.8265004,0.108620584,0.7042241,-0.4116793,-4.5392265,3.0837424,4.1388865
5.058505,3.8267713,-0.191784,0.66693985,-0.390374,-4.5781956,3.252081,4.030877
5.05827,3.8268101,-0.191784,0.66693985,-0.390374,-4.5789747,3.2508078,4.0291095
5.0575724,3.8266282,-0.81815946,0.566805,-0.36161187,-4.5717235,3.2989242,4.0532227
5.0575724,3.8266282,-0.81815946,0.566805,-0.36161187,-4.5717235,3.2989242,4.0532227
5.0575724,3.8266282,-0.81815946,0.566805,-0.36161187,-4.5717235,3.2989242,4.0532227
5.05528,3.8248236,-0.81815946,0.566805,-0.36161187,-4.5697536,3.2138262,4.0453415
5.054567,3.8238113,-1.1430651,0.5060849,-0.35308975,-4.634363,3.0346751,4.094997
5.0538692,3.82282,-1.1430651,0.5060849,-0.35308975,-4.6366625,3.0280607,4.0920334
5.053213,3.8213832,-1.4711666,0.44110382,-0.34563288,-4.859087,2.9008474,4.272239
5.0525618,3.8199534,-1.4711666,0.44110382,-0.34563288,-4.8612328,2.893392,4.2704887
5.0525618,3.8199534,-1.4711666,0.44110382,-0.34563288,-4.8612328,2.893392,4.2704887
5.051222,3.8158174,-1.8013986,0.37931848,-0.3392413,-4.8608317,2.5494337,4.585313
5.050847,3.814258,-2.1273694,0.31966367,-0.333915,-4.8285427,2.0883775,4.9161706
5.0503654,3.8122568,-2.1273694,0.31966367,-0.333915,-4.8301105,2.0804834,4.916737
5.0498915,3.8096888,-2.4458835,0.26640043,-0.32432762,-5.0519238,1.6689584,5.210571
5.049411,3.8070836,-2.4458835,0.26640043,-0.32432762,-5.053489,1.6595337,5.212316
5.048988,3.8041577,-2.7526798,0.21420248,-0.317936,-4.451524,1.1899352,5.612521
5.048562,3.8012054,-2.7526798,0.21420248,-0.317936,-4.452909,1.1799364,5.615289
5.0481796,3.79791,-3.0456274,0.17159191,-0.31154442,-4.2290936,0.5516019,6.0547605
5.047797,3.7946076,-3.0456274,0.17159191,-0.31154442,-4.2303314,0.5409498,6.0584593
5.047453,3.7910247,-3.3225963,0.14282976,-0.30408758,-4.4900217,-0.1597476,6.388556
5.047108,3.7874303,-3.3225963,0.14282976,-0.30408758,-4.4911385,-0.17095184,6.393011
5.046796,3.78355,-3.575064,0.11300236,-0.3008918,-4.611854,-0.829154,6.608905
5.046484,3.7796657,-3.575064,0.11300236,-0.3008918,-4.61286,-0.84094095,6.61407
5.0462074,3.7754939,-3.8019652,0.0757181,-0.30195704,-4.532354,-1.4518476,6.892933
5.045931,3.7713184,-3.8019652,0.0757181,-0.30195704,-4.5332446,-1.4642258,6.898807
5.0456924,3.7668827,-4.002235,0.036303315,-0.30195704,-4.4573994,-2.1905632,7.0538397
5.045454,3.7624435,-4.002235,0.036303315,-0.30195704,-4.4581614,-2.203454,7.060374
5.0452576,3.7577708,-4.1769385,-0.0052419985,-0.29876125,-4.5593514,-2.84404,7.259135
5.045062,3.7530954,-4.1769385,-0.0052419985,-0.29876125,-4.5599804,-2.8573723,7.2663035
5.0449057,3.7482214,-4.323945,-0.04572205,-0.29556546,-4.5269613,-3.5318441,7.4081497
5.0447516,3.7433405,-4.323945,-0.04572205,-0.29556546,-4.52746,-3.5455608,7.415873
5.0446343,3.7382855,-4.4443197,-0.08300631,-0.29023916,-4.542198,-4.1868534,7.70185
5.0445194,3.7332392,-4.4443197,-0.08300631,-0.29023916,-4.542571,-4.2008753,7.7100286
5.0444393,3.7280512,-4.5391283,-0.11709477,-0.2827823,-4.461423,-4.82325,7.9341354
5.044361,3.722873,-4.5391283,-0.11709477,-0.2827823,-4.4616756,-4.83751,7.942687
5.044315,3.7175798,-4.6051745,-0.14479165,-0.27212965,-4.404361,-5.4026213,8.090471
5.0442705,3.7123282,-4.6051745,-0.14479165,-0.27212965,-4.404502,-5.4169884,8.0992565
5.044257,3.7070236,-4.6445894,-0.17035799,-0.2593465,-4.2082224,-5.9820595,8.4003935
5.044245,3.7017078,-4.6445894,-0.17035799,-0.2593465,-4.2082624,-5.9965353,8.409387
5.044258,3.6963768,-4.6573725,-0.19166328,-0.24762857,-3.9975276,-6.504176,8.629227
5.044274,3.691046,-4.6573725,-0.19166328,-0.24762857,-3.9974804,-6.518655,8.638313
5.0443096,3.6857285,-4.64672,-0.20657697,-0.23804118,-3.9159646,-7.031042,8.843789
5.044346,3.6804109,-4.64672,-0.20657697,-0.23804118,-3.915844,-7.045474,8.852868
5.0443993,3.6751328,-4.610501,-0.21829489,-0.23058434,-3.8677912,-7.4572115,9.005594
5.0444536,3.669855,-4.610501,-0.21829489,-0.23058434,-3.8676167,-7.471554,9.014602
5.0445232,3.6646311,-4.5529766,-0.22894754,-0.22525801,-3.8673935,-7.9693546,9.042724
5.044594,3.6594136,-4.5529766,-0.22894754,-0.22525801,-3.8671656,-7.983553,9.051617
5.0446773,3.6542645,-4.477343,-0.23960018,-0.22312748,-3.9530885,-8.3902,9.08917
5.0447626,3.6491168,-4.477343,-0.23960018,-0.22312748,-3.9528174,-8.404236,9.097931
5.04486,3.6440606,-4.3814692,-0.2502528,-0.22206222,-3.9429274,-8.801079,9.1257305
5.044958,3.639001,-4.3814692,-0.2502528,-0.22206222,-3.9426093,-8.8149,9.134325
5.0450716,3.6340406,-4.269616,-0.26197073,-0.21993169,-3.9805565,-9.168407,9.1667595
5.045186,3.6290472,-4.269616,-0.26197073,-0.21993169,-3.980187,-9.182067,9.175251
5.0453186,3.624081,-4.14285,-0.27581918,-0.21780115,-3.8839903,-9.545166,9.083231
5.045446,3.6193728,-4.14285,-0.27581918,-0.21780115,-3.8835819,-9.558056,9.091278
5.0455923,3.6147165,-4.0033,-0.29073286,-0.2135401,-3.7298799,-9.949033,9.084983
5.045742,3.6100152,-4.0033,-0.29073286,-0.2135401,-3.7293992,-9.961889,9.093086
5.045905,3.6054661,-3.8520327,-0.30351606,-0.21247484,-3.5612788,-10.237656,8.943008
5.04607,3.6009154,-3.8520327,-0.30351606,-0.21247484,-3.5607498,-10.250108,8.950912
5.0462456,3.596519,-3.6901124,-0.31310344,-0.21247484,-3.4835677,-10.5925,8.838921
5.0464225,3.5921383,-3.6901124,-0.31310344,-0.21247484,-3.483001,-10.604489,8.846578
5.0466065,3.587906,-3.5164742,-0.32056028,-0.21567063,-3.3770585,-10.89378,8.691236
5.046792,3.5836763,-3.5164742,-0.32056028,-0.21567063,-3.3764596,-10.905369,8.698663
5.046985,3.5796263,-3.3332489,-0.3258866,-0.2167359,-3.3279514,-11.15586,8.471225
5.047179,3.5755749,-3.3332489,-0.3258866,-0.2167359,-3.3273258,-11.166968,8.478389
5.0473776,3.5717194,-3.1415012,-0.33014765,-0.21886642,-3.2213368,-11.29723,8.169256
5.047578,3.5678582,-3.1415012,-0.33014765,-0.21886642,-3.2206879,-11.307821,8.176139
5.047783,3.5641928,-2.943362,-0.3344087,-0.22312748,-3.1386242,-11.523761,7.962494
5.047989,3.560526,-2.943362,-0.3344087,-0.22312748,-3.1379578,-11.533823,7.969093
5.0481935,3.5570507,-2.7398965,-0.33334345,-0.23058434,-3.1660228,-11.739671,7.6449947
5.0484,3.553578,-2.7398965,-0.33334345,-0.23058434,-3.1653566,-11.749219,7.6512766
5.048602,3.5503068,-2.5300395,-0.33014765,-0.23697592,-3.1120272,-11.820454,7.4226036
5.048805,3.547038,-2.5300395,-0.33014765,-0.23697592,-3.1113665,-11.829447,7.428537
5.049005,3.54398,-2.314856,-0.3258866,-0.24336751,-3.0293148,-11.909685,7.0319233
5.049205,3.540923,-2.314856,-0.3258866,-0.24336751,-3.0286624,-11.91811,7.0375147
5.0493975,3.5380788,-2.0986073,-0.31736448,-0.25082436,-2.898752,-12.021715,6.7745934
5.04959,3.5352361,-2.0986073,-0.31736448,-0.25082436,-2.8981252,-12.029565,6.779806
5.04977,3.5326073,-1.8770324,-0.30564657,-0.26041174,-2.7921925,-12.103869,6.5499916
5.0499506,3.5299804,-1.8770324,-0.30564657,-0.26041174,-2.791604,-12.111153,6.554796
5.050112,3.5275698,-1.6533269,-0.28753707,-0.27212965,-2.7192504,-12.180108,6.34846
5.050275,3.525161,-1.6533269,-0.28753707,-0.27212965,-2.718723,-12.186827,6.3528066
5.050414,3.522974,-1.4253602,-0.26729706,-0.28384754,-2.584189,-12.197753,6.2130237
5.0505543,3.5208035,-1.4253602,-0.26729706,-0.28384754,-2.5837328,-12.203843,6.216858
5.050669,3.5188396,-1.1973937,-0.24279597,-0.29556546,-2.573782,-12.262079,6.186695
5.050785,3.5168653,-1.1973937,-0.24279597,-0.29556546,-2.5734043,-12.26769,6.1900673
5.05087,3.5151412,-0.9683618,-0.21296857,-0.30515283,-2.5013003,-12.363618,6.1162434
5.050955,3.5134263,-0.9683618,-0.21296857,-0.30515283,-2.501024,-12.368552,6.119019
5.0510054,3.511926,-0.7361341,-0.17674957,-0.31154442,-2.500858,-12.463931,6.1739073
5.051055,3.5104668,-0.7361341,-0.17674957,-0.31154442,-2.5006957,-12.46821,6.176056
5.0510664,3.5092704,-0.49858016,-0.1373348,-0.3158055,-2.5676944,-12.572377,6.235031
5.0510793,3.508067,-0.49858016,-0.1373348,-0.3158055,-2.5676527,-12.576007,6.2365513
5.051052,3.5071492,-0.25569987,-0.094724216,-0.3147402,-2.5438004,-13.048165,6.4672365
5.051026,3.5062323,-0.25569987,-0.094724216,-0.3147402,-2.5438871,-13.051055,6.468075
5.0509562,3.5056214,-0.0021669175,-0.04891784,-0.31154442,-2.3142695,-13.201585,6.6501436
5.0508876,3.5050101,-0.0021669175,-0.04891784,-0.31154442,-2.314496,-13.203683,6.650256
5.050766,3.5047479,0.26627973,0.007541175,-0.30195704,-1.8504142,-13.271917,6.932027
5.050646,3.5044858,0.26627973,0.007541175,-0.30195704,-1.8508093,-13.27312,6.9312887
5.0504594,3.5046175,0.5443137,0.090631805,-0.28917387,-4.0157776,-13.215871,6.3596964
5.050273,3.5047483,0.5443137,0.090631805,-0.28917387,-4.016384,-13.216086,6.3579264
5.050033,3.505249,0.83513093,0.14069924,-0.28171703,-1.2446837,-12.621591,6.6425657
5.0497937,3.505746,0.83513093,0.14069924,-0.28171703,-1.2454607,-12.620868,6.6399164
5.049511,3.5066364,1.1270134,0.19928877,-0.26680332,-2.8026168,-12.370102,6.1719484
5.0492268,3.5075262,1.1270134,0.19928877,-0.26680332,-2.8035376,-12.368336,6.1684523
5.0488787,3.5088139,1.4135696,0.27811834,-0.25402015,-4.4758234,-12.241089,5.9580336
5.04853,3.5101042,1.4135696,0.27811834,-0.25402015,-4.476955,-12.238343,5.9535036
5.04816,3.511715,1.6979952,0.30155417,-0.25082436,-3.8508768,-12.220348,5.919679
5.0477896,3.513326,1.6979952,0.30155417,-0.25082436,-3.8520741,-12.216727,5.9145803
5.04743,3.5152192,1.983486,0.28770572,-0.24869382,-2.9530182,-12.188295,6.0481024
5.0470705,3.5171146,1.983486,0.28770572,-0.24869382,-2.9541817,-12.183816,6.0427494
5.046718,3.5193076,2.268977,0.28450993,-0.24336751,-3.8076558,-12.403486,5.965273
5.0463667,3.5214992,2.268977,0.28450993,-0.24336751,-3.808792,-12.398125,5.9596214
5.0460234,3.5239673,2.5565982,0.27492255,-0.24336751,-4.240855,-12.640924,6.226637
5.04568,3.526438,2.5565982,0.27492255,-0.24336751,-4.2419615,-12.634738,6.2206955
5.0453653,3.5291522,2.8463502,0.23657304,-0.24762857,-2.9548898,-12.081871,6.2817364
5.0450506,3.531869,2.8463502,0.23657304,-0.24762857,-2.955899,-12.074895,6.2757206
5.044763,3.5348456,3.1297107,0.20887616,-0.24762857,-3.0047097,-11.133346,5.8146973
5.0444746,3.5378244,3.1297107,0.20887616,-0.24762857,-3.0056355,-11.125553,5.8085437
5.044186,3.5410724,3.3917656,0.2078109,-0.2465633,-3.0927505,-9.891156,5.490788
5.0438976,3.5443263,3.3917656,0.2078109,-0.2465633,-3.0936766,-9.882606,5.4842424
5.0436163,3.5478199,3.618667,0.21100669,-0.24443278,-4.4688506,-8.953986,4.4862366
5.043334,3.5513191,3.618667,0.21100669,-0.24443278,-4.4697514,-8.94475,4.4793844
5.0430484,3.5549948,3.8029578,0.20248458,-0.24762857,-2.397286,-8.298188,4.625477
5.042762,3.5586772,3.8029578,0.20248458,-0.24762857,-2.3981986,-8.288505,4.6182966
5.042469,3.5624962,3.948899,0.20887616,-0.25082436,-2.6289783,-8.479595,4.8263273
5.0421767,3.566299,3.948899,0.20887616,-0.25082436,-2.6299071,-8.469654,4.8188725
5.041852,3.570295,4.0682087,0.25148675,-0.25188962,-4.0914097,-8.44496,4.4996014
5.0415235,3.5743225,4.0682087,0.25148675,-0.25188962,-4.092453,-8.43459,4.491473
5.041177,3.5784407,4.17367,0.26959622,-0.2593465,-3.767943,-7.6962366,4.2148824
5.040833,3.5825343,4.17367,0.26959622,-0.2593465,-3.7690353,-7.685831,4.2064586
5.040487,3.5867333,4.2610216,0.2674657,-0.26680332,-4.086166,-7.12451,3.9105306
5.040139,3.590958,4.2610216,0.2674657,-0.26680332,-4.087268,-7.1138363,3.9018188
5.039798,3.5951998,4.3260026,0.25681305,-0.2731949,-3.901602,-6.4614964,3.816483
5.0394564,3.5994458,4.3260026,0.25681305,-0.2731949,-3.9026833,-6.450839,3.8077168
5.0391293,3.603686,4.3707438,0.23231198,-0.28171703,-3.3961468,-5.8512135,3.727209
5.038801,3.607935,4.3707438,0.23231198,-0.28171703,-3.397181,-5.840588,3.7184708
5.0384774,3.6121566,4.392049,0.21739827,-0.29343495,-3.3359518,-5.403901,3.7768044
5.0381536,3.6163828,4.392049,0.21739827,-0.29343495,-3.336973,-5.393423,3.7680557
5.037823,3.6205897,4.3952446,0.21526775,-0.30302233,-3.4433575,-4.8994436,3.816701
5.037493,3.6247923,4.3952446,0.21526775,-0.30302233,-3.444395,-4.8891516,3.8078585
5.037148,3.6289787,4.379266,0.2227246,-0.31154442,-3.5987072,-4.2325854,3.7462049
5.0368037,3.6331658,4.379266,0.2227246,-0.31154442,-3.5997915,-4.222501,3.7371922
5.0364356,3.6373057,4.3462424,0.2344425,-0.3190013,-3.5674238,-3.5854168,3.9530735
5.036067,3.641454,4.3462424,0.2344425,-0.3190013,-3.5685782,-3.5756454,3.9438508
5.035673,3.6455564,4.2940445,0.25042146,-0.32539287,-3.5027719,-3.053803,4.0254374
5.03528,3.6496553,4.2940445,0.25042146,-0.32539287,-3.5040004,-3.044382,4.0160246
5.0348587,3.6536963,4.222672,0.2706615,-0.3307192,-3.519679,-2.5373034,4.0878367
5.034436,3.6577506,4.222672,0.2706615,-0.3307192,-3.520995,-2.5282388,4.078191
5.0339775,3.6617856,4.131059,0.2972931,-0.333915,-3.7426896,-2.0501866,4.1257114
5.033531,3.6657104,4.131059,0.2972931,-0.333915,-3.7440753,-2.0416903,4.1160192
5.033531,3.6657104,4.0181413,0.31966367,-0.3360455,-3.7440753,-2.0416903,4.1160192
5.033531,3.6657104,4.0181413,0.31966367,-0.3360455,-3.7440753,-2.0416903,4.1160192
5.0322747,3.675942,4.0181413,0.31966367,-0.3360455,-3.9012034,-1.6228018,4.1473308
5.0315323,3.6815767,3.8871136,0.33457735,-0.3360455,-3.9896908,-1.2522588,4.2665353
5.030999,3.6853876,3.7379766,0.33990368,-0.333915,-3.9099321,-0.8856249,4.280148
5.030514,3.6888614,3.7379766,0.33990368,-0.333915,-3.911427,-0.87883234,4.2707195
5.0300074,3.6922913,3.57073,0.33457735,-0.3328497,-3.9848106,-0.5035958,4.34258
5.0295033,3.695706,3.57073,0.33457735,-0.3328497,-3.9863555,-0.49714136,4.333068
5.0295033,3.695706,3.57073,0.33457735,-0.3328497,-3.9863555,-0.49714136,4.333068
5.0284643,3.7023573,3.3875046,0.32179418,-0.33498025,-4.027852,-0.14980602,4.3858643
5.0279565,3.7054126,3.1872349,0.3004889,-0.3371108,-4.106013,0.20512056,4.4199667
5.027496,3.7081943,3.1872349,0.3004889,-0.3371108,-4.107422,0.2099781,4.41178
5.0270367,3.7107625,2.9688556,0.2738573,-0.34030658,-4.2189493,0.6164985,4.4087424
5.026573,3.7133698,2.9688556,0.2738573,-0.34030658,-4.2203627,0.62082934,4.4008007
5.026016,3.7162344,2.7334323,0.24509515,-0.34456763,-4.317823,0.9700799,4.4395857
5.0256186,3.7182825,2.7334323,0.24509515,-0.34456763,-4.31903,0.973264,4.433078
5.0252056,3.7201912,2.4820297,0.21313721,-0.34882867,-4.4112606,1.3016105,4.4266815
5.024762,3.7222419,2.4820297,0.21313721,-0.34882867,-4.4126034,1.3045275,4.4198112
5.0243397,3.72393,2.2135832,0.17904875,-0.354155,-4.4186673,1.6465939,4.3753943
5.0239153,3.7256227,2.2135832,0.17904875,-0.354155,-4.4199457,1.6486734,4.369266
5.0235167,3.7269406,1.9291575,0.14389503,-0.3605466,-4.3876305,1.8462473,4.454938
5.023117,3.7282622,1.9291575,0.14389503,-0.3605466,-4.3888364,1.8474884,4.449616
5.022743,3.729195,1.6298182,0.10767604,-0.36800346,-4.4617853,1.9723836,4.598378
5.02237,3.7301264,1.6298182,0.10767604,-0.36800346,-4.4629045,1.9727716,4.593916
5.0220222,3.7306752,1.3208915,0.073587574,-0.37119925,-4.545349,2.0920436,4.638178
5.021675,3.7312243,1.3208915,0.073587574,-0.37119925,-4.5463924,2.0916004,4.634559
5.02136,3.7314007,1.004508,0.03736858,-0.37119925,-4.6622562,2.0329354,4.83292
5.0210447,3.731577,1.004508,0.03736858,-0.37119925,-4.6632004,2.0317292,4.8301725
5.0207634,3.731388,0.68492866,0.0011495883,-0.36800346,-4.6927695,1.9052953,4.9958863
5.020482,3.7311983,0.68492866,0.0011495883,-0.36800346,-4.6936083,1.9033586,4.99401
5.02024,3.7306533,0.36854511,-0.037199933,-0.36267713,-4.7853127,1.7044182,5.299482
5.0199976,3.7301073,0.36854511,-0.037199933,-0.36267713,-4.7860365,1.7018025,5.2985
5.019799,3.7292075,0.055357363,-0.07981051,-0.354155,-4.959009,1.4208131,5.557011
5.0196,3.728304,0.055357363,-0.07981051,-0.354155,-4.9596014,1.417541,5.556946
5.0194526,3.7270885,-0.24717775,-0.123486355,-0.3424371,-5.031867,1.0833626,5.9648075
5.0193033,3.7258582,-0.24717775,-0.123486355,-0.3424371,-5.032308,1.0795405,5.9656596
5.019206,3.724308,-0.53692967,-0.17035799,-0.3275234,-5.0421777,0.72563696,6.211649
5.019109,3.722756,-0.53692967,-0.17035799,-0.3275234,-5.0424633,0.7212858,6.21342
5.0190644,3.720898,-0.80963737,-0.21829489,-0.31367496,-4.9851384,0.2854824,6.460307
5.01902,3.7190392,-0.80963737,-0.21829489,-0.31367496,-4.9852686,0.28063202,6.4629784
5.019027,3.716889,-1.0642356,-0.26623178,-0.3008918,-4.922998,-0.11733484,6.7442417
5.0190353,3.7147388,-1.0642356,-0.26623178,-0.3008918,-4.9229717,-0.122656345,6.7477694
5.0190935,3.7123218,-1.2975285,-0.31310344,-0.28704333,-4.817452,-0.5162568,6.9628067
5.0191536,3.7099054,-1.2975285,-0.31310344,-0.28704333,-4.817279,-0.5220022,6.967151
5.019262,3.707249,-1.5095161,-0.35784453,-0.2731949,-4.7068224,-0.96864796,7.1542096
5.019371,3.704594,-1.5095161,-0.35784453,-0.2731949,-4.706495,-0.9747691,7.1592975
5.0195293,3.7017355,-1.6980679,-0.39938983,-0.2561507,-4.926291,-1.3211489,7.203388
5.0196886,3.6988795,-1.6980679,-0.39938983,-0.2561507,-4.9258184,-1.3275657,7.2091646
5.0198936,3.695847,-1.8642492,-0.4398699,-0.23804118,-4.465518,-1.7029247,7.3544235
5.0201006,3.6928117,-1.8642492,-0.4398699,-0.23804118,-4.464903,-1.7096024,7.3608255
5.0203505,3.6896555,-2.0091252,-0.47395837,-0.21780115,-4.373179,-2.1521482,7.49702
5.020602,3.6864934,-2.0091252,-0.47395837,-0.21780115,-4.3724318,-2.158986,7.503941
5.02089,3.6832356,-2.132696,-0.49845943,-0.19649588,-4.5774693,-2.6256018,7.63099
5.02118,3.6799824,-2.132696,-0.49845943,-0.19649588,-4.576605,-2.6325493,7.638322
5.0215054,3.6766567,-2.2349613,-0.52296054,-0.17412531,-4.537323,-3.0178232,7.7274327
5.0218315,3.673336,-2.2349613,-0.52296054,-0.17412531,-4.5363464,-3.0248327,7.7351284
5.022193,3.6699636,-2.314856,-0.5474616,-0.15282002,-4.33415,-3.3526669,7.786252
5.022555,3.666596,-2.314856,-0.5474616,-0.15282002,-4.333062,-3.3596973,7.7942696
5.02295,3.6632044,-2.3777068,-0.5687669,-0.13044947,-4.145129,-3.7066574,7.773839
5.023346,3.6598182,-2.3777068,-0.5687669,-0.13044947,-4.143936,-3.7136536,7.782117
5.0237713,3.6564374,-2.423513,-0.5847459,-0.10701366,-4.0516777,-4.098831,7.7331486
5.0241966,3.653058,-2.423513,-0.5847459,-0.10701366,-4.0503902,-4.10575,7.7416286
5.0246463,3.6497116,-2.4544058,-0.5953985,-0.083577834,-3.934113,-4.342366,7.582645
5.025097,3.6463706,-2.4544058,-0.5953985,-0.083577834,-3.9327502,-4.3491564,7.5912347
5.0255637,3.6430824,-2.4703846,-0.59965956,-0.061207283,-3.782895,-4.647869,7.528043
5.0260324,3.6397932,-2.4703846,-0.59965956,-0.061207283,-3.7814722,-4.654522,7.5366755
5.0265102,3.63658,-2.4767764,-0.5953985,-0.03883673,-3.6411545,-4.919547,7.387241
5.026989,3.6333761,-2.4767764,-0.5953985,-0.03883673,-3.6397007,-4.926011,7.3958015
5.027471,3.630255,-2.4735804,-0.5847459,-0.018596705,-3.5903506,-5.1238194,7.155263
5.027954,3.6271362,-2.4735804,-0.5847459,-0.018596705,-3.5888743,-5.1301117,7.1637087
5.028436,3.624119,-2.4629278,-0.56983215,0.0016433196,-3.6113427,-5.337287,6.9134164
5.0289183,3.621111,-2.4629278,-0.56983215,0.0016433196,-3.6098676,-5.3433657,6.921674
5.029394,3.6181934,-2.4469488,-0.55172265,0.017622286,-3.4072928,-5.3971376,6.594553
5.029871,3.615284,-2.4469488,-0.55172265,0.017622286,-3.4058323,-5.403043,6.6026
5.0303364,3.6124678,-2.426709,-0.53148264,0.029340196,-3.3852468,-5.461444,6.3518386
5.030803,3.6096506,-2.426709,-0.53148264,0.029340196,-3.3838105,-5.467203,6.359653
5.031254,3.6069255,-2.4085994,-0.50698155,0.037862312,-3.435093,-5.4823885,5.9984884
5.0317054,3.6041987,-2.4085994,-0.50698155,0.037862312,-3.4336963,-5.4880257,6.0060306
5.0321393,3.6015499,-2.3947508,-0.48034996,0.04318863,-3.4946089,-5.6084776,5.754727
5.0325723,3.598904,-2.3947508,-0.48034996,0.04318863,-3.4932666,-5.614028,5.76198
5.032988,3.5963213,-2.3840983,-0.45691413,0.045319162,-3.453671,-5.5189486,5.3284593
5.0334053,3.5937395,-2.3840983,-0.45691413,0.045319162,-3.4523792,-5.5244455,5.3354654
5.033797,3.591199,-2.3798373,-0.42921725,0.04318863,-3.3601797,-5.3767242,5.050106
5.034189,3.5886645,-2.3798373,-0.42921725,0.04318863,-3.358962,-5.382244,5.0568247
5.034558,3.5861497,-2.387294,-0.4036509,0.03573178,-3.2668362,-5.335155,4.6993847
5.0349264,3.5836346,-2.387294,-0.4036509,0.03573178,-3.265686,-5.3407607,4.7058554
5.035268,3.5811114,-2.4064689,-0.37595403,0.024013873,-3.192793,-5.308214,4.424791
5.0356083,3.578596,-2.4064689,-0.37595403,0.024013873,-3.1917279,-5.3139777,4.431006
5.03592,3.576047,-2.4426877,-0.34612662,0.009100171,-3.209907,-5.200268,4.1161823
5.036231,3.5735054,-2.4426877,-0.34612662,0.009100171,-3.2089357,-5.206271,4.122155
5.036511,3.57091,-2.49169,-0.31629923,-0.0079440605,-3.1841168,-5.0689178,3.8454053
5.0367904,3.568319,-2.49169,-0.31629923,-0.0079440605,-3.1832395,-5.075224,3.8511472
5.037037,3.5656502,-2.559867,-0.2864718,-0.030314613,-3.1058517,-4.938249,3.5071425
5.0372834,3.5629807,-2.559867,-0.2864718,-0.030314613,-3.1050775,-4.9449525,3.512681
5.037497,3.560205,-2.6482837,-0.2566444,-0.053750433,-3.1475048,-4.7557807,3.2403266
5.0377097,3.5574303,-2.6482837,-0.2566444,-0.053750433,-3.146832,-4.7629485,3.2456775
5.0378923,3.5545146,-2.7569408,-0.23107806,-0.08038204,-3.1127386,-4.636584,2.9971414
5.038075,3.5516005,-2.7569408,-0.23107806,-0.08038204,-3.112164,-4.6443095,3.0023694
5.038223,3.548501,-2.8858378,-0.20551172,-0.114470504,-3.1212788,-4.4994936,2.8590703
5.03837,3.5454025,-2.8858378,-0.20551172,-0.114470504,-3.120812,-4.5079207,2.8641825
5.0384846,3.5420778,-3.0413663,-0.18101063,-0.15388529,-3.06778,-4.5698185,2.6394207
5.038599,3.538751,-3.0413663,-0.18101063,-0.15388529,-3.0674174,-4.579069,2.6444793
5.038676,3.5351672,-3.2213962,-0.15437903,-0.19756113,-3.0145066,-4.5652843,2.4962611
5.0387526,3.531577,-3.2213962,-0.15437903,-0.19756113,-3.0142643,-4.5754776,2.5012448
5.038787,3.527688,-3.4269922,-0.12455162,-0.24762857,-2.990214,-4.5723486,2.3050723
5.038821,3.5238028,-3.4269922,-0.12455162,-0.24762857,-2.9901023,-4.58359,2.3099666
5.0388107,3.5194848,-3.6592197,-0.090463154,-0.30302233,-2.937464,-4.668107,2.0419884
5.038801,3.5152512,-3.6592197,-0.090463154,-0.30302233,-2.9374938,-4.6805654,2.0468063
5.038738,3.5107286,-3.9180791,-0.049983107,-0.36587292,-2.8993878,-4.847305,1.8551116
5.038674,3.5061169,-3.9180791,-0.049983107,-0.36587292,-2.8995874,-4.861096,1.8597744
5.038554,3.5010877,-4.2014394,-0.006307263,-0.4319193,-2.8856015,-5.0965896,1.5961962
5.038436,3.496051,-4.2014394,-0.006307263,-0.4319193,-2.8859751,-5.1118507,1.6007072
5.0382547,3.49056,-4.5082355,0.038433842,-0.50009626,-2.9535851,-5.315424,1.5859277
5.0380745,3.4850652,-4.5082355,0.038433842,-0.50009626,-2.95415,-5.332271,1.5902252
5.037833,3.4790785,-4.8331413,0.08317495,-0.57359946,-3.1033492,-5.6332974,1.5225686
5.037594,3.4730868,-4.8331413,0.08317495,-0.57359946,-3.1041012,-5.6518292,1.5266486
5.0372934,3.4665666,-5.1718955,0.12472027,-0.65242904,-3.1768727,-5.916336,1.540176
5.036995,3.4600387,-5.1718955,0.12472027,-0.65242904,-3.1778073,-5.93666,1.5440211
5.0366454,3.4529536,-5.515976,0.15987399,-0.7344544,-3.7487261,-6.2939916,1.5334375
5.0362997,3.4458592,-5.515976,0.15987399,-0.7344544,-3.7498114,-6.3161554,1.5370967
5.035901,3.4381814,-5.863252,0.18863614,-0.8207408,-3.7797885,-6.737647,1.7321959
5.035508,3.430492,-5.863252,0.18863614,-0.8207408,-3.7810183,-6.761721,1.7356176
5.035071,3.4222145,-6.203071,0.20994142,-0.90702724,-3.614789,-7.328762,1.9783838
5.034639,3.4139228,-6.203071,0.20994142,-0.90702724,-3.6161318,-7.3547344,1.9815655
5.0341687,3.4050531,-6.5269117,0.23018144,-0.9922484,-3.780405,-7.947566,2.3054674
5.033705,3.3961582,-6.5269117,0.23018144,-0.9922484,-3.781847,-7.9754133,2.3083668
5.033204,3.3866985,-6.830512,0.24935621,-1.0796001,-3.8169198,-8.886098,2.7995167
5.032713,3.3772297,-6.830512,0.24935621,-1.0796001,-3.8184452,-8.915709,2.8020487
5.032199,3.367201,-7.1042852,0.26000884,-1.1669518,-4.0690346,-9.660502,3.0582547
5.0316935,3.3571515,-7.1042852,0.26000884,-1.1669518,-4.070593,-9.691843,3.0604506
5.031164,3.3465986,-7.3397083,0.2674657,-1.2489772,-2.4824772,-10.227513,3.8908026
5.0306454,3.3360128,-7.3397083,0.2674657,-1.2489772,-2.484077,-10.26045,3.8925242
5.030103,3.324998,-7.5378475,0.29942364,-1.3278067,-5.172039,-11.180535,3.7741985
5.0295734,3.3139474,-7.5378475,0.29942364,-1.3278067,-5.1736665,-11.214818,3.7753286
5.029026,3.3024776,-7.693376,0.30688047,-1.4077016,-3.0828142,-11.705251,4.585355
5.028492,3.2909813,-7.693376,0.30688047,-1.4077016,-3.0844457,-11.740797,4.585866
5.0279703,3.279121,-7.8062944,0.29835838,-1.4801395,-2.7508535,-11.964117,4.801694
5.027464,3.2672343,-7.8062944,0.29835838,-1.4801395,-2.7523985,-12.000701,4.8017597
5.0269403,3.2550516,-7.8840585,0.3303163,-1.5440555,-4.568802,-12.555286,4.9258137
5.0264325,3.2428417,-7.8840585,0.3303163,-1.5440555,-4.5703454,-12.592723,4.9250736
5.0259347,3.2303703,-7.918147,0.33138156,-1.6079713,-4.610162,-13.339555,5.268793
5.025456,3.2178595,-7.918147,0.33138156,-1.6079713,-4.611616,-13.377738,5.2674522
5.0250273,3.2051525,-7.9074945,0.2919668,-1.6654955,-4.033516,-13.852148,5.9700317
5.0246186,3.192422,-7.9074945,0.2919668,-1.6654955,-4.0347524,-13.890814,5.968415
5.024273,3.1795897,-7.8510356,0.24935621,-1.7070409,-4.5625234,-14.058971,5.923804
5.0239472,3.166738,-7.8510356,0.24935621,-1.7070409,-4.563504,-14.097832,5.9219823
5.0236974,3.1538584,-7.74877,0.19183193,-1.7411293,-4.1045704,-14.131916,6.2459817
5.023469,3.1409516,-7.74877,0.19183193,-1.7411293,-4.105259,-14.1708145,6.244066
5.023328,3.1281037,-7.611351,0.12472027,-1.7698915,-3.8279557,-14.324413,6.6063876
5.0232086,3.115235,-7.611351,0.12472027,-1.7698915,-3.8283172,-14.363121,6.6045003
5.0231614,3.1009781,-7.438778,0.06932651,-1.7858704,-3.5267916,-14.626253,7.081462
5.023143,3.0884278,-7.438778,0.06932651,-1.7858704,-3.5268474,-14.663964,7.079517
5.0231824,3.076445,-7.234247,0.028846465,-1.7901314,-3.6703792,-14.771808,7.36985
5.0232563,3.0620542,-7.234247,0.028846465,-1.7901314,-3.670155,-14.815052,7.367413
5.0232563,3.0620542,-6.9977584,-0.0031114696,-1.7837399,-3.670155,-14.815052,7.367413
5.023495,3.0391734,-6.9977584,-0.0031114696,-1.7837399,-3.9184327,-14.979629,7.5644903
5.023495,3.0391734,-6.7282467,-0.029743081,-1.7666956,-3.9184327,-14.979629,7.5644903
5.023495,3.0391734,-6.7282467,-0.029743081,-1.7666956,-3.9184327,-14.979629,7.5644903
5.024005,3.008394,-6.7282467,-0.029743081,-1.7666956,-3.8067589,-15.096273,7.6684675
5.024005,3.008394,-6.7282467,-0.029743081,-1.7666956,-3.8067589,-15.096273,7.6684675
