Pitch,Roll,Gyro_X,Gyro_Y,Gyro_Z,Accel_X,Accel_Y,Accel_Z
5.5210505,1.9700133,-0.6328035,0.04482543,-0.7419113,-9.202763,-18.107815,8.742634
5.5216975,1.9690464,-0.6328035,0.04482543,-0.7419113,-9.19816,-18.114536,8.737993
5.522304,1.9682233,-0.5241465,0.042694904,-0.7142144,-9.165104,-18.173275,8.839525
5.522914,1.9673972,-0.5241465,0.042694904,-0.7142144,-9.160755,-18.179373,8.835691
5.523499,1.9666964,-0.4037716,0.04482543,-0.68438697,-9.223625,-18.151438,8.961903
5.524085,1.9659952,-0.4037716,0.04482543,-0.68438697,-9.219445,-18.15703,8.95882
5.5246425,1.9654344,-0.2727441,0.046955958,-0.6534943,-9.497974,-18.128538,9.349215
5.525201,1.9648738,-0.2727441,0.046955958,-0.6534943,-9.493991,-18.133564,9.346975
5.5257263,1.964465,-0.13319445,0.046955958,-0.61727536,-9.76317,-18.24331,9.738289
5.526252,1.964057,-0.13319445,0.046955958,-0.61727536,-9.759413,-18.247713,9.736956
5.5267415,1.9638143,0.018073108,0.045890696,-0.5767953,-9.980967,-18.419027,10.244194
5.5272307,1.9635724,0.018073108,0.045890696,-0.5767953,-9.977465,-18.42274,10.243856
5.527677,1.9635118,0.17892805,0.04162964,-0.5277931,-10.146643,-18.732141,10.728226
5.528124,1.9634511,0.17892805,0.04162964,-0.5277931,-10.143445,-18.735096,10.728987
5.528525,1.9635881,0.3504356,0.033107523,-0.4745299,-10.289012,-19.05804,11.252857
5.528926,1.9637245,0.3504356,0.033107523,-0.4745299,-10.286142,-19.060163,11.254808
5.5292745,1.9640791,0.53792214,0.022454876,-0.4138098,-10.365042,-19.372604,11.765623
5.5296235,1.9644336,0.53792214,0.022454876,-0.4138098,-10.362537,-19.373798,11.768871
5.5299177,1.9650273,0.74138767,0.007541175,-0.34882867,-10.40352,-19.76664,12.228466
5.530212,1.9656211,0.74138767,0.007541175,-0.34882867,-10.401408,-19.766834,12.233162
5.53045,1.9664788,0.96402794,-0.01269885,-0.2795865,-10.538564,-20.058035,12.50761
5.5306883,1.9673377,0.96402794,-0.01269885,-0.2795865,-10.536855,-20.057133,12.513929
5.530873,1.9684829,1.205843,-0.037199933,-0.21140957,-10.66002,-20.304089,12.775768
5.531058,1.9696296,1.205843,-0.037199933,-0.21140957,-10.658696,-20.302046,12.783854
5.5311885,1.9710923,1.4689633,-0.06915787,-0.13897158,-10.7152195,-20.394535,12.841763
5.5313187,1.9725533,1.4689633,-0.06915787,-0.13897158,-10.714282,-20.391237,12.8517685
5.531399,1.9743592,1.7512584,-0.107507385,-0.06759887,-10.713707,-20.367495,12.792097
5.531479,1.9761612,1.7512584,-0.107507385,-0.06759887,-10.713131,-20.362888,12.8042145
5.5315094,1.9783297,2.0495324,-0.15011796,0.004839113,-10.775155,-20.280296,12.607914
5.5315404,1.9804957,2.0495324,-0.15011796,0.004839113,-10.774939,-20.274307,12.622297
5.5315266,1.9830351,2.3573937,-0.19805487,0.07514657,-10.8085575,-20.190315,12.318174
5.531513,1.9855798,2.3573937,-0.19805487,0.07514657,-10.808656,-20.18288,12.334888
5.531459,1.9885103,2.6737773,-0.2502528,0.1433235,-10.861716,-20.087845,11.96615
5.531406,1.9914409,2.6737773,-0.2502528,0.1433235,-10.862095,-20.07894,11.985243
5.5313144,1.994765,2.9912262,-0.30671185,0.21150042,-10.790928,-19.91057,11.547098
5.5312243,1.9980896,2.9912262,-0.30671185,0.21150042,-10.7915745,-19.900152,11.568607
5.531099,2.0018108,3.3076098,-0.3674319,0.27967733,-10.821205,-19.735027,10.965292
5.530975,2.0055332,3.3076098,-0.3674319,0.27967733,-10.822098,-19.723057,10.9892235
5.530975,2.0055332,3.3076098,-0.3674319,0.27967733,-10.822098,-19.723057,10.9892235
5.530975,2.0055332,3.3076098,-0.3674319,0.27967733,-10.822098,-19.723057,10.9892235
5.5303116,2.0208745,3.916941,-0.48248047,0.41603118,-10.644901,-19.566498,9.966408
5.530196,2.0236192,3.916941,-0.48248047,0.41603118,-10.645732,-19.557209,9.983805
5.529949,2.0289693,4.205628,-0.5421353,0.48846918,-10.6666565,-19.457407,9.486052
5.529728,2.03384,4.205628,-0.5421353,0.48846918,-10.668249,-19.44054,9.516708
5.5294724,2.0390153,4.4825964,-0.6017901,0.5630377,-10.588673,-19.403175,9.118153
5.5292273,2.0440664,4.4825964,-0.6017901,0.5630377,-10.590436,-19.385267,9.149708
5.5289245,2.049842,4.7499776,-0.6571838,0.6397367,-10.305304,-19.273485,8.69717
5.5289245,2.049842,4.7499776,-0.6571838,0.6397367,-10.305304,-19.273485,8.69717
5.528214,2.0637913,5.004576,-0.70831656,0.71963155,-10.10029,-19.054207,8.222649
5.528057,2.066664,5.004576,-0.70831656,0.71963155,-10.100828,-19.049036,8.231142
5.528057,2.066664,5.004576,-0.70831656,0.71963155,-10.100828,-19.049036,8.231142
5.527179,2.0818062,5.246391,-0.75518817,0.7973959,-9.542091,-18.92449,7.9833145
5.5269885,2.08499,5.476488,-0.79992926,0.8655728,-9.088552,-18.960075,7.3992043
5.5266037,2.0915236,5.476488,-0.79992926,0.8655728,-9.091309,-18.934685,7.4385567
5.526192,2.098352,5.690606,-0.83401775,0.9230971,-8.964967,-18.826426,7.0437126
5.525789,2.1051776,5.690606,-0.83401775,0.9230971,-8.96785,-18.79936,7.084425
5.525362,2.1122653,5.8898106,-0.86277986,0.9763603,-8.745846,-18.584173,6.571001
5.5249424,2.1193783,5.8898106,-0.86277986,0.9763603,-8.74884,-18.555391,6.6129894
5.524511,2.1267185,6.076232,-0.8926073,1.0200361,-8.455043,-18.329073,5.961769
5.5240903,2.1340332,6.076232,-0.8926073,1.0200361,-8.458048,-18.298943,6.004526
5.523664,2.1416023,6.244544,-0.92136943,1.0530593,-8.135481,-17.941881,5.4069023
5.5232496,2.1491532,6.244544,-0.92136943,1.0530593,-8.138439,-17.91024,5.450592
5.522838,2.1569014,6.392616,-0.9458705,1.0764952,-7.964196,-17.331644,4.7290573
5.522438,2.1646543,6.392616,-0.9458705,1.0764952,-7.9670515,-17.298649,4.7734756
5.522048,2.1725588,6.5183167,-0.9650453,1.0903436,-7.639432,-16.580015,3.985363
5.521668,2.1804836,6.5183167,-0.9650453,1.0903436,-7.6421366,-16.545753,4.0302963
5.5213013,2.188516,6.616321,-0.9767632,1.0978005,-7.424485,-15.782942,3.2807522
5.520945,2.1965685,6.616321,-0.9767632,1.0978005,-7.4270163,-15.74759,3.3259392
5.520604,2.2046924,6.680237,-0.9788937,1.0967352,-7.209179,-14.888059,2.5572634
5.5202746,2.2128122,6.680237,-0.9788937,1.0967352,-7.2115207,-14.85186,2.602332
5.5199633,2.220972,6.7068686,-0.9725021,1.083952,-6.8402367,-14.005991,1.809412
5.5196643,2.229135,6.7068686,-0.9725021,1.083952,-6.8423653,-13.969058,1.854228
5.519387,2.2372842,6.69089,-0.9565232,1.0605162,-6.56661,-13.14186,1.0463982
5.519121,2.2454278,6.69089,-0.9565232,1.0605162,-6.568497,-13.104484,1.0906162
5.5188828,2.2534895,6.628039,-0.93308735,1.0242972,-6.225426,-12.325064,0.38718224
5.518656,2.261546,6.628039,-0.93308735,1.0242972,-6.227039,-12.287594,0.43045425
5.5184608,2.2694776,6.5172515,-0.9043252,0.9774256,-5.974636,-11.489161,-0.24060059
5.5182796,2.277316,6.5172515,-0.9043252,0.9774256,-5.9759264,-11.452257,-0.19892502
5.518135,2.2850387,6.358527,-0.871302,0.9167055,-5.713586,-10.630465,-0.65121746
5.518001,2.2927625,6.358527,-0.871302,0.9167055,-5.7145386,-10.593709,-0.6105318
5.5179157,2.300221,6.151866,-0.83614826,0.8400065,-5.370381,-9.787211,-1.0358005
5.5178394,2.307673,6.151866,-0.83614826,0.8400065,-5.370921,-9.751437,-0.9968505
5.5178185,2.314817,5.9004636,-0.7967335,0.7547853,-5.275304,-8.936622,-1.4575229
5.5178056,2.3219538,5.9004636,-0.7967335,0.7547853,-5.2753935,-8.902128,-1.4204454
5.517848,2.3287044,5.6011243,-0.7541229,0.65678096,-4.8680763,-8.141691,-1.7492657
5.517898,2.3354545,5.6011243,-0.7541229,0.65678096,-4.867722,-8.108893,-1.714356
5.5180154,2.3417528,5.2549133,-0.70725125,0.5449282,-4.871679,-7.388893,-2.1844225
5.518139,2.3480563,5.2549133,-0.70725125,0.5449282,-4.8708014,-7.3582187,-2.1518402
5.518336,2.3538399,4.8650265,-0.66251016,0.41816172,-4.5725207,-6.573726,-2.6628044
5.5185385,2.3596277,4.8650265,-0.66251016,0.41816172,-4.5710855,-6.545627,-2.6327846
5.5188284,2.3648672,4.4261374,-0.6230954,0.27328575,-4.2769356,-5.8549566,-3.122377
5.5191197,2.370068,4.4261374,-0.6230954,0.27328575,-4.2748632,-5.8299265,-3.0951297
5.519512,2.3746514,3.9393115,-0.5890069,0.110300295,-4.056595,-5.195472,-3.7169929
5.5199084,2.3792362,3.9393115,-0.5890069,0.110300295,-4.053782,-5.173815,-3.6924787
5.520415,2.3831377,3.4066794,-0.5602448,-0.06866413,-3.4803572,-4.3803644,-4.5375633
5.520982,2.3874848,3.4066794,-0.5602448,-0.06866413,-3.476323,-4.3605103,-4.5135336
5.5215592,2.3903797,2.8250449,-0.5325479,-0.26573807,-2.7635303,-3.558061,-5.5500326
5.522187,2.3935215,2.8250449,-0.5325479,-0.26573807,-2.759058,-3.5445845,-5.5316606
5.5229306,2.3958178,2.1912127,-0.50058997,-0.47985622,-2.6771433,-3.133775,-6.182429
5.523688,2.3981543,2.1912127,-0.50058997,-0.47985622,-2.6717415,-3.1249962,-6.1673617
5.5245786,2.3996227,1.5105087,-0.46543625,-0.70462704,-3.2160475,-2.9010873,-6.328212
5.52547,2.4010913,1.5105087,-0.46543625,-0.70462704,-3.2096777,-2.897419,-6.316677
5.526497,2.4016614,0.7914551,-0.43560883,-0.9293978,-3.7673686,-2.8607826,-6.2704954
5.527525,2.4022331,0.7914551,-0.43560883,-0.9293978,-3.7600057,-2.8624396,-6.2626114
5.528683,2.401892,0.045769982,-0.4132383,-1.1456465,-4.3454723,-2.9030285,-6.0956793
5.5298467,2.4015508,0.045769982,-0.4132383,-1.1456465,-4.337122,-2.9101186,-6.0915422
5.5311346,2.4002905,-0.72122043,-0.39299825,-1.3469815,-4.9455776,-3.0806632,-5.794378
5.5324206,2.3990355,-0.72122043,-0.39299825,-1.3469815,-4.9363327,-3.0931506,-5.7941046
5.5338206,2.3968697,-1.4956677,-0.37275824,-1.5323375,-5.510438,-3.479692,-5.362006
5.5352235,2.3947067,-1.4956677,-0.37275824,-1.5323375,-5.500324,-3.497521,-5.3656845
5.5367208,2.3916633,-2.2679844,-0.3525182,-1.7006493,-6.011452,-4.219541,-4.66461
5.538227,2.3886147,-2.2679844,-0.3525182,-1.7006493,-6.0005665,-4.2425075,-4.672306
5.53981,2.3847132,-3.0285833,-0.3290824,-1.8465905,-6.5206194,-5.194468,-3.8651557
5.5413966,2.3808212,-3.0285833,-0.3290824,-1.8465905,-6.509114,-5.222207,-3.8769135
5.5430417,2.3761184,-3.7636156,-0.30351606,-1.9659002,-6.8754597,-6.145075,-2.7338195
5.544693,2.3714218,-3.7636156,-0.30351606,-1.9659002,-6.8634505,-6.177247,-2.7496638
5.5463924,2.36595,-4.4592333,-0.2779497,-2.066035,-7.1862617,-7.123422,-1.5723319
5.5480933,2.360507,-4.4592333,-0.2779497,-2.066035,-7.1738553,-7.1595774,-1.592207
5.5498204,2.3543606,-5.1047835,-0.2502528,-2.1480603,-7.415028,-8.137934,-0.35171223
5.551562,2.3482032,-5.1047835,-0.2502528,-2.1480603,-7.402286,-8.177773,-0.3756609
5.5533166,2.3414192,-5.6917443,-0.22894754,-2.2119763,-7.4708314,-9.18323,0.8322506
5.5550833,2.3346362,-5.6917443,-0.22894754,-2.2119763,-7.457864,-9.226124,0.80445766
5.556866,2.3272781,-6.217985,-0.20764224,-2.2599132,-7.7943163,-10.133755,1.8650522
5.558658,2.3199358,-6.217985,-0.20764224,-2.2599132,-7.7811203,-10.179254,1.8336029
5.5604615,2.312089,-6.6835055,-0.18740222,-2.2940016,-7.739093,-10.935808,2.8189716
5.562274,2.3042665,-6.6835055,-0.18740222,-2.2940016,-7.725708,-10.9833765,2.7841282
5.5640926,2.2959936,-7.0915017,-0.17142326,-2.3131764,-7.3004484,-11.842199,4.044016
5.5659213,2.2877464,-7.0915017,-0.17142326,-2.3131764,-7.2868996,-11.891437,4.005932
5.567739,2.2791436,-7.4419737,-0.14053059,-2.3163722,-7.589445,-12.847076,5.1719856
5.569576,2.270524,-7.4419737,-0.14053059,-2.3163722,-7.5757923,-12.897573,5.1308107
5.571383,2.2616036,-7.738117,-0.08939789,-2.3067849,-8.32848,-13.772653,6.1263466
5.573201,2.2527099,-7.738117,-0.08939789,-2.3067849,-8.314924,-13.8237095,6.082451
5.5749826,2.2435737,-7.9809976,-0.04146099,-2.283349,-8.866648,-14.698967,7.0946712
5.576786,2.2344098,-7.9809976,-0.04146099,-2.283349,-8.853163,-14.750484,7.0480137
5.5785403,2.2250934,-8.17168,-0.006307263,-2.2418036,-8.835233,-15.549063,8.033987
5.5803113,2.2157755,-8.17168,-0.006307263,-2.2418036,-8.821945,-15.60032,7.98514
5.582012,2.2064023,-8.31336,0.0277812,-2.182149,-8.531441,-16.287922,8.921539
5.583739,2.1969712,-8.31336,0.0277812,-2.182149,-8.518446,-16.33862,8.870693
5.585382,2.1875007,-8.409234,0.074652836,-2.106515,-8.453392,-16.85309,9.556139
5.5870404,2.1780274,-8.409234,0.074652836,-2.106515,-8.44088,-16.902727,9.503656
5.588601,2.1685326,-8.463563,0.13430765,-2.0191634,-8.290224,-17.262733,10.264154
5.590175,2.1590433,-8.463563,0.13430765,-2.0191634,-8.27832,-17.311068,10.210165
5.5916395,2.1495543,-8.481672,0.2046151,-1.9222243,-8.181036,-17.57861,10.758587
5.59312,2.1400514,-8.481672,0.2046151,-1.9222243,-8.169807,-17.625536,10.703102
5.5944743,2.1305957,-8.463563,0.28664047,-1.8178284,-7.800394,-17.824337,11.212015
5.5958414,2.1211433,-8.463563,0.28664047,-1.8178284,-7.7900023,-17.869465,11.155455
5.597075,2.1117234,-8.41243,0.38357952,-1.7059757,-7.785405,-18.009014,11.6823635
5.598319,2.1023245,-8.41243,0.38357952,-1.7059757,-7.7759266,-18.052246,11.624775
5.5994205,2.093,-8.329339,0.490106,-1.590927,-7.954275,-18.237572,12.103067
5.6005373,2.0836577,-8.329339,0.490106,-1.590927,-7.9457498,-18.278866,12.044529
5.601505,2.0744333,-8.215356,0.60195875,-1.4726827,-8.134694,-18.500364,12.62756
5.602484,2.0652087,-8.215356,0.60195875,-1.4726827,-8.127198,-18.539436,12.568546
5.6033163,2.0561225,-8.07048,0.7106157,-1.3523078,-8.173504,-18.806522,13.180008
5.604164,2.047007,-8.07048,0.7106157,-1.3523078,-8.167023,-18.843443,13.120583
5.604869,2.0380604,-7.8947115,0.8150116,-1.2351288,-8.147256,-19.065207,13.58823
5.605585,2.02912,-7.8947115,0.8150116,-1.2351288,-8.141765,-19.099756,13.528898
5.606164,2.020354,-7.68805,0.92153805,-1.1200801,-8.391114,-19.295242,14.178736
5.6067533,2.0116024,-7.68805,0.92153805,-1.1200801,-8.38659,-19.327435,14.119703
5.6072083,2.0030634,-7.449431,1.025934,-1.0071621,-8.656034,-19.69765,14.85158
5.607677,1.9944855,-7.449431,1.025934,-1.0071621,-8.652443,-19.727613,14.792873
5.6080084,1.9861697,-7.179919,1.1260688,-0.8910483,-8.381746,-20.095467,15.697842
5.6083508,1.9778649,-7.179919,1.1260688,-0.8910483,-8.379116,-20.122904,15.640207
5.608554,1.9698242,-6.875253,1.2357911,-0.7706734,-9.579447,-20.780352,16.239878
5.608769,1.9617608,-6.875253,1.2357911,-0.7706734,-9.577791,-20.805414,16.183184
5.6088443,1.9540192,-6.5343685,1.3337954,-0.648168,-9.433565,-21.311932,17.062
5.6089306,1.9462781,-6.5343685,1.3337954,-0.648168,-9.432894,-21.33446,17.006922
5.608882,1.9388909,-6.155134,1.4147555,-0.52459735,-8.652761,-22.192781,18.074402
5.6088448,1.9315035,-6.155134,1.4147555,-0.52459735,-8.653046,-22.212803,18.021255
5.608668,1.9245088,-5.7322245,1.5021073,-0.39570034,-9.262539,-23.049402,18.650476
5.6085014,1.9175128,-5.7322245,1.5021073,-0.39570034,-9.263805,-23.066887,18.599619
5.608202,1.910968,-5.263508,1.5851978,-0.27106437,-9.946064,-23.608807,18.786285
5.607912,1.9043946,-5.263508,1.5851978,-0.27106437,-9.948285,-23.62381,18.738031
5.607509,1.898342,-4.74792,1.6320695,-0.15601581,-10.439804,-24.316513,19.191269
5.6071153,1.8922802,-4.74792,1.6320695,-0.15601581,-10.442827,-24.329056,19.146393
5.6066256,1.8868243,-4.1843953,1.6384611,-0.045228317,-10.508829,-24.818146,19.397766
5.6061416,1.8813373,-4.1843953,1.6384611,-0.045228317,-10.512545,-24.828283,19.356812
5.605569,1.876515,-3.5739987,1.618221,0.064493924,-10.464266,-25.109077,19.579084
5.6049976,1.8716356,-3.5739987,1.618221,0.064493924,-10.468645,-25.116867,19.542337
5.604349,1.8675331,-2.9231222,1.589459,0.17208563,-10.483194,-25.361717,19.472816
5.603702,1.8633975,-2.9231222,1.589459,0.17208563,-10.488146,-25.36709,19.44136
5.602962,1.8599895,-2.2445486,1.5638926,0.28500366,-11.006165,-25.576082,19.257048
5.602225,1.8565673,-2.2445486,1.5638926,0.28500366,-11.011808,-25.579126,19.230658
5.6013904,1.853881,-1.5499961,1.5298041,0.39898697,-11.731649,-25.608656,18.831211
5.600562,1.8511992,-1.5499961,1.5298041,0.39898697,-11.737978,-25.609417,18.810112
5.5996366,1.8492835,-0.8479869,1.4808019,0.51936185,-12.238245,-25.995777,18.70348
5.598715,1.8473662,-0.8479869,1.4808019,0.51936185,-12.245277,-25.994267,18.68785
5.5976863,1.8462334,-0.13852076,1.4104944,0.64719355,-12.401554,-26.205944,18.515
5.5966606,1.8450987,-0.13852076,1.4104944,0.64719355,-12.4093685,-26.20214,18.504955
5.5953474,1.8447217,0.57627165,1.3252733,0.78035164,-12.534277,-26.40092,18.279701
5.5943055,1.8444204,0.57627165,1.3252733,0.78035164,-12.542189,-26.395271,18.275726
5.5931187,1.8449024,1.2899989,1.2208774,0.91350967,-12.824139,-26.755833,17.94205
5.590708,1.8458767,1.2899989,1.2208774,0.91350967,-12.842422,-26.739271,17.94506
5.5902886,1.8463005,2.0005302,1.0909151,1.0487983,-12.610964,-27.080635,17.42551
5.589291,1.8473092,2.0005302,1.0909151,1.0487983,-12.618508,-27.072517,17.43114
5.5878572,1.8495418,2.7068007,0.9385823,1.1787605,-11.618998,-26.74796,17.143227
5.586278,1.8519999,2.7068007,0.9385823,1.1787605,-11.630926,-26.733252,17.158318
5.5849366,1.854742,3.4002879,0.7851842,1.3076576,-13.719212,-27.035387,15.677052
5.5849366,1.854742,3.4002879,0.7851842,1.3076576,-13.719212,-27.035387,15.677052
5.5818815,1.8611168,4.0714045,0.619003,1.4269671,-14.235412,-27.750214,15.27705
5.5804057,1.8647983,4.0714045,0.619003,1.4269671,-14.2465,-27.73327,15.300838
5.5788894,1.8693306,4.735064,0.3910364,1.5313631,-13.156544,-27.23047,14.291458
5.5761976,1.8773929,4.735064,0.3910364,1.5313631,-13.1767025,-27.196083,14.343979
5.575775,1.8788673,5.379549,0.14282976,1.6336285,-11.039448,-26.237284,13.352905
5.573856,1.8855783,5.379549,0.14282976,1.6336285,-11.053789,-26.21022,13.396873
5.5722446,1.8919178,5.983554,-0.05530943,1.728437,-12.047437,-25.879154,12.207958
5.570831,1.8975017,5.983554,-0.05530943,1.728437,-12.057967,-25.857298,12.244505
5.569182,1.9046984,6.538557,-0.22149068,1.8030055,-13.449299,-25.758064,11.362778
5.5675354,1.9119223,6.538557,-0.22149068,1.8030055,-13.4615345,-25.730267,11.409912
5.565901,1.9198909,7.045623,-0.4217604,1.861595,-14.120098,-25.690739,10.327122
5.564289,1.9278022,7.045623,-0.4217604,1.861595,-14.132045,-25.66068,10.378532
5.5627017,1.9364865,7.5090127,-0.665706,1.9191194,-13.104709,-25.384127,9.721535
5.561135,1.9451348,7.5090127,-0.665706,1.9191194,-13.116286,-25.351524,9.777435
5.559616,1.9544412,7.9340534,-0.90645576,1.974513,-12.476271,-25.058357,8.966089
5.5581093,1.9637836,7.9340534,-0.90645576,1.974513,-12.487377,-25.023195,9.026098
5.5566535,1.9737282,8.317549,-1.1163129,2.02245,-12.613007,-24.626934,8.189655
5.5552177,1.9836802,8.317549,-1.1163129,2.02245,-12.623563,-24.589293,8.253084
5.5538373,1.9941417,8.653107,-1.2974077,2.0650606,-12.825234,-24.391827,7.558239
5.5524745,2.004653,8.653107,-1.2974077,2.0650606,-12.835231,-24.351662,7.624626
5.55117,2.0155897,8.941793,-1.4603932,2.1044753,-12.34679,-24.22843,7.008728
5.549889,2.026545,8.941793,-1.4603932,2.1044753,-12.356155,-24.185968,7.0772095
5.548666,2.0379052,9.183608,-1.6063344,2.1374986,-11.522336,-23.983776,6.4536324
5.5474706,2.0492845,9.183608,-1.6063344,2.1374986,-11.531061,-23.938927,6.523981
5.5463305,2.06106,9.3828125,-1.7256441,2.1598692,-11.041382,-23.897068,5.75848
5.5452223,2.0728302,9.3828125,-1.7256441,2.1598692,-11.049446,-23.849808,5.830372
5.5441976,2.0847998,9.537276,-1.8268442,2.1609344,-10.410475,-23.844608,4.806635
5.5432034,2.0967975,9.537276,-1.8268442,2.1609344,-10.417704,-23.795546,4.879055
5.542298,2.1090012,9.650194,-1.9110001,2.1417596,-9.591094,-23.36232,3.7792206
5.5414286,2.121183,9.650194,-1.9110001,2.1417596,-9.597402,-23.311602,3.8518677
5.5406566,2.1335125,9.719437,-1.9738507,2.10341,-8.7794,-21.866585,2.3928013
5.5399203,2.1458309,9.719437,-1.9738507,2.10341,-8.784735,-21.814362,2.4653702
5.539292,2.158224,9.73435,-2.0143309,2.0405595,-8.171585,-20.286755,1.1350937
5.538699,2.170616,9.73435,-2.0143309,2.0405595,-8.175875,-20.233303,1.2072353
5.538218,2.1829472,9.682152,-2.0260487,1.9564036,-7.6238976,-18.479965,-0.33016586
5.5377727,2.1952739,9.682152,-2.0260487,1.9564036,-7.62712,-18.42587,-0.25924492
5.537443,2.2074723,9.560712,-2.0175266,1.8520076,-6.963913,-16.514196,-2.02806
5.537149,2.219628,9.560712,-2.0175266,1.8520076,-6.966036,-16.459963,-1.9589233
5.536978,2.2315786,9.357246,-1.9898297,1.7252412,-6.4836483,-14.620395,-3.4760876
5.5368385,2.2435198,9.357246,-1.9898297,1.7252412,-6.484654,-14.56631,-3.408867
5.5368323,2.2550712,9.065364,-1.9504149,1.5792999,-6.0345883,-12.411796,-4.804388
5.536856,2.2666228,9.065364,-1.9504149,1.5792999,-6.0344176,-12.358792,-4.73993
5.5370193,2.277666,8.679738,-1.9088696,1.4163145,-5.343706,-10.407148,-6.066907
5.5372105,2.288729,8.679738,-1.9088696,1.4163145,-5.342327,-10.35586,-6.005574
5.537547,2.2991662,8.199305,-1.8694547,1.2394806,-4.6647277,-8.468876,-7.254761
5.5379076,2.3095777,8.199305,-1.8694547,1.2394806,-4.66212,-8.420265,-7.197235
5.538419,2.319295,7.624061,-1.8353664,1.0509288,-3.9497414,-6.7614994,-8.297198
5.538951,2.3290057,7.624061,-1.8353664,1.0509288,-3.9458928,-6.716015,-8.243515
5.539633,2.3378863,6.9604015,-1.8066041,0.85492015,-3.2753644,-5.223991,-9.25213
5.540331,2.3467402,6.9604015,-1.8066041,0.85492015,-3.270307,-5.1825976,-9.2029
5.54118,2.3547144,6.2189775,-1.7799726,0.6525199,-2.373505,-3.5226908,-10.125082
5.542045,2.3626866,6.2189775,-1.7799726,0.6525199,-2.367231,-3.485737,-10.080202
5.5430603,2.3696632,5.4125724,-1.7544062,0.44053227,-1.7804623,-1.9746578,-11.146042
5.544086,2.376623,5.4125724,-1.7544062,0.44053227,-1.7730074,-1.9430099,-11.1059885
5.5452647,2.3825393,4.546512,-1.7299051,0.21576148,-1.6495075,-1.1367455,-11.578196
5.5464497,2.388434,4.546512,-1.7299051,0.21576148,-1.6408763,-1.1108885,-11.543032
5.547783,2.39326,3.6399722,-1.6979473,-0.022857763,-1.3725781,-1.3114285,-11.182179
5.549124,2.3980827,3.6399722,-1.6979473,-0.022857763,-1.3627877,-1.2915702,-11.15179
5.5506105,2.4017837,2.7281058,-1.6723809,-0.26999912,-1.294457,-1.2207727,-10.795892
5.5521054,2.4054883,2.7281058,-1.6723809,-0.26999912,-1.2835126,-1.2073221,-10.770376
5.5537534,2.4081037,1.8322185,-1.6425534,-0.5139447,-2.253057,-1.0471201,-10.663303
5.55541,2.4107232,1.8322185,-1.6425534,-0.5139447,-2.2408938,-1.0400696,-10.642376
5.557204,2.41228,0.96189743,-1.6159219,-0.7557597,-2.653873,-1.2979379,-9.845488
5.5589986,2.4138331,0.96189743,-1.6159219,-0.7557597,-2.640656,-1.2972026,-9.829134
5.560928,2.4143767,0.12459955,-1.592486,-0.98159575,-3.4260852,-1.3552351,-9.041363
5.5628576,2.4149182,0.12459955,-1.592486,-0.98159575,-3.4118273,-1.3605781,-9.029335
5.5649133,2.414513,-0.67221826,-1.572246,-1.1861266,-3.8562956,-1.3525238,-8.130724
5.566973,2.4141073,-0.67221826,-1.572246,-1.1861266,-3.84102,-1.3636274,-8.122774
5.5691586,2.4128122,-1.4338824,-1.5669197,-1.3725479,-3.7816918,-1.5860937,-6.830571
5.57133,2.4115274,-1.4338824,-1.5669197,-1.3725479,-3.7655263,-1.6025388,-6.826526
5.573611,2.4094174,-2.1529357,-1.5626587,-1.5387291,-4.1986294,-1.9735818,-5.3177843
5.575905,2.4072995,-2.1529357,-1.5626587,-1.5387291,-4.181487,-1.9951699,-5.3174644
5.578274,2.40443,-2.8219218,-1.547745,-1.6740177,-5.116642,-2.6102223,-3.70698
5.5806427,2.401567,-2.8219218,-1.547745,-1.6740177,-5.098867,-2.636259,-3.710288
5.583078,2.3980217,-3.4291227,-1.5307007,-1.7805442,-5.7748804,-3.0206966,-2.0361645
5.585513,2.394485,-3.4291227,-1.5307007,-1.7805442,-5.7565317,-3.0507312,-2.042907
5.5879965,2.390348,-3.970277,-1.5125912,-1.8572432,-6.250147,-3.433828,-0.022411346
5.590471,2.3862376,-3.970277,-1.5125912,-1.8572432,-6.231433,-3.467158,-0.032320023
5.59299,2.3815713,-4.445385,-1.4902207,-1.9030495,-6.901868,-3.9011517,2.0282297
5.5955,2.3769348,-4.445385,-1.4902207,-1.9030495,-6.882801,-3.9374661,2.015266
5.597991,2.3717976,-4.8501854,-1.4582627,-1.9243548,-7.567738,-4.546217,4.3073196
5.6004887,2.3666623,-4.8501854,-1.4582627,-1.9243548,-7.548685,-4.585108,4.29111
5.602855,2.361168,-5.181483,-1.4145869,-1.9137021,-8.004654,-5.3675203,6.5561695
5.6052284,2.3556738,-5.181483,-1.4145869,-1.9137021,-7.9864836,-5.4076796,6.536888
5.607514,2.3499155,-5.437146,-1.3559973,-1.8732221,-8.227526,-6.5501328,8.828274
5.609792,2.3441923,-5.437146,-1.3559973,-1.8732221,-8.210016,-6.5909405,8.806698
5.6119704,2.338286,-5.6118493,-1.2792983,-1.8093063,-8.159728,-7.5850773,10.804069
5.614155,2.3323793,-5.6118493,-1.2792983,-1.8093063,-8.142881,-7.6262455,10.780437
5.616207,2.3264036,-5.703462,-1.1823592,-1.7304767,-8.275467,-8.246476,12.163319
5.618265,2.3204257,-5.703462,-1.1823592,-1.7304767,-8.259542,-8.287227,12.138123
5.620175,2.3144186,-5.710919,-1.060919,-1.6399292,-7.3493104,-9.208405,13.533958
5.6220784,2.308445,-5.710919,-1.060919,-1.6399292,-7.334537,-9.248189,13.507521
5.6238003,2.302503,-5.641677,-0.90325993,-1.5323375,-6.765707,-9.765694,14.385229
5.625527,2.2965586,-5.641677,-0.90325993,-1.5323375,-6.752261,-9.804257,14.357632
5.6270175,2.290726,-5.509584,-0.6955334,-1.4077016,-6.793321,-10.951955,14.640726
5.628514,2.2848885,-5.509584,-0.6955334,-1.4077016,-6.7816525,-10.988646,14.6123085
5.6297464,2.2791536,-5.3284893,-0.45371833,-1.2681519,-5.038626,-10.482376,15.210472
5.630976,2.273448,-5.3284893,-0.45371833,-1.2681519,-5.029009,-10.5168915,15.18128
5.631956,2.2676606,-5.121828,-0.15970534,-1.1413854,-5.4475145,-12.054083,15.1887245
5.6328983,2.2621193,-5.121828,-0.15970534,-1.1413854,-5.440134,-12.086149,15.158968
5.6335254,2.2567258,-4.897057,0.1747877,-1.0060968,-5.7177362,-12.757526,15.660227
5.6341667,2.2512474,-4.897057,0.1747877,-1.0060968,-5.7127132,-12.787595,15.629343
5.634485,2.245847,-4.6616335,0.5167376,-0.8548293,-6.2848296,-13.768508,16.081173
5.634806,2.2404697,-4.6616335,0.5167376,-0.8548293,-6.282303,-13.796267,16.049368
5.634797,2.2352,-4.4208837,0.8491001,-0.6897133,-6.143513,-14.923132,16.634573
5.634794,2.2299457,-4.4208837,0.8491001,-0.6897133,-6.1435366,-14.948439,16.602047
5.634462,2.224817,-4.1694813,1.1633531,-0.51074886,-5.992914,-16.331326,17.57455
5.634136,2.219697,-4.1694813,1.1633531,-0.51074886,-5.995466,-16.354134,17.541456
5.6334987,2.2147427,-3.9021,1.4637576,-0.3371108,-6.91026,-18.179718,17.74281
5.632869,2.209795,-3.9021,1.4637576,-0.3371108,-6.9151936,-18.199911,17.709518
5.631928,2.2050376,-3.603826,1.747118,-0.15388529,-7.118885,-19.596603,18.25563
5.6309967,2.2002885,-3.603826,1.747118,-0.15388529,-7.1261673,-19.614058,18.222363
5.629758,2.1957703,-3.2714636,2.0059774,0.038927577,-6.6570096,-20.596046,18.65389
5.6285295,2.1912575,-3.2714636,2.0059774,0.038927577,-6.666606,-20.61063,18.620985
5.627013,2.187031,-2.9060779,2.2531188,0.22321832,-5.845248,-21.670988,19.120346
5.625507,2.1828036,-2.9060779,2.2531188,0.22321832,-5.856988,-21.682571,19.088213
5.6237183,2.1788726,-2.507669,2.497064,0.39685643,-5.641062,-22.644157,19.229343
5.6219435,2.1749463,-2.507669,2.497064,0.39685643,-5.6548576,-22.652742,19.198177
5.619899,2.1713333,-2.0826285,2.7410097,0.55558085,-5.560593,-23.19474,19.201591
5.617865,2.1677153,-2.0826285,2.7410097,0.55558085,-5.576346,-23.20034,19.171474
5.61559,2.1644425,-1.6373478,2.9721723,0.6983263,-5.613096,-23.586147,19.415699
5.6133265,2.1611629,-1.6373478,2.9721723,0.6983263,-5.630575,-23.588818,19.386986
5.610826,2.158228,-1.1835452,3.1905513,0.83468014,-6.382468,-23.617388,18.885618
5.608337,2.1552835,-1.1835452,3.1905513,0.83468014,-6.4016085,-23.617184,18.858305
5.605652,2.152687,-0.7425257,3.38656,0.9507939,-7.90663,-23.542534,18.119102
5.6029773,2.1500797,-0.7425257,3.38656,0.9507939,-7.927106,-23.539667,18.093336
5.6001062,2.147825,-0.304702,3.5538065,1.0711688,-8.289021,-23.017017,17.28866
5.597246,2.1455579,-0.304702,3.5538065,1.0711688,-8.310825,-23.011509,17.26448
5.59419,2.14364,0.12566482,3.7317057,1.1979353,-9.483285,-22.31387,15.925064
5.5911446,2.1417086,0.12566482,3.7317057,1.1979353,-9.506382,-22.305748,15.902412
5.5878944,2.1400936,0.52940005,3.9032133,1.3236365,-10.254026,-21.902483,15.086218
5.5846643,2.1384683,0.52940005,3.9032133,1.3236365,-10.278395,-21.891895,15.064901
5.5812583,2.137164,0.90330786,4.015066,1.4418808,-10.165163,-22.022596,14.7481365
5.5778685,2.1358464,0.90330786,4.015066,1.4418808,-10.190599,-22.009682,14.728226
5.574357,2.1348748,1.2580409,4.067264,1.5494726,-10.710075,-22.018543,14.269543
5.570858,2.1338875,1.2580409,4.067264,1.5494726,-10.736162,-22.00349,14.251308
5.5672626,2.1332686,1.6021214,4.0683293,1.6496074,-10.911343,-21.679895,13.732281
5.563679,2.1326337,1.6021214,4.0683293,1.6496074,-10.937905,-21.662783,13.715937
5.560045,2.1323776,1.9291575,4.0246534,1.7305676,-10.94561,-21.078766,13.155878
5.556425,2.1321065,1.9291575,4.0246534,1.7305676,-10.972268,-21.059841,13.141613
5.552625,2.1322148,2.2274315,3.9404976,1.7944834,-10.755958,-20.157274,12.310221
5.552625,2.1322148,2.2274315,3.9404976,1.7944834,-10.803308,-20.12056,12.288395
5.545176,2.1324804,2.4884214,3.8233185,1.8413551,-10.728966,-19.26712,11.203527
5.5417023,2.1328974,2.4884214,3.8233185,1.8413551,-10.754214,-19.246014,11.193817
5.537913,2.1337075,2.7057354,3.684834,1.8658562,-11.030663,-18.52721,9.868511
5.537913,2.1337075,2.7057354,3.684834,1.8658562,-11.030663,-18.52721,9.868511
5.530515,2.1359076,2.869786,3.5335665,1.8722477,-12.496554,-18.12251,8.40453
5.52744,2.1368086,2.869786,3.5335665,1.8722477,-12.51861,-18.101553,8.398884
5.52414,2.1380572,2.981639,3.3418188,1.861595,-12.130396,-17.283064,7.2356377
5.52414,2.1380572,2.981639,3.3418188,1.861595,-12.130396,-17.283064,7.2356377
5.52414,2.1380572,2.981639,3.3418188,1.861595,-12.130396,-17.283064,7.2356377
5.52414,2.1380572,2.981639,3.3418188,1.861595,-12.130396,-17.283064,7.2356377
5.508459,2.1444106,3.0551422,2.898669,1.780635,-12.184046,-16.067308,5.0178394
5.5075407,2.1449018,3.0551422,2.898669,1.780635,-12.1905,-16.060123,5.0173054
5.504909,2.146505,3.0167925,2.669637,1.712458,-11.80195,-15.435426,4.135807
5.5020547,2.148241,3.0167925,2.669637,1.712458,-11.821926,-15.412252,4.135227
5.4993525,2.150064,2.9283755,2.4406052,1.6208453,-11.165615,-14.786263,3.3790607
5.4966455,2.1518872,2.9283755,2.4406052,1.6208453,-11.184456,-14.763555,3.3793488
5.4941516,2.1537004,2.793087,2.2243564,1.5079273,-11.187397,-14.201021,2.7195015
5.491657,2.1555128,2.793087,2.2243564,1.5079273,-11.204676,-14.179547,2.720358
5.4893866,2.1572504,2.6098616,2.0134342,1.3673123,-10.88038,-13.719119,2.4773579
5.487126,2.1589794,2.6098616,2.0134342,1.3673123,-10.895958,-13.6993,2.4784775
5.4851065,2.1605752,2.38296,1.8046423,1.2021964,-10.0910225,-13.260011,2.4030914
5.4830904,2.1621673,2.38296,1.8046423,1.2021964,-10.104858,-13.242112,2.4042435
5.4813285,2.1635475,2.115579,1.61396,1.0189708,-9.934964,-13.312703,2.6637192
5.4795628,2.16493,2.115579,1.61396,1.0189708,-9.947041,-13.297053,2.664568
5.478061,2.166031,1.8162395,1.4477787,0.8144401,-10.258955,-13.782024,2.9186115
5.476556,2.1671329,1.8162395,1.4477787,0.8144401,-10.269213,-13.768965,2.9188328
5.4753275,2.167931,1.5030518,1.2826627,0.5992567,-11.694934,-14.548775,3.0812168
5.4740977,2.1687288,1.5030518,1.2826627,0.5992567,-11.703296,-14.538487,3.08078
5.473144,2.1692543,1.1877335,1.0813278,0.38087747,-8.664345,-14.224408,3.8939285
5.472185,2.1697817,1.1877335,1.0813278,0.38087747,-8.670844,-14.216745,3.8930302
5.471485,2.1699734,0.86069727,0.93538654,0.15610667,-9.302868,-14.867899,4.087612
5.470812,2.1701572,0.86069727,0.93538654,0.15610667,-9.307428,-14.863227,4.085924
5.4703913,2.169981,0.5432485,0.8256643,-0.07825151,-9.741234,-15.167874,4.265209
5.469965,2.1698027,0.5432485,0.8256643,-0.07825151,-9.744114,-15.16604,4.262493
5.469797,2.1692848,0.23325653,0.6967673,-0.3126097,-8.409285,-15.344194,4.5462284
5.4696293,2.1687675,0.23325653,0.6967673,-0.3126097,-8.410414,-15.345173,4.5426617
5.469723,2.1679223,-0.06182173,0.57532716,-0.5437721,-8.682718,-15.880451,4.7825184
5.4698176,2.1670756,-0.06182173,0.57532716,-0.5437721,-8.682084,-15.884225,4.7781677
5.470158,2.1658964,-0.34518206,0.4773228,-0.77280396,-8.909625,-16.125343,4.7537823
5.4704995,2.1647184,-0.34518206,0.4773228,-0.77280396,-8.907316,-16.131832,4.7485485
5.471078,2.1632404,-0.61362875,0.37399215,-0.9869221,-9.003956,-16.19831,4.364279
5.4716578,2.1617646,-0.61362875,0.37399215,-0.9869221,-9.000027,-16.20732,4.3582916
5.472461,2.1599967,-0.8735532,0.27811834,-1.1882571,-9.2771,-16.233116,4.3084335
5.473266,2.1582317,-0.8735532,0.27811834,-1.1882571,-9.27164,-16.24453,4.3016586
5.4742804,2.156189,-1.1260209,0.1865056,-1.3757436,-9.303066,-16.0619,4.22707
5.475296,2.1541505,-1.1260209,0.1865056,-1.3757436,-9.2961645,-16.075573,4.2195053
5.4764996,2.1518404,-1.3752928,0.10767604,-1.5419248,-9.862583,-15.794474,4.0386944
5.4777026,2.1495404,-1.3752928,0.10767604,-1.5419248,-9.85439,-15.810207,4.0302696
5.4790797,2.1469693,-1.6213689,0.033107523,-1.6878661,-10.228063,-15.464047,3.9586525
5.480454,2.1444144,-1.6213689,0.033107523,-1.6878661,-10.218672,-15.481705,3.9492931
5.481982,2.1416156,-1.863184,-0.044656783,-1.8146325,-10.375814,-15.266529,4.0970745
5.483513,2.1388247,-1.863184,-0.044656783,-1.8146325,-10.365324,-15.285942,4.086788
5.485179,2.1358,-2.1007378,-0.1160295,-1.9222243,-10.732173,-15.216017,4.338934
5.4868445,2.1327887,-2.1007378,-0.1160295,-1.9222243,-10.720723,-15.236987,4.3276997
5.488625,2.1295633,-2.3297698,-0.18420643,-2.0074453,-11.2687025,-15.312068,4.598053
5.490414,2.1263375,-2.3297698,-0.18420643,-2.0074453,-11.256355,-15.33449,4.5857925
5.4923396,2.1228619,-2.5460184,-0.2598402,-2.0692308,-11.702728,-15.550131,4.9363613
5.49418,2.1195545,-2.5460184,-0.2598402,-2.0692308,-11.689983,-15.573077,4.9235706
5.496137,2.1160407,-2.7505493,-0.3471919,-2.106515,-12.07863,-15.697977,5.3216496
5.4981046,2.1125226,-2.7505493,-0.3471919,-2.106515,-12.064947,-15.722353,5.3077965
5.5001373,2.1089137,-2.939101,-0.4515878,-2.1203635,-12.457801,-16.207079,5.56164
5.502142,2.1053686,-2.939101,-0.4515878,-2.1203635,-12.4438095,-16.231674,5.54747
5.5042005,2.1017735,-3.1052823,-0.5687669,-2.1129067,-13.0949955,-16.663733,5.8634434
5.506383,2.0979764,-3.1052823,-0.5687669,-2.1129067,-13.079697,-16.690176,5.8480663
5.50861,2.0941863,-3.2458973,-0.7093818,-2.0841446,-13.198124,-16.946653,6.359455
5.5110908,2.089981,-3.2458973,-0.7093818,-2.0841446,-13.180656,-16.976183,6.3422604
5.5128746,2.0870645,-3.3630762,-0.8776936,-2.0404687,-13.153709,-17.183746,6.517191
5.5150604,2.0834994,-3.3630762,-0.8776936,-2.0404687,-13.138252,-17.209175,6.502615
5.51729,2.0800228,-3.4536238,-1.0598538,-1.9829444,-13.074573,-17.464338,6.953043
5.5195217,2.0765505,-3.4536238,-1.0598538,-1.9829444,-13.058726,-17.48961,6.9388885
5.5217867,2.0731983,-3.5164742,-1.242014,-1.9158328,-12.831926,-17.624746,7.121763
5.5240483,2.0698557,-3.5164742,-1.242014,-1.9158328,-12.815794,-17.649641,7.1082153
5.5263305,2.0666614,-3.551628,-1.4188479,-1.84446,-12.392472,-17.439468,7.3780365
5.5286045,2.0634818,-3.551628,-1.4188479,-1.84446,-12.376187,-17.46378,7.3652725
5.5309067,2.06045,-3.559085,-1.5860945,-1.776283,-12.04842,-17.200405,7.616764
5.533203,2.0574288,-3.559085,-1.5860945,-1.776283,-12.031906,-17.224216,7.604805
5.535509,2.0545716,-3.543106,-1.7320356,-1.7144977,-11.431096,-16.85484,7.8523636
5.537809,2.051723,-3.543106,-1.7320356,-1.7144977,-11.41448,-16.877993,7.841257
5.5401173,2.0490196,-3.5058217,-1.8470843,-1.6569735,-11.0099125,-16.369162,7.950714
5.5424166,2.0463262,-3.5058217,-1.8470843,-1.6569735,-10.993234,-16.39171,7.940365
5.5447083,2.043774,-3.4493628,-1.9301748,-1.6037102,-10.684481,-15.9157095,7.902071
5.5469933,2.0412278,-3.4493628,-1.9301748,-1.6037102,-10.66784,-15.937604,7.8924217
5.5492578,2.0388107,-3.3758595,-1.9802423,-1.5536427,-10.292183,-15.537528,7.912176
5.5515127,2.0364015,-3.3758595,-1.9802423,-1.5536427,-10.275689,-15.558713,7.903118
5.5537343,2.0341063,-3.2885077,-1.9994171,-1.5014448,-9.732683,-15.14355,7.74139
5.5559473,2.0318182,-3.2885077,-1.9994171,-1.5014448,-9.7164345,-15.16402,7.732813
5.5581055,2.0296335,-3.1926339,-1.9866339,-1.4492469,-9.202559,-14.86775,7.595379
5.5602636,2.0274463,-3.1926339,-1.9866339,-1.4492469,-9.186648,-14.887491,7.5871296
5.5623536,2.0253506,-3.0914338,-1.9482844,-1.3991795,-8.754626,-14.90172,7.674982
5.5644407,2.0232544,-3.0914338,-1.9482844,-1.3991795,-8.73918,-14.920683,7.6669693
5.56645,2.0212348,-2.9881032,-1.8886296,-1.3459163,-8.369942,-15.149608,7.7597275
5.5684533,2.0192184,-2.9881032,-1.8886296,-1.3459163,-8.355069,-15.167764,7.7518635
5.5703773,2.0172553,-2.8837073,-1.8087348,-1.288392,-8.326391,-15.319332,7.868561
5.572292,2.0152993,-2.8837073,-1.8087348,-1.288392,-8.312124,-15.336712,7.8607063
5.5741115,2.0133977,-2.7793114,-1.7181872,-1.2266066,-8.303339,-15.678957,8.0348625
5.5759234,2.0115018,-2.7793114,-1.7181872,-1.2266066,-8.289793,-15.695496,8.027002
5.5776467,2.0096521,-2.6717196,-1.6255093,-1.163756,-7.9752293,-15.965136,8.253801
5.579361,2.00781,-2.6717196,-1.6255093,-1.163756,-7.9623766,-15.980889,8.245926
5.5809693,2.0060217,-2.5619974,-1.5243092,-1.0945138,-7.7635565,-16.259197,8.511023
5.5825725,2.0042367,-2.5619974,-1.5243092,-1.0945138,-7.751506,-16.274078,8.503136
5.584065,2.0024948,-2.4501445,-1.4103258,-1.0199453,-7.783366,-16.513216,8.77771
5.5854936,2.0008264,-2.4501445,-1.4103258,-1.0199453,-7.7725997,-16.526682,8.770058
5.5868616,1.9991375,-2.3350961,-1.2910162,-0.94324625,-7.992117,-16.568571,9.0685215
5.588284,1.9973809,-2.3350961,-1.2910162,-0.94324625,-7.981382,-16.582235,9.060175
5.5895348,1.9957455,-2.213656,-1.1727718,-0.8665472,-8.26401,-16.757318,9.478327
5.5907736,1.9941252,-2.213656,-1.1727718,-0.8665472,-8.254636,-16.769466,9.470356
5.591903,1.9925599,-2.080498,-1.0545275,-0.78984815,-8.38015,-16.804735,9.926916
5.593037,1.9909872,-2.080498,-1.0545275,-0.78984815,-8.371549,-16.816103,9.918938
5.5940456,1.9895111,-1.9302956,-0.9384137,-0.7110186,-8.641619,-16.903042,10.433203
5.5950513,1.9880382,-1.9302956,-0.9384137,-0.7110186,-8.633982,-16.913338,10.425539
5.59594,1.9866686,-1.7609185,-0.8233651,-0.6300585,-8.828334,-17.056702,10.9210415
5.5968266,1.9853016,-1.7609185,-0.8233651,-0.6300585,-8.821592,-17.06596,10.913759
5.5975947,1.9840646,-1.5723667,-0.7115123,-0.5501637,-9.00249,-17.289608,11.486456
5.598362,1.9828279,-1.5723667,-0.7115123,-0.5501637,-8.99664,-17.297768,11.479738
5.5990095,1.9817498,-1.3603791,-0.6049859,-0.46600777,-8.939037,-17.625566,12.0005455
5.599655,1.9806743,-1.3603791,-0.6049859,-0.46600777,-8.93411,-17.632517,11.994619
5.600178,1.9797835,-1.1228251,-0.50058997,-0.3754603,-8.982791,-17.939873,12.53076
5.600699,1.9788948,-1.1228251,-0.50058997,-0.3754603,-8.978814,-17.945536,12.525824
5.6010942,1.9782196,-0.86077005,-0.39619404,-0.28384754,-8.994948,-18.471771,12.842888
5.6014886,1.9775465,-0.86077005,-0.39619404,-0.28384754,-8.991934,-18.476053,12.839132
5.6017575,1.9771093,-0.57634443,-0.29499394,-0.18903902,-9.176632,-18.8955,13.186283
5.602025,1.9766749,-0.57634443,-0.29499394,-0.18903902,-9.1745825,-18.89833,13.183878
5.602164,1.9765052,-0.27061355,-0.19805487,-0.08890416,-9.384212,-19.359318,13.3745575
5.6023016,1.9763356,-0.27061355,-0.19805487,-0.08890416,-9.383158,-19.360619,13.373713
5.602309,1.9764562,0.05003104,-0.11070318,0.016557023,-9.694349,-19.748158,13.403307
5.602316,1.9765768,0.05003104,-0.11070318,0.016557023,-9.694288,-19.74783,13.404163
5.6021943,1.9770095,0.38132828,-0.037199933,0.12627926,-10.063933,-19.832022,13.421282
5.602073,1.9774411,0.38132828,-0.037199933,0.12627926,-10.064863,-19.830029,13.424013
5.6018205,1.9782106,0.71901715,0.019259084,0.24452361,-10.349308,-19.907665,13.179796
5.6015687,1.9789774,0.71901715,0.019259084,0.24452361,-10.35123,-19.903908,13.184557
5.6011906,1.9800992,1.060967,0.057608604,0.36596376,-10.598332,-19.764278,13.047842
5.600814,1.9812171,1.060967,0.057608604,0.36596376,-10.601204,-19.758732,13.054731
5.600315,1.9827074,1.3986559,0.0757181,0.48953444,-10.839645,-19.50714,12.8963375
5.599818,1.9841939,1.3986559,0.0757181,0.48953444,-10.843442,-19.49976,12.9054985
5.5992064,1.9860554,1.729953,0.074652836,0.61630094,-11.097099,-19.255932,12.782879
5.598597,1.9879119,1.729953,0.074652836,0.61630094,-11.101745,-19.246737,12.794291
5.5978737,1.9901572,2.051663,0.059739135,0.74413264,-11.337103,-19.082449,12.83205
5.5971556,1.9923911,2.051663,0.059739135,0.74413264,-11.342572,-19.071419,12.845753
5.5963316,1.9950196,2.365916,0.0277812,0.8719644,-11.631362,-19.015425,12.80443
5.5955095,1.9976455,2.365916,0.0277812,0.8719644,-11.637613,-19.002506,12.820499
5.5945907,2.000657,2.6716468,-0.016959907,1.0008614,-11.864863,-19.045233,12.901188
5.5937123,2.003542,2.6716468,-0.016959907,1.0008614,-11.871534,-19.031084,12.918798
5.5926995,2.0069604,2.9731166,-0.074484184,1.1308236,-12.0563965,-19.172428,12.949234
5.591649,2.0105157,2.9731166,-0.074484184,1.1308236,-12.064358,-19.155031,12.970854
5.5905523,2.0143332,3.272456,-0.1458569,1.265047,-12.230679,-19.351917,12.864761
5.589468,2.0181208,3.272456,-0.1458569,1.265047,-12.238892,-19.333416,12.887709
5.5882864,2.022368,3.5696647,-0.22575174,1.4003356,-12.477671,-19.475567,12.803268
5.585608,2.032208,3.864743,-0.31629923,1.5345589,-12.526625,-19.5713,12.680542
5.585608,2.032208,3.864743,-0.31629923,1.5345589,-12.526625,-19.5713,12.680542
5.585608,2.032208,3.864743,-0.31629923,1.5345589,-12.526625,-19.5713,12.680542
5.582557,2.043678,3.864743,-0.31629923,1.5345589,-12.549601,-19.515144,12.748974
5.581805,2.0466092,4.160887,-0.41430354,1.667717,-12.5983515,-19.634909,12.608385
5.581805,2.0466092,4.160887,-0.41430354,1.667717,-12.5983515,-19.634909,12.608385
5.581805,2.0466092,4.160887,-0.41430354,1.667717,-12.5983515,-19.634909,12.608385
5.577136,2.0660439,4.7414556,-0.62416065,1.934033,-12.815342,-19.6938,12.1871605
5.576309,2.0695367,4.7414556,-0.62416065,1.934033,-12.821528,-19.676693,12.207626
5.57478,2.0762162,5.0226855,-0.73707867,2.0650606,-13.048444,-19.691969,11.787014
5.571888,2.0891988,5.2932625,-0.8531925,2.191827,-13.242411,-19.570877,11.378773
5.571888,2.0891988,5.2932625,-0.8531925,2.191827,-13.242411,-19.570877,11.378773
5.570415,2.0959973,5.2932625,-0.8531925,2.191827,-13.253374,-19.53742,11.417944
5.568899,2.1032667,5.551057,-0.97356737,2.3143325,-13.422679,-19.382,10.90427
5.5664983,2.1149578,5.551057,-0.97356737,2.3143325,-13.44051,-19.324175,10.970875
5.5649834,2.122638,5.791806,-1.0939423,2.4357727,-13.518778,-19.16165,10.444551
5.5649834,2.122638,5.791806,-1.0939423,2.4357727,-13.518778,-19.16165,10.444551
5.5649834,2.122638,5.791806,-1.0939423,2.4357727,-13.518778,-19.16165,10.444551
5.5649834,2.122638,5.791806,-1.0939423,2.4357727,-13.518778,-19.16165,10.444551
5.5588255,2.1550767,6.2019334,-1.3336267,2.6530867,-13.267399,-18.759546,9.686548
5.5576606,2.1617565,6.2019334,-1.3336267,2.6530867,-13.275978,-18.725946,9.72328
5.5570393,2.165457,6.37131,-1.4486754,2.743634,-12.950152,-18.654696,9.37011
5.555582,2.1742456,6.37131,-1.4486754,2.743634,-12.960866,-18.610382,9.418102
5.554146,2.1833487,6.516186,-1.5615934,2.820333,-12.779872,-18.698553,9.027061
5.5527325,2.1924984,6.516186,-1.5615934,2.820333,-12.790239,-18.652155,9.076426
5.5513496,2.2019567,6.6418877,-1.6713156,2.884249,-12.197032,-19.087812,8.801619
5.5500107,2.2113311,6.6418877,-1.6713156,2.884249,-12.206828,-19.03999,8.851564
5.5487227,2.220962,6.7494793,-1.7757115,2.9257944,-11.1771555,-19.718718,8.505243
5.5474653,2.2306113,6.7494793,-1.7757115,2.9257944,-11.186333,-19.669237,8.556046
5.546278,2.240468,6.844288,-1.8705201,2.9460342,-10.323502,-20.236431,7.903862
5.545123,2.2503424,6.844288,-1.8705201,2.9460342,-10.331912,-20.185545,7.9552593
5.5440555,2.2603643,6.932705,-1.9514802,2.9428384,-9.664516,-20.42126,6.929886
5.5430202,2.270413,6.932705,-1.9514802,2.9428384,-9.672039,-20.36924,6.981613
5.5420823,2.2806182,7.006208,-2.0175266,2.913011,-9.099459,-20.048328,5.6358223
5.5411816,2.2908077,7.006208,-2.0175266,2.913011,-9.105991,-19.995344,5.6877346
5.540386,2.3011067,7.0605364,-2.0654635,2.859748,-8.66165,-19.027267,4.2604885
5.5396285,2.3113878,7.0605364,-2.0654635,2.859748,-8.667138,-18.973549,4.312338
5.5389767,2.3217137,7.0775805,-2.09103,2.78731,-8.207382,-17.6938,2.7889328
5.538363,2.3320086,7.0775805,-2.09103,2.78731,-8.2118225,-17.63971,2.8403282
5.5378537,2.342321,7.042427,-2.095291,2.6935666,-7.688782,-16.168167,1.26365
5.5373845,2.3525493,7.042427,-2.095291,2.6935666,-7.692176,-16.114105,1.3141966
5.5369873,2.36349,6.9433575,-2.0750508,2.5806487,-6.933687,-14.442534,-0.06361103
5.5366826,2.372759,6.9433575,-2.0750508,2.5806487,-6.9358892,-14.393201,-0.018287659
5.5364556,2.3825667,6.769719,-2.0345707,2.4421642,-6.171382,-12.631537,-1.3877516
5.53626,2.3924172,6.769719,-2.0345707,2.4421642,-6.1727967,-12.578799,-1.3400049
5.536176,2.401912,6.5215125,-1.9738507,2.272787,-5.4455647,-10.785021,-2.649087
5.536122,2.411389,6.5215125,-1.9738507,2.272787,-5.4459577,-10.734015,-2.603478
5.5361776,2.4203548,6.1944766,-1.8971517,2.0778437,-4.4447784,-8.971596,-3.6998768
5.5362597,2.4293287,6.1944766,-1.8971517,2.0778437,-4.4441843,-8.923108,-3.656899
5.5364566,2.4376945,5.7886105,-1.8066041,1.853073,-3.4180465,-7.0728474,-4.7227325
5.5366755,2.4460573,5.7886105,-1.8066041,1.853073,-3.4164653,-7.0275803,-4.682712
5.5370092,2.4536963,5.3081765,-1.7043388,1.5963442,-2.2887788,-5.372809,-5.5843267
5.537361,2.4613233,5.3081765,-1.7043388,1.5963442,-2.2862372,-5.331579,-5.5476713
5.537828,2.4681072,4.7499776,-1.5892903,1.3108534,-1.3539124,-3.921029,-6.5919127
5.538309,2.474886,4.7499776,-1.5892903,1.3108534,-1.3504319,-3.884597,-6.5589447
5.538912,2.4807272,4.1193414,-1.4689153,0.9934045,-0.4410591,-2.5465472,-7.310253
5.539526,2.4865685,4.1193414,-1.4689153,0.9934045,-0.4366145,-2.5155847,-7.2811527
5.540269,2.4913483,3.4194624,-1.3485404,0.6439978,0.124222755,-1.562129,-7.9840307
5.5410213,2.496137,3.4194624,-1.3485404,0.6439978,0.12967825,-1.5374672,-7.9590898
5.5419154,2.4998102,2.659929,-1.2271004,0.27115524,0.1170125,-0.73920774,-8.2304325
5.5428143,2.5034785,2.659929,-1.2271004,0.27115524,0.12353563,-0.7214041,-8.209741
5.543863,2.5059783,1.8513932,-1.113117,-0.12192736,-0.11305094,-0.47151494,-8.269959
5.5449133,2.5084743,1.8513932,-1.113117,-0.12192736,-0.10541153,-0.46101737,-8.253588
5.546119,2.509771,1.008769,-1.0076559,-0.5224668,-0.22112799,-0.3240416,-8.093131
5.547325,2.5110662,1.008769,-1.0076559,-0.5224668,-0.2123332,-0.32112384,-8.081125
5.548688,2.5111456,0.14164378,-0.907521,-0.9198104,-0.4944811,-0.2637081,-7.7287574
5.5500503,2.5112255,0.14164378,-0.907521,-0.9198104,-0.48452663,-0.26852942,-7.721157
5.551566,2.5100918,-0.73932993,-0.8105819,-1.3118278,-1.1964846,-0.8078327,-7.085931
5.553082,2.5089614,-0.73932993,-0.8105819,-1.3118278,-1.1853807,-0.8203981,-7.0827875
5.5547447,2.5066276,-1.6203036,-0.7093818,-1.6868008,-2.4133756,-1.5828557,-6.2174435
5.556402,2.5043097,-1.6203036,-0.7093818,-1.6868008,-2.401192,-1.6030025,-6.2188373
5.558211,2.500838,-2.483168,-0.6252259,-2.037273,-3.6376574,-2.3344502,-5.319584
5.5599484,2.4975183,-2.483168,-0.6252259,-2.037273,-3.6248493,-2.3608294,-5.325176
5.561913,2.4929721,-3.3172698,-0.56344056,-2.3568523,-4.7930803,-3.0848484,-4.6073537
5.5639644,2.4882543,-3.3172698,-0.56344056,-2.3568523,-4.777907,-3.120675,-4.6179056
5.566082,2.4827209,-4.116218,-0.52296054,-2.642343,-5.4661155,-4.1527257,-3.487625
5.5681844,2.4772651,-4.116218,-0.52296054,-2.642343,-5.4505067,-4.193026,-3.5017917
5.570444,2.470839,-4.875752,-0.49526364,-2.8905497,-6.5781302,-5.384,-2.4617095
5.572731,2.4643884,-4.875752,-0.49526364,-2.8905497,-6.561087,-5.43073,-2.4802275
5.575129,2.4571412,-5.5926747,-0.4878068,-3.100407,-7.524802,-6.703498,-0.7785206
5.5775394,2.4499247,-5.5926747,-0.4878068,-3.100407,-7.5067654,-6.754989,-0.8009157
5.58007,2.4419441,-6.254204,-0.5037858,-3.2729797,-8.110284,-7.926957,0.84426785
5.5826254,2.4339662,-6.254204,-0.5037858,-3.2729797,-8.0910845,-7.98317,0.81785965
5.5852723,2.4253676,-6.851817,-0.53467846,-3.4061377,-8.712797,-9.110963,2.421095
5.587946,2.4167717,-6.851817,-0.53467846,-3.4061377,-8.692617,-9.170853,2.3909712
5.5907135,2.4076092,-7.382319,-0.5751585,-3.4988158,-9.035597,-10.268434,4.062436
5.5935016,2.3984776,-7.382319,-0.5751585,-3.4988158,-9.014459,-10.331403,4.028755
5.5963717,2.388888,-7.838252,-0.6198996,-3.5574052,-9.256006,-11.39781,5.7879868
5.599262,2.3793306,-7.838252,-0.6198996,-3.5574052,-9.233986,-11.46308,5.751045
5.6022215,2.3693993,-8.216421,-0.6571838,-3.585102,-9.5944605,-12.502464,7.3013706
5.605187,2.3595512,-8.216421,-0.6571838,-3.585102,-9.571764,-12.569063,7.2615814
5.608197,2.3494153,-8.520021,-0.6880765,-3.5787106,-10.04666,-13.55647,8.818914
5.611231,2.3393033,-8.520021,-0.6880765,-3.5787106,-10.023328,-13.62413,8.776279
5.6142845,2.3289788,-8.7469225,-0.71364284,-3.5361,-10.085974,-14.501894,10.350147
5.617339,2.3187494,-8.7469225,-0.71364284,-3.5361,-10.062363,-14.569534,10.305185
5.6203837,2.3084085,-8.897125,-0.73494816,-3.463662,-9.689219,-15.207142,11.551535
5.6234226,2.298183,-8.897125,-0.73494816,-3.463662,-9.665621,-15.273901,11.504778
5.626406,2.2879488,-8.97489,-0.73494816,-3.363527,-9.441288,-15.948164,12.855097
5.629409,2.277736,-8.97489,-0.73494816,-3.363527,-9.417854,-16.013855,12.80653
5.6323323,2.267535,-8.985542,-0.7093818,-3.2410216,-9.198674,-16.614996,13.958786
5.6352596,2.2574039,-8.985542,-0.7093818,-3.2410216,-9.175736,-16.67905,13.908747
5.638062,2.2473803,-8.932279,-0.65824914,-3.100407,-8.650944,-17.15814,14.710409
5.640873,2.2374034,-8.932279,-0.65824914,-3.100407,-8.628819,-17.22,14.659277
5.6435413,2.227531,-8.8225565,-0.5740932,-2.9523351,-8.181598,-17.65372,15.392773
5.646213,2.2177224,-8.8225565,-0.5740932,-2.9523351,-8.160486,-17.713198,15.34066
5.6487093,2.2080894,-8.660636,-0.46224046,-2.800002,-7.5565405,-18.110535,16.16939
5.6512136,2.1984982,-8.660636,-0.46224046,-2.800002,-7.5366783,-18.167267,16.116648
5.6535254,2.1890821,-8.450779,-0.31736448,-2.6412778,-7.355503,-18.571375,16.662258
5.65584,2.1797233,-8.450779,-0.31736448,-2.6412778,-7.3370795,-18.62522,16.60907
5.6579447,2.1705494,-8.198312,-0.14053059,-2.4825535,-6.8749676,-18.89703,17.168684
5.660187,2.1608548,-8.198312,-0.14053059,-2.4825535,-6.857072,-18.951096,17.111813
5.6634393,2.1455183,-7.912821,0.06506546,-2.3259594,-6.878936,-19.354965,17.340408
5.66397,2.1430361,-7.912821,0.06506546,-2.3259594,-6.8746834,-19.368294,17.325344
5.6654625,2.1352239,-7.5964375,0.2909015,-2.16617,-6.953697,-19.682125,17.439943
5.6671114,2.1266656,-7.5964375,0.2909015,-2.16617,-6.94046,-19.726574,17.386742
5.668517,2.1183562,-7.2534223,0.5252597,-2.0042496,-6.9243813,-19.983843,17.42026
5.6699805,2.1097922,-7.2534223,0.5252597,-2.0042496,-6.912608,-20.026558,17.365583
5.6711507,2.1017816,-6.8901668,0.76387894,-1.8433948,-6.7882633,-20.199207,17.193771
5.672327,2.093828,-6.8901668,0.76387894,-1.8433948,-6.7787886,-20.237177,17.14172
5.673272,2.0860934,-6.5098677,1.0035634,-1.6868008,-6.871727,-20.363731,16.86517
5.6742344,2.078335,-6.5098677,1.0035634,-1.6868008,-6.863966,-20.399094,16.813236
5.6749554,2.0709467,-6.1178503,1.2379216,-1.5334028,-7.2699375,-20.48411,16.308044
5.6756916,2.0635486,-6.1178503,1.2379216,-1.5334028,-7.263994,-20.516212,16.257475
5.6762085,2.056469,-5.7194414,1.4573661,-1.3863963,-7.604581,-20.497776,15.681618
5.6767406,2.0493784,-5.7194414,1.4573661,-1.3863963,-7.6002865,-20.527,15.632221
5.6770687,2.0426323,-5.3178368,1.65444,-1.244716,-7.7747955,-20.462605,14.895014
5.67741,2.035902,-5.3178368,1.65444,-1.244716,-7.7720385,-20.488907,14.847326
5.677569,2.0294938,-4.919428,1.8280782,-1.1104928,-8.038902,-20.345203,14.19318
5.677741,2.023086,-4.919428,1.8280782,-1.1104928,-8.037507,-20.368872,14.147049
5.677752,2.017024,-4.5231495,1.9729542,-0.98585683,-8.205017,-20.246578,13.456465
5.6777763,2.0109625,-4.5231495,1.9729542,-0.98585683,-8.204824,-20.267735,13.412216
5.6776624,2.0052505,-4.135393,2.0880027,-0.87187356,-8.5553,-20.157446,12.857723
5.6775613,1.9995373,-4.135393,2.0880027,-0.87187356,-8.55611,-20.176256,12.815491
5.6773477,1.9941796,-3.757224,2.170028,-0.7706734,-8.969643,-20.178719,12.382891
5.6771464,1.9888204,-3.757224,2.170028,-0.7706734,-8.971269,-20.195393,12.342857
5.6768556,1.9838145,-3.390773,2.2200954,-0.6811912,-9.289658,-20.296436,12.185461
5.6765766,1.9788165,-3.390773,2.2200954,-0.6811912,-9.291909,-20.311127,12.147781
5.6762295,1.974183,-3.031779,2.2350092,-0.6002311,-9.582026,-20.654514,12.308924
5.675892,1.969547,-3.031779,2.2350092,-0.6002311,-9.584751,-20.667398,12.273689
5.675499,1.9652947,-2.6781113,2.217965,-0.5214015,-9.851288,-21.234093,12.571545
5.675116,1.9610394,-2.6781113,2.217965,-0.5214015,-9.854381,-21.245243,12.538965
5.6746902,1.9571896,-2.323378,2.1678975,-0.44470248,-10.212161,-21.666605,12.581118
5.674273,1.9533368,-2.323378,2.1678975,-0.44470248,-10.215527,-21.67609,12.551401
5.6738234,1.9499097,-1.9611882,2.0943942,-0.3722645,-10.003676,-21.808514,12.821651
5.6733804,1.9464797,-1.9611882,2.0943942,-0.3722645,-10.007257,-21.816397,12.795023
5.672906,1.9434887,-1.5958025,2.0070426,-0.29556546,-10.537806,-22.119604,13.0876255
5.672437,1.9404956,-1.5958025,2.0070426,-0.29556546,-10.541581,-22.125889,13.064169
5.6719337,1.9379561,-1.227221,1.9047772,-0.21140957,-11.216021,-22.580729,13.38883
5.671434,1.935412,-1.227221,1.9047772,-0.21140957,-11.220041,-22.585423,13.368671
5.6709094,1.9333571,-0.85011744,1.7694886,-0.12618841,-11.69832,-22.871054,13.687342
5.6703615,1.931195,-0.85011744,1.7694886,-0.12618841,-11.70273,-22.874308,13.669952
5.6703615,1.931195,-0.46342644,1.6033074,-0.044163052,-11.70273,-22.874308,13.669952
5.6675797,1.9255242,0.34830508,1.1942458,0.13267085,-12.754612,-24.058226,14.100563
5.6675797,1.9255242,0.34830508,1.1942458,0.13267085,-12.754612,-24.058226,14.100563
5.6675797,1.9255242,0.34830508,1.1942458,0.13267085,-12.754612,-24.058226,14.100563
5.6675797,1.9255242,0.34830508,1.1942458,0.13267085,-12.754612,-24.058226,14.100563
5.6670694,1.9251308,0.34830508,1.1942458,0.13267085,-12.758709,-24.056606,14.096592
5.6663194,1.9253836,0.77760667,0.9524307,0.21682674,-13.286665,-24.458914,14.250246
5.66597,1.9255011,0.77760667,0.9524307,0.21682674,-13.289471,-24.456722,14.250441
5.665229,1.9266287,1.2186261,0.69463676,0.29991737,-12.591522,-23.918104,14.032398
5.664898,1.9271324,1.2186261,0.69463676,0.29991737,-12.594172,-23.91492,14.035511
5.6644053,1.9285212,1.6628414,0.43045115,0.37874693,-13.584535,-24.34893,13.714571
5.663899,1.9299484,1.6628414,0.43045115,0.37874693,-13.588593,-24.342205,13.724266
5.663101,1.9334925,2.1091871,0.13111185,0.4490544,-13.36993,-23.624023,12.968708
5.662904,1.9343699,2.1091871,0.13111185,0.4490544,-13.3715105,-23.620476,12.974876
5.662509,1.9368623,2.5480762,-0.17355378,0.52149236,-11.2294655,-22.715815,12.552181
5.662074,1.9396154,2.5480762,-0.17355378,0.52149236,-11.23294,-22.705574,12.571836
5.6614647,1.9446414,2.9603336,-0.42389092,0.5896693,-11.472453,-22.601543,11.894583
5.661254,1.9463898,2.9603336,-0.42389092,0.5896693,-11.474137,-22.5953,11.907152
5.6608768,1.950324,3.3502204,-0.64227015,0.64719355,-12.29118,-22.557743,11.370556
5.660321,1.956189,3.3502204,-0.64227015,0.64719355,-12.295628,-22.537294,11.412874
5.66015,1.9585003,3.719867,-0.8649104,0.6961957,-12.20601,-22.347458,10.74486
5.6598225,1.9629713,3.719867,-0.8649104,0.6961957,-12.208627,-22.332138,10.777191
5.659546,1.9679738,4.0714045,-1.0982033,0.7420021,-11.784672,-22.229116,10.29154
5.659276,1.9729733,4.0714045,-1.0982033,0.7420021,-11.786823,-22.212141,10.327705
5.659062,1.9784747,4.4058976,-1.3219088,0.78248215,-11.166042,-22.04527,9.927074
5.6588564,1.9839884,4.4058976,-1.3219088,0.78248215,-11.167692,-22.026623,9.96698
5.658711,1.9899364,4.7244115,-1.5221785,0.8155054,-11.250248,-21.891735,9.603052
5.6585755,1.9959035,4.7244115,-1.5221785,0.8155054,-11.251332,-21.871515,9.646187
5.6585007,2.002298,5.023751,-1.701143,0.84320223,-11.433883,-21.596136,9.223167
5.6584387,2.0086932,5.023751,-1.701143,0.84320223,-11.434385,-21.574318,9.269321
5.658434,2.0154824,5.2996545,-1.8673242,0.8687686,-10.586873,-21.364399,8.983118
5.6584435,2.022272,5.2996545,-1.8673242,0.8687686,-10.586791,-21.34097,9.031971
5.6585097,2.0294385,5.555318,-2.0175266,0.8954002,-10.495288,-21.464615,8.868044
5.658591,2.0365334,5.555318,-2.0175266,0.8954002,-10.49464,-21.43978,8.918938
5.658714,2.0440073,5.791806,-2.1347055,0.9252276,-10.124951,-21.169214,8.627708
5.658856,2.0515404,5.791806,-2.1347055,0.9252276,-10.123819,-21.14233,8.681507
5.6590314,2.0592961,6.0059247,-2.2241879,0.955055,-10.601258,-20.918055,8.071188
5.659225,2.0670197,6.0059247,-2.2241879,0.955055,-10.599706,-20.889875,8.126049
5.6594553,2.075009,6.1987376,-2.3040826,0.9784908,-10.291414,-20.731148,7.8283386
5.6597075,2.0830607,6.1987376,-2.3040826,0.9784908,-10.289402,-20.70111,7.885231
5.659988,2.0913043,6.370245,-2.3711944,1.0051224,-9.913664,-20.454521,7.402212
5.6602883,2.0995038,6.370245,-2.3711944,1.0051224,-9.9112625,-20.423195,7.4597874
5.660614,2.1079113,6.516186,-2.4170008,1.0285583,-9.76022,-20.184761,6.824299
5.6609616,2.116316,6.516186,-2.4170008,1.0285583,-9.757443,-20.151852,6.882921
5.661335,2.1248689,6.6365614,-2.4510891,1.0445372,-9.366593,-19.7588,6.133106
5.6617312,2.1334267,6.6365614,-2.4510891,1.0445372,-9.363424,-19.724464,6.1923695
5.662158,2.1421366,6.7281737,-2.4734597,1.0509288,-8.799768,-19.3156,5.4192886
5.662602,2.1507301,6.7281737,-2.4734597,1.0509288,-8.796209,-19.280285,5.478359
5.6630826,2.1594484,6.7867637,-2.4851778,1.0456024,-8.466749,-18.918459,4.704916
5.663586,2.1681533,6.7867637,-2.4851778,1.0456024,-8.462719,-18.88189,4.7643547
5.664134,2.1768963,6.81233,-2.4894388,1.023232,-8.056102,-18.504837,3.9332256
5.6647058,2.1856425,6.81233,-2.4894388,1.023232,-8.05152,-18.467323,3.9925404
5.665325,2.1943197,6.801677,-2.4873083,0.98594767,-7.3474483,-17.797747,3.1558266
5.6659694,2.2030263,6.801677,-2.4873083,0.98594767,-7.3422775,-17.759682,3.2145042
5.6666746,2.2116694,6.752675,-2.4755902,0.93588024,-7.5377345,-17.142279,1.912777
5.667398,2.2202625,6.752675,-2.4755902,0.93588024,-7.531923,-17.104069,1.9703865
5.668186,2.2287593,6.656801,-2.4574807,0.8687686,-6.625372,-16.434036,1.1222954
5.6689963,2.2372572,6.656801,-2.4574807,0.8687686,-6.618858,-16.395655,1.1789951
5.669875,2.2455468,6.516186,-2.4351103,0.78567797,-5.8791633,-15.591973,0.17609692
5.6707945,2.2540185,6.516186,-2.4351103,0.78567797,-5.871758,-15.5532,0.23243332
5.671768,2.262088,6.329765,-2.397826,0.6887389,-5.150448,-14.821899,-0.7241888
5.6727443,2.2700205,6.329765,-2.397826,0.6887389,-5.142578,-14.785171,-0.6715698
5.673803,2.2777073,6.0932765,-2.3424323,0.57582086,-4.9041986,-13.155097,-2.0234108
5.6748824,2.2854164,6.0932765,-2.3424323,0.57582086,-4.895484,-13.119104,-1.97229
5.6760316,2.2927632,5.8024592,-2.2678638,0.44692385,-3.8758454,-11.547834,-3.2688928
5.677196,2.300101,5.8024592,-2.2678638,0.44692385,-3.8664322,-11.51335,-3.2201843
5.6784325,2.3069713,5.446661,-2.1815772,0.3020479,-3.5403967,-10.461384,-4.222888
5.6796813,2.3138323,5.446661,-2.1815772,0.3020479,-3.530281,-10.429091,-4.1771383
5.6810026,2.3201308,5.0258813,-2.084638,0.13906243,-3.2705736,-9.360766,-5.245556
5.6823425,2.3264577,5.0258813,-2.084638,0.13906243,-3.2597003,-9.331129,-5.202987
5.6837645,2.3321214,4.5443816,-1.9940908,-0.04629358,-2.8028383,-7.969264,-6.279864
5.6851983,2.3377938,4.5443816,-1.9940908,-0.04629358,-2.7911797,-7.9431043,-6.2410774
5.6867375,2.342771,4.0010967,-1.9131306,-0.25082436,-2.5583887,-6.829288,-7.048822
5.6882224,2.347546,4.0010967,-1.9131306,-0.25082436,-2.5462928,-6.807953,-7.015283
5.689887,2.3517673,3.3960266,-1.8353664,-0.46920356,-2.6955266,-5.9283886,-7.4679728
5.6916213,2.3561451,3.3960266,-1.8353664,-0.46920356,-2.6813726,-5.9099255,-7.435926
5.693414,2.359543,2.7344975,-1.7650589,-0.69717014,-2.8199463,-5.011339,-7.672723
5.6951995,2.3629146,2.7344975,-1.7650589,-0.69717014,-2.8053384,-4.998597,-7.646382
5.6971116,2.3654385,2.023966,-1.7000778,-0.9272673,-2.6795382,-4.24418,-7.528681
5.699043,2.3679805,2.023966,-1.7000778,-0.9272673,-2.6636977,-4.236623,-7.506594
5.7010784,2.3696058,1.2708241,-1.6276398,-1.1520381,-2.9725876,-3.6984649,-7.3505116
5.7031045,2.37122,1.2708241,-1.6276398,-1.1520381,-2.9559236,-3.696571,-7.333412
5.7052345,2.37191,0.4857242,-1.5456144,-1.3682867,-3.086822,-3.4275374,-6.6747856
5.7073603,2.3725977,0.4857242,-1.5456144,-1.3682867,-3.0692897,-3.4313974,-6.662648
5.709561,2.3723443,-0.31641993,-1.4486754,-1.5664259,-3.5108,-3.4458787,-5.9996357
5.711757,2.3720918,-0.31641993,-1.4486754,-1.5664259,-3.492636,-3.4555235,-5.9926744
5.714018,2.3708997,-1.1217599,-1.3442794,-1.7443252,-4.0916157,-3.5092819,-5.2199926
5.7162676,2.3697162,-1.1217599,-1.3442794,-1.7443252,-4.072955,-3.5246198,-5.218299
5.7185726,2.367608,-1.9196429,-1.242014,-1.8998537,-4.566168,-3.588742,-4.5035605
5.7208643,2.3655171,-1.9196429,-1.242014,-1.8998537,-4.547103,-3.609595,-4.507127
5.7231975,2.362539,-2.700482,-1.149336,-2.0330117,-5.0160813,-3.9039993,-3.7161655
5.725565,2.3595254,-2.700482,-1.149336,-2.0330117,-4.99633,-3.9305534,-3.7250812
5.72789,2.3557703,-3.4557543,-1.0651802,-2.1416688,-5.628128,-4.435354,-2.6900167
5.730245,2.3519778,-3.4557543,-1.0651802,-2.1416688,-5.608419,-4.466388,-2.7039027
5.7326074,2.3474026,-4.178004,-0.98741585,-2.2226288,-6.2733674,-5.306441,-1.5398965
5.7349772,2.3428278,-4.178004,-0.98741585,-2.2226288,-6.253478,-5.3419914,-1.5588284
5.737341,2.3375337,-4.852316,-0.9224347,-2.2737615,-6.8656836,-6.1717205,-0.38527012
5.7397017,2.3322663,-4.852316,-0.9224347,-2.2737615,-6.8458123,-6.211084,-0.4089508
5.7420454,2.3263328,-5.471235,-0.87023675,-2.2940016,-7.3910923,-7.1160345,0.8653822
5.7443943,2.3204105,-5.471235,-0.87023675,-2.2940016,-7.371268,-7.1588726,0.8370199
5.746695,2.3139,-6.0315638,-0.8265609,-2.2822838,-7.658281,-8.119329,2.1500378
5.7489853,2.3074467,-6.0315638,-0.8265609,-2.2822838,-7.638897,-8.164643,2.1174517
5.751213,2.3004498,-6.5301075,-0.78821135,-2.238608,-7.821128,-9.165495,3.3976536
5.753447,2.2934644,-6.5301075,-0.78821135,-2.238608,-7.8021717,-9.213176,3.3607216
5.7555943,2.286028,-6.9636703,-0.74986184,-2.1683004,-7.879697,-10.277949,4.756708
5.7577386,2.2786322,-6.9636703,-0.74986184,-2.1683004,-7.861454,-10.327066,4.715989
5.7597847,2.2708416,-7.3322515,-0.70512074,-2.0692308,-7.997255,-11.335379,6.060567
5.761829,2.2630935,-7.3322515,-0.70512074,-2.0692308,-7.979824,-11.385451,6.016302
5.763755,2.255037,-7.635852,-0.6529228,-1.9541823,-7.8724,-12.475502,7.3913193
5.765679,2.247023,-7.635852,-0.6529228,-1.9541823,-7.855956,-12.525877,7.343973
5.767475,2.2387536,-7.873406,-0.59433323,-1.82422,-7.7591867,-13.553595,8.826332
5.7692657,2.2305431,-7.873406,-0.59433323,-1.82422,-7.743847,-13.603754,8.776287
5.770903,2.2221665,-8.047044,-0.5240258,-1.6782787,-7.380258,-14.539655,9.997906
5.7725096,2.213983,-8.047044,-0.5240258,-1.6782787,-7.366479,-14.588173,9.94656
5.7739806,2.2054956,-8.159962,-0.43667412,-1.5216849,-7.066531,-15.446551,11.122871
5.77549,2.1968298,-8.159962,-0.43667412,-1.5216849,-7.053567,-15.496299,11.066971
5.776773,2.188344,-8.218552,-0.33334345,-1.3629605,-6.81747,-16.113619,12.016773
5.778057,2.1798902,-8.218552,-0.33334345,-1.3629605,-6.806421,-16.160511,11.960791
5.7791605,2.1713543,-8.229204,-0.22255595,-1.2031708,-6.5622807,-16.742939,12.698172
5.780272,2.1627986,-8.229204,-0.22255595,-1.2031708,-6.552703,-16.788712,12.640112
5.7811837,2.1543233,-8.198312,-0.105376855,-1.0455116,-6.348512,-17.158443,13.285574
5.782099,2.1458611,-8.198312,-0.105376855,-1.0455116,-6.3406167,-17.202042,13.226852
5.7828207,2.1374683,-8.129069,0.018193819,-0.8910483,-6.3487554,-17.497847,13.761503
5.7835703,2.1288104,-8.129069,0.018193819,-0.8910483,-6.342284,-17.540695,13.70013
5.7840886,2.1207209,-8.031065,0.14922135,-0.73871547,-6.5245476,-17.747131,14.197439
5.784626,2.1124086,-8.031065,0.14922135,-0.73871547,-6.519904,-17.786573,14.137362
5.7849746,2.1042175,-7.909625,0.27811834,-0.5906437,-6.713216,-17.94394,14.422146
5.7853284,2.096003,-7.909625,0.27811834,-0.5906437,-6.7101555,-17.981228,14.361687
5.7855015,2.0878983,-7.7658143,0.40062377,-0.44576776,-7.0630064,-18.160477,14.6173725
5.7856784,2.079827,-7.7658143,0.40062377,-0.44576776,-7.0614777,-18.195461,14.556974
5.7856855,2.0718672,-7.6049595,0.5124765,-0.30728337,-7.348714,-18.276674,14.870243
5.7856975,2.0639467,-7.6049595,0.5124765,-0.30728337,-7.3486156,-18.309393,14.8100815
5.785551,2.0561523,-7.425995,0.61048084,-0.17412531,-7.589302,-18.350033,14.965746
5.7854095,2.0483646,-7.425995,0.61048084,-0.17412531,-7.5905266,-18.380627,14.905758
5.7851243,2.040773,-7.2353125,0.6925062,-0.04842411,-7.6600227,-18.433311,15.023901
5.7848434,2.0331717,-7.2353125,0.6925062,-0.04842411,-7.6624603,-18.461672,14.96463
5.7844334,2.0257769,-7.0307817,0.7585526,0.06875498,-7.598963,-18.550482,15.007021
5.784027,2.018365,-7.0307817,0.7585526,0.06875498,-7.6024723,-18.576694,14.948561
5.7835083,2.0111768,-6.8166637,0.81394637,0.1731509,-7.5063944,-18.687346,14.824392
5.7829933,2.003971,-6.8166637,0.81394637,0.1731509,-7.510844,-18.711466,14.766991
5.7823777,1.9970027,-6.592958,0.8554917,0.27008995,-7.2958946,-18.896698,14.667994
5.781766,1.9900169,-6.592958,0.8554917,0.27008995,-7.301174,-18.91879,14.611826
5.7810707,1.9832771,-6.3607306,0.88638437,0.35211533,-6.8187523,-19.044611,14.3514
5.7803783,1.9765136,-6.3607306,0.88638437,0.35211533,-6.824726,-19.0648,14.296581
5.779621,1.9700146,-6.1231766,0.9098202,0.41922697,-6.6540785,-19.255825,13.769579
5.7788663,1.9634924,-6.1231766,0.9098202,0.41922697,-6.6605835,-19.274189,13.716341
5.7780643,1.9572287,-5.8824267,0.92792964,0.46822914,-6.1503468,-19.37734,13.128685
5.777263,1.9509361,-5.8824267,0.92792964,0.46822914,-6.15724,-19.394056,13.077011
5.776433,1.9449085,-5.6406116,0.93964756,0.5001871,-5.479645,-19.591434,12.447931
5.7756033,1.9388529,-5.6406116,0.93964756,0.5001871,-5.4867764,-19.606627,12.3979435
5.7747416,1.9329205,-5.3977313,0.9598876,0.51297027,-5.211668,-19.865192,11.75507
5.7747416,1.9329205,-5.3977313,0.9598876,0.51297027,-5.211668,-19.865192,11.75507
5.7729526,1.9205627,-5.159112,0.9907803,0.5065787,-5.562229,-20.238905,11.001345
5.7720957,1.9148188,-5.159112,0.9907803,0.5065787,-5.569583,-20.2518,10.953581
5.771317,1.9096882,-4.9226236,1.021673,0.4820776,-6.055106,-20.72269,10.173426
5.7702713,1.9027547,-4.9226236,1.021673,0.4820776,-6.0640726,-20.737501,10.115608
5.7697444,1.8992379,-4.681874,1.0387172,0.44053227,-6.308016,-21.19498,9.5404
5.7689934,1.8942053,-4.681874,1.0387172,0.44053227,-6.3144455,-21.205347,9.498373
5.7680016,1.8873926,-4.441124,1.046174,0.3893996,-6.5144815,-21.597424,8.795038
5.7662272,1.8748069,-4.200374,1.0472393,0.3350711,-6.6254334,-21.88069,8.1870575
5.7662272,1.8748069,-4.200374,1.0472393,0.3350711,-6.6254334,-21.88069,8.1870575
5.7662272,1.8748069,-4.200374,1.0472393,0.3350711,-6.6254334,-21.88069,8.1870575
5.7655463,1.8696458,-3.9596243,1.0440435,0.27435103,-7.07658,-22.182722,7.645935
5.764864,1.8644325,-3.7178094,1.0344561,0.21043515,-7.082412,-22.19255,7.6023273
5.7645464,1.8618275,-3.7178094,1.0344561,0.21043515,-7.4969316,-22.523096,7.0394745
5.7639337,1.8567681,-3.7178094,1.0344561,0.21043515,-7.502168,-22.532532,6.9971867
5.7635694,1.8534855,-3.4781249,1.009955,0.14971508,-7.9841194,-22.74938,6.5388145
5.7631397,1.8495798,-3.4781249,1.009955,0.14971508,-7.98779,-22.756598,6.5061817
5.762771,1.8458414,-3.241636,0.9652139,0.093256064,-8.321336,-22.859362,6.029667
5.762361,1.8416393,-3.241636,0.9652139,0.093256064,-8.324835,-22.867096,5.9945774
5.7620993,1.8385416,-3.0051475,0.90342855,0.03999284,-8.456354,-22.882471,5.667082
5.761807,1.8350477,-3.0051475,0.90342855,0.03999284,-8.458849,-22.888924,5.6379356
5.7615843,1.8318124,-2.7707891,0.82886004,-0.010074589,-8.432018,-22.928556,5.3476353
5.7613654,1.8285923,-2.7707891,0.82886004,-0.010074589,-8.433882,-22.93456,5.320801
5.7612143,1.8256361,-2.5438879,0.74896526,-0.05588096,-8.770365,-23.17009,5.1573715
5.7610483,1.8223382,-2.5438879,0.74896526,-0.05588096,-8.771779,-23.176344,5.1299343
5.760976,1.8199155,-2.3212476,0.65628725,-0.102752596,-8.216944,-23.29604,5.014061
5.7608967,1.8172227,-2.3212476,0.65628725,-0.102752596,-8.217617,-23.301292,4.9916973
5.7608852,1.8147877,-2.1007378,0.5582829,-0.14855897,-7.7197165,-23.550488,5.718521
5.7608757,1.8123645,-2.1007378,0.5582829,-0.14855897,-7.7198014,-23.555416,5.6984615
5.760939,1.8101908,-1.8802282,0.4688007,-0.19436534,-9.481394,-23.957567,4.8617096
5.7610025,1.808028,-1.8802282,0.4688007,-0.19436534,-9.480848,-23.962225,4.843857
5.761142,1.8061415,-1.6597184,0.3633395,-0.2465633,-9.230669,-24.043272,5.173147
5.761277,1.8043123,-1.6597184,0.3633395,-0.2465633,-9.229511,-24.04754,5.158121
5.761419,1.802415,-1.6597184,0.3633395,-0.2465633,-9.228306,-24.051949,5.1425343
5.7616377,1.800753,-1.4349476,0.2376383,-0.29876125,-6.219325,-23.476837,5.8616047
5.76192,1.7994062,-1.2176336,0.14709082,-0.34669816,-7.1171293,-23.954845,6.0661945
5.762203,1.7980552,-1.2176336,0.14709082,-0.34669816,-7.114713,-23.958805,6.055279
5.762551,1.7969505,-1.0045807,0.0938276,-0.39996138,-7.9114137,-24.034407,6.1614056
5.762903,1.7958307,-1.0045807,0.0938276,-0.39996138,-7.908406,-24.03823,6.152479
5.763322,1.794959,-0.7925931,0.032042257,-0.4564204,-8.043693,-24.453684,6.6340847
5.76374,1.7940885,-0.7925931,0.032042257,-0.4564204,-8.040117,-24.457325,6.627283
5.764229,1.7934681,-0.5742139,-0.043591518,-0.5118142,-7.5427427,-24.681091,7.187681
5.7647185,1.7928463,-0.5742139,-0.043591518,-0.5118142,-7.538555,-24.68459,7.1830254
5.7652698,1.7924871,-0.3441168,-0.109637916,-0.5608163,-7.9264936,-24.592125,7.281185
5.7658224,1.792127,-0.3441168,-0.109637916,-0.5608163,-7.9217625,-24.595425,7.2787666
5.766442,1.7920277,-0.11082389,-0.17035799,-0.611949,-8.922033,-24.727837,7.374363
5.7670603,1.7919284,-0.11082389,-0.17035799,-0.611949,-8.91674,-24.730957,7.374201
5.767744,1.7921059,0.12992588,-0.24918756,-0.6630817,-8.590061,-24.724277,7.6924324
5.768427,1.7922828,0.12992588,-0.24918756,-0.6630817,-8.584217,-24.727184,7.694647
5.7691774,1.7927535,0.37600195,-0.34506136,-0.70888805,-8.256966,-24.437746,7.584461
5.7699275,1.7932237,0.37600195,-0.34506136,-0.70888805,-8.250541,-24.440393,7.5891933
5.770738,1.7939816,0.61888224,-0.43241304,-0.74936813,-8.238794,-24.203356,7.380909
5.771548,1.7947372,0.61888224,-0.43241304,-0.74936813,-8.231846,-24.205719,7.3880844
5.772412,1.7957656,0.8543057,-0.50911206,-0.7866524,-8.530893,-24.135988,7.1198997
5.7732763,1.7967933,0.8543057,-0.50911206,-0.7866524,-8.523473,-24.138065,7.1294327
5.7741957,1.7980882,1.0833375,-0.58794165,-0.82393664,-8.577823,-23.962696,6.8970547
5.7751136,1.7993796,1.0833375,-0.58794165,-0.82393664,-8.569933,-23.964474,6.9088593
5.7760344,1.8006723,1.0833375,-0.58794165,-0.82393664,-8.562018,-23.966232,6.920683
5.777007,1.8022319,1.302782,-0.66890174,-0.85376406,-8.352533,-23.737844,6.6331387
5.7779756,1.8037825,1.302782,-0.66890174,-0.85376406,-8.344197,-23.739265,6.647192
5.7789874,1.8055845,1.5158349,-0.7466661,-0.87826514,-8.4025135,-23.433891,6.2611694
5.7799997,1.8073832,1.5158349,-0.7466661,-0.87826514,-8.3938,-23.43495,6.277378
5.7810493,1.8094217,1.7182351,-0.819104,-0.8974399,-8.332074,-23.196228,5.917351
5.7821,1.8114583,1.7182351,-0.819104,-0.8974399,-8.323011,-23.196886,5.935602
5.783183,1.8137164,1.9142438,-0.89047676,-0.91661465,-8.093393,-22.938612,5.711544
5.784275,1.8159882,1.9142438,-0.89047676,-0.91661465,-8.08396,-22.938862,5.731823
5.7853966,1.8184731,2.1027956,-0.9607842,-0.9325936,-7.9306135,-22.775936,5.3948135
5.786521,1.8209584,2.1027956,-0.9607842,-0.9325936,-7.9208884,-22.775753,5.416939
5.787679,1.823655,2.2828252,-1.0268306,-0.9485726,-7.9156523,-22.545357,5.139221
5.78884,1.8263485,2.2828252,-1.0268306,-0.9485726,-7.905603,-22.544743,5.163162
5.7900286,1.8292387,2.455398,-1.0907465,-0.96135575,-7.8091135,-22.380932,4.9302177
5.791227,1.8321432,2.455398,-1.0907465,-0.96135575,-7.798723,-22.379847,4.955988
5.7924466,1.8352194,2.6205142,-1.1525319,-0.97307366,-7.716316,-22.268246,4.930561
5.7936344,1.8382064,2.6205142,-1.1525319,-0.97307366,-7.706004,-22.26674,4.9570255
5.794893,1.8414825,2.780304,-1.2079256,-0.9847916,-7.66634,-22.26478,4.8519344
5.7961893,1.8448466,2.780304,-1.2079256,-0.9847916,-7.6550694,-22.262674,4.881708
5.7974777,1.8482949,2.937963,-1.257993,-0.9965095,-7.605556,-22.135708,4.8259907
5.7987576,1.8517083,2.937963,-1.257993,-0.9965095,-7.59441,-22.13316,4.856161
5.8000693,1.855317,3.091361,-1.3027341,-1.0039663,-7.4967957,-21.962568,4.7970543
5.8013945,1.8589472,3.091361,-1.3027341,-1.0039663,-7.4852476,-21.95943,4.829117
5.802734,1.862737,3.2436938,-1.3400184,-1.0092926,-6.9707794,-21.80738,4.8529625
5.804088,1.8665531,3.2436938,-1.3400184,-1.0092926,-6.9589596,-21.803623,4.886631
5.80543,1.8704399,3.3917656,-1.3613236,-1.014619,-7.4356527,-21.713284,4.6144104
5.806776,1.8743222,3.3917656,-1.3613236,-1.014619,-7.4238877,-21.709007,4.6486225
5.8081417,1.8783687,3.5334458,-1.3751721,-1.0210105,-7.038443,-21.460016,4.3394566
5.8095155,1.8824226,3.5334458,-1.3751721,-1.0210105,-7.0264215,-21.455093,4.375149
5.8109064,1.886629,3.6697996,-1.3879553,-1.0274022,-6.6981993,-21.248539,3.942854
5.8122993,1.8908222,3.6697996,-1.3879553,-1.0274022,-6.6859922,-21.242964,3.9797173
5.813706,1.895146,3.7965662,-1.3922163,-1.0369896,-6.151718,-21.074095,3.4191284
5.8151126,1.899452,3.7965662,-1.3922163,-1.0369896,-6.139371,-21.067896,3.4569416
5.8165374,1.9038826,3.9148104,-1.3890206,-1.0519032,-5.6097054,-20.37169,2.499813
5.817964,1.9083,3.9148104,-1.3890206,-1.0519032,-5.5971627,-20.364864,2.5385513
5.819412,1.9128202,4.0149455,-1.3741069,-1.0732086,-5.359369,-19.462204,1.3331947
5.8208704,1.9173537,4.0149455,-1.3741069,-1.0732086,-5.3465314,-19.454763,1.3729267
5.8223457,1.9219226,4.086318,-1.3528016,-1.1041012,-5.156362,-18.393637,0.29248238
5.8238297,1.9265001,4.086318,-1.3528016,-1.1041012,-5.143277,-18.385752,0.3325901
5.82534,1.9310992,4.1236024,-1.32617,-1.1403202,-4.7420955,-17.448742,-0.6087227
5.826855,1.9356982,4.1236024,-1.32617,-1.1403202,-4.728712,-17.440487,-0.5684223
5.8283997,1.9402677,4.117211,-1.294212,-1.1818655,-4.609721,-16.479342,-1.3758812
5.8299446,1.9448234,4.117211,-1.294212,-1.1818655,-4.5960574,-16.470922,-1.335926
5.831527,1.9493322,4.066078,-1.2516015,-1.2234108,-4.6490912,-15.64377,-2.0768242
5.8331113,1.9538316,4.066078,-1.2516015,-1.2234108,-4.6350594,-15.63527,-2.0372992
5.8347163,1.9582069,3.9734,-1.2004687,-1.2638909,-4.5681615,-14.827385,-2.5638237
5.8363256,1.9625818,3.9734,-1.2004687,-1.2638909,-4.5538845,-14.818993,-2.5253172
5.8379526,1.9667922,3.8381114,-1.1482707,-1.3033056,-4.290444,-14.159802,-2.9047422
5.8395824,1.9709984,3.8381114,-1.1482707,-1.3033056,-4.2759647,-14.151669,-2.8676233
5.841231,1.9750158,3.6644733,-1.092877,-1.3384594,-4.093718,-13.564686,-3.0187798
5.8428793,1.9790251,3.6644733,-1.092877,-1.3384594,-4.079048,-13.556949,-2.9832792
5.8445663,1.9828595,3.453551,-1.0342875,-1.3714826,-3.9443128,-13.123645,-2.9299908
5.846219,1.9866077,3.453551,-1.0342875,-1.3714826,-3.9295852,-13.116519,-2.8966398
5.8478556,1.9900488,3.2149317,-0.9746327,-1.3981142,-3.847952,-12.779897,-2.8753996
5.8495116,1.9935249,3.2149317,-0.9746327,-1.3981142,-3.8331716,-12.773478,-2.8442764
5.851169,1.9967179,2.9528766,-0.9160431,-1.4204848,-3.7465408,-12.523755,-2.5377464
5.8527794,1.9998155,2.9528766,-0.9160431,-1.4204848,-3.7321444,-12.518305,-2.5098028
5.854429,2.002705,2.672712,-0.855323,-1.4353985,-3.4588168,-12.245513,-2.3398361
5.8561163,2.0056581,2.672712,-0.855323,-1.4353985,-3.443706,-12.240664,-2.3129454
5.8577566,2.0082242,2.378699,-0.794603,-1.4503121,-3.4194336,-11.930544,-2.0833845
5.859376,2.0107546,2.378699,-0.794603,-1.4503121,-3.4049137,-11.926849,-2.0600538
5.860998,2.0129814,2.0750988,-0.73175234,-1.4609648,-3.4861293,-11.536383,-1.9721556
5.862626,2.015215,2.0750988,-0.73175234,-1.4609648,-3.4715075,-11.533703,-1.9512272
5.864232,2.0171003,1.761911,-0.6710323,-1.4684216,-3.6629786,-11.000703,-1.9523172
5.8658414,2.0189881,1.761911,-0.6710323,-1.4684216,-3.6485085,-10.999157,-1.9342318
5.8674316,2.0205302,1.4402012,-0.61776906,-1.4748132,-3.629411,-10.448172,-1.7849035
5.8690267,2.0220766,1.4402012,-0.61776906,-1.4748132,-3.615049,-10.447805,-1.7696171
5.8706045,2.023272,1.1078386,-0.56770164,-1.478009,-3.581675,-9.998603,-1.5704536
5.8721776,2.024463,1.1078386,-0.56770164,-1.478009,-3.5674903,-9.999473,-1.5580835
5.8737407,2.0252995,0.766954,-0.51656896,-1.4769437,-3.7449214,-9.618599,-1.4480591
5.8753037,2.0261352,0.766954,-0.51656896,-1.4769437,-3.7308095,-9.620774,-1.438592
5.876844,2.0266042,0.4196778,-0.4665015,-1.4705522,-3.9658885,-9.298687,-1.1687822
5.878381,2.0270724,0.4196778,-0.4665015,-1.4705522,-3.9519908,-9.302181,-1.1623545
5.879898,2.0271688,0.06281421,-0.41962987,-1.457769,-4.1728954,-8.971878,-0.8190079
5.881414,2.0272653,0.06281421,-0.41962987,-1.457769,-4.159173,-8.976739,-0.8156471
5.8828864,2.0269852,-0.3025715,-0.37488878,-1.4364637,-4.026122,-8.906319,-0.35095787
5.884368,2.0267043,-0.3025715,-0.37488878,-1.4364637,-4.012691,-8.912531,-0.35074997
5.8858,2.026041,-0.671153,-0.3312129,-1.4077016,-4.25828,-9.135561,0.31663132
5.887234,2.0253778,-0.671153,-0.3312129,-1.4077016,-4.2452602,-9.1431055,0.3136177
5.8886137,2.0243258,-1.037604,-0.2864718,-1.369352,-4.357233,-9.458449,1.1740274
5.8899903,2.0232773,-1.037604,-0.2864718,-1.369352,-4.3447204,-9.467294,1.167737
5.8912954,2.0218446,-1.3976634,-0.24705704,-1.3235457,-4.184417,-9.764702,1.9817648
5.8926005,2.0204132,-1.3976634,-0.24705704,-1.3235457,-4.172542,-9.774779,1.9721718
5.893843,2.0185595,-1.7470701,-0.20444645,-1.2702824,-4.137293,-10.274705,2.9214602
5.8950615,2.016744,-1.7470701,-0.20444645,-1.2702824,-4.1261973,-10.285946,2.9085112
5.8962116,2.0145416,-2.080498,-0.15437903,-1.2127582,-4.1875463,-10.858685,3.7350035
5.8973613,2.0123434,-2.080498,-0.15437903,-1.2127582,-4.1770654,-10.871119,3.7187204
5.898433,2.0098038,-2.3936856,-0.10324633,-1.1499076,-4.148139,-11.382566,4.436879
5.899507,2.0072634,-2.3936856,-0.10324633,-1.1499076,-4.138344,-11.395978,4.4175673
5.900497,2.0044203,-2.6866333,-0.05637469,-1.0827959,-4.0431166,-11.913,5.2000237
5.901491,2.0015702,-2.6866333,-0.05637469,-1.0827959,-4.0340376,-11.927214,5.177923
5.902397,1.9984479,-2.9582758,-0.004176734,-1.0156842,-3.733673,-12.636413,6.0009146
5.902397,1.9984479,-2.9582758,-0.004176734,-1.0156842,-3.733673,-12.636413,6.0009146
5.902397,1.9984479,-2.9582758,-0.004176734,-1.0156842,-3.733673,-12.636413,6.0009146
5.902397,1.9984479,-2.9582758,-0.004176734,-1.0156842,-3.733673,-12.636413,6.0009146
5.902397,1.9984479,-3.425927,0.12791605,-0.89211357,-3.733673,-12.636413,6.0009146
5.906671,1.9772052,-3.6144786,0.19715825,-0.833524,-4.3170915,-15.224052,8.070618
5.9068313,1.9762945,-3.6144786,0.19715825,-0.833524,-4.315624,-15.227879,8.063196
5.9068313,1.9762945,-3.6144786,0.19715825,-0.833524,-4.315624,-15.227879,8.063196
5.908136,1.9676259,-3.7668116,0.25681305,-0.7759997,-4.346777,-16.053284,8.557011
5.908644,1.9636776,-3.8839905,0.31327206,-0.72060597,-4.2990227,-16.87812,9.098944
5.909155,1.9597305,-3.8839905,0.31327206,-0.72060597,-4.294344,-16.893595,9.066221
5.909679,1.955702,-3.8839905,0.31327206,-0.72060597,-4.289546,-16.909264,9.032757
5.910176,1.9512621,-3.966016,0.36760056,-0.6716038,-4.237114,-17.658733,9.412281
5.910632,1.947206,-3.966016,0.36760056,-0.6716038,-4.23293,-17.673986,9.378347
5.911049,1.9428705,-4.0139527,0.42192906,-0.6226016,-4.2386847,-18.398584,9.820742
5.91146,1.9386253,-4.0139527,0.42192906,-0.6226016,-4.2349205,-18.414032,9.784998
5.912038,1.9316175,-4.0309973,0.4773228,-0.57786053,-4.1146936,-19.104437,10.180578
5.9121337,1.9302553,-4.0171485,0.5327166,-0.539511,-4.147337,-19.85615,10.595184
5.912483,1.9253142,-4.0171485,0.5327166,-0.539511,-4.1441355,-19.873156,10.553169
5.912726,1.9212614,-3.9713423,0.5891756,-0.50542253,-4.2472534,-20.581125,11.011787
5.9129443,1.9176568,-3.9713423,0.5891756,-0.50542253,-4.2452497,-20.593145,10.980974
5.9132004,1.913481,-3.9713423,0.5891756,-0.50542253,-4.242902,-20.606953,10.945229
5.9134135,1.9092923,-3.8957086,0.64456934,-0.4713341,-4.39417,-21.228626,11.431187
5.913632,1.9050618,-3.8957086,0.64456934,-0.4713341,-4.392168,-21.24218,11.394815
5.913804,1.9009709,-3.7870514,0.6967673,-0.4383109,-4.60128,-21.90622,11.929346
5.913948,1.8966216,-3.6453714,0.7425737,-0.40635297,-4.882471,-22.436708,12.4902725
5.914071,1.893001,-3.6453714,0.7425737,-0.40635297,-4.8813457,-22.447704,12.458921
5.9142094,1.8890263,-3.6453714,0.7425737,-0.40635297,-4.8800755,-22.45965,12.424446
5.9143095,1.8852081,-3.4727986,0.78198844,-0.37439504,-5.228714,-22.978462,13.358515
5.9144125,1.881386,-3.4727986,0.78198844,-0.37439504,-5.227763,-22.989592,13.325247
5.9144692,1.8777566,-3.2672024,0.8192727,-0.3328497,-5.667776,-23.914494,14.519396
5.9145293,1.874134,-3.2672024,0.8192727,-0.3328497,-5.667227,-23.924686,14.487753
5.914542,1.8707412,-3.0221918,0.8522959,-0.29023916,-6.0501747,-24.973064,15.841864
5.9145584,1.8673514,-3.0221918,0.8522959,-0.29023916,-6.0500336,-24.982258,15.812151
5.9145246,1.8642467,-2.7324398,0.87679696,-0.24230224,-6.3232765,-25.847555,17.22136
5.914494,1.8611417,-2.7324398,0.87679696,-0.24230224,-6.323555,-25.855652,17.194029
5.914416,1.858375,-2.3936856,0.88958013,-0.19436534,-6.420038,-27.054935,18.634867
5.914341,1.8556079,-2.3936856,0.88958013,-0.19436534,-6.4207363,-27.061848,18.61043
5.914221,1.8532394,-1.9984725,0.89277595,-0.14642844,-6.541542,-27.905497,19.800909
5.914103,1.8508704,-1.9984725,0.89277595,-0.14642844,-6.5426273,-27.911125,19.779907
5.913945,1.8489417,-1.5425394,0.8853191,-0.102752596,-6.47225,-29.136509,20.744362
5.913792,1.8470546,-1.5425394,0.8853191,-0.102752596,-6.4736557,-29.140728,20.727562
5.91361,1.8456744,-1.0269513,0.8693401,-0.06759887,-6.772213,-29.871391,21.524437
5.9134293,1.8442956,-1.0269513,0.8693401,-0.06759887,-6.7738667,-29.874203,21.512089
5.91323,1.8434978,-0.45596957,0.84483904,-0.039901994,-7.3455048,-30.68951,21.849602
5.9130316,1.8426996,-0.45596957,0.84483904,-0.039901994,-7.347336,-30.690804,21.84237
5.912819,1.8425441,0.16934066,0.8054243,-0.013270383,-8.034019,-31.202816,21.802471
5.912606,1.8423876,0.16934066,0.8054243,-0.013270383,-8.035982,-31.202475,21.8009
5.9123864,1.8429304,0.84258777,0.74576944,0.0112307,-8.569508,-31.760635,21.35059
5.912166,1.8434739,0.84258777,0.74576944,0.0112307,-8.571522,-31.758524,21.355167
5.9119434,1.8447652,1.5573802,0.66693985,0.03573178,-8.942282,-32.128067,20.628952
5.9117203,1.8460553,1.5573802,0.66693985,0.03573178,-8.944323,-32.124084,20.640118
5.9114943,1.8481338,2.3051958,0.57426184,0.064493924,-9.588039,-32.20909,19.63351
5.9112687,1.8501998,2.3051958,0.57426184,0.064493924,-9.590111,-32.20311,19.6515
5.9110327,1.8531033,3.078578,0.4688007,0.10284344,-10.157297,-32.29548,18.685638
5.9107957,1.8560126,3.078578,0.4688007,0.10284344,-10.159475,-32.2872,18.711006
5.910552,1.859748,3.8679388,0.34736055,0.14545402,-10.482529,-32.49214,17.675777
5.910307,1.8634878,3.8679388,0.34736055,0.14545402,-10.484781,-32.481476,17.708366
5.91004,1.8682092,4.6594305,0.21846354,0.19871724,-10.582987,-32.24292,16.499691
5.9097853,1.8727059,4.6594305,0.21846354,0.19871724,-10.585329,-32.22989,16.538792
5.9094605,1.8789637,5.4423995,0.086370744,0.26369837,-11.368813,-32.149307,15.041679
5.9092145,1.8837065,5.4423995,0.086370744,0.26369837,-11.371061,-32.135197,15.082783
5.9089236,1.8897537,6.212586,-0.0680926,0.3350711,-11.273161,-32.207962,13.588436
5.908626,1.8959651,6.212586,-0.0680926,0.3350711,-11.275894,-32.18895,13.642071
5.908307,1.9030674,6.962532,-0.23960018,0.41390067,-11.020243,-32.128563,12.180546
5.907991,1.9101636,6.962532,-0.23960018,0.41390067,-11.023138,-32.10607,12.241516
5.9076543,1.9180622,7.6762595,-0.41643408,0.5001871,-10.365419,-31.951298,10.968441
5.9073224,1.9259623,7.6762595,-0.41643408,0.5001871,-10.368462,-31.925295,11.035934
5.9069757,1.93462,8.351637,-0.593268,0.5875388,-10.491347,-31.929764,9.80722
5.9066358,1.9432797,8.351637,-0.593268,0.5875388,-10.494457,-31.9001,9.880714
5.9062943,1.9526275,8.983338,-0.778624,0.6695641,-9.798466,-31.762096,8.93026
5.905961,1.9620055,8.983338,-0.778624,0.6695641,-9.801515,-31.728634,9.009274
5.905632,1.9720557,9.571364,-0.96184945,0.7505242,-9.114997,-31.64418,8.040184
5.905315,1.982108,9.571364,-0.96184945,0.7505242,-9.117899,-31.60678,8.124187
5.9050107,1.9927832,10.11465,-1.1322918,0.82509273,-8.890841,-31.628513,6.982399
5.904721,2.0034606,10.11465,-1.1322918,0.82509273,-8.89349,-31.587086,7.070812
5.9044576,2.0147014,10.612128,-1.2974077,0.88900864,-8.148903,-31.216984,5.564125
5.904211,2.0259666,10.612128,-1.2974077,0.88900864,-8.151155,-31.171432,5.656502
5.9040055,2.0377424,11.0638,-1.4486754,0.93801075,-7.5209684,-30.28969,3.9521484
5.9038205,2.049532,11.0638,-1.4486754,0.93801075,-7.5226607,-30.240007,4.0477753
5.9036856,2.061772,11.463274,-1.5818334,0.97422975,-6.925342,-28.846678,2.1641254
5.9035735,2.0740132,11.463274,-1.5818334,0.97422975,-6.9263663,-28.792967,2.2622738
5.903522,2.0866456,11.800963,-1.6926209,0.9944698,-6.5868583,-27.04618,0.22254181
5.9034953,2.099266,11.800963,-1.6926209,0.9944698,-6.5871005,-26.98857,0.32246208
5.903538,2.1122072,12.065149,-1.7810378,0.9976656,-6.2946196,-25.046568,-1.9603233
5.903608,2.1251488,12.065149,-1.7810378,0.9976656,-6.2939873,-24.985176,-1.8592281
5.903758,2.1383064,12.244113,-1.8513453,0.9774256,-5.176913,-22.656746,-4.2662334
5.9039364,2.1514764,12.244113,-1.8513453,0.9774256,-5.175284,-22.59192,-4.1648026
5.904216,2.1647406,12.322943,-1.9046085,0.9262929,-4.124069,-19.791407,-7.065624
5.904524,2.1780033,12.322943,-1.9046085,0.9262929,-4.121256,-19.7238,-6.964961
5.9049516,2.1912189,12.278202,-1.9418927,0.8442675,-3.360774,-17.09847,-9.551576
5.9054084,2.204458,12.278202,-1.9418927,0.8442675,-3.356596,-17.028772,-9.452564
5.906013,2.217499,12.099237,-1.9802423,0.7249579,-2.2784662,-14.268188,-11.419388
5.9066443,2.2305355,12.099237,-1.9802423,0.7249579,-2.272688,-14.1975155,-11.323279
5.9074545,2.2432413,11.777528,-2.0217876,0.57582086,-2.0402164,-11.240559,-13.08315
5.9082885,2.2559159,11.777528,-2.0217876,0.57582086,-2.0325832,-11.170046,-12.990948
5.909309,2.2680929,11.30242,-2.0622678,0.403248,-1.0607662,-8.276625,-14.176399
5.9103527,2.2802625,11.30242,-2.0622678,0.403248,-1.0512037,-8.207364,-14.08894
5.911591,2.2917614,10.678175,-2.099552,0.20936988,-0.32638454,-6.1065197,-14.523609
5.9128494,2.3032517,10.678175,-2.099552,0.20936988,-0.31484222,-6.0398617,-14.441875
5.914297,2.3139215,9.915445,-2.119792,0.0016433196,-0.057347298,-4.5604515,-14.605389
5.9157624,2.3245826,9.915445,-2.119792,0.0016433196,-0.04389572,-4.4976497,-14.530141
5.917406,2.3342943,9.035537,-2.119792,-0.21567063,0.43567657,-2.309643,-15.122207
5.9190636,2.343997,9.035537,-2.119792,-0.21567063,0.45091438,-2.251851,-15.0540285
5.9208903,2.3526347,8.046971,-2.103813,-0.44257197,0.5299616,-0.79287636,-15.36164
5.922727,2.3612635,8.046971,-2.103813,-0.44257197,0.546875,-0.74118674,-15.301003
5.924704,2.3687348,6.966793,-2.0739856,-0.6747996,1.9345636,0.11234629,-14.769045
5.9266863,2.3761911,6.966793,-2.0739856,-0.6747996,1.952838,0.15698576,-14.716344
5.9287887,2.38241,5.814177,-1.9983518,-0.9038315,1.7136545,1.2325858,-14.614047
5.9308977,2.388629,5.814177,-1.9983518,-0.9038315,1.7331257,1.2694304,-14.569438
5.9330916,2.3935397,4.6114936,-1.886499,-1.131798,1.2266712,1.8577927,-14.173932
5.9352875,2.3984456,4.6114936,-1.886499,-1.131798,1.2469797,1.8861064,-14.137725
5.9375505,2.4020164,3.3747215,-1.7607979,-1.3523078,0.88484764,2.4416711,-13.698031
5.9398136,2.4055836,3.3747215,-1.7607979,-1.3523078,0.90581226,2.4610581,-13.670237
5.942129,2.4078069,2.124101,-1.6308355,-1.5579039,0.32393742,2.777676,-13.138387
5.9444447,2.4100285,2.124101,-1.6308355,-1.5579039,0.3454132,2.7879179,-13.118955
5.9467993,2.4109168,0.87454575,-1.5083301,-1.7496514,-0.044524193,2.654859,-12.236246
5.949156,2.411806,0.87454575,-1.5083301,-1.7496514,-0.022626877,2.6559303,-12.225053
5.951549,2.4113886,-0.35903051,-1.3943468,-1.92542,-0.4839983,2.2648313,-11.225919
5.9539423,2.410973,-0.35903051,-1.3943468,-1.92542,-0.4617262,2.256854,-11.222811
5.9563594,2.409297,-1.5606488,-1.2910162,-2.0777528,-0.7648201,1.4165094,-9.901144
5.958777,2.4076245,-1.5606488,-1.2910162,-2.0777528,-0.74228,1.3998318,-9.90593
5.961211,2.4047477,-2.7153955,-1.1962076,-2.2045193,-1.2127733,0.07716215,-8.280657
5.9636416,2.4018817,-2.7153955,-1.1962076,-2.2045193,-1.1900764,0.052295208,-8.29309
5.966075,2.3978791,-3.8126178,-1.1035297,-2.3025236,-1.8903842,-1.5557332,-6.3448057
5.968511,2.3938823,-3.8126178,-1.1035297,-2.3025236,-1.8675995,-1.5882473,-6.3647003
5.9709253,2.3888388,-4.835272,-1.0129821,-2.3696353,-2.3956668,-3.4808865,-4.447437
5.9732494,2.3839989,-4.835272,-1.0129821,-2.3696353,-2.3738978,-3.5187006,-4.473414
5.975636,2.3780026,-5.7759004,-0.9320221,-2.4101155,-2.7585373,-5.455761,-2.5581195
5.9781194,2.371786,-5.7759004,-0.9320221,-2.4101155,-2.7352383,-5.502877,-2.59327
5.9804616,2.3649473,-6.623851,-0.8574536,-2.4260943,-2.9526663,-7.368452,-0.74176455
5.9827967,2.3581572,-6.623851,-0.8574536,-2.4260943,-2.9307241,-7.4186068,-0.78178453
5.985076,2.3505597,-7.3759274,-0.7850156,-2.412246,-2.9715443,-9.164015,1.0445442
5.987379,2.3429177,-7.3759274,-0.7850156,-2.412246,-2.9498718,-9.219112,0.99786377
5.9895773,2.334645,-8.035326,-0.7093818,-2.3749616,-2.9004436,-10.810032,2.8567715
5.991787,2.3263721,-8.035326,-0.7093818,-2.3749616,-2.8796263,-10.868261,2.804574
5.993905,2.3174963,-8.605243,-0.629487,-2.3185027,-3.0511956,-12.394983,4.476097
5.996032,2.3086283,-8.605243,-0.629487,-2.3185027,-3.0311222,-12.455921,4.4184666
5.9980564,2.2992592,-9.088873,-0.5474616,-2.2439342,-2.9880748,-13.917498,6.0276566
6.0000906,2.2898974,-9.088873,-0.5474616,-2.2439342,-2.9688642,-13.98026,5.9651184
6.002005,2.2801304,-9.487282,-0.46010992,-2.151256,-2.8071127,-15.160384,7.5172844
6.0039287,2.27038,-9.487282,-0.46010992,-2.151256,-2.7889245,-15.224084,7.4504204
6.00572,2.2602906,-9.803665,-0.36104032,-2.0436645,-2.8294392,-16.337564,8.898104
6.0075197,2.250218,-9.803665,-0.36104032,-2.0436645,-2.8123996,-16.401592,8.827286
6.0091667,2.239907,-10.0401535,-0.2502528,-1.9232895,-2.835108,-17.4141,10.185482
6.0108223,2.2296124,-10.0401535,-0.2502528,-1.9232895,-2.81942,-17.477669,10.111364
6.0123158,2.2191458,-10.201009,-0.13626952,-1.7922621,-2.5466928,-18.388676,11.390118
6.0138206,2.2086742,-10.201009,-0.13626952,-1.7922621,-2.5324216,-18.45139,11.3130245
6.015149,2.198136,-10.28623,-0.014829379,-1.6548429,-2.079286,-18.97298,12.436335
6.0164886,2.187592,-10.28623,-0.014829379,-1.6548429,-2.0665722,-19.034122,12.357044
6.017642,2.1770236,-10.264925,0.28024888,-1.3725479,-2.0268917,-19.47245,13.08584
6.017642,2.1770236,-10.264925,0.28024888,-1.3725479,-2.0268917,-19.47245,13.08584
6.0202155,2.1490486,-10.264925,0.28024888,-1.3725479,-2.1508884,-20.08116,13.654379
6.020607,2.144868,-10.264925,0.28024888,-1.3725479,-2.1471682,-20.10364,13.621601
6.0214753,2.1333432,-10.167986,0.44110382,-1.2308676,-2.282567,-20.63851,14.220013
6.0222316,2.1234508,-10.167986,0.44110382,-1.2308676,-2.2753773,-20.689907,14.141251
6.022833,2.1131124,-10.023109,0.6072851,-1.0881222,-2.1307983,-21.245155,14.805115
6.022833,2.1131124,-10.023109,0.6072851,-1.0881222,-2.1307983,-21.245155,14.805115
6.0239997,2.0926752,-9.829231,0.77985793,-0.9443115,-2.1005468,-21.868233,15.400478
6.0244546,2.081785,-9.829231,0.77985793,-0.9443115,-2.0962229,-21.92038,15.310972
6.0250607,2.055729,-9.585286,0.9609529,-0.79943556,-2.0090542,-22.327414,15.797819
6.0250607,2.055729,-9.585286,0.9609529,-0.79943556,-2.0090542,-22.327414,15.797819
6.0251107,2.04391,-9.295534,1.1505699,-0.6577554,-2.133071,-22.422445,16.21044
6.0251107,2.04391,-9.295534,1.1505699,-0.6577554,-2.133071,-22.422445,16.21044
6.024804,2.0239973,-8.962107,1.3380564,-0.5214015,-1.8726244,-22.223877,16.576912
6.0244846,2.0151153,-8.593525,1.5266083,-0.38930875,-1.8565121,-22.125734,17.051104
6.0244846,2.0151153,-8.593525,1.5266083,-0.38930875,-1.8565121,-22.125734,17.051104
6.024208,2.007107,-8.593525,1.5266083,-0.38930875,-1.8591404,-22.157574,16.981897
6.0237207,1.9985324,-8.192986,1.7162254,-0.26360753,-1.8685665,-22.15709,17.457996
6.023244,1.9898863,-8.192986,1.7162254,-0.26360753,-1.8731003,-22.18977,17.382528
6.022599,1.9816128,-7.759423,1.9026467,-0.14855897,-2.0516186,-22.512094,17.812675
6.021972,1.9733691,-7.759423,1.9026467,-0.14855897,-2.057579,-22.541626,17.74006
6.021198,1.965543,-7.2885756,2.0816112,-0.04842411,-2.7113743,-22.80811,17.972408
6.020439,1.9577134,-7.2885756,2.0816112,-0.04842411,-2.7185879,-22.834663,17.902878
6.0195513,1.9503535,-6.7847056,2.2403355,0.04318863,-3.009533,-23.064608,18.033497
6.018678,1.9429895,-6.7847056,2.2403355,0.04318863,-3.01783,-23.088198,17.967607
6.017695,1.9361378,-6.249943,2.3724282,0.12734452,-2.969698,-23.032673,17.97303
6.0167265,1.9292816,-6.249943,2.3724282,0.12734452,-2.978901,-23.053385,17.911285
6.0156574,1.922948,-5.693875,2.4864116,0.20510884,-2.2803574,-23.124363,18.160402
6.0146027,1.9166094,-5.693875,2.4864116,0.20510884,-2.2903748,-23.142342,18.102955
6.0134487,1.9108213,-5.1228933,2.6025255,0.28606892,-2.9525433,-23.914526,18.203453
6.0123057,1.9050167,-5.1228933,2.6025255,0.28606892,-2.963375,-23.929897,18.150509
6.0110703,1.8997797,-4.538063,2.717574,0.36276796,-3.755602,-24.421822,18.341938
6.009845,1.894527,-4.538063,2.717574,0.36276796,-3.7672157,-24.434704,18.29375
6.008533,1.8898548,-3.9404497,2.8091867,0.43840176,-4.3877716,-24.986462,18.284174
6.0072346,1.885182,-3.9404497,2.8091867,0.43840176,-4.400057,-24.99694,18.241035
6.005853,1.8810972,-3.3279226,2.8731027,0.5140355,-4.623823,-25.326115,18.260557
6.0044837,1.8770105,-3.3279226,2.8731027,0.5140355,-4.6367817,-25.334316,18.22259
6.003035,1.8735389,-2.7026124,2.9167783,0.59393036,-4.8994884,-25.651663,18.180521
6.001597,1.8700651,-2.7026124,2.9167783,0.59393036,-4.9130783,-25.657646,18.14798
6.0000796,1.8672155,-2.06878,2.9455404,0.6759557,-5.5020294,-25.747772,17.891178
5.99857,1.8643602,-2.06878,2.9455404,0.6759557,-5.516287,-25.751629,17.864157
5.9969845,1.8621408,-1.4317518,2.950867,0.76011163,-6.125019,-25.748672,17.3975
5.9954014,1.8599108,-1.4317518,2.950867,0.76011163,-6.139963,-25.750473,17.37608
5.993759,1.8583335,-0.80005,2.9253006,0.84533274,-6.5050087,-25.702414,16.924767
5.9921145,1.8567444,-0.80005,2.9253006,0.84533274,-6.5205135,-25.702204,16.909082
5.9904084,1.8557984,-0.17580502,2.8677762,0.9284234,-6.8191032,-25.55164,16.439472
5.988713,1.8548516,-0.17580502,2.8677762,0.9284234,-6.8350754,-25.549507,16.429567
5.9869623,1.8545406,0.4345915,2.7814898,1.0093834,-7.8523254,-25.74184,16.02312
5.985213,1.8542247,0.4345915,2.7814898,1.0093834,-7.8687954,-25.737835,16.018864
5.9834294,1.8545471,1.0332701,2.656854,1.0850173,-8.953384,-25.621895,15.311653
5.98164,1.8548666,1.0332701,2.656854,1.0850173,-8.970198,-25.616041,15.313065
5.9798326,1.8558255,1.6181003,2.4778895,1.1585205,-8.173149,-25.450413,14.927574
5.978021,1.856782,1.6181003,2.4778895,1.1585205,-8.190147,-25.44276,14.934679
5.9761944,1.8583664,2.1837556,2.2797503,1.2320237,-8.1642,-25.639261,14.664898
5.9743624,1.8599498,2.1837556,2.2797503,1.2320237,-8.181372,-25.6298,14.677572
5.9725194,1.8621458,2.7270405,2.080546,1.3002007,-9.218573,-25.848461,13.7619705
5.9706745,1.8643374,2.7270405,2.080546,1.3002007,-9.235857,-25.837215,13.780029
5.9688253,1.8671366,3.2500854,1.8547097,1.3630513,-9.1957035,-25.560871,12.888887
5.966984,1.8699179,3.2500854,1.8547097,1.3630513,-9.212926,-25.547863,12.912102
5.9651494,1.8732883,3.7454333,1.6033074,1.4237714,-9.388102,-25.49963,12.140877
5.963311,1.876659,3.7454333,1.6033074,1.4237714,-9.405277,-25.484783,12.169224
5.9615006,1.8805807,4.2088237,1.3380564,1.4770346,-9.72864,-25.597626,11.469793
5.9596853,1.8845068,4.2088237,1.3380564,1.4770346,-9.745581,-25.580997,11.502935
5.9579153,1.8889607,4.6413207,1.0515003,1.522841,-10.135589,-25.601122,10.760185
5.9561386,1.8934253,4.6413207,1.0515003,1.522841,-10.152147,-25.582697,10.79792
5.954428,1.8983967,5.0439906,0.73937786,1.5579947,-10.148925,-25.567553,10.059553
5.9527164,1.9033709,5.0439906,0.73937786,1.5579947,-10.164867,-25.54739,10.101604
5.9509807,1.90919,5.415768,0.41340694,1.5824958,-10.042152,-25.299255,9.504467
5.94945,1.9143254,5.415768,0.41340694,1.5824958,-10.056381,-25.278648,9.547823
5.9479313,1.920208,5.7513266,0.08530548,1.5942137,-10.065712,-25.193222,8.932003
5.9464045,1.9261366,5.7513266,0.08530548,1.5942137,-10.079893,-25.16956,8.981979
5.9449954,1.9324517,6.050666,-0.23640439,1.5974095,-9.456126,-24.665848,8.369694
5.9435897,1.9387783,6.050666,-0.23640439,1.5974095,-9.469169,-24.640606,8.422897
5.9423094,1.9454824,6.3084598,-0.54533106,1.5867568,-9.806662,-24.853546,7.9526024
5.941037,1.9521849,6.3084598,-0.54533106,1.5867568,-9.818452,-24.82671,8.008808
5.9399033,1.9591993,6.526839,-0.83614826,1.563321,-9.244769,-24.717422,7.3637466
5.9387536,1.96638,6.526839,-0.83614826,1.563321,-9.2554245,-24.688488,7.423771
5.9377956,1.9735347,6.7068686,-1.1099212,1.5281672,-8.751934,-24.315033,6.334362
5.936832,1.9808253,6.7068686,-1.1099212,1.5281672,-8.760858,-24.285404,6.395094
5.93602,1.9883648,6.85281,-1.3773026,1.4812957,-5.679855,-23.134378,5.9838295
5.935221,1.9959084,6.85281,-1.3773026,1.4812957,-5.687242,-23.10339,6.046419
5.9345803,2.0036163,6.941227,-1.5807681,1.4259019,-7.302075,-21.980026,3.14155
5.9339547,2.011328,6.941227,-1.5807681,1.4259019,-7.3078566,-21.947958,3.2052784
5.933486,2.0191092,6.962532,-1.737362,1.3470724,-7.532458,-21.637877,2.1394901
5.9330335,2.0269012,6.962532,-1.737362,1.3470724,-7.536641,-21.60503,2.2036057
5.9327617,2.0346942,6.923117,-1.8992822,1.2416111,-6.61499,-21.222677,0.8503666
5.932508,2.0424805,6.923117,-1.8992822,1.2416111,-6.6173353,-21.189468,0.9142113
5.9324517,2.0502472,6.8432226,-2.0825076,1.1191057,-3.8070607,-20.672808,-0.42028046
5.932414,2.0580149,6.8432226,-2.0825076,1.1191057,-3.807412,-20.63934,-0.35678673
5.9325833,2.0657892,6.71326,-2.2156658,0.9795561,-3.5281193,-19.365767,-2.3952732
5.932767,2.073371,6.71326,-2.2156658,0.9795561,-3.526421,-19.33279,-2.3334465
5.933169,2.0808845,6.5215125,-2.2998216,0.81017905,-3.9584546,-17.552532,-4.4507732
5.9335866,2.088359,6.5215125,-2.2998216,0.81017905,-3.9545922,-17.519796,-4.389909
5.9342318,2.0955925,6.2509356,-2.3861082,0.6141704,-2.7132163,-15.922571,-5.839177
5.934895,2.1028228,6.2509356,-2.3861082,0.6141704,-2.7070851,-15.890786,-5.7803087
5.9357815,2.1096892,5.8951373,-2.4628072,0.40537855,-0.77873516,-14.57764,-6.739307
5.936683,2.1165442,5.8951373,-2.4628072,0.40537855,-0.77039146,-14.547483,-6.6834173
5.9378004,2.122943,5.455183,-2.4798512,0.19232565,-0.9563732,-13.121545,-7.938176
5.9389305,2.1293297,5.455183,-2.4798512,0.19232565,-0.94590855,-13.093552,-7.8859367
5.940259,2.1351495,4.932138,-2.4532197,-0.030314613,-1.2975187,-11.622478,-8.972798
5.941597,2.1409516,4.932138,-2.4532197,-0.030314613,-1.2851181,-11.597307,-8.925067
5.9431214,2.1461082,4.3345246,-2.413805,-0.2582812,-1.0267715,-10.45033,-9.528591
5.9446554,2.1512585,4.3345246,-2.413805,-0.2582812,-1.0125351,-10.428433,-9.485818
5.946357,2.1556745,3.6729956,-2.3637376,-0.48411727,-0.76210785,-9.706609,-9.707108
5.948069,2.160093,3.6729956,-2.3637376,-0.48411727,-0.7462015,-9.688496,-9.669853
5.9499326,2.1637223,2.9592683,-2.2966259,-0.7056923,-0.79112625,-9.286829,-9.537936
5.9518056,2.1673532,2.9592683,-2.2966259,-0.7056923,-0.7737026,-9.272884,-9.506594
5.9538226,2.1701674,2.2082567,-2.2156658,-0.921941,-0.89379597,-8.995311,-9.170071
5.9558387,2.1729715,2.2082567,-2.2156658,-0.921941,-0.87501526,-8.985822,-9.144915
5.9580097,2.174963,1.4359401,-2.128314,-1.1264718,-0.9984312,-8.904319,-8.531976
5.9601316,2.1769037,1.4359401,-2.128314,-1.1264718,-0.9786396,-8.899488,-8.513307
5.9623394,2.1779985,0.654036,-2.0335054,-1.3107625,-1.0250683,-8.923251,-7.66302
5.9645753,2.1791039,0.654036,-2.0335054,-1.3107625,-1.0041838,-8.923032,-7.6506004
5.9668956,2.179369,-0.1257376,-1.9333707,-1.4769437,-1.1548777,-9.224343,-6.4090815
5.9692063,2.1796312,-0.1257376,-1.9333707,-1.4769437,-1.133256,-9.228722,-6.4030414
5.9715934,2.17907,-0.89272803,-1.8321705,-1.6218197,-2.1643543,-9.496231,-5.5077877
5.9754715,2.178156,-0.89272803,-1.8321705,-1.6218197,-2.1280103,-9.510668,-5.5081825
5.9763827,2.177646,-1.6373478,-1.7480147,-1.7443252,-1.5544324,-10.25304,-3.647869
5.978803,2.1762917,-1.6373478,-1.7480147,-1.7443252,-1.5317187,-10.266169,-3.654233
5.9812436,2.1741762,-2.346814,-1.6627935,-1.8391336,-1.6237245,-11.528342,-1.5739756
5.9836826,2.1720612,-2.346814,-1.6627935,-1.8391336,-1.6007967,-11.545462,-1.5863276
5.986126,2.1692224,-3.0019517,-1.5573323,-1.9062454,-2.2098854,-12.634182,0.24394798
5.988564,2.1663907,-3.0019517,-1.5573323,-1.9062454,-2.186939,-12.654951,0.22584057
5.9909887,2.1629102,-3.5910428,-1.4508059,-1.953117,-3.1792426,-13.622329,1.7827024
5.9934106,2.1594353,-3.5910428,-1.4508059,-1.953117,-3.156413,-13.646246,1.7592983
5.9958005,2.1553836,-4.115153,-1.3528016,-1.9808139,-3.2152696,-14.33856,3.3257055
5.9981904,2.1513343,-4.115153,-1.3528016,-1.9808139,-3.1927087,-14.365136,3.2974424
6.000536,2.1467881,-4.574282,-1.2601235,-1.9850749,-3.721218,-15.164954,4.70632
6.0028796,2.142249,-4.574282,-1.2601235,-1.9850749,-3.699068,-15.193623,4.6737633
6.0051646,2.137278,-4.96843,-1.177033,-1.9701612,-3.0980537,-16.014261,6.313431
6.007448,2.1323152,-4.96843,-1.177033,-1.9701612,-3.0764408,-16.044563,6.277012
6.0096593,2.126989,-5.2986617,-1.0832896,-1.9382032,-3.069864,-16.789787,7.626005
6.0118647,2.1216817,-5.2986617,-1.0832896,-1.9382032,-3.0489657,-16.821194,7.5862885
6.01398,2.1160798,-5.5671086,-0.9767632,-1.8945274,-3.1198845,-17.538359,8.851076
6.0160985,2.1104753,-5.5671086,-0.9767632,-1.8945274,-3.0997796,-17.570538,8.808378
6.01811,2.104653,-5.7716393,-0.86704093,-1.8380684,-2.807747,-18.22577,10.05163
6.0201206,2.09884,-5.7716393,-0.86704093,-1.8380684,-2.788649,-18.258183,10.00663
6.0220203,2.092855,-5.91545,-0.75518817,-1.767761,-3.0339556,-18.831978,11.147364
6.0239196,2.0868793,-5.91545,-0.75518817,-1.767761,-3.0158963,-18.864344,11.100414
6.0257235,2.080731,-5.9953446,-0.6465312,-1.6899966,-3.2860384,-19.270496,11.937527
6.0274935,2.0747068,-5.9953446,-0.6465312,-1.6899966,-3.2691956,-19.302193,11.889545
6.0291553,2.0686107,-6.019846,-0.5506574,-1.606906,-2.8319864,-19.58268,13.047283
6.030821,2.0625114,-6.019846,-0.5506574,-1.606906,-2.8161182,-19.613882,12.998093
6.032351,2.0564594,-5.992149,-0.4515878,-1.5131627,-2.6626768,-19.969881,14.088572
6.0338874,2.0503922,-5.992149,-0.4515878,-1.5131627,-2.6480255,-20.000042,14.039064
6.0352893,2.0443733,-5.9122543,-0.33866978,-1.4119626,-2.8932333,-20.359795,15.100534
6.036699,2.038333,-5.9122543,-0.33866978,-1.4119626,-2.8797836,-20.388947,15.050707
6.0379453,2.0324674,-5.782292,-0.21296857,-1.3033056,-3.303628,-20.799768,16.031488
6.0392,2.0265741,-5.782292,-0.21296857,-1.3033056,-3.2916527,-20.827368,15.982386
6.040295,2.0208468,-5.601197,-0.08407157,-1.1861266,-3.2907734,-21.212765,17.011732
6.040295,2.0208468,-5.601197,-0.08407157,-1.1861266,-3.2907734,-21.212765,17.011732
6.043371,2.0047011,-5.3689694,0.04908649,-1.0668169,-3.146452,-21.72582,17.957554
6.043577,2.0034952,-5.3689694,0.04908649,-1.0668169,-3.1444874,-21.7311,17.947296
6.0444317,1.9976724,-5.0845437,0.18863614,-0.94111574,-3.208147,-22.12481,19.00364
6.045166,1.9926895,-5.0845437,0.18863614,-0.94111574,-3.201126,-22.145988,18.960934
6.0457597,1.9878075,-4.746855,0.33564264,-0.813284,-3.3630428,-22.793535,20.09679
6.0463557,1.982931,-4.746855,0.33564264,-0.813284,-3.357338,-22.813583,20.054657
6.0467906,1.9783666,-4.358033,0.47945333,-0.6875828,-3.9708786,-23.712963,21.188158
6.047232,1.9737619,-4.358033,0.47945333,-0.6875828,-3.9666576,-23.73127,21.148085
6.0475197,1.9694275,-3.9127526,0.60408926,-0.55975103,-3.9495468,-24.375343,22.101366
6.0479164,1.9635317,-3.9127526,0.60408926,-0.55975103,-3.9457493,-24.397926,22.049662
6.04797,1.961932,-3.4174047,0.7106157,-0.4329846,-3.4903336,-25.131725,23.165613
6.048159,1.9563934,-3.4174047,0.7106157,-0.4329846,-3.4885273,-25.152195,23.116732
6.0481443,1.9548671,-2.870924,0.8150116,-0.30728337,-2.7416763,-25.401855,23.639486
6.048117,1.9518517,-2.870924,0.8150116,-0.30728337,-2.7419338,-25.412569,23.61269
6.0479336,1.949324,-2.2839634,0.933256,-0.18264744,-3.4236488,-25.986177,23.8247
6.0477524,1.9467958,-2.2839634,0.933256,-0.18264744,-3.4253826,-25.994703,23.80206
6.047416,1.944868,-1.6639794,1.0515003,-0.060142018,-4.1277065,-27.049397,23.985723
6.047082,1.9429415,-1.6639794,1.0515003,-0.060142018,-4.1309032,-27.055403,23.968287
6.046611,1.9416665,-1.0067112,1.1377867,0.05703707,-4.470602,-27.820173,23.549507
6.046133,1.9403702,-1.0067112,1.1377867,0.05703707,-4.4751644,-27.823631,23.537544
6.0455494,1.9397916,-0.3110936,1.1878542,0.16569404,-4.973959,-28.149982,22.52634
6.044963,1.9392086,-0.3110936,1.1878542,0.16569404,-4.9795685,-28.150719,22.520645
6.04427,1.9393626,0.42180833,1.207029,0.2722205,-5.31658,-27.985882,21.209408
6.043576,1.9395157,0.42180833,1.207029,0.2722205,-5.323227,-27.98385,21.210201
6.0427856,1.940431,1.1717545,1.1942458,0.38087747,-5.555834,-27.658142,19.8099
6.041994,1.941347,1.1717545,1.1942458,0.38087747,-5.5633926,-27.653248,19.817383
6.0411186,1.9430294,1.9238312,1.154831,0.4874039,-5.4568405,-27.271994,18.203566
6.040238,1.9447186,1.9238312,1.154831,0.4874039,-5.465248,-27.264172,18.217821
6.0392733,1.9471935,2.6620595,1.0962415,0.5896693,-5.52713,-26.67399,16.4146
6.0383234,1.9496264,2.6620595,1.0962415,0.5896693,-5.536213,-26.663328,16.435364
6.0373006,1.9528023,3.3715255,1.0238035,0.6919347,-5.5651245,-26.199686,14.652576
6.03627,1.9559942,3.3715255,1.0238035,0.6919347,-5.574959,-26.185999,14.679907
6.035176,1.9598832,4.0447726,0.9449739,0.7931348,-5.4992065,-25.748165,13.257589
6.0340743,1.9637887,4.0447726,0.9449739,0.7931348,-5.5097046,-25.731503,13.291002
6.032914,1.9683496,4.6796703,0.8618833,0.89326966,-5.5590754,-25.501465,12.252661
6.031751,1.9729114,4.6796703,0.8618833,0.89326966,-5.5701637,-25.481922,12.291607
6.030525,1.9781057,5.2687616,0.7787926,0.9934045,-5.672824,-25.239395,11.392609
6.029313,1.9832339,5.2687616,0.7787926,0.9934045,-5.684372,-25.217192,11.436226
6.028035,1.989,5.814177,0.68931043,1.0892783,-5.8641376,-25.048487,10.589758
6.026758,1.9947563,5.814177,0.68931043,1.0892783,-5.876292,-25.023182,10.638466
6.0254326,2.0010757,6.3148513,0.59024084,1.180891,-5.726102,-24.952158,9.695847
6.0241094,2.0073855,6.3148513,0.59024084,1.180891,-5.738695,-24.923925,9.748926
6.022755,2.0141835,6.7675886,0.4773228,1.2682427,-5.406809,-24.941185,9.02066
6.021399,2.0209975,6.7675886,0.4773228,1.2682427,-5.419699,-24.910084,9.077587
6.020032,2.0282648,7.1745195,0.3516216,1.3406807,-4.872444,-24.895823,8.0224285
6.0186696,2.035521,7.1745195,0.3516216,1.3406807,-4.885383,-24.86202,8.082602
6.017321,2.043192,7.5345793,0.21739827,1.3928787,-4.443293,-24.471687,6.699934
6.015976,2.0508666,7.5345793,0.21739827,1.3928787,-4.4560604,-24.435184,6.763075
6.014672,2.058899,7.844571,0.0789139,1.4227061,-4.0757923,-23.630562,5.191324
6.013372,2.0669358,7.844571,0.0789139,1.4227061,-4.088117,-23.591545,5.2569046
6.0121427,2.075268,8.100235,-0.063831545,1.4280324,-3.9034498,-22.425533,3.490715
6.010919,2.0836046,8.100235,-0.063831545,1.4280324,-3.9150481,-22.384226,3.5581608
6.009785,2.092189,8.293047,-0.20338118,1.4109882,-3.753412,-20.928825,1.8125916
6.0086613,2.1007607,8.293047,-0.20338118,1.4109882,-3.7640593,-20.88549,1.8813248
6.007644,2.1095455,8.418749,-0.33653924,1.3715734,-3.840732,-19.198355,0.36657524
6.0066395,2.1182995,8.418749,-0.33653924,1.3715734,-3.8502378,-19.153217,0.4361267
6.0057607,2.1271763,8.464555,-0.46117517,1.3119186,-3.930384,-17.282768,-0.9827595
6.004895,2.1360214,8.464555,-0.46117517,1.3119186,-3.9385734,-17.23627,-0.9131298
6.004162,2.1450882,8.426206,-0.57941955,1.228828,-4.0269136,-15.292126,-2.2066689
6.0034657,2.1538298,8.426206,-0.57941955,1.228828,-4.0335007,-15.245325,-2.1384764
6.002928,2.1624484,8.295177,-0.69020706,1.1254973,-3.4352484,-13.455964,-3.3164272
6.0023923,2.1712003,8.295177,-0.69020706,1.1254973,-3.440309,-13.408304,-3.2487612
6.002026,2.179757,8.069342,-0.79140717,1.0115141,-3.333642,-11.541898,-4.312841
6.0016704,2.1883154,8.069342,-0.79140717,1.0115141,-3.3370023,-11.494544,-4.2472405
6.001478,2.1965559,7.7423058,-0.88195467,0.8858128,-2.6014056,-9.9595585,-4.782777
6.0012965,2.204797,7.7423058,-0.88195467,0.8858128,-2.6031227,-9.913274,-4.7201214
6.0012774,2.2126133,7.321526,-0.95332736,0.74945897,-2.359095,-9.098302,-5.00557
6.0012684,2.2204297,7.321526,-0.95332736,0.74945897,-2.359179,-9.053825,-4.9465857
6.0014143,2.2277274,6.821917,-1.0065906,0.60671353,-1.998673,-8.044964,-5.332101
6.001569,2.235039,6.821917,-1.0065906,0.60671353,-1.9972091,-8.002892,-5.27727
6.001874,2.2417536,6.2509356,-1.0460054,0.4575765,-1.6495619,-6.9874167,-5.8493986
6.002187,2.2484741,6.2509356,-1.0460054,0.4575765,-1.6466045,-6.9484167,-5.799238
6.0026417,2.2545173,5.617103,-1.0715717,0.29991737,-1.2257109,-6.1616445,-6.113181
6.003105,2.2605836,5.617103,-1.0715717,0.29991737,-1.2213292,-6.126249,-6.068026
6.0037036,2.2659187,4.9257464,-1.0907465,0.13373612,-0.42079353,-5.597295,-6.1718063
6.0043073,2.2712522,4.9257464,-1.0907465,0.13373612,-0.41508436,-5.566136,-6.1320925
6.0050387,2.2758129,4.186453,-1.0864854,-0.03457567,-0.23577881,-5.343432,-6.054799
6.0057745,2.2803717,4.186453,-1.0864854,-0.03457567,-0.2288189,-5.316911,-6.0207143
6.006633,2.2841206,3.4098752,-1.0577233,-0.20608325,-0.5080004,-4.917208,-6.011483
6.0074897,2.2878532,3.4098752,-1.0577233,-0.20608325,-0.49988604,-4.895773,-5.983296
6.0084534,2.29075,2.6098616,-1.0129821,-0.3754603,-0.73018456,-4.764731,-5.7885695
6.009418,2.2936456,2.6098616,-1.0129821,-0.3754603,-0.72104216,-4.7485476,-5.7662773
6.010479,2.2956805,1.7938689,-0.95758843,-0.5373805,-1.3191166,-4.723525,-5.4435034
6.011541,2.2977147,1.7938689,-0.95758843,-0.5373805,-1.3090544,-4.712826,-5.427223
6.0126762,2.2988884,0.9746806,-0.8979336,-0.68651754,-1.3940597,-4.6980824,-4.9189315
6.0138116,2.3000615,0.9746806,-0.8979336,-0.68651754,-1.3832932,-4.6928997,-4.9086466
6.0150104,2.3003821,0.1618838,-0.835083,-0.82180613,-1.6735883,-4.8320704,-4.123777
6.016209,2.3007033,0.1618838,-0.835083,-0.82180613,-1.6622124,-4.8323636,-4.11943
6.017454,2.3001893,-0.6370645,-0.7658408,-0.9379199,-2.066986,-5.192362,-3.2542171
6.0186996,2.299675,-0.6370645,-0.7658408,-0.9379199,-2.0551555,-5.1980104,-3.2557223
6.0199747,2.298355,-1.4136423,-0.69659865,-1.0359243,-2.4931533,-5.7642508,-2.0849507
6.0212536,2.2970326,-1.4136423,-0.69659865,-1.0359243,-2.4810011,-5.7750435,-2.0921764
6.0225515,2.2949438,-2.1561317,-0.63268274,-1.1126233,-2.9379249,-6.4610615,-0.70662785
6.0238514,2.2928543,-2.1561317,-0.63268274,-1.1126233,-2.9255657,-6.476671,-0.7193546
6.0251517,2.290049,-2.8549452,-0.5751585,-1.1648213,-3.1238844,-7.272463,0.79025936
6.0264554,2.28724,-2.8549452,-0.5751585,-1.1648213,-3.111478,-7.2925053,0.77227116
6.027753,2.2837634,-3.5004954,-0.52083,-1.2010403,-3.4486835,-8.140244,2.3966074
6.0290513,2.2802887,-3.5004954,-0.52083,-1.2010403,-3.4363198,-8.16428,2.373641
6.0303226,2.276178,-4.0885215,-0.46863204,-1.220215,-3.812069,-9.154581,3.9452467
6.0315943,2.2720733,-4.0885215,-0.46863204,-1.220215,-3.7999485,-9.182259,3.9174337
6.0328236,2.2673795,-4.6136966,-0.42069513,-1.2191497,-4.2431335,-10.175814,5.5179663
6.0340533,2.2626925,-4.6136966,-0.42069513,-1.2191497,-4.2314053,-10.206704,5.485531
6.035234,2.2575138,-5.073891,-0.38128036,-1.2010403,-4.2488794,-11.317714,7.0868692
6.036414,2.2523475,-5.073891,-0.38128036,-1.2010403,-4.2376165,-11.3510685,7.0504627
6.0375433,2.2467833,-5.460582,-0.34612662,-1.1701475,-4.1167088,-12.516581,8.715515
6.0386834,2.2411823,-5.460582,-0.34612662,-1.1701475,-4.1058273,-12.55204,8.675405
6.0397573,2.235294,-5.7769656,-0.30671185,-1.1264718,-4.1003613,-13.680604,10.198635
6.040829,2.2294312,-5.7769656,-0.30671185,-1.1264718,-4.0901203,-13.717009,10.156012
6.0418415,2.2232857,-6.0219765,-0.26516652,-1.0732086,-4.046932,-14.698003,11.652782
6.042852,2.2171664,-6.0219765,-0.26516652,-1.0732086,-4.037276,-14.735252,11.607641
6.043789,2.2108517,-6.19881,-0.21829489,-1.0114232,-3.9373364,-15.730887,12.863104
6.0447273,2.2045512,-6.19881,-0.21829489,-1.0114232,-3.9283695,-15.768468,12.815985
6.0455766,2.1981409,-6.3085327,-0.16609693,-0.93898517,-3.4031029,-16.644173,14.208948
6.046429,2.191726,-6.3085327,-0.16609693,-0.93898517,-3.3949432,-16.68163,14.160307
6.0471816,2.1852608,-6.357535,-0.1011158,-0.86015564,-3.2153635,-17.671757,15.169142
6.047937,2.1787972,-6.357535,-0.1011158,-0.86015564,-3.2081327,-17.708662,15.119474
6.0485787,2.1723413,-6.346882,-0.022286229,-0.77280396,-3.3504372,-18.424957,15.936195
6.0492234,2.16588,-6.346882,-0.022286229,-0.77280396,-3.344264,-18.461006,15.885923
6.049751,2.1594956,-6.278705,0.059739135,-0.68438697,-3.3344288,-19.013247,16.587656
6.0502815,2.1530993,-6.278705,0.059739135,-0.68438697,-3.3293457,-19.048092,16.537289
6.050692,2.1468325,-6.1583304,0.14069924,-0.59170896,-3.1051512,-19.603653,17.186691
6.0511055,2.1405535,-6.1583304,0.14069924,-0.59170896,-3.1011906,-19.637033,17.136679
6.0513945,2.134451,-5.9900184,0.2259204,-0.49583519,-2.9930754,-20.085548,17.743725
6.051687,2.128336,-5.9900184,0.2259204,-0.49583519,-2.990282,-20.117245,17.694479
6.051849,2.122436,-5.7801614,0.32179418,-0.39889613,-3.1371708,-20.597422,18.115894
6.052014,2.1165247,-5.7801614,0.32179418,-0.39889613,-3.1355848,-20.62727,18.06777
6.052044,2.1108623,-5.528759,0.42405957,-0.29876125,-3.6859665,-21.191652,18.375725
6.0520773,2.1052053,-5.528759,0.42405957,-0.29876125,-3.685646,-21.219448,18.329208
6.0519767,2.0998216,-5.2411375,0.5241944,-0.1986264,-3.854206,-21.724232,18.720392
6.0518785,2.0944324,-5.2411375,0.5241944,-0.1986264,-3.8551416,-21.749971,18.675646
6.0516496,2.0892813,-4.9162316,0.6126114,-0.09849154,-4.14464,-22.5498,19.044405
6.051427,2.0842104,-4.9162316,0.6126114,-0.09849154,-4.1467724,-22.573326,19.001911
6.0510817,2.0795438,-4.554042,0.695702,0.0037738485,-4.6528616,-23.14996,19.091843
6.0507383,2.0748625,-4.554042,0.695702,0.0037738485,-4.656147,-23.17102,19.052252
6.0502763,2.0705523,-4.155633,0.7628137,0.10284344,-4.6318417,-23.625706,19.05389
6.049816,2.0662284,-4.155633,0.7628137,0.10284344,-4.6362534,-23.644543,19.017017
6.049248,2.062335,-3.7252662,0.8150116,0.19765198,-3.9856758,-23.914845,18.916542
6.0486856,2.0584602,-3.7252662,0.8150116,0.19765198,-3.9910564,-23.931149,18.883194
6.0480146,2.0550318,-3.2672024,0.8736012,0.2892647,-3.3654118,-23.710482,18.441671
6.047346,2.0516062,-3.2672024,0.8736012,0.2892647,-3.3717995,-23.724337,18.411919
6.046566,2.0486255,-2.7963555,0.9513655,0.37448588,-4.289068,-24.28177,17.930899
6.04579,2.0456524,-2.7963555,0.9513655,0.37448588,-4.2964926,-24.293215,17.904808
6.0449176,2.0431566,-2.314856,1.0238035,0.4490544,-4.5203094,-24.742832,17.509132
6.04405,2.040669,-2.314856,1.0238035,0.4490544,-4.5286007,-24.751831,17.487034
6.043098,2.0386572,-1.8216386,1.0674793,0.51616603,-4.4036264,-25.132032,16.956514
6.0421515,2.036652,-1.8216386,1.0674793,0.51616603,-4.4126797,-25.138678,16.938406
6.041135,2.035155,-1.315638,1.0962415,0.58221245,-4.4750633,-25.401522,16.196709
6.040119,2.0336568,-1.315638,1.0962415,0.58221245,-4.484761,-25.40578,16.18284
6.035622,2.030622,-0.27913567,1.1271341,0.7036526,-4.4414997,-25.432999,14.624613
6.035622,2.030622,-0.27913567,1.1271341,0.7036526,-4.4414997,-25.432999,14.624613
6.035622,2.030622,-0.27913567,1.1271341,0.7036526,-4.4414997,-25.432999,14.624613
6.035622,2.030622,-0.27913567,1.1271341,0.7036526,-4.4414997,-25.432999,14.624613
6.0339937,2.0307074,0.23538706,1.1239383,0.7526548,-4.2463436,-25.290237,13.665911
6.0331435,2.0307517,0.23538706,1.1239383,0.7526548,-4.254447,-25.288202,13.665377
6.032009,2.0312836,0.7371266,1.1154162,0.79633063,-4.0449953,-25.10151,12.797199
6.0307946,2.031853,0.7371266,1.1154162,0.79633063,-4.05657,-25.096424,12.80073
6.029368,2.0330615,1.2175609,1.1079594,0.83468014,-3.931301,-24.839157,11.933203
6.0282764,2.0339851,1.2175609,1.1079594,0.83468014,-3.9416876,-24.832806,11.939854
6.0267425,2.0358176,1.6756246,1.0994372,0.86663806,-4.0951595,-24.673145,11.024811
6.0255785,2.0372074,1.6756246,1.0994372,0.86663806,-4.1062346,-24.6646,11.035307
6.0242515,2.0392194,2.104926,1.0834583,0.8922044,-4.0518246,-24.413586,10.26082
6.022767,2.041469,2.104926,1.0834583,0.8922044,-4.065942,-24.400553,10.278191
6.021861,2.0431137,2.5012045,1.0642835,0.91137916,-4.1703224,-24.027489,9.6063385
6.0206037,2.045395,2.5012045,1.0642835,0.91137916,-4.1822753,-24.014748,9.624172
6.019321,2.048093,2.8665903,1.0365866,0.9230971,-4.2710724,-23.492516,8.965502
6.0180426,2.0507803,2.8665903,1.0365866,0.9230971,-4.2832165,-23.477839,8.986637
6.016756,2.0538588,3.200018,0.99823713,0.9252276,-4.242757,-23.049557,8.393301
6.0154643,2.0569468,3.200018,0.99823713,0.9252276,-4.2550178,-23.032936,8.417677
6.014201,2.0603414,3.494031,0.9513655,0.9167055,-4.348404,-22.483408,7.8795433
6.012934,2.0637436,3.494031,0.9513655,0.9167055,-4.360422,-22.465263,7.906437
6.01171,2.0674186,3.751825,0.8938412,0.89753073,-4.477369,-22.091537,7.4232063
6.0104904,2.0710795,3.751825,0.8938412,0.89753073,-4.488934,-22.072117,7.452141
6.0093246,2.074977,3.9691389,0.82992536,0.8677033,-4.4999804,-21.773903,6.6785717
6.008157,2.0788798,3.9691389,0.82992536,0.8677033,-4.5110416,-21.753256,6.7093887
6.0070596,2.0829701,4.1406465,0.75748736,0.82509273,-4.401718,-21.387012,6.037857
6.0059614,2.0870614,4.1406465,0.75748736,0.82509273,-4.4121113,-21.365396,6.0701275
6.0049534,2.0912945,4.263152,0.675462,0.76756847,-4.249274,-20.888288,4.954361
6.003945,2.0955248,4.263152,0.675462,0.76756847,-4.2588115,-20.865952,4.987671
6.0030403,2.0998566,4.33559,0.587045,0.69513047,-4.0470986,-20.124962,3.5996933
6.0021367,2.1041853,4.33559,0.587045,0.69513047,-4.0556464,-20.102102,3.6337318
6.001358,2.108554,4.352634,0.49117124,0.6056483,-3.881043,-19.188557,2.1789665
6.0005794,2.1129234,4.352634,0.49117124,0.6056483,-3.888404,-19.165497,2.2132912
5.9999475,2.1172671,4.3078933,0.3867753,0.49699128,-3.559187,-18.118038,0.8445015
5.9993143,2.1216207,4.3078933,0.3867753,0.49699128,-3.5651698,-18.095104,0.8786812
5.9988494,2.1258848,4.199236,0.27811834,0.3680943,-3.4019675,-16.942795,-0.5386028
5.9983845,2.130145,4.199236,0.27811834,0.3680943,-3.4063544,-16.920427,-0.50512886
5.998107,2.1342578,4.0224023,0.16306978,0.22215307,-3.3993979,-15.807348,-1.5261145
5.99783,2.1383622,4.0224023,0.16306978,0.22215307,-3.4020143,-15.7859335,-1.4938011
5.997754,2.1422486,3.7784567,0.043760166,0.062363394,-3.2830226,-14.760403,-2.3488731
5.997678,2.1461308,3.7784567,0.043760166,0.062363394,-3.283739,-14.740344,-2.3181887
5.997817,2.14972,3.4727256,-0.07981051,-0.11127471,-3.1483521,-13.869839,-2.9072857
5.997956,2.1533055,3.4727256,-0.07981051,-0.11127471,-3.1470408,-13.851587,-2.878769
5.998315,2.1565394,3.1062748,-0.20018539,-0.29343495,-2.9425383,-13.002394,-3.2884903
5.9986734,2.15977,3.1062748,-0.20018539,-0.29343495,-2.9391518,-12.98631,-3.2625456
5.9992557,2.1625776,2.6801689,-0.31842974,-0.48411727,-2.646348,-12.29293,-3.4790406
5.9998374,2.165382,2.6801689,-0.31842974,-0.48411727,-2.640851,-12.2794485,-3.4561777
6.0006437,2.167714,2.2039957,-0.43241304,-0.6811912,-2.1879106,-11.746981,-3.48458
6.0014496,2.1700435,2.2039957,-0.43241304,-0.6811912,-2.1802964,-11.73641,-3.4651437
6.0024805,2.171846,1.6841468,-0.5378742,-0.885722,-1.8976116,-11.379557,-3.2675285
6.0035105,2.1736465,1.6841468,-0.5378742,-0.885722,-1.8878717,-11.372223,-3.251916
6.004762,2.174878,1.1248829,-0.6316175,-1.0923833,-1.7036495,-11.128988,-2.957878
6.006014,2.1761093,1.1248829,-0.6316175,-1.0923833,-1.6918058,-11.125141,-2.9463725
6.00748,2.176742,0.5400527,-0.7179039,-1.2979794,-1.5390601,-10.966953,-2.4029055
6.008948,2.177375,0.5400527,-0.7179039,-1.2979794,-1.5251608,-10.966761,-2.3957424
6.010685,2.1773925,-0.060756464,-0.7935377,-1.4939879,-2.1072533,-10.874687,-1.8231573
6.012306,2.1774092,-0.060756464,-0.7935377,-1.4939879,-2.091887,-10.878116,-1.8205881
6.014174,2.1768064,-0.6647614,-0.8595841,-1.6729524,-2.6056833,-10.894978,-1.0754986
6.016042,2.1762047,-0.6647614,-0.8595841,-1.6729524,-2.5879579,-10.902232,-1.0774221
6.0180745,2.1749845,-1.2602443,-0.9160431,-1.8327421,-2.7410476,-11.233968,0.19933319
6.020107,2.1737657,-1.2602443,-0.9160431,-1.8327421,-2.721742,-11.244836,0.19276333
6.0222793,2.171935,-1.835487,-0.9543926,-1.969096,-3.4480867,-12.063705,1.5510426
6.0244517,2.1701064,-1.835487,-0.9543926,-1.969096,-3.4274235,-12.078057,1.5397882
6.02674,2.1677039,-2.3734455,-0.9788937,-2.0820138,-4.449525,-12.789989,2.6829243
6.029031,2.1653013,-2.3734455,-0.9788937,-2.0820138,-4.4277105,-12.807535,2.667183
6.0314074,2.1623943,-2.8592062,-1.0097864,-2.1693656,-4.9270096,-13.455149,3.92599
6.033789,2.1594837,-2.8592062,-1.0097864,-2.1693656,-4.9043016,-13.475419,3.9061766
6.036234,2.1561394,-3.2885077,-1.052397,-2.227955,-4.7852154,-14.144442,5.1566057
6.0386825,2.1527948,-3.2885077,-1.052397,-2.227955,-4.7618446,-14.1669235,5.133192
