Pitch,Roll,Gyro_X,Gyro_Y,Gyro_Z,Accel_X,Accel_Y,Accel_Z
6.1526,4.4274898,-2.2072644,-0.3951288,-1.6974535,-4.460814,1.9026132,5.2081165
6.151129,4.425144,-2.2647886,-0.4132383,-1.6963882,-4.3554525,1.8943374,5.033211
6.1496816,4.422831,-2.2647886,-0.4132383,-1.6963882,-4.369568,1.8861148,5.0543017
6.1482406,4.420461,-2.3212476,-0.4249562,-1.6985188,-4.2782774,1.8776724,4.8747897
6.1468,4.418087,-2.3212476,-0.4249562,-1.6985188,-4.29232,1.869148,4.8963957
6.145361,4.4156494,-2.378772,-0.4334783,-1.7017145,-4.2776203,1.8508,4.813217
6.1439233,4.41321,-2.378772,-0.4334783,-1.7017145,-4.2916293,1.8419533,4.835369
6.142488,4.410709,-2.435231,-0.4430657,-1.703845,-4.1715384,1.8280706,4.6904707
6.1410594,4.4082136,-2.435231,-0.4430657,-1.703845,-4.185454,1.8189275,4.7130814
6.139635,4.405651,-2.4938204,-0.4515878,-1.7027798,-4.189752,1.8190966,4.6261506
6.1382117,4.4030843,-2.4938204,-0.4515878,-1.7027798,-4.203611,1.8095996,4.649358
6.136795,4.400461,-2.5513449,-0.45904467,-1.7006493,-3.977984,1.7136767,4.567711
6.135382,4.397839,-2.5513449,-0.45904467,-1.7006493,-3.9917374,1.7038729,4.591367
6.133976,4.395155,-2.6067386,-0.46543625,-1.6942577,-3.780366,1.6267731,4.4910603
6.132575,4.3924737,-2.6067386,-0.46543625,-1.6942577,-3.7939963,1.6166472,4.515185
6.1311827,4.389737,-2.6600018,-0.46756676,-1.6846703,-3.6207967,1.433898,4.554161
6.129791,4.3869953,-2.6600018,-0.46756676,-1.6846703,-3.6343298,1.4234364,4.5787745
6.1284056,4.384205,-2.709004,-0.4633057,-1.6782787,-3.4610548,1.269093,4.517606
6.1270237,4.3814154,-2.709004,-0.4633057,-1.6782787,-3.4744864,1.2583232,4.542581
6.125648,4.378585,-2.7516146,-0.45584887,-1.6697567,-3.2723775,0.9887755,4.510439
6.124275,4.375752,-2.7516146,-0.45584887,-1.6697567,-3.2857203,0.97770834,4.535734
6.122907,4.3728876,-2.7878335,-0.44093516,-1.6622998,-3.1601443,0.67436767,4.446354
6.1215396,4.370015,-2.7878335,-0.44093516,-1.6622998,-3.1734285,0.66300607,4.471924
6.120172,4.3671193,-2.8165956,-0.42282566,-1.6580387,-3.0047512,0.45515418,4.4258375
6.120172,4.3671193,-2.8165956,-0.42282566,-1.6580387,-3.0047512,0.45515418,4.4258375
6.1173096,4.361034,-2.8379009,-0.40258563,-1.6601692,-2.9271917,0.2965834,4.2834663
6.11601,4.35826,-2.8379009,-0.40258563,-1.6601692,-2.9398012,0.2852974,4.307991
6.1146593,4.355379,-2.8549452,-0.37595403,-1.6622998,-2.895443,0.16813993,4.1754074
6.1131864,4.3522286,-2.8549452,-0.37595403,-1.6622998,-2.90973,0.15512943,4.203166
6.110752,4.347041,-2.8677282,-0.34506136,-1.6676261,-2.909391,-0.00060915947,4.0667815
6.1103535,4.346189,-2.8677282,-0.34506136,-1.6676261,-2.9132576,-0.004193306,4.074256
6.1090684,4.3434644,-2.8794463,-0.31523395,-1.6772134,-2.9640193,-0.16894865,3.8730621
6.1076922,4.3405395,-2.8794463,-0.31523395,-1.6772134,-2.9773517,-0.18140388,3.89863
6.1062646,4.337532,-2.8932946,-0.28327602,-1.6868008,-2.9576654,-0.34755278,3.8626084
6.104827,4.334496,-2.8932946,-0.28327602,-1.6868008,-2.971589,-0.36068368,3.889035
6.103398,4.331506,-2.9060779,-0.25238335,-1.6985188,-3.0093713,-0.43598413,3.8144455
6.101959,4.32849,-2.9060779,-0.25238335,-1.6985188,-3.0232925,-0.4492371,3.8405845
6.100598,4.3256636,-2.9177957,-0.22255595,-1.7123672,-3.1274467,-0.514436,3.8027694
6.0991926,4.3227396,-2.9177957,-0.22255595,-1.7123672,-3.1410446,-0.5274768,3.8279994
6.09641,4.317005,-2.9337747,-0.19485907,-1.7262156,-3.1104984,-0.70179415,3.8821027
6.0947905,4.3136845,-2.9518843,-0.1671622,-1.7379335,-3.0639052,-0.77440834,3.9344988
6.0947905,4.3136845,-2.9518843,-0.1671622,-1.7379335,-3.0639052,-0.77440834,3.9344988
6.0933285,4.3106885,-2.9518843,-0.1671622,-1.7379335,-3.078031,-0.78817797,3.9601142
6.091833,4.3076496,-2.9699936,-0.1373348,-1.7485862,-3.102055,-0.9123986,4.0817924
6.0903225,4.304572,-2.9699936,-0.1373348,-1.7485862,-3.1166496,-0.926754,4.107978
6.088808,4.301509,-2.987038,-0.107507385,-1.7592388,-3.2988663,-0.8693299,4.2441015
6.0872912,4.2984347,-2.987038,-0.107507385,-1.7592388,-3.3135066,-0.8838763,4.27013
6.0857663,4.295367,-3.0008864,-0.08194104,-1.7688262,-3.390471,-0.93681526,4.4157467
6.0842333,4.2922745,-3.0008864,-0.08194104,-1.7688262,-3.4052649,-0.95165396,4.4417973
6.082586,4.288956,-3.0158,-0.057439957,-1.7752178,-3.7754946,-0.938962,4.474466
6.081153,4.286063,-3.0158,-0.057439957,-1.7752178,-3.7893105,-0.95302725,4.4987154
6.0795927,4.282966,-3.0264528,-0.036134668,-1.7858704,-3.2010078,-0.9203415,5.0513163
6.078008,4.279814,-3.0264528,-0.036134668,-1.7858704,-3.2162771,-0.9359093,5.077589
6.0764527,4.2767267,-3.03604,-0.013764114,-1.7965231,-3.9686732,-1.1380019,5.2373257
6.074884,4.2736063,-3.03604,-0.013764114,-1.7965231,-3.983778,-1.1536064,5.263198
6.0733004,4.270482,-3.0413663,0.0064759105,-1.808241,-4.310265,-1.231597,5.485346
6.0717006,4.2673187,-3.0413663,0.0064759105,-1.808241,-4.3256607,-1.247633,5.51143
6.070115,4.2642183,-3.044562,0.011802233,-1.8263505,-4.211623,-1.3592467,5.872094
6.068511,4.261075,-3.044562,0.011802233,-1.8263505,-4.227047,-1.3754034,5.8978586
6.0668964,4.257936,-3.0413663,0.008606439,-1.8433948,-4.304816,-1.449122,6.253901
6.0652814,4.2547884,-3.0413663,0.008606439,-1.8433948,-4.320337,-1.4655137,6.2795506
6.0636578,4.251645,-3.0349748,0.0043453816,-1.8583084,-4.4508543,-1.486793,6.530137
6.062043,4.2485113,-3.0349748,0.0043453816,-1.8583084,-4.4663568,-1.5033212,6.555517
6.060406,4.2453547,-3.0264528,-0.0031114696,-1.8753526,-4.587417,-1.4961481,6.700713
6.0587587,4.2421703,-3.0264528,-0.0031114696,-1.8753526,-4.6032243,-1.513155,6.7263517
6.057148,4.239074,-3.0189958,-0.014829379,-1.8934622,-4.6282487,-1.5345907,6.827809
6.0555058,4.2359095,-3.0189958,-0.014829379,-1.8934622,-4.6439934,-1.5517006,6.853131
6.0538673,4.232762,-3.0126042,-0.03187361,-1.9105064,-4.6166,-1.5352998,7.017103
6.052204,4.229558,-3.0126042,-0.03187361,-1.9105064,-4.632537,-1.5528178,7.0425835
6.0505877,4.226448,-3.011539,-0.04572205,-1.9275506,-4.7198424,-1.5842862,7.0624504
6.048935,4.2232594,-3.011539,-0.04572205,-1.9275506,-4.735663,-1.6019096,7.0876546
6.047308,4.22011,-3.0147347,-0.06063575,-1.9403338,-4.8805223,-1.5427866,7.179515
6.0456686,4.2169294,-3.0147347,-0.06063575,-1.9403338,-4.896202,-1.5605373,7.2045145
6.044036,4.213752,-3.0147347,-0.06063575,-1.9403338,-4.9118176,-1.5783615,7.229415
6.0423822,4.210515,-3.0211263,-0.078745246,-1.9509864,-4.941986,-1.543921,7.3169527
6.0407786,4.2073674,-3.0211263,-0.078745246,-1.9509864,-4.957307,-1.5617352,7.3414726
6.0391498,4.204137,-3.031779,-0.09792001,-1.9584433,-5.0590534,-1.4986806,7.3234787
6.037532,4.200919,-3.031779,-0.09792001,-1.9584433,-5.0745,-1.5170403,7.3484097
6.0358973,4.197624,-3.0456274,-0.11922529,-1.9627043,-5.1858644,-1.4975872,7.3978205
6.0343175,4.194429,-3.0616064,-0.14372638,-1.9637696,-5.2009335,-1.515954,7.4224377
6.032714,4.191128,-3.0616064,-0.14372638,-1.9637696,-5.3215694,-1.5253911,7.3329
6.0311403,4.1878786,-3.075455,-0.17142326,-1.9627043,-5.336566,-1.544189,7.35781
6.029556,4.184544,-3.075455,-0.17142326,-1.9627043,-5.366029,-1.515635,7.3929005
6.028009,4.1812787,-3.075455,-0.17142326,-1.9627043,-5.3807573,-1.534647,7.417802
6.0264726,4.177964,-3.0914338,-0.20338118,-1.961639,-5.3427124,-1.5491815,7.347267
6.024927,4.1746197,-3.0914338,-0.20338118,-1.961639,-5.357418,-1.5687656,7.372651
6.023389,4.171213,-3.1063476,-0.23640439,-1.9584433,-5.3481073,-1.5216999,7.3745213
6.021897,4.1678967,-3.117,-0.2715581,-1.9552475,-5.362295,-1.5412259,7.3995647
6.0203996,4.1644883,-3.117,-0.2715581,-1.9552475,-5.3861027,-1.4990664,7.2576704
6.0189347,4.1611404,-3.117,-0.2715581,-1.9552475,-5.400016,-1.5188794,7.2828255
6.01748,4.1577363,-3.1255224,-0.3077771,-1.9520516,-5.303701,-1.4241276,7.131197
6.016006,4.154274,-3.1255224,-0.3077771,-1.9520516,-5.317694,-1.4447279,7.157092
6.0146055,4.1509013,-3.1340444,-0.34612662,-1.9499211,-5.201691,-1.3498921,6.885394
6.013186,4.1474667,-3.1340444,-0.34612662,-1.9499211,-5.2151594,-1.3704271,6.9109554
6.011796,4.1440187,-3.1425664,-0.3855414,-1.9488559,-5.0607457,-1.1899495,6.7163095
6.010387,4.1405087,-3.1425664,-0.3855414,-1.9488559,-5.0741005,-1.2110434,6.742307
6.0090475,4.137085,-3.1532192,-0.4270867,-1.953117,-4.9670815,-1.0017915,6.446796
6.0076675,4.133543,-3.1532192,-0.4270867,-1.953117,-4.9801455,-1.0231781,6.4728937
6.006322,4.1299934,-3.1713288,-0.4696973,-1.9605738,-4.8731775,-0.7764826,6.202135
6.0042624,4.124386,-3.1958299,-0.51337314,-1.9680307,-4.801687,-0.5135441,5.9751425
6.0037107,4.122877,-3.1958299,-0.51337314,-1.9680307,-4.8069057,-0.52271605,5.986185
6.0022364,4.1188273,-3.1958299,-0.51337314,-1.9680307,-4.820848,-0.5474014,6.0157347
6.001179,4.1158223,-3.2309835,-0.557049,-1.9754875,-4.7207036,-0.40769768,5.683295
5.999924,4.1122365,-3.2309835,-0.557049,-1.9754875,-4.732565,-0.42963123,5.709352
5.997444,4.1048856,-3.2746594,-0.59752905,-1.9818791,-4.588394,-0.40765142,5.6429005
5.997444,4.1048856,-3.2746594,-0.59752905,-1.9818791,-4.588394,-0.40765142,5.6429005
5.9962144,4.101081,-3.3268573,-0.6348133,-1.9872054,-4.623945,-0.3543954,5.3256316
5.995013,4.097343,-3.3268573,-0.6348133,-1.9872054,-4.6352777,-0.37743378,5.3525434
5.9938335,4.093519,-3.3843815,-0.66890174,-1.9925318,-4.694291,-0.28128767,5.092746
5.9926643,4.0897074,-3.3843815,-0.66890174,-1.9925318,-4.7053146,-0.30487013,5.120068
5.9915175,4.0858088,-3.446167,-0.7040555,-1.997858,-4.6586647,-0.2954688,4.860682
5.990384,4.08193,-3.446167,-0.7040555,-1.997858,-4.6693444,-0.31955528,4.888355
5.989269,4.077942,-3.5132785,-0.742405,-2.002119,-4.3350835,-0.31080437,4.5911674
5.9881635,4.0739617,-3.5132785,-0.742405,-2.002119,-4.345491,-0.3356161,4.619435
5.987085,4.069904,-3.5803902,-0.77755874,-2.0053148,-4.0396113,-0.28909588,4.351335
5.986013,4.0658426,-3.5803902,-0.77755874,-2.0053148,-4.049698,-0.3145218,4.3800335
5.9849687,4.061716,-3.6506977,-0.80632085,-2.0117066,-3.9637542,-0.30685663,4.121843
5.983924,4.0575566,-3.6506977,-0.80632085,-2.0117066,-3.973577,-0.33301544,4.1510754
5.9829006,4.0533195,-3.724201,-0.83188725,-2.0223591,-3.9927762,-0.32617807,3.931806
5.981887,4.0490875,-3.724201,-0.83188725,-2.0223591,-4.002304,-0.35293436,3.9613843
5.9808917,4.0447645,-3.7977042,-0.8574536,-2.0330117,-4.040384,-0.26537943,3.7856352
5.9799047,4.040438,-3.7977042,-0.8574536,-2.0330117,-4.049657,-0.29287672,3.8156948
5.978941,4.036023,-3.8722727,-0.8862157,-2.0436645,-4.0108213,-0.21562481,3.5302749
5.9779882,4.031618,-3.8722727,-0.8862157,-2.0436645,-4.0197625,-0.24376726,3.5606985
5.977059,4.0270996,-3.9489717,-0.9203042,-2.0521865,-3.9710236,-0.10985994,3.3763738
5.9761076,4.0224285,-3.9489717,-0.9203042,-2.0521865,-3.9799442,-0.13985491,3.4084392
5.9752445,4.017968,-4.028867,-0.95332736,-2.061774,-3.921003,0.05173707,3.2618332
5.9743633,4.0133667,-4.028867,-0.95332736,-2.061774,-3.9292674,0.022032738,3.2932336
5.973506,4.0086646,-4.115153,-0.98635054,-2.074557,-3.808012,0.13528419,3.1384988
5.9726634,4.003988,-4.115153,-0.98635054,-2.074557,-3.81591,0.10492158,3.1702054
5.971835,3.9991522,-4.2099614,-1.0140474,-2.0830793,-3.651287,0.2123394,3.0544667
5.971019,3.9943285,-4.2099614,-1.0140474,-2.0830793,-3.6589332,0.18083954,3.086946
5.9702263,3.9893918,-4.312227,-1.036418,-2.0884056,-3.5801632,0.22994256,2.9716578
5.9694424,3.9844475,-4.312227,-1.036418,-2.0884056,-3.587497,0.19745612,3.0047076
5.9686785,3.9793968,-4.4230146,-1.0534623,-2.0916014,-3.4318419,0.1594007,2.985693
5.967924,3.9743383,-4.4230146,-1.0534623,-2.0916014,-3.4389024,0.12593937,3.0192442
5.967187,3.9691668,-4.536998,-1.0641148,-2.090536,-3.4266417,0.048542023,3.0821524
5.966459,3.9639826,-4.536998,-1.0641148,-2.090536,-3.4334497,0.01400733,3.1162543
5.9657474,3.9586816,-4.655242,-1.068376,-2.0894709,-3.430527,-0.09802437,3.0552263
5.9650464,3.9533777,-4.655242,-1.068376,-2.0894709,-3.437079,-0.13361597,3.0898058
5.9643598,3.9479604,-4.774552,-1.0694412,-2.0830793,-3.3764558,-0.26106668,3.1489224
5.963685,3.9425457,-4.774552,-1.0694412,-2.0830793,-3.38276,-0.29767942,3.183895
5.9630218,3.9369938,-4.891731,-1.068376,-2.0713613,-3.436842,-0.54603696,3.4015546
5.96237,3.9314451,-4.891731,-1.068376,-2.0713613,-3.4429252,-0.5838504,3.4370465
5.9617386,3.9257967,-5.0035834,-1.0662454,-2.0575128,-3.5254374,-0.80443144,3.5208983
5.9611173,3.9201343,-5.0035834,-1.0662454,-2.0575128,-3.5312357,-0.84331894,3.5567515
5.960515,3.9143827,-5.106914,-1.0630496,-2.0404687,-3.6278372,-1.1128039,3.7941108
5.9599066,3.90845,-5.106914,-1.0630496,-2.0404687,-3.6335156,-1.1538765,3.8312778
5.959355,3.9027565,-5.2006574,-1.060919,-2.018098,-3.8301978,-1.4567852,4.0535274
5.958803,3.8969321,-5.2006574,-1.060919,-2.018098,-3.8353472,-1.4974208,4.089628
5.958271,3.8909848,-5.2816176,-1.0598538,-1.9904013,-3.8259406,-1.802414,4.427983
5.957753,3.8850532,-5.2816176,-1.0598538,-1.9904013,-3.830771,-1.8441243,4.464343
5.957261,3.8790593,-5.3497944,-1.0555928,-1.961639,-3.8353605,-2.121049,4.687643
5.956781,3.8730636,-5.3497944,-1.0555928,-1.961639,-3.8398361,-2.1635447,4.723978
5.9563274,3.8670225,-5.400927,-1.0492011,-1.9307464,-3.9925008,-2.4028335,4.9806566
5.955888,3.8609974,-5.400927,-1.0492011,-1.9307464,-3.9965978,-2.4458718,5.0167356
5.955476,3.85491,-5.4350157,-1.0428096,-1.8934622,-4.129723,-2.7480783,5.301992
5.9550776,3.8488388,-5.4350157,-1.0428096,-1.8934622,-4.133433,-2.791781,5.337912
5.954712,3.8427615,-5.449929,-1.036418,-1.8519168,-4.3283725,-3.041572,5.6897106
5.954359,3.8366826,-5.449929,-1.036418,-1.8519168,-4.3316627,-3.0856643,5.72524
5.954044,3.8306165,-5.4477987,-1.032157,-1.8050452,-4.530922,-3.364428,5.9759994
5.953742,3.8245668,-5.4477987,-1.032157,-1.8050452,-4.5337343,-3.4086237,6.0109363
5.9534802,3.818518,-5.428624,-1.032157,-1.7539124,-4.555321,-3.6109586,6.2803307
5.953231,3.8124738,-5.428624,-1.032157,-1.7539124,-4.557643,-3.6554227,6.314823
5.9530277,3.806491,-5.39134,-1.0353527,-1.7006493,-4.607417,-3.8958745,6.5882235
5.9528356,3.8004951,-5.39134,-1.0353527,-1.7006493,-4.6092086,-3.9402766,6.6220474
5.952689,3.7945783,-5.3380766,-1.036418,-1.643125,-4.6105733,-4.175741,6.8898954
5.9525537,3.7886553,-5.3380766,-1.036418,-1.643125,-4.6118293,-4.2198863,6.9229107
5.952467,3.782819,-5.266704,-1.0385485,-1.5813397,-4.622216,-4.5699444,7.0702333
5.952391,3.776994,-5.266704,-1.0385485,-1.5813397,-4.622919,-4.6136246,7.102341
5.9523597,3.7712538,-5.1761565,-1.0385485,-1.518489,-4.359851,-4.853095,7.320589
5.9523387,3.7655194,-5.1761565,-1.0385485,-1.518489,-4.3600473,-4.896357,7.351837
5.9523597,3.759913,-5.072826,-1.0342875,-1.4545732,-4.144375,-5.2021093,7.3918304
5.95239,3.7543066,-5.072826,-1.0342875,-1.4545732,-4.1440907,-5.244655,7.422035
5.9524746,3.7476904,-4.9524508,-1.0278959,-1.3949184,-4.157672,-5.668487,7.5005975
5.952536,3.7434146,-4.9524508,-1.0278959,-1.3949184,-4.157093,-5.701125,7.523353
5.95266,3.7369223,-4.8150315,-1.0247,-1.3427204,-2.5422506,-6.5409126,7.9839
5.9528074,3.7318377,-4.6499157,-1.016178,-1.2915877,-5.1553497,-7.992478,7.9341164
5.952956,3.7269642,-4.6499157,-1.016178,-1.2915877,-5.153965,-8.029964,7.959668
5.953096,3.722589,-4.6499157,-1.016178,-1.2915877,-5.152667,-8.063715,7.9824657
5.953291,3.71765,-4.4507113,-1.0033948,-1.2415203,-5.8643208,-7.6230307,7.5532303
5.953493,3.7127206,-4.4507113,-1.0033948,-1.2415203,-5.8624363,-7.6612244,7.578667
5.953774,3.707976,-4.2259407,-1.0555928,-1.1989098,-6.6307564,-8.636491,7.8570037
5.953774,3.707976,-4.2259407,-1.0555928,-1.1989098,-6.6307564,-8.636491,7.8570037
5.9548616,3.696368,-3.9756033,-1.1749023,-1.1562991,-7.6788616,-9.602489,7.9221964
5.95505,3.6944098,-3.9756033,-1.1749023,-1.1562991,-7.677108,-9.617685,7.9322934
5.955653,3.6902273,-3.689047,-1.3496058,-1.107297,-7.111245,-10.693761,8.294287
5.956263,3.6860468,-3.689047,-1.3496058,-1.107297,-7.105567,-10.726039,8.316184
5.9570904,3.6820989,-3.3705332,-1.5466796,-1.0487075,-6.006097,-10.373132,8.12194
5.9570904,3.6820989,-3.3705332,-1.5466796,-1.0487075,-6.006097,-10.373132,8.12194
5.9595847,3.6732035,-3.0328443,-1.7107304,-0.9720084,-3.6556711,-10.536215,8.592418
5.960062,3.6715178,-3.0328443,-1.7107304,-0.9720084,-3.6512213,-10.549024,8.601669
5.961125,3.6685004,-2.6930249,-1.7948862,-0.8814609,-3.1241522,-10.983474,8.9539175
5.9626603,3.664837,-2.3500097,-1.7874295,-0.77919555,-3.9573622,-11.436842,8.946457
5.964095,3.6614325,-2.3500097,-1.7874295,-0.77919555,-3.9439592,-11.462208,8.966153
5.965788,3.6578574,-1.996342,-1.7352315,-0.67266905,-4.8044243,-12.08242,9.116514
5.965788,3.6578574,-1.996342,-1.7352315,-0.67266905,-4.8044243,-12.08242,9.116514
5.966984,3.6554656,-1.996342,-1.7352315,-0.67266905,-4.793236,-12.100073,9.130721
5.968243,3.653403,-1.6213689,-1.6777072,-0.5608163,-5.1166487,-12.694396,9.306347
5.9695897,3.6512048,-1.6213689,-1.6777072,-0.5608163,-5.104047,-12.7103405,9.319973
5.971152,3.6492572,-1.218699,-1.6297703,-0.44470248,-5.036747,-13.260262,9.543672
5.9718533,3.6483846,-1.218699,-1.6297703,-0.44470248,-5.030176,-13.266376,9.549495
5.9730887,3.6473477,-0.7808752,-1.5850292,-0.32539287,-4.702568,-13.574739,9.6819515
5.9743395,3.6462998,-0.7808752,-1.5850292,-0.32539287,-4.6908455,-13.581524,9.689988
5.975602,3.645768,-0.31215888,-1.5413533,-0.20501798,-4.0182037,-13.933617,9.853714
5.9768615,3.645239,-0.31215888,-1.5413533,-0.20501798,-4.0063896,-13.9361515,9.859389
5.9781275,3.6452389,0.17573224,-1.4816985,-0.08890416,-3.5970783,-14.279112,9.915346
5.9793954,3.6452398,0.17573224,-1.4816985,-0.08890416,-3.5851765,-14.277302,9.918618
5.9806433,3.645791,0.6817329,-1.3986079,0.026144402,-3.5351505,-14.620551,9.957633
5.981893,3.6463442,0.6817329,-1.3986079,0.026144402,-3.523407,-14.614233,9.958323
5.9831,3.6474614,1.201582,-1.2931467,0.13799717,-3.2774315,-14.732628,9.980261
5.9843106,3.6485832,1.201582,-1.2931467,0.13799717,-3.2660408,-14.721695,9.978212
5.985467,3.6502817,1.7320836,-1.1674455,0.25517625,-3.968645,-14.921594,9.906334
5.9866242,3.6519816,1.7320836,-1.1674455,0.25517625,-3.9577522,-14.906001,9.901443
5.987723,3.6542733,2.2721727,-1.0310917,0.37555113,-4.5268097,-14.895226,9.793074
5.9888225,3.656567,2.2721727,-1.0310917,0.37555113,-4.5164585,-14.874873,9.785199
5.98987,3.659455,2.817588,-0.9011294,0.5001871,-4.889662,-14.734827,9.7647915
5.990918,3.662342,2.817588,-0.9011294,0.5001871,-4.8797894,-14.709736,9.753876
5.99193,3.6658251,3.3630035,-0.78608084,0.63014936,-4.5637913,-14.473959,9.778283
5.992943,3.6693068,3.3630035,-0.78608084,0.63014936,-4.554247,-14.4441395,9.764277
5.9939322,3.6733794,3.9030926,-0.6752933,0.7686337,-5.047701,-14.371287,9.69939
5.994923,3.6774504,3.9030926,-0.6752933,0.7686337,-5.038355,-14.336821,9.682239
5.995901,3.682102,4.4346595,-0.5708974,0.90924865,-5.8862534,-14.091834,9.638146
5.9968815,3.6867518,4.4346595,-0.5708974,0.90924865,-5.876993,-14.052841,9.617809
5.997874,3.6919665,4.955574,-0.49632892,1.0477331,-5.9681873,-13.554484,9.508334
5.9988694,3.6971793,4.955574,-0.49632892,1.0477331,-5.958786,-13.511146,9.4848175
5.9999065,3.7029974,5.4615746,-0.4430657,1.1894132,-5.345647,-12.965029,9.467693
6.0009303,3.7087097,5.4615746,-0.4430657,1.1894132,-5.3359766,-12.917916,9.441203
6.0019946,3.7149713,5.943074,-0.3887372,1.3332239,-5.1966276,-12.521761,9.411703
6.00307,3.7212553,5.943074,-0.3887372,1.3332239,-5.1864614,-12.470351,9.381769
6.004178,3.7280297,6.3915505,-0.32375607,1.4770346,-5.6069355,-12.204519,9.200567
6.0052924,3.7347941,6.3915505,-0.32375607,1.4770346,-5.5963926,-12.149658,9.167477
6.0064406,3.74202,6.81233,-0.25770968,1.6197801,-5.6812954,-11.856726,9.059774
6.0075974,3.749242,6.81233,-0.25770968,1.6197801,-5.6703424,-11.798688,9.023497
6.008798,3.7568989,7.2064776,-0.19485907,1.7678518,-5.8361425,-11.498053,8.874363
6.0100093,3.7645512,7.2064776,-0.19485907,1.7678518,-5.824667,-11.437145,8.834915
6.0112753,3.772623,7.57719,-0.13307373,1.9233804,-6.023362,-11.057195,8.706556
6.0125504,3.7806742,7.57719,-0.13307373,1.9233804,-6.0112705,-10.993755,8.663986
6.0138855,3.7891178,7.9234004,-0.074484184,2.074648,-6.3481665,-10.779146,8.451165
6.015234,3.7975557,7.9234004,-0.074484184,2.074648,-6.335368,-10.713362,8.405404
6.016647,3.8063521,8.246176,-0.021220965,2.223785,-6.3028107,-10.286051,8.251753
6.0180755,3.815143,8.246176,-0.021220965,2.223785,-6.2892485,-10.218297,8.202875
6.019579,3.8242745,8.545515,0.02565067,2.3707914,-6.5670595,-9.784414,7.979093
6.0210967,3.8333812,8.545515,0.02565067,2.3707914,-6.552635,-9.715056,7.927198
6.022695,3.8428013,8.821419,0.06613072,2.5124717,-6.8534775,-9.409128,7.815406
6.0243125,3.852214,8.821419,0.06613072,2.5124717,-6.838092,-9.338354,7.7604394
6.026015,3.8619044,9.074951,0.09595813,2.6456296,-6.9080887,-8.96908,7.6265745
6.027737,3.8715868,9.074951,0.09595813,2.6456296,-6.891696,-8.89726,7.568667
6.0295644,3.8815794,9.306114,0.11619815,2.7745266,-7.132868,-8.569843,7.445962
6.031402,3.8915038,9.306114,0.11619815,2.7745266,-7.1153574,-8.497269,7.3851852
6.033341,3.9016738,9.517036,0.12791605,2.8949015,-7.408124,-8.308505,7.2503757
6.035297,3.9118042,9.517036,0.12791605,2.8949015,-7.389469,-8.235536,7.186879
6.0373597,3.922143,9.705588,0.123655,3.0078197,-7.4128857,-8.171192,7.1500983
6.0394435,3.9324613,9.705588,0.123655,3.0078197,-7.392988,-8.098043,7.083934
6.0416465,3.9429755,9.87603,0.105545506,3.1154113,-7.5826387,-8.1198435,6.824271
6.0438695,3.9534578,9.87603,0.105545506,3.1154113,-7.5613976,-8.046767,6.755548
6.046213,3.9641042,10.028363,0.074652836,3.2166114,-7.400116,-8.030598,6.5126524
6.0485797,3.9747279,10.028363,0.074652836,3.2166114,-7.3774786,-7.9578314,6.441472
6.051078,3.9855142,10.161521,0.032042257,3.3124852,-7.0327406,-7.764859,6.0524507
6.053588,3.9962347,10.161521,0.032042257,3.3124852,-7.0086956,-7.692787,5.9790826
6.056239,4.007127,10.275504,-0.016959907,3.4009023,-6.739071,-7.24671,5.3627195
6.058907,4.0179734,10.275504,-0.016959907,3.4009023,-6.7134843,-7.175215,5.286931
6.0617013,4.028902,10.368182,-0.07128839,3.4829276,-6.528653,-6.591489,4.6112866
6.064517,4.039807,10.368182,-0.07128839,3.4829276,-6.5016146,-6.5210958,4.533529
6.067462,4.0507736,10.433164,-0.13094321,3.5606918,-6.1093984,-5.6752725,3.8177469
6.070425,4.0617056,10.433164,-0.13094321,3.5606918,-6.0809107,-5.606238,3.738247
6.0735326,4.0727053,10.464056,-0.19059801,3.6363256,-5.835534,-4.4074116,2.8818228
6.0766506,4.083647,10.464056,-0.19059801,3.6363256,-5.805513,-4.3398857,2.8007197
6.0799055,4.0945745,10.454469,-0.2502528,3.7055678,-5.9225965,-3.0425224,1.8619182
6.0831757,4.1054654,10.454469,-0.2502528,3.7055678,-5.891067,-2.9768949,1.7797064
6.0865765,4.1162653,10.393749,-0.3141687,3.763092,-5.5805354,-1.2413502,0.70154786
6.089991,4.1270285,10.393749,-0.3141687,3.763092,-5.547568,-1.1780725,0.6188799
6.0935264,4.1376324,10.270178,-0.3855414,3.802507,-4.60362,0.8085449,-0.6937928
6.097069,4.1481886,10.270178,-0.3855414,3.802507,-4.569375,0.8690467,-0.77622074
6.100656,4.15849,10.073104,-0.46437097,3.81529,-3.7014942,2.9097862,-2.1022549
6.104247,4.1687474,10.073104,-0.46437097,3.81529,-3.6667361,2.9669948,-2.1836483
6.1078324,4.17867,9.787614,-0.55172265,3.790789,-2.626443,5.1045904,-3.6228642
6.11142,4.1885505,9.787614,-0.55172265,3.790789,-2.591669,5.158166,-3.7024744
6.114999,4.1980667,9.40838,-0.6518575,3.7236774,-1.3119755,7.3064404,-4.9863276
6.1185784,4.207544,9.40838,-0.6518575,3.7236774,-1.2772393,7.356396,-5.063764
6.1221027,4.2165127,8.927945,-0.7669061,3.6043677,-0.122532845,9.160452,-6.2100816
6.125629,4.225455,8.927945,-0.7669061,3.6043677,-0.08827257,9.206301,-6.284082
6.1290693,4.2337894,8.346311,-0.89473784,3.4381864,0.8166561,10.713819,-7.3637514
6.132505,4.242092,8.346311,-0.89473784,3.4381864,0.85007286,10.755271,-7.433242
6.1358356,4.249741,7.6730633,-1.0289612,3.2251337,1.5720091,11.841749,-8.479155
6.139153,4.257346,7.6730633,-1.0289612,3.2251337,1.6043091,11.878794,-8.54344
6.142302,4.264173,6.923117,-1.1685108,2.9684048,2.4202824,12.663555,-9.477625
6.1454434,4.2709756,6.923117,-1.1685108,2.9684048,2.4508905,12.695949,-9.535616
6.1483893,4.276968,6.1103206,-1.3027341,2.671196,2.9967604,13.155269,-10.348196
6.1513233,4.282934,6.1103206,-1.3027341,2.671196,3.0253773,13.183144,-10.399413
6.154013,4.2880244,5.2517176,-1.4273701,2.3398988,3.5160894,13.503719,-10.888517
6.1566873,4.2930884,5.2517176,-1.4273701,2.3398988,3.5421877,13.527014,-10.932234
6.1590943,4.2972627,4.3654175,-1.5381576,1.9841005,3.6806097,13.589331,-11.217286
6.1614895,4.30142,4.3654175,-1.5381576,1.9841005,3.7040005,13.608277,-11.253315
6.1635833,4.304658,3.4695299,-1.6340313,1.6144537,3.7819147,13.532158,-11.424995
6.165676,4.3078995,3.4695299,-1.6340313,1.6144537,3.8023624,13.546907,-11.453135
6.169214,4.312539,2.5789688,-1.717122,1.2352196,3.7363863,13.501323,-11.41667
6.169214,4.312539,2.5789688,-1.717122,1.2352196,3.7363863,13.501323,-11.41667
6.1707015,4.314012,1.7075826,-1.7842337,0.85492015,3.688714,13.424485,-11.389177
6.1721735,4.3154736,1.7075826,-1.7842337,0.85492015,3.688714,13.424485,-11.389177
6.173253,4.3160214,0.86069727,-1.8396274,0.47675127,3.7567272,13.446787,-11.221281
6.174358,4.3165846,0.86069727,-1.8396274,0.47675127,3.767541,13.450007,-11.225908
6.1751356,4.316312,0.03831313,-1.8833033,0.10177818,4.1199093,13.377917,-11.156088
6.175916,4.316039,0.03831313,-1.8833033,0.10177818,4.127549,13.377649,-11.153311
6.176367,4.3149433,-0.7670268,-1.9173917,-0.26893386,4.409684,13.177619,-11.0331
6.1768184,4.3138514,-0.7670268,-1.9173917,-0.26893386,4.4141006,13.173914,-11.023073
6.1769414,4.311948,-1.5595835,-1.9440233,-0.6385806,4.5541697,12.960886,-10.914885
6.177068,4.31005,-1.5595835,-1.9440233,-0.6385806,4.5554113,12.953756,-10.897743
6.1768785,4.3073378,-2.3414876,-1.9610676,-0.99864,4.0794964,12.5888,-10.792014
6.176695,4.304633,-2.3414876,-1.9610676,-0.99864,4.0777025,12.578164,-10.767777
6.176212,4.301141,-3.1138043,-1.9717202,-1.3416551,3.4265442,12.147506,-10.377505
6.1757364,4.29764,-3.1138043,-1.9717202,-1.3416551,3.4218922,12.133304,-10.346334
6.174983,4.293358,-3.8797295,-1.979177,-1.6644303,2.7345686,11.71817,-10.021051
6.174243,4.2890863,-3.8797295,-1.979177,-1.6644303,2.7273245,11.700367,-9.983243
6.173243,4.284017,-4.6318064,-1.979177,-1.9605738,2.195613,11.28147,-9.593768
6.17226,4.2789598,-4.6318064,-1.979177,-1.9605738,2.1859932,11.259841,-9.549269
6.1710534,4.273148,-5.3700347,-1.9674591,-2.219433,1.7959166,10.535522,-8.976382
6.169863,4.267332,-5.3700347,-1.9674591,-2.219433,1.784277,10.509996,-8.925549
6.168484,4.260782,-6.089088,-1.9418927,-2.4463344,0.7843876,9.911031,-8.528534
6.167128,4.2542458,-6.089088,-1.9418927,-2.4463344,0.7711315,9.881583,-8.471821
6.1655936,4.246962,-6.7836404,-1.906739,-2.6402125,0.6460018,8.957647,-7.479928
6.1640854,4.2396946,-6.7836404,-1.906739,-2.6402125,0.63126564,8.9239855,-7.4173717
6.1624413,4.231753,-7.4473004,-1.8651937,-2.7968063,0.50985384,7.6656227,-6.219268
6.1608205,4.2238054,-7.4473004,-1.8651937,-2.7968063,0.4940219,7.627745,-6.151479
6.1586905,4.2131205,-8.07048,-1.8012779,-2.9150507,-0.58022356,6.144278,-4.834998
6.155659,4.197358,-8.646788,-1.7267094,-2.9992065,-1.9936609,4.711154,-3.6632361
6.155659,4.197358,-8.646788,-1.7267094,-2.9992065,-1.9936609,4.711154,-3.6632361
6.152675,4.181241,-8.646788,-1.7267094,-2.9992065,-2.022781,4.6293135,-3.5288815
6.1522083,4.1785936,-9.163442,-1.664924,-3.0503395,-2.7791142,3.0307248,-2.147026
6.150457,4.1685405,-9.163442,-1.664924,-3.0503395,-2.7961998,2.9784596,-2.0640187
6.1485147,4.156585,-9.6161785,-1.6159219,-3.0588615,-3.0449846,1.3399799,-0.5102709
6.1485147,4.156585,-9.6161785,-1.6159219,-3.0588615,-3.0449846,1.3399799,-0.5102709
6.145213,4.1355276,-10.007131,-1.5679849,-3.0269036,-3.4889712,-0.30617666,1.3078004
6.1441092,4.1281595,-10.007131,-1.5679849,-3.0269036,-3.499729,-0.3468151,1.3670212
6.1422973,4.115596,-10.334167,-1.5083301,-2.959792,-3.9627075,-1.891871,2.9277859
6.1422973,4.115596,-10.334167,-1.5083301,-2.959792,-3.9627075,-1.891871,2.9277859
6.1391597,4.09301,-10.595157,-1.4369575,-2.863918,-4.481683,-3.4289374,4.805721
6.1381392,4.085213,-10.595157,-1.4369575,-2.863918,-4.491624,-3.4744263,4.8665175
6.1364746,4.0715685,-10.794361,-1.3570626,-2.7382169,-4.962729,-4.85748,6.332041
6.1352286,4.0604887,-10.927519,-1.2675804,-2.5869493,-5.295679,-6.0108347,7.863146
6.1342955,4.052023,-10.927519,-1.2675804,-2.5869493,-5.304757,-6.062171,7.9275947
6.13245,4.034813,-10.927519,-1.2675804,-2.5869493,-5.322714,-6.168146,8.057271
6.1315966,4.0260773,-10.999957,-1.1685108,-2.4133112,-5.7284546,-7.1947365,9.434465
6.130724,4.016966,-10.999957,-1.1685108,-2.4133112,-5.7369423,-7.252204,9.501934
6.12987,4.007189,-11.01274,-1.0587885,-2.219433,-5.9176264,-8.066238,10.770916
6.1289096,3.9959178,-11.01274,-1.0587885,-2.219433,-5.9269667,-8.138846,10.853027
6.128046,3.9847088,-10.969065,-0.9405442,-2.0149024,-5.9449444,-8.733797,11.786282
6.1271195,3.971389,-10.872126,-0.81377774,-1.8050452,-5.7969227,-9.311087,12.810202
6.126525,3.962614,-10.872126,-0.81377774,-1.8050452,-5.7969227,-9.311087,12.810202
6.1257567,3.950996,-10.872126,-0.81377774,-1.8050452,-5.8043833,-9.389371,12.891579
6.1250434,3.9390566,-10.724053,-0.68061966,-1.590927,-5.7873745,-9.892092,13.764404
6.124492,3.929582,-10.724053,-0.68061966,-1.590927,-5.792736,-9.957325,13.829381
6.1238484,3.9175282,-10.53124,-0.54107004,-1.3810699,-5.7175846,-10.44335,14.61509
6.1233625,3.9081974,-10.53124,-0.54107004,-1.3810699,-5.7223034,-10.508877,14.677732
6.122854,3.897789,-10.288361,-0.40045512,-1.1808002,-5.5979557,-10.960901,15.426867
6.1223583,3.8873892,-10.288361,-0.40045512,-1.1808002,-5.6027718,-11.035277,15.495228
6.121895,3.8773055,-9.997543,-0.2598402,-0.9943789,-5.703047,-11.615622,16.144968
6.12144,3.8672204,-9.997543,-0.2598402,-0.9943789,-5.7074604,-11.689043,16.209797
6.1210036,3.85747,-9.657724,-0.123486355,-0.82180613,-5.817045,-12.387916,16.975655
6.120567,3.847563,-9.657724,-0.123486355,-0.82180613,-5.821287,-12.46127,17.037909
6.120148,3.8382723,-9.268903,0.009671704,-0.6588206,-5.901968,-13.2393055,17.756409
6.119739,3.829101,-9.268903,0.009671704,-0.6588206,-5.905939,-13.308279,17.812729
6.119329,3.8203506,-8.830013,0.14069924,-0.503292,-6.1780643,-14.198185,18.670288
6.118919,3.811546,-8.830013,0.14069924,-0.503292,-6.182049,-14.26536,18.72314
6.1185,3.803249,-8.336796,0.26959622,-0.35522026,-6.2818794,-15.143148,19.36134
6.118082,3.7949507,-8.336796,0.26959622,-0.35522026,-6.28594,-15.207318,19.410034
6.1176524,3.7872288,-7.7913804,0.39529744,-0.21034431,-6.4433346,-16.019197,20.029406
6.117222,3.7795064,-7.7913804,0.39529744,-0.21034431,-6.4475174,-16.07966,20.073723
6.1167765,3.7724059,-7.192702,0.5167376,-0.06866413,-6.614643,-16.853848,20.477892
6.1163306,3.7653189,-7.192702,0.5167376,-0.06866413,-6.618973,-16.909954,20.517666
6.1158705,3.758897,-6.543956,0.6296556,0.07088551,-6.551613,-17.344154,20.816643
6.1154084,3.7524874,-6.543956,0.6296556,0.07088551,-6.556097,-17.395422,20.851862
6.11494,3.7467887,-5.8547297,0.7287252,0.20723936,-6.699503,-17.742908,21.00731
6.114468,3.741084,-5.8547297,0.7287252,0.20723936,-6.704088,-17.788952,21.038023
6.1139994,3.736136,-5.1314154,0.8150116,0.34465846,-6.9432564,-17.805134,20.868038
6.113528,3.7311926,-5.1314154,0.8150116,0.34465846,-6.94783,-17.845356,20.894142
6.1130695,3.7270253,-4.384665,0.8853191,0.47781652,-7.3497143,-17.80759,20.461014
6.112605,3.722837,-4.384665,0.8853191,0.47781652,-7.3542156,-17.841919,20.482742
6.112173,3.7194414,-3.6272619,0.92899495,0.604583,-7.655287,-17.520313,19.853735
6.1117377,3.7160492,-3.6272619,0.92899495,0.604583,-7.6595116,-17.548288,19.871038
6.1113563,3.7134392,-2.8698587,0.9449739,0.7302842,-7.9552917,-17.09105,19.027092
6.110969,3.7108138,-2.8698587,0.9449739,0.7302842,-7.959055,-17.112833,19.040298
6.110657,3.7089581,-2.125239,0.933256,0.8506591,-8.20628,-16.534512,18.091846
6.110332,3.707038,-2.125239,0.933256,0.8506591,-8.209444,-16.550518,18.10138
6.1101184,3.7059526,-1.408316,0.89703697,0.96570766,-8.977652,-15.649797,17.110714
6.109896,3.7048283,-1.408316,0.89703697,0.96570766,-8.979809,-15.659215,17.116222
6.109793,3.704393,-0.7297425,0.8277948,1.0754299,-9.71343,-15.476127,15.873341
6.109689,3.7039576,-0.7297425,0.8277948,1.0754299,-9.714439,-15.479788,15.875444
6.1097217,3.7041671,-0.09164913,0.7138115,1.17663,-4.4564476,-15.138061,16.985312
6.1097546,3.7043767,-0.09164913,0.7138115,1.17663,-4.4561367,-15.136318,16.984283
6.10995,3.7051835,0.5070295,0.6179377,1.2778301,-13.403763,-14.262821,12.919814
6.110148,3.7059953,0.5070295,0.6179377,1.2778301,-13.40185,-14.255993,12.915895
6.110544,3.707364,1.0673586,0.42192906,1.357725,-8.178654,-12.247667,13.187084
6.110941,3.7087295,1.0673586,0.42192906,1.357725,-8.174801,-12.236137,13.180543
6.1115885,3.7105677,1.5573802,0.17159191,1.4269671,-8.30739,-12.426432,12.5541725
6.1122427,3.712416,1.5573802,0.17159191,1.4269671,-8.301048,-12.41075,12.545428
6.113132,3.7146842,1.9983997,-0.06276628,1.4876872,-9.2548895,-11.687551,11.754255
6.114025,3.7169538,1.9983997,-0.06276628,1.4876872,-9.246232,-11.668273,11.743551
6.115186,3.7196383,2.3936129,-0.32482132,1.5302978,-9.857461,-11.391611,10.529068
6.1163654,3.7223558,2.3936129,-0.32482132,1.5302978,-9.846017,-11.368486,10.516251
6.117758,3.7252688,2.7547374,-0.63587856,1.5611905,-8.113466,-10.122587,9.875318
6.119153,3.7281797,2.7547374,-0.63587856,1.5611905,-8.099926,-10.097792,9.8615885
6.1208525,3.7314446,3.0721862,-0.9384137,1.5867568,-8.179195,-9.145749,8.577332
6.1225543,3.7347074,3.0721862,-0.9384137,1.5867568,-8.162669,-9.117945,8.561899
6.1245017,3.738219,3.3427634,-1.2164477,1.6006052,-7.72237,-7.9531317,7.8318315
6.126451,3.7417283,3.3427634,-1.2164477,1.6006052,-7.7034245,-7.923256,7.8151083
6.1286197,3.7454164,3.5632732,-1.4806333,1.6027358,-8.142032,-7.369896,6.969139
6.130805,3.7491283,3.5632732,-1.4806333,1.6027358,-8.120779,-7.3383503,6.9512925
6.133199,3.752987,3.7369113,-1.7309704,1.6016705,-7.805395,-6.8266973,6.1282625
6.1355877,3.7568321,3.7369113,-1.7309704,1.6016705,-7.782156,-6.7941,6.1095753
6.1381655,3.760783,3.8722,-1.9695897,1.5974095,-7.273429,-6.4254036,5.534875
6.14076,3.7647557,3.8722,-1.9695897,1.5974095,-7.2481623,-6.3918123,5.515332
6.143518,3.7688005,3.9723349,-2.1869037,1.5899526,-6.076866,-5.878788,4.99737
6.146276,3.7728438,3.9723349,-2.1869037,1.5899526,-6.049983,-5.8447256,4.9772043
6.149194,3.7769363,4.042642,-2.3679986,1.5814306,-7.2808895,-5.010607,3.970304
6.152105,3.7810192,4.042642,-2.3679986,1.5814306,-7.252493,-4.976349,3.949647
6.155139,3.7851279,4.0841875,-2.5352452,1.5697126,-6.2939377,-4.601944,3.6653843
6.1581845,3.7892525,4.0841875,-2.5352452,1.5697126,-6.2642107,-4.567509,3.6441822
6.161348,3.79337,4.0969706,-2.7088833,1.5547988,-5.72096,-4.729501,3.6803694
6.16451,3.7974873,4.0969706,-2.7088833,1.5547988,-5.6900673,-4.6952996,3.6588655
6.167777,3.8015757,4.089514,-2.8718686,1.5420157,-4.9781857,-4.469859,3.7475405
6.1710625,3.8056886,4.089514,-2.8718686,1.5420157,-4.9460692,-4.4358864,3.725716
6.174443,3.8097525,4.0671434,-3.006092,1.5302978,-5.415791,-3.9714165,3.2730832
6.177821,3.8138168,4.0671434,-3.006092,1.5302978,-5.382741,-3.9380474,3.2511663
6.1812778,3.8178222,4.0277286,-3.1328585,1.5175146,-5.0616026,-3.5365214,3.219865
6.1847525,3.8218527,4.0277286,-3.1328585,1.5175146,-5.027584,-3.5036464,3.197768
6.188297,3.8258102,3.9648778,-3.2500374,1.5079273,-4.418264,-3.361308,3.405785
6.19183,3.8297617,3.9648778,-3.2500374,1.5079273,-4.3836446,-3.3293076,3.3837576
6.1953883,3.833614,3.8988316,-3.3331282,1.4994051,-4.1285076,-3.1353922,3.515367
6.1989784,3.8375075,3.8988316,-3.3331282,1.4994051,-4.093311,-3.1041079,3.4932842
6.2026,3.8413327,3.8263936,-3.3874567,1.4887525,-3.8854132,-2.9872885,3.686909
6.2062035,3.8451452,3.8263936,-3.3874567,1.4887525,-3.8500643,-2.956924,3.6648972
6.2098308,3.8488905,3.7454333,-3.421545,1.4802303,-3.5798402,-2.879322,3.762824
6.2134504,3.8526354,3.7454333,-3.421545,1.4802303,-3.5443149,-2.849773,3.7408206
6.2170563,3.8562899,3.663408,-3.4300673,1.4749041,-3.4179354,-2.7013445,3.9107144
6.2206793,3.8599699,3.663408,-3.4300673,1.4749041,-3.3823571,-2.6725912,3.8887084
6.2242603,3.8635514,3.5813828,-3.417284,1.470643,-3.0838237,-2.5058746,4.082592
6.2278547,3.8671544,3.5813828,-3.417284,1.470643,-3.048511,-2.4780145,4.0606666
6.231414,3.870677,3.5004227,-3.3831956,1.4685125,-3.0566344,-2.3599339,4.259321
6.2349653,3.8741996,3.5004227,-3.3831956,1.4685125,-3.0217323,-2.3329902,4.237516
6.2384715,3.8776488,3.4226582,-3.3288672,1.4685125,-3.0878248,-2.2828088,4.4266777
6.241974,3.8811016,3.4226582,-3.3288672,1.4685125,-3.0533924,-2.2566962,4.4049397
6.245411,3.884473,3.3470244,-3.2585597,1.470643,-3.1345248,-2.2504964,4.656481
6.252154,3.8910933,3.2767172,-3.1775994,1.4770346,-3.2693224,-2.1532588,4.771981
6.252154,3.8910933,3.2767172,-3.1775994,1.4770346,-3.2693224,-2.1532588,4.771981
6.255627,3.894505,3.2767172,-3.1775994,1.4770346,-3.2351604,-2.128048,4.749808
6.2589445,3.8977602,3.211736,-3.0913131,1.490883,-3.3126602,-2.07541,5.0062203
6.262272,3.9010313,3.1499505,-3.0007656,1.5132536,-3.2799306,-2.051529,4.9846373
6.2655387,3.9042382,3.1499505,-3.0007656,1.5132536,-3.3100433,-1.9085469,5.174017
6.268802,3.907448,3.1499505,-3.0007656,1.5132536,-3.2779322,-1.8853903,5.1525326
6.2721167,3.9107068,3.0934916,-2.909153,1.5409504,-3.2261643,-1.7806244,5.3747807
6.2752295,3.9137723,3.0934916,-2.909153,1.5409504,-3.1955385,-1.758781,5.3539777
6.2783904,3.9168816,3.0434241,-2.8186054,1.5750389,-3.2793546,-1.6505675,5.6439857
6.2815557,3.9199998,3.0434241,-2.8186054,1.5750389,-3.2482123,-1.6286163,5.6225467
0.001485673,3.9230638,2.9997482,-2.7301884,1.6176496,-3.3276863,-1.544929,5.9461102
0.0046239905,3.9261546,2.9635293,-2.6449673,1.6655864,-3.2968059,-1.5234394,5.9245863
0.0077177,3.929194,2.9635293,-2.6449673,1.6655864,-3.5201502,-1.4737096,6.3007317
0.0107999975,3.9322267,2.9635293,-2.6449673,1.6655864,-3.4898224,-1.4528885,6.2793584
0.013865589,3.9352355,2.937963,-2.567203,1.7177844,-3.799636,-1.4993987,6.698556
0.016938545,3.9382553,2.937963,-2.567203,1.7177844,-3.769401,-1.4789276,6.6770124
0.020002669,3.9412632,2.9273102,-2.5000913,1.7731781,-4.0552897,-1.4443045,7.0001984
0.023059098,3.9442673,2.9273102,-2.5000913,1.7731781,-4.0252213,-1.4242058,6.978528
0.026115615,3.9472704,2.9315715,-2.4468281,1.8328329,-4.2393627,-1.4329729,7.4307833
0.02918592,3.950291,2.9315715,-2.4468281,1.8328329,-4.209161,-1.4130297,7.408745
0.032258634,3.9533205,2.953942,-2.4074132,1.8946183,-4.33696,-1.4985104,7.774384
0.035336103,3.9563577,2.953942,-2.4074132,1.8946183,-4.306694,-1.4787292,7.7519784
0.03842961,3.9594212,2.994422,-2.3786511,1.9627951,-4.530059,-1.497221,8.059662
0.041540552,3.9625046,2.994422,-2.3786511,1.9627951,-4.499471,-1.477417,8.036669
0.04467957,3.9656336,3.050881,-2.3594763,2.034168,-4.617053,-1.4766169,8.3005295
0.047817532,3.9687643,3.050881,-2.3594763,2.034168,-4.5862103,-1.4567995,8.276945
0.05099652,3.9719548,3.1222537,-2.3530848,2.110867,-4.674676,-1.5229378,8.44911
0.054193694,3.9751666,3.1222537,-2.3530848,2.110867,-4.643259,-1.5029078,8.424665
0.057441775,3.9784522,3.207475,-2.3562806,2.1907618,-4.6783867,-1.4729929,8.461786
0.06068573,3.9817364,3.207475,-2.3562806,2.1907618,-4.6465225,-1.4528255,8.436537
0.06732101,3.988503,3.3033488,-2.3733249,2.2717218,-4.600519,-1.4405012,8.384127
0.06732101,3.988503,3.3033488,-2.3733249,2.2717218,-4.600519,-1.4405012,8.384127
0.071763925,3.9930668,3.40881,-2.3988912,2.3558779,-4.5808473,-1.3892431,8.286236
0.074270025,3.9956431,3.40881,-2.3988912,2.3558779,-4.556252,-1.3739634,8.266008
0.07772051,3.9992142,3.5217278,-2.4351103,2.4379032,-4.5032454,-1.11831,8.113366
0.07772051,3.9992142,3.6378417,-2.4851778,2.5167327,-4.5032454,-1.11831,8.113366
0.08557439,4.0073895,3.6378417,-2.4851778,2.5167327,-4.373549,-0.7309103,7.8185706
0.088529475,4.0104694,3.6378417,-2.4851778,2.5167327,-4.3445807,-0.7133093,7.7939086
0.088529475,4.0104694,3.6378417,-2.4851778,2.5167327,-4.3445807,-0.7133093,7.7939086
0.098717205,4.021143,3.751825,-2.5437672,2.5891707,-4.12985,-0.21766281,7.4155955
0.10335081,4.026014,3.8551557,-2.6087484,2.6520212,-4.0605454,0.24005365,7.0694017
0.10335081,4.026014,3.8551557,-2.6087484,2.6520212,-4.0605454,0.24005365,7.0694017
0.10335081,4.026014,3.8551557,-2.6087484,2.6520212,-4.0605454,0.24005365,7.0694017
0.11343891,4.036626,3.9425073,-2.6747947,2.7084804,-3.9522839,0.67535496,6.7377834
0.11577364,4.039076,4.009619,-2.7408412,2.7574825,-3.9294615,0.9755645,6.5737834
0.12086631,4.04442,4.056491,-2.7983654,2.8011584,-3.9658928,1.2188592,6.3472433
0.12247984,4.0461054,4.056491,-2.7983654,2.8011584,-3.9501314,1.2275324,6.3331184
0.1264526,4.050259,4.056491,-2.7983654,2.8011584,-3.9113417,1.2487121,6.2981915
0.13051069,4.0544615,4.0799265,-2.8484328,2.844834,-3.9387784,1.4757137,6.1956215
0.13456668,4.058668,4.0799265,-2.8484328,2.844834,-3.8992176,1.4965558,6.159886
0.13867757,4.062886,4.0841875,-2.893174,2.8831837,-3.7394323,1.5027485,6.1046963
0.1428026,4.0671263,4.0841875,-2.893174,2.8831837,-3.699243,1.5231209,6.0683084
0.1469545,4.0713425,4.0724697,-2.9293928,2.921533,-3.347571,1.3945789,5.974464
0.15109566,4.075555,4.0724697,-2.9293928,2.921533,-3.3072739,1.4141693,5.937949
0.15631686,4.080811,4.051164,-2.9560246,2.9534912,-2.806394,1.2657342,5.9208493
0.15966426,4.0841875,4.051164,-2.9560246,2.9534912,-2.7738643,1.2808743,5.891281
0.16377707,4.0882998,4.025598,-2.9720035,2.9758618,-2.2311406,1.1888618,5.6252594
0.1679291,4.0924597,4.025598,-2.9720035,2.9758618,-2.190846,1.2069044,5.58852
0.17212857,4.096642,3.996836,-2.974134,2.9907753,-1.69522,1.0666842,5.3071947
0.17632918,4.1008353,3.996836,-2.974134,2.9907753,-1.6545119,1.0842276,5.269846
0.1805243,4.1050086,3.9638126,-2.961351,2.9992974,-1.0871615,1.0630467,4.9021177
0.18470785,4.1091795,3.9638126,-2.961351,2.9992974,-1.0466809,1.0798645,4.8646736
0.18885975,4.113327,3.9275937,-2.9283276,2.9918406,-0.5037551,0.95263696,4.219182
0.19301225,4.117486,3.9275937,-2.9283276,2.9918406,-0.46363688,0.9688084,4.1815968
0.1971069,4.121606,3.8839178,-2.8750644,2.9684048,-0.1272285,0.9749769,3.5456955
0.20119765,4.125733,3.8839178,-2.8750644,2.9684048,-0.087769985,0.99045944,3.5081694
0.20520368,4.129814,3.8295894,-2.8026264,2.9268596,0.23814273,0.94807327,2.7622957
0.20919733,4.133894,3.8295894,-2.8026264,2.9268596,0.27659798,0.96285975,2.7250085
0.21306305,4.1379128,3.7624776,-2.712079,2.86827,0.62982595,0.9485224,1.9268885
0.21692638,4.141942,3.7624776,-2.712079,2.86827,0.6669669,0.9626882,1.8899364
0.22055893,4.145814,3.6761913,-2.6044872,2.8022237,1.2764679,0.9330775,0.9494139
0.22419345,4.149694,3.6761913,-2.6044872,2.8022237,1.3113505,0.9463412,0.91373277
0.22768115,4.1533837,3.5696647,-2.4766555,2.723394,1.9433471,0.8006351,0.046496868
0.23115656,4.1570663,3.5696647,-2.4766555,2.723394,1.9766508,0.8126937,0.012437582
0.2345067,4.160596,3.4397025,-2.3264532,2.630716,2.4013758,0.7521646,-0.8965888
0.23784523,4.1641197,3.4397025,-2.3264532,2.630716,2.433315,0.7632332,-0.9293443
0.24102034,4.1674514,3.2852392,-2.1560109,2.5284507,2.8371615,0.9649911,-1.9037184
0.24419077,4.1707835,3.2852392,-2.1560109,2.5284507,2.8674436,0.97502923,-1.9348412
0.24717855,4.173907,3.10734,-1.9663938,2.4155326,3.3652277,1.573199,-2.8068407
0.25016505,4.1770334,3.10734,-1.9663938,2.4155326,3.3937094,1.5822372,-2.8361638
0.2529548,4.179914,2.901744,-1.7586673,2.2940924,3.559158,2.4953322,-3.7443428
0.25574628,4.182801,2.901744,-1.7586673,2.2940924,3.5857449,2.5032978,-3.7715473
0.25830603,4.1854,2.6631248,-1.5360271,2.1609344,4.0027547,3.6019926,-4.5239773
0.26088056,4.188018,2.6631248,-1.5360271,2.1609344,4.027239,3.60886,-4.5487704
0.26321408,4.190318,2.3882866,-1.2995383,2.0171237,4.284047,4.562734,-5.020795
0.26554012,4.192613,2.3882866,-1.2995383,2.0171237,4.306138,4.5683923,-5.0426807
0.26761764,4.1945586,2.076164,-1.052397,1.8647908,4.469515,5.3246565,-5.41094
0.26969722,4.1965075,2.076164,-1.052397,1.8647908,4.489244,5.3290677,-5.4296927
0.27150765,4.198062,1.725692,-0.79779875,1.7028706,4.616542,5.6961064,-5.5502133
0.27332196,4.1996207,1.725692,-0.79779875,1.7028706,4.6337376,5.69918,-5.5654407
0.27486658,4.200754,1.3443273,-0.5378742,1.5388199,4.466408,5.6960654,-5.5816073
0.27640682,4.2018847,1.3443273,-0.5378742,1.5388199,4.4809923,5.697703,-5.5929627
0.27768117,4.202571,0.9363311,-0.27688444,1.3705082,4.272786,5.5590158,-5.3034196
0.27895314,4.2032547,0.9363311,-0.27688444,1.3705082,4.284823,5.5591745,-5.3107476
0.279954,4.203475,0.5123558,-0.020155702,1.2011311,4.0309258,5.2848754,-4.9595466
0.28095284,4.203694,0.5123558,-0.020155702,1.2011311,4.040368,5.2835054,-4.96268
0.2816856,4.2034416,0.079858445,0.22805092,1.0306888,3.6881688,5.0076594,-4.5210376
0.2824173,4.203189,0.079858445,0.22805092,1.0306888,3.6950827,5.0047436,-4.519929
0.2828908,4.202464,-0.35476944,0.46667016,0.86131173,3.124951,4.7177563,-4.16024
0.28336224,4.2017407,-0.35476944,0.46667016,0.86131173,3.1294038,4.7132854,-4.154912
0.2835835,4.2005463,-0.78620154,0.6935715,0.69513047,2.8202484,4.774271,-3.6808932
0.28380305,4.1993537,-0.78620154,0.6935715,0.69513047,2.8223205,4.7682204,-3.6713734
0.28377843,4.197703,-1.2133726,0.90342855,0.5300145,2.5491507,4.7749805,-3.1932821
0.28375202,4.1960535,-1.2133726,0.90342855,0.5300145,2.5488977,4.7673583,-3.1796908
0.28349048,4.1939545,-1.6373478,1.1005025,0.35957217,1.9095695,4.6001587,-2.630588
0.2832266,4.191858,-1.6373478,1.1005025,0.35957217,1.9070816,4.590962,-2.6130311
0.2827412,4.1893144,-2.0570621,1.2858585,0.19232565,1.1938095,4.522676,-2.131845
0.2822536,4.186777,-2.0570621,1.2858585,0.19232565,1.1892033,4.511831,-2.1104188
0.28155634,4.1838045,-2.4703846,1.4531051,0.03040546,0.6080049,4.3652735,-1.6207035
0.2808568,4.18084,-2.4703846,1.4531051,0.03040546,0.60139155,4.3527513,-1.5955563
0.27996212,4.1774545,-2.8762505,1.6022421,-0.12725368,0.07099533,4.080002,-1.068757
0.2790652,4.174078,-2.8762505,1.6022421,-0.12725368,0.06251001,4.0657673,-1.0400667
0.2779969,4.1703,-3.269333,1.7354001,-0.2731949,-0.5030509,3.8583279,-0.58175874
0.27692637,4.1665325,-3.269333,1.7354001,-0.2731949,-0.5131818,3.842344,-0.5497582
0.2757098,4.1623893,-3.6496325,1.855775,-0.40422243,-1.1567669,3.532608,-0.050097942
0.27449468,4.1582704,-3.6496325,1.855775,-0.40422243,-1.1682745,3.5149183,-0.015186787
0.27313825,4.1537886,-4.0128875,1.9612362,-0.5203363,-1.6503892,3.1460063,0.59738255
0.27178034,4.1493254,-4.0128875,1.9612362,-0.5203363,-1.6632569,3.1265547,0.63511336
0.27029076,4.1445494,-4.3559027,2.0528488,-0.61940587,-1.9359535,2.847032,1.1495028
0.26879448,4.139779,-4.3559027,2.0528488,-0.61940587,-1.9501472,2.8259072,1.1897041
0.26716924,4.1347146,-4.6765475,2.1316786,-0.70888805,-2.2289305,2.535171,1.6345558
0.2655364,4.129657,-4.6765475,2.1316786,-0.70888805,-2.2444298,2.5123878,1.6770315
0.2637822,4.1243286,-4.972691,2.1998553,-0.7866524,-2.4909332,2.1290607,2.2149088
0.26202336,4.1190176,-4.972691,2.1998553,-0.7866524,-2.5076468,2.1046882,2.2593284
0.2601487,4.1134186,-5.2453985,2.262706,-0.85376406,-2.6356018,1.8105934,2.5646167
0.25827307,4.107849,-5.2453985,2.262706,-0.85376406,-2.6534407,1.7845054,2.6109648
0.2562999,4.1020317,-5.493605,2.3180997,-0.91022307,-2.4902587,1.5223343,2.8459852
0.25432,4.096227,-5.493605,2.3180997,-0.91022307,-2.5091097,1.4945495,2.8940113
0.25225377,4.0902042,-5.722637,2.3692324,-0.962421,-2.3995047,1.149365,2.9484847
0.2501849,4.0842056,-5.722637,2.3692324,-0.962421,-2.4192238,1.1200075,2.9978054
0.24802274,4.077967,-5.939951,2.4182346,-1.0156842,-2.406323,0.71084785,2.8382363
0.24585573,4.0717483,-5.939951,2.4182346,-1.0156842,-2.427002,0.6797168,2.8890188
0.24360444,4.0653367,-6.146612,2.4619105,-1.0689474,-2.2282262,0.1301198,2.7065659
0.2413417,4.0589256,-6.146612,2.4619105,-1.0689474,-2.249841,0.09730101,2.7585425
0.23900191,4.0523453,-6.3447514,2.4981294,-1.1211454,-2.1429172,-0.6406555,2.5722752
0.23665541,4.045779,-6.3447514,2.4981294,-1.1211454,-2.1653564,-0.6750355,2.6251037
0.23421647,4.039007,-6.5311728,2.5290222,-1.1786697,-2.4185367,-1.7499673,2.4112196
0.23177595,4.0322623,-6.5311728,2.5290222,-1.1786697,-2.4419045,-1.7860866,2.4650323
0.22925863,4.025357,-6.7069416,2.5545886,-1.236194,-2.6814961,-2.8386207,2.4049768
0.22673795,4.0184717,-6.7069416,2.5545886,-1.236194,-2.7056568,-2.876329,2.459424
0.22415264,4.0114145,-6.8688617,2.5726979,-1.288392,-3.4056168,-3.9162178,2.0887914
0.22156143,4.0043716,-6.8688617,2.5726979,-1.288392,-3.4304845,-3.9557014,2.1439397
0.21890694,3.997194,-7.014803,2.5780244,-1.3405899,-3.3602045,-5.1503935,1.9508615
0.21625528,3.9900522,-7.014803,2.5780244,-1.3405899,-3.385684,-5.1913357,2.0062137
0.21353984,3.9827628,-7.144765,2.5726979,-1.3906573,-3.4165769,-6.6509633,1.8612924
0.21080351,3.9754443,-7.144765,2.5726979,-1.3906573,-3.4429004,-6.693874,1.9173927
0.2080782,3.9681568,-7.259814,2.5673716,-1.433268,-3.6750298,-7.847989,1.8436351
0.2053188,3.9608026,-7.259814,2.5673716,-1.433268,-3.7016063,-7.892074,1.8993492
0.20252691,3.953363,-7.356753,2.5684369,-1.4684216,-4.0589075,-8.751195,1.6201706
0.19972585,3.9459226,-7.356753,2.5684369,-1.4684216,-4.0859165,-8.796782,1.6758356
0.19689633,3.938413,-7.4366474,2.5705674,-1.4939879,-4.1610937,-9.604641,1.5449047
0.194061,3.9309096,-7.4366474,2.5705674,-1.4939879,-4.1884623,-9.651601,1.6003132
0.1911999,3.923345,-7.5005636,2.569502,-1.514228,-4.048503,-10.24532,1.5791769
0.1883219,3.9157565,-7.5005636,2.569502,-1.514228,-4.0763125,-10.293806,1.6344461
0.18534622,3.9079132,-7.5516963,2.5663064,-1.5280764,-3.908759,-11.010039,1.7964993
0.18249527,3.900417,-7.584719,2.5577843,-1.5440555,-3.9363403,-11.058927,1.8503017
0.17964639,3.8929353,-7.584719,2.5577843,-1.5440555,-3.8250523,-11.6205635,2.3393555
0.1767611,3.8853753,-7.584719,2.5577843,-1.5440555,-3.8529916,-11.670833,2.3928194
0.17386517,3.8777924,-7.6006985,2.5428705,-1.5579039,-3.8044362,-12.253251,2.8626194
0.17095664,3.870192,-7.6006985,2.5428705,-1.5579039,-3.832633,-12.304751,2.9155369
0.16804706,3.8626044,-7.58898,2.5215652,-1.570687,-3.7602968,-12.658315,3.5090332
0.16511945,3.8549836,-7.58898,2.5215652,-1.570687,-3.7887058,-12.710905,3.5612392
0.16219638,3.8474066,-7.5474353,2.4896073,-1.5887965,-3.668645,-12.94083,4.30704
0.1592879,3.8398793,-7.5474353,2.4896073,-1.5887965,-3.6968946,-12.9936905,4.357753
0.15641017,3.8324876,-7.473932,2.4501927,-1.6132976,-3.614727,-13.194474,5.307368
0.1535042,3.8250327,-7.473932,2.4501927,-1.6132976,-3.6429768,-13.247699,5.3567557
0.15062845,3.8177285,-7.369536,2.4065168,-1.6388639,-3.7954483,-13.424755,6.4438324
0.14774546,3.8104134,-7.369536,2.4065168,-1.6388639,-3.8235006,-13.477813,6.4914737
0.14488453,3.8032303,-7.238508,2.3543189,-1.6644303,-4.224848,-13.58297,7.7253866
0.14202271,3.7960503,-7.238508,2.3543189,-1.6644303,-4.252713,-13.635828,7.7713356
0.13919362,3.7890391,-7.0776534,2.294664,-1.6899966,-4.926717,-13.965538,9.180527
0.13636434,3.7820306,-7.0776534,2.294664,-1.6899966,-4.9542913,-14.01787,9.224594
0.13358554,3.7752295,-6.8848405,2.2232912,-1.7102367,-5.828932,-13.872665,10.45931
0.1308017,3.7684164,-6.8848405,2.2232912,-1.7102367,-5.8560867,-13.924226,10.501391
0.12809606,3.7618406,-6.6590047,2.1327438,-1.7187588,-9.186489,-15.578424,12.461798
0.12539133,3.7552664,-6.6590047,2.1327438,-1.7187588,-9.212889,-15.628817,12.501667
0.12279413,3.748974,-6.3841662,1.9974551,-1.7091714,-7.1074066,-16.539257,17.260849
0.120198615,3.7426825,-6.3841662,1.9974551,-1.7091714,-7.132757,-16.588066,17.298307
0.11772548,3.7367287,-6.0464773,1.891994,-1.6708219,-13.2046795,-16.902672,17.692583
0.11525417,3.7307754,-6.0464773,1.891994,-1.6708219,-13.228834,-16.949373,17.727402
0.11525417,3.7307754,-6.0464773,1.891994,-1.6708219,-13.228834,-16.949373,17.727402
0.10926119,3.7161005,-5.6363506,1.6736147,-1.6282113,-15.61459,-17.79345,19.751083
0.108429454,3.7139282,-5.1686997,1.319947,-1.5760133,-14.961939,-18.21305,21.649992
0.10655901,3.7090383,-5.1686997,1.319947,-1.5760133,-14.98023,-18.252258,21.67746
0.10492953,3.7042727,-4.638198,0.89916754,-1.5057058,-13.9427185,-19.416008,24.02623
0.10342831,3.6998715,-4.638198,0.89916754,-1.5057058,-13.957426,-19.451683,24.050438
0.1023196,3.6960523,-4.042715,0.4677354,-1.4290068,-11.976295,-19.343967,25.574684
0.10119761,3.692174,-4.042715,0.4677354,-1.4290068,-11.98728,-19.375702,25.595572
0.10041722,3.6888173,-3.39823,0.07997916,-1.349112,-10.687681,-18.87181,26.178402
0.0996847,3.6856508,-3.39823,0.07997916,-1.349112,-10.694855,-18.89794,26.19511
0.0992325,3.6830335,-2.724983,-0.22894754,-1.2692171,-9.799061,-18.752062,26.9605
0.09879052,3.6804562,-2.724983,-0.22894754,-1.2692171,-9.8033905,-18.773483,26.973845
0.09879052,3.6804562,-2.0282998,-0.46437097,-1.1925181,-9.8033905,-18.773483,26.973845
0.098280884,3.675546,-2.0282998,-0.46437097,-1.1925181,-9.707821,-18.46979,27.324455
0.09829158,3.6743503,-1.3124422,-0.64866173,-1.1147538,-9.894468,-17.871754,26.856352
0.09829435,3.674067,-1.3124422,-0.64866173,-1.1147538,-9.8944435,-17.874153,26.857758
0.09847258,3.6736825,-0.578475,-0.8052556,-1.0369896,-9.801706,-16.977251,26.179556
0.09865916,3.6732812,-0.578475,-0.8052556,-1.0369896,-9.799889,-16.980738,26.1814
0.0990065,3.6736238,0.16614486,-0.94480526,-0.96135575,-10.50996,-16.02034,25.116386
0.099353395,3.6739671,0.16614486,-0.94480526,-0.96135575,-10.506561,-16.017609,25.114388
0.099863686,3.6750593,0.9139605,-1.0875506,-0.8814609,-10.266935,-15.060551,24.385475
0.10104231,3.6779892,1.6564498,-1.2281656,-0.8026313,-10.437357,-14.078785,23.120077
0.10104231,3.6779892,1.6564498,-1.2281656,-0.8026313,-10.437357,-14.078785,23.120077
0.10171093,3.679831,1.6564498,-1.2281656,-0.8026313,-10.430807,-14.063631,23.110275
0.10253233,3.6823997,2.3872213,-1.3687805,-0.7301934,-9.761969,-13.060865,22.234737
0.10335521,3.6849852,2.3872213,-1.3687805,-0.7301934,-9.753916,-13.039618,22.220974
0.10431679,3.6882687,3.0988178,-1.4987428,-0.6609512,-9.43804,-12.227337,21.2793
0.105274,3.691554,3.0988178,-1.4987428,-0.6609512,-9.4286785,-12.200422,21.261707
0.106353335,3.6955223,3.7848482,-1.6052692,-0.59170896,-9.413326,-11.4065895,20.402424
0.10743055,3.6995044,3.7848482,-1.6052692,-0.59170896,-9.402792,-11.374096,20.380907
0.10861286,3.7041292,4.4357247,-1.6915556,-0.5203363,-9.903582,-10.752247,19.627964
0.10979017,3.7087607,4.4357247,-1.6915556,-0.5203363,-9.892067,-10.714661,19.602648
0.11107653,3.7140083,5.051448,-1.7757115,-0.44150668,-10.482826,-10.380104,18.812431
0.112354636,3.719253,5.051448,-1.7757115,-0.44150668,-10.470329,-10.33783,18.783363
0.113760926,3.7250922,5.633082,-1.8779769,-0.3573508,-10.600225,-10.185602,18.08515
0.11515673,3.7309227,5.633082,-1.8779769,-0.3573508,-10.586584,-10.139002,18.052307
0.11670339,3.737318,6.1827583,-2.0047433,-0.26786858,-10.451752,-9.891798,17.278517
0.11823987,3.743711,6.1827583,-2.0047433,-0.26786858,-10.436743,-9.841206,17.24184
0.11993527,3.750627,6.7015424,-2.1432278,-0.17412531,-10.161604,-9.705374,16.426025
0.121619545,3.7575405,6.7015424,-2.1432278,-0.17412531,-10.145153,-9.651266,16.385567
0.12347311,3.7649572,7.191564,-2.2944953,-0.08251257,-9.959452,-9.4116335,15.527653
0.12533104,3.7724378,7.191564,-2.2944953,-0.08251257,-9.9413185,-9.353827,15.482962
0.12733601,3.7802887,7.6528234,-2.4521544,0.009100171,-9.88822,-9.04459,14.68373
0.12933569,3.7881684,7.6528234,-2.4521544,0.009100171,-9.86871,-8.984543,14.635632
0.13151635,3.796509,8.081059,-2.6130095,0.10177818,-10.1060095,-8.576729,13.755725
0.1336889,3.804872,8.081059,-2.6130095,0.10177818,-10.084811,-8.513967,13.703531
0.13603368,3.8136163,8.476273,-2.7823865,0.19339092,-10.090687,-8.137693,12.829494
0.13832764,3.8222272,8.476273,-2.7823865,0.19339092,-10.068321,-8.074159,12.774545
0.14084107,3.8313732,8.838463,-2.9592204,0.27861208,-9.521896,-7.686514,12.078628
0.14336176,3.840609,8.838463,-2.9592204,0.27861208,-9.497342,-7.619631,12.018356
0.14602406,3.8500884,9.167629,-3.1296628,0.35850692,-9.696475,-7.2500334,11.112992
0.14867248,3.859586,9.167629,-3.1296628,0.35850692,-9.670696,-7.1826267,11.049613
0.15147364,3.8693783,9.464838,-3.292648,0.43520597,-9.700906,-6.9654694,10.231717
0.15426236,3.8792,9.464838,-3.292648,0.43520597,-9.673781,-6.897256,10.164719
0.15719783,3.8892765,9.730089,-3.4588294,0.5087092,-9.219076,-6.406743,9.257208
0.16012236,3.8993945,9.730089,-3.4588294,0.5087092,-9.190661,-6.338107,9.186684
0.16318773,3.9097567,9.963382,-3.6164885,0.5790166,-8.638954,-5.8712835,8.404942
0.1662316,3.920131,9.963382,-3.6164885,0.5790166,-8.609414,-5.802662,8.331086
0.16941018,3.930724,10.163651,-3.7581687,0.64719355,-9.263315,-5.3983793,6.827886
0.1725657,3.94133,10.163651,-3.7581687,0.64719355,-9.232721,-5.3300915,6.7508116
0.17582597,3.95213,10.329833,-3.888131,0.7047179,-7.1277437,-4.6007633,6.139989
0.17906143,3.9629443,10.329833,-3.888131,0.7047179,-7.096407,-4.5330915,6.059849
0.1824295,3.9740045,10.456599,-4.004245,0.7633074,-7.806008,-4.7666464,5.0863943
0.18575755,3.985036,10.456599,-4.004245,0.7633074,-7.773813,-4.699708,5.003068
0.18908341,3.9959497,10.550343,-4.0809436,0.8176359,-6.8797474,-4.313738,3.8568206
0.19243601,4.0070567,10.550343,-4.0809436,0.8176359,-6.847357,-4.2484603,3.7714224
0.19584505,4.0182357,10.6046715,-4.145925,0.86344224,-7.068226,-4.5526047,2.4301243
0.19936022,4.029879,10.6046715,-4.145925,0.86344224,-7.0343094,-4.486486,2.3390493
0.20271868,4.040926,10.625977,-4.199188,0.89966124,-6.5135117,-4.779247,1.1266165
0.20603196,4.0519323,10.625977,-4.199188,0.89966124,-6.481589,-4.7189317,1.0391378
0.20944144,4.063185,10.623846,-4.2535167,0.9220318,-5.357004,-4.787723,-0.47795105
0.21282439,4.0744653,10.623846,-4.2535167,0.9220318,-5.324454,-4.728176,-0.5689583
0.21624081,4.085749,10.60041,-4.293997,0.93801075,-4.0418363,-4.190997,-2.0780697
0.2196274,4.097047,10.554604,-4.3046494,0.9326845,-3.6130693,-3.2209651,-3.86696
0.22299297,4.108247,10.554604,-4.3046494,0.9326845,-3.6130693,-3.2209651,-3.86696
0.22628716,4.119347,10.554604,-4.3046494,0.9326845,-3.5814714,-3.166933,-3.9589944
0.2295598,4.1306863,10.475774,-4.289736,0.9071181,-3.2484326,-2.0640965,-5.8826733
0.23270191,4.1417217,10.475774,-4.289736,0.9071181,-3.2183342,-2.0124464,-5.975168
0.23573987,4.1526766,10.355399,-4.2620387,0.8698338,-2.4039602,-0.597455,-7.5997143
0.23874514,4.16366,10.355399,-4.2620387,0.8698338,-2.375214,-0.54807925,-7.6926975
0.24163459,4.174486,10.181762,-4.210906,0.826158,-1.2702131,1.2665434,-9.460708
0.24448907,4.1853304,10.181762,-4.210906,0.826158,-1.2429447,1.3133011,-9.5533695
0.24720335,4.195936,9.944207,-4.1246195,0.7686337,0.08061504,3.7187972,-11.669861
0.249881,4.206548,9.944207,-4.1246195,0.7686337,0.1061573,3.762658,-11.761307
0.25239033,4.216849,9.619302,-3.9957225,0.69299996,2.055007,6.825881,-14.292463
0.2548645,4.2271543,9.619302,-3.9957225,0.69299996,2.07858,6.866728,-14.381935
0.25712657,4.2370124,9.184673,-3.8178234,0.5928651,4.465576,10.122888,-17.11575
0.25935808,4.246884,9.184673,-3.8178234,0.5928651,4.486808,10.160461,-17.202003
0.26134092,4.2561693,8.617953,-3.5994444,0.46183756,6.636505,13.144886,-20.027073
0.26329604,4.265466,8.617953,-3.5994444,0.46183756,6.6550884,13.178957,-20.108746
0.26496685,4.2740183,7.8978343,-3.3554988,0.29565632,8.787424,15.972773,-22.535099
0.2666129,4.28258,7.8978343,-3.3554988,0.29565632,8.803057,16.003101,-22.610638
0.2679496,4.2902193,7.011534,-3.0891826,0.096451856,8.327326,17.729786,-24.478529
0.26926535,4.297866,7.011534,-3.0891826,0.096451856,8.339813,17.756119,-24.546207
0.27026293,4.3043575,5.9643793,-2.8132792,-0.10701366,6.9510593,19.468641,-26.241325
0.2712625,4.3109784,5.9643793,-2.8132792,-0.10701366,6.960535,19.49094,-26.300062
0.271928,4.316275,4.7819357,-2.558681,-0.32326233,9.217398,21.021952,-28.338991
0.27291268,4.3256817,3.4801826,-2.297691,-0.5682732,10.447767,22.695976,-29.782295
0.27291268,4.3256817,3.4801826,-2.297691,-0.5682732,10.447767,22.695976,-29.782295
0.27339938,4.332019,3.4801826,-2.297691,-0.5682732,10.452383,22.717249,-29.838469
0.27337524,4.3331437,2.0687072,-2.0143309,-0.833524,11.826416,23.429937,-30.341547
0.27331614,4.3357077,2.0687072,-2.0143309,-0.833524,11.825861,23.439049,-30.364065
0.2728605,4.33676,0.5784022,-1.7085998,-1.1179496,11.960407,23.592274,-29.88448
0.2724358,4.337735,0.5784022,-1.7085998,-1.1179496,11.956387,23.596714,-29.892666
0.27160168,4.337165,-0.9523828,-1.3858247,-1.4130279,11.354706,22.696556,-28.004986
0.2707843,4.3366036,-0.9523828,-1.3858247,-1.4130279,11.346973,22.696625,-27.999245
0.26957852,4.3344812,-2.4810374,-1.0673107,-1.7113019,9.942108,20.704962,-25.163784
0.26834184,4.332297,-2.4810374,-1.0673107,-1.7113019,9.930376,20.700308,-25.143337
0.2667409,4.328613,-3.9553633,-0.7647756,-2.002119,8.866523,18.282574,-21.982521
0.26516742,4.32498,-3.9553633,-0.7647756,-2.002119,8.85158,18.273363,-21.949032
0.26318815,4.319798,-5.3327503,-0.47928467,-2.275892,7.5973663,15.769378,-18.918398
0.26126412,4.3147445,-5.3327503,-0.47928467,-2.275892,7.57909,15.755434,-18.872171
0.25896606,4.308258,-6.5918927,-0.20444645,-2.5240986,6.0393124,13.093519,-15.916136
0.2566981,4.301837,-6.5918927,-0.20444645,-2.5240986,6.0177364,13.074541,-15.857784
0.2541768,4.2943516,-7.725334,0.057608604,-2.7371516,4.557209,10.341355,-12.840368
0.2515943,4.2866635,-7.725334,0.057608604,-2.7371516,4.5326014,10.317158,-12.770939
0.2488307,4.278125,-8.728813,0.31007627,-2.9097245,2.5094957,7.483346,-10.079675
0.24601647,4.269409,-9.597004,0.53910816,-3.0375562,2.482646,7.454172,-10.001509
0.24307424,4.259986,-9.597004,0.53910816,-3.0375562,0.50088644,4.7879252,-7.2167215
0.24006878,4.2503395,-9.597004,0.53910816,-3.0375562,0.4721732,4.7535863,-7.130895
0.23697458,4.2400155,-10.330971,0.7329863,-3.1185162,-1.5733302,2.0627742,-4.42027
0.23387101,4.2296357,-10.330971,0.7329863,-3.1185162,-1.6030254,2.0234537,-4.3287888
0.23085913,4.2190123,-10.932845,0.8981023,-3.1440825,-3.135425,-0.51297677,-1.5159268
0.22780484,4.2082157,-10.932845,0.8981023,-3.1440825,-3.1646955,-0.5564704,-1.4218051
0.22467455,4.197009,-11.403692,1.0397824,-3.11319,-4.4684258,-2.7815998,1.2132158
0.22152755,4.185732,-11.403692,1.0397824,-3.11319,-4.498626,-2.8295255,1.3104858
0.21841018,4.174236,-11.75736,1.1612226,-3.027969,-5.2755527,-4.5796766,3.5925097
0.21528277,4.1626887,-11.75736,1.1612226,-3.027969,-5.305604,-4.6314363,3.6908855
0.21218735,4.1508446,-12.005567,1.2709448,-2.9012024,-5.4215612,-6.2757716,6.05118
0.20910339,4.1390305,-12.005567,1.2709448,-2.9012024,-5.451237,-6.3315244,6.1504555
0.20608917,4.127017,-12.16003,1.3838629,-2.7339559,-5.1738024,-7.720914,8.209054
0.20307915,4.1150103,-12.16003,1.3838629,-2.7339559,-5.2028036,-7.780413,8.308447
0.20010245,4.1026764,-12.229272,1.513825,-2.5379472,-4.9154644,-8.906094,9.985056
0.19722478,4.090749,-12.229272,1.513825,-2.5379472,-4.943224,-8.967978,10.082213
0.19439054,4.0786166,-12.221815,1.6576358,-2.32809,-4.731162,-9.832023,11.712469
0.19156244,4.066515,-12.221815,1.6576358,-2.32809,-4.7584734,-9.897519,11.809409
0.18879975,4.0544014,-12.141921,1.8089033,-2.113972,-4.464348,-10.390622,13.030845
0.1860382,4.042307,-12.141921,1.8089033,-2.113972,-4.491041,-10.458691,13.126045
0.18334533,4.0303097,-12.002371,1.9612362,-1.8998537,-4.2345743,-10.723834,14.02406
0.18064867,4.0183187,-12.002371,1.9612362,-1.8998537,-4.260668,-10.793809,14.116745
0.17800637,4.0064826,-11.807427,2.11783,-1.6899966,-3.9558535,-11.050844,14.983108
0.17535815,3.9946527,-11.807427,2.11783,-1.6899966,-3.9815073,-11.122227,15.072866
0.17274548,3.9830296,-11.562417,2.2797503,-1.4897269,-3.595026,-11.131214,15.787514
0.17012739,3.9714243,-11.562417,2.2797503,-1.4897269,-3.620411,-11.203428,15.873924
0.16750886,3.9600322,-11.276926,2.4587147,-1.3043709,-3.894804,-11.117285,16.518211
0.16488534,3.94867,-11.276926,2.4587147,-1.3043709,-3.9202652,-11.189989,16.60122
0.16224143,3.9376159,-10.954151,2.6557887,-1.1381897,-4.4965973,-10.710927,17.126589
0.15957737,3.9265358,-10.954151,2.6557887,-1.1381897,-4.522478,-10.783657,17.206032
0.15686938,3.9157906,-10.597287,2.8539279,-0.98905265,-4.970171,-10.543718,17.775618
0.15415303,3.9050748,-10.597287,2.8539279,-0.98905265,-4.9965744,-10.615702,17.851023
0.15415303,3.9050748,-10.597287,2.8539279,-0.98905265,-4.9965744,-10.615702,17.851023
0.15415303,3.9050748,-10.597287,2.8539279,-0.98905265,-4.9965744,-10.615702,17.851023
0.14300871,3.8661387,-9.778099,3.2299662,-0.7280628,-5.2869854,-11.338377,19.714102
0.1407611,3.8587196,-9.311513,3.3993433,-0.61727536,-5.5195675,-11.802406,20.870266
0.13960275,3.8549938,-9.311513,3.3993433,-0.61727536,-5.530859,-11.8287735,20.895283
0.13655573,3.8452387,-9.311513,3.3993433,-0.61727536,-5.5605564,-11.898281,20.960285
0.13357188,3.836391,-8.799121,3.5463498,-0.52353203,-5.876953,-12.861975,22.10101
0.13051967,3.8274,-8.799121,3.5463498,-0.52353203,-5.906725,-12.927084,22.159904
0.12740642,3.8189373,-8.236661,3.6571372,-0.44257197,-5.9658356,-13.869797,23.124786
0.12421711,3.8103242,-8.236661,3.6571372,-0.44257197,-5.9969654,-13.93309,23.18028
0.12103416,3.8024201,-7.623069,3.7295752,-0.36693817,-5.544424,-14.522995,23.96833
0.11791775,3.7947283,-7.623069,3.7295752,-0.36693817,-5.574871,-14.580265,24.017115
0.114720285,3.7875276,-6.9636703,3.7785773,-0.29556546,-5.4337387,-15.165611,24.641985
0.11173181,3.7808354,-6.9636703,3.7785773,-0.29556546,-5.462963,-15.216005,24.683859
0.10857845,3.774466,-6.261661,3.8126657,-0.22525801,-5.5081673,-15.632797,25.039642
0.10857845,3.774466,-6.261661,3.8126657,-0.22525801,-5.5081673,-15.632797,25.039642
0.09988081,3.7572348,-5.524498,3.8286448,-0.15388529,-5.8231277,-15.706955,25.08318
0.09913137,3.7559054,-5.524498,3.8286448,-0.15388529,-5.830467,-15.717167,25.09129
0.095909484,3.7508917,-4.763899,3.8179922,-0.086773634,-6.144535,-15.674187,24.758097
0.092740305,3.7459846,-4.763899,3.8179922,-0.086773634,-6.175579,-15.711996,24.78792
0.089620404,3.7418423,-3.986256,3.7828383,-0.013270383,-6.4072647,-15.585838,24.25298
0.086488545,3.7377038,-3.986256,3.7828383,-0.013270383,-6.4379654,-15.617846,24.278069
0.083458625,3.7343903,-3.1926339,3.7263794,0.0591676,-6.8040276,-15.396051,23.719978
0.08040944,3.731071,-3.1926339,3.7263794,0.0591676,-6.8040276,-15.396051,23.719978
0.07664637,3.7278666,-2.3926203,3.6486151,0.13160558,-7.31979,-14.932194,22.992851
0.074322954,3.7258973,-2.3926203,3.6486151,0.13160558,-7.342581,-14.947338,23.004955
0.071336985,3.724111,-1.5883456,3.5527413,0.21256568,-7.774111,-14.438854,22.317286
0.06877803,3.722588,-1.5883456,3.5527413,0.21256568,-7.7992344,-14.450382,22.326977
0.06614202,3.7217243,-0.7883321,3.4366274,0.29885212,-8.471542,-13.834019,21.37062
0.06344765,3.7208474,-0.7883321,3.4366274,0.29885212,-8.498001,-13.840281,21.37677
0.06092601,3.7207718,0.0052899336,3.2885556,0.38726905,-8.642475,-13.270235,20.43515
0.05840671,3.7207017,0.0052899336,3.2885556,0.38726905,-8.667223,-13.270012,20.436771
0.056088787,3.7214196,0.78612876,3.108526,0.4788818,-9.097008,-12.727087,19.25605
0.053781644,3.7221394,0.78612876,3.108526,0.4788818,-9.11968,-12.720491,19.25322
0.05170025,3.7236302,1.5488582,2.8976038,0.57049453,-9.322088,-12.33416,18.163895
0.04961575,3.7251296,1.5488582,2.8976038,0.57049453,-9.342575,-12.321285,18.156652
0.047794208,3.7273731,2.293478,2.6589844,0.66104203,-9.70524,-11.981592,16.995995
0.045973595,3.7296247,2.293478,2.6589844,0.66104203,-9.723141,-11.962702,16.98444
0.04442896,3.732612,3.018923,2.3979945,0.75585055,-10.102243,-11.655401,15.85299
0.04289182,3.7355986,3.018923,2.3979945,0.75585055,-10.117346,-11.630667,15.837133
0.041658945,3.739295,3.7219977,2.1103733,0.858116,-10.287489,-11.279486,14.787662
0.04043315,3.7429936,3.7219977,2.1103733,0.858116,-10.299541,-11.249184,14.767551
0.03953733,3.7473679,4.400571,1.799316,0.9667729,-10.461575,-10.830498,13.598997
0.03864603,3.7517614,4.400571,1.799316,0.9667729,-10.470343,-10.794851,13.574608
0.038102794,3.7567997,5.0493174,1.473345,1.0860826,-10.413433,-10.237054,12.51199
0.03756791,3.7618444,5.0493174,1.473345,1.0860826,-10.4186945,-10.1965,12.483421
0.0373977,3.767492,5.6586485,1.1324605,1.2139143,-10.50656,-9.706046,11.359312
0.0372368,3.7731457,5.6586485,1.1324605,1.2139143,-10.508138,-9.661045,11.326663
0.037449434,3.7793684,6.2243037,0.78411895,1.3460071,-10.903484,-9.18086,9.997452
0.037671916,3.785591,6.2243037,0.78411895,1.3460071,-10.901298,-9.1318655,9.960802
0.03827529,3.792336,6.7420225,0.42299432,1.482361,-10.473987,-8.964176,9.436995
0.03896341,3.7998962,6.7420225,0.42299432,1.482361,-10.467221,-8.905363,9.391534
0.039817695,3.8060575,7.2107387,0.059739135,1.6240411,-10.090113,-7.2919493,8.999721
0.04086461,3.8135383,7.2107387,0.059739135,1.6240411,-10.079817,-7.2344713,8.953821
0.042224694,3.8210955,7.6208653,-0.27581918,1.7603949,-10.856536,-7.306139,7.7193937
0.04360236,3.8286974,7.6208653,-0.27581918,1.7603949,-10.842991,-7.2485495,7.67176
0.045373376,3.8366709,7.985186,-0.6742281,1.8860961,-9.5279255,-6.8295155,7.439246
0.047159977,3.8446753,7.985186,-0.6742281,1.8860961,-9.5103655,-6.7698193,7.3879924
0.049313325,3.852977,8.297309,-1.0342875,2.0107322,-10.260133,-6.038083,6.366943
0.05147624,3.861286,8.297309,-1.0342875,2.0107322,-10.238875,-5.977153,6.312565
0.053988434,3.8698626,8.560429,-1.3900858,2.119389,-10.908508,-5.7664366,5.915792
0.056506664,3.8784385,8.560429,-1.3900858,2.119389,-10.883768,-5.704712,5.858424
0.05937189,3.8872545,8.778808,-1.7629284,2.2141976,-9.869208,-5.527012,5.5641136
0.06223847,3.8960617,8.778808,-1.7629284,2.2141976,-9.841053,-5.4648914,5.503891
0.06543383,3.9050617,8.956707,-2.1304445,2.2994187,-8.923821,-5.205824,5.187831
0.06863126,3.914063,8.956707,-2.1304445,2.2994187,-8.8924265,-5.143715,5.1249223
0.07211242,3.923212,9.098388,-2.461742,2.3697262,-8.724184,-5.344739,4.868701
0.07560401,3.9323912,9.098388,-2.461742,2.3697262,-8.68992,-5.2828903,4.8031645
0.07930572,3.9416723,9.207045,-2.7536242,2.4208589,-5.4310093,-5.316941,4.8798184
0.08301251,3.950976,9.207045,-2.7536242,2.4208589,-5.394656,-5.2558126,4.8120136
0.08691966,3.960377,9.280547,-2.974134,2.4549475,-7.2860727,-5.1470184,3.2775016
0.09081502,3.9697647,9.280547,-2.974134,2.4549475,-7.2478933,-5.086979,3.2077012
0.09477668,3.979235,9.322093,-3.147772,2.461339,-2.128271,-6.1559486,4.4632874
0.0987197,3.9886832,9.322093,-3.147772,2.461339,-2.128271,-6.1559486,4.4632874
0.1027586,3.9981894,9.337007,-3.247907,2.44536,-5.445403,-6.930845,2.9828315
0.106789775,4.0077033,9.337007,-3.247907,2.44536,-5.4059534,-6.873347,2.9094892
0.11081125,4.0171967,9.335941,-3.3086271,2.4102063,-4.294016,-6.0315166,1.6577463
0.114835806,4.026727,9.335941,-3.3086271,2.4102063,-4.254664,-5.975608,1.5830646
0.11886337,4.0362577,9.303984,-3.3640208,2.349486,-3.8705394,-5.1161127,-0.00056505203
0.1228771,4.045789,9.303984,-3.3640208,2.349486,-3.8313313,-5.0619316,-0.07641888
0.12684906,4.055257,9.232611,-3.4098272,2.2663956,-2.643334,-4.1231008,-1.1052241
0.1308149,4.064743,9.232611,-3.4098272,2.2663956,-2.6046329,-4.0708866,-1.1818271
0.1347312,4.074048,9.1058445,-3.4236755,2.1566734,-1.8002943,-3.2591977,-2.5072927
0.13866659,4.0834246,9.1058445,-3.4236755,2.1566734,-1.7619293,-3.209333,-2.5840745
0.14235179,4.092457,8.920488,-3.4076967,2.0235152,-1.4913943,-1.7925211,-4.032711
0.1460654,4.101616,8.920488,-3.4076967,2.0235152,-1.4552307,-1.745322,-4.108572
0.14947501,4.110278,8.66589,-3.3682818,1.8669214,-0.77560854,0.22839713,-6.0864453
0.15290326,4.1190386,8.66589,-3.3682818,1.8669214,-0.74226046,0.27215552,-6.159748
0.15612829,4.127506,8.32394,-3.316084,1.6815654,0.3856411,2.2770839,-8.007407
0.15933748,4.1359835,8.32394,-3.316084,1.6815654,0.41682816,2.318128,-8.07901
0.16230866,4.1440763,7.8893123,-3.247907,1.470643,2.2987986,4.0183434,-9.497954
0.16525522,4.1521554,7.8893123,-3.247907,1.470643,2.327404,4.056294,-9.566756
0.16791904,4.1596904,7.352419,-3.1488373,1.2394806,3.9094868,5.4942265,-10.938373
0.1705731,4.1672497,7.352419,-3.1488373,1.2394806,3.9352264,5.5287275,-11.003214
0.17293592,4.174204,6.7143254,-3.0188751,0.9891435,4.901453,6.867321,-12.422938
0.17527503,4.181138,6.7143254,-3.0188751,0.9891435,4.924119,6.8981333,-12.482791
0.17730154,4.1873755,5.9824886,-2.869738,0.71963155,5.5327253,8.060412,-13.705116
0.17930692,4.193595,5.9824886,-2.869738,0.71963155,5.552141,8.087402,-13.759073
0.18097824,4.199025,5.1675615,-2.7142096,0.4309449,6.1142015,9.135503,-14.888434
0.1826379,4.204461,5.1675615,-2.7142096,0.4309449,6.1302643,9.158636,-14.93577
0.18394989,4.209015,4.2855225,-2.5522892,0.13693191,6.569128,9.982372,-15.679349
0.18525204,4.2135725,4.2855225,-2.5522892,0.13693191,6.5817204,10.001483,-15.719145
0.1862009,4.217197,3.3502204,-2.3797164,-0.16347267,6.595682,10.576923,-16.306232
0.18714206,4.2208242,3.3502204,-2.3797164,-0.16347267,6.6047792,10.592017,-16.337933
0.1877236,4.2234726,2.3755033,-2.1986215,-0.46707305,6.634342,10.904798,-16.566927
0.18830052,4.2261286,2.3755033,-2.1986215,-0.46707305,6.639927,10.9159,-16.590109
0.18851522,4.22778,1.3773506,-2.007939,-0.7706734,6.689888,11.143262,-16.709755
0.18872611,4.2294297,1.3773506,-2.007939,-0.7706734,6.691921,11.150333,-16.724052
0.18857014,4.230061,0.36428407,-1.8044736,-1.0753391,6.747883,11.119908,-16.743687
0.18841277,4.230693,0.36428407,-1.8044736,-1.0753391,6.746356,11.12299,-16.748966
0.18788767,4.230296,-0.65410876,-1.5946165,-1.3778741,6.937607,10.753366,-16.47218
0.18736395,4.2298994,-0.65410876,-1.5946165,-1.3778741,6.932536,10.752425,-16.468336
0.18647304,4.228466,-1.6650448,-1.3826289,-1.6750829,6.378045,10.105785,-15.880697
0.18559994,4.227055,-1.6650448,-1.3826289,-1.6750829,6.369605,10.10084,-15.867886
0.18437438,4.2246304,-2.6546755,-1.1738371,-1.9637696,5.4383802,9.526807,-14.950686
0.18315479,4.222206,-2.6546755,-1.1738371,-1.9637696,5.4265842,9.517729,-14.928953
0.18160957,4.218808,-3.6102176,-0.9767632,-2.2364774,4.358178,8.977901,-13.572278
0.1801199,4.215517,-4.5199533,-0.7935377,-2.4825535,4.3437595,8.965084,-13.542997
0.17828986,4.2111998,-4.5199533,-0.7935377,-2.4825535,3.5024319,8.31103,-11.919797
0.17641336,4.2067504,-4.5199533,-0.7935377,-2.4825535,3.4842634,8.293107,-11.880474
0.17432861,4.2015586,-5.3711,-0.62203014,-2.7019978,2.4010391,7.548705,-10.355165
0.1722701,4.1964054,-5.3711,-0.62203014,-2.7019978,2.3810835,7.52721,-10.309948
0.16997392,4.190426,-6.1572647,-0.4633057,-2.8948107,1.204813,6.5297475,-8.529076
0.1676728,4.184402,-6.1572647,-0.4633057,-2.8948107,1.1824894,6.503753,-8.476608
0.1651971,4.1776714,-6.8720574,-0.31949502,-3.05247,-0.03863144,5.535615,-6.694429
0.16270468,4.170858,-6.8720574,-0.31949502,-3.05247,-0.06283045,5.50515,-6.635582
0.16016893,4.1636353,-7.511216,-0.1969896,-3.1707141,-1.251039,4.37566,-4.667738
0.15761341,4.1563153,-7.511216,-0.1969896,-3.1707141,-1.2758675,4.341729,-4.605108
0.15498233,4.1484246,-8.06835,-0.09365895,-3.2506092,-2.3117955,3.0115325,-2.6513543
0.15236437,4.1405253,-8.06835,-0.09365895,-3.2506092,-2.3372521,2.9735405,-2.5844793
0.1497427,4.132212,-8.546653,-0.0052419985,-3.2889585,-3.3204358,1.591996,-0.3597622
0.14713418,4.123892,-8.546653,-0.0052419985,-3.2889585,-3.3458223,1.5504946,-0.29013318
0.14447865,4.115245,-8.943996,0.073587574,-3.2836323,-4.247953,0.0796628,1.8887072
0.1418347,4.1065884,-8.943996,0.073587574,-3.2836323,-4.2737036,0.035019875,1.9603164
0.13917874,4.097644,-9.2593155,0.14496028,-3.2324996,-5.013052,-1.4723883,4.1934004
0.13653494,4.0886893,-9.2593155,0.14496028,-3.2324996,-5.038821,-1.5201325,4.266548
0.13392244,4.0794773,-9.495804,0.21313721,-3.1366258,-5.57665,-2.9587564,6.6348953
0.13132769,4.070273,-9.495804,0.21313721,-3.1366258,-5.601959,-3.0094786,6.7090454
0.1288026,4.060894,-9.652397,0.28131413,-3.0024025,-5.7558837,-4.27831,8.957952
0.12629233,4.0515137,-9.652397,0.28131413,-3.0024025,-5.780385,-4.3316774,9.032409
0.123873636,4.042031,-9.732292,0.3548174,-2.8383517,-5.899767,-5.4064417,11.146917
0.12146892,4.0325475,-9.732292,0.3548174,-2.8383517,-5.923252,-5.4620647,11.221027
0.1191657,4.023034,-9.737618,0.43790802,-2.650865,-5.7542143,-6.1555824,13.229256
0.11687512,4.0135202,-9.737618,0.43790802,-2.650865,-5.776594,-6.2130136,13.30241
0.11468566,4.0040455,-9.672638,0.53165126,-2.4505954,-5.5106926,-6.7163506,15.03142
0.112511724,3.9945893,-9.672638,0.53165126,-2.4505954,-5.5319443,-6.77499,15.102929
0.11042709,3.9852114,-9.539479,0.639243,-2.2396731,-5.303334,-7.0302467,16.648062
0.10835197,3.9758334,-9.539479,0.639243,-2.2396731,-5.3236313,-7.0898857,16.71779
0.106360614,3.966631,-9.345601,0.7670747,-2.0223591,-5.199461,-7.32629,18.049759
0.10036887,3.9386263,-8.787403,1.0525656,-1.5951881,-5.234167,-7.568121,19.435402
0.10036887,3.9386263,-8.787403,1.0525656,-1.5951881,-5.234167,-7.568121,19.435402
0.10036887,3.9386263,-8.787403,1.0525656,-1.5951881,-5.234167,-7.568121,19.435402
0.09725383,3.9240417,-8.787403,1.0525656,-1.5951881,-5.293396,-7.709608,20.525358
0.09725383,3.9240417,-8.787403,1.0525656,-1.5951881,-5.293396,-7.709608,20.525358
0.094328724,3.9103856,-8.431604,1.2027678,-1.3906573,-5.432184,-7.8319187,21.588238
0.094328724,3.9103856,-8.431604,1.2027678,-1.3906573,-5.432184,-7.8319187,21.588238
0.08978334,3.8900707,-8.03,1.3519049,-1.1935834,-5.610794,-8.121994,22.513447
0.08878063,3.885592,-8.03,1.3519049,-1.1935834,-5.620619,-8.153624,22.543892
0.08769503,3.8809521,-7.5825887,1.4978461,-1.0050316,-5.794071,-8.473827,23.509052
0.08769503,3.8809521,-7.5825887,1.4978461,-1.0050316,-5.794071,-8.473827,23.509052
0.08317109,3.8616567,-7.093632,1.6352652,-0.8228714,-6.054405,-9.130835,24.566954
0.08263154,3.8594823,-7.093632,1.6352652,-0.8228714,-6.054405,-9.130835,24.566954
0.08263154,3.8594823,-7.093632,1.6352652,-0.8228714,-6.054405,-9.130835,24.566954
0.077616595,3.8393369,-7.093632,1.6352652,-0.8228714,-6.10359,-9.278393,24.698425
0.07574603,3.8328578,-5.988953,1.8749498,-0.47985622,-6.380514,-10.829887,26.243744
0.074562445,3.8287697,-5.988953,1.8749498,-0.47985622,-6.39213,-10.860283,26.269924
0.073578246,3.82567,-5.3742957,1.9708235,-0.32006654,-6.3730507,-11.687828,26.91223
0.07204183,3.8208437,-5.3742957,1.9708235,-0.32006654,-6.388138,-11.723923,26.94294
0.06924137,3.812971,-4.7202234,2.0517836,-0.1656032,-6.851364,-12.482117,27.251326
0.068667926,3.8113651,-4.7202234,2.0517836,-0.1656032,-6.8570004,-12.49423,27.261433
0.06702237,3.8073113,-4.0309973,2.105047,-0.020727234,-6.801325,-12.9126625,27.349188
0.06536501,3.8032436,-4.0309973,2.105047,-0.020727234,-6.8175983,-12.943462,27.374638
0.06376754,3.7998934,-3.3076825,2.133809,0.123083465,-6.3544426,-13.217821,27.20886
0.062165316,3.796546,-3.3076825,2.133809,0.123083465,-6.370178,-13.243252,27.229713
0.060634673,3.79394,-2.5609322,2.1487226,0.26689416,-6.351692,-13.330048,26.829422
0.059100058,3.791337,-2.5609322,2.1487226,0.26689416,-6.366768,-13.349842,26.845636
0.057637293,3.7894828,-1.8024639,2.1561797,0.4064438,-6.960535,-13.497921,26.26355
0.056177344,3.787639,-1.8024639,2.1561797,0.4064438,-6.9748745,-13.511883,26.275118
0.054801796,3.78656,-1.0322777,2.1487226,0.5406671,-7.62525,-13.668343,25.295685
0.05342577,3.7854853,-1.0322777,2.1487226,0.5406671,-7.6387615,-13.676338,25.302608
0.05215416,3.785185,-0.2546346,2.1125038,0.67169464,-7.6656246,-13.572952,24.275404
0.050888427,3.784889,-0.2546346,2.1125038,0.67169464,-7.6780663,-13.5749035,24.277664
0.049747095,3.7853727,0.5262042,2.0485878,0.7995264,-8.053204,-13.56119,22.891418
0.048599888,3.7858613,0.5262042,2.0485878,0.7995264,-8.064478,-13.557009,22.888977
0.047607753,3.7871215,1.3017168,1.9633667,0.9262929,-8.208303,-13.226006,21.560303
0.04662205,3.7883787,1.3017168,1.9633667,0.9262929,-8.217995,-13.215862,21.553234
0.045799915,3.7904053,2.063381,1.8536445,1.0519941,-8.51338,-12.878941,19.903877
0.04497851,3.7924414,2.063381,1.8536445,1.0519941,-8.521452,-12.862772,19.892056
0.044352777,3.7952163,2.8026743,1.7130296,1.1755648,-8.695192,-12.500944,18.252449
0.043735,3.7979815,2.8026743,1.7130296,1.1755648,-8.701269,-12.479235,18.236103
0.04333266,3.801465,3.5132058,1.5425873,1.2959397,-8.762688,-11.934887,16.850597
0.04293729,3.8049493,3.5132058,1.5425873,1.2959397,-8.766573,-11.907757,16.829685
0.042779386,3.8091097,4.186453,1.3433828,1.4109882,-8.806433,-11.305721,15.511615
0.042629655,3.8132706,4.186453,1.3433828,1.4109882,-8.807907,-11.273613,15.48628
0.042731177,3.818067,4.81922,1.1218078,1.51858,-8.792539,-10.46586,14.321959
0.04284658,3.82306,4.81922,1.1218078,1.51858,-8.79141,-10.4277,14.291101
0.043202113,3.82823,5.4051156,0.88318855,1.6155189,-9.012967,-9.588734,12.975568
0.043581743,3.8336098,5.4051156,0.88318855,1.6155189,-9.009233,-9.548027,12.941807
0.044230163,3.8395278,5.9345517,0.62432927,1.7028706,-9.045957,-8.636822,11.836523
0.04488879,3.845445,5.9345517,0.62432927,1.7028706,-9.039486,-8.592555,11.798794
0.045820612,3.851836,6.4043336,0.34949106,1.780635,-8.905826,-7.6256886,10.838293
0.046761718,3.8582196,6.4043336,0.34949106,1.780635,-8.896574,-7.5785236,10.7969055
0.04797754,3.8650224,6.81233,0.061869662,1.8456161,-8.889411,-6.6523466,9.785129
0.04920326,3.871824,6.81233,0.061869662,1.8456161,-8.877365,-6.602785,9.740271
0.05069561,3.8789754,7.15641,-0.23214333,1.8967488,-8.738201,-5.760996,8.81638
0.052198652,3.886133,7.15641,-0.23214333,1.8967488,-8.723429,-5.709613,8.768343
0.053956605,3.8935628,7.436575,-0.5293521,1.9372288,-8.639118,-5.0294514,8.066776
0.05572445,3.900999,7.436575,-0.5293521,1.9372288,-8.621746,-4.9769287,8.015976
0.05774084,3.9086647,7.6581497,-0.8254956,1.9670563,-8.410402,-4.1188393,6.971906
0.059763975,3.9163294,7.6581497,-0.8254956,1.9670563,-8.39053,-4.065649,6.9186063
0.06200912,3.9241726,7.8232656,-1.1141824,1.9851657,-7.348548,-3.614317,6.954526
0.06425946,3.9320154,7.8232656,-1.1141824,1.9851657,-7.326451,-3.5609055,6.8990173
0.06672277,3.9399683,7.9340534,-1.3751721,1.9958184,-9.471408,-2.8848267,5.1662526
0.069189794,3.9479213,7.9340534,-1.3751721,1.9958184,-9.447188,-2.831747,5.10897
0.07181094,3.9559717,7.997969,-1.6276398,1.9915574,-5.5141244,-3.3053274,5.7830944
0.074433945,3.9640226,7.997969,-1.6276398,1.9915574,-5.488383,-3.2527084,5.7241225
0.07720973,3.972105,8.021405,-1.8406926,1.9841005,-6.586423,-3.3345823,4.5822134
0.079985805,3.9801888,8.021405,-1.8406926,1.9841005,-6.5591903,-3.28292,4.5220118
0.08286094,3.9882715,8.008622,-2.0026128,1.965991,-6.5884542,-3.4617271,3.69038
0.0856862,3.9962192,8.008622,-2.0026128,1.965991,-6.560753,-3.4120946,3.6302595
0.08863906,4.004265,7.9585543,-2.1538804,1.9319025,-7.2069693,-3.8891964,2.6638994
0.09164565,4.012466,7.9585543,-2.1538804,1.9319025,-7.1775064,-3.8392048,2.6009111
0.094665505,4.0204573,7.8829207,-2.3115396,1.8882266,-6.0322227,-3.6905732,1.5909457
0.09766654,4.028413,7.8829207,-2.3115396,1.8882266,-6.0028276,-3.6432881,1.5289516
0.10240673,4.040597,7.7849164,-2.461742,1.837094,-4.596511,-2.8346863,0.2791052
0.10422927,4.045291,7.7849164,-2.461742,1.837094,-4.5786715,-2.8076282,0.24193382
0.107119,4.052502,7.656019,-2.571464,1.7699823,-3.793829,-1.6125305,-1.1275284
0.110065356,4.0598702,7.656019,-2.571464,1.7699823,-3.7650073,-1.5710447,-1.1865516
0.113076806,4.067313,7.485577,-2.6428368,1.6783695,-2.974203,-0.20330828,-2.8219264
0.11611093,4.0748425,7.485577,-2.6428368,1.6783695,-2.9445431,-0.1620124,-2.8829443
0.119012564,4.0821204,7.2586756,-2.6939695,1.5643862,-1.8627372,1.2181673,-4.3739614
0.121909164,4.0894184,7.2586756,-2.6939695,1.5643862,-1.8344455,1.2571939,-4.4337187
0.12464356,4.096425,6.9646626,-2.7269926,1.4290977,0.46196365,2.5535796,-5.7698517
0.12737048,4.103445,6.9646626,-2.7269926,1.4290977,0.4885831,2.5902157,-5.827864
0.12992027,4.1101007,6.5960813,-2.7227316,1.2661122,2.1511006,3.4673033,-6.8120456
0.13246761,4.116782,6.5960813,-2.7227316,1.2661122,2.175951,3.5013437,-6.867732
0.13480817,4.123019,6.1593227,-2.6662726,1.0764952,2.6919823,4.514388,-8.260655
0.13713866,4.1292615,6.1593227,-2.6662726,1.0764952,2.7146988,4.545461,-8.31307
0.1392338,4.1350203,5.6586485,-2.5810513,0.86131173,3.467742,5.9768543,-9.922585
0.14132538,4.140801,5.6586485,-2.5810513,0.86131173,3.4881268,6.0050516,-9.971431
0.14314686,4.1460085,5.085536,-2.483047,0.6216272,4.3438387,7.3422623,-11.60528
0.14495742,4.1512156,5.085536,-2.483047,0.6216272,4.361473,7.367198,-11.649506
0.14648019,4.1557884,4.4399858,-2.3722596,0.36383325,5.242996,8.64831,-12.952545
0.14799473,4.160365,4.4399858,-2.3722596,0.36383325,5.257739,8.669899,-12.991573
0.1492027,4.1642294,3.7177365,-2.244428,0.0921908,5.930294,9.727141,-14.116308
0.15040357,4.1680965,3.7177365,-2.244428,0.0921908,5.9419785,9.745181,-14.149371
0.15128337,4.1711736,2.921984,-2.0984867,-0.19116955,5.931385,10.626231,-15.19082
0.15215737,4.1742525,2.921984,-2.0984867,-0.19116955,5.939884,10.640503,-15.217184
0.152701,4.176472,2.060185,-1.9397622,-0.48092148,5.45675,11.129683,-15.9161
0.15323992,4.178691,2.060185,-1.9397622,-0.48092148,5.461996,11.139989,-15.935075
0.15345597,4.1800027,1.1493839,-1.7789073,-0.7621513,4.9277964,11.289847,-16.037209
0.1536693,4.1813135,1.1493839,-1.7789073,-0.7621513,4.929866,11.296024,-16.04836
0.15357536,4.1816807,0.20662491,-1.6223135,-1.0263369,4.627284,11.221346,-15.414509
0.15348049,4.182049,0.20662491,-1.6223135,-1.0263369,4.6263647,11.223283,-15.417521
0.15310296,4.181463,-0.7425257,-1.4657196,-1.2692171,3.5644522,10.722887,-14.421127
0.15272841,4.1808796,-0.7425257,-1.4657196,-1.2692171,3.560814,10.720505,-14.415945
0.15209475,4.1793547,-1.6767627,-1.3080604,-1.4854659,2.5490818,9.9620075,-13.081093
0.15146136,4.177823,-1.6767627,-1.3080604,-1.4854659,2.54292,9.955239,-13.067786
0.1506001,4.175396,-2.5715847,-1.1621192,-1.6740177,1.9407806,8.962658,-11.107526
0.14974251,4.172964,-2.5715847,-1.1621192,-1.6740177,1.932437,8.951617,-11.086568
0.1486894,4.169688,-3.4088826,-1.0247,-1.828481,1.4289846,7.643649,-8.975495
0.14764228,4.166411,-3.4088826,-1.0247,-1.828481,1.4187984,7.6284404,-8.947417
0.14643122,4.1623697,-4.1694813,-0.88834625,-1.9552475,0.6456528,6.1250315,-6.8922234
0.14522377,4.1583147,-4.1694813,-0.88834625,-1.9552475,0.63389874,6.105798,-6.857704
0.14388934,4.153593,-4.8427286,-0.75305766,-2.0521865,-0.2553754,4.6849046,-4.8065376
0.14256059,4.148861,-4.8427286,-0.75305766,-2.0521865,-0.26831532,4.661959,-4.7665243
0.1411422,4.14356,-5.419037,-0.62629116,-2.118233,-0.875896,3.2712297,-2.653297
0.13973045,4.1382475,-5.419037,-0.62629116,-2.118233,-0.8896489,3.24487,-2.6087093
0.13829039,4.1324825,-5.8973403,-0.51550364,-2.158713,-1.3106968,1.9804599,-0.6308266
0.1368617,4.1267176,-5.8973403,-0.51550364,-2.158713,-1.324621,1.9511466,-0.5828493
0.13540308,4.1206827,-6.2797704,-0.41643408,-2.1736267,-1.7219145,0.818764,1.3346393
0.13395064,4.114643,-6.2797704,-0.41643408,-2.1736267,-1.7360779,0.78735626,1.3844934
0.13241775,4.1083612,-6.5695224,-0.3226908,-2.162974,-2.1484659,-0.21767473,3.1504083
0.13088894,4.1020594,-6.5695224,-0.3226908,-2.162974,-2.1633785,-0.25112438,3.2020175
0.12933414,4.0955563,-6.7708573,-0.2332086,-2.1278203,-2.8010411,-1.1479516,4.887887
0.1277852,4.0890384,-6.7708573,-0.2332086,-2.1278203,-2.816156,-1.1833224,4.9407845
0.12623245,4.082389,-6.894428,-0.1490527,-2.070296,-2.9270802,-1.9141374,6.6033955
0.1246884,4.075738,-6.894428,-0.1490527,-2.070296,-2.942154,-1.9510317,6.656858
0.12316468,4.069026,-6.944495,-0.063831545,-1.9872054,-3.105474,-2.48668,8.151843
0.12164618,4.0622997,-6.944495,-0.063831545,-1.9872054,-3.1203046,-2.524806,8.205367
0.120156445,4.0555744,-6.9295816,0.036303315,-1.8817443,-3.2114697,-2.9368362,9.561048
0.11867564,4.048856,-6.9295816,0.036303315,-1.8817443,-3.2259378,-2.9757214,9.613966
0.117221795,4.0421705,-6.8592744,0.15241714,-1.7581736,-3.3311234,-3.316472,11.016665
0.11577732,4.035498,-6.8592744,0.15241714,-1.7581736,-3.3452396,-3.355855,11.068661
0.11435725,4.0289087,-6.738899,0.2855752,-1.6207545,-3.4165802,-3.7590399,12.336001
0.11294391,4.0223255,-6.738899,0.2855752,-1.6207545,-3.430398,-3.798625,12.38677
0.111555144,4.015888,-6.5737834,0.43790802,-1.4684216,-3.511016,-4.2159586,13.657208
0.11016893,4.0094438,-6.5737834,0.43790802,-1.4684216,-3.5245752,-4.255391,13.706394
0.10880066,4.0031757,-6.370318,0.6051545,-1.3054361,-3.6049938,-4.6483917,14.946308
0.10743478,3.9969082,-6.370318,0.6051545,-1.3054361,-3.6183586,-4.6873693,14.993664
0.10607872,3.990851,-6.1274376,0.7809232,-1.1392549,-3.808796,-5.108387,16.016048
0.104726434,3.9848058,-6.1274376,0.7809232,-1.1392549,-3.8220272,-5.1465454,16.06127
0.10337729,3.9790082,-5.847273,0.9630834,-0.97094315,-4.0985947,-5.552084,17.205786
0.102026306,3.9732056,-5.847273,0.9630834,-0.97094315,-4.1118183,-5.5892143,17.248787
0.10067692,3.967701,-5.5298243,1.1452436,-0.80369663,-4.503311,-5.9119396,18.11302
0.099325866,3.9621973,-5.5298243,1.1452436,-0.80369663,-4.5165386,-5.9475975,18.153446
0.09797544,3.957024,-5.1761565,1.3167512,-0.6407111,-5.042122,-6.383503,19.048433
0.09662235,3.9518518,-5.1761565,1.3167512,-0.6407111,-5.055372,-6.4173813,19.08611
0.095273815,3.947051,-4.784139,1.4722798,-0.48198673,-5.3654633,-6.7985115,19.954159
0.089799985,3.9300048,-3.893578,1.7215517,-0.19330007,-6.1086235,-8.003431,21.341228
0.089799985,3.9300048,-3.893578,1.7215517,-0.19330007,-6.1086235,-8.003431,21.341228
0.089799985,3.9300048,-3.893578,1.7215517,-0.19330007,-6.1086235,-8.003431,21.341228
0.08911545,3.9279847,-3.893578,1.7215517,-0.19330007,-6.1153355,-8.016979,21.355684
0.08853814,3.9262838,-3.893578,1.7215517,-0.19330007,-6.1209908,-8.028408,21.367828
0.08723788,3.9228547,-3.3971648,1.8110338,-0.06227255,-6.717924,-8.673937,21.818502
0.08723788,3.9228547,-3.3971648,1.8110338,-0.06227255,-6.717924,-8.673937,21.818502
0.083527535,3.9131396,-3.3971648,1.8110338,-0.06227255,-6.754299,-8.739708,21.887463
0.0828347,3.911555,-2.8687935,1.8717539,0.063428655,-6.756302,-9.095217,22.095013
0.08202163,3.9099684,-2.314856,1.9026467,0.18699934,-5.9741898,-9.129881,22.039272
0.08078808,3.9075682,-2.314856,1.9026467,0.18699934,-5.986288,-9.146141,22.056324
0.07964771,3.9057794,-1.7460048,1.9260825,0.31057,-5.5138416,-8.952274,21.68126
0.078458056,3.9039195,-1.7460048,1.9260825,0.31057,-5.5255127,-8.964821,21.694544
0.07734417,3.9026525,-1.1814147,1.9623015,0.42987964,-6.2930126,-9.313206,21.320667
0.07627361,3.901439,-1.1814147,1.9623015,0.42987964,-6.3035164,-9.321276,21.329462
0.07507979,3.900642,-0.62002033,1.984672,0.5417324,-6.6504154,-9.460411,21.000298
0.073818155,3.8998032,-0.62002033,1.984672,0.5417324,-6.662794,-9.465748,21.00663
0.07321275,3.8997116,-0.06608278,1.9750847,0.64719355,-6.793236,-9.547504,20.46648
0.072259784,3.899569,-0.06608278,1.9750847,0.64719355,-6.8025856,-9.548052,20.467934
0.07138452,3.8999686,0.48039788,1.9399309,0.74626315,-6.662735,-9.314934,19.622925
0.070510045,3.9003701,0.48039788,1.9399309,0.74626315,-6.671322,-9.311657,19.620659
0.069731936,3.9013045,1.01303,1.891994,0.8325496,-6.980629,-8.964659,18.661846
0.068956465,3.902239,1.01303,1.891994,0.8325496,-6.9882374,-8.95764,18.6559
0.06828145,3.9036865,1.5222266,1.8291434,0.90924865,-7.0954227,-8.559181,17.856346
0.067608684,3.9051366,1.5222266,1.8291434,0.90924865,-7.102028,-8.54858,17.846832
0.06703577,3.907096,1.999465,1.747118,0.9731645,-7.160327,-8.146578,16.981459
0.06645497,3.9090967,1.999465,1.747118,0.9731645,-7.166027,-8.132158,16.968103
0.06602984,3.9113579,2.4458108,1.6501789,1.0264277,-7.237236,-7.6563225,16.105324
0.06559161,3.9137118,2.4458108,1.6501789,1.0264277,-7.241543,-7.6395416,16.089418
0.06526914,3.9164982,2.8527417,1.5361956,1.0711688,-7.4410315,-7.2367535,15.170235
0.064950265,3.9192991,2.8527417,1.5361956,1.0711688,-7.4441643,-7.2169876,15.151108
0.06475481,3.9224644,3.2266498,1.4072987,1.1031268,-7.6950827,-6.7494717,14.492502
0.06456477,3.9256332,3.2266498,1.4072987,1.1031268,-7.696944,-6.727317,14.470648
0.06450417,3.9291418,3.5675342,1.2581617,1.1244321,-7.8603497,-6.185789,13.560451
0.06444933,3.932661,3.5675342,1.2581617,1.1244321,-7.8608847,-6.1614237,13.535942
0.064527676,3.936494,3.8732653,1.0909151,1.1340195,-7.7499857,-5.5748053,12.484375
0.06461208,3.9403234,3.8732653,1.0909151,1.1340195,-7.749154,-5.54856,12.457445
0.064833544,3.9444232,4.143842,0.9098202,1.13615,-7.7421923,-4.9508142,11.327114
0.06506199,3.9485393,4.143842,0.9098202,1.13615,-7.739949,-4.922904,11.297882
0.06542751,3.9528837,4.371809,0.71913785,1.1286931,-7.8752217,-4.3477545,10.074535
0.06579883,3.957228,4.371809,0.71913785,1.1286931,-7.8715777,-4.31863,10.043376
0.06630685,3.961767,4.557165,0.52099866,1.1159099,-7.8953185,-3.9196835,8.961966
0.066820174,3.9663055,4.557165,0.52099866,1.1159099,-7.89028,-3.8896112,8.929085
0.06746573,3.9709947,4.6977797,0.32179418,1.0988657,-7.869577,-3.5906067,7.9946976
0.0681167,3.975688,4.6977797,0.32179418,1.0988657,-7.863185,-3.5598927,7.960351
0.06889355,3.9804885,4.7989798,0.12045921,1.0754299,-7.826831,-3.5382814,7.039163
0.06967448,3.9852889,4.7989798,0.12045921,1.0754299,-7.8191643,-3.507269,7.0036793
0.0705748,3.9901621,4.8597,-0.077679984,1.0509288,-7.5325994,-3.6867142,6.2444024
0.071477585,3.9950304,4.8597,-0.077679984,1.0509288,-7.523736,-3.6556873,6.208055
0.07248886,3.9999464,4.888462,-0.2683623,1.0221666,-7.121161,-4.017252,5.481623
0.07350274,4.004862,4.888462,-0.2683623,1.0221666,-7.1112146,-3.9863615,5.4445667
0.074606255,4.009794,4.891658,-0.448392,0.98062134,-6.621543,-4.1662903,4.5883636
0.0757115,4.014727,4.891658,-0.448392,0.98062134,-6.610698,-4.135729,4.5508237
0.07689038,4.0196514,4.8703527,-0.613508,0.9305539,-6.1298685,-3.9618096,3.608148
0.07806785,4.0245657,4.8703527,-0.613508,0.9305539,-6.1183167,-3.9318008,3.570401
0.07930833,4.029464,4.8256116,-0.7605145,0.8698338,-5.565058,-3.274849,2.297187
0.08054675,4.0343523,4.8256116,-0.7605145,0.8698338,-5.5529118,-3.2454386,2.2593064
0.081827335,4.039172,4.7553043,-0.88834625,0.79846114,-4.8891296,-2.2925138,0.9959514
0.083107665,4.0439916,4.7553043,-0.88834625,0.79846114,-4.876575,-2.2639484,0.9582832
0.0844134,4.04868,4.647712,-0.99167687,0.71750104,-4.1886063,-1.0297093,-0.37618184
0.08571946,4.0533724,4.647712,-0.99167687,0.71750104,-4.1758013,-1.0023155,-0.4131608
0.08699229,4.0578446,4.493249,-1.0694412,0.6226925,-3.4354866,0.2206999,-1.770141
0.088264756,4.0623245,4.493249,-1.0694412,0.6226925,-3.4230127,0.24648821,-1.8057067
0.08943027,4.0665545,4.2865877,-1.1248349,0.5140355,-2.4203901,1.4582213,-3.1370308
0.090591095,4.0707803,4.2865877,-1.1248349,0.5140355,-2.409014,1.482254,-3.170775
0.0916389,4.074744,4.0224023,-1.1610539,0.39579117,-1.4745827,2.52462,-4.337348
0.09268246,4.078705,4.0224023,-1.1610539,0.39579117,-1.4643593,2.5468981,-4.3691397
0.093606494,4.08235,3.702823,-1.177033,0.2658289,-0.7083144,3.4531627,-5.2938833
0.094527334,4.085995,3.702823,-1.177033,0.2658289,-0.69929504,3.4734604,-5.3232813
0.09532471,4.0892744,3.3299804,-1.1791635,0.12627926,-0.30362225,4.1907525,-6.173372
0.09611904,4.092554,3.3299804,-1.1791635,0.12627926,-0.2958417,4.20885,-6.1999254
0.09677897,4.095422,2.913462,-1.1717066,-0.026053555,-0.15051699,4.799228,-6.7929955
0.097441256,4.0983133,2.913462,-1.1717066,-0.026053555,-0.14402533,4.8150697,-6.816477
0.09795696,4.1007357,2.4596593,-1.1567929,-0.18371269,-0.05278492,5.35982,-7.3197947
0.098470114,4.103158,2.4596593,-1.1567929,-0.18371269,-0.04776001,5.373016,-7.3395195
0.09883948,4.1051073,1.9760292,-1.1386834,-0.34456763,-0.06329727,5.82895,-7.7288847
0.09920657,4.107057,1.9760292,-1.1386834,-0.34456763,-0.059700012,5.8395357,-7.744776
0.099425666,4.108506,1.4700285,-1.1163129,-0.503292,0.15313148,6.3166833,-8.043875
0.099643394,4.109958,1.4700285,-1.1163129,-0.503292,0.15526581,6.324578,-8.055703
0.09971518,4.1108866,0.9427227,-1.0918118,-0.6609512,0.19906425,6.5259914,-8.029717
0.09978593,4.1118174,0.9427227,-1.0918118,-0.6609512,0.19975471,6.531083,-8.037272
0.099713616,4.112212,0.40050304,-1.0651802,-0.81541455,0.17989063,6.5381155,-7.925501
0.09964094,4.112607,0.40050304,-1.0651802,-0.81541455,0.17917728,6.5403533,-7.928652
0.099429205,4.1124616,-0.14597762,-1.0417444,-0.96455157,0.36385727,6.4343824,-7.4772506
0.099217735,4.112316,-0.14597762,-1.0417444,-0.96455157,0.36178493,6.4337444,-7.475957
0.098880924,4.111636,-0.6860667,-1.0193738,-1.1041012,0.23877859,6.181261,-6.7568088
0.0985452,4.110956,-0.6860667,-1.0193738,-1.1041012,0.2354865,6.1777577,-6.7511334
0.098101735,4.1097584,-1.2101768,-0.9948727,-1.2340635,-0.46796083,5.625593,-5.773965
0.09766112,4.1085625,-1.2101768,-0.9948727,-1.2340635,-0.47227383,5.619299,-5.7640786
0.097132705,4.1068745,-1.7033943,-0.97143686,-1.3459163,-1.2340164,5.1410546,-4.543514
0.09660811,4.1051893,-1.7033943,-0.97143686,-1.3459163,-1.2391539,5.132058,-4.5296655
0.09601622,4.1030655,-2.1540012,-0.9607842,-1.44179,-1.599294,4.7471347,-3.4588275
0.09542503,4.10093,-2.1540012,-0.9607842,-1.44179,-1.6050847,4.735603,-3.4413702
0.09478507,4.098408,-2.5577364,-0.96184945,-1.5206196,-1.5634699,4.468098,-2.2237165
0.0941496,4.0958853,-2.5577364,-0.96184945,-1.5206196,-1.5696964,4.454315,-2.2031941
0.09348024,4.093004,-2.9167304,-0.96291476,-1.5813397,-1.5379437,4.1607428,-1.1072278
0.092818335,4.0901313,-2.9167304,-0.96291476,-1.5813397,-1.5444307,4.1448593,-1.0839808
0.092157885,4.086959,-3.2352445,-0.95545787,-1.6218197,-1.8621466,3.8350978,0.1817944
0.09150352,4.0837865,-3.2352445,-0.95545787,-1.6218197,-1.8685582,3.8173366,0.20731497
0.09086523,4.080393,-3.5143437,-0.94374,-1.643125,-2.4302688,3.4677982,1.5225942
0.09023119,4.0769897,-3.5143437,-0.94374,-1.643125,-2.4364827,3.4485035,1.5498033
0.08958278,4.073413,-3.757224,-0.9320221,-1.6452556,-2.6583142,3.1024997,2.9956899
0.08893947,4.069832,-3.757224,-0.9320221,-1.6452556,-2.6646187,3.0819736,3.0241609
0.08827461,4.0660763,-3.9606895,-0.9192389,-1.6292765,-2.8147876,2.6197865,4.4808817
0.08761584,4.0623193,-3.9606895,-0.9192389,-1.6292765,-2.8212457,2.5980074,4.5105777
0.08695549,4.0584025,-4.1247406,-0.89686835,-1.5919923,-3.067139,2.0628014,6.0402117
0.086301565,4.054485,-4.1247406,-0.89686835,-1.5919923,-3.0735497,2.0398183,6.070985
0.085661635,4.050439,-4.248311,-0.86277986,-1.5365986,-3.2234745,1.4556856,7.630156
0.08502883,4.0463963,-4.248311,-0.86277986,-1.5365986,-3.229679,1.4316769,7.6617002
0.08441623,4.0422564,-4.328206,-0.81377774,-1.4662911,-3.302721,0.8227501,9.216589
0.08381049,4.03812,-4.328206,-0.81377774,-1.4662911,-3.3086615,0.79788494,9.248638
0.083233766,4.0339413,-4.3633595,-0.7487966,-1.3800046,-3.5728903,0.22194004,10.607277
0.08266131,4.029749,-4.3633595,-0.7487966,-1.3800046,-3.5785027,0.19643784,10.639517
0.08211803,4.0255623,-4.353772,-0.6646407,-1.2788045,-3.8328285,-0.35591412,11.950106
0.08158178,4.021387,-4.353772,-0.6646407,-1.2788045,-3.838087,-0.38160992,11.981985
0.081068024,4.017226,-4.300509,-0.56344056,-1.1658865,-4.04424,-0.8574772,13.110186
0.080560595,4.0130777,-4.300509,-0.56344056,-1.1658865,-4.049217,-0.88329506,13.14164
0.08007814,4.009018,-4.200374,-0.448392,-1.0412506,-4.279006,-1.3252888,14.168293
0.079598755,4.00495,-4.200374,-0.448392,-1.0412506,-4.2837048,-1.350872,14.198915
0.07914314,4.001014,-4.059759,-0.31949502,-0.9038315,-4.3504257,-1.7253036,15.123872
0.078690276,3.9970741,-4.059759,-0.31949502,-0.9038315,-4.354867,-1.7503242,15.153326
0.07825462,3.9932952,-3.8829253,-0.17888011,-0.76108605,-4.402235,-2.1814528,15.89017
0.07782136,3.9895158,-3.8829253,-0.17888011,-0.76108605,-4.4064865,-2.2056828,15.918243
0.077401906,3.9859326,-3.6698725,-0.029743081,-0.611949,-4.3292,-2.6405487,16.5529
0.07698313,3.9823422,-3.6698725,-0.029743081,-0.611949,-4.3333073,-2.6637545,16.5794
0.07656403,3.978905,-3.425927,0.12791605,-0.45961618,-4.3326283,-3.0212364,17.102694
0.07615787,3.9755688,-3.425927,0.12791605,-0.45961618,-4.3366117,-3.0429611,17.12717
0.07576238,3.9725301,-3.1532192,0.28983626,-0.30621812,-4.4554195,-3.3740616,17.41758
0.07535926,3.969432,-3.1532192,0.28983626,-0.30621812,-4.4593706,-3.3943653,17.440193
0.07495865,3.9666142,-2.8570757,0.44856066,-0.15708108,-4.721881,-3.7672253,17.671429
0.07455734,3.9637964,-2.8570757,0.44856066,-0.15708108,-4.725815,-3.785797,17.69191
0.07415797,3.961275,-2.5396268,0.5976977,-0.014335647,-4.9691525,-4.0179234,17.834713
0.07375827,3.958759,-2.5396268,0.5976977,-0.014335647,-4.973077,-4.034584,17.852936
0.07336056,3.956544,-2.2072644,0.731921,0.11882241,-5.4270887,-4.3796673,17.95516
0.07296544,3.954351,-2.2072644,0.731921,0.11882241,-5.430969,-4.3942413,17.971
0.07257551,3.952475,-1.8642492,0.8491001,0.24132782,-5.8753242,-4.9286385,18.061161
0.07218765,3.9506166,-1.8642492,0.8491001,0.24132782,-5.879136,-4.941021,18.074566
0.07181109,3.9490778,-1.5148424,0.94390863,0.35531113,-6.127039,-5.6455784,18.109608
0.071438365,3.9475605,-1.5148424,0.94390863,0.35531113,-6.1306925,-5.6556854,18.120543
0.071088016,3.9463844,-1.1601094,1.0174118,0.45970702,-6.3974953,-6.223755,18.066788
0.07073576,3.9452062,-1.1601094,1.0174118,0.45970702,-6.4009533,-6.2316,18.075287
0.070414014,3.9443748,-0.8032458,1.0738709,0.5587766,-6.6435347,-6.7782,17.961609
0.07009161,3.9435446,-0.8032458,1.0738709,0.5587766,-6.646699,-6.783701,17.96762
0.06980887,3.9430647,-0.44744745,1.1122204,0.6514546,-6.888895,-7.2800465,17.865799
0.06952553,3.942585,-0.44744745,1.1122204,0.6514546,-6.891676,-7.28318,17.869312
0.0692905,3.942452,-0.09697545,1.13033,0.7366758,-6.922715,-7.6909885,17.654884
0.06905531,3.9423192,-0.09697545,1.13033,0.7366758,-6.9250193,-7.691778,17.65593
0.06887423,3.9425273,0.24710497,1.1313952,0.81230956,-6.907645,-8.011093,17.35288
0.068692215,3.942737,0.24710497,1.1313952,0.81230956,-6.9094334,-8.009571,17.351486
0.06856494,3.9432793,0.581598,1.1196773,0.87516016,-6.7861834,-8.259594,16.94071
0.0684385,3.943821,0.581598,1.1196773,0.87516016,-6.787424,-8.2558365,16.936947
0.0684385,3.943821,0.581598,1.1196773,0.87516016,-6.787424,-8.2558365,16.936947
0.0684385,3.943821,0.581598,1.1196773,0.87516016,-6.787424,-8.2558365,16.936947
0.0684385,3.943821,1.2175609,1.0632182,0.9507939,-6.787424,-8.2558365,16.936947
0.068326615,3.9494982,1.520096,1.009955,0.9646424,-7.042307,-8.681627,14.995826
0.068333074,3.9498706,1.520096,1.009955,0.9646424,-7.042245,-8.679104,14.993178
0.0683634,3.9515305,1.520096,1.009955,0.9646424,-7.0419464,-8.6678705,14.98137
0.06843873,3.9532485,1.8109132,0.9385823,0.96251184,-7.0172653,-8.728118,14.241276
0.06851971,3.9550393,1.8109132,0.9385823,0.96251184,-7.016467,-8.716064,14.228472
0.06865283,3.9571495,2.0857515,0.85442644,0.94546765,-7.1157217,-8.677977,13.461568
0.068780735,3.9591355,2.0857515,0.85442644,0.94546765,-7.114462,-8.664686,13.447294
0.06895607,3.9614387,2.3467412,0.75961787,0.91137916,-7.1989365,-8.591871,12.520909
0.0691421,3.963844,2.3467412,0.75961787,0.91137916,-7.19711,-8.575869,12.503541
0.0693666,3.9664576,2.587491,0.65522194,0.86450756,-7.1278696,-8.357436,11.613127
0.06958556,3.9689758,2.587491,0.65522194,0.86450756,-7.125717,-8.340789,11.59485
0.06983532,3.9716828,2.8058703,0.54549974,0.8048527,-6.950886,-7.9925623,10.708448
0.07018112,3.9753852,2.8058703,0.54549974,0.8048527,-6.9474907,-7.9682636,10.681422
0.07037635,3.9774387,2.9976177,0.43790802,0.73348,-6.7013617,-7.710617,9.689555
0.07065211,3.980319,2.9976177,0.43790802,0.73348,-6.698656,-7.6918325,9.668426
0.07095238,3.9834893,3.163799,0.3335121,0.6514546,-6.573017,-7.296274,8.716625
0.07125617,3.9866722,3.163799,0.3335121,0.6514546,-6.573017,-7.296274,8.716625
0.071562685,3.9900017,3.2990875,0.23124671,0.56197244,-6.0576487,-7.140711,8.06472
0.0718708,3.9933279,3.2990875,0.23124671,0.56197244,-6.054625,-7.1193333,8.04005
0.07218508,3.9967694,3.4056141,0.13750345,0.47035968,-7.6556587,-6.9871635,6.975367
0.072500944,4.0002112,3.4056141,0.13750345,0.47035968,-7.652557,-6.9652157,6.949692
0.07280848,4.0037622,3.4865742,0.030976992,0.3680943,-6.399763,-6.7080183,6.3628817
0.07311551,4.0072956,3.4865742,0.030976992,0.3680943,-6.3967524,-6.685666,6.3363724
0.07343869,4.0109186,3.5483596,-0.10431159,0.26795945,-5.9626255,-6.0307856,5.566902
0.073760465,4.01452,3.5483596,-0.10431159,0.26795945,-5.9594655,-6.0082035,5.5397134
0.07408586,4.0181723,3.5803175,-0.2119033,0.1731509,-6.2962513,-5.6454268,4.966179
0.07441125,4.021826,3.5803175,-0.2119033,0.1731509,-6.2930546,-5.6227226,4.9384356
0.07473459,4.0254884,3.586709,-0.31842974,0.0740813,-6.8597045,-5.437256,4.3263474
0.07505802,4.0291595,3.586709,-0.31842974,0.0740813,-6.856531,-5.414652,4.2983065
0.07538271,4.0328197,3.573926,-0.4430657,-0.024988292,-6.096777,-4.8702765,3.7962055
0.07570736,4.0364914,3.573926,-0.4430657,-0.024988292,-6.0935907,-4.8478746,3.7679894
0.076043256,4.04014,3.5430331,-0.5666364,-0.11233997,-5.6689177,-4.3181577,3.2131407
0.07637763,4.043789,3.5430331,-0.5666364,-0.11233997,-5.665638,-4.296114,3.1849353
0.07671025,4.0474005,3.4972267,-0.6795544,-0.20288746,-5.0207253,-3.7955513,2.7978027
0.077041194,4.051016,3.4972267,-0.6795544,-0.20288746,-5.01748,-3.773912,2.769696
0.0773641,4.054578,3.4354415,-0.77968925,-0.29556546,-4.908967,-3.2930045,2.3684363
0.07768501,4.058143,3.4354415,-0.77968925,-0.29556546,-4.905819,-3.2718635,2.3405707
0.07799307,4.06164,3.360873,-0.87662834,-0.38824347,-4.352131,-2.5521169,2.0115018
0.07829843,4.0651364,3.360873,-0.87662834,-0.38824347,-4.349134,-2.531571,1.9840317
0.078584984,4.068556,3.272456,-0.9703716,-0.48411727,-3.5322952,-1.7741542,1.6650151
0.07886849,4.0719743,3.272456,-0.9703716,-0.48411727,-3.5295143,-1.7542448,1.6380268
0.079129875,4.0752916,3.1701906,-1.0460054,-0.5789258,-3.153455,-0.89224815,1.3340526
0.07938796,4.078609,3.1701906,-1.0460054,-0.5789258,-3.1509225,-0.8730979,1.3077447
0.079616904,4.0817876,3.0498157,-1.0992686,-0.67266905,-3.0864275,-0.055152893,0.84674335
0.079842545,4.0849686,3.0498157,-1.0992686,-0.67266905,-3.0842144,-0.03694129,0.8214097
0.08001696,4.088003,2.9123967,-1.1354876,-0.76747763,-3.135176,0.40176845,0.5482068
0.08018727,4.0910316,2.9123967,-1.1354876,-0.76747763,-3.1335063,0.4189849,0.52400434
0.08029571,4.09389,2.7589986,-1.1557276,-0.8580251,-3.3144011,1.0289674,0.2090404
0.08040019,4.0967507,2.7589986,-1.1557276,-0.8580251,-3.313377,1.0451362,0.18610974
0.0804342,4.099417,2.5906868,-1.1621192,-0.9400505,-3.6386561,1.7018323,-0.27102113
0.08046414,4.102085,2.5906868,-1.1621192,-0.9400505,-3.6383624,1.7168392,-0.29246002
0.08042074,4.1045523,2.4053307,-1.1567929,-1.0114232,-3.7297657,2.3962982,-0.76718223
0.0803734,4.1070156,2.4053307,-1.1567929,-1.0114232,-3.7302308,2.4101036,-0.78701293
0.08024613,4.1092496,2.2008,-1.1429445,-1.071078,-3.1233501,3.1025915,-1.326921
0.08011516,4.111483,2.2008,-1.1429445,-1.071078,-3.1246343,3.1150823,-1.3449187
0.07989579,4.1134653,1.9738986,-1.1195086,-1.1158191,-2.1978369,3.8827665,-2.10786
0.07967343,4.115445,1.9738986,-1.1195086,-1.1158191,-2.200019,3.8938417,-2.1238112
0.07936104,4.117155,1.7150394,-1.0832896,-1.1552339,-1.2166722,4.7127023,-2.889338
0.07904661,4.1188617,1.7150394,-1.0832896,-1.1552339,-1.2197552,4.7222795,-2.9030688
0.07864605,4.1202765,1.4199611,-1.0406791,-1.1946486,-0.32346773,5.5874133,-3.6183028
0.078246586,4.12168,1.4199611,-1.0406791,-1.1946486,-0.32738543,5.5953426,-3.6295576
0.077779464,4.12274,1.0844028,-0.9970032,-1.2351288,0.10856438,6.4633403,-4.289221
0.0773089,4.123803,1.0844028,-0.9970032,-1.2351288,0.10394859,6.4694366,-4.297697
0.07677301,4.124488,0.710495,-0.9490663,-1.2756088,0.424304,7.1630316,-4.542477
0.07623346,4.1251745,0.710495,-0.9490663,-1.2756088,0.4190092,7.167102,-4.547861
0.07562621,4.125448,0.30143344,-0.89899886,-1.3160888,0.8152766,7.801038,-4.468448
0.075020425,4.125721,0.30143344,-0.89899886,-1.3160888,0.80933523,7.802896,-4.470422
0.07435444,4.125558,-0.13106392,-0.83614826,-1.3512425,0.5442252,8.166333,-4.1958785
0.07368877,4.1253934,-0.13106392,-0.83614826,-1.3512425,0.53769255,8.165843,-4.1942677
0.07296915,4.124781,-0.5752792,-0.7562534,-1.3842658,-0.40310717,8.1485815,-3.6718287
0.072247684,4.124165,-1.0162987,-0.6742281,-1.4077016,-0.4101882,8.145657,-3.6665158
0.071467295,4.12309,-1.0162987,-0.6742281,-1.4077016,-1.1552596,7.9774485,-3.0014153
0.07069608,4.122023,-1.0162987,-0.6742281,-1.4077016,-1.1628304,7.972073,-2.9924178
0.0699091,4.120571,-1.4392086,-0.5953985,-1.4183542,-1.5823598,7.624605,-2.25245
0.06910317,4.1190805,-1.4392086,-0.5953985,-1.4183542,-1.5902693,7.616891,-2.2399993
0.06827757,4.117215,-1.8365523,-0.5101774,-1.4151584,-1.8952551,7.291066,-1.54456
0.06744606,4.1153297,-1.8365523,-0.5101774,-1.4151584,-1.9034183,7.2811337,-1.528934
0.06659692,4.1130733,-2.2104602,-0.41536883,-1.3938531,-2.1559625,6.8908367,-0.6483946
0.065750554,4.1108155,-2.2104602,-0.41536883,-1.3938531,-2.1642728,6.878766,-0.62979555
0.064890265,4.1082144,-2.555606,-0.3077771,-1.3576341,-2.3977752,6.553491,0.05714512
0.06403291,4.1056123,-2.555606,-0.3077771,-1.3576341,-2.4061954,6.5393963,0.07846069
0.06316742,4.102705,-2.8677282,-0.1937938,-1.3096973,-2.3907523,6.121299,0.87313366
0.06230391,4.0997944,-2.8677282,-0.1937938,-1.3096973,-2.399233,6.1053324,0.89684916
0.061441842,4.0966153,-3.1500235,-0.08194104,-1.2532382,-2.2065864,5.7190638,1.8564029
0.060579147,4.093424,-3.1500235,-0.08194104,-1.2532382,-2.2150595,5.7013407,1.8822603
0.05972824,4.090042,-3.402491,0.028846465,-1.1871918,-2.1515908,5.184436,3.101894
0.058877863,4.0866528,-3.402491,0.028846465,-1.1871918,-2.1599436,5.1653895,3.129198
0.058002792,4.0830965,-3.6166093,0.1353729,-1.1158191,-2.2786732,4.652078,4.2686787
0.057129294,4.0795403,-3.6166093,0.1353729,-1.1158191,-2.2872539,4.6318665,4.297175
0.05622034,4.075785,-3.7955737,0.23550777,-1.0380548,-2.3919516,4.112404,5.4572515
0.055330727,4.0721035,-3.7955737,0.23550777,-1.0380548,-2.4006915,4.091242,5.4865875
0.054422036,4.068243,-3.9351232,0.33138156,-0.9560294,-2.6777697,3.6044397,6.7095623
0.053514376,4.0643826,-3.9351232,0.33138156,-0.9560294,-2.6866896,3.581987,6.7401457
0.052613214,4.060416,-4.034193,0.42299432,-0.8676125,-3.0020003,3.103876,7.76744
0.051712666,4.0564494,-4.034193,0.42299432,-0.8676125,-3.0108519,3.0805302,7.798661
0.050826017,4.0524178,-4.0917172,0.5146071,-0.77173865,-3.3595405,2.5969696,8.936406
0.04993865,4.048382,-4.0917172,0.5146071,-0.77173865,-3.3682613,2.5729356,8.967963
0.049075395,4.0443225,-4.115153,0.6072851,-0.66627747,-3.7550297,2.017105,9.933327
0.04821096,4.0402594,-4.115153,0.6072851,-0.66627747,-3.7635264,1.992629,9.964884
0.047370587,4.0362034,-4.1013045,0.70102835,-0.55549,-4.020782,1.4413242,11.020995
0.046503257,4.0320215,-4.1013045,0.70102835,-0.55549,-4.0293064,1.4158459,11.053251
0.04571425,4.028131,-4.0533676,0.7969021,-0.4383109,-4.1902914,0.78867054,11.925917
0.04489859,4.0241165,-4.0533676,0.7969021,-0.4383109,-4.19831,0.76394844,11.956674
0.044113006,4.0201926,-3.9724076,0.8938412,-0.3190013,-4.3736277,0.11715984,12.76236
0.043328673,4.016285,-3.9724076,0.8938412,-0.3190013,-4.381338,0.09284115,12.792103
0.042552438,4.0124264,-3.8584242,0.99397606,-0.20501798,-4.5805035,-0.5058937,13.482171
0.04177918,4.0085955,-3.8584242,0.99397606,-0.20501798,-4.588105,-0.5299654,13.511136
0.04103134,4.0049276,-3.7156787,1.0909151,-0.09209995,-4.8300905,-1.2043419,14.051142
0.040270004,4.0012093,-3.7156787,1.0909151,-0.09209995,-4.837576,-1.2279243,14.079086
0.039531115,3.9976954,-3.5463018,1.1825279,0.010165435,-5.002859,-1.7961788,14.483692
0.03878379,3.9941573,-3.5463018,1.1825279,0.010165435,-5.010206,-1.8188057,14.510115
0.038040034,3.990784,-3.3556194,1.2688143,0.10177818,-5.113285,-2.4342232,14.616636
0.037312046,3.9874985,-3.3556194,1.2688143,0.10177818,-5.120447,-2.4554071,14.64104
0.036549095,3.9842415,-3.1489582,1.3455133,0.18167302,-5.2045603,-3.0654488,14.574184
0.035835546,3.981211,-3.1489582,1.3455133,0.18167302,-5.2115784,-3.085123,14.596563
0.035102405,3.9783063,-2.9359052,1.4136902,0.2477194,-5.2475176,-3.7217388,14.373758
0.03435601,3.9753647,-2.9359052,1.4136902,0.2477194,-5.254857,-3.740965,14.395384
0.033610903,3.972655,-2.7239175,1.4722798,0.29991737,-5.3052807,-4.3093815,14.075281
0.032867525,3.969965,-2.7239175,1.4722798,0.29991737,-5.3125935,-4.3270607,14.094965
0.032108236,3.9674473,-2.5183215,1.521282,0.33933216,-5.5115957,-4.870371,13.562685
0.031352345,3.9649527,-2.5183215,1.521282,0.33933216,-5.5190315,-4.8868504,13.58086
0.030582275,3.9626372,-2.323378,1.5596315,0.36596376,-5.603215,-5.2852497,13.061399
0.02981124,3.96033,-2.323378,1.5596315,0.36596376,-5.6108017,-5.3005695,13.07815
0.0290368,3.9582224,-2.1444137,1.5841326,0.37768167,-5.5705347,-5.5300617,12.475722
0.028247664,3.9560838,-2.1444137,1.5841326,0.37768167,-5.5782957,-5.5443134,12.491186
0.0274567,3.9541345,-1.9824935,1.5947852,0.37555113,-5.4759455,-5.7440815,11.945032
0.026654957,3.9521666,-1.9824935,1.5947852,0.37555113,-5.4838324,-5.757251,11.959219
0.025834609,3.950337,-1.8376175,1.5969157,0.35957217,-5.597247,-5.908372,11.551017
0.0250329,3.9485557,-1.8376175,1.5969157,0.35957217,-5.605131,-5.9203377,11.56382
0.024194343,3.9468668,-1.7087206,1.5883936,0.32761425,-5.7330894,-6.17111,11.307798
0.023361837,3.9451957,-1.7087206,1.5883936,0.32761425,-5.7412806,-6.182373,11.319778
0.022501249,3.943624,-1.5926068,1.5681536,0.2839384,-6.0178986,-6.4754906,10.971903
0.021632481,3.9420428,-1.5926068,1.5681536,0.2839384,-6.0264416,-6.4861765,10.983205
0.020776313,3.9406276,-1.4818193,1.5351304,0.2296099,-6.0492306,-6.720806,10.844876
0.019899061,3.939181,-1.4818193,1.5351304,0.2296099,-6.0578604,-6.73061,10.8551855
0.019006824,3.9378512,-1.3742275,1.4925199,0.1699551,-5.1329,-6.3565645,10.582152
0.018118309,3.93653,-1.3742275,1.4925199,0.1699551,-5.1416426,-6.3655424,10.591545
0.017195247,3.9352949,-1.2719622,1.4594966,0.10603923,-5.6295643,-6.4122524,10.624273
0.016277233,3.934069,-1.2719622,1.4594966,0.10603923,-5.6385965,-6.4206085,10.632971
0.015334666,3.9329479,-1.1760883,1.4403219,0.03999284,-6.538514,-6.7586517,10.549946
0.014378533,3.931813,-1.1760883,1.4403219,0.03999284,-6.547921,-6.766408,10.557983
0.013412156,3.93079,-1.0759535,1.4019723,-0.02711882,-7.13204,-6.926627,10.627471
0.012436037,3.929759,-1.0759535,1.4019723,-0.02711882,-7.1416407,-6.933687,10.634756
0.011461858,3.9288414,-0.9683618,1.3369912,-0.09423048,-7.3619204,-7.007019,10.641237
0.010494618,3.9279318,-0.9683618,1.3369912,-0.09423048,-7.3714314,-7.013254,10.647644
0.009530714,3.9271336,-0.8479869,1.2507048,-0.15601581,-7.3090916,-7.0666294,10.763403
0.008575763,3.926344,-0.8479869,1.2507048,-0.15601581,-7.3184853,-7.0720606,10.768955
0.0074399547,3.9255338,-0.71695936,1.1505699,-0.21034431,-7.564295,-7.1159496,10.913515
0.0074399547,3.9255338,-0.71695936,1.1505699,-0.21034431,-7.564295,-7.1159496,10.913515
0.0074399547,3.9255338,-0.5742139,1.0387172,-0.261477,-7.564295,-7.1159496,10.913515
0.0044582644,3.9237897,-0.5742139,1.0387172,-0.261477,-7.8426304,-7.03701,10.935322
0.0037958531,3.923444,-0.4218811,0.91727704,-0.30515283,-8.09336,-6.790407,10.712683
0.0032048489,3.9231842,-0.4218811,0.91727704,-0.30515283,-8.099174,-6.792206,10.714498
0.0024534727,3.9229803,-0.26422197,0.78838,-0.3392413,-8.21191,-6.424906,10.409468
0.0017080888,3.9227784,-0.26422197,0.78838,-0.3392413,-8.219247,-6.4263096,10.410877
0.001024617,3.922732,-0.10549757,0.65628725,-0.36587292,-8.063168,-5.9765167,10.080805
0.00033443785,3.9226854,-0.10549757,0.65628725,-0.36587292,-8.069956,-5.976836,10.081131
6.2829137,3.9227982,0.05216157,0.5252597,-0.38504767,-7.8029866,-5.430176,9.740377
6.2823153,3.9229093,0.05216157,0.5252597,-0.38504767,-7.8088727,-5.4294004,9.739603
6.2817907,3.923175,0.20342912,0.39742798,-0.39889613,-7.627287,-5.010956,9.493547
6.281294,3.9234266,0.20342912,0.39742798,-0.39889613,-7.632173,-5.009202,9.491797
6.280871,3.9238262,0.3504356,0.27492255,-0.40315717,-7.4400115,-4.5419455,9.220872
6.28033,3.9243367,0.3504356,0.27492255,-0.40315717,-7.445337,-4.538394,9.2173195
6.280064,3.924757,0.49318105,0.1534824,-0.4052877,-7.2707815,-4.0374746,9.152147
6.2797256,3.9252918,0.49318105,0.1534824,-0.4052877,-7.27411,-4.0337505,9.148424
6.279464,3.9259787,0.6316654,0.029911729,-0.40741822,-7.204862,-3.6794186,9.162798
6.2792,3.926669,0.6316654,0.029911729,-0.40741822,-7.2074547,-3.6746206,9.157993
6.278991,3.9276621,0.766954,-0.09578948,-0.40635297,-7.334013,-3.418724,9.285152
6.2788544,3.9283104,0.766954,-0.09578948,-0.40635297,-7.3353558,-3.4142199,9.280632
6.278774,3.9292705,0.9054384,-0.22362122,-0.40102664,-7.3265715,-3.278265,9.551664
6.278683,3.930347,0.9054384,-0.22362122,-0.40102664,-7.327465,-3.2707987,9.544148
6.2786965,3.931343,1.0503143,-0.3525182,-0.39143926,-7.360851,-3.1537628,9.881958
6.2787113,3.9324417,1.0503143,-0.3525182,-0.39143926,-7.3607073,-3.1461535,9.874273
6.2788215,3.9336762,1.201582,-0.47821942,-0.3754603,-7.4697523,-3.132825,10.291806
6.278934,3.9349349,1.201582,-0.47821942,-0.3754603,-7.468652,-3.1241322,10.282991
6.2791443,3.9363453,1.359241,-0.59965956,-0.35308975,-7.418698,-3.1574907,10.589132
6.279354,3.937759,1.359241,-0.59965956,-0.35308975,-7.416632,-3.147749,10.579203
6.2796626,3.9393368,1.5264876,-0.7179039,-0.32539287,-7.2747307,-3.1943483,11.018213
6.27997,3.9409153,1.7033215,-0.8286914,-0.29023916,-7.271705,-3.183504,11.007097
6.2803807,3.942686,1.7033215,-0.8286914,-0.29023916,-7.124013,-3.2767067,11.339366
6.280783,3.9444294,1.7033215,-0.8286914,-0.29023916,-7.120055,-3.2647696,11.327047
6.281283,3.9463756,1.8918732,-0.927761,-0.2529549,-7.1438665,-3.2754154,11.380304
6.281781,3.9483223,1.8918732,-0.927761,-0.2529549,-7.1389637,-3.2621422,11.36649
6.28237,3.950467,2.0900126,-1.0183085,-0.21247484,-7.228938,-3.2044573,11.341665
6.282958,3.9526167,2.0900126,-1.0183085,-0.21247484,-7.2231493,-3.189868,11.326344
0.00044614528,3.9549572,2.293478,-1.1067255,-0.16986425,-7.1111765,-3.1979675,11.362302
0.0011215998,3.9573123,2.293478,-1.1067255,-0.16986425,-7.1045303,-3.1820688,11.34544
0.0018823773,3.959876,2.5022697,-1.1908814,-0.12618841,-6.6134167,-3.1073523,11.164235
0.0026392436,3.9624357,2.7099965,-1.2675804,-0.085708365,-6.6059713,-3.0901756,11.145821
0.0034857024,3.9652343,2.7099965,-1.2675804,-0.085708365,-6.53539,-2.9852571,10.77128
0.0043127714,3.9679785,2.913462,-1.3368225,-0.049489375,-6.527251,-2.9669561,10.751421
0.0052258745,3.9709804,2.913462,-1.3368225,-0.049489375,-6.1591372,-3.0140486,10.346571
0.006121561,3.9739354,3.1126664,-1.3996732,-0.015400912,-6.1503253,-2.994482,10.325062
0.0070991763,3.977151,3.1126664,-1.3996732,-0.015400912,-5.7911515,-2.9253836,9.956821
0.008053278,3.980301,3.1126664,-1.3996732,-0.015400912,-5.781762,-2.9046812,9.933752
0.009073357,3.9836726,3.3076098,-1.4529364,0.016557023,-5.6137094,-2.5857315,9.233818
0.010108296,3.9871066,3.3076098,-1.4529364,0.016557023,-5.6035237,-2.5633478,9.208506
0.011160089,3.9906192,3.4919004,-1.4966122,0.047449693,-5.238835,-2.1718397,8.737206
0.012218847,3.9941692,3.4919004,-1.4966122,0.047449693,-5.228416,-2.1489,8.710867
0.0133284405,3.9979267,3.663408,-1.5307007,0.07621183,-4.7195053,-1.7847528,8.0316725
0.014433999,4.001685,3.663408,-1.5307007,0.07621183,-4.7086287,-1.7606897,8.003589
0.015551673,4.005544,3.8189366,-1.5530713,0.09964765,-4.391173,-1.506259,7.577221
0.016685432,4.0094748,3.8189366,-1.5530713,0.09964765,-4.3800197,-1.4813404,7.54765
0.017829802,4.0135207,3.9542253,-1.5626587,0.11988767,-3.952168,-1.3217402,7.0382595
0.018959561,4.017532,3.9542253,-1.5626587,0.11988767,-3.941053,-1.2965689,7.0078654
0.020113962,4.021729,4.070339,-1.5605282,0.13799717,-3.3119922,-1.1219273,6.4779534
0.021696104,4.0275116,4.070339,-1.5605282,0.13799717,-3.2964263,-1.0860653,6.4337955
0.02239523,4.030135,4.166213,-1.5424186,0.15078035,-2.8059206,-0.6772337,5.5134716
0.023519285,4.0343676,4.166213,-1.5424186,0.15078035,-2.7948625,-0.6512451,5.480935
0.024642384,4.038725,4.239716,-1.511526,0.15717193,-2.2714553,-0.05482149,4.4848585
0.02577208,4.043127,4.239716,-1.511526,0.15717193,-2.2603424,-0.028098106,4.450782
0.026846379,4.0474772,4.2908487,-1.4710459,0.15397614,-1.4596889,0.644593,3.387485
0.027921896,4.051851,4.2908487,-1.4710459,0.15397614,-1.4491096,0.67083144,3.353394
0.028971756,4.0562744,4.3121543,-1.4167174,0.14225823,-0.68700325,1.3436551,2.1552157
0.030019436,4.0607033,4.3121543,-1.4167174,0.14225823,-0.67669964,1.3699094,2.1204557
0.030975357,4.064923,4.296175,-1.3453447,0.11882241,-0.14536208,2.1130443,0.93322563
0.0319231,4.069143,4.296175,-1.3453447,0.11882241,-0.13604105,2.1377716,0.8998928
0.032720335,4.0732946,4.239716,-1.2569277,0.08473395,0.44162107,2.8515253,-0.33487058
0.033513606,4.0774474,4.239716,-1.2569277,0.08473395,0.4494214,2.8756082,-0.3678558
0.034192737,4.0814943,4.1406465,-1.1525319,0.03573178,0.9397299,3.775246,-1.4966221
0.034868248,4.0855417,4.1406465,-1.1525319,0.03573178,0.94637525,3.7984776,-1.5289443
0.035418842,4.089435,3.99364,-1.0300264,-0.024988292,1.2726107,4.8406467,-2.5225785
0.03596621,4.093329,3.99364,-1.0300264,-0.024988292,1.2779932,4.86277,-2.5538323
0.036373455,4.09702,3.7976315,-0.891542,-0.09742627,1.492688,6.071183,-3.5411956
