Pitch,Roll,Gyro_X,Gyro_Y,Gyro_Z,Accel_X,Accel_Y,Accel_Z
6.24423,4.5586367,-5.8000526,1.4675453,1.8534515,-1.6998832,-13.311762,-1.3551182
6.246477,4.55137,-5.6945915,1.4164126,1.8672999,-1.9871874,-13.685257,-1.4413095
6.248318,4.5454335,-5.6945915,1.4164126,1.8672999,-1.9871874,-13.685257,-1.4413095
6.249931,4.5403643,-5.5763474,1.3620842,1.8747568,-2.1260512,-13.857639,-1.6280571
6.2516584,4.534901,-5.5763474,1.3620842,1.8747568,-2.1260512,-13.857639,-1.6280571
6.2533894,4.5295434,-5.443189,1.3024293,1.8704957,-2.0111294,-14.044387,-1.6759412
6.25519,4.523935,-5.443189,1.3024293,1.8704957,-2.0111294,-14.044387,-1.6759412
6.257125,4.5180283,-5.297248,1.2438397,1.8587779,-2.1404164,-14.235924,-1.7046716
6.2585135,4.513763,-5.297248,1.2438397,1.8587779,-2.1404164,-14.235924,-1.7046716
6.2601953,4.508722,-5.136393,1.188446,1.8417336,-2.4756045,-14.45619,-1.8579005
6.261881,4.50364,-5.136393,1.188446,1.8417336,-2.4756045,-14.45619,-1.8579005
6.2635636,4.4986763,-4.960624,1.1266607,1.8140367,-2.6527755,-14.480132,-1.9393034
6.265224,4.4937506,-4.960624,1.1266607,1.8140367,-2.6527755,-14.480132,-1.9393034
6.2668004,4.4891667,-4.771007,1.0606142,1.7767525,-2.633622,-14.551958,-1.9393034
6.268399,4.4844933,-4.771007,1.0606142,1.7767525,-2.633622,-14.551958,-1.9393034
6.269976,4.479993,-4.568607,0.9945679,1.738403,-2.6671407,-14.705187,-1.9632454
6.2715435,4.4754963,-4.568607,0.9945679,1.738403,-2.6671407,-14.705187,-1.9632454
6.273073,4.4712205,-4.354489,0.9338478,1.697923,-2.4899697,-14.671668,-1.9440918
6.274597,4.46694,-4.354489,0.9338478,1.697923,-2.4899697,-14.671668,-1.9440918
6.2760878,4.462883,-4.1297183,0.8773888,1.6563776,-2.408567,-14.662091,-2.0159178
6.277568,4.458834,-4.1297183,0.8773888,1.6563776,-2.408567,-14.662091,-2.0159178
6.2790203,4.4550104,-3.8932295,0.82732135,1.6148323,-2.3319526,-14.54717,-2.15957
6.280467,4.4511824,-3.8932295,0.82732135,1.6148323,-2.3319526,-14.54717,-2.15957
6.28189,4.4475656,-3.6471534,0.78044975,1.5700911,-2.2170308,-14.681245,-2.2505496
9.5855066e-05,4.4440126,-3.6471534,0.78044975,1.5700911,-2.2170308,-14.681245,-2.2505496
0.0014478529,4.4406996,-3.3936203,0.7357086,1.5200237,-2.2457612,-14.9063,-2.1930888
0.0027970846,4.4373794,-3.3936203,0.7357086,1.5200237,-2.2457612,-14.9063,-2.1930888
0.004088339,4.4343266,-3.1294348,0.6909675,1.46463,-2.0685902,-15.294161,-1.9393034
0.005373463,4.4312754,-3.1294348,0.6909675,1.46463,-2.0685902,-15.294161,-1.9393034
0.0066167666,4.428487,-2.8545966,0.636639,1.3996489,-2.5713725,-15.667656,-1.8195933
0.007852402,4.4257054,-2.8545966,0.636639,1.3996489,-2.5713725,-15.667656,-1.8195933
0.009017673,4.4232116,-2.5691056,0.56633157,1.319754,-2.1978772,-15.7586355,-1.6711528
0.01017839,4.4207196,-2.5691056,0.56633157,1.319754,-2.1978772,-15.7586355,-1.6711528
0.01126378,4.41852,-2.277223,0.48537147,1.2334676,-1.7046716,-15.86398,-1.460463
0.012345434,4.416322,-2.277223,0.48537147,1.2334676,-1.7046716,-15.86398,-1.460463
0.0133612575,4.4144087,-1.9874712,0.42039034,1.1482464,-1.757344,-16.203957,-1.091756
0.014370983,4.412502,-1.9874712,0.42039034,1.1482464,-1.757344,-16.203957,-1.091756
0.01532625,4.410881,-1.6966541,0.36712712,1.0651559,-2.3942018,-16.539145,-0.92895025
0.016265573,4.4092846,-1.6966541,0.36712712,1.0651559,-2.3942018,-16.539145,-0.92895025
0.017164739,4.407962,-1.3962495,0.31173337,0.9820652,-2.9113493,-16.692375,-1.0486604
0.018074257,4.406621,-1.3962495,0.31173337,0.9820652,-2.9113493,-16.692375,-1.0486604
0.018910838,4.4056077,-1.0851923,0.23823012,0.8936482,-2.743755,-16.64449,-1.2401965
0.019742278,4.4045987,-1.0851923,0.23823012,0.8936482,-2.743755,-16.64449,-1.2401965
0.020501614,4.4039106,-0.7688087,0.15300897,0.8009702,-2.1883004,-16.55351,-1.283292
0.021261908,4.4032207,-0.7688087,0.15300897,0.8009702,-2.1883004,-16.55351,-1.283292
0.021949278,4.402857,-0.44709885,0.06672254,0.70083535,-2.1404164,-16.46253,-1.316811
0.022639683,4.402491,-0.44709885,0.06672254,0.70083535,-2.1404164,-16.46253,-1.316811
0.023260443,4.4024525,-0.12006268,-0.011041764,0.59537417,-2.552219,-16.361975,-1.3359646
0.02388162,4.402414,-0.12006268,-0.011041764,0.59537417,-2.552219,-16.361975,-1.3359646
0.02443911,4.402709,0.2133651,-0.08987133,0.49097827,-3.0071173,-16.16565,-1.388637
0.024990978,4.4030013,0.2133651,-0.08987133,0.49097827,-3.0071173,-16.16565,-1.388637
0.025481055,4.4036307,0.5478581,-0.17083143,0.3908434,-3.2321723,-15.8544035,-1.436521
0.025970604,4.404259,0.5478581,-0.17083143,0.3908434,-3.2321723,-15.8544035,-1.436521
0.026399277,4.4052224,0.88235116,-0.25818312,0.29603487,-3.2609026,-15.433024,-1.5035586
0.026827974,4.406186,0.88235116,-0.25818312,0.29603487,-3.2609026,-15.433024,-1.5035586
0.027204882,4.4074793,1.2125832,-0.3487306,0.20868318,-3.3806129,-15.164873,-1.5897499
0.02758318,4.408777,1.2125832,-0.3487306,0.20868318,-3.3806129,-15.164873,-1.5897499
0.027916864,4.4103956,1.5364236,-0.43927807,0.12665781,-3.5673606,-14.762648,-1.733402
0.028250325,4.412014,1.5364236,-0.43927807,0.12665781,-3.5673606,-14.762648,-1.733402
0.02854233,4.413947,1.8538724,-0.5351519,0.051024042,-3.6583402,-14.614207,-1.8052281
0.028835066,4.415888,1.8538724,-0.5351519,0.051024042,-3.6583402,-14.614207,-1.8052281
0.029103005,4.418129,2.1617339,-0.6342215,-0.013957088,-3.9504328,-14.250289,-2.006341
0.029370183,4.4203696,2.1617339,-0.6342215,-0.013957088,-3.9504328,-14.250289,-2.006341
0.029612873,4.4229627,2.4610732,-0.7418132,-0.0736119,-3.7588966,-14.173674,-1.9967642
0.029845646,4.425462,2.4610732,-0.7418132,-0.0736119,-3.7588966,-14.173674,-1.9967642
0.030061679,4.428299,2.7529557,-0.85153544,-0.13007091,-3.9121256,-14.068329,-2.054225
0.03027613,4.431135,2.7529557,-0.85153544,-0.13007091,-3.9121256,-14.068329,-2.054225
0.030474134,4.434254,3.0384464,-0.96658397,-0.18226887,-3.8067808,-13.747506,-2.1883004
0.030670175,4.437376,3.0384464,-0.96658397,-0.18226887,-3.8067808,-13.747506,-2.1883004
0.030858073,4.440775,3.3154151,-1.0848284,-0.22807524,-3.8019924,-13.431472,-2.3702598
0.031042924,4.4441667,3.3154151,-1.0848284,-0.22807524,-3.8019924,-13.431472,-2.3702598
0.031220404,4.4478273,3.580666,-1.1998769,-0.26962057,-3.7541082,-13.081918,-2.5139117
0.031394396,4.4514866,3.580666,-1.1998769,-0.26962057,-3.7541082,-13.081918,-2.5139117
0.031559985,4.455393,3.8331337,-1.317056,-0.30903533,-3.6583402,-12.86644,-2.6384103
0.031721126,4.4592934,3.8331337,-1.317056,-0.30903533,-3.6583402,-12.86644,-2.6384103
0.03187657,4.463428,4.0728183,-1.4310393,-0.3431238,-3.6535518,-12.65575,-2.7820623
0.032026034,4.467537,4.0728183,-1.4310393,-0.3431238,-3.6535518,-12.65575,-2.7820623
0.03216574,4.4718914,4.2965236,-1.5439574,-0.3793428,-3.5051112,-12.421119,-2.9352913
0.03216574,4.4718914,4.2965236,-1.5439574,-0.3793428,-3.5051112,-12.421119,-2.9352913
0.032441687,4.48217,4.5074463,-1.6558101,-0.4144965,-3.3087866,-12.061988,-3.1411927
0.03246895,4.4832754,4.5074463,-1.6558101,-0.4144965,-3.3087866,-12.061988,-3.1411927
0.03246895,4.4832754,4.5074463,-1.6558101,-0.4144965,-3.3087866,-12.061988,-3.1411927
0.03246895,4.4832754,4.70452,-1.7676629,-0.4539113,-3.016694,-11.688493,-3.371036
0.03271823,4.499511,4.885615,-1.873124,-0.5039787,-2.657564,-11.353305,-3.5865142
0.032730516,4.502362,4.885615,-1.873124,-0.5039787,-2.657564,-11.353305,-3.5865142
0.032658897,4.5103445,5.049666,-1.9711283,-0.561503,-2.2649148,-11.008539,-3.7972038
0.032658897,4.5103445,5.049666,-1.9711283,-0.561503,-2.2649148,-11.008539,-3.7972038
0.03238123,4.520624,5.1966724,-2.05848,-0.6275494,-1.8148049,-10.682928,-4.0462008
0.03238123,4.520624,5.1966724,-2.05848,-0.6275494,-1.8148049,-10.682928,-4.0462008
0.032144636,4.5281954,5.1966724,-2.05848,-0.6275494,-1.8148049,-10.682928,-4.0462008
0.032144636,4.5281954,5.1966724,-2.05848,-0.6275494,-1.8148049,-10.682928,-4.0462008
0.031432506,4.5413747,5.4320955,-2.1937687,-0.7958612,-1.0247183,-10.180145,-4.1946416
0.031038987,4.54686,5.4320955,-2.1937687,-0.7958612,-1.0247183,-10.180145,-4.1946416
0.031038987,4.54686,5.4320955,-2.1937687,-0.7958612,-1.0247183,-10.180145,-4.1946416
0.030289568,4.5550327,5.5194473,-2.239575,-0.89599603,-0.8331822,-9.749189,-4.213795
0.029431337,4.562426,5.586559,-2.267272,-1.004653,-0.33518824,-9.41879,-4.074931
0.029132254,4.5649567,5.586559,-2.267272,-1.004653,-0.33518824,-9.41879,-4.074931
0.027805319,4.5746202,5.6376915,-2.2768593,-1.11331,-0.50757074,-9.208099,-3.9121256
0.02756047,4.5763726,5.6376915,-2.2768593,-1.11331,-0.50757074,-9.208099,-3.9121256
0.025842965,4.5866866,5.6696496,-2.2694025,-1.2283586,0.10055647,-8.767567,-3.6631286
0.025842965,4.5866866,5.6696496,-2.2694025,-1.2283586,0.10055647,-8.767567,-3.6631286
0.023609841,4.598043,5.680302,-2.242771,-1.3476682,0.61770403,-8.6574335,-3.347094
0.023609841,4.598043,5.680302,-2.242771,-1.3476682,0.61770403,-8.6574335,-3.347094
0.02195625,4.6062856,5.680302,-2.242771,-1.3476682,0.61770403,-8.6574335,-3.347094
0.020114025,4.6142793,5.67178,-2.2044213,-1.4723041,1.0390835,-8.599973,-3.1124623
0.020114025,4.6142793,5.67178,-2.2044213,-1.4723041,1.0390835,-8.599973,-3.1124623
0.017867498,4.6228924,5.646214,-2.1543539,-1.6001358,1.412579,-8.293514,-3.0885203
0.01560127,4.6311545,5.602538,-2.0893726,-1.7354244,2.3080103,-7.536947,-3.1172507
0.01560127,4.6311545,5.602538,-2.0893726,-1.7354244,2.3080103,-7.536947,-3.1172507
0.012257972,4.6421046,5.5322304,-2.0052168,-1.8781699,2.9017725,-6.7229185,-3.2130187
0.012257972,4.6421046,5.5322304,-2.0052168,-1.8781699,2.9017725,-6.7229185,-3.2130187
0.008346278,4.652624,5.4278345,-1.8986903,-2.0230458,3.040636,-6.0477533,-3.2800562
0.008346278,4.652624,5.4278345,-1.8986903,-2.0230458,3.040636,-6.0477533,-3.2800562
0.0040255515,4.6630483,5.28935,-1.7729892,-2.1636608,2.9783869,-5.535394,-3.217807
0.0040255515,4.6630483,5.28935,-1.7729892,-2.1636608,2.9783869,-5.535394,-3.217807
0.0040255515,4.6630483,5.28935,-1.7729892,-2.1636608,2.9783869,-5.535394,-3.217807
0.0040255515,4.6630483,5.28935,-1.7729892,-2.1636608,2.9783869,-5.535394,-3.217807
0.0040255515,4.6630483,5.28935,-1.7729892,-2.1636608,2.9783869,-5.535394,-3.217807
6.276042,4.6853113,4.9239645,-1.4970857,-2.3958883,2.207454,-4.9464207,-2.858677
6.272376,4.692373,4.715173,-1.3713845,-2.478979,1.7669208,-4.879383,-2.5187001
6.2695823,4.697457,4.715173,-1.3713845,-2.478979,1.7669208,-4.879383,-2.5187001
6.2671967,4.7015085,4.501055,-1.260597,-2.5322423,1.3694834,-4.8219223,-2.1499932
6.264954,4.705308,4.501055,-1.260597,-2.5322423,1.3694834,-4.8219223,-2.1499932
6.262333,4.709476,4.285871,-1.1668537,-2.5578086,1.3024458,-4.9081135,-1.8195933
6.259747,4.7135787,4.285871,-1.1668537,-2.5578086,1.3024458,-4.9081135,-1.8195933
6.259747,4.7135787,4.285871,-1.1668537,-2.5578086,1.3024458,-4.9081135,-1.8195933
6.254428,4.7215576,4.0738835,-1.0837631,-2.5503519,1.4269443,-5.0757074,-1.484405
6.254428,4.7215576,4.0738835,-1.0837631,-2.5503519,1.4269443,-5.0757074,-1.484405
6.2491918,4.7290783,3.870418,-1.0059987,-2.510937,1.4796166,-5.2528787,-1.1875241
6.2491918,4.7290783,3.870418,-1.0059987,-2.510937,1.4796166,-5.2528787,-1.1875241
6.244146,4.736108,3.6776052,-0.92823446,-2.44276,1.5179238,-5.4061074,-0.9576807
6.24157,4.739623,3.492249,-0.8483396,-2.3543432,1.5658079,-5.530606,-0.7469909
6.2391796,4.742881,3.492249,-0.8483396,-2.3543432,1.5658079,-5.530606,-0.7469909
6.2391796,4.742881,3.492249,-0.8483396,-2.3543432,1.5658079,-5.530606,-0.7469909
6.234392,4.749341,3.3122194,-0.76951003,-2.241425,1.934515,-5.473145,-0.48362875
6.2321253,4.752405,3.141777,-0.69174576,-2.1146586,1.8962077,-5.6215854,-0.30166942
6.2321253,4.752405,3.141777,-0.69174576,-2.1146586,1.8962077,-5.6215854,-0.30166942
6.227568,4.7585597,2.9851832,-0.6118509,-1.9953489,1.6950948,-5.9184666,-0.272939
6.2254286,4.761453,2.9851832,-0.6118509,-1.9953489,1.6950948,-5.9184666,-0.272939
6.2234125,4.764212,2.8360462,-0.5372824,-1.866452,1.733402,-5.8945246,-0.23942018
6.221529,4.766787,2.8360462,-0.5372824,-1.866452,1.733402,-5.8945246,-0.23942018
6.219576,4.7695093,2.6847787,-0.47230127,-1.7237065,2.0685902,-5.6886234,-0.21547815
6.2176976,4.772126,2.6847787,-0.47230127,-1.7237065,2.0685902,-5.6886234,-0.21547815
6.2159715,4.7745776,2.524989,-0.40945068,-1.5788306,2.0494366,-5.2863975,-0.35434186
6.2142515,4.777018,2.524989,-0.40945068,-1.5788306,2.0494366,-5.2863975,-0.35434186
6.212684,4.7792788,2.3406982,-0.34127375,-1.4296936,1.982399,-4.8745947,-0.59855044
6.2111077,4.7815523,2.3406982,-0.34127375,-1.4296936,1.982399,-4.8745947,-0.59855044
6.209724,4.7835817,2.1287105,-0.26883575,-1.2709692,1.8004397,-4.3622355,-0.866701
6.20834,4.7856116,2.1287105,-0.26883575,-1.2709692,1.8004397,-4.3622355,-0.866701
6.2071075,4.7874184,1.8836998,-0.19533251,-1.1037226,2.3511062,-3.466804,-1.0965444
6.205882,4.789214,1.8836998,-0.19533251,-1.1037226,2.3511062,-3.466804,-1.0965444
6.2048187,4.7907453,1.6046004,-0.11543768,-0.9364761,2.5474305,-2.4660277,-1.13964
6.2037497,4.7922854,1.6046004,-0.11543768,-0.9364761,2.5474305,-2.4660277,-1.13964
6.202854,4.7935104,1.2967391,-0.027020732,-0.7777517,2.1787236,-1.8339585,-1.2354081
6.201962,4.794732,1.2967391,-0.027020732,-0.7777517,2.1787236,-1.8339585,-1.2354081
6.201231,4.795612,0.95905024,0.06352675,-0.6296799,2.1787236,-1.1683705,-1.4173675
6.2004957,4.7964983,0.95905024,0.06352675,-0.6296799,2.1787236,-1.1683705,-1.4173675
6.1999025,4.79704,0.5925993,0.15727001,-0.4901303,2.858677,-0.5506664,-1.5275006
6.1993084,4.797584,0.5925993,0.15727001,-0.4901303,2.858677,-0.5506664,-1.5275006
6.1988535,4.797749,0.1984514,0.2627312,-0.36229858,3.4332852,-0.12928689,-1.6998832
6.198399,4.797914,0.1984514,0.2627312,-0.36229858,3.4332852,-0.12928689,-1.6998832
6.1980686,4.797674,-0.21700174,0.38204083,-0.24831527,3.4237084,-0.01436521,-1.685518
6.1977386,4.797435,-0.21700174,0.38204083,-0.24831527,3.4237084,-0.01436521,-1.685518
6.1975155,4.796758,-0.6505644,0.5056115,-0.15244147,2.8107927,-0.33997664,-1.7190368
6.197291,4.796078,-0.6505644,0.5056115,-0.15244147,2.8107927,-0.33997664,-1.7190368
6.197165,4.794951,-1.0894533,0.62066007,-0.07148137,1.9393034,-0.79966336,-1.5562311
6.1970387,4.7938232,-1.0894533,0.62066007,-0.07148137,1.9393034,-0.79966336,-1.5562311
6.1970086,4.7922635,-1.5251465,0.7175991,0.0030871434,1.3982137,-1.292869,-1.3311762
6.1969776,4.790694,-1.5251465,0.7175991,0.0030871434,1.3982137,-1.292869,-1.3311762
6.1970253,4.7887135,-1.9491217,0.7964287,0.071264066,1.1252748,-1.9728222,-0.92895025
6.1970716,4.786735,-1.9491217,0.7964287,0.071264066,1.1252748,-1.9728222,-0.92895025
6.197173,4.7843804,-2.3549876,0.86354035,0.14050625,1.1827357,-2.6623523,-0.5554548
6.197273,4.782019,-2.3549876,0.86354035,0.14050625,1.1827357,-2.6623523,-0.5554548
6.1974235,4.7793,-2.7427437,0.92958677,0.21400951,1.7046716,-3.2369606,-0.3878607
6.197573,4.776552,-2.7427437,0.92958677,0.21400951,1.7046716,-3.2369606,-0.3878607
6.197786,4.7735157,-3.1123905,0.9977637,0.2864475,2.1739352,-3.715801,-0.34476504
6.1979976,4.7704487,-3.1123905,0.9977637,0.2864475,2.1739352,-3.715801,-0.34476504
6.198277,4.767029,-3.4660583,1.075528,0.35249388,2.1978772,-4.232949,-0.30166942
6.1985517,4.7636166,-3.4660583,1.075528,0.35249388,2.1978772,-4.232949,-0.30166942
6.1988974,4.759855,-3.802682,1.1618145,0.4089529,1.6807296,-4.735731,-0.39264908
6.1992264,4.756222,-3.802682,1.1618145,0.4089529,1.6807296,-4.735731,-0.39264908
6.1997113,4.752102,-4.1243916,1.2459702,0.45582452,0.6560113,-5.33907,-0.7565677
6.2002106,4.7478123,-4.1243916,1.2459702,0.45582452,0.6560113,-5.33907,-0.7565677
6.200796,4.7434053,-4.4322534,1.317343,0.50056565,-0.06703765,-5.7987566,-1.043872
6.2013774,4.738989,-4.4322534,1.317343,0.50056565,-0.06703765,-5.7987566,-1.043872
6.201983,4.734268,-4.7230706,1.3652799,0.5516983,0.22505496,-5.9519854,-1.1492168
6.2025843,4.7295322,-4.7230706,1.3652799,0.5516983,0.22505496,-5.9519854,-1.1492168
6.2032127,4.7245502,-4.9936476,1.3908463,0.59857,0.34955344,-6.066907,-1.3072342
6.2038355,4.719558,-4.9936476,1.3908463,0.59857,0.34955344,-6.066907,-1.3072342
6.2045193,4.7143345,-5.2386584,1.4068252,0.6337237,-0.16759412,-6.4547677,-1.508347
6.2051964,4.709106,-5.2386584,1.4068252,0.6337237,-0.16759412,-6.4547677,-1.508347
6.2059064,4.7036552,-5.463429,1.4206736,0.66248584,-0.39743748,-6.823475,-1.6424223
6.2066126,4.698182,-5.463429,1.4206736,0.66248584,-0.39743748,-6.823475,-1.6424223
6.207312,4.69251,-5.66796,1.426,0.69444376,0.12449849,-6.9958572,-1.5993267
6.2080035,4.6868434,-5.66796,1.426,0.69444376,0.12449849,-6.9958572,-1.5993267
6.208699,4.680917,-5.849055,1.4281305,0.7178796,0.40701428,-7.1873937,-1.70946
6.2093635,4.675188,-5.849055,1.4281305,0.7178796,0.40701428,-7.1873937,-1.70946
6.2100554,4.6691895,-6.0088444,1.4355874,0.7295975,0.22026655,-7.513005,-1.9393034
6.2107396,4.663184,-6.0088444,1.4355874,0.7295975,0.22026655,-7.513005,-1.9393034
6.2114325,4.6570406,-6.148394,1.4473053,0.7359891,0.0047884034,-7.905654,-2.1499932
6.2121143,4.6509147,-6.148394,1.4473053,0.7359891,0.0047884034,-7.905654,-2.1499932
6.21281,4.6446266,-6.2698345,1.4590232,0.74344593,-0.20590134,-8.197746,-2.2744915
6.2134943,4.6383624,-6.2698345,1.4590232,0.74344593,-0.20590134,-8.197746,-2.2744915
6.2141867,4.6320024,-6.3742304,1.4675453,0.7562291,-0.320823,-8.48984,-2.3702598
6.2148714,4.625635,-6.3742304,1.4675453,0.7562291,-0.320823,-8.48984,-2.3702598
6.2155747,4.6191826,-6.4626474,1.4739369,0.7743386,-0.59376204,-8.834604,-2.5474305
6.216269,4.6127357,-6.4626474,1.4739369,0.7743386,-0.59376204,-8.834604,-2.5474305
6.2169905,4.6062136,-6.5361505,1.4771327,0.79990494,-0.866701,-9.251195,-2.6623523
6.2177043,4.5996847,-6.5361505,1.4771327,0.79990494,-0.866701,-9.251195,-2.6623523
6.2184453,4.5931287,-6.5926094,1.4760674,0.8329282,-0.9768343,-9.639056,-2.6910827
6.2191825,4.5865335,-6.5926094,1.4760674,0.8329282,-0.9768343,-9.639056,-2.6910827
6.219953,4.5799303,-6.629894,1.4718064,0.8734082,-1.0295067,-9.92636,-2.6910827
6.2207227,4.573262,-6.629894,1.4718064,0.8734082,-1.0295067,-9.92636,-2.6910827
6.221557,4.566434,-6.6501336,1.4611537,0.9181493,-1.3311762,-10.414778,-2.777274
6.221557,4.566434,-6.6501336,1.4611537,0.9181493,-1.3311762,-10.414778,-2.777274
6.221557,4.566434,-6.6501336,1.4611537,0.9181493,-1.3311762,-10.414778,-2.777274
6.224135,4.5462976,-6.65546,1.4441094,0.96715146,-1.4796166,-10.793061,-2.7629087
6.2243915,4.5444155,-6.6448073,1.4196084,1.0246757,-1.5466543,-11.171345,-2.815581
6.22587,4.5334473,-6.6448073,1.4196084,1.0246757,-1.5466543,-11.171345,-2.815581
6.2268043,4.5269985,-6.6117845,1.3929768,1.0875263,-1.4796166,-11.765107,-2.7581203
6.22774,4.52048,-6.6117845,1.3929768,1.0875263,-1.4796166,-11.765107,-2.7581203
6.228741,4.5140066,-6.55426,1.3663452,1.1535728,-1.910573,-12.196063,-2.8538885
6.229732,4.5075417,-6.55426,1.3663452,1.1535728,-1.910573,-12.196063,-2.8538885
6.2307844,4.501149,-6.4733,1.3322567,1.2142929,-1.8962077,-12.938266,-2.7150247
6.23183,4.494735,-6.4733,1.3322567,1.2142929,-1.8962077,-12.938266,-2.7150247
6.2329264,4.488451,-6.373165,1.2939072,1.2739476,-2.327164,-13.608643,-2.753332
6.234012,4.48217,-6.373165,1.2939072,1.2739476,-2.327164,-13.608643,-2.753332
6.235158,4.476016,-6.2506595,1.244905,1.3378636,-2.6479871,-14.073117,-2.7006595
6.235158,4.476016,-6.2506595,1.244905,1.3378636,-2.6479871,-14.073117,-2.7006595
6.2376037,4.463821,-6.107914,1.1777934,1.4017794,-2.4660277,-14.518439,-2.60968
6.2379045,4.462303,-6.107914,1.1777934,1.4017794,-2.4660277,-14.518439,-2.60968
6.239252,4.4560623,-5.945994,1.1021596,1.4678258,-2.408567,-14.853627,-2.408567
6.240742,4.449094,-5.945994,1.1021596,1.4678258,-2.408567,-14.853627,-2.408567
6.241801,4.444097,-5.945994,1.1021596,1.4678258,-2.408567,-14.853627,-2.408567
6.2432175,4.437952,-5.7606378,1.0254606,1.5306764,-2.4756045,-15.198392,-2.2505496
6.245292,4.429681,-5.551846,0.9455657,1.589266,-2.5091233,-15.480908,-2.1499932
6.245292,4.429681,-5.551846,0.9455657,1.589266,-2.5091233,-15.480908,-2.1499932
6.248144,4.4191985,-5.3196187,0.8646056,1.6414639,-2.384625,-15.610195,-2.0494366
6.248144,4.4191985,-5.3196187,0.8646056,1.6414639,-2.384625,-15.610195,-2.0494366
6.25098,4.4095654,-5.063955,0.78044975,1.6808786,-2.2840683,-15.720328,-1.958457
6.25098,4.4095654,-5.063955,0.78044975,1.6808786,-2.2840683,-15.720328,-1.958457
6.2539105,4.4003487,-4.7880516,0.69948965,1.706445,-2.303222,-15.921441,-1.7717092
6.2539105,4.4003487,-4.7880516,0.69948965,1.706445,-2.303222,-15.921441,-1.7717092
6.2562056,4.3936887,-4.490843,0.6238558,1.7234893,-2.2697031,-16.213533,-1.5897499
6.257652,4.3894672,-4.490843,0.6238558,1.7234893,-2.2697031,-16.213533,-1.5897499
6.259448,4.384676,-4.174459,0.55461365,1.7309461,-2.432509,-16.409859,-1.5370775
6.2606053,4.381577,-4.174459,0.55461365,1.7309461,-2.432509,-16.409859,-1.5370775
6.263127,4.3754263,-3.8389008,0.48643672,1.7341418,-2.1164744,-16.821661,-1.4317327
6.263127,4.3754263,-3.8389008,0.48643672,1.7341418,-2.1164744,-16.821661,-1.4317327
6.2663083,4.3685083,-3.4788415,0.42252088,1.7320113,-2.858677,-16.984467,-1.7046716
6.2663083,4.3685083,-3.4788415,0.42252088,1.7320113,-2.858677,-16.984467,-1.7046716
6.269374,4.362589,-3.0985422,0.3436913,1.7128366,-2.6288335,-16.869545,-1.9440918
6.269374,4.362589,-3.0985422,0.3436913,1.7128366,-2.6288335,-16.869545,-1.9440918
6.272511,4.357258,-2.7065248,0.24462171,1.6734219,-2.0254946,-16.759413,-2.0207062
6.272511,4.357258,-2.7065248,0.24462171,1.6734219,-2.0254946,-16.759413,-2.0207062
6.274315,4.3541803,-2.7065248,0.24462171,1.6734219,-2.0254946,-16.759413,-2.0207062
6.2762504,4.3513303,-2.312377,0.15940055,1.625485,-1.6759412,-16.82645,-2.078167
6.2774324,4.349586,-2.312377,0.15940055,1.625485,-1.6759412,-16.82645,-2.078167
6.2792144,4.347383,-1.9171638,0.09654994,1.5754175,-1.7717092,-17.089811,-1.9009962
6.280232,4.346123,-1.9171638,0.09654994,1.5754175,-1.7717092,-17.089811,-1.9009962
6.282865,4.343523,-1.5198202,0.050743572,1.5232195,-2.303222,-17.329231,-2.0638018
6.282865,4.343523,-1.5198202,0.050743572,1.5232195,-2.303222,-17.329231,-2.0638018
0.002478422,4.341488,-1.1182154,0.0028066735,1.4678258,-2.633622,-17.3005,-2.4037786
0.002478422,4.341488,-1.1182154,0.0028066735,1.4678258,-2.633622,-17.3005,-2.4037786
0.0052245026,4.340231,-0.71554554,-0.058978666,1.4017794,-2.456451,-17.266983,-2.6240451
0.006558929,4.340001,-0.31287554,-0.13141665,1.319754,-2.2697031,-17.118542,-2.6767175
0.007883525,4.339773,-0.31287554,-0.13141665,1.319754,-2.2697031,-17.118542,-2.6767175
0.007883525,4.339773,-0.31287554,-0.13141665,1.319754,-2.2697031,-17.118542,-2.6767175
0.00963015,4.3400126,0.08979442,-0.2017241,1.2217497,-2.408567,-17.051504,-2.585738
0.011708885,4.3405466,0.4924644,-0.26990104,1.1173538,-2.944868,-16.965313,-2.566584
0.011708885,4.3405466,0.4924644,-0.26990104,1.1173538,-2.944868,-16.965313,-2.566584
0.013879893,4.342405,0.8940691,-0.33807796,1.0129578,-3.5625722,-16.922218,-2.4660277
0.015045425,4.3434024,0.8940691,-0.33807796,1.0129578,-3.5625722,-16.922218,-2.4660277
0.016258495,4.3449655,1.2956737,-0.41264647,0.9064314,-3.5769374,-16.543934,-2.5761611
0.016258495,4.3449655,1.2956737,-0.41264647,0.9064314,-3.5769374,-16.543934,-2.5761611
0.016258495,4.3449655,1.2956737,-0.41264647,0.9064314,-3.5769374,-16.543934,-2.5761611
0.016258495,4.3449655,1.2956737,-0.41264647,0.9064314,-3.5769374,-16.543934,-2.5761611
0.019925855,4.3535323,2.0861,-0.58415407,0.6869869,-3.323152,-15.7825775,-2.9113493
0.020794732,4.3555617,2.0861,-0.58415407,0.6869869,-3.323152,-15.7825775,-2.9113493
0.02162251,4.358013,2.4663994,-0.67576677,0.5687426,-3.7445314,-15.456966,-3.0550013
0.022486662,4.360574,2.4663994,-0.67576677,0.5687426,-3.7445314,-15.456966,-3.0550013
0.023268985,4.3634696,2.839242,-0.7737711,0.44623715,-4.0940847,-15.069105,-3.2465374
0.02404494,4.366345,2.839242,-0.7737711,0.44623715,-4.0940847,-15.069105,-3.2465374
0.024761172,4.3696055,3.1993015,-0.88349336,0.324797,-4.4819455,-14.5088625,-3.4284968
0.025482364,4.372895,3.1993015,-0.88349336,0.324797,-4.4819455,-14.5088625,-3.4284968
0.02611908,4.3764744,3.544447,-1.0017377,0.20442213,-4.525041,-14.202404,-3.4524388
0.026758734,4.380083,3.544447,-1.0017377,0.20442213,-4.525041,-14.202404,-3.4524388
0.02732574,4.3840346,3.8757443,-1.1263736,0.08404724,-4.9703627,-14.068329,-3.4093432
0.02788727,4.38797,3.8757443,-1.1263736,0.08404724,-4.9703627,-14.068329,-3.4093432
0.02788727,4.38797,3.8757443,-1.1263736,0.08404724,-4.9703627,-14.068329,-3.4093432
0.02788727,4.38797,3.8757443,-1.1263736,0.08404724,-4.9703627,-14.068329,-3.4093432
0.029334376,4.401119,4.499989,-1.4012119,-0.15563726,-4.7309427,-13.283031,-3.4620156
0.029758232,4.4058747,4.499989,-1.4012119,-0.15563726,-4.7309427,-13.283031,-3.4620156
0.030060371,4.410279,4.789741,-1.5418268,-0.27175108,-4.8506527,-12.995727,-3.4237084
0.0303854,4.4151087,4.789741,-1.5418268,-0.27175108,-4.8506527,-12.995727,-3.4237084
0.030632203,4.420237,5.062449,-1.6803112,-0.38893017,-4.687847,-12.737153,-3.2848446
0.030871537,4.425374,5.062449,-1.6803112,-0.38893017,-4.687847,-12.737153,-3.2848446
0.031025788,4.430751,5.315982,-1.8155998,-0.5082398,-4.606444,-12.579136,-3.265691
0.031171218,4.4361424,5.315982,-1.8155998,-0.5082398,-4.606444,-12.579136,-3.265691
0.031227868,4.4417686,5.5514054,-1.9423662,-0.6254189,-4.5058875,-12.445061,-3.1890767
0.031273823,4.447392,5.5514054,-1.9423662,-0.6254189,-4.5058875,-12.445061,-3.1890767
0.031229487,4.4532294,5.771915,-2.0659368,-0.7415327,-4.453215,-12.258312,-3.2321723
0.03117282,4.459082,5.771915,-2.0659368,-0.7415327,-4.453215,-12.258312,-3.2321723
0.03102221,4.4651175,5.9764457,-2.187377,-0.8576465,-4.247314,-12.0093155,-3.3327289
0.030857624,4.4711556,5.9764457,-2.187377,-0.8576465,-4.247314,-12.0093155,-3.3327289
0.030590758,4.477375,6.166063,-2.3034909,-0.9758909,-4.132392,-11.745954,-3.5098996
0.030307902,4.4835978,6.166063,-2.3034909,-0.9758909,-4.132392,-11.745954,-3.5098996
0.029914515,4.4899817,6.3365054,-2.4174743,-1.0983963,-3.9504328,-11.482592,-3.5194764
0.02950339,4.4963675,6.3365054,-2.4174743,-1.0983963,-3.9504328,-11.482592,-3.5194764
0.02897621,4.5028944,6.4899035,-2.5282617,-1.2209017,-3.667917,-11.133038,-3.5434184
0.028430527,4.5094104,6.4899035,-2.5282617,-1.2209017,-3.667917,-11.133038,-3.5434184
0.027760493,4.516069,6.627322,-2.6315923,-1.3434072,-3.5769374,-10.702082,-3.6727054
0.027760493,4.516069,6.627322,-2.6315923,-1.3434072,-3.5769374,-10.702082,-3.6727054
0.026618447,4.5256777,6.7476974,-2.7306619,-1.4669778,-3.1555579,-10.280702,-3.691859
0.02527098,4.536553,6.7476974,-2.7306619,-1.4669778,-3.1555579,-10.280702,-3.691859
0.02431316,4.5432053,6.8574195,-2.814818,-1.5905485,-2.60968,-9.9550905,-3.7684734
0.023307618,4.5500317,6.8574195,-2.814818,-1.5905485,-2.60968,-9.9550905,-3.7684734
0.02212987,4.5569496,6.946902,-2.8851252,-1.7151845,-1.6998832,-9.356541,-4.027047
0.020928549,4.5638704,6.946902,-2.8851252,-1.7151845,-1.6998832,-9.356541,-4.027047
0.019530596,4.570828,7.0097523,-2.9437149,-1.8536688,-0.45489833,-8.599973,-4.4340615
0.018109314,4.577788,7.0097523,-2.9437149,-1.8536688,-0.45489833,-8.599973,-4.4340615
0.01647946,4.5847797,7.03958,-2.9820642,-2.0028057,0.93852705,-7.800309,-4.7644615
0.014831221,4.5917525,7.03958,-2.9820642,-2.0028057,0.93852705,-7.800309,-4.7644615
0.012980872,4.5987263,7.025731,-2.9895213,-2.1615303,1.7956513,-6.83784,-5.1140146
0.01111456,4.6056724,7.025731,-2.9895213,-2.1615303,1.7956513,-6.83784,-5.1140146
0.009034491,4.6125593,6.965011,-2.9671507,-2.3351684,2.6240451,-5.995081,-5.3582234
0.0069332137,4.619439,6.965011,-2.9671507,-2.3351684,2.6240451,-5.995081,-5.3582234
0.0046229693,4.6261992,6.8659415,-2.916018,-2.5162632,2.9783869,-5.329493,-5.2863975
0.0022829776,4.6329794,6.8659415,-2.916018,-2.5162632,2.9783869,-5.329493,-5.2863975
6.282921,4.639603,6.730653,-2.8371885,-2.6984236,3.1028855,-4.936844,-5.104438
6.280354,4.646219,6.730653,-2.8371885,-2.6984236,3.1028855,-4.936844,-5.104438
6.2776,4.652655,6.5676675,-2.7306619,-2.8709965,2.6192567,-4.783615,-4.951209
6.274822,4.659096,6.5676675,-2.7306619,-2.8709965,2.6192567,-4.783615,-4.951209
6.271878,4.6653357,6.380181,-2.6145482,-3.0169375,2.4995465,-4.4819455,-4.711789
6.268917,4.671567,6.380181,-2.6145482,-3.0169375,2.4995465,-4.4819455,-4.711789
6.2658234,4.677582,6.174585,-2.4941733,-3.1255946,2.6288335,-4.0222588,-4.414908
6.262708,4.683601,6.174585,-2.4941733,-3.1255946,2.6288335,-4.0222588,-4.414908
6.259482,4.6893983,5.948749,-2.3706026,-3.1990979,3.098097,-3.9839516,-3.691859
6.256249,4.695177,5.948749,-2.3706026,-3.1990979,3.098097,-3.9839516,-3.691859
6.2529416,4.70073,5.7101297,-2.239575,-3.2395778,3.2944214,-4.060566,-2.9735985
6.2496223,4.7062755,5.7101297,-2.239575,-3.2395778,3.2944214,-4.060566,-2.9735985
6.2462816,4.7115827,5.4672494,-2.0968297,-3.243839,3.0502129,-4.5394063,-2.3989902
6.2429304,4.716883,5.4672494,-2.0968297,-3.243839,3.0502129,-4.5394063,-2.3989902
6.239585,4.7219687,5.227565,-1.949823,-3.20762,3.2465374,-4.879383,-1.8148049
6.236241,4.7270327,5.227565,-1.949823,-3.20762,3.2465374,-4.879383,-1.8148049
6.2329435,4.731896,4.997468,-1.8017513,-3.1373124,3.916914,-4.951209,-1.163582
6.2296352,4.7367578,4.997468,-1.8017513,-3.1373124,3.916914,-4.951209,-1.163582
6.226412,4.741398,4.784415,-1.6558101,-3.0542219,3.0262709,-5.1906295,-1.1204864
6.223182,4.7460327,4.784415,-1.6558101,-3.0542219,3.0262709,-5.1906295,-1.1204864
6.2200747,4.750451,4.5852103,-1.5162604,-2.9562175,1.9488802,-5.5401826,-1.1252748
6.216963,4.7548637,4.5852103,-1.5162604,-2.9562175,1.9488802,-5.5401826,-1.1252748
6.2139854,4.759092,4.3966584,-1.3905592,-2.8262553,1.685518,-5.707777,-0.93852705
6.211005,4.7633157,4.3966584,-1.3905592,-2.8262553,1.685518,-5.707777,-0.93852705
6.2081814,4.767369,4.2219553,-1.2893591,-2.6707265,1.5993267,-6.0525417,-0.79487497
6.205353,4.771423,4.2219553,-1.2893591,-2.6707265,1.5993267,-6.0525417,-0.79487497
6.2026978,4.7753177,4.0621657,-1.2094643,-2.4981537,1.6136919,-6.3685765,-0.6847417
6.200043,4.7792053,4.0621657,-1.2094643,-2.4981537,1.6136919,-6.3685765,-0.6847417
6.1975493,4.782979,3.9172895,-1.1402221,-2.3021452,2.1739352,-6.5026517,-0.32561144
6.1950507,4.786753,3.9172895,-1.1402221,-2.3021452,2.1739352,-6.5026517,-0.32561144
6.1927605,4.790405,3.7947843,-1.0816325,-2.096549,2.135628,-6.6079965,-0.31124622
6.1904635,4.7940607,3.7947843,-1.0816325,-2.096549,2.135628,-6.6079965,-0.31124622
6.1883802,4.797601,3.693584,-1.027304,-1.8952141,1.9440918,-6.7324953,-0.19153613
6.1862893,4.80115,3.693584,-1.027304,-1.8952141,1.9440918,-6.7324953,-0.19153613
6.184405,4.8046093,3.6072977,-0.9740408,-1.6917486,1.982399,-6.7612257,-0.14844051
6.182514,4.808076,3.6072977,-0.9740408,-1.6917486,1.982399,-6.7612257,-0.14844051
6.1808434,4.8114505,3.5327291,-0.9292997,-1.4925442,1.8962077,-6.6510925,-0.38307226
6.1791735,4.8148193,3.5327291,-0.9292997,-1.4925442,1.8962077,-6.6510925,-0.38307226
6.17769,4.8181257,3.4613564,-0.88775444,-1.3007965,2.1499932,-6.4643445,-0.5602432
6.176205,4.82143,3.4613564,-0.88775444,-1.3007965,2.1499932,-6.4643445,-0.5602432
6.1749125,4.824659,3.3825269,-0.83768696,-1.1079837,2.360683,-6.0142345,-0.7469909
6.1736207,4.82788,3.3825269,-0.83768696,-1.1079837,2.360683,-6.0142345,-0.7469909
6.172522,4.831008,3.2919793,-0.785489,-0.9204971,2.4037786,-5.521029,-0.94810385
6.17142,4.834141,3.2919793,-0.785489,-0.9204971,2.4037786,-5.521029,-0.94810385
6.1704817,4.8371706,3.1865182,-0.7396827,-0.7543159,2.5187001,-5.0900726,-0.9672575
6.169535,4.840221,3.1865182,-0.7396827,-0.7543159,2.5187001,-5.0900726,-0.9672575
6.1687384,4.8431273,3.0629475,-0.692811,-0.61050516,2.5809495,-4.711789,-0.93373865
6.167937,4.8460436,3.0629475,-0.692811,-0.61050516,2.5809495,-4.711789,-0.93373865
6.167297,4.848798,2.9180715,-0.6331562,-0.48267344,1.8866309,-4.687847,-0.9959879
6.167297,4.848798,2.9180715,-0.6331562,-0.48267344,1.8866309,-4.687847,-0.9959879
6.166247,4.8540034,2.7497597,-0.5681751,-0.36336383,1.982399,-4.8219223,-0.80445176
6.165711,4.856653,2.7497597,-0.5681751,-0.36336383,1.982399,-4.8219223,-0.80445176
6.165325,4.859045,2.5622733,-0.5042592,-0.24405421,1.7142484,-4.525041,-0.842759
6.165325,4.859045,2.5622733,-0.5042592,-0.24405421,1.7142484,-4.525041,-0.842759
6.164695,4.8635254,2.359873,-0.4446044,-0.13859303,2.231396,-4.76925,-0.31603462
6.164381,4.8657503,2.359873,-0.4446044,-0.13859303,2.231396,-4.76925,-0.31603462
6.1642427,4.8677483,2.1478853,-0.37216642,-0.03845817,1.1061212,-5.3199162,-0.29209262
6.164103,4.8697667,2.1478853,-0.37216642,-0.03845817,1.1061212,-5.3199162,-0.29209262
6.164103,4.8697667,2.1478853,-0.37216642,-0.03845817,1.1061212,-5.3199162,-0.29209262
6.164103,4.8697667,2.1478853,-0.37216642,-0.03845817,1.1061212,-5.3199162,-0.29209262
6.1641808,4.8747125,1.7239101,-0.25392208,0.1298536,1.3120226,-5.315128,-0.18674773
6.1642046,4.876202,1.7239101,-0.25392208,0.1298536,1.3120226,-5.315128,-0.18674773
6.164278,4.877568,1.5076615,-0.19533251,0.2022916,1.7142484,-5.104438,-0.1388637
6.164278,4.877568,1.5076615,-0.19533251,0.2022916,1.7142484,-5.104438,-0.1388637
6.1645613,4.8799787,1.2839559,-0.12182927,0.26407695,1.7621324,-4.8745947,-0.08619126
6.164704,4.8811913,1.2839559,-0.12182927,0.26407695,1.7621324,-4.8745947,-0.08619126
6.1649275,4.88216,1.0527935,-0.037673377,0.31414437,1.3455414,-4.7500963,-0.009576807
6.1649275,4.88216,1.0527935,-0.037673377,0.31414437,1.3455414,-4.7500963,-0.009576807
6.1649275,4.88216,1.0527935,-0.037673377,0.31414437,1.3455414,-4.7500963,-0.009576807
6.1658616,4.8843136,0.8120437,0.04754778,0.35249388,0.9768343,-4.7884035,-0.062249243
6.16618,4.8847446,0.56277186,0.12318156,0.3823213,1.0390835,-4.9464207,-0.06703765
6.1665277,4.885215,0.56277186,0.12318156,0.3823213,1.0390835,-4.9464207,-0.06703765
6.166949,4.885481,0.3092389,0.18816268,0.40469185,1.163582,-4.960786,0.047884032
6.1672993,4.885703,0.3092389,0.18816268,0.40469185,1.163582,-4.960786,0.047884032
6.1672993,4.885703,0.3092389,0.18816268,0.40469185,1.163582,-4.960786,0.047884032
6.1680193,4.8856883,0.05570596,0.24888276,0.41640976,1.2306197,-5.032612,0.24420857
6.168398,4.885437,-0.19676171,0.30534178,0.41747501,1.0582372,-5.1571107,0.4165911
6.1691566,4.884682,-0.44816414,0.35967025,0.40682238,1.0007763,-5.353435,0.59855044
6.1691566,4.884682,-0.44816414,0.35967025,0.40682238,1.0007763,-5.353435,0.59855044
6.1691566,4.884682,-0.44816414,0.35967025,0.40682238,1.0007763,-5.353435,0.59855044
6.1691566,4.884682,-0.44816414,0.35967025,0.40682238,1.0007763,-5.353435,0.59855044
6.170141,4.8826203,-0.69530547,0.415064,0.3908434,1.13964,-5.5641246,0.7038953
6.1705155,4.8816032,-0.9403163,0.47365355,0.37486443,1.1061212,-5.746084,0.866701
6.1705155,4.8816032,-0.9403163,0.47365355,0.37486443,1.1061212,-5.746084,0.866701
6.1705155,4.8816032,-0.9403163,0.47365355,0.37486443,1.1061212,-5.746084,0.866701
6.1705155,4.8816032,-0.9403163,0.47365355,0.37486443,1.1061212,-5.746084,0.866701
6.1705155,4.8816032,-0.9403163,0.47365355,0.37486443,1.1061212,-5.746084,0.866701
6.1721687,4.874641,-1.4239464,0.5982895,0.34184125,1.0247183,-6.0716953,0.7661445
6.1724205,4.873509,-1.6636308,0.66007483,0.32905808,1.0103531,-6.157887,0.61291564
6.1724205,4.873509,-1.6636308,0.66007483,0.32905808,1.0103531,-6.157887,0.61291564
6.1732516,4.8694105,-1.9054459,0.7229254,0.32053596,1.1109096,-6.133945,0.56982
6.1732516,4.8694105,-1.9054459,0.7229254,0.32053596,1.1109096,-6.133945,0.56982
6.1737905,4.8659854,-2.1451304,0.78684133,0.31414437,1.1540052,-6.167464,0.60812724
6.1737905,4.8659854,-2.1451304,0.78684133,0.31414437,1.1540052,-6.167464,0.60812724
6.174571,4.860928,-2.1451304,0.78684133,0.31414437,1.1540052,-6.167464,0.60812724
6.1749306,4.858532,-2.380554,0.8507572,0.3098833,1.0103531,-6.2584434,0.5554548
6.1753616,4.8558497,-2.6117163,0.9168036,0.3013612,0.7374141,-6.4164605,0.5267244
6.1757793,4.8532305,-2.6117163,0.9168036,0.3013612,0.7374141,-6.4164605,0.5267244
6.1757793,4.8532305,-2.6117163,0.9168036,0.3013612,0.7374141,-6.4164605,0.5267244
6.1757793,4.8532305,-2.6117163,0.9168036,0.3013612,0.7374141,-6.4164605,0.5267244
6.1757793,4.8532305,-2.6117163,0.9168036,0.3013612,0.7374141,-6.4164605,0.5267244
6.179267,4.832122,-3.4309046,1.1213343,0.31947067,0.39743748,-7.28795,0.35434186
6.179267,4.832122,-3.4309046,1.1213343,0.31947067,0.39743748,-7.28795,0.35434186
6.179267,4.832122,-3.4309046,1.1213343,0.31947067,0.39743748,-7.28795,0.35434186
6.179267,4.832122,-3.4309046,1.1213343,0.31947067,0.39743748,-7.28795,0.35434186
6.1797776,4.8287215,-3.4309046,1.1213343,0.31947067,0.39743748,-7.28795,0.35434186
6.1797776,4.8287215,-3.4309046,1.1213343,0.31947067,0.39743748,-7.28795,0.35434186
6.1797776,4.8287215,-3.4309046,1.1213343,0.31947067,0.39743748,-7.28795,0.35434186
6.1813345,4.8178406,-3.7440925,1.1959028,0.33651492,0.33997664,-8.034941,0.38307226
6.181864,4.814221,-3.7440925,1.1959028,0.33651492,0.33997664,-8.034941,0.38307226
6.1824393,4.810367,-3.8719242,1.2321218,0.3429065,0.07182605,-8.513782,0.35913026
6.183003,4.8065796,-3.8719242,1.2321218,0.3429065,0.07182605,-8.513782,0.35913026
6.1835985,4.802672,-3.9816463,1.260884,0.35568967,-0.11971009,-9.040505,0.45489833
6.1841908,4.798771,-3.9816463,1.260884,0.35568967,-0.11971009,-9.040505,0.45489833
6.184804,4.7947865,-4.073259,1.281124,0.37273392,-0.29688102,-9.490616,0.50757074
6.1854134,4.790806,-4.073259,1.281124,0.37273392,-0.29688102,-9.490616,0.50757074
6.1860485,4.786776,-4.1478276,1.2939072,0.39830026,-0.47884035,-10.012551,0.6895301
6.1866794,4.782741,-4.1478276,1.2939072,0.39830026,-0.47884035,-10.012551,0.6895301
6.187338,4.778666,-4.2074823,1.3013641,0.43238872,-0.61770403,-10.505757,0.80924016
6.1879907,4.774594,-4.2074823,1.3013641,0.43238872,-0.61770403,-10.505757,0.80924016
6.1886816,4.7704754,-4.2447667,1.3002988,0.4749993,-0.8619126,-11.008539,0.81881696
6.1893663,4.76636,-4.2447667,1.3002988,0.4749993,-0.8619126,-11.008539,0.81881696
6.190096,4.7622313,-4.267137,1.2939072,0.5282625,-0.9576807,-11.410766,0.91937345
6.1908326,4.758027,-4.267137,1.2939072,0.5282625,-0.9576807,-11.410766,0.91937345
6.191613,4.7538967,-4.2692676,1.2821892,0.5921784,-1.0582372,-11.702858,0.90500826
6.192361,4.7499127,-4.2692676,1.2821892,0.5921784,-1.0582372,-11.702858,0.90500826
6.1931896,4.7458506,-4.25755,1.2672756,0.6635511,-1.0486604,-11.9374895,0.8475474
6.1940513,4.7415967,-4.25755,1.2672756,0.6635511,-1.0486604,-11.9374895,0.8475474
6.194958,4.7374907,-4.233049,1.2481009,0.7402502,-1.0199299,-12.095507,0.8331822
6.195853,4.733411,-4.233049,1.2481009,0.7402502,-1.0199299,-12.095507,0.8331822
6.1968284,4.7293377,-4.192569,1.2299913,0.81801444,-1.1061212,-12.143391,0.7517793
6.1977873,4.7253065,-4.192569,1.2299913,0.81801444,-1.1061212,-12.143391,0.7517793
6.198794,4.7214146,-4.137175,1.208686,0.89258295,-1.115698,-12.196063,0.6655881
6.199852,4.7172995,-4.137175,1.208686,0.89258295,-1.115698,-12.196063,0.6655881
6.2009463,4.7133565,-4.074324,1.1831197,0.96289045,-1.2258313,-12.263102,0.6464345
6.2020345,4.7094154,-4.074324,1.1831197,0.96289045,-1.2258313,-12.263102,0.6464345
6.203187,4.705534,-4.000821,1.1554228,1.0278716,-1.2737153,-12.330139,0.5602432
6.2043304,4.701662,-4.000821,1.1554228,1.0278716,-1.2737153,-12.330139,0.5602432
6.2055283,4.697869,-3.919861,1.1234648,1.0853958,-1.3599066,-12.516887,0.48362875
6.20672,4.694077,-3.919861,1.1234648,1.0853958,-1.3599066,-12.516887,0.48362875
6.207958,4.690364,-3.8303788,1.087246,1.1333327,-1.5275006,-12.631808,0.49320555
6.209188,4.6866593,-3.8303788,1.087246,1.1333327,-1.5275006,-12.631808,0.49320555
6.210457,4.68305,-3.734505,1.0488963,1.1780739,-1.4173675,-12.938266,0.49320555
6.2117214,4.6794386,-3.734505,1.0488963,1.1780739,-1.4173675,-12.938266,0.49320555
6.213017,4.6759343,-3.630109,1.0052205,1.2174886,-1.3742718,-13.28782,0.62249243
6.2143064,4.672431,-3.630109,1.0052205,1.2174886,-1.3742718,-13.28782,0.62249243
6.2156262,4.6690392,-3.5150604,0.96474046,1.2494465,-1.4460979,-13.599066,0.59855044
6.2169404,4.6656475,-3.5150604,0.96474046,1.2494465,-1.4460979,-13.599066,0.59855044
6.218279,4.6623774,-3.3872287,0.9231952,1.2718171,-1.5753847,-13.852851,0.50278234
6.2196126,4.659107,-3.3872287,0.9231952,1.2718171,-1.5753847,-13.852851,0.50278234
6.2209516,4.6559763,-3.2455485,0.878454,1.279274,-1.6232687,-14.097059,0.50757074
6.2222857,4.652846,-3.2455485,0.878454,1.279274,-1.6232687,-14.097059,0.50757074
6.2236156,4.649869,-3.09002,0.83371294,1.2760782,-1.5562311,-14.379576,0.46447513
6.2249403,4.6468916,-3.09002,0.83371294,1.2760782,-1.5562311,-14.379576,0.46447513
6.226251,4.644079,-2.9249039,0.7942982,1.2643603,-1.5035586,-14.719552,0.45968673
6.227559,4.6412644,-2.9249039,0.7942982,1.2643603,-1.5035586,-14.719552,0.45968673
6.228851,4.6386304,-2.7459395,0.7591444,1.2505118,-1.6663644,-14.944607,0.48362875
6.23014,4.6359935,-2.7459395,0.7591444,1.2505118,-1.6663644,-14.944607,0.48362875
6.2314167,4.633542,-2.554192,0.7207949,1.2324023,-1.8339585,-15.20797,0.37349546
6.2326894,4.631091,-2.554192,0.7207949,1.2324023,-1.8339585,-15.20797,0.37349546
6.233937,4.628843,-2.3485959,0.6760538,1.2057707,-1.9536686,-15.480908,0.40222588
6.2351813,4.6265945,-2.3485959,0.6760538,1.2057707,-1.9536686,-15.480908,0.40222588
6.236394,4.6245627,-2.1302166,0.6227906,1.1727475,-1.9632454,-15.725117,0.4309563
6.237603,4.6225314,-2.1302166,0.6227906,1.1727475,-1.9632454,-15.725117,0.4309563
6.2387724,4.6207323,-1.8969238,0.5684621,1.1322675,-1.8818425,-15.892711,0.48362875
6.2399387,4.6189337,-1.8969238,0.5684621,1.1322675,-1.8818425,-15.892711,0.48362875
6.241061,4.61738,-1.6487172,0.51413363,1.0853958,-1.8387469,-15.988479,0.45010993
6.242182,4.6158276,-1.6487172,0.51413363,1.0853958,-1.8387469,-15.988479,0.45010993
6.243256,4.6145315,-1.3866621,0.46513146,1.0321326,-1.8914193,-15.950171,0.39743748
6.244326,4.613238,-1.3866621,0.46513146,1.0321326,-1.8914193,-15.950171,0.39743748
6.2453437,4.612214,-1.1128892,0.4182598,0.97354305,-1.9680338,-15.969325,0.4165911
6.2463593,4.611191,-1.1128892,0.4182598,0.97354305,-1.9680338,-15.969325,0.4165911
6.247321,4.6104445,-0.8295288,0.36925766,0.9096272,-2.1068976,-15.993267,0.29688102
6.2482824,4.609698,-0.8295288,0.36925766,0.9096272,-2.1068976,-15.993267,0.29688102
6.2491803,4.6092367,-0.5387116,0.3170597,0.83612394,-2.408567,-16.050728,0.29688102
6.2500753,4.608776,-0.5387116,0.3170597,0.83612394,-2.408567,-16.050728,0.29688102
6.2509017,4.6086073,-0.24256809,0.25527436,0.7583597,-2.695871,-16.280571,0.37828386
6.251728,4.608438,-0.24256809,0.25527436,0.7583597,-2.695871,-16.280571,0.37828386
6.252484,4.608568,0.058901753,0.18496689,0.6795301,-2.9400797,-16.529568,0.49799395
6.2532377,4.608697,0.058901753,0.18496689,0.6795301,-2.9400797,-16.529568,0.49799395
6.253921,4.609128,0.36463267,0.10613733,0.59857,-3.040636,-16.649279,0.47884035
6.2546053,4.60956,0.36463267,0.10613733,0.59857,-3.040636,-16.649279,0.47884035
6.255218,4.610299,0.6756899,0.021981433,0.5197404,-2.920926,-16.682798,0.4405331
6.255218,4.610299,0.6756899,0.021981433,0.5197404,-2.920926,-16.682798,0.4405331
6.2563343,4.612419,0.98568183,-0.06750078,0.44304135,-2.873042,-16.543934,0.25857377
6.256883,4.6134605,0.98568183,-0.06750078,0.44304135,-2.873042,-16.543934,0.25857377
6.2573547,4.614772,1.2946085,-0.15804826,0.36208126,-2.992752,-16.429012,0.10055647
6.257839,4.6161165,1.2946085,-0.15804826,0.36208126,-2.992752,-16.429012,0.10055647
6.25826,4.617754,1.5992742,-0.2528568,0.2800559,-3.4380736,-16.247053,-0.11492168
6.2586803,4.61939,1.5992742,-0.2528568,0.2800559,-3.4380736,-16.247053,-0.11492168
6.259035,4.6213174,1.8996787,-0.35405692,0.1990958,-3.8019924,-16.050728,-0.2873042
6.25939,4.623244,1.8996787,-0.35405692,0.1990958,-3.8019924,-16.050728,-0.2873042
6.259681,4.6254582,2.1958222,-0.46164864,0.12346203,-4.084508,-15.768212,-0.3878607
6.259974,4.6276875,2.1958222,-0.46164864,0.12346203,-4.084508,-15.768212,-0.3878607
6.2602057,4.6301756,2.4877048,-0.5766972,0.05421984,-4.343082,-15.514427,-0.47884035
6.2604375,4.63267,2.4877048,-0.5766972,0.05421984,-4.343082,-15.514427,-0.47884035
6.260617,4.6354485,2.7731955,-0.6992026,-0.00969603,-4.367024,-15.20797,-0.6560113
6.260794,4.638221,2.7731955,-0.6992026,-0.00969603,-4.367024,-15.20797,-0.6560113
6.2609205,4.6412663,3.052295,-0.82703435,-0.06935084,-4.237737,-15.011644,-0.7278373
6.2610474,4.646686,3.3218067,-0.95486605,-0.124744594,-4.1611223,-14.781801,-0.78050977
6.2610774,4.6480317,3.3218067,-0.95486605,-0.124744594,-4.1611223,-14.781801,-0.78050977
6.26115,4.6513114,3.3218067,-0.95486605,-0.124744594,-4.1611223,-14.781801,-0.78050977
6.2611704,4.6547823,3.5827966,-1.0816325,-0.1812036,-4.0462008,-14.504074,-0.8475474
6.2611704,4.6547823,3.5827966,-1.0816325,-0.1812036,-4.0462008,-14.504074,-0.8475474
6.2611704,4.6547823,3.5827966,-1.0816325,-0.1812036,-4.0462008,-14.504074,-0.8475474
6.261069,4.666169,3.8352642,-1.2052032,-0.23553209,-3.9360676,-14.259866,-0.89064306
6.2609863,4.6703453,4.074949,-1.3213171,-0.28986058,-3.8498764,-13.88637,-0.9528923
6.260888,4.6744184,4.074949,-1.3213171,-0.28986058,-3.8498764,-13.88637,-0.9528923
6.260731,4.67873,4.3029156,-1.4331698,-0.34525433,-3.715801,-13.546393,-0.92416185
6.260731,4.67873,4.3029156,-1.4331698,-0.34525433,-3.715801,-13.546393,-0.92416185
6.260731,4.67873,4.3029156,-1.4331698,-0.34525433,-3.715801,-13.546393,-0.92416185
6.260069,4.6921444,4.514903,-1.5418268,-0.4006481,-3.5625722,-13.144167,-0.93373865
6.2597985,4.6964593,4.7109118,-1.6451575,-0.45923764,-3.5194764,-12.670115,-0.8810662
6.2595015,4.701079,4.7109118,-1.6451575,-0.45923764,-3.5194764,-12.670115,-0.8810662
6.2591314,4.705878,4.894137,-1.7389007,-0.52421874,-3.3087866,-12.277467,-0.91458505
6.2591314,4.705878,4.894137,-1.7389007,-0.52421874,-3.3087866,-12.277467,-0.91458505
6.258275,4.7159815,5.06671,-1.8241218,-0.5955915,-3.0310593,-11.990162,-0.90979666
6.2571955,4.7264347,5.2264996,-1.9040167,-0.6744211,-2.633622,-11.621455,-0.94810385
6.2571955,4.7264347,5.2264996,-1.9040167,-0.6744211,-2.633622,-11.621455,-0.94810385
6.2571955,4.7264347,5.2264996,-1.9040167,-0.6744211,-2.633622,-11.621455,-0.94810385
6.2560263,4.736353,5.3671145,-1.9839115,-0.7649685,-2.3942018,-11.286267,-0.9576807
6.2553225,4.7416787,5.3671145,-1.9839115,-0.7649685,-2.3942018,-11.286267,-0.9576807
6.2553225,4.7416787,5.3671145,-1.9839115,-0.7649685,-2.3942018,-11.286267,-0.9576807
6.253695,4.75233,5.4885545,-2.0574148,-0.8640381,-2.1212628,-10.893618,-1.0199299
6.252715,4.757912,5.587624,-2.1255918,-0.97056454,-1.8052281,-10.477027,-1.0821792
6.252715,4.757912,5.587624,-2.1255918,-0.97056454,-1.8052281,-10.477027,-1.0821792
6.2505527,4.768759,5.663258,-2.1884422,-1.0813521,-1.5035586,-9.974244,-1.1300632
6.2505527,4.768759,5.663258,-2.1884422,-1.0813521,-1.5035586,-9.974244,-1.1300632
6.2505527,4.768759,5.663258,-2.1884422,-1.0813521,-1.5035586,-9.974244,-1.1300632
6.2470093,4.785672,5.7165213,-2.242771,-1.1974659,-1.067814,-9.490616,-1.091756
6.245572,4.7911496,5.743153,-2.2853813,-1.3178408,-0.18195933,-8.935161,-1.13964
6.244151,4.7965183,5.743153,-2.2853813,-1.3178408,-0.18195933,-8.935161,-1.13964
6.242515,4.80199,5.7410226,-2.3098824,-1.443542,0.7565677,-8.394072,-1.4460979
6.240863,4.8074756,5.7410226,-2.3098824,-1.443542,0.7565677,-8.394072,-1.4460979
6.2389526,4.813129,5.7090645,-2.3066866,-1.5767001,2.0638018,-7.589619,-1.6328455
6.2389526,4.813129,5.7090645,-2.3066866,-1.5767001,2.0638018,-7.589619,-1.6328455
6.235148,4.8239336,5.639822,-2.2683372,-1.713054,3.347094,-6.6271505,-1.9967642
6.2331305,4.8292823,5.639822,-2.2683372,-1.713054,3.347094,-6.6271505,-1.9967642
6.2331305,4.8292823,5.639822,-2.2683372,-1.713054,3.347094,-6.6271505,-1.9967642
6.228651,4.8400745,5.5247736,-2.1905727,-1.8557993,4.232949,-5.5018754,-2.408567
6.2262764,4.8452635,5.3575273,-2.0765896,-2.0028057,4.7740383,-4.3766007,-2.5905263
6.2238784,4.8504796,5.3575273,-2.0765896,-2.0028057,4.7740383,-4.3766007,-2.5905263
6.2238784,4.8504796,5.1348867,-1.9317136,-2.144486,4.9943047,-3.1747115,-2.7150247
6.220884,4.8563924,5.1348867,-1.9317136,-2.144486,4.9943047,-3.1747115,-2.7150247
6.2184415,4.861195,5.1348867,-1.9317136,-2.144486,4.9943047,-3.1747115,-2.7150247
6.2184415,4.861195,5.1348867,-1.9317136,-2.144486,4.9943047,-3.1747115,-2.7150247
6.2184415,4.861195,5.1348867,-1.9317136,-2.144486,4.9943047,-3.1747115,-2.7150247
6.2079077,4.8782263,4.535143,-1.5886984,-2.3713872,4.501099,-1.1779473,-2.504335
6.205386,4.881988,4.177214,-1.4171908,-2.4608696,4.0797195,-0.6607997,-2.2936451
6.2025566,4.8860826,4.177214,-1.4171908,-2.4608696,4.0797195,-0.6607997,-2.2936451
6.1998,4.889657,3.7915883,-1.2563359,-2.5258508,3.8498764,-0.33518824,-2.0590134
6.196975,4.8933134,3.7915883,-1.2563359,-2.5258508,3.8498764,-0.33518824,-2.0590134
6.194136,4.896591,3.3857226,-1.1008073,-2.5620697,3.8786068,-0.19632454,-1.733402
6.191297,4.899864,3.3857226,-1.1008073,-2.5620697,3.8786068,-0.19632454,-1.733402
6.188476,4.9027586,2.9649432,-0.9474092,-2.563135,4.6016555,0.038307227,-1.3551182
6.1856503,4.905655,2.9649432,-0.9474092,-2.563135,4.6016555,0.038307227,-1.3551182
6.182885,4.9081316,2.5399027,-0.79081535,-2.5418296,4.630386,-0.04309563,-1.2593501
6.180116,4.91061,2.5399027,-0.79081535,-2.5418296,4.630386,-0.04309563,-1.2593501
6.1774096,4.912681,2.1169927,-0.6320909,-2.5098717,4.247314,-0.320823,-1.0199299
6.1747026,4.914752,2.1169927,-0.6320909,-2.5098717,4.247314,-0.320823,-1.0199299
6.17207,4.9164243,1.6983438,-0.47549707,-2.4608696,4.1659107,-0.6464345,-0.8379706
6.16944,4.918095,1.6983438,-0.47549707,-2.4608696,4.1659107,-0.6464345,-0.8379706
6.166903,4.9193716,1.2892822,-0.3252948,-2.3873663,3.7301662,-0.770933,-0.8523358
6.1643667,4.9206486,1.2892822,-0.3252948,-2.3873663,3.7301662,-0.770933,-0.8523358
6.1619787,4.921537,0.87809014,-0.18361461,-2.276579,3.7253778,-0.6703765,-0.5410896
6.1595883,4.9224267,0.87809014,-0.18361461,-2.276579,3.7253778,-0.6703765,-0.5410896
6.157336,4.922922,0.4743549,-0.061109193,-2.1593997,3.763685,-1.0199299,-0.5602432
6.155079,4.923419,0.4743549,-0.061109193,-2.1593997,3.763685,-1.0199299,-0.5602432
6.152953,4.9235516,0.085533366,0.041156195,-2.055004,4.9655743,-1.0007763,-0.34476504
6.150823,4.9236846,0.085533366,0.041156195,-2.055004,4.9655743,-1.0007763,-0.34476504
6.148844,4.923427,-0.30648395,0.15300897,-1.9282373,3.8498764,-0.6368576,-0.62249243
6.1468625,4.9231706,-0.30648395,0.15300897,-1.9282373,3.8498764,-0.6368576,-0.62249243
6.1450543,4.9225445,-0.7091539,0.27018806,-1.7801656,5.554548,-0.842759,-0.033518825
6.1432443,4.9219184,-0.7091539,0.27018806,-1.7801656,5.554548,-0.842759,-0.033518825
6.1416235,4.9209,-1.1192807,0.39695454,-1.6107885,4.7788267,-1.4413095,0.23942018
6.140004,4.919883,-1.1192807,0.39695454,-1.6107885,4.7788267,-1.4413095,0.23942018
6.138586,4.91846,-1.527277,0.5471568,-1.4254324,3.490746,-2.1643584,0.090979666
6.1371665,4.9170384,-1.527277,0.5471568,-1.4254324,3.490746,-2.1643584,0.090979666
6.135957,4.915215,-1.9203596,0.67179275,-1.2368807,3.1986535,-2.0973208,-0.36391866
6.1347427,4.913389,-1.9203596,0.67179275,-1.2368807,3.1986535,-2.0973208,-0.36391866
6.133736,4.91119,-2.30492,0.76873183,-1.0451331,3.5194764,-1.9488802,-0.47884035
6.132728,4.9089937,-2.30492,0.76873183,-1.0451331,3.5194764,-1.9488802,-0.47884035
6.132728,4.9089937,-2.30492,0.76873183,-1.0451331,3.5194764,-1.9488802,-0.47884035
6.1310987,4.9037375,-2.6905458,0.8678014,-0.84699386,3.3566709,-2.1260512,-0.44532153
6.1305237,4.9008102,-3.0793674,0.9764584,-0.6424631,2.9113493,-2.4229321,-0.29688102
6.1299424,4.897872,-3.0793674,0.9764584,-0.6424631,2.9113493,-2.4229321,-0.29688102
6.129591,4.894616,-3.460732,1.0808543,-0.4336713,2.3654714,-2.8443117,-0.17238252
6.129229,4.8912983,-3.460732,1.0808543,-0.4336713,2.3654714,-2.8443117,-0.17238252
6.129097,4.887596,-3.8282483,1.1767281,-0.21955313,1.8626889,-3.572149,0.05267244
6.12896,4.8839025,-3.8282483,1.1767281,-0.21955313,1.8626889,-3.572149,0.05267244
6.12907,4.879854,-4.174459,1.2598187,0.006282937,1.4796166,-4.462792,0.29209262
6.129173,4.875807,-4.174459,1.2598187,0.006282937,1.4796166,-4.462792,0.29209262
6.129518,4.871435,-4.491908,1.321604,0.23638006,1.4173675,-5.267244,0.44532153
6.1298537,4.867074,-4.491908,1.321604,0.23638006,1.4173675,-5.267244,0.44532153
6.130461,4.8624063,-4.771007,1.3684757,0.45795506,1.2018893,-5.93762,0.4165911
6.13106,4.857739,-4.771007,1.3684757,0.45795506,1.2018893,-5.93762,0.4165911
6.1319056,4.852819,-5.011757,1.4046947,0.6731385,1.1252748,-6.469133,0.31124622
6.132742,4.847904,-5.011757,1.4046947,0.6731385,1.1252748,-6.469133,0.31124622
6.133771,4.842782,-5.223745,1.4281305,0.8776693,1.1875241,-6.7468605,0.35434186
6.1347923,4.8376493,-5.223745,1.4281305,0.8776693,1.1875241,-6.7468605,0.35434186
6.136016,4.832342,-5.405905,1.4494358,1.0672864,1.1492168,-7.1730285,0.21547815
6.137232,4.8270288,-5.405905,1.4494358,1.0672864,1.1492168,-7.1730285,0.21547815
6.138631,4.8215623,-5.5582376,1.4739369,1.2441202,1.1252748,-7.61835,0.19632454
6.1400228,4.8160896,-5.5582376,1.4739369,1.2441202,1.1252748,-7.61835,0.19632454
6.1416044,4.810504,-5.685004,1.4995033,1.4081709,0.91937345,-8.063671,0.076614454
6.1431813,4.804906,-5.685004,1.4995033,1.4081709,0.91937345,-8.063671,0.076614454
6.144934,4.7992277,-5.7862043,1.5229391,1.557308,0.62728083,-8.42759,0.04309563
6.146685,4.793538,-5.7862043,1.5229391,1.557308,0.62728083,-8.42759,0.04309563
6.1485887,4.787794,-5.8629036,1.5453097,1.6968576,0.272939,-8.724471,-0.062249243
6.1504884,4.7820444,-5.8629036,1.5453097,1.6968576,0.272939,-8.724471,-0.062249243
6.1525197,4.7762485,-5.917232,1.5612886,1.8246894,0.05746084,-8.978256,-0.10534488
6.154545,4.7704525,-5.917232,1.5612886,1.8246894,0.05746084,-8.978256,-0.10534488
6.156689,4.764614,-5.958777,1.570876,1.9429337,-0.1388637,-9.332599,-0.16280572
6.1588316,4.758765,-5.958777,1.570876,1.9429337,-0.1388637,-9.332599,-0.16280572
6.16107,4.7529325,-5.986474,1.5740718,2.0515907,-0.2777274,-9.634268,-0.10055647
6.163308,4.7470837,-5.986474,1.5740718,2.0515907,-0.2777274,-9.634268,-0.10055647
6.1656537,4.7411976,-6.0013876,1.5730065,2.1517255,-0.51235914,-10.0269165,-0.10055647
6.1679688,4.735371,-6.0013876,1.5730065,2.1517255,-0.51235914,-10.0269165,-0.10055647
6.170378,4.7295237,-6.0013876,1.5676801,2.2401426,-0.6751649,-10.582372,-0.033518825
6.1727796,4.7236786,-6.0013876,1.5676801,2.2401426,-0.6751649,-10.582372,-0.033518825
6.1753087,4.7177124,-5.9875393,1.5580928,2.3200374,-0.89064306,-11.03727,-0.076614454
6.177733,4.711975,-5.9875393,1.5580928,2.3200374,-0.89064306,-11.03727,-0.076614454
6.180245,4.7062054,-5.9577117,1.5399833,2.3903449,-1.0582372,-11.540052,-0.05267244
6.1827555,4.7004194,-5.9577117,1.5399833,2.3903449,-1.0582372,-11.540052,-0.05267244
6.185318,4.694659,-5.9140363,1.5154822,2.4457386,-1.3120226,-12.042834,-0.15801731
6.187871,4.6889,-5.9140363,1.5154822,2.4457386,-1.3120226,-12.042834,-0.15801731
6.19046,4.6831946,-5.853316,1.4835243,2.4904797,-1.5562311,-12.5025215,-0.25857377
6.1930375,4.677496,-5.853316,1.4835243,2.4904797,-1.5562311,-12.5025215,-0.25857377
6.195643,4.671858,-5.7787476,1.4419789,2.5213723,-1.7046716,-12.871228,-0.25378537
6.1982255,4.6662483,-5.7787476,1.4419789,2.5213723,-1.7046716,-12.871228,-0.25378537
6.200928,4.66049,-5.6882,1.3908463,2.5394819,-1.8148049,-13.206416,-0.4261679
6.2034984,4.654994,-5.6882,1.3908463,2.5394819,-1.8148049,-13.206416,-0.4261679
6.206043,4.6496506,-5.579543,1.3343873,2.5426776,-1.8914193,-13.594277,-0.4165911
6.208614,4.6442323,-5.579543,1.3343873,2.5426776,-1.8914193,-13.594277,-0.4165911
6.2111883,4.6389055,-5.4581027,1.276863,2.5394819,-1.9871874,-14.073117,-0.25857377
6.2137485,4.6335897,-5.4581027,1.276863,2.5394819,-1.9871874,-14.073117,-0.25857377
6.2163,4.628402,-5.320684,1.2214692,2.5341556,-2.1499932,-14.571112,-0.23463176
6.218842,4.6232147,-5.320684,1.2214692,2.5341556,-2.1499932,-14.571112,-0.23463176
6.221374,4.61818,-5.1640897,1.163945,2.5266986,-2.552219,-14.829685,-0.31124622
6.2239046,4.613129,-5.1640897,1.163945,2.5266986,-2.552219,-14.829685,-0.31124622
6.226403,4.6082783,-4.987256,1.0989639,2.5128503,-2.183512,-15.116989,-0.21547815
6.2289033,4.6034074,-4.987256,1.0989639,2.5128503,-2.183512,-15.116989,-0.21547815
6.231368,4.598745,-4.7880516,1.0254606,2.4904797,-2.0159178,-15.638926,0.04309563
6.231368,4.598745,-4.7880516,1.0254606,2.4904797,-2.0159178,-15.638926,0.04309563
6.236269,4.5894547,-4.5675416,0.95302254,2.463848,-2.2649148,-15.931018,0.038307227
6.2386746,4.58504,-4.5675416,0.95302254,2.463848,-2.2649148,-15.931018,0.038307227
6.241077,4.5808287,-4.3214655,0.878454,2.4329553,-2.6384103,-16.132132,-0.1340753
6.2434726,4.5766172,-4.3214655,0.878454,2.4329553,-2.6384103,-16.132132,-0.1340753
6.2458334,4.572666,-4.0551496,0.7932329,2.3924754,-2.6719291,-16.31409,-0.17238252
6.2458334,4.572666,-4.0551496,0.7932329,2.3924754,-2.6719291,-16.31409,-0.17238252
6.2458334,4.572666,-4.0551496,0.7932329,2.3924754,-2.6719291,-16.31409,-0.17238252
6.2458334,4.572666,-4.0551496,0.7932329,2.3924754,-2.6719291,-16.31409,-0.17238252
6.2458334,4.572666,-3.4788415,0.6121379,2.2976668,-2.6144683,-16.361975,-0.19153613
6.257251,4.555706,-3.4788415,0.6121379,2.2976668,-2.6144683,-16.361975,-0.19153613
6.257251,4.555706,-3.1688495,0.51945996,2.2454689,-2.5809495,-16.309301,-0.10534488
6.261846,4.5493355,-3.1688495,0.51945996,2.2454689,-2.5809495,-16.309301,-0.10534488
6.263979,4.546624,-2.8439438,0.42358613,2.1847486,-2.6479871,-16.127342,0.062249243
6.2661514,4.543857,-2.8439438,0.42358613,2.1847486,-2.6479871,-16.127342,0.062249243
6.268255,4.5414414,-2.5083857,0.32345128,2.1176372,-2.585738,-15.931018,0.090979666
6.2703223,4.539064,-2.5083857,0.32345128,2.1176372,-2.585738,-15.931018,0.090979666
6.272348,4.5369997,-2.1643052,0.22438169,2.039873,-2.4612393,-15.734694,0.272939
6.274353,4.534953,-2.1643052,0.22438169,2.039873,-2.4612393,-15.734694,0.272939
6.2763033,4.533235,-1.8148984,0.12957314,1.9535863,-2.4181437,-15.634137,0.30645782
6.2763033,4.533235,-1.8148984,0.12957314,1.9535863,-2.4181437,-15.634137,0.30645782
6.2763033,4.533235,-1.4601654,0.044351988,1.8598431,-2.5187001,-15.653291,0.23942018
6.2822757,4.528874,-1.4601654,0.044351988,1.8598431,-2.5187001,-15.653291,0.23942018
6.2822757,4.528874,-1.4601654,0.044351988,1.8598431,-2.5187001,-15.653291,0.23942018
0.0024561747,4.5269556,-1.1064975,-0.03660811,1.7575777,-2.6527755,-15.524004,0.05746084
0.0041158614,4.5262985,-0.7549603,-0.11863347,1.6478555,-2.7581203,-15.519216,-0.095768064
0.0061110407,4.525508,-0.7549603,-0.11863347,1.6478555,-2.7581203,-15.519216,-0.095768064
0.0076261344,4.525193,-0.40874934,-0.20385464,1.5296111,-2.9879637,-15.500062,-0.37828386
0.009221951,4.524862,-0.40874934,-0.20385464,1.5296111,-2.9879637,-15.500062,-0.37828386
0.010747011,4.524862,-0.068929985,-0.29014105,1.4071057,-3.2034419,-15.528792,-0.5267244
0.012292992,4.524862,-0.068929985,-0.29014105,1.4071057,-3.2034419,-15.528792,-0.5267244
0.013702039,4.525194,0.26662832,-0.3817538,1.2771435,-3.1124623,-15.452178,-0.81402856
0.015109456,4.5255265,0.26662832,-0.3817538,1.2771435,-3.1124623,-15.452178,-0.81402856
0.01640522,4.526181,0.5936645,-0.47336653,1.1450506,-2.9735985,-15.231912,-1.0390835
0.017724318,4.526848,0.5936645,-0.47336653,1.1450506,-2.9735985,-15.231912,-1.0390835
0.018925505,4.5278244,0.9121786,-0.5585877,1.0076315,-2.9879637,-14.9063,-1.3263878
0.020132516,4.528806,0.9121786,-0.5585877,1.0076315,-2.9879637,-14.9063,-1.3263878
0.021220934,4.530083,1.2211052,-0.636352,0.86595136,-3.3183637,-14.781801,-1.6136919
0.022317776,4.5313706,1.2211052,-0.636352,0.86595136,-3.3183637,-14.781801,-1.6136919
0.0232398,4.532875,1.5172487,-0.71411633,0.7200101,-3.6248214,-14.652514,-1.6998832
0.024193075,4.5344305,1.5172487,-0.71411633,0.7200101,-3.6248214,-14.652514,-1.6998832
0.024193075,4.5344305,1.8016744,-0.8004027,0.57300365,-3.7493198,-14.551958,-1.7286136
0.025842521,4.5381055,1.8016744,-0.8004027,0.57300365,-3.7493198,-14.551958,-1.7286136
0.02654257,4.5402384,2.0754473,-0.8909502,0.42280135,-3.715801,-14.355634,-1.7286136
0.027225506,4.542322,2.0754473,-0.8909502,0.42280135,-3.715801,-14.355634,-1.7286136
0.027225506,4.542322,2.0754473,-0.8909502,0.42280135,-3.715801,-14.355634,-1.7286136
0.028345734,4.5471015,2.3385677,-0.98256296,0.27046853,-3.7780502,-14.039598,-1.6903064
0.028780473,4.5498176,2.5889049,-1.079502,0.11707044,-3.916914,-13.699622,-1.6567876
0.028780473,4.5498176,2.5889049,-1.079502,0.11707044,-3.916914,-13.699622,-1.6567876
0.029350959,4.5555453,2.8253934,-1.1753758,-0.035262376,-3.8642416,-13.321339,-1.7525556
0.029634029,4.5584273,2.8253934,-1.1753758,-0.035262376,-3.8642416,-13.321339,-1.7525556
0.029901205,4.5771008,3.440051,-1.4331698,-0.48906502,-3.4715924,-12.200851,-1.9488802
0.029901205,4.5771008,3.440051,-1.4331698,-0.48906502,-3.4715924,-12.200851,-1.9488802
0.029901205,4.5771008,3.440051,-1.4331698,-0.48906502,-3.4715924,-12.200851,-1.9488802
0.029901205,4.5771008,3.440051,-1.4331698,-0.48906502,-3.4715924,-12.200851,-1.9488802
0.029901205,4.5771008,3.440051,-1.4331698,-0.48906502,-3.4715924,-12.200851,-1.9488802
0.029865455,4.5779133,3.440051,-1.4331698,-0.48906502,-3.4715924,-12.200851,-1.9488802
0.029592669,4.5812817,3.6104934,-1.5056078,-0.6371368,-3.098097,-11.616667,-2.0494366
0.029292086,4.5849166,3.6104934,-1.5056078,-0.6371368,-3.098097,-11.616667,-2.0494366
0.028812505,4.588913,3.7638915,-1.5673932,-0.78414327,-2.7581203,-11.147403,-2.27928
0.028381094,4.5924473,3.7638915,-1.5673932,-0.78414327,-2.7581203,-11.147403,-2.27928
0.02776227,4.596327,3.898115,-1.6174606,-0.93221503,-2.2026656,-10.6637745,-2.3175871
0.02713216,4.6002235,3.898115,-1.6174606,-0.93221503,-2.2026656,-10.6637745,-2.3175871
0.026338978,4.604205,4.0089025,-1.6536796,-1.0845479,-1.9632454,-10.390836,-2.3798366
0.02553898,4.608177,4.0089025,-1.6536796,-1.0845479,-1.9632454,-10.390836,-2.3798366
0.024574323,4.6122355,4.096254,-1.6824417,-1.2400764,-1.8579005,-10.065224,-2.360683
0.023603046,4.616283,4.096254,-1.6824417,-1.2400764,-1.8579005,-10.065224,-2.360683
0.022459147,4.620411,4.1623006,-1.7026818,-1.3945398,-1.7429788,-9.734824,-2.4133554
0.021349337,4.624384,4.1623006,-1.7026818,-1.3945398,-1.7429788,-9.734824,-2.4133554
0.020035423,4.6285477,4.208107,-1.7218565,-1.5490031,-1.6424223,-9.428367,-2.3415294
0.018669147,4.632845,4.208107,-1.7218565,-1.5490031,-1.6424223,-9.428367,-2.3415294
0.017184565,4.637022,4.2347383,-1.7389007,-1.6970749,-1.4077905,-9.088389,-2.2744915
0.01570052,4.6411705,4.2347383,-1.7389007,-1.6970749,-1.4077905,-9.088389,-2.2744915
0.01406275,4.6453533,4.246456,-1.7463576,-1.834494,-1.2545617,-8.911219,-2.054225
0.012406598,4.649558,4.246456,-1.7463576,-1.834494,-1.2545617,-8.911219,-2.054225
0.0106264,4.6537323,4.2443256,-1.7463576,-1.9612606,-1.1827357,-8.791509,-1.9249382
0.008837748,4.657903,4.2443256,-1.7463576,-1.9612606,-1.1827357,-8.791509,-1.9249382
0.006916386,4.6620574,4.228347,-1.7357049,-2.0784397,-0.9720459,-8.781932,-1.7525556
0.0049888864,4.6662035,4.228347,-1.7357049,-2.0784397,-0.9720459,-8.781932,-1.7525556
0.0029460262,4.6703153,4.2027807,-1.715465,-2.1839008,-0.8571242,-8.791509,-1.6567876
0.00089548196,4.674423,4.2027807,-1.715465,-2.1839008,-0.8571242,-8.791509,-1.6567876
6.2818794,4.678581,4.168692,-1.6898985,-2.273383,-0.7134721,-8.690952,-1.5610195
6.2797284,4.6826253,4.168692,-1.6898985,-2.273383,-0.7134721,-8.690952,-1.5610195
6.277469,4.686647,4.128212,-1.6579406,-2.3479514,-0.48841715,-8.652645,-1.4891934
6.2752037,4.690665,4.128212,-1.6579406,-2.3479514,-0.48841715,-8.652645,-1.4891934
6.272868,4.6946316,4.080275,-1.6238521,-2.4129326,-0.46447513,-8.767567,-1.3551182
6.270529,4.698591,4.080275,-1.6238521,-2.4129326,-0.46447513,-8.767567,-1.3551182
6.268116,4.702504,4.027012,-1.5844374,-2.4640653,-0.33997664,-8.724471,-1.3215994
6.265705,4.706402,4.027012,-1.5844374,-2.4640653,-0.33997664,-8.724471,-1.3215994
6.2632427,4.7102394,3.970553,-1.5460879,-2.5034802,-0.21068975,-8.791509,-1.1779473
6.2607756,4.714073,3.970553,-1.5460879,-2.5034802,-0.21068975,-8.791509,-1.1779473
6.2582803,4.7178545,3.910898,-1.5056078,-2.5290465,-0.23942018,-8.734048,-1.0151415
6.255782,4.721628,3.910898,-1.5056078,-2.5290465,-0.23942018,-8.734048,-1.0151415
6.2532735,4.725339,3.8491127,-1.4651277,-2.5386338,-0.22984336,-8.892065,-0.91458505
6.2507625,4.729043,3.8491127,-1.4651277,-2.5386338,-0.22984336,-8.892065,-0.91458505
6.24827,4.7326927,3.7873273,-1.4278435,-2.5333076,-0.50278234,-9.093178,-0.93852705
6.2457724,4.736339,3.7873273,-1.4278435,-2.5333076,-0.50278234,-9.093178,-0.93852705
6.2432823,4.7399178,3.725542,-1.3937551,-2.506676,-0.17717093,-9.241618,-0.7469909
6.240785,4.743497,3.725542,-1.3937551,-2.506676,-0.17717093,-9.241618,-0.7469909
6.2383065,4.746998,3.661626,-1.3543402,-2.4512823,0.24899697,-9.035717,-0.7374141
6.2358227,4.7504992,3.661626,-1.3543402,-2.4512823,0.24899697,-9.035717,-0.7374141
6.2333555,4.7539363,3.593449,-1.305338,-2.3724525,0.92416185,-8.580819,-0.80445176
6.2308793,4.7573805,3.593449,-1.305338,-2.3724525,0.92416185,-8.580819,-0.80445176
6.228472,4.760741,3.51675,-1.2478138,-2.2797747,1.4317327,-8.121132,-0.79008657
6.2260613,4.764102,3.51675,-1.2478138,-2.2797747,1.4317327,-8.121132,-0.79008657
6.2237296,4.767385,3.4240723,-1.1807021,-2.1785746,1.7908629,-7.465121,-0.842759
6.2213984,4.7706623,3.4240723,-1.1807021,-2.1785746,1.7908629,-7.465121,-0.842759
6.219165,4.7738376,3.3164804,-1.1050683,-2.0773745,1.8148049,-6.9144545,-0.842759
6.2169347,4.7770042,3.3164804,-1.1050683,-2.0773745,1.8148049,-6.9144545,-0.842759
6.2148123,4.7800493,3.1950402,-1.023043,-1.9783047,1.6041151,-6.4499793,-0.81881696
6.2126803,4.7831044,3.1950402,-1.023043,-1.9783047,1.6041151,-6.4499793,-0.81881696
6.210674,4.78601,3.0576212,-0.93675655,-1.8749741,1.3934253,-6.157887,-0.80445176
6.208672,4.788905,3.0576212,-0.93675655,-1.8749741,1.3934253,-6.157887,-0.80445176
6.206781,4.7916636,2.907419,-0.85686177,-1.7663171,1.2354081,-5.9424086,-0.7230489
6.204878,4.7944374,2.907419,-0.85686177,-1.7663171,1.2354081,-5.9424086,-0.7230489
6.2031083,4.797036,2.7454987,-0.7801627,-1.6512686,1.1779473,-5.889736,-0.6895301
6.2013426,4.7996283,2.7454987,-0.7801627,-1.6512686,1.1779473,-5.889736,-0.6895301
6.199714,4.802057,2.5761216,-0.7109205,-1.5287632,1.0007763,-5.841852,-0.7278373
6.1980715,4.8045063,2.5761216,-0.7109205,-1.5287632,1.0007763,-5.841852,-0.7278373
6.1964035,4.80704,2.4014182,-0.65339625,-1.3977356,0.8523358,-5.7508726,-0.6751649
6.19489,4.809339,2.4014182,-0.65339625,-1.3977356,0.8523358,-5.7508726,-0.6751649
6.193729,4.8111305,2.2256496,-0.6065246,-1.2613817,0.90021986,-5.693412,-0.6560113
6.192398,4.813184,2.2256496,-0.6065246,-1.2613817,0.90021986,-5.693412,-0.6560113
6.1911755,4.8150883,2.0488157,-0.56604457,-1.1186364,1.2066777,-5.5258174,-0.6703765
6.189949,4.8169985,2.0488157,-0.56604457,-1.1186364,1.2066777,-5.5258174,-0.6703765
6.188822,4.8187485,1.8677208,-0.523434,-0.9769561,2.0973208,-5.233725,-0.7469909
6.187697,4.8204947,1.8677208,-0.523434,-0.9769561,2.0973208,-5.233725,-0.7469909
6.186691,4.822068,1.6781037,-0.47230127,-0.8437981,2.858677,-5.0038815,-0.8571242
6.185685,4.8236394,1.6781037,-0.47230127,-0.8437981,2.858677,-5.0038815,-0.8571242
6.1848016,4.825022,1.4788992,-0.4030591,-0.7223579,3.2034419,-4.7979803,-0.93373865
6.183918,4.8264046,1.4788992,-0.4030591,-0.7223579,3.2034419,-4.7979803,-0.93373865
6.18315,4.827582,1.2669116,-0.32103372,-0.61476624,3.0597897,-4.453215,-0.89543146
6.1823816,4.8287587,1.2669116,-0.32103372,-0.61476624,3.0597897,-4.453215,-0.89543146
6.1817293,4.829708,1.0442713,-0.23581256,-0.5220882,2.2697031,-4.3382936,-0.82360536
6.181077,4.830658,1.0442713,-0.23581256,-0.5220882,2.2697031,-4.3382936,-0.82360536
6.1805277,4.831378,0.813109,-0.15485246,-0.44006288,1.685518,-4.175488,-0.6464345
6.1799793,4.832096,0.813109,-0.15485246,-0.44006288,1.685518,-4.175488,-0.6464345
6.17953,4.8325777,0.5723592,-0.082414486,-0.3548417,1.3838485,-3.9312792,-0.49320555
6.17908,4.833061,0.5723592,-0.082414486,-0.3548417,1.3838485,-3.9312792,-0.49320555
6.178713,4.8333063,0.32308733,-0.014237558,-0.26749003,1.5466543,-3.6487634,-0.48362875
6.178345,4.8335524,0.32308733,-0.014237558,-0.26749003,1.5466543,-3.6487634,-0.48362875
6.1780577,4.833547,0.06103228,0.05500463,-0.17907308,1.8866309,-3.4524388,-0.61291564
6.177779,4.833542,0.06103228,0.05500463,-0.17907308,1.8866309,-3.4524388,-0.61291564
6.1775846,4.833268,-0.21487121,0.12744261,-0.092786655,2.1452048,-3.3375173,-0.6895301
6.1773973,4.833004,-0.21487121,0.12744261,-0.092786655,2.1452048,-3.3375173,-0.6895301
6.177285,4.832462,-0.50355786,0.20520692,-0.016087618,2.4229321,-3.371036,-0.6847417
6.177172,4.831914,-0.50355786,0.20520692,-0.016087618,2.4229321,-3.371036,-0.6847417
6.1771374,4.8310776,-0.8028972,0.28723228,0.05421984,2.5809495,-3.4955344,-0.7134721
6.1771026,4.8302455,-0.8028972,0.28723228,0.05421984,2.5809495,-3.4955344,-0.7134721
6.1771417,4.8291073,-1.1096934,0.3735187,0.11493991,2.4612393,-3.7349546,-0.7086837
6.1771803,4.8279643,-1.1096934,0.3735187,0.11493991,2.4612393,-3.7349546,-0.7086837
6.1772842,4.826524,-1.4196854,0.46193564,0.16713788,2.2409728,-4.0414124,-0.61770403
6.177387,4.8250837,-1.4196854,0.46193564,0.16713788,2.2409728,-4.0414124,-0.61770403
6.1775517,4.8233404,-1.728612,0.5492873,0.21614003,1.9440918,-4.3287168,-0.44532153
6.1777153,4.821599,-1.728612,0.5492873,0.21614003,1.9440918,-4.3287168,-0.44532153
6.1779356,4.819563,-2.0290165,0.6345085,0.26407695,1.70946,-4.572925,-0.25857377
6.1784196,4.815213,-2.3187685,0.7122728,0.3098833,1.6184803,-4.663905,-0.24420857
6.1784196,4.815213,-2.3187685,0.7122728,0.3098833,1.6184803,-4.663905,-0.24420857
6.1798286,4.8042417,-2.8673797,0.8592793,0.4025613,1.2689269,-5.00867,-0.2825158
6.1798286,4.8042417,-2.8673797,0.8592793,0.4025613,1.2689269,-5.00867,-0.2825158
6.1798286,4.8042417,-2.8673797,0.8592793,0.4025613,1.2689269,-5.00867,-0.2825158
6.1798286,4.8042417,-2.8673797,0.8592793,0.4025613,1.2689269,-5.00867,-0.2825158
6.1798286,4.8042417,-2.8673797,0.8592793,0.4025613,1.2689269,-5.00867,-0.2825158
6.180579,4.798948,-3.1273043,0.92212987,0.44943294,0.92416185,-5.3678,-0.37828386
6.180579,4.798948,-3.1273043,0.92212987,0.44943294,0.92416185,-5.3678,-0.37828386
6.1816835,4.7922277,-3.3787067,0.97219735,0.4995004,0.7565677,-5.583278,-0.37828386
6.1822405,4.788801,-3.3787067,0.97219735,0.4995004,0.7565677,-5.583278,-0.37828386
6.1822405,4.788801,-3.3787067,0.97219735,0.4995004,0.7565677,-5.583278,-0.37828386
6.183473,4.7815814,-3.6205218,1.0084163,0.5495678,0.60812724,-5.865794,-0.45010993
6.1841464,4.7777743,-3.8495536,1.0361131,0.6060268,0.5506664,-6.1770406,-0.4357447
6.1848087,4.7740097,-3.8495536,1.0361131,0.6060268,0.5506664,-6.1770406,-0.4357447
6.185564,4.769959,-4.0626063,1.0616796,0.66781217,0.4213795,-6.5936313,-0.40222588
6.185564,4.769959,-4.0626063,1.0616796,0.66781217,0.4213795,-6.5936313,-0.40222588
6.1872516,4.7612295,-4.2564845,1.0829848,0.731728,0.4309563,-6.909666,-0.30166942
6.188031,4.7571707,-4.2564845,1.0829848,0.731728,0.4309563,-6.909666,-0.30166942
6.188895,4.752801,-4.430123,1.1021596,0.7956439,0.51235914,-7.2544312,-0.19632454
6.188895,4.752801,-4.430123,1.1021596,0.7956439,0.51235914,-7.2544312,-0.19632454
6.1907063,4.7434835,-4.580325,1.1245302,0.8584945,0.7565677,-7.4986396,-0.0047884034
6.1907063,4.7434835,-4.580325,1.1245302,0.8584945,0.7565677,-7.4986396,-0.0047884034
6.1925116,4.7339034,-4.580325,1.1245302,0.8584945,0.7565677,-7.4986396,-0.0047884034
6.1934476,4.729533,-4.704961,1.1490313,0.9096272,0.45968673,-7.9104424,-0.1388637
6.1934476,4.729533,-4.704961,1.1490313,0.9096272,0.45968673,-7.9104424,-0.1388637
6.195523,4.7202325,-4.8008347,1.1703365,0.94904196,0.076614454,-8.422802,-0.35434186
6.1966486,4.7153416,-4.8722076,1.1863155,0.98313046,-0.25857377,-8.944737,-0.39743748
6.1977544,4.7105255,-4.8722076,1.1863155,0.98313046,-0.25857377,-8.944737,-0.39743748
6.1977544,4.7105255,-4.8722076,1.1863155,0.98313046,-0.25857377,-8.944737,-0.39743748
6.2000575,4.700762,-4.92121,1.1927071,1.0204147,-0.45968673,-9.41879,-0.37349546
6.201246,4.695877,-4.951037,1.1895113,1.0651559,-0.7517793,-9.916783,-0.38307226
6.201246,4.695877,-4.951037,1.1895113,1.0651559,-0.7517793,-9.916783,-0.38307226
6.2036104,4.68625,-4.9659505,1.1777934,1.1141579,-0.8379706,-10.534488,-0.2633622
6.2036104,4.68625,-4.9659505,1.1777934,1.1141579,-0.8379706,-10.534488,-0.2633622
6.2060704,4.6768384,-4.964885,1.1575533,1.1695517,-0.89543146,-11.099519,-0.2777274
6.207444,4.671547,-4.964885,1.1575533,1.1695517,-0.89543146,-11.099519,-0.2777274
6.208737,4.6667852,-4.947841,1.1309217,1.2292066,-0.9816227,-11.683704,-0.12449849
6.2126727,4.652496,-4.914818,1.1000291,1.287796,-1.0199299,-12.176909,-0.05267244
6.2126727,4.652496,-4.914818,1.1000291,1.287796,-1.0199299,-12.176909,-0.05267244
6.2126727,4.652496,-4.914818,1.1000291,1.287796,-1.0199299,-12.176909,-0.05267244
6.2142425,4.6471863,-4.8647504,1.0712669,1.3495814,-1.091756,-12.559982,-0.047884032
6.2154493,4.6430826,-4.8647504,1.0712669,1.3495814,-1.091756,-12.559982,-0.047884032
6.2154493,4.6430826,-4.8647504,1.0712669,1.3495814,-1.091756,-12.559982,-0.047884032
6.2182617,4.6339855,-4.794443,1.0382438,1.4049752,-1.2785037,-12.794614,-0.12449849
6.2197585,4.629364,-4.7081566,1.00309,1.4561079,-1.2258313,-13.139379,-0.10055647
6.2212915,4.6246057,-4.7081566,1.00309,1.4561079,-1.2258313,-13.139379,-0.10055647
6.2228527,4.6200156,-4.6080217,0.96580577,1.500849,-1.541866,-13.057976,-0.36391866
6.2243915,4.6154723,-4.6080217,0.96580577,1.500849,-1.541866,-13.057976,-0.36391866
6.2243915,4.6154723,-4.6080217,0.96580577,1.500849,-1.541866,-13.057976,-0.36391866
6.227548,4.606594,-4.4940386,0.92426044,1.541329,-1.5179238,-13.110648,-0.4357447
6.229253,4.601949,-4.364076,0.8805846,1.5722216,-1.5370775,-13.278243,-0.4213795
6.23059,4.5983405,-4.364076,0.8805846,1.5722216,-1.5370775,-13.278243,-0.4213795
6.232459,4.5935297,-4.2192,0.8358435,1.593527,-1.9057846,-13.532028,-0.36391866
6.232459,4.5935297,-4.2192,0.8358435,1.593527,-1.9057846,-13.532028,-0.36391866
6.2353806,4.586132,-4.056215,0.78471076,1.6073754,-2.2505496,-13.900735,-0.37349546
6.2372656,4.581482,-4.056215,0.78471076,1.6073754,-2.2505496,-13.900735,-0.37349546
6.2385874,4.5783873,-3.87512,0.725056,1.6148323,-2.2170308,-14.068329,-0.40222588
6.2401996,4.5746017,-3.87512,0.725056,1.6148323,-2.2170308,-14.068329,-0.40222588
6.2418222,4.5709915,-3.678046,0.6590096,1.6158975,-1.934515,-14.274231,-0.35913026
6.2434063,4.567456,-3.678046,0.6590096,1.6158975,-1.934515,-14.274231,-0.35913026
6.245006,4.564086,-3.4671235,0.59722424,1.6105713,-1.7429788,-14.513651,-0.39264908
6.2466016,4.5607157,-3.4671235,0.59722424,1.6105713,-1.7429788,-14.513651,-0.39264908
6.2481813,4.5575814,-3.2444832,0.5375694,1.5999186,-1.6424223,-14.638149,-0.35913026
6.249763,4.554434,-3.2444832,0.5375694,1.5999186,-1.6424223,-14.638149,-0.35913026
6.2513323,4.551522,-3.00906,0.48111042,1.581809,-1.661576,-14.638149,-0.4309563
6.2528977,4.5486097,-3.00906,0.48111042,1.581809,-1.661576,-14.638149,-0.4309563
6.2544465,4.545938,-2.7661796,0.42891246,1.5562427,-1.8339585,-14.5759,-0.47405192
6.2559934,4.543264,-2.7661796,0.42891246,1.5562427,-1.8339585,-14.5759,-0.47405192
6.2575197,4.5408354,-2.5169077,0.37564924,1.5253501,-1.8866309,-14.5328045,-0.5650316
6.2590427,4.5384064,-2.5169077,0.37564924,1.5253501,-1.8866309,-14.5328045,-0.5650316
6.260533,4.53623,-2.2623096,0.31812495,1.4859352,-1.8435353,-14.537593,-0.49799395
6.262019,4.5340557,-2.2623096,0.31812495,1.4859352,-1.8435353,-14.537593,-0.49799395
6.2634645,4.5321403,-2.002385,0.26379648,1.4379984,-1.7908629,-14.5567465,-0.5315128
6.264907,4.5302267,-2.002385,0.26379648,1.4379984,-1.7908629,-14.5567465,-0.5315128
6.2663074,4.5285716,-1.7392646,0.2115985,1.3847351,-1.8483237,-14.5328045,-0.5602432
6.2677064,4.526917,-1.7392646,0.2115985,1.3847351,-1.8483237,-14.5328045,-0.5602432
6.2690578,4.5255275,-1.470818,0.1604658,1.324015,-1.8770541,-14.4370365,-0.6895301
6.270407,4.524138,-1.470818,0.1604658,1.324015,-1.8770541,-14.4370365,-0.6895301
6.2717037,4.523015,-1.2002409,0.10826785,1.2558382,-1.9680338,-14.398729,-0.80924016
6.2729993,4.521893,-1.2002409,0.10826785,1.2558382,-1.9680338,-14.398729,-0.80924016
6.27423,4.5210395,-0.9307289,0.05393937,1.1823349,-1.9249382,-14.408306,-0.81402856
6.2754188,4.520216,-0.9307289,0.05393937,1.1823349,-1.9249382,-14.408306,-0.81402856
6.2765846,4.51963,-0.66121703,-0.0025196488,1.1024401,-1.9153614,-14.528016,-0.9528923
6.2788973,4.518703,-0.3895746,-0.056848135,1.0161537,-1.9871874,-14.662091,-1.0342951
6.2788973,4.518703,-0.3895746,-0.056848135,1.0161537,-1.9871874,-14.662091,-1.0342951
6.279985,4.5183887,-0.3895746,-0.056848135,1.0161537,-1.9871874,-14.662091,-1.0342951
6.2809978,4.5183396,-0.11899741,-0.11224189,0.92880195,-2.2026656,-14.647726,-1.1348516
6.2820234,4.5182905,-0.11899741,-0.11224189,0.92880195,-2.2026656,-14.647726,-1.1348516
6.282978,4.518503,0.15157977,-0.1601788,0.840385,-2.3798366,-14.762648,-1.3982137
0.00075645704,4.518719,0.15157977,-0.1601788,0.840385,-2.3798366,-14.762648,-1.3982137
0.0016267354,4.5192056,0.42109168,-0.20705043,0.751968,-2.2888567,-14.896723,-1.2976574
0.0024996088,4.5196934,0.42109168,-0.20705043,0.751968,-2.2888567,-14.896723,-1.2976574
0.0032852776,4.5204496,0.69060355,-0.25924838,0.6592901,-2.4181437,-15.198392,-1.1683705
0.0040733325,4.521208,0.69060355,-0.25924838,0.6592901,-2.4181437,-15.198392,-1.1683705
0.004777789,4.522239,0.962246,-0.31890318,0.562351,-2.6431987,-15.399506,-1.0342951
0.005482203,4.5232706,0.962246,-0.31890318,0.562351,-2.6431987,-15.399506,-1.0342951
0.006104245,4.524575,1.236019,-0.3870801,0.46221614,-2.7868507,-15.418659,-1.043872
0.0067257816,4.525879,1.236019,-0.3870801,0.46221614,-2.7868507,-15.418659,-1.043872
0.007268575,4.5274525,1.5087267,-0.4595181,0.3642118,-2.8921957,-15.217546,-1.1109096
0.007810784,4.529024,1.5087267,-0.4595181,0.3642118,-2.8921957,-15.217546,-1.1109096
0.008272138,4.5308714,1.7803692,-0.5340866,0.26727274,-2.882619,-14.968549,-1.0773908
0.008732352,4.532715,1.7803692,-0.5340866,0.26727274,-2.882619,-14.968549,-1.0773908
0.0091157975,4.5348177,2.0445547,-0.6118509,0.17033367,-2.9879637,-14.686033,-1.163582
0.009499646,4.536925,2.0445547,-0.6118509,0.17033367,-2.9879637,-14.686033,-1.163582
0.009803933,4.5392833,2.3023486,-0.68961525,0.072329335,-3.1124623,-14.432248,-1.2354081
0.010107515,4.541641,2.3023486,-0.68961525,0.072329335,-3.1124623,-14.432248,-1.2354081
0.010337794,4.54424,2.5516205,-0.7673795,-0.02141394,-3.265691,-14.173674,-1.4173675
0.010566712,4.5468354,2.5516205,-0.7673795,-0.02141394,-3.265691,-14.173674,-1.4173675
0.01072412,4.5496683,2.7934356,-0.84407854,-0.109830886,-3.5673606,-13.9677725,-1.5179238
0.01087998,4.5525026,2.7934356,-0.84407854,-0.109830886,-3.5673606,-13.9677725,-1.5179238
0.010970959,4.5555525,3.0267286,-0.9207776,-0.19079098,-3.763685,-13.618219,-1.7621324
0.011059728,4.5586042,3.0267286,-0.9207776,-0.19079098,-3.763685,-13.618219,-1.7621324
0.011083544,4.5618696,3.2483037,-1.002803,-0.26855528,-3.7014358,-13.330915,-1.9057846
0.011104429,4.565134,3.2483037,-1.002803,-0.26855528,-3.7014358,-13.330915,-1.9057846
0.011064137,4.56861,3.4602911,-1.0901546,-0.339928,-3.5817258,-13.187263,-1.8770541
0.011020367,4.5720844,3.4602911,-1.0901546,-0.339928,-3.5817258,-13.187263,-1.8770541
0.010919349,4.5757565,3.6605608,-1.1753758,-0.40597442,-3.3758245,-12.98615,-1.8722657
0.010813971,4.57943,3.6605608,-1.1753758,-0.40597442,-3.3758245,-12.98615,-1.8722657
0.010653153,4.583303,3.850178,-1.2574012,-0.46775976,-3.2752678,-12.861651,-1.8722657
0.0104883425,4.5871506,3.850178,-1.2574012,-0.46775976,-3.2752678,-12.861651,-1.8722657
0.010270965,4.5911803,4.0302076,-1.337296,-0.52528405,-3.2992098,-12.689269,-1.8483237
0.010053768,4.5951023,4.0302076,-1.337296,-0.52528405,-3.2992098,-12.689269,-1.8483237
0.009782683,4.599296,4.2006497,-1.4129298,-0.57641673,-3.1842883,-12.425907,-1.8531121
0.009496746,4.603613,4.2006497,-1.4129298,-0.57641673,-3.1842883,-12.425907,-1.8531121
0.009171098,4.6079664,4.361505,-1.486433,-0.6254189,-3.0119057,-12.124237,-1.7956513
0.0088403905,4.6122904,4.361505,-1.486433,-0.6254189,-3.0119057,-12.124237,-1.7956513
0.008459159,4.616786,4.5127726,-1.5556753,-0.6722905,-2.9017725,-11.84651,-1.8339585
0.008067543,4.621306,4.5127726,-1.5556753,-0.6722905,-2.9017725,-11.84651,-1.8339585
0.007629604,4.625928,4.654453,-1.6227869,-0.71703166,-2.7150247,-11.463438,-1.8579005
0.0071827974,4.630547,4.654453,-1.6227869,-0.71703166,-2.7150247,-11.463438,-1.8579005
0.006684566,4.635295,4.7876105,-1.683507,-0.762838,-2.4660277,-11.252748,-1.8100165
0.006175662,4.6400485,4.7876105,-1.683507,-0.762838,-2.4660277,-11.252748,-1.8100165
0.005604523,4.6449156,4.914377,-1.7346396,-0.8139707,-1.982399,-11.089942,-1.7286136
0.005022841,4.6497793,4.914377,-1.7346396,-0.8139707,-1.982399,-11.089942,-1.7286136
0.004368816,4.654749,5.0294256,-1.780446,-0.87149495,-1.733402,-10.893618,-1.733402
0.0037036124,4.6597157,5.0294256,-1.780446,-0.87149495,-1.733402,-10.893618,-1.733402
0.0029309806,4.664755,5.128495,-1.816665,-0.9364761,-1.1252748,-10.448297,-1.9393034
0.0021466638,4.669797,5.128495,-1.816665,-0.9364761,-1.1252748,-10.448297,-1.9393034
0.00123414,4.674903,5.2051945,-1.8454272,-1.0099794,-0.39264908,-10.04607,-2.0925324
0.00031198893,4.680007,5.2051945,-1.8454272,-1.0099794,-0.39264908,-10.04607,-2.0925324
6.2824507,4.685163,5.260588,-1.8614061,-1.0920048,0.18674773,-9.672575,-2.1452048
6.281395,4.690317,5.260588,-1.8614061,-1.0920048,0.18674773,-9.672575,-2.1452048
6.2802124,4.6954904,5.28935,-1.8614061,-1.1846827,0.7182605,-9.14585,-2.135628
6.279017,4.700681,5.28935,-1.8614061,-1.1846827,0.7182605,-9.14585,-2.135628
6.277682,4.705869,5.2936115,-1.8464924,-1.2912092,1.2737153,-8.7053175,-2.0638018
6.2763357,4.7110643,5.2936115,-1.8464924,-1.2912092,1.2737153,-8.7053175,-2.0638018
6.274851,4.71624,5.272306,-1.8113387,-1.4083883,1.5275006,-8.231265,-1.9393034
6.2733674,4.721381,5.272306,-1.8113387,-1.4083883,1.5275006,-8.231265,-1.9393034
6.2717237,4.7265024,5.2296953,-1.7612712,-1.5340894,1.9536686,-7.771579,-1.6663644
6.2700295,4.7317533,5.2296953,-1.7612712,-1.5340894,1.9536686,-7.771579,-1.6663644
6.2681403,4.7370796,5.1647143,-1.6941596,-1.6640518,1.934515,-7.5082164,-1.4891934
6.2681403,4.7370796,5.1647143,-1.6941596,-1.6640518,1.934515,-7.5082164,-1.4891934
6.2645984,4.7468004,5.082689,-1.6131995,-1.7950792,2.0733786,-7.326257,-1.2689269
6.262412,4.7523656,5.082689,-1.6131995,-1.7950792,2.0733786,-7.326257,-1.2689269
6.262412,4.7523656,5.082689,-1.6131995,-1.7950792,2.0733786,-7.326257,-1.2689269
6.258347,4.761814,4.98788,-1.5258478,-1.9261068,2.15957,-7.144298,-1.0342951
6.2561107,4.7665997,4.882419,-1.425713,-2.0528734,2.030283,-7.0006456,-0.89064306
6.2538834,4.771353,4.882419,-1.425713,-2.0528734,2.030283,-7.0006456,-0.89064306
6.2515554,4.7759857,4.76524,-1.3223823,-2.1668565,1.5131354,-6.9048777,-0.770933
6.2492356,4.780592,4.76524,-1.3223823,-2.1668565,1.5131354,-6.9048777,-0.770933
6.2468257,4.7850647,4.639539,-1.2275738,-2.2659261,1.484405,-6.8330517,-0.7326257
6.24442,4.7895207,4.639539,-1.2275738,-2.2659261,1.484405,-6.8330517,-0.7326257
6.241934,4.7938285,4.505316,-1.1402221,-2.3447556,1.8052281,-6.95755,-0.38307226
6.2390695,4.7987833,4.505316,-1.1402221,-2.3447556,1.8052281,-6.95755,-0.38307226
6.2364655,4.803046,4.3678966,-1.0571314,-2.4044106,2.2122424,-6.991069,0.0047884034
6.2341523,4.8068247,4.3678966,-1.0571314,-2.4044106,2.2122424,-6.991069,0.0047884034
6.2256145,4.8201404,4.232608,-0.9761714,-2.450217,2.4660277,-7.1873937,0.33997664
6.2256145,4.8201404,4.232608,-0.9761714,-2.450217,2.4660277,-7.1873937,0.33997664
6.2256145,4.8201404,4.232608,-0.9761714,-2.450217,2.4660277,-7.1873937,0.33997664
6.224884,4.8212323,4.106907,-0.89201546,-2.4875011,2.1260512,-7.4363904,0.48362875
6.22054,4.827524,3.9907928,-0.8046638,-2.5088065,1.7717092,-7.5800424,0.6751649
6.2177944,4.831493,3.9907928,-0.8046638,-2.5088065,1.7717092,-7.5800424,0.6751649
6.2150316,4.8354015,3.8842664,-0.7237037,-2.510937,1.5897499,-7.6710224,0.8475474
6.2150316,4.8354015,3.8842664,-0.7237037,-2.510937,1.5897499,-7.6710224,0.8475474
6.2096386,4.8429937,3.7873273,-0.652331,-2.490697,1.4556746,-7.608773,1.0151415
6.2096386,4.8429937,3.7873273,-0.652331,-2.490697,1.4556746,-7.608773,1.0151415
6.204399,4.850315,3.701041,-0.58734983,-2.4523475,1.3982137,-7.589619,1.1492168
6.201608,4.854213,3.701041,-0.58734983,-2.4523475,1.3982137,-7.589619,1.1492168
6.201608,4.854213,3.701041,-0.58734983,-2.4523475,1.3982137,-7.589619,1.1492168
6.196381,4.861578,3.6232767,-0.5308908,-2.4044106,1.0821792,-7.541735,1.2018893
6.193852,4.865112,3.556165,-0.48188865,-2.3426251,0.8858546,-7.5704656,1.115698
6.1913633,4.8685794,3.556165,-0.48188865,-2.3426251,0.8858546,-7.5704656,1.115698
6.18891,4.872085,3.4933143,-0.4382128,-2.2659261,1.2593501,-7.3645644,1.1971009
6.186275,4.875843,3.4933143,-0.4382128,-2.2659261,1.2593501,-7.3645644,1.1971009
6.186275,4.875843,3.4933143,-0.4382128,-2.2659261,1.2593501,-7.3645644,1.1971009
6.1818194,4.882285,3.4304638,-0.39773276,-2.1796398,1.3551182,-7.321469,1.067814
6.1794767,4.8857574,3.3686783,-0.35831797,-2.092288,2.135628,-7.0820484,1.0342951
6.1769876,4.8894453,3.3686783,-0.35831797,-2.092288,2.135628,-7.0820484,1.0342951
6.1769876,4.8894453,3.3686783,-0.35831797,-2.092288,2.135628,-7.0820484,1.0342951
6.1730433,4.8954115,3.3015668,-0.31144634,-2.0060017,1.8100165,-6.9479733,0.8762778
6.168954,4.901876,3.222737,-0.25711787,-1.9143889,1.115698,-6.5457473,0.60333884
6.168954,4.901876,3.222737,-0.25711787,-1.9143889,1.115698,-6.5457473,0.60333884
6.168954,4.901876,3.222737,-0.25711787,-1.9143889,1.115698,-6.5457473,0.60333884
6.166738,4.9055576,3.1311245,-0.21770307,-1.8217108,0.7469909,-6.4499793,0.33997664
6.1628995,4.9119925,3.0224674,-0.18894093,-1.7247719,0.7469909,-5.693412,0.08619126
6.1628995,4.9119925,3.0224674,-0.18894093,-1.7247719,0.7469909,-5.693412,0.08619126
6.16087,4.9154296,2.8882442,-0.16550511,-1.6182454,1.2162545,-5.755661,0.5554548
6.159856,4.9171214,2.8882442,-0.16550511,-1.6182454,1.2162545,-5.755661,0.5554548
6.1579275,4.920342,2.8882442,-0.16550511,-1.6182454,1.2162545,-5.755661,0.5554548
6.1579275,4.920342,2.8882442,-0.16550511,-1.6182454,1.2162545,-5.755661,0.5554548
6.154549,4.927273,2.581448,-0.109046094,-1.3604513,-0.7374141,-6.009446,0.4213795
6.154353,4.927674,2.581448,-0.109046094,-1.3604513,-0.7374141,-6.009446,0.4213795
6.1528444,4.930768,2.581448,-0.109046094,-1.3604513,-0.7374141,-6.009446,0.4213795
6.1528444,4.930768,2.581448,-0.109046094,-1.3604513,-0.7374141,-6.009446,0.4213795
6.1500926,4.9366446,2.2725213,-0.13567771,-1.1069185,-0.04309563,-5.3007627,0.36391866
6.1498413,4.937181,2.2725213,-0.13567771,-1.1069185,-0.04309563,-5.3007627,0.36391866
6.1481814,4.9404707,2.102079,-0.14419982,-0.97056454,0.8714894,-4.9320555,0.5793968
6.1481814,4.9404707,2.102079,-0.14419982,-0.97056454,0.8714894,-4.9320555,0.5793968
6.1462955,4.944174,1.9156578,-0.13461244,-0.8320802,1.1827357,-4.721366,0.7326257
6.1462955,4.944174,1.9156578,-0.13461244,-0.8320802,1.1827357,-4.721366,0.7326257
6.1444798,4.9477744,1.7185838,-0.10691556,-0.70105267,1.2210429,-4.5154643,0.7182605
6.143666,4.9494348,1.7185838,-0.10691556,-0.70105267,1.2210429,-4.5154643,0.7182605
6.1430006,4.9508715,1.5119225,-0.07708816,-0.5806778,1.0965444,-4.3622355,0.5602432
6.1423373,4.9523063,1.5119225,-0.07708816,-0.5806778,1.0965444,-4.3622355,0.5602432
6.1417575,4.953547,1.2946085,-0.04832602,-0.47095555,1.340753,-4.2042184,0.5793968
6.141179,4.954786,1.2946085,-0.04832602,-0.47095555,1.340753,-4.2042184,0.5793968
6.1406875,4.9558134,1.0645114,-0.01956388,-0.37082067,1.4939818,-4.050989,0.6703765
6.140197,4.9568405,1.0645114,-0.01956388,-0.37082067,1.4939818,-4.050989,0.6703765
6.1397905,4.957653,0.82589215,0.012394054,-0.2802732,1.6089035,-3.8498764,0.7565677
6.139386,4.958462,0.82589215,0.012394054,-0.2802732,1.6089035,-3.8498764,0.7565677
6.139032,4.9591475,0.58088136,0.05393937,-0.19824784,1.4317327,-3.787627,1.0582372
6.138693,4.9598036,0.58088136,0.05393937,-0.19824784,1.4317327,-3.787627,1.0582372
6.138693,4.9598036,0.58088136,0.05393937,-0.19824784,1.4317327,-3.787627,1.0582372
6.138299,4.9605556,0.3326747,0.09761521,-0.12580985,1.0486604,-3.8259344,1.1971009
6.138211,4.9607487,0.085533366,0.13596474,-0.058698196,0.842759,-3.9983168,1.3263878
6.138121,4.960945,0.085533366,0.13596474,-0.058698196,0.842759,-3.9983168,1.3263878
6.1381116,4.9609017,-0.16054273,0.16898793,0.0009566145,0.8714894,-4.19943,1.4700398
6.138102,4.9608583,-0.16054273,0.16898793,0.0009566145,0.8714894,-4.19943,1.4700398
6.1381392,4.9605722,-0.4044883,0.19881533,0.055285104,0.9959879,-4.3957543,1.5562311
6.138177,4.9602833,-0.4044883,0.19881533,0.055285104,0.9959879,-4.3957543,1.5562311
6.138245,4.959742,-0.6473686,0.22651221,0.10428727,1.1348516,-4.6112323,1.5466543
6.138314,4.959202,-0.6473686,0.22651221,0.10428727,1.1348516,-4.6112323,1.5466543
6.138421,4.958415,-0.88918364,0.25527436,0.1479631,1.3024458,-4.7740383,1.6184803
6.1385293,4.9576244,-0.88918364,0.25527436,0.1479631,1.3024458,-4.7740383,1.6184803
6.138675,4.956598,-1.1299334,0.28510174,0.1841821,1.4077905,-5.070919,1.6950948
6.1388216,4.9555693,-1.1299334,0.28510174,0.1841821,1.4077905,-5.070919,1.6950948
6.1389995,4.954294,-1.3717484,0.3170597,0.21614003,1.5897499,-5.3342814,1.7764976
6.1391773,4.953027,-1.3717484,0.3170597,0.21614003,1.5897499,-5.3342814,1.7764976
6.139388,4.951519,-1.6114329,0.3522134,0.24383691,1.70946,-5.554548,1.8483237
6.139599,4.950012,-1.6114329,0.3522134,0.24383691,1.70946,-5.554548,1.8483237
6.1398416,4.9482746,-1.8468564,0.39056292,0.2651422,1.6328455,-5.7029886,1.8435353
6.1400843,4.9465384,-1.8468564,0.39056292,0.2651422,1.6328455,-5.7029886,1.8435353
6.140347,4.9445806,-2.0737576,0.42997772,0.27792537,1.4317327,-5.837064,1.733402
6.1406116,4.9426217,-2.0737576,0.42997772,0.27792537,1.4317327,-5.837064,1.733402
6.1409454,4.940455,-2.2942674,0.4693925,0.2853822,1.1252748,-5.947197,1.8004397
6.141273,4.9383297,-2.2942674,0.4693925,0.2853822,1.1252748,-5.947197,1.8004397
6.141733,4.9359684,-2.509451,0.5045462,0.29070854,0.7182605,-6.1387334,1.6711528
6.1421885,4.9336114,-2.509451,0.5045462,0.29070854,0.7182605,-6.1387334,1.6711528
6.1427217,4.930997,-2.7171774,0.5354389,0.29603487,0.4405331,-6.1770406,1.5275006
6.143251,4.928386,-2.7171774,0.5354389,0.29603487,0.4405331,-6.1770406,1.5275006
6.143808,4.9255433,-2.921708,0.55994,0.3066875,0.29209262,-6.2249246,1.4269443
6.1443615,4.922707,-2.921708,0.55994,0.3066875,0.29209262,-6.2249246,1.4269443
6.1449184,4.9195995,-3.123043,0.5769842,0.32266647,0.35913026,-6.1243677,1.0821792
6.145477,4.916496,-3.123043,0.5769842,0.32266647,0.35913026,-6.1243677,1.0821792
6.1459985,4.913159,-3.320117,0.5876369,0.34077597,0.49320555,-6.0716953,0.80445176
6.146519,4.909837,-3.320117,0.5876369,0.34077597,0.49320555,-6.0716953,0.80445176
6.1470165,4.9062705,-3.5182562,0.596159,0.35462442,0.63206923,-6.042965,0.5650316
6.14751,4.9027224,-3.5182562,0.596159,0.35462442,0.63206923,-6.042965,0.5650316
6.1480136,4.8989744,-3.7174606,0.6046811,0.36953813,0.62249243,-6.2728086,0.36391866
6.1485167,4.8952227,-3.7174606,0.6046811,0.36953813,0.62249243,-6.2728086,0.36391866
6.1490464,4.8912735,-3.9134693,0.6121379,0.3855171,0.51714754,-6.4739213,0.29688102
6.149572,4.887344,-3.9134693,0.6121379,0.3855171,0.51714754,-6.4739213,0.29688102
6.1501145,4.883208,-4.1030865,0.61746424,0.4057571,0.50757074,-6.6989765,0.11492168
6.1506543,4.8790803,-4.1030865,0.61746424,0.4057571,0.50757074,-6.6989765,0.11492168
6.1512256,4.874773,-4.280986,0.6227906,0.42919293,0.45489833,-6.9862804,0.17238252
6.1517954,4.8704658,-4.280986,0.6227906,0.42919293,0.45489833,-6.9862804,0.17238252
6.152398,4.866017,-4.442906,0.6313127,0.45902032,0.44532153,-7.326257,0.23463176
6.153003,4.8615375,-4.442906,0.6313127,0.45902032,0.44532153,-7.326257,0.23463176
6.1536584,4.8569326,-4.5899124,0.6419653,0.49204352,0.4165911,-7.680599,0.45968673
6.154314,4.8523245,-4.5899124,0.6419653,0.49204352,0.4165911,-7.680599,0.45968673
6.155019,4.847599,-4.718809,0.65687907,0.5314583,0.24899697,-8.049306,0.40701428
6.155723,4.8428793,-4.718809,0.65687907,0.5314583,0.24899697,-8.049306,0.40701428
6.1564813,4.838047,-4.826401,0.66966224,0.5804605,0.22505496,-8.441956,0.4309563
6.157239,4.8332214,-4.826401,0.66966224,0.5804605,0.22505496,-8.441956,0.4309563
6.158057,4.828312,-4.914818,0.6824454,0.6369195,0.14844051,-8.863335,0.4309563
6.1588745,4.8234105,-4.914818,0.6824454,0.6369195,0.14844051,-8.863335,0.4309563
6.1597605,4.8184423,-4.9840603,0.6952286,0.69870484,0.023942016,-9.246407,0.44532153
6.160646,4.8134775,-4.9840603,0.6952286,0.69870484,0.023942016,-9.246407,0.44532153
6.1615934,4.808456,-5.036258,0.7048159,0.767947,-0.0047884034,-9.552865,0.33039984
6.162542,4.803432,-5.036258,0.7048159,0.767947,-0.0047884034,-9.552865,0.33039984
6.163564,4.7983875,-5.070347,0.71440333,0.8435808,0.062249243,-9.811439,0.37349546
6.164587,4.793342,-5.070347,0.71440333,0.8435808,0.062249243,-9.811439,0.37349546
6.165676,4.7882614,-5.0895214,0.7229254,0.9213451,0.11971009,-10.0269165,0.22505496
6.1667633,4.7831945,-5.0895214,0.7229254,0.9213451,0.11971009,-10.0269165,0.22505496
6.1679354,4.778118,-5.0948477,0.73464334,1.0023052,0.17717093,-10.242394,0.272939
6.169106,4.7730503,-5.0948477,0.73464334,1.0023052,0.17717093,-10.242394,0.272939
6.1703663,4.7679753,-5.087391,0.7474265,1.0822,0.08140286,-10.472239,0.29209262
6.1716294,4.7628903,-5.087391,0.7474265,1.0822,0.08140286,-10.472239,0.29209262
6.17296,4.757871,-5.068216,0.76234025,1.1631601,-0.076614454,-10.773908,0.21547815
6.174278,4.752897,-5.068216,0.76234025,1.1631601,-0.076614454,-10.773908,0.21547815
6.175683,4.7479463,-5.036258,0.77405816,1.243055,-0.33997664,-11.051635,0.30166942
6.1770964,4.74296,-5.036258,0.77405816,1.243055,-0.33997664,-11.051635,0.30166942
6.1785717,4.7380605,-4.9925823,0.7836455,1.319754,-0.41180268,-11.449073,0.2825158
6.1800547,4.7331257,-4.9925823,0.7836455,1.319754,-0.41180268,-11.449073,0.2825158
6.1815987,4.728281,-4.9329276,0.78897184,1.3943225,-0.5650316,-11.803414,0.18195933
6.183143,4.7234254,-4.9329276,0.78897184,1.3943225,-0.5650316,-11.803414,0.18195933
6.1847544,4.718652,-4.8562284,0.78684133,1.4667605,-0.7613561,-12.215217,0.1436521
6.1863647,4.713872,-4.8562284,0.78684133,1.4667605,-0.7613561,-12.215217,0.1436521
6.188039,4.7091856,-4.7678113,0.7783192,1.537068,-0.92416185,-12.5504055,0.038307227
6.188039,4.7091856,-4.7678113,0.7783192,1.537068,-0.92416185,-12.5504055,0.038307227
6.188039,4.7091856,-4.7678113,0.7783192,1.537068,-0.92416185,-12.5504055,0.038307227
6.188039,4.7091856,-4.7678113,0.7783192,1.537068,-0.92416185,-12.5504055,0.038307227
6.195193,4.69034,-4.5430408,0.7495571,1.661704,-1.0534488,-12.943054,-0.18674773
6.198599,4.6818995,-4.407752,0.7303823,1.7149671,-1.1540052,-13.005303,-0.33518824
6.198599,4.6818995,-4.407752,0.7303823,1.7149671,-1.1540052,-13.005303,-0.33518824
6.198599,4.6818995,-4.407752,0.7303823,1.7149671,-1.1540052,-13.005303,-0.33518824
6.198599,4.6818995,-4.407752,0.7303823,1.7149671,-1.1540052,-13.005303,-0.33518824
6.198599,4.6818995,-4.407752,0.7303823,1.7149671,-1.1540052,-13.005303,-0.33518824
6.198599,4.6818995,-4.407752,0.7303823,1.7149671,-1.1540052,-13.005303,-0.33518824
6.198599,4.6818995,-4.407752,0.7303823,1.7149671,-1.1540052,-13.005303,-0.33518824
6.209876,4.6579714,-3.940101,0.6547485,1.8289504,-1.2689269,-13.378799,-0.5554548
6.2109113,4.6558914,-3.940101,0.6547485,1.8289504,-1.2689269,-13.378799,-0.5554548
6.2109113,4.6558914,-3.940101,0.6547485,1.8289504,-1.2689269,-13.378799,-0.5554548
6.2109113,4.6558914,-3.940101,0.6547485,1.8289504,-1.2689269,-13.378799,-0.5554548
6.2109113,4.6558914,-3.940101,0.6547485,1.8289504,-1.2689269,-13.378799,-0.5554548
6.2109113,4.6558914,-3.940101,0.6547485,1.8289504,-1.2689269,-13.378799,-0.5554548
6.221332,4.635142,-3.3904245,0.5833758,1.9056494,-1.4700398,-13.393165,-0.7278373
6.223289,4.6318684,-3.3904245,0.5833758,1.9056494,-1.4700398,-13.393165,-0.7278373
6.225883,4.6276636,-3.1922853,0.55035263,1.9152368,-1.2497733,-13.330915,-0.8379706
6.225883,4.6276636,-3.1922853,0.55035263,1.9152368,-1.2497733,-13.330915,-0.8379706
6.225883,4.6276636,-3.1922853,0.55035263,1.9152368,-1.2497733,-13.330915,-0.8379706
6.225883,4.6276636,-3.1922853,0.55035263,1.9152368,-1.2497733,-13.330915,-0.8379706
6.225883,4.6276636,-3.1922853,0.55035263,1.9152368,-1.2497733,-13.330915,-0.8379706
6.235819,4.6139235,-2.7938764,0.48856726,1.8981926,-1.2306197,-13.306973,-0.8523358
6.2414427,4.6066384,-2.397598,0.4395651,1.8523862,-1.6759412,-13.445837,-0.89543146
6.2414427,4.6066384,-2.397598,0.4395651,1.8523862,-1.6759412,-13.445837,-0.89543146
6.2414427,4.6066384,-2.397598,0.4395651,1.8523862,-1.6759412,-13.445837,-0.89543146
6.243354,4.604314,-2.397598,0.4395651,1.8523862,-1.6759412,-13.445837,-0.89543146
6.245287,4.602122,-2.2015893,0.4065419,1.8161672,-1.6089035,-13.599066,-0.79487497
6.24714,4.6000175,-2.2015893,0.4065419,1.8161672,-1.6089035,-13.599066,-0.79487497
6.24714,4.6000175,-2.2015893,0.4065419,1.8161672,-1.6089035,-13.599066,-0.79487497
6.2507944,4.5961585,-2.0077114,0.37138817,1.7735567,-1.4939818,-13.690045,-0.81402856
6.25258,4.594413,-1.8127679,0.33943024,1.7213587,-1.3455414,-13.804967,-0.7038953
6.254465,4.5925694,-1.8127679,0.33943024,1.7213587,-1.3455414,-13.804967,-0.7038953
6.254465,4.5925694,-1.8127679,0.33943024,1.7213587,-1.3455414,-13.804967,-0.7038953
6.257777,4.589592,-1.6167592,0.31173337,1.6606387,-1.3742718,-13.867216,-0.641646
6.259437,4.588238,-1.4175547,0.28829753,1.5913965,-1.3838485,-13.804967,-0.6847417
6.2610803,4.586896,-1.4175547,0.28829753,1.5913965,-1.3838485,-13.804967,-0.6847417
6.2610803,4.586896,-1.4175547,0.28829753,1.5913965,-1.3838485,-13.804967,-0.6847417
6.264243,4.5845914,-1.2183503,0.26486173,1.5157627,-1.3359646,-13.685257,-0.7086837
6.26573,4.583644,-1.0202111,0.24036065,1.4305415,-1.3024458,-13.570335,-0.81881696
6.2672076,4.582702,-1.0202111,0.24036065,1.4305415,-1.3024458,-13.570335,-0.81881696
6.2672076,4.582702,-1.0202111,0.24036065,1.4305415,-1.3024458,-13.570335,-0.81881696
6.2699294,4.581233,-0.8242025,0.21372904,1.3367982,-1.316811,-13.503298,-0.842759
6.2699294,4.581233,-0.6281938,0.18816268,1.2355981,-1.3120226,-13.239936,-0.8810662
6.2725425,4.5801063,-0.6281938,0.18816268,1.2355981,-1.3120226,-13.239936,-0.8810662
6.2725425,4.5801063,-0.43431568,0.16259634,1.1333327,-1.484405,-13.129802,-1.0247183
6.274992,4.579341,-0.43431568,0.16259634,1.1333327,-1.484405,-13.129802,-1.0247183
6.276106,4.5791497,-0.24256809,0.14022578,1.0268062,-1.5897499,-12.938266,-1.0295067
6.277209,4.57896,-0.24256809,0.14022578,1.0268062,-1.5897499,-12.938266,-1.0295067
6.278233,4.578951,-0.052951016,0.11678997,0.92027986,-1.6472107,-12.847286,-1.115698
6.279257,4.5789423,-0.052951016,0.11678997,0.92027986,-1.6472107,-12.847286,-1.115698
6.28016,4.579129,0.13453554,0.09441942,0.81162286,-1.5658079,-12.885593,-0.9768343
6.281063,4.5793166,0.13453554,0.09441942,0.81162286,-1.5658079,-12.885593,-0.9768343
6.2818556,4.5796947,0.3209568,0.06672254,0.6997701,-1.5227122,-13.053187,-0.92416185
6.2826505,4.580074,0.3209568,0.06672254,0.6997701,-1.5227122,-13.053187,-0.92416185
6.2826505,4.580074,0.3209568,0.06672254,0.6997701,-1.5227122,-13.053187,-0.92416185
0.0008271263,4.5812206,0.50524753,0.03369934,0.58365625,-1.5131354,-13.163321,-0.79008657
0.0020168955,4.5827947,0.6852772,-0.005715442,0.46541193,-1.5705963,-13.115437,-0.7757214
0.0020168955,4.5827947,0.6852772,-0.005715442,0.46541193,-1.5705963,-13.115437,-0.7757214
0.0024509558,4.583574,0.86211115,-0.049391285,0.34503704,-1.6998832,-13.053187,-0.8379706
0.0024509558,4.583574,0.86211115,-0.049391285,0.34503704,-1.6998832,-13.053187,-0.8379706
0.0033401975,4.5854425,1.034684,-0.09413239,0.22572741,-1.8004397,-12.943054,-0.79966336
0.0036776953,4.5864987,1.034684,-0.09413239,0.22572741,-1.8004397,-12.943054,-0.79966336
0.0039423774,4.587908,1.1998,-0.14313456,0.10961359,-1.7717092,-12.995727,-0.7469909
0.004152741,4.5890245,1.1998,-0.14313456,0.10961359,-1.7717092,-12.995727,-0.7469909
0.0042844093,4.5904455,1.360655,-0.19213672,-0.0033044433,-1.7286136,-12.871228,-0.7565677
0.0044163577,4.591863,1.360655,-0.19213672,-0.0033044433,-1.7286136,-12.871228,-0.7565677
0.0044542835,4.5934243,1.518314,-0.23581256,-0.109830886,-1.8052281,-12.689269,-0.842759
0.004493589,4.5950212,1.518314,-0.23581256,-0.109830886,-1.8052281,-12.689269,-0.842759
0.0044384743,4.5967064,1.6717122,-0.27522734,-0.21209627,-1.7142484,-12.492945,-0.89064306
0.0043828525,4.5984173,1.6717122,-0.27522734,-0.21209627,-1.7142484,-12.492945,-0.89064306
0.0042380425,4.600271,1.8187187,-0.30825055,-0.30903533,-1.733402,-12.41633,-0.94810385
0.0040934687,4.6021256,1.8187187,-0.30825055,-0.30903533,-1.733402,-12.41633,-0.94810385
0.0038609158,4.604121,1.9593335,-0.33807796,-0.40171334,-1.6950948,-12.397177,-0.9816227
0.003629253,4.6061087,1.9593335,-0.33807796,-0.40171334,-1.6950948,-12.397177,-0.9816227
0.003314682,4.608227,2.0956874,-0.36577484,-0.4901303,-1.6472107,-12.282255,-1.0342951
0.0029998284,4.610345,2.0956874,-0.36577484,-0.4901303,-1.6472107,-12.282255,-1.0342951
0.0026061216,4.6125917,2.2267148,-0.39240643,-0.57215565,-1.5131354,-12.258312,-1.0534488
0.0022122224,4.6148353,2.2267148,-0.39240643,-0.57215565,-1.5131354,-12.258312,-1.0534488
0.0017424303,4.617208,2.3502855,-0.41584226,-0.6477894,-1.4891934,-12.263102,-0.9672575
0.0012725282,4.619578,2.3502855,-0.41584226,-0.6477894,-1.4891934,-12.263102,-0.9672575
0.00073136686,4.6220703,2.46853,-0.43501702,-0.7180969,-1.5131354,-12.243947,-0.8762778
0.00018991155,4.62456,2.46853,-0.43501702,-0.7180969,-1.5131354,-12.243947,-0.8762778
6.2827663,4.6271725,2.5867743,-0.45419177,-0.78414327,-1.5466543,-12.181698,-0.770933
6.2821574,4.629782,2.5867743,-0.45419177,-0.78414327,-1.5466543,-12.181698,-0.770933
6.2821574,4.629782,2.7039535,-0.47336653,-0.84699386,-1.4700398,-12.152967,-0.7134721
6.2807875,4.6353326,2.7039535,-0.47336653,-0.84699386,-1.4700398,-12.152967,-0.7134721
6.280058,4.6381655,2.8200672,-0.49147603,-0.90345293,-1.460463,-12.186486,-0.545878
6.27934,4.6409492,2.8200672,-0.49147603,-0.90345293,-1.460463,-12.186486,-0.545878
6.278555,4.6439047,2.936181,-0.507455,-0.95565087,-1.4748282,-12.109872,-0.51235914
6.2777686,4.6468625,2.936181,-0.507455,-0.95565087,-1.4748282,-12.109872,-0.51235914
6.2769265,4.649948,3.052295,-0.5191729,-1.0057184,-1.4700398,-12.138602,-0.39743748
6.2760825,4.653036,3.052295,-0.5191729,-1.0057184,-1.4700398,-12.138602,-0.39743748
6.275189,4.6562433,3.1705391,-0.527695,-1.0525899,-1.3455414,-12.224793,-0.33997664
6.274298,4.659437,3.1705391,-0.527695,-1.0525899,-1.3455414,-12.224793,-0.33997664
6.273363,4.662741,3.2898488,-0.53621715,-1.0952005,-1.1971009,-12.26789,-0.23942018
6.2724223,4.6660643,3.2898488,-0.53621715,-1.0952005,-1.1971009,-12.26789,-0.23942018
6.2714305,4.6695175,3.4091585,-0.5468698,-1.1378111,-1.0534488,-12.157756,-0.1388637
6.270444,4.672953,3.4091585,-0.5468698,-1.1378111,-1.0534488,-12.157756,-0.1388637
6.2694087,4.6765103,3.5231419,-0.5553919,-1.181487,-0.8523358,-12.018892,-0.1340753
6.2683744,4.6800623,3.5231419,-0.5553919,-1.181487,-0.8523358,-12.018892,-0.1340753
6.267283,4.683735,3.6296682,-0.5617835,-1.2283586,-0.60333884,-11.81778,-0.06703765
6.266196,4.687394,3.6296682,-0.5617835,-1.2283586,-0.60333884,-11.81778,-0.06703765
6.2650332,4.6911798,3.729803,-0.56497926,-1.2773607,-0.5315128,-11.587936,0.18195933
6.263874,4.69496,3.729803,-0.56497926,-1.2773607,-0.5315128,-11.587936,0.18195933
6.2626495,4.698842,3.8235464,-0.56284875,-1.3295587,-0.4405331,-11.386824,0.2777274
6.261429,4.7027187,3.8235464,-0.56284875,-1.3295587,-0.4405331,-11.386824,0.2777274
6.2601485,4.7066865,3.910898,-0.5553919,-1.3806914,-0.46447513,-11.209652,0.40222588
6.2588706,4.710654,3.910898,-0.5553919,-1.3806914,-0.46447513,-11.209652,0.40222588
6.257519,4.7147045,3.9886622,-0.54473925,-1.4318241,-0.31603462,-11.09473,0.56982
6.2561693,4.7187557,3.9886622,-0.54473925,-1.4318241,-0.31603462,-11.09473,0.56982
6.254779,4.722872,4.060035,-0.5319561,-1.4818915,-0.36391866,-10.807426,0.545878
6.253392,4.7269826,4.060035,-0.5319561,-1.4818915,-0.36391866,-10.807426,0.545878
6.2519445,4.731165,4.125016,-0.5191729,-1.5308937,-0.31124622,-10.620679,0.6512229
6.250501,4.735344,4.125016,-0.5191729,-1.5308937,-0.31124622,-10.620679,0.6512229
6.248998,4.739585,4.1825404,-0.5042592,-1.5798959,-0.12928689,-10.424355,0.63206923
6.2475014,4.7438216,4.1825404,-0.5042592,-1.5798959,-0.12928689,-10.424355,0.63206923
6.2459655,4.7480993,4.2315426,-0.4893455,-1.6278328,-0.1388637,-10.25676,0.61291564
6.2444353,4.752369,4.2315426,-0.4893455,-1.6278328,-0.1388637,-10.25676,0.61291564
6.2428794,4.756651,4.273088,-0.47230127,-1.6725738,-0.08619126,-10.156203,0.49320555
6.2413254,4.7609196,4.273088,-0.47230127,-1.6725738,-0.08619126,-10.156203,0.49320555
6.239723,4.765176,4.3061113,-0.45206124,-1.713054,0.1436521,-9.959879,0.41180268
6.238111,4.7694173,4.3061113,-0.45206124,-1.713054,0.1436521,-9.959879,0.41180268
6.2364516,4.773674,4.3284817,-0.43182123,-1.753534,0.009576807,-9.797073,0.34955344
6.234785,4.777925,4.3284817,-0.43182123,-1.753534,0.009576807,-9.797073,0.34955344
6.233068,4.78218,4.34233,-0.41264647,-1.7918835,-0.1388637,-9.591172,0.18195933
6.231346,4.7864323,4.34233,-0.41264647,-1.7918835,-0.1388637,-9.591172,0.18195933
6.229583,4.7906885,4.3497868,-0.39773276,-1.8270372,-0.20111294,-9.275137,0.07182605
6.227816,4.7949433,4.3497868,-0.39773276,-1.8270372,-0.20111294,-9.275137,0.07182605
6.22601,4.799198,4.3487215,-0.38601485,-1.8579298,-0.30166942,-8.987833,-0.110133275
6.2242055,4.8034434,4.3487215,-0.38601485,-1.8579298,-0.30166942,-8.987833,-0.110133275
6.2223005,4.807887,4.3370037,-0.37642747,-1.8813657,-0.37349546,-8.825027,-0.0047884034
6.2205553,4.8119526,4.3370037,-0.37642747,-1.8813657,-0.37349546,-8.825027,-0.0047884034
6.2187223,4.8161583,4.3156986,-0.37110114,-1.9005405,-0.33997664,-8.719683,0.05267244
6.21688,4.8203807,4.3156986,-0.37110114,-1.9005405,-0.33997664,-8.719683,0.05267244
6.2150307,4.824579,4.2880015,-0.36897063,-1.9122584,-0.37349546,-8.604761,0.11971009
6.2131796,4.8287764,4.2880015,-0.36897063,-1.9122584,-0.37349546,-8.604761,0.11971009
6.2113214,4.832938,4.252848,-0.37110114,-1.9175847,-0.4213795,-8.561666,0.08140286
6.209461,4.837099,4.252848,-0.37110114,-1.9175847,-0.4213795,-8.561666,0.08140286
6.2076077,4.8412223,4.2102375,-0.37642747,-1.9186499,-0.6368576,-8.528147,0.06703765
6.2057548,4.8453407,4.2102375,-0.37642747,-1.9186499,-0.6368576,-8.528147,0.06703765
6.2039075,4.849418,4.159105,-0.3849496,-1.9101279,-0.7086837,-8.403648,0.08140286
6.2020607,4.853491,4.159105,-0.3849496,-1.9101279,-0.7086837,-8.403648,0.08140286
6.200238,4.857505,4.1026454,-0.39879802,-1.8898878,-0.8619126,-8.207323,0.07182605
6.198413,4.861523,4.1026454,-0.39879802,-1.8898878,-0.8619126,-8.207323,0.07182605
6.196613,4.865473,4.036599,-0.41584226,-1.8611257,-0.92895025,-8.001422,0.019153614
6.1948094,4.8694267,4.036599,-0.41584226,-1.8611257,-0.92895025,-8.001422,0.019153614
6.19304,4.873295,3.963096,-0.4382128,-1.8227761,-0.7086837,-7.752425,0.11492168
6.19304,4.873295,3.963096,-0.4382128,-1.8227761,-0.7086837,-7.752425,0.11492168
6.19304,4.873295,3.963096,-0.4382128,-1.8227761,-0.7086837,-7.752425,0.11492168
6.19304,4.873295,3.963096,-0.4382128,-1.8227761,-0.7086837,-7.752425,0.11492168
6.19304,4.873295,3.963096,-0.4382128,-1.8227761,-0.7086837,-7.752425,0.11492168
6.19304,4.873295,3.963096,-0.4382128,-1.8227761,-0.7086837,-7.752425,0.11492168
6.19304,4.873295,3.6712136,-0.49999815,-1.6747044,0.82360536,-6.9862804,0.33997664
6.180663,4.8982654,3.6712136,-0.49999815,-1.6747044,0.82360536,-6.9862804,0.33997664
6.1789613,4.9016275,3.547643,-0.5031939,-1.6214411,1.1300632,-6.694188,0.39264908
6.177127,4.9052544,3.547643,-0.5031939,-1.6214411,1.1300632,-6.694188,0.39264908
6.1754904,4.908418,3.4102237,-0.4957371,-1.5745695,1.2641385,-6.4164605,0.4405331
6.1736774,4.9119244,3.4102237,-0.4957371,-1.5745695,1.2641385,-6.4164605,0.4405331
6.1720505,4.915002,3.2600214,-0.4808234,-1.5287632,1.2593501,-6.1530986,0.5315128
6.1720505,4.915002,3.2600214,-0.4808234,-1.5287632,1.2593501,-6.1530986,0.5315128
6.168708,4.921296,3.0991664,-0.4595181,-1.4808263,1.2976574,-5.9663506,0.7326257
6.167045,4.924351,3.0991664,-0.4595181,-1.4808263,1.2976574,-5.9663506,0.7326257
6.1655164,4.9271007,2.9308548,-0.43608227,-1.4286283,1.0534488,-5.875371,0.94331545
6.1655164,4.9271007,2.9308548,-0.43608227,-1.4286283,1.0534488,-5.875371,0.94331545
6.162357,4.932707,2.7572167,-0.41584226,-1.3785609,1.6232687,-5.530606,0.9768343
6.162357,4.932707,2.7572167,-0.41584226,-1.3785609,1.6232687,-5.530606,0.9768343
6.159331,4.937886,2.5793176,-0.38601485,-1.3210366,1.1923125,-5.4300494,1.067814
6.157847,4.9403834,2.5793176,-0.38601485,-1.3210366,1.1923125,-5.4300494,1.067814
6.156412,4.9428873,2.3928962,-0.35086113,-1.253925,0.7326257,-5.592855,1.1300632
6.155156,4.945087,2.3928962,-0.35086113,-1.253925,0.7326257,-5.592855,1.1300632
6.1540866,4.9471416,2.2000833,-0.32955584,-1.1665733,0.6464345,-5.5880666,1.2641385
6.1540866,4.9471416,2.2000833,-0.32955584,-1.1665733,0.6464345,-5.5880666,1.2641385
6.151896,4.951235,1.9912915,-0.31357688,-1.056851,2.4947581,-4.6686935,1.6280571
6.151896,4.951235,1.9912915,-0.31357688,-1.056851,2.4947581,-4.6686935,1.6280571
6.1494246,4.95531,1.7665206,-0.2794884,-0.927954,2.0207062,-4.582502,1.8100165
6.148329,4.9571505,1.7665206,-0.2794884,-0.927954,2.0207062,-4.582502,1.8100165
6.147367,4.9587774,1.5353583,-0.22729045,-0.8118402,1.5801731,-4.4436383,1.7190368
6.147367,4.9587774,1.5353583,-0.22729045,-0.8118402,1.5801731,-4.4436383,1.7190368
6.147367,4.9587774,1.5353583,-0.22729045,-0.8118402,1.5801731,-4.4436383,1.7190368
6.147367,4.9587774,1.5353583,-0.22729045,-0.8118402,1.5801731,-4.4436383,1.7190368
6.144451,4.9636045,1.0677072,-0.14739561,-0.58387357,1.7142484,-3.9552212,1.3838485
6.1434164,4.9651804,1.0677072,-0.14739561,-0.58387357,1.7142484,-3.9552212,1.3838485
6.1427684,4.9660797,0.84187114,-0.113307156,-0.47947764,1.733402,-3.7205894,1.1875241
6.1421347,4.966958,0.84187114,-0.113307156,-0.47947764,1.733402,-3.7205894,1.1875241
6.14162,4.967574,0.6202961,-0.080283955,-0.38679963,1.7477672,-3.7541082,1.1013328
6.14162,4.967574,0.6202961,-0.080283955,-0.38679963,1.7477672,-3.7541082,1.1013328
6.140598,4.9687614,0.4051127,-0.049391285,-0.30370903,1.7860745,-4.027047,1.1300632
6.140156,4.9691763,0.4051127,-0.049391285,-0.30370903,1.7860745,-4.027047,1.1300632
6.1397824,4.969383,0.19951665,-0.023824938,-0.23127104,2.0159178,-4.3239284,1.1300632
6.1394153,4.9695854,0.19951665,-0.023824938,-0.23127104,2.0159178,-4.3239284,1.1300632
6.1391063,4.969598,0.0035080016,-0.0046501774,-0.17161623,2.3080103,-4.6112323,1.2449849
6.138803,4.9696093,0.0035080016,-0.0046501774,-0.17161623,2.3080103,-4.6112323,1.2449849
6.1385593,4.969439,-0.18930486,0.02091617,-0.11622248,2.2697031,-4.8267107,1.388637
6.138315,4.9692683,-0.18930486,0.02091617,-0.11622248,2.2697031,-4.8267107,1.388637
6.138315,4.9692683,-0.3799872,0.052874103,-0.05976346,2.2840683,-5.00867,1.5993267
6.137959,4.968578,-0.3799872,0.052874103,-0.05976346,2.2840683,-5.00867,1.5993267
6.137852,4.9680552,-0.5717348,0.0890931,-0.0011739144,2.336741,-5.1379566,1.7812861
6.1377454,4.967534,-0.5717348,0.0890931,-0.0011739144,2.336741,-5.1379566,1.7812861
6.1376934,4.966446,-0.7666782,0.1338342,0.060611423,2.408567,-5.2289367,1.8626889
6.1376934,4.966446,-0.7666782,0.1338342,0.060611423,2.408567,-5.2289367,1.8626889
6.137697,4.9651384,-0.96375215,0.18283637,0.12346203,2.327164,-5.33907,2.0111294
6.137697,4.9651384,-0.96375215,0.18283637,0.12346203,2.327164,-5.33907,2.0111294
6.1378317,4.9634314,-1.1608261,0.23716486,0.18631263,1.958457,-5.5018754,2.1739352
6.137974,4.962351,-1.1608261,0.23716486,0.18631263,1.958457,-5.5018754,2.1739352
6.138216,4.961066,-1.3557694,0.29149333,0.24809797,1.7142484,-5.741296,2.3319526
6.1384516,4.9598203,-1.3557694,0.29149333,0.24809797,1.7142484,-5.741296,2.3319526
6.1387496,4.9584484,-1.5443213,0.34156078,0.30562225,1.661576,-5.971139,2.3989902
6.1387496,4.9584484,-1.5443213,0.34156078,0.30562225,1.661576,-5.971139,2.3989902
6.1393867,4.9555683,-1.7275467,0.38736713,0.36314654,1.5945383,-6.205771,2.3750482
6.139765,4.9539714,-1.7275467,0.38736713,0.36314654,1.5945383,-6.205771,2.3750482
6.1401963,4.952199,-1.9011848,0.42678192,0.41854027,1.6328455,-6.4547677,2.303222
6.1406317,4.9504123,-1.9011848,0.42678192,0.41854027,1.6328455,-6.4547677,2.303222
6.141105,4.948487,-2.0641704,0.46193564,0.46754244,1.661576,-6.9000893,2.2409728
6.141581,4.9465523,-2.0641704,0.46193564,0.46754244,1.661576,-6.9000893,2.2409728
6.14213,4.94448,-2.2143726,0.49495885,0.510153,1.4460979,-7.350199,2.2697031
6.1426783,4.9424095,-2.2143726,0.49495885,0.510153,1.4460979,-7.350199,2.2697031
6.1433005,4.940212,-2.3464653,0.5215905,0.5442415,1.2401965,-7.7189064,2.1978772
6.143891,4.9381256,-2.3464653,0.5215905,0.5442415,1.2401965,-7.7189064,2.1978772
6.1445813,4.9358215,-2.4593835,0.5386347,0.5708731,1.1300632,-8.078036,2.1452048
6.145303,4.933402,-2.4593835,0.5386347,0.5708731,1.1300632,-8.078036,2.1452048
6.1460166,4.931005,-2.5531268,0.5514179,0.5889826,1.1492168,-8.360553,2.1308396
6.1467214,4.9286227,-2.5531268,0.5514179,0.5889826,1.1492168,-8.360553,2.1308396
6.1474767,4.926144,-2.6298258,0.5620705,0.602831,1.0773908,-8.604761,2.1787236
6.1482315,4.923647,-2.6298258,0.5620705,0.602831,1.0773908,-8.604761,2.1787236
6.148974,4.921117,-2.691611,0.5716579,0.6092226,1.115698,-8.700529,2.2122424
6.1497135,4.9185815,-2.691611,0.5716579,0.6092226,1.115698,-8.700529,2.2122424
6.1504707,4.9159946,-2.7416785,0.58124524,0.61348367,1.1013328,-8.839393,2.1499932
6.1512218,4.913409,-2.7416785,0.58124524,0.61348367,1.1013328,-8.839393,2.1499932
6.1512218,4.913409,-2.7416785,0.58124524,0.61348367,1.1013328,-8.839393,2.1499932
6.1527867,4.908125,-2.7853544,0.59296316,0.6145489,1.0247183,-8.901642,2.0733786
6.153566,4.905467,-2.8215733,0.6046811,0.6145489,0.9864111,-9.011775,2.1021092
6.1543417,4.9027996,-2.8215733,0.6046811,0.6145489,0.9864111,-9.011775,2.1021092
6.155028,4.9001026,-2.8577924,0.61746424,0.60815734,1.388637,-8.652645,2.4756045
6.155713,4.897403,-2.8577924,0.61746424,0.60815734,1.388637,-8.652645,2.4756045
6.1564894,4.8945956,-2.8833587,0.62918216,0.5804605,0.7661445,-8.75799,2.1068976
6.157236,4.891877,-2.8833587,0.62918216,0.5804605,0.7661445,-8.75799,2.1068976
6.157976,4.8891573,-2.8897502,0.636639,0.5293278,0.63206923,-8.959103,1.8291701
6.1587286,4.8863754,-2.8897502,0.636639,0.5293278,0.63206923,-8.959103,1.8291701
6.159443,4.883548,-2.884424,0.6409001,0.46860772,0.22026655,-9.375694,1.8483237
6.1601357,4.880796,-2.884424,0.6409001,0.46860772,0.22026655,-9.375694,1.8483237
6.1607823,4.878024,-2.875902,0.64729166,0.41214868,-0.023942016,-9.509769,1.7429788
6.161431,4.8752384,-2.875902,0.64729166,0.41214868,-0.023942016,-9.509769,1.7429788
6.1620417,4.872426,-2.8705754,0.65155274,0.37166864,-0.33518824,-9.710882,1.4508862
6.1626616,4.869568,-2.8705754,0.65155274,0.37166864,-0.33518824,-9.710882,1.4508862
6.1632376,4.866769,-2.8769672,0.65155274,0.35142863,-0.33039984,-9.782708,1.2114661
6.163824,4.863918,-2.8769672,0.65155274,0.35142863,-0.33039984,-9.782708,1.2114661
6.1643887,4.861079,-2.8950765,0.6409001,0.35036334,-0.05267244,-9.849746,1.0726024
6.164958,4.858214,-2.8950765,0.6409001,0.35036334,-0.05267244,-9.849746,1.0726024
6.165531,4.8553023,-2.9249039,0.62705165,0.36208126,0.02873042,-9.878476,0.9768343
6.1660824,4.852504,-2.9249039,0.62705165,0.36208126,0.02873042,-9.878476,0.9768343
6.166671,4.8495502,-2.9632535,0.6142685,0.38658234,-0.0047884034,-9.864111,0.8619126
6.167281,4.8464904,-2.9632535,0.6142685,0.38658234,-0.0047884034,-9.864111,0.8619126
6.1679077,4.8434978,-3.0079947,0.6100074,0.4238666,-0.05746084,-9.782708,0.8619126
6.168531,4.840525,-3.0079947,0.6100074,0.4238666,-0.05746084,-9.782708,0.8619126
6.1691966,4.837472,-3.0548663,0.6100074,0.47073823,-0.04309563,-9.725247,0.7182605
6.169864,4.8344107,-3.0548663,0.6100074,0.47073823,-0.04309563,-9.725247,0.7182605
6.1705837,4.8313212,-3.0985422,0.6121379,0.52719724,-0.047884032,-9.691729,0.6943185
6.171303,4.8282337,-3.0985422,0.6121379,0.52719724,-0.047884032,-9.691729,0.6943185
6.172086,4.8251104,-3.139022,0.6132032,0.5857868,-0.12928689,-9.639056,0.7326257
6.1728663,4.8219957,-3.139022,0.6132032,0.5857868,-0.12928689,-9.639056,0.7326257
6.173702,4.8188477,-3.1752412,0.6142685,0.6411806,-0.21068975,-9.605537,0.7134721
6.174538,4.8156986,-3.1752412,0.6142685,0.6411806,-0.21068975,-9.605537,0.7134721
6.1754193,4.812523,-3.2008076,0.6121379,0.691248,-0.2681506,-9.648633,0.6368576
6.1763024,4.809343,-3.2008076,0.6121379,0.691248,-0.2681506,-9.648633,0.6368576
6.177228,4.8061533,-3.2167864,0.6057463,0.7359891,-0.2681506,-9.782708,0.6655881
6.178153,4.802967,-3.2167864,0.6057463,0.7359891,-0.2681506,-9.782708,0.6655881
6.179114,4.7997727,-3.218917,0.59722424,0.77327335,-0.29688102,-9.902418,0.63206923
6.1800714,4.7965875,-3.218917,0.59722424,0.77327335,-0.29688102,-9.902418,0.63206923
6.1810493,4.793414,-3.2093296,0.5865716,0.7988397,-0.24899697,-10.0508585,0.58897364
6.182032,4.7902236,-3.2093296,0.5865716,0.7988397,-0.24899697,-10.0508585,0.58897364
6.1830277,4.7870665,-3.1858938,0.57485366,0.8169492,-0.2681506,-10.19451,0.5746084
6.1840224,4.783911,-3.1858938,0.57485366,0.8169492,-0.2681506,-10.19451,0.5746084
6.185024,4.7807894,-3.1528707,0.56100523,0.8254713,-0.36391866,-10.491392,0.5602432
6.186022,4.777676,-3.1528707,0.56100523,0.8254713,-0.36391866,-10.491392,0.5602432
6.1870246,4.7745914,-3.1113253,0.54609156,0.8286671,-0.4165911,-10.769119,0.545878
6.1880245,4.7715154,-3.1113253,0.54609156,0.8286671,-0.4165911,-10.769119,0.545878
6.189023,4.7684865,-3.0633883,0.5311778,0.82973236,-0.46447513,-10.965444,0.5267244
6.19002,4.7654605,-3.0633883,0.5311778,0.82973236,-0.46447513,-10.965444,0.5267244
6.191014,4.7624874,-3.0101252,0.51626414,0.82973236,-0.49799395,-11.180922,0.48841715
6.1920085,4.759512,-3.0101252,0.51626414,0.82973236,-0.49799395,-11.180922,0.48841715
6.192998,4.756595,-2.9536662,0.50028515,0.8286671,-0.49320555,-11.362882,0.45010993
6.1939874,4.7536783,-2.9536662,0.50028515,0.8286671,-0.49320555,-11.362882,0.45010993
6.194971,4.750817,-2.8961418,0.48537147,0.8254713,-0.59376204,-11.525687,0.41180268
6.195954,4.747958,-2.8961418,0.48537147,0.8254713,-0.59376204,-11.525687,0.41180268
6.1969295,4.7451525,-2.8386176,0.47045776,0.8190797,-0.6703765,-11.659762,0.38307226
6.197944,4.7422314,-2.8386176,0.47045776,0.8190797,-0.6703765,-11.659762,0.38307226
6.1989217,4.739451,-2.780028,0.45554405,0.8105576,-0.7038953,-11.7268,0.4309563
6.1998634,4.7367687,-2.780028,0.45554405,0.8105576,-0.7038953,-11.7268,0.4309563
6.2007837,4.7341824,-2.719308,0.44382617,0.8052313,-0.89064306,-11.808203,0.30645782
6.2017,4.7316065,-2.719308,0.44382617,0.8052313,-0.89064306,-11.808203,0.30645782
6.202641,4.728977,-2.6575227,0.43210825,0.79351336,-0.92416185,-11.774684,0.14844051
6.203613,4.7262607,-2.6575227,0.43210825,0.79351336,-0.92416185,-11.774684,0.14844051
6.2045875,4.7235622,-2.594672,0.41932508,0.7807302,-0.8331822,-11.75553,0.15801731
6.205461,4.721143,-2.594672,0.41932508,0.7807302,-0.8331822,-11.75553,0.15801731
6.206366,4.7186527,-2.5307562,0.40867242,0.76475126,-0.81881696,-11.836933,0.15801731
6.2072773,4.7161446,-2.5307562,0.40867242,0.76475126,-0.81881696,-11.836933,0.15801731
6.2081666,4.713705,-2.461514,0.39908504,0.74877226,-0.9528923,-11.8896055,-0.062249243
6.209206,4.7108526,-2.461514,0.39908504,0.74877226,-0.9528923,-11.8896055,-0.062249243
6.2099595,4.708788,-2.389076,0.3884324,0.7264017,-0.9720459,-11.899182,-0.15801731
6.2099595,4.708788,-2.389076,0.3884324,0.7264017,-0.9720459,-11.899182,-0.15801731
6.2116485,4.704156,-2.389076,0.3884324,0.7264017,-0.9720459,-11.899182,-0.15801731
6.212509,4.701791,-2.312377,0.37138817,0.69870484,-0.90021986,-11.856087,-0.21068975
6.2134037,4.6992955,-2.2335474,0.35114816,0.6635511,-0.7086837,-11.951855,-0.320823
6.2156634,4.6929693,-2.1504567,0.3341039,0.62626684,-0.6991069,-11.947066,-0.25857377
6.2156634,4.6929693,-2.1504567,0.3341039,0.62626684,-0.6991069,-11.947066,-0.25857377
6.2156634,4.6929693,-2.1504567,0.3341039,0.62626684,-0.6991069,-11.947066,-0.25857377
6.2156634,4.6929693,-2.1504567,0.3341039,0.62626684,-0.6991069,-11.947066,-0.25857377
